,trial,coherence,coherence_bin,green_side,correct_side,target_onset,checker_onset,decision,green_decision,decision_time,correct_decision
0,0,-0.24008081425113015,-0.2,0.0,1.0,393.0,746.0,0.0,1,1861.0,0
1,1,0.08883826322935517,0.1,0.0,0.0,409.0,553.0,0.0,1,2038.0,1
2,2,-0.32138500001305914,-0.3,0.0,1.0,295.0,824.0,0.0,1,1881.0,0
3,3,0.7033822554683055,0.7,1.0,1.0,300.0,699.0,0.0,0,2001.0,0
4,4,0.324968749191357,0.3,1.0,1.0,287.0,578.0,0.0,0,2135.0,0
5,5,-0.16905280898144204,-0.2,1.0,0.0,405.0,753.0,0.0,0,1842.0,1
6,6,0.4651848421342769,0.5,0.0,0.0,392.0,896.0,0.0,1,1712.0,1
7,7,0.11987372555307318,0.1,1.0,1.0,367.0,701.0,0.0,0,1932.0,0
8,8,-0.315283422175618,-0.3,0.0,1.0,293.0,815.0,0.0,1,1892.0,0
9,9,-0.0181417522016305,-0.0,0.0,1.0,408.0,990.0,0.0,1,-1398.0,0
10,10,-0.6135429605145721,-0.6,0.0,1.0,274.0,702.0,0.0,1,2024.0,0
11,11,-0.3620062668591596,-0.4,0.0,1.0,300.0,568.0,0.0,1,2132.0,0
12,12,0.24059492203844834,0.2,0.0,0.0,323.0,887.0,1.0,0,-1060.0,0
13,13,0.6745735043469335,0.7,0.0,0.0,494.0,705.0,0.0,1,1801.0,1
14,14,-0.2718184380200306,-0.3,0.0,1.0,358.0,618.0,0.0,1,2024.0,0
15,15,-0.5934050083986254,-0.6,0.0,1.0,298.0,550.0,0.0,1,2152.0,0
16,16,0.8800160643696643,0.9,0.0,0.0,326.0,909.0,0.0,1,1765.0,1
17,17,0.02733047639378805,0.0,0.0,0.0,474.0,692.0,0.0,1,-1076.0,1
18,18,0.34167431419980787,0.3,1.0,1.0,323.0,562.0,0.0,0,2115.0,0
19,19,-0.5725441588821515,-0.6,1.0,0.0,454.0,804.0,0.0,0,1742.0,1
20,20,0.2023507272899535,0.2,0.0,0.0,387.0,593.0,0.0,1,2020.0,1
21,21,-0.32713311284098734,-0.3,1.0,0.0,293.0,767.0,0.0,0,1940.0,1
22,22,-0.7585956910671542,-0.8,1.0,0.0,470.0,772.0,0.0,0,1758.0,1
23,23,-0.6944053312135541,-0.7,1.0,0.0,385.0,758.0,0.0,0,1857.0,1
24,24,-0.7413626152941406,-0.7,0.0,1.0,470.0,649.0,0.0,1,1881.0,0
25,25,0.4493293962705832,0.4,1.0,1.0,378.0,876.0,0.0,0,-1164.0,0
26,26,0.1347218350880265,0.1,0.0,0.0,366.0,837.0,0.0,1,1797.0,1
27,27,-0.15790625396146252,-0.2,1.0,0.0,396.0,646.0,0.0,0,1958.0,1
28,28,0.317219670857113,0.3,0.0,0.0,258.0,996.0,0.0,1,1746.0,1
29,29,-0.5607482233984764,-0.6,1.0,0.0,356.0,983.0,0.0,0,1661.0,1
30,30,-0.4424185815139227,-0.4,1.0,0.0,328.0,577.0,0.0,0,2095.0,1
31,31,-0.8188708987296922,-0.8,1.0,0.0,292.0,823.0,0.0,0,1885.0,1
32,32,0.3258898021349882,0.3,1.0,1.0,302.0,771.0,0.0,0,-993.0,0
33,33,0.2922562057230297,0.3,0.0,0.0,288.0,713.0,0.0,1,1999.0,1
34,34,0.5643048111199843,0.6,0.0,0.0,306.0,940.0,0.0,1,1754.0,1
35,35,-0.006800874168236604,-0.0,1.0,0.0,481.0,954.0,0.0,0,1565.0,1
36,36,0.08875144709219918,0.1,1.0,1.0,270.0,555.0,0.0,0,2175.0,0
37,37,-0.47873022053809816,-0.5,1.0,0.0,481.0,511.0,0.0,0,2008.0,1
38,38,0.7664231777539549,0.8,1.0,1.0,379.0,903.0,0.0,0,1718.0,0
39,39,-0.684866647823163,-0.7,0.0,1.0,372.0,696.0,0.0,1,1932.0,0
40,40,-0.6276308816952711,-0.6,0.0,1.0,403.0,998.0,0.0,1,1599.0,0
41,41,-0.04976055193677176,-0.0,1.0,0.0,454.0,618.0,0.0,0,1928.0,1
42,42,0.8131433037937027,0.8,1.0,1.0,356.0,603.0,0.0,0,2041.0,0
43,43,0.7488766340687049,0.7,1.0,1.0,455.0,858.0,0.0,0,1687.0,0
44,44,0.4765252838998145,0.5,1.0,1.0,348.0,559.0,0.0,0,2093.0,0
45,45,-0.44977048114748974,-0.4,0.0,1.0,417.0,819.0,0.0,1,1764.0,0
46,46,-0.33792942362840617,-0.3,1.0,0.0,291.0,548.0,0.0,0,2161.0,1
47,47,0.5658257140288679,0.6,0.0,0.0,274.0,895.0,0.0,1,1831.0,1
48,48,-0.1783061089851673,-0.2,1.0,0.0,330.0,761.0,0.0,0,1909.0,1
49,49,0.6881069403860091,0.7,0.0,0.0,353.0,662.0,0.0,1,1985.0,1
50,50,-0.061281373510437165,-0.1,1.0,0.0,354.0,931.0,0.0,0,1715.0,1
51,51,0.8593134128042236,0.9,1.0,1.0,425.0,575.0,0.0,0,2000.0,0
52,52,-0.4551098254279313,-0.5,0.0,1.0,431.0,726.0,0.0,1,1843.0,0
53,53,-0.1473690725554403,-0.1,0.0,1.0,353.0,892.0,0.0,1,1755.0,0
54,54,0.2508272699535209,0.3,1.0,1.0,253.0,912.0,0.0,0,1835.0,0
55,55,0.11944949530175608,0.1,0.0,0.0,458.0,838.0,0.0,1,1704.0,1
56,56,0.8485067152674833,0.8,0.0,0.0,336.0,981.0,0.0,1,1683.0,1
57,57,-0.23294808849041626,-0.2,1.0,0.0,493.0,706.0,0.0,0,1801.0,1
58,58,0.8719548574324755,0.9,0.0,0.0,478.0,880.0,0.0,1,1642.0,1
59,59,-0.5651343406171718,-0.6,1.0,0.0,346.0,960.0,0.0,0,1694.0,1
60,60,0.5126536630895265,0.5,1.0,1.0,425.0,994.0,0.0,0,1581.0,0
61,61,-0.765338737080096,-0.8,1.0,0.0,434.0,698.0,0.0,0,1868.0,1
62,62,0.2179126711631515,0.2,0.0,0.0,466.0,534.0,1.0,0,-930.0,0
63,63,0.2711453548579129,0.3,1.0,1.0,304.0,717.0,0.0,0,1979.0,0
64,64,-0.7348982002164564,-0.7,0.0,1.0,468.0,507.0,0.0,1,2025.0,0
65,65,0.23868576052212986,0.2,0.0,0.0,376.0,729.0,0.0,1,1895.0,1
66,66,-0.5872182448232733,-0.6,0.0,1.0,307.0,890.0,0.0,1,1803.0,0
67,67,-0.2804521710557545,-0.3,1.0,0.0,333.0,639.0,0.0,0,2028.0,1
68,68,-0.7849000854214315,-0.8,0.0,1.0,283.0,688.0,0.0,1,2029.0,0
69,69,0.2942155763001747,0.3,0.0,0.0,276.0,785.0,0.0,1,1939.0,1
70,70,0.662772964881705,0.7,1.0,1.0,292.0,878.0,0.0,0,1830.0,0
71,71,0.0380960378394436,0.0,0.0,0.0,350.0,961.0,0.0,1,1689.0,1
72,72,0.8100241073873206,0.8,0.0,0.0,344.0,719.0,0.0,1,1937.0,1
73,73,0.46033945102731566,0.5,0.0,0.0,327.0,832.0,0.0,1,1841.0,1
74,74,-0.13846333518621878,-0.1,0.0,1.0,497.0,746.0,0.0,1,1757.0,0
75,75,0.6758288264426978,0.7,1.0,1.0,398.0,880.0,0.0,0,1722.0,0
76,76,0.7835610418274238,0.8,1.0,1.0,286.0,993.0,0.0,0,1721.0,0
77,77,0.5438527199692037,0.5,0.0,0.0,252.0,889.0,0.0,1,1859.0,1
78,78,0.7702873921650385,0.8,0.0,0.0,251.0,568.0,0.0,1,2181.0,1
79,79,0.10027739267739955,0.1,0.0,0.0,480.0,678.0,0.0,1,1842.0,1
80,80,-0.27293870899254535,-0.3,1.0,0.0,400.0,984.0,0.0,0,1616.0,1
81,81,-0.372474275493884,-0.4,0.0,1.0,410.0,540.0,0.0,1,2050.0,0
82,82,-0.4094852912800994,-0.4,1.0,0.0,413.0,931.0,0.0,0,1656.0,1
83,83,-0.25554425439670914,-0.3,1.0,0.0,391.0,962.0,0.0,0,1647.0,1
84,84,-0.26348517859386666,-0.3,1.0,0.0,326.0,834.0,0.0,0,1840.0,1
85,85,0.6443354745476783,0.6,1.0,1.0,385.0,834.0,0.0,0,1781.0,0
86,86,-0.8001399661532597,-0.8,0.0,1.0,334.0,542.0,0.0,1,2124.0,0
87,87,0.7843415940642356,0.8,0.0,0.0,415.0,537.0,0.0,1,-952.0,1
88,88,0.6363782155584449,0.6,1.0,1.0,402.0,825.0,0.0,0,1773.0,0
89,89,-0.04848525278055582,-0.0,1.0,0.0,490.0,654.0,0.0,0,-1084.0,1
90,90,-0.14989182897265085,-0.1,1.0,0.0,439.0,763.0,0.0,0,1798.0,1
91,91,0.29585534835529537,0.3,0.0,0.0,393.0,936.0,0.0,1,1671.0,1
92,92,0.6343420669911218,0.6,1.0,1.0,383.0,837.0,0.0,0,1780.0,0
93,93,-0.12258206107218916,-0.1,1.0,0.0,353.0,678.0,0.0,0,-1001.0,1
94,94,0.06763220314249063,0.1,0.0,0.0,429.0,958.0,0.0,1,1613.0,1
95,95,-0.49099577030106534,-0.5,0.0,1.0,484.0,552.0,0.0,1,-906.0,0
96,96,-0.2636610574798036,-0.3,1.0,0.0,490.0,792.0,0.0,0,1718.0,1
97,97,-0.011706814589963588,-0.0,1.0,0.0,422.0,913.0,0.0,0,1665.0,1
98,98,-0.347031161587506,-0.3,0.0,1.0,262.0,784.0,0.0,1,1954.0,0
99,99,-0.5596375646327949,-0.6,0.0,1.0,453.0,599.0,1.0,0,-872.0,1
100,100,-0.04382060157817014,-0.0,0.0,1.0,259.0,789.0,1.0,0,-878.0,1
101,101,-0.350733927350379,-0.4,1.0,0.0,492.0,585.0,0.0,0,1923.0,1
102,102,-0.28665045227307917,-0.3,1.0,0.0,448.0,603.0,0.0,0,1949.0,1
103,103,0.6930554040100928,0.7,1.0,1.0,419.0,843.0,0.0,0,1738.0,0
104,104,-0.052282907687124625,-0.1,1.0,0.0,335.0,695.0,0.0,0,1970.0,1
105,105,0.7327593443397261,0.7,1.0,1.0,287.0,761.0,0.0,0,1952.0,0
106,106,0.471303413481737,0.5,1.0,1.0,331.0,838.0,0.0,0,-1149.0,0
107,107,-0.5934615925089284,-0.6,0.0,1.0,275.0,600.0,0.0,1,2125.0,0
108,108,-0.8477416561608079,-0.8,0.0,1.0,410.0,612.0,0.0,1,1978.0,0
109,109,0.6007222067365184,0.6,0.0,0.0,316.0,992.0,0.0,1,1692.0,1
110,110,-0.8437495605091183,-0.8,1.0,0.0,324.0,700.0,0.0,0,1976.0,1
111,111,0.4365027157354008,0.4,1.0,1.0,344.0,728.0,0.0,0,1928.0,0
112,112,0.5322684464647808,0.5,0.0,0.0,462.0,699.0,0.0,1,1839.0,1
113,113,0.3756377121577471,0.4,0.0,0.0,327.0,941.0,0.0,1,1732.0,1
114,114,-0.4356887064916204,-0.4,1.0,0.0,492.0,593.0,0.0,0,1915.0,1
115,115,0.3142950655920952,0.3,1.0,1.0,478.0,599.0,0.0,0,1923.0,0
116,116,-0.37383258589686563,-0.4,1.0,0.0,377.0,549.0,0.0,0,2074.0,1
117,117,0.3161040911802412,0.3,1.0,1.0,276.0,731.0,0.0,0,1993.0,0
118,118,-0.26521949972716774,-0.3,0.0,1.0,302.0,790.0,0.0,1,1908.0,0
119,119,0.2070784089553538,0.2,0.0,0.0,307.0,942.0,0.0,1,1751.0,1
120,120,-0.8841723103612468,-0.9,1.0,0.0,415.0,617.0,0.0,0,1968.0,1
121,121,0.5803864105838105,0.6,1.0,1.0,455.0,921.0,0.0,0,1624.0,0
122,122,0.8705022595136896,0.9,1.0,1.0,288.0,792.0,0.0,0,-930.0,0
123,123,-0.8576123783462228,-0.9,1.0,0.0,373.0,703.0,0.0,0,1924.0,1
124,124,0.6582915241888924,0.7,1.0,1.0,345.0,925.0,0.0,0,1730.0,0
125,125,0.7124286103978518,0.7,1.0,1.0,443.0,855.0,0.0,0,1702.0,0
126,126,0.6019866856939603,0.6,1.0,1.0,280.0,702.0,0.0,0,2018.0,0
127,127,-0.48977341004547015,-0.5,1.0,0.0,368.0,755.0,0.0,0,1877.0,1
128,128,-0.529938748151056,-0.5,1.0,0.0,424.0,981.0,0.0,0,1595.0,1
129,129,-0.47016173146135326,-0.5,0.0,1.0,362.0,661.0,0.0,1,1977.0,0
130,130,-0.16170368786096034,-0.2,1.0,0.0,384.0,823.0,0.0,0,1793.0,1
131,131,0.7422198144688016,0.7,1.0,1.0,432.0,896.0,0.0,0,1672.0,0
132,132,-0.2833657346922679,-0.3,1.0,0.0,361.0,622.0,0.0,0,2017.0,1
133,133,-0.8446998540656704,-0.8,0.0,1.0,415.0,731.0,0.0,1,-1076.0,0
134,134,-0.303421516674237,-0.3,1.0,0.0,347.0,893.0,0.0,0,1760.0,1
135,135,0.22831434301608178,0.2,1.0,1.0,377.0,896.0,0.0,0,1727.0,0
136,136,-0.6746881704533801,-0.7,0.0,1.0,354.0,893.0,0.0,1,1753.0,0
137,137,-0.03259459907950546,-0.0,1.0,0.0,357.0,751.0,0.0,0,1892.0,1
138,138,0.02645010715398033,0.0,1.0,1.0,299.0,835.0,0.0,0,1866.0,0
139,139,0.05499107555179372,0.1,0.0,0.0,254.0,724.0,0.0,1,2022.0,1
140,140,0.7383921851758622,0.7,0.0,0.0,464.0,911.0,1.0,0,-1355.0,0
141,141,0.6295390433162603,0.6,0.0,0.0,332.0,505.0,0.0,1,2163.0,1
142,142,0.015714075756266488,0.0,1.0,1.0,472.0,983.0,0.0,0,1545.0,0
143,143,-0.47568068684800263,-0.5,1.0,0.0,352.0,531.0,0.0,0,2117.0,1
144,144,0.5647436170061179,0.6,0.0,0.0,375.0,641.0,0.0,1,1984.0,1
145,145,-0.12221105706133872,-0.1,1.0,0.0,362.0,882.0,0.0,0,1756.0,1
146,146,0.6327934248404726,0.6,0.0,0.0,381.0,652.0,1.0,0,-1033.0,0
147,147,0.17769064206190743,0.2,0.0,0.0,310.0,991.0,0.0,1,1699.0,1
148,148,0.30030120512878977,0.3,0.0,0.0,337.0,919.0,0.0,1,1744.0,1
149,149,-0.4552223933302406,-0.5,0.0,1.0,498.0,522.0,0.0,1,-1010.0,0
150,150,-0.010699275818457421,-0.0,0.0,1.0,478.0,676.0,0.0,1,1846.0,0
151,151,-0.14168054455551915,-0.1,0.0,1.0,475.0,633.0,0.0,1,1892.0,0
152,152,0.17401822299569314,0.2,0.0,0.0,263.0,582.0,0.0,1,2155.0,1
153,153,-0.4941423697415514,-0.5,1.0,0.0,329.0,808.0,0.0,0,1863.0,1
154,154,0.6120611277804345,0.6,0.0,0.0,342.0,518.0,0.0,1,2140.0,1
155,155,0.4636673078666863,0.5,0.0,0.0,427.0,819.0,0.0,1,1754.0,1
156,156,0.12394189124215449,0.1,0.0,0.0,439.0,862.0,0.0,1,-1231.0,1
157,157,-0.19826636552894783,-0.2,1.0,0.0,416.0,865.0,0.0,0,1719.0,1
158,158,0.06944137108282356,0.1,1.0,1.0,289.0,966.0,0.0,0,1745.0,0
159,159,0.55041565627877,0.6,0.0,0.0,365.0,794.0,0.0,1,1841.0,1
160,160,-0.8102989634176792,-0.8,1.0,0.0,295.0,619.0,0.0,0,2086.0,1
161,161,0.07285514964635853,0.1,0.0,0.0,424.0,951.0,0.0,1,1625.0,1
162,162,0.6004795099979815,0.6,1.0,1.0,483.0,757.0,0.0,0,1760.0,0
163,163,-0.2363296177229669,-0.2,0.0,1.0,414.0,837.0,0.0,1,1749.0,0
164,164,-0.16503721015081985,-0.2,0.0,1.0,300.0,868.0,0.0,1,1832.0,0
165,165,0.689719517269279,0.7,0.0,0.0,275.0,601.0,0.0,1,2124.0,1
166,166,-0.31667166907919786,-0.3,1.0,0.0,277.0,594.0,0.0,0,-841.0,1
167,167,0.18833330482904798,0.2,0.0,0.0,468.0,520.0,0.0,1,2012.0,1
168,168,-0.37540422745302016,-0.4,1.0,0.0,470.0,920.0,0.0,0,-1310.0,1
169,169,-0.18420949378197604,-0.2,1.0,0.0,263.0,923.0,0.0,0,1814.0,1
170,170,-0.5324960615216723,-0.5,0.0,1.0,478.0,663.0,0.0,1,1859.0,0
171,171,-0.10502702125431529,-0.1,0.0,1.0,459.0,805.0,0.0,1,1736.0,0
172,172,-0.7857032621191297,-0.8,1.0,0.0,374.0,753.0,0.0,0,1873.0,1
173,173,0.006179355702272793,0.0,1.0,1.0,252.0,808.0,0.0,0,1940.0,0
174,174,-0.8779663806122393,-0.9,0.0,1.0,291.0,546.0,0.0,1,-817.0,0
175,175,-0.5190142155322917,-0.5,0.0,1.0,449.0,710.0,0.0,1,1841.0,0
176,176,-0.5554023072735559,-0.6,0.0,1.0,411.0,523.0,0.0,1,2066.0,0
177,177,-0.8649521469943907,-0.9,1.0,0.0,300.0,874.0,0.0,0,1826.0,1
178,178,-0.21847438209511993,-0.2,1.0,0.0,299.0,937.0,0.0,0,1764.0,1
179,179,-0.19387996777660166,-0.2,0.0,1.0,413.0,917.0,1.0,0,-1300.0,1
180,180,-0.3409843051203123,-0.3,1.0,0.0,418.0,738.0,0.0,0,1844.0,1
181,181,0.535527521163922,0.5,0.0,0.0,361.0,750.0,0.0,1,1889.0,1
182,182,-0.6214056547463965,-0.6,1.0,0.0,372.0,813.0,0.0,0,1815.0,1
183,183,0.8912730250337005,0.9,0.0,0.0,284.0,798.0,0.0,1,1918.0,1
184,184,0.38350904902726024,0.4,0.0,0.0,282.0,541.0,0.0,1,2177.0,1
185,185,0.0768805315933242,0.1,0.0,0.0,401.0,856.0,0.0,1,1743.0,1
186,186,0.62871523539606,0.6,0.0,0.0,493.0,764.0,0.0,1,1743.0,1
187,187,0.3403425142390638,0.3,1.0,1.0,334.0,824.0,0.0,0,1842.0,0
188,188,-0.6612724465865449,-0.7,0.0,1.0,288.0,925.0,0.0,1,1787.0,0
189,189,0.6255969808844298,0.6,0.0,0.0,374.0,950.0,0.0,1,1676.0,1
190,190,-0.8022979163711974,-0.8,0.0,1.0,433.0,992.0,0.0,1,1575.0,0
191,191,0.8614557236429475,0.9,1.0,1.0,391.0,553.0,0.0,0,2056.0,0
192,192,0.33453249381483807,0.3,1.0,1.0,393.0,721.0,0.0,0,1886.0,0
193,193,-0.4792645296618852,-0.5,1.0,0.0,420.0,937.0,0.0,0,1643.0,1
194,194,0.5433776112080474,0.5,0.0,0.0,417.0,853.0,0.0,1,1730.0,1
195,195,-0.6255738292364852,-0.6,1.0,0.0,456.0,982.0,0.0,0,1562.0,1
196,196,0.3673570384561643,0.4,1.0,1.0,489.0,558.0,0.0,0,1953.0,0
197,197,-0.6326407403663703,-0.6,0.0,1.0,398.0,711.0,0.0,1,1891.0,0
198,198,-0.5336304837804005,-0.5,1.0,0.0,329.0,953.0,0.0,0,1718.0,1
199,199,-0.5249664612921447,-0.5,0.0,1.0,263.0,676.0,0.0,1,-839.0,0
200,200,0.22225085140115886,0.2,0.0,0.0,276.0,715.0,0.0,1,2009.0,1
201,201,0.6254157654024425,0.6,0.0,0.0,358.0,716.0,0.0,1,1926.0,1
202,202,-0.2802068082644191,-0.3,0.0,1.0,369.0,812.0,0.0,1,1819.0,0
203,203,0.4624034281594559,0.5,0.0,0.0,274.0,866.0,0.0,1,1860.0,1
204,204,-0.09474402530133685,-0.1,1.0,0.0,480.0,656.0,0.0,0,1864.0,1
205,205,0.17332420602927334,0.2,1.0,1.0,349.0,879.0,0.0,0,1772.0,0
206,206,0.14800551725474598,0.1,1.0,1.0,492.0,948.0,0.0,0,1560.0,0
207,207,-0.5859199666937508,-0.6,1.0,0.0,276.0,824.0,1.0,1,-1100.0,0
208,208,-0.8928213158267487,-0.9,1.0,0.0,324.0,868.0,0.0,0,1808.0,1
209,209,-0.10946337945442242,-0.1,1.0,0.0,278.0,898.0,0.0,0,1824.0,1
210,210,-0.8878142565087576,-0.9,0.0,1.0,364.0,753.0,0.0,1,1883.0,0
211,211,0.3792959428412962,0.4,1.0,1.0,367.0,860.0,0.0,0,1773.0,0
212,212,-0.24617172063117432,-0.2,1.0,0.0,483.0,959.0,0.0,0,1558.0,1
213,213,-0.4522601788839337,-0.5,1.0,0.0,459.0,907.0,0.0,0,1634.0,1
214,214,0.22122701213392137,0.2,0.0,0.0,295.0,820.0,0.0,1,1885.0,1
215,215,-0.5044470584116327,-0.5,0.0,1.0,321.0,928.0,0.0,1,1751.0,0
216,216,-0.7750883861429047,-0.8,1.0,0.0,305.0,746.0,0.0,0,1949.0,1
217,217,-0.36306647332507036,-0.4,1.0,0.0,433.0,969.0,0.0,0,1598.0,1
218,218,-0.743993313989241,-0.7,1.0,0.0,251.0,868.0,0.0,0,1881.0,1
219,219,0.008273142786289434,0.0,0.0,0.0,454.0,882.0,0.0,1,1664.0,1
220,220,-0.26159304114459625,-0.3,0.0,1.0,495.0,770.0,0.0,1,1735.0,0
221,221,-0.6103206194665756,-0.6,0.0,1.0,434.0,916.0,0.0,1,1650.0,0
222,222,-0.2110342960896029,-0.2,1.0,0.0,365.0,599.0,0.0,0,2036.0,1
223,223,-0.732950981849484,-0.7,0.0,1.0,357.0,598.0,0.0,1,2045.0,0
224,224,0.6419120026421349,0.6,0.0,0.0,457.0,537.0,0.0,1,2006.0,1
225,225,-0.5938674543509308,-0.6,0.0,1.0,362.0,728.0,0.0,1,1910.0,0
226,226,0.6665862715124237,0.7,0.0,0.0,448.0,774.0,0.0,1,1778.0,1
227,227,0.4578586025898016,0.5,1.0,1.0,436.0,889.0,0.0,0,-1065.0,0
228,228,-0.0021309928091552965,-0.0,1.0,0.0,386.0,654.0,0.0,0,1960.0,1
229,229,0.44084258472941273,0.4,1.0,1.0,386.0,964.0,0.0,0,-1340.0,0
230,230,0.4877051404635323,0.5,0.0,0.0,335.0,561.0,0.0,1,2104.0,1
231,231,-0.3192882124315577,-0.3,0.0,1.0,417.0,700.0,0.0,1,-1087.0,0
232,232,-0.34344115130155684,-0.3,0.0,1.0,353.0,766.0,0.0,1,1881.0,0
233,233,0.5804910615064637,0.6,0.0,0.0,291.0,804.0,0.0,1,1905.0,1
234,234,-0.027358883961244973,-0.0,0.0,1.0,333.0,500.0,0.0,1,2167.0,0
235,235,0.48558675539519947,0.5,0.0,0.0,447.0,778.0,0.0,1,1775.0,1
236,236,0.8318412878351445,0.8,1.0,1.0,439.0,888.0,0.0,0,1673.0,0
237,237,-0.31501910113436093,-0.3,1.0,0.0,277.0,992.0,0.0,0,1731.0,1
238,238,0.5062103097915512,0.5,1.0,1.0,341.0,586.0,0.0,0,2073.0,0
239,239,0.09068851845901471,0.1,1.0,1.0,350.0,663.0,0.0,0,1987.0,0
240,240,0.46084824077866304,0.5,0.0,0.0,345.0,956.0,0.0,1,1699.0,1
241,241,0.856628882884852,0.9,1.0,1.0,297.0,912.0,0.0,0,1791.0,0
242,242,-0.6614151765872306,-0.7,1.0,0.0,257.0,782.0,0.0,0,1961.0,1
243,243,0.6701542100170826,0.7,1.0,1.0,455.0,540.0,0.0,0,2005.0,0
244,244,0.3235115549219848,0.3,1.0,1.0,351.0,689.0,0.0,0,1960.0,0
245,245,-0.7491902447354589,-0.7,1.0,0.0,399.0,708.0,0.0,0,1893.0,1
246,246,0.44538169447599063,0.4,1.0,1.0,444.0,817.0,0.0,0,1739.0,0
247,247,0.17559931147119567,0.2,0.0,0.0,382.0,963.0,0.0,1,1655.0,1
248,248,-0.40888121645471315,-0.4,1.0,0.0,388.0,892.0,0.0,0,1720.0,1
249,249,0.06300475751530432,0.1,1.0,1.0,283.0,685.0,0.0,0,2032.0,0
250,250,-0.013209750620355232,-0.0,1.0,0.0,288.0,735.0,0.0,0,1977.0,1
251,251,0.2622998480866011,0.3,1.0,1.0,471.0,646.0,0.0,0,1883.0,0
252,252,0.4661027481190484,0.5,1.0,1.0,427.0,731.0,0.0,0,1842.0,0
253,253,-0.5410286539494702,-0.5,1.0,0.0,387.0,697.0,0.0,0,-1054.0,1
254,254,0.712697598025991,0.7,1.0,1.0,381.0,920.0,0.0,0,-1211.0,0
255,255,-0.6777249898231916,-0.7,0.0,1.0,293.0,659.0,0.0,1,2048.0,0
256,256,0.6882119508087855,0.7,0.0,0.0,448.0,746.0,0.0,1,1806.0,1
257,257,0.32241703222117934,0.3,1.0,1.0,483.0,909.0,0.0,0,1608.0,0
258,258,-0.2051348990284958,-0.2,1.0,0.0,476.0,770.0,0.0,0,1754.0,1
259,259,0.7390659633763413,0.7,1.0,1.0,385.0,711.0,0.0,0,1904.0,0
260,260,0.5760690021025793,0.6,1.0,1.0,485.0,788.0,0.0,0,-1203.0,0
261,261,0.026170839462212325,0.0,1.0,1.0,285.0,661.0,0.0,0,2054.0,0
262,262,0.6653299149258648,0.7,0.0,0.0,297.0,819.0,0.0,1,1884.0,1
263,263,0.5128669856128033,0.5,1.0,1.0,315.0,744.0,1.0,1,-969.0,1
264,264,0.8038411477913127,0.8,0.0,0.0,428.0,886.0,0.0,1,1686.0,1
265,265,-0.1438521231664448,-0.1,1.0,0.0,361.0,868.0,0.0,0,1771.0,1
266,266,-0.08733489199299982,-0.1,1.0,0.0,489.0,957.0,0.0,0,1554.0,1
267,267,-0.45760834968048747,-0.5,0.0,1.0,359.0,529.0,0.0,1,2112.0,0
268,268,0.1886948561099312,0.2,0.0,0.0,432.0,852.0,0.0,1,1716.0,1
269,269,0.6720259423617273,0.7,0.0,0.0,452.0,798.0,0.0,1,1750.0,1
270,270,-0.8428129990996199,-0.8,0.0,1.0,473.0,514.0,0.0,1,2013.0,0
271,271,-0.6006898437069637,-0.6,0.0,1.0,397.0,977.0,0.0,1,1626.0,0
272,272,-0.7593532739259654,-0.8,1.0,0.0,418.0,670.0,0.0,0,1912.0,1
273,273,0.48128959403617,0.5,1.0,1.0,322.0,821.0,0.0,0,1857.0,0
274,274,0.17812126900664926,0.2,1.0,1.0,491.0,561.0,0.0,0,1948.0,0
275,275,0.20440861999269144,0.2,1.0,1.0,340.0,884.0,0.0,0,1776.0,0
276,276,-0.32583015357299117,-0.3,0.0,1.0,304.0,987.0,0.0,1,1709.0,0
277,277,-0.38892486507617585,-0.4,1.0,0.0,370.0,805.0,0.0,0,1825.0,1
278,278,0.30465658399472095,0.3,1.0,1.0,262.0,587.0,0.0,0,2151.0,0
279,279,0.6642521945243235,0.7,0.0,0.0,422.0,798.0,0.0,1,1780.0,1
280,280,0.7207513491020329,0.7,0.0,0.0,317.0,780.0,0.0,1,1903.0,1
281,281,-0.21875387602281648,-0.2,0.0,1.0,278.0,982.0,0.0,1,1740.0,0
282,282,0.13966455615857198,0.1,0.0,0.0,324.0,674.0,0.0,1,2002.0,1
283,283,0.684089743610148,0.7,1.0,1.0,258.0,690.0,0.0,0,2052.0,0
284,284,-0.30362464296239666,-0.3,1.0,0.0,348.0,933.0,0.0,0,-1211.0,1
285,285,-0.07005138786528842,-0.1,0.0,1.0,299.0,876.0,0.0,1,1825.0,0
286,286,-0.17059946842861218,-0.2,0.0,1.0,254.0,700.0,0.0,1,2046.0,0
287,287,0.5388750985750886,0.5,1.0,1.0,451.0,615.0,0.0,0,1934.0,0
288,288,0.08996364911037147,0.1,0.0,0.0,360.0,574.0,0.0,1,2066.0,1
289,289,-0.033497070086780045,-0.0,0.0,1.0,284.0,754.0,0.0,1,1962.0,0
290,290,-0.16036760397626426,-0.2,0.0,1.0,453.0,743.0,0.0,1,1804.0,0
291,291,-0.8493810016544799,-0.8,0.0,1.0,489.0,639.0,0.0,1,1872.0,0
292,292,0.8129610892952518,0.8,1.0,1.0,386.0,603.0,0.0,0,2011.0,0
293,293,-0.6047208138953437,-0.6,0.0,1.0,355.0,862.0,1.0,0,-1187.0,1
294,294,-0.08386825060160374,-0.1,1.0,0.0,390.0,513.0,0.0,0,-843.0,1
295,295,0.39465947538330737,0.4,0.0,0.0,473.0,670.0,0.0,1,1857.0,1
296,296,-0.2826742730859906,-0.3,0.0,1.0,371.0,698.0,0.0,1,1931.0,0
297,297,0.3722964930078606,0.4,0.0,0.0,262.0,830.0,0.0,1,1908.0,1
298,298,-0.5925709528525105,-0.6,1.0,0.0,305.0,990.0,0.0,0,1705.0,1
299,299,-0.3779158273330334,-0.4,0.0,1.0,415.0,652.0,0.0,1,-1047.0,0
300,300,-0.5924180121765807,-0.6,1.0,0.0,257.0,506.0,0.0,0,2237.0,1
301,301,-0.5832009079241325,-0.6,1.0,0.0,259.0,539.0,0.0,0,2202.0,1
302,302,-0.2505924447654333,-0.3,0.0,1.0,373.0,917.0,0.0,1,1710.0,0
303,303,-0.8341875703374826,-0.8,0.0,1.0,423.0,772.0,0.0,1,1805.0,0
304,304,0.8745293505504496,0.9,1.0,1.0,318.0,948.0,0.0,0,1734.0,0
305,305,0.1597159284600561,0.2,0.0,0.0,361.0,698.0,0.0,1,1941.0,1
306,306,0.34571716200961367,0.3,1.0,1.0,251.0,719.0,0.0,0,-920.0,0
307,307,-0.7983779038419001,-0.8,1.0,0.0,372.0,757.0,0.0,0,1871.0,1
308,308,-0.14392049098150728,-0.1,0.0,1.0,378.0,718.0,0.0,1,1904.0,0
309,309,0.7407824353222096,0.7,1.0,1.0,322.0,837.0,0.0,0,1841.0,0
310,310,-0.026366200760861824,-0.0,0.0,1.0,354.0,522.0,0.0,1,2124.0,0
311,311,0.2892406322859181,0.3,1.0,1.0,299.0,850.0,0.0,0,1851.0,0
312,312,0.21403113025818798,0.2,1.0,1.0,420.0,915.0,0.0,0,1665.0,0
313,313,0.5655016779551433,0.6,1.0,1.0,250.0,677.0,0.0,0,2073.0,0
314,314,-0.7767041490256532,-0.8,0.0,1.0,450.0,502.0,0.0,1,2048.0,0
315,315,0.3138253502837721,0.3,1.0,1.0,252.0,772.0,1.0,1,-994.0,1
316,316,0.8667697586558935,0.9,0.0,0.0,330.0,889.0,0.0,1,1781.0,1
317,317,0.7590995821414567,0.8,0.0,0.0,261.0,930.0,0.0,1,1809.0,1
318,318,-0.5699384925474034,-0.6,0.0,1.0,419.0,949.0,1.0,0,-1218.0,1
319,319,0.051119662558754775,0.1,1.0,1.0,495.0,611.0,0.0,0,1894.0,0
320,320,-0.2865023027712039,-0.3,1.0,0.0,319.0,685.0,0.0,0,-994.0,1
321,321,-0.27985679823766785,-0.3,0.0,1.0,286.0,543.0,0.0,1,2171.0,0
322,322,-0.043448746951620265,-0.0,1.0,0.0,373.0,781.0,0.0,0,1846.0,1
323,323,-0.1596395782455271,-0.2,0.0,1.0,363.0,581.0,0.0,1,2056.0,0
324,324,-0.7421384268810715,-0.7,1.0,0.0,269.0,684.0,0.0,0,2047.0,1
325,325,0.6258138565352219,0.6,1.0,1.0,456.0,755.0,0.0,0,1789.0,0
326,326,-0.2889344606590213,-0.3,0.0,1.0,450.0,649.0,0.0,1,1901.0,0
327,327,-0.5341399419345219,-0.5,0.0,1.0,300.0,820.0,0.0,1,1880.0,0
328,328,-0.25495168830819037,-0.3,1.0,0.0,457.0,838.0,0.0,0,-1225.0,1
329,329,0.15056575294309293,0.2,0.0,0.0,359.0,910.0,0.0,1,1731.0,1
330,330,-0.5599738305831771,-0.6,1.0,0.0,337.0,521.0,0.0,0,2142.0,1
331,331,-0.4427359983150524,-0.4,0.0,1.0,363.0,885.0,0.0,1,1752.0,0
332,332,0.42647567670681263,0.4,1.0,1.0,283.0,548.0,1.0,1,-731.0,1
333,333,0.1364035730580081,0.1,0.0,0.0,270.0,649.0,0.0,1,2081.0,1
334,334,0.5918176220947876,0.6,0.0,0.0,488.0,855.0,0.0,1,1657.0,1
335,335,0.5755543644011908,0.6,1.0,1.0,255.0,835.0,1.0,1,-1070.0,1
336,336,-0.5362762298200625,-0.5,0.0,1.0,277.0,681.0,0.0,1,2042.0,0
337,337,-0.5578758714014802,-0.6,1.0,0.0,337.0,959.0,0.0,0,1704.0,1
338,338,0.3372305168265951,0.3,1.0,1.0,438.0,524.0,0.0,0,2038.0,0
339,339,0.04509310548543999,0.0,1.0,1.0,353.0,630.0,0.0,0,2017.0,0
340,340,0.775855436583894,0.8,1.0,1.0,309.0,869.0,0.0,0,1822.0,0
341,341,0.27020233929952775,0.3,0.0,0.0,400.0,757.0,0.0,1,1843.0,1
342,342,-0.12567588213130376,-0.1,1.0,0.0,340.0,715.0,0.0,0,1945.0,1
343,343,0.6937647214298167,0.7,1.0,1.0,419.0,768.0,0.0,0,1813.0,0
344,344,-0.020033338701717973,-0.0,0.0,1.0,486.0,815.0,0.0,1,1699.0,0
345,345,-0.31883187611343644,-0.3,1.0,0.0,498.0,895.0,0.0,0,1607.0,1
346,346,0.6894908268746506,0.7,0.0,0.0,439.0,951.0,0.0,1,1610.0,1
347,347,0.4273424441657504,0.4,0.0,0.0,369.0,939.0,0.0,1,1692.0,1
348,348,-0.351301699930628,-0.4,1.0,0.0,451.0,643.0,0.0,0,1906.0,1
349,349,-0.7374660669175412,-0.7,0.0,1.0,333.0,692.0,0.0,1,1975.0,0
350,350,0.6412927981152282,0.6,1.0,1.0,443.0,742.0,0.0,0,-1095.0,0
351,351,-0.7100025206777238,-0.7,1.0,0.0,441.0,673.0,0.0,0,1886.0,1
352,352,-0.044900458496026086,-0.0,0.0,1.0,469.0,949.0,0.0,1,1582.0,0
353,353,-0.02721272230135474,-0.0,1.0,0.0,485.0,627.0,0.0,0,1888.0,1
354,354,0.645004901477238,0.6,0.0,0.0,381.0,986.0,0.0,1,1633.0,1
355,355,-0.8001381003889093,-0.8,1.0,0.0,313.0,969.0,0.0,0,1718.0,1
356,356,-0.8123348777745539,-0.8,1.0,0.0,376.0,979.0,0.0,0,1645.0,1
357,357,0.5316327839330094,0.5,0.0,0.0,319.0,866.0,0.0,1,1815.0,1
358,358,-0.11100836728712216,-0.1,1.0,0.0,412.0,983.0,0.0,0,1605.0,1
359,359,-0.2478240893988366,-0.2,0.0,1.0,493.0,860.0,0.0,1,1647.0,0
360,360,0.18970671977240705,0.2,1.0,1.0,322.0,907.0,0.0,0,1771.0,0
361,361,-0.8411472291367281,-0.8,1.0,0.0,488.0,949.0,0.0,0,1563.0,1
362,362,0.7250681695946392,0.7,1.0,1.0,272.0,784.0,0.0,0,1944.0,0
363,363,-0.1705548276365212,-0.2,1.0,0.0,325.0,776.0,0.0,0,-1081.0,1
364,364,-0.7786456635208322,-0.8,0.0,1.0,366.0,783.0,0.0,1,1851.0,0
365,365,-0.5810951019940771,-0.6,0.0,1.0,266.0,759.0,0.0,1,1975.0,0
366,366,0.17845308399875448,0.2,1.0,1.0,461.0,804.0,1.0,1,-1235.0,1
367,367,0.3256475867151939,0.3,1.0,1.0,427.0,875.0,0.0,0,1698.0,0
368,368,-0.07994735293715649,-0.1,1.0,0.0,258.0,950.0,0.0,0,1792.0,1
369,369,-0.1972686987184944,-0.2,0.0,1.0,397.0,636.0,1.0,0,-1023.0,1
370,370,0.6130335363366971,0.6,1.0,1.0,323.0,665.0,0.0,0,2012.0,0
371,371,-0.38805473959005166,-0.4,1.0,0.0,471.0,589.0,0.0,0,1940.0,1
372,372,-0.27232120502735213,-0.3,1.0,0.0,347.0,951.0,0.0,0,1702.0,1
373,373,-0.6130997269866747,-0.6,1.0,0.0,493.0,748.0,0.0,0,1759.0,1
374,374,0.09771586138813348,0.1,0.0,0.0,431.0,506.0,0.0,1,2063.0,1
375,375,0.0880283674555471,0.1,0.0,0.0,354.0,786.0,0.0,1,1860.0,1
376,376,-0.2869468229899521,-0.3,1.0,0.0,307.0,518.0,0.0,0,2175.0,1
377,377,0.5123076635033649,0.5,0.0,0.0,414.0,928.0,0.0,1,1658.0,1
378,378,-0.6203717862687872,-0.6,1.0,0.0,411.0,907.0,1.0,1,-1188.0,0
379,379,0.44034853272142727,0.4,0.0,0.0,380.0,768.0,0.0,1,-1068.0,1
380,380,0.516725025675996,0.5,1.0,1.0,490.0,659.0,0.0,0,1851.0,0
381,381,-0.6426708503634131,-0.6,0.0,1.0,412.0,578.0,0.0,1,2010.0,0
382,382,-0.26746285505141665,-0.3,0.0,1.0,470.0,574.0,0.0,1,1956.0,0
383,383,0.4613417567561514,0.5,0.0,0.0,446.0,781.0,0.0,1,1773.0,1
384,384,-0.3832908639193513,-0.4,0.0,1.0,440.0,580.0,0.0,1,1980.0,0
385,385,-0.6327137568072488,-0.6,0.0,1.0,350.0,515.0,0.0,1,2135.0,0
386,386,0.7238628747851176,0.7,0.0,0.0,469.0,643.0,0.0,1,1888.0,1
387,387,-0.7774230250452259,-0.8,1.0,0.0,283.0,770.0,0.0,0,1947.0,1
388,388,0.3184653865030008,0.3,0.0,0.0,388.0,673.0,0.0,1,1939.0,1
389,389,0.5136771181417746,0.5,1.0,1.0,252.0,519.0,0.0,0,2229.0,0
390,390,0.8951883662923167,0.9,0.0,0.0,350.0,953.0,0.0,1,1697.0,1
391,391,-0.3809432385315188,-0.4,0.0,1.0,320.0,615.0,0.0,1,2065.0,0
392,392,-0.7184476235920316,-0.7,1.0,0.0,303.0,596.0,0.0,0,2101.0,1
393,393,0.5406835791063619,0.5,1.0,1.0,484.0,723.0,0.0,0,1793.0,0
394,394,0.7245265935712893,0.7,0.0,0.0,407.0,564.0,0.0,1,2029.0,1
395,395,0.5124395965923206,0.5,1.0,1.0,274.0,983.0,1.0,1,-1137.0,1
396,396,0.17682462014790123,0.2,0.0,0.0,462.0,798.0,0.0,1,1740.0,1
397,397,-0.7740448997569803,-0.8,0.0,1.0,352.0,511.0,0.0,1,2137.0,0
398,398,0.44211275969071984,0.4,0.0,0.0,476.0,695.0,0.0,1,1829.0,1
399,399,0.3035985117996739,0.3,1.0,1.0,344.0,813.0,0.0,0,1843.0,0
400,400,-0.21538710617025514,-0.2,1.0,0.0,305.0,708.0,0.0,0,1987.0,1
401,401,-0.13708512260022498,-0.1,0.0,1.0,359.0,879.0,0.0,1,1762.0,0
402,402,0.3753529092926978,0.4,0.0,0.0,402.0,668.0,0.0,1,1930.0,1
403,403,0.5506462570346796,0.6,0.0,0.0,273.0,868.0,0.0,1,1859.0,1
404,404,-0.39861101155767953,-0.4,1.0,0.0,270.0,752.0,0.0,0,1978.0,1
405,405,-0.6546163005873513,-0.7,0.0,1.0,447.0,555.0,0.0,1,1998.0,0
406,406,-0.19108778031262796,-0.2,0.0,1.0,359.0,792.0,0.0,1,1849.0,0
407,407,-0.3945926610418302,-0.4,1.0,0.0,385.0,674.0,0.0,0,1941.0,1
408,408,0.5134388583557207,0.5,0.0,0.0,369.0,509.0,0.0,1,2122.0,1
409,409,0.7560704150369396,0.8,1.0,1.0,459.0,886.0,0.0,0,1655.0,0
410,410,0.5105693554251439,0.5,0.0,0.0,459.0,775.0,0.0,1,1766.0,1
411,411,0.47645858889621395,0.5,0.0,0.0,371.0,721.0,0.0,1,1908.0,1
412,412,0.023215322566694008,0.0,0.0,0.0,465.0,815.0,0.0,1,1720.0,1
413,413,0.15493022434426196,0.2,0.0,0.0,288.0,966.0,0.0,1,1746.0,1
414,414,-0.6688711610462016,-0.7,1.0,0.0,336.0,812.0,0.0,0,1852.0,1
415,415,0.03445362615512548,0.0,1.0,1.0,310.0,910.0,0.0,0,1780.0,0
416,416,-0.6755538369331798,-0.7,1.0,0.0,497.0,940.0,0.0,0,1563.0,1
417,417,-0.15451549425384536,-0.2,0.0,1.0,496.0,728.0,0.0,1,1776.0,0
418,418,0.47305693489762735,0.5,1.0,1.0,291.0,505.0,0.0,0,2204.0,0
419,419,-0.45803310073398584,-0.5,1.0,0.0,475.0,981.0,1.0,1,-1416.0,0
420,420,-0.6433602372003719,-0.6,0.0,1.0,332.0,634.0,1.0,0,-956.0,1
421,421,-0.6834179874375903,-0.7,1.0,0.0,257.0,729.0,0.0,0,2014.0,1
422,422,0.22951807967439553,0.2,1.0,1.0,323.0,880.0,0.0,0,1797.0,0
423,423,-0.6544455802231159,-0.7,0.0,1.0,291.0,822.0,0.0,1,1887.0,0
424,424,0.040548208524392004,0.0,1.0,1.0,291.0,901.0,0.0,0,1808.0,0
425,425,0.5850334236945286,0.6,1.0,1.0,274.0,576.0,0.0,0,-770.0,0
426,426,0.20329354196503935,0.2,1.0,1.0,409.0,798.0,0.0,0,1793.0,0
427,427,-0.3455680856507466,-0.3,1.0,0.0,372.0,579.0,0.0,0,2049.0,1
428,428,0.26478123650506047,0.3,1.0,1.0,399.0,673.0,0.0,0,1928.0,0
429,429,0.730599212623057,0.7,0.0,0.0,269.0,762.0,0.0,1,1969.0,1
430,430,0.3127594738442855,0.3,1.0,1.0,299.0,624.0,0.0,0,2077.0,0
431,431,-0.27849815971373637,-0.3,0.0,1.0,486.0,555.0,0.0,1,1959.0,0
432,432,0.10322385757710417,0.1,1.0,1.0,378.0,743.0,1.0,1,-1111.0,1
433,433,-0.801867488756504,-0.8,0.0,1.0,387.0,760.0,0.0,1,1853.0,0
434,434,-0.6509899655294518,-0.7,0.0,1.0,386.0,959.0,0.0,1,1655.0,0
435,435,0.043559757977593705,0.0,1.0,1.0,370.0,673.0,0.0,0,1957.0,0
436,436,-0.0025257782961076725,-0.0,0.0,1.0,431.0,638.0,0.0,1,1931.0,0
437,437,0.8875662297886374,0.9,1.0,1.0,262.0,836.0,0.0,0,1902.0,0
438,438,0.3006701026854274,0.3,0.0,0.0,264.0,667.0,0.0,1,2069.0,1
439,439,0.3330101735565302,0.3,0.0,0.0,266.0,767.0,0.0,1,1967.0,1
440,440,0.8006637482040345,0.8,1.0,1.0,323.0,843.0,0.0,0,1834.0,0
441,441,-0.2322067218323869,-0.2,0.0,1.0,263.0,791.0,0.0,1,1946.0,0
442,442,0.5519709099872775,0.6,1.0,1.0,498.0,654.0,0.0,0,1848.0,0
443,443,0.668237082622054,0.7,0.0,0.0,427.0,577.0,0.0,1,1996.0,1
444,444,0.45115443950923984,0.5,0.0,0.0,407.0,567.0,0.0,1,2026.0,1
445,445,0.17628939104313968,0.2,0.0,0.0,263.0,720.0,0.0,1,2017.0,1
446,446,0.7283789819837924,0.7,1.0,1.0,352.0,592.0,0.0,0,2056.0,0
447,447,0.24402437391152343,0.2,1.0,1.0,318.0,611.0,0.0,0,2071.0,0
448,448,-0.31988337700208325,-0.3,1.0,0.0,299.0,785.0,0.0,0,1916.0,1
449,449,0.3372104971500739,0.3,1.0,1.0,260.0,608.0,0.0,0,2132.0,0
450,450,-0.5700117532877009,-0.6,1.0,0.0,265.0,617.0,0.0,0,2118.0,1
451,451,-0.5269259863983204,-0.5,1.0,0.0,392.0,893.0,0.0,0,1715.0,1
452,452,0.8136789122302609,0.8,1.0,1.0,420.0,800.0,0.0,0,-1170.0,0
453,453,0.4151838934840463,0.4,0.0,0.0,260.0,946.0,0.0,1,1794.0,1
454,454,0.8382206285138508,0.8,1.0,1.0,453.0,661.0,0.0,0,1886.0,0
455,455,0.6297363302751774,0.6,1.0,1.0,439.0,972.0,0.0,0,1589.0,0
456,456,-0.48116691379081056,-0.5,1.0,0.0,258.0,895.0,1.0,1,-973.0,0
457,457,0.6981533711682376,0.7,0.0,0.0,492.0,954.0,0.0,1,1554.0,1
458,458,0.6378236031818368,0.6,1.0,1.0,314.0,759.0,0.0,0,1927.0,0
459,459,0.05096032642553272,0.1,0.0,0.0,342.0,616.0,0.0,1,2042.0,1
460,460,0.5500581600660827,0.6,0.0,0.0,340.0,589.0,0.0,1,-859.0,1
461,461,0.4944924323232863,0.5,1.0,1.0,259.0,600.0,0.0,0,-789.0,0
462,462,0.1487227654543487,0.1,1.0,1.0,415.0,550.0,0.0,0,2035.0,0
463,463,0.3306426573567637,0.3,0.0,0.0,442.0,904.0,0.0,1,1654.0,1
464,464,-0.34132324347091714,-0.3,0.0,1.0,333.0,585.0,0.0,1,2082.0,0
465,465,-0.40985650667743684,-0.4,1.0,0.0,307.0,924.0,0.0,0,1769.0,1
466,466,-0.20753678555846855,-0.2,0.0,1.0,423.0,787.0,0.0,1,1790.0,0
467,467,-0.6995993261438188,-0.7,1.0,0.0,336.0,562.0,0.0,0,2102.0,1
468,468,0.8608177332745931,0.9,1.0,1.0,363.0,854.0,0.0,0,1783.0,0
469,469,0.8131385804532388,0.8,0.0,0.0,307.0,963.0,0.0,1,1730.0,1
470,470,-0.7302291800006641,-0.7,1.0,0.0,401.0,639.0,0.0,0,1960.0,1
471,471,0.26135807085637197,0.3,1.0,1.0,469.0,845.0,0.0,0,1686.0,0
472,472,-0.14556488514707078,-0.1,0.0,1.0,310.0,570.0,0.0,1,2120.0,0
473,473,-0.49692609256650033,-0.5,1.0,0.0,416.0,602.0,0.0,0,1982.0,1
474,474,0.8962638184838286,0.9,1.0,1.0,456.0,559.0,0.0,0,1985.0,0
475,475,0.18466452441378933,0.2,0.0,0.0,470.0,789.0,0.0,1,1741.0,1
476,476,-0.17719966274285004,-0.2,0.0,1.0,270.0,645.0,0.0,1,2085.0,0
477,477,-0.7973808037794462,-0.8,1.0,0.0,347.0,522.0,0.0,0,2131.0,1
478,478,0.6525424810119856,0.7,1.0,1.0,327.0,952.0,0.0,0,1721.0,0
479,479,0.8257892352021793,0.8,1.0,1.0,338.0,578.0,0.0,0,2084.0,0
480,480,-0.3015206342180108,-0.3,0.0,1.0,474.0,940.0,0.0,1,1586.0,0
481,481,-0.24187240407292399,-0.2,0.0,1.0,359.0,744.0,0.0,1,1897.0,0
482,482,-0.21657461093147057,-0.2,1.0,0.0,432.0,966.0,0.0,0,1602.0,1
483,483,-0.3017091447159491,-0.3,1.0,0.0,315.0,988.0,1.0,1,-1243.0,0
484,484,0.3410157815747391,0.3,0.0,0.0,360.0,820.0,0.0,1,1820.0,1
485,485,0.3780853783445698,0.4,0.0,0.0,253.0,865.0,0.0,1,1882.0,1
486,486,0.4662012184357224,0.5,0.0,0.0,415.0,541.0,0.0,1,2044.0,1
487,487,-0.19168878542695167,-0.2,0.0,1.0,278.0,771.0,0.0,1,1951.0,0
488,488,-0.0024918954802353177,-0.0,0.0,1.0,257.0,587.0,0.0,1,2156.0,0
489,489,-0.3272119022412996,-0.3,1.0,0.0,474.0,502.0,0.0,0,2024.0,1
490,490,-0.4092251479190417,-0.4,1.0,0.0,260.0,605.0,0.0,0,2135.0,1
491,491,-0.41243834463669093,-0.4,0.0,1.0,264.0,901.0,0.0,1,1835.0,0
492,492,0.8618947693841593,0.9,1.0,1.0,365.0,907.0,0.0,0,1728.0,0
493,493,0.40709308547195777,0.4,0.0,0.0,265.0,605.0,0.0,1,2130.0,1
494,494,0.005897556389598879,0.0,0.0,0.0,483.0,843.0,0.0,1,1674.0,1
495,495,0.8010170965009836,0.8,1.0,1.0,269.0,688.0,0.0,0,2043.0,0
496,496,-0.8387832655186785,-0.8,1.0,0.0,495.0,854.0,0.0,0,1651.0,1
497,497,-0.024897672675907367,-0.0,1.0,0.0,273.0,580.0,0.0,0,2147.0,1
498,498,-0.7981033601069246,-0.8,1.0,0.0,360.0,938.0,0.0,0,1702.0,1
499,499,-0.6077438075893518,-0.6,0.0,1.0,291.0,622.0,0.0,1,2087.0,0
500,500,0.3564457651560332,0.4,1.0,1.0,384.0,637.0,0.0,0,1979.0,0
501,501,-0.8201690885242882,-0.8,1.0,0.0,390.0,606.0,0.0,0,2004.0,1
502,502,-0.5850107100842582,-0.6,0.0,1.0,445.0,711.0,0.0,1,1844.0,0
503,503,0.5856971114935813,0.6,0.0,0.0,421.0,950.0,0.0,1,1629.0,1
504,504,-0.6149183633794775,-0.6,1.0,0.0,265.0,579.0,0.0,0,2156.0,1
505,505,-0.15424557140163553,-0.2,0.0,1.0,476.0,814.0,0.0,1,1710.0,0
506,506,-0.8996321548614181,-0.9,1.0,0.0,361.0,730.0,0.0,0,1909.0,1
507,507,0.7201214530228867,0.7,1.0,1.0,257.0,728.0,0.0,0,2015.0,0
508,508,0.8110516982647852,0.8,1.0,1.0,425.0,965.0,0.0,0,1610.0,0
509,509,0.8704200775289054,0.9,1.0,1.0,259.0,520.0,0.0,0,2221.0,0
510,510,0.7615418856770596,0.8,0.0,0.0,456.0,720.0,0.0,1,1824.0,1
511,511,0.8115850544642383,0.8,0.0,0.0,359.0,588.0,0.0,1,2053.0,1
512,512,-0.4771500457163321,-0.5,0.0,1.0,496.0,863.0,0.0,1,1641.0,0
513,513,-0.5449734638808461,-0.5,1.0,0.0,485.0,641.0,0.0,0,1874.0,1
514,514,-0.16829906196790545,-0.2,1.0,0.0,408.0,853.0,0.0,0,1739.0,1
515,515,-0.0314873584851576,-0.0,0.0,1.0,459.0,660.0,0.0,1,1881.0,0
516,516,-0.08358024866751557,-0.1,1.0,0.0,375.0,533.0,0.0,0,-898.0,1
517,517,-0.3673889196902117,-0.4,0.0,1.0,306.0,548.0,0.0,1,2146.0,0
518,518,0.4628543840692033,0.5,0.0,0.0,485.0,739.0,0.0,1,1776.0,1
519,519,-0.29568702000200486,-0.3,0.0,1.0,347.0,793.0,0.0,1,1860.0,0
520,520,-0.6088653940932873,-0.6,1.0,0.0,337.0,839.0,0.0,0,1824.0,1
521,521,-0.7766882031104936,-0.8,0.0,1.0,384.0,519.0,0.0,1,2097.0,0
522,522,-0.6697060492298557,-0.7,0.0,1.0,352.0,963.0,0.0,1,1685.0,0
523,523,0.6036489172804945,0.6,1.0,1.0,409.0,942.0,0.0,0,1649.0,0
524,524,0.6461316050300848,0.6,1.0,1.0,288.0,847.0,1.0,1,-1135.0,1
525,525,0.23243370325933232,0.2,1.0,1.0,273.0,718.0,0.0,0,2009.0,0
526,526,0.11364377426645389,0.1,1.0,1.0,411.0,659.0,0.0,0,1930.0,0
527,527,-0.7421910512128307,-0.7,0.0,1.0,465.0,801.0,0.0,1,1734.0,0
528,528,-0.36598160289790016,-0.4,1.0,0.0,337.0,544.0,0.0,0,2119.0,1
529,529,-0.3343557945887907,-0.3,1.0,0.0,381.0,828.0,0.0,0,1791.0,1
530,530,0.4014938053511711,0.4,0.0,0.0,406.0,727.0,0.0,1,1867.0,1
531,531,0.044528866190251426,0.0,0.0,0.0,415.0,794.0,0.0,1,1791.0,1
532,532,-0.49377524847205295,-0.5,1.0,0.0,285.0,727.0,0.0,0,1988.0,1
533,533,0.5000569737366897,0.5,1.0,1.0,312.0,500.0,0.0,0,2188.0,0
534,534,-0.7239269583326434,-0.7,0.0,1.0,280.0,903.0,0.0,1,1817.0,0
535,535,0.5930282969610651,0.6,0.0,0.0,356.0,750.0,0.0,1,1894.0,1
536,536,0.015494750619743147,0.0,1.0,1.0,410.0,759.0,0.0,0,1831.0,0
537,537,0.5457380753111586,0.5,1.0,1.0,261.0,803.0,0.0,0,1936.0,0
538,538,-0.3432221370253792,-0.3,0.0,1.0,366.0,862.0,0.0,1,-1178.0,0
539,539,-0.8553679223251475,-0.9,1.0,0.0,318.0,763.0,1.0,1,-1041.0,0
540,540,0.08009724936364249,0.1,1.0,1.0,253.0,665.0,0.0,0,2082.0,0
541,541,-0.5175738192881044,-0.5,0.0,1.0,336.0,609.0,0.0,1,2055.0,0
542,542,0.787917395489098,0.8,0.0,0.0,466.0,858.0,0.0,1,1676.0,1
543,543,-0.23748358788831192,-0.2,0.0,1.0,471.0,800.0,0.0,1,1729.0,0
544,544,0.8733656423965258,0.9,0.0,0.0,389.0,884.0,0.0,1,1727.0,1
545,545,0.7536987489243897,0.8,0.0,0.0,304.0,569.0,0.0,1,2127.0,1
546,546,0.853201732388131,0.9,0.0,0.0,397.0,948.0,0.0,1,1655.0,1
547,547,-0.028364090971784273,-0.0,0.0,1.0,462.0,909.0,0.0,1,1629.0,0
548,548,0.3567205156352292,0.4,1.0,1.0,280.0,944.0,0.0,0,1776.0,0
549,549,-0.8767449978814682,-0.9,1.0,0.0,299.0,916.0,0.0,0,1785.0,1
550,550,0.037325041545575144,0.0,0.0,0.0,334.0,928.0,0.0,1,1738.0,1
551,551,-0.6310733142694569,-0.6,0.0,1.0,310.0,616.0,0.0,1,2074.0,0
552,552,0.004709441708909745,0.0,0.0,0.0,286.0,741.0,0.0,1,1973.0,1
553,553,-0.18653393952639907,-0.2,0.0,1.0,451.0,666.0,0.0,1,1883.0,0
554,554,0.04246274899266844,0.0,0.0,0.0,292.0,920.0,0.0,1,1788.0,1
555,555,-0.18161102271080198,-0.2,1.0,0.0,332.0,944.0,0.0,0,1724.0,1
556,556,0.5257918611190012,0.5,1.0,1.0,294.0,928.0,0.0,0,-1112.0,0
557,557,-0.8046409822601195,-0.8,0.0,1.0,384.0,885.0,0.0,1,1731.0,0
558,558,-0.5279446685861933,-0.5,0.0,1.0,310.0,959.0,0.0,1,1731.0,0
559,559,0.6942400399805088,0.7,0.0,0.0,491.0,887.0,1.0,0,-1288.0,0
560,560,-0.4137809213119299,-0.4,1.0,0.0,330.0,948.0,0.0,0,1722.0,1
561,561,0.14112298220406772,0.1,0.0,0.0,349.0,915.0,0.0,1,1736.0,1
562,562,-0.7351509601323586,-0.7,1.0,0.0,276.0,638.0,0.0,0,2086.0,1
563,563,-0.20695881852507747,-0.2,1.0,0.0,310.0,547.0,0.0,0,2143.0,1
564,564,0.17222473686797735,0.2,0.0,0.0,421.0,873.0,1.0,0,-1244.0,0
565,565,0.33030824243001355,0.3,0.0,0.0,454.0,680.0,0.0,1,1866.0,1
566,566,0.07801747651081992,0.1,1.0,1.0,478.0,726.0,0.0,0,1796.0,0
567,567,0.5026618067815781,0.5,0.0,0.0,472.0,635.0,0.0,1,1893.0,1
568,568,0.4862152512234478,0.5,1.0,1.0,407.0,635.0,0.0,0,1958.0,0
569,569,0.23432303305325697,0.2,0.0,0.0,491.0,896.0,0.0,1,-1287.0,1
570,570,0.5495705616845455,0.5,0.0,0.0,293.0,501.0,0.0,1,2206.0,1
571,571,0.6365121049148664,0.6,0.0,0.0,388.0,843.0,0.0,1,-1201.0,1
572,572,-0.055276187711669866,-0.1,1.0,0.0,314.0,714.0,0.0,0,1972.0,1
573,573,-0.2217540677355888,-0.2,0.0,1.0,334.0,918.0,0.0,1,1748.0,0
574,574,-0.4980669061085799,-0.5,0.0,1.0,328.0,943.0,0.0,1,-1271.0,0
575,575,-0.013077685498809055,-0.0,1.0,0.0,368.0,730.0,0.0,0,1902.0,1
576,576,0.8127788546057916,0.8,0.0,0.0,482.0,622.0,0.0,1,1896.0,1
577,577,0.22051728991938668,0.2,1.0,1.0,356.0,751.0,0.0,0,1893.0,0
578,578,0.5878625731886692,0.6,0.0,0.0,283.0,945.0,0.0,1,1772.0,1
579,579,-0.08902527991677689,-0.1,1.0,0.0,297.0,565.0,0.0,0,2138.0,1
580,580,-0.5964941172752688,-0.6,1.0,0.0,443.0,749.0,0.0,0,1808.0,1
581,581,-0.5713745880182117,-0.6,1.0,0.0,268.0,831.0,0.0,0,1901.0,1
582,582,-0.0805500292196093,-0.1,0.0,1.0,301.0,727.0,0.0,1,1972.0,0
583,583,0.13779750593499218,0.1,0.0,0.0,328.0,687.0,0.0,1,-975.0,1
584,584,0.21010369096115344,0.2,1.0,1.0,259.0,827.0,1.0,1,-1056.0,1
585,585,0.33100697924934164,0.3,0.0,0.0,362.0,881.0,0.0,1,1757.0,1
586,586,-0.351199015364139,-0.4,0.0,1.0,399.0,798.0,0.0,1,1803.0,0
587,587,0.43082233898400835,0.4,0.0,0.0,419.0,891.0,0.0,1,-1250.0,1
588,588,0.821938030829987,0.8,0.0,0.0,376.0,749.0,0.0,1,1875.0,1
589,589,-0.15724273867972838,-0.2,1.0,0.0,489.0,604.0,0.0,0,1907.0,1
590,590,0.7828350052581791,0.8,0.0,0.0,356.0,828.0,0.0,1,1816.0,1
591,591,-0.36535269165919215,-0.4,0.0,1.0,398.0,738.0,0.0,1,1864.0,0
592,592,0.10020264446073657,0.1,0.0,0.0,474.0,555.0,0.0,1,1971.0,1
593,593,-0.25786872902030045,-0.3,1.0,0.0,473.0,994.0,0.0,0,1533.0,1
594,594,0.43201398239268907,0.4,0.0,0.0,254.0,810.0,0.0,1,1936.0,1
595,595,0.4005369740184953,0.4,1.0,1.0,428.0,644.0,0.0,0,1928.0,0
596,596,0.48714966512889457,0.5,0.0,0.0,459.0,566.0,0.0,1,1975.0,1
597,597,0.883875895478255,0.9,0.0,0.0,496.0,725.0,0.0,1,1779.0,1
598,598,-0.7580466250822624,-0.8,0.0,1.0,295.0,631.0,1.0,0,-896.0,1
599,599,0.19768812938314684,0.2,0.0,0.0,423.0,757.0,0.0,1,1820.0,1
600,600,0.4450078728626575,0.4,0.0,0.0,333.0,965.0,0.0,1,1702.0,1
601,601,-0.11789595977774203,-0.1,0.0,1.0,294.0,934.0,0.0,1,1772.0,0
602,602,0.8640972632044287,0.9,0.0,0.0,272.0,742.0,0.0,1,1986.0,1
603,603,-0.7882640308771489,-0.8,1.0,0.0,319.0,620.0,1.0,1,-799.0,0
604,604,-0.1539339458929624,-0.2,0.0,1.0,364.0,656.0,0.0,1,1980.0,0
605,605,0.5730828031085403,0.6,1.0,1.0,423.0,874.0,0.0,0,1703.0,0
606,606,-0.5769447997633099,-0.6,1.0,0.0,430.0,731.0,0.0,0,1839.0,1
607,607,0.6286176500245676,0.6,1.0,1.0,479.0,558.0,0.0,0,1963.0,0
608,608,0.38545807331185056,0.4,1.0,1.0,493.0,596.0,0.0,0,1911.0,0
609,609,0.7133134309733326,0.7,0.0,0.0,363.0,715.0,0.0,1,1922.0,1
610,610,0.36343301811403095,0.4,1.0,1.0,478.0,776.0,0.0,0,1746.0,0
611,611,-0.22478019252106785,-0.2,0.0,1.0,298.0,647.0,0.0,1,2055.0,0
612,612,-0.24523715396326784,-0.2,1.0,0.0,473.0,852.0,0.0,0,1675.0,1
613,613,0.405566646684966,0.4,1.0,1.0,418.0,950.0,0.0,0,1632.0,0
614,614,-0.8604275731009831,-0.9,1.0,0.0,454.0,694.0,0.0,0,1852.0,1
615,615,-0.4033027487049143,-0.4,1.0,0.0,398.0,936.0,0.0,0,1666.0,1
616,616,-0.41510783963415765,-0.4,1.0,0.0,476.0,572.0,0.0,0,1952.0,1
617,617,0.5083949593801412,0.5,0.0,0.0,390.0,587.0,0.0,1,2023.0,1
618,618,0.34991385270882625,0.3,1.0,1.0,412.0,901.0,0.0,0,1687.0,0
619,619,-0.7637063567139819,-0.8,1.0,0.0,478.0,925.0,0.0,0,1597.0,1
620,620,-0.1826254188165526,-0.2,0.0,1.0,343.0,751.0,0.0,1,1906.0,0
621,621,0.39900971171940747,0.4,1.0,1.0,302.0,621.0,0.0,0,2077.0,0
622,622,-0.8057019657019502,-0.8,1.0,0.0,441.0,646.0,0.0,0,1913.0,1
623,623,-0.42972792796332127,-0.4,1.0,0.0,287.0,546.0,0.0,0,2167.0,1
624,624,0.18918330754045487,0.2,1.0,1.0,493.0,575.0,0.0,0,1932.0,0
625,625,0.5143069296924839,0.5,0.0,0.0,302.0,578.0,0.0,1,2120.0,1
626,626,0.24700633449738396,0.2,0.0,0.0,357.0,671.0,0.0,1,1972.0,1
627,627,0.6362680520950555,0.6,1.0,1.0,281.0,967.0,0.0,0,1752.0,0
628,628,0.06773090008616545,0.1,1.0,1.0,307.0,591.0,0.0,0,2102.0,0
629,629,-0.44928496970474624,-0.4,0.0,1.0,365.0,843.0,0.0,1,1792.0,0
630,630,-0.7177415405447138,-0.7,1.0,0.0,408.0,781.0,0.0,0,1811.0,1
631,631,-0.8115923349750704,-0.8,0.0,1.0,398.0,548.0,0.0,1,2054.0,0
632,632,0.4969463934088386,0.5,0.0,0.0,305.0,700.0,0.0,1,1995.0,1
633,633,-0.8774971010345078,-0.9,1.0,0.0,393.0,806.0,0.0,0,1801.0,1
634,634,0.8125670259406174,0.8,0.0,0.0,371.0,858.0,0.0,1,1771.0,1
635,635,0.02704886935104245,0.0,0.0,0.0,407.0,996.0,0.0,1,1597.0,1
636,636,0.5093352496190063,0.5,1.0,1.0,437.0,667.0,0.0,0,1896.0,0
637,637,0.6743031009357568,0.7,0.0,0.0,378.0,521.0,0.0,1,2101.0,1
638,638,0.716597089288148,0.7,0.0,0.0,284.0,567.0,1.0,0,-831.0,0
639,639,0.10590202288988315,0.1,1.0,1.0,410.0,753.0,0.0,0,1837.0,0
640,640,-0.7875033044189275,-0.8,1.0,0.0,401.0,826.0,0.0,0,1773.0,1
641,641,-0.11408228503655193,-0.1,0.0,1.0,392.0,665.0,1.0,0,-1007.0,1
642,642,-0.1502440673849943,-0.2,1.0,0.0,385.0,640.0,1.0,1,-965.0,0
643,643,-0.28333472434313034,-0.3,0.0,1.0,357.0,930.0,0.0,1,1713.0,0
644,644,-0.12399107134910314,-0.1,1.0,0.0,340.0,556.0,0.0,0,2104.0,1
645,645,0.5843631396951884,0.6,1.0,1.0,455.0,876.0,0.0,0,1669.0,0
646,646,-0.3563290562263315,-0.4,0.0,1.0,416.0,546.0,1.0,0,-812.0,1
647,647,0.40965067215277495,0.4,0.0,0.0,385.0,741.0,1.0,0,-1036.0,0
648,648,0.41700178161676404,0.4,0.0,0.0,491.0,725.0,0.0,1,1784.0,1
649,649,0.33842275047672465,0.3,1.0,1.0,253.0,629.0,0.0,0,2118.0,0
650,650,0.8505992857679953,0.9,0.0,0.0,408.0,559.0,0.0,1,2033.0,1
651,651,-0.6327084220798316,-0.6,1.0,0.0,266.0,817.0,1.0,1,-1053.0,0
652,652,0.1521733800325077,0.2,0.0,0.0,315.0,893.0,0.0,1,1792.0,1
653,653,-0.4098980245189891,-0.4,0.0,1.0,454.0,807.0,0.0,1,1739.0,0
654,654,-0.29713898358588353,-0.3,0.0,1.0,332.0,536.0,0.0,1,2132.0,0
655,655,0.3894119934867949,0.4,0.0,0.0,366.0,769.0,0.0,1,1865.0,1
656,656,0.07908473104702884,0.1,1.0,1.0,304.0,828.0,0.0,0,1868.0,0
657,657,-0.16443284211454356,-0.2,0.0,1.0,475.0,862.0,0.0,1,1663.0,0
658,658,-0.6457941231730129,-0.6,0.0,1.0,252.0,605.0,0.0,1,-687.0,0
659,659,0.3634601315309923,0.4,1.0,1.0,275.0,876.0,0.0,0,1849.0,0
660,660,0.09154793099699488,0.1,0.0,0.0,335.0,823.0,0.0,1,1842.0,1
661,661,0.29369477920859943,0.3,0.0,0.0,345.0,809.0,0.0,1,-1144.0,1
662,662,-0.6551361100863572,-0.7,1.0,0.0,390.0,629.0,0.0,0,1981.0,1
663,663,0.18899739855669984,0.2,0.0,0.0,311.0,547.0,0.0,1,2142.0,1
664,664,-0.5306466293576024,-0.5,1.0,0.0,482.0,994.0,0.0,0,-1426.0,1
665,665,-0.3732266953703939,-0.4,1.0,0.0,473.0,514.0,0.0,0,2013.0,1
666,666,0.7061388978534388,0.7,1.0,1.0,313.0,507.0,0.0,0,2180.0,0
667,667,-0.2540287321762945,-0.3,0.0,1.0,483.0,861.0,0.0,1,1656.0,0
668,668,-0.5017116526496965,-0.5,0.0,1.0,404.0,536.0,0.0,1,2060.0,0
669,669,-0.4147593962904114,-0.4,1.0,0.0,337.0,873.0,0.0,0,1790.0,1
670,670,0.053284302775317594,0.1,0.0,0.0,410.0,922.0,0.0,1,1668.0,1
671,671,-0.7610304319344956,-0.8,1.0,0.0,456.0,669.0,0.0,0,1875.0,1
672,672,0.33152812071338345,0.3,1.0,1.0,455.0,928.0,0.0,0,1617.0,0
673,673,0.5495436539677151,0.5,1.0,1.0,325.0,814.0,0.0,0,1861.0,0
674,674,0.5346402464195191,0.5,0.0,0.0,332.0,846.0,0.0,1,1822.0,1
675,675,-0.5289883193532443,-0.5,0.0,1.0,316.0,600.0,0.0,1,2084.0,0
676,676,-0.5328378794879323,-0.5,0.0,1.0,401.0,814.0,0.0,1,1785.0,0
677,677,-0.7002873967662564,-0.7,1.0,0.0,250.0,574.0,0.0,0,2176.0,1
678,678,0.29362969935000993,0.3,1.0,1.0,268.0,752.0,0.0,0,1980.0,0
679,679,0.004400433412597882,0.0,1.0,1.0,271.0,725.0,0.0,0,2004.0,0
680,680,0.14485449156804953,0.1,1.0,1.0,277.0,644.0,0.0,0,2079.0,0
681,681,-0.47622229828186813,-0.5,1.0,0.0,273.0,696.0,0.0,0,2031.0,1
682,682,0.12879565883805666,0.1,1.0,1.0,436.0,869.0,0.0,0,1695.0,0
683,683,-0.677154709209553,-0.7,1.0,0.0,309.0,927.0,0.0,0,1764.0,1
684,684,0.23724204040981356,0.2,0.0,0.0,297.0,815.0,0.0,1,1888.0,1
685,685,0.10300705823574063,0.1,0.0,0.0,358.0,812.0,0.0,1,1830.0,1
686,686,-0.14408759868980425,-0.1,1.0,0.0,497.0,861.0,0.0,0,-1328.0,1
687,687,0.7938473882128639,0.8,0.0,0.0,451.0,642.0,0.0,1,1907.0,1
688,688,-0.3547170410754156,-0.4,1.0,0.0,470.0,814.0,0.0,0,1716.0,1
689,689,0.614427806325507,0.6,0.0,0.0,441.0,614.0,0.0,1,1945.0,1
690,690,-0.8360154983564019,-0.8,0.0,1.0,458.0,964.0,0.0,1,1578.0,0
691,691,-0.07797149196067421,-0.1,1.0,0.0,294.0,834.0,0.0,0,1872.0,1
692,692,-0.026843895407408613,-0.0,1.0,0.0,325.0,966.0,1.0,1,-1211.0,0
693,693,-0.13982897983859366,-0.1,0.0,1.0,434.0,915.0,0.0,1,1651.0,0
694,694,-0.8763711601685688,-0.9,0.0,1.0,472.0,959.0,0.0,1,1569.0,0
695,695,-0.02889446234535964,-0.0,1.0,0.0,365.0,997.0,0.0,0,1638.0,1
696,696,0.8677727570537069,0.9,0.0,0.0,422.0,518.0,1.0,0,-910.0,0
697,697,-0.2640347057582991,-0.3,1.0,0.0,438.0,921.0,0.0,0,1641.0,1
698,698,-0.5793431781970164,-0.6,1.0,0.0,271.0,606.0,0.0,0,2123.0,1
699,699,0.8267863981642017,0.8,0.0,0.0,272.0,851.0,0.0,1,1877.0,1
700,700,-0.5727611782404414,-0.6,0.0,1.0,499.0,829.0,0.0,1,1672.0,0
701,701,0.505448102876462,0.5,1.0,1.0,270.0,809.0,0.0,0,1921.0,0
702,702,0.2784950215955605,0.3,0.0,0.0,292.0,724.0,0.0,1,1984.0,1
703,703,-0.29693708991331,-0.3,1.0,0.0,404.0,954.0,0.0,0,1642.0,1
704,704,0.5694546765821183,0.6,1.0,1.0,399.0,595.0,0.0,0,-924.0,0
705,705,0.8157382172614885,0.8,1.0,1.0,334.0,631.0,0.0,0,2035.0,0
706,706,0.3782510240630256,0.4,0.0,0.0,358.0,982.0,0.0,1,1660.0,1
707,707,-0.7637360930637394,-0.8,0.0,1.0,476.0,518.0,0.0,1,2006.0,0
708,708,0.26070038431529097,0.3,1.0,1.0,252.0,542.0,0.0,0,2206.0,0
709,709,-0.7237213803317851,-0.7,1.0,0.0,469.0,794.0,0.0,0,1737.0,1
710,710,0.23178339636396184,0.2,1.0,1.0,324.0,945.0,0.0,0,1731.0,0
711,711,0.15447385583390505,0.2,1.0,1.0,395.0,937.0,0.0,0,1668.0,0
712,712,-0.5970163642930237,-0.6,1.0,0.0,256.0,687.0,0.0,0,2057.0,1
713,713,-0.5493507147462315,-0.5,1.0,0.0,253.0,739.0,0.0,0,2008.0,1
714,714,0.10889203072638598,0.1,0.0,0.0,266.0,981.0,0.0,1,1753.0,1
715,715,-0.23877687466288788,-0.2,1.0,0.0,361.0,538.0,0.0,0,2101.0,1
716,716,-0.7999054994649302,-0.8,0.0,1.0,256.0,873.0,0.0,1,1871.0,0
717,717,-0.8961155974375767,-0.9,0.0,1.0,462.0,511.0,0.0,1,2027.0,0
718,718,-0.5631872759068013,-0.6,0.0,1.0,421.0,627.0,0.0,1,-1008.0,0
719,719,0.491928507082504,0.5,1.0,1.0,396.0,553.0,0.0,0,2051.0,0
720,720,-0.5702394819871733,-0.6,0.0,1.0,281.0,771.0,0.0,1,1948.0,0
721,721,0.3927545921242922,0.4,1.0,1.0,476.0,579.0,0.0,0,1945.0,0
722,722,-0.46729139978605905,-0.5,1.0,0.0,331.0,594.0,0.0,0,2075.0,1
723,723,-0.5245538911031962,-0.5,0.0,1.0,292.0,836.0,1.0,0,-1058.0,1
724,724,0.12320917420416422,0.1,0.0,0.0,338.0,752.0,0.0,1,1910.0,1
725,725,-0.617939251187456,-0.6,1.0,0.0,256.0,690.0,0.0,0,2054.0,1
726,726,0.6016576562681916,0.6,0.0,0.0,296.0,614.0,0.0,1,2090.0,1
727,727,0.053892516506447,0.1,1.0,1.0,471.0,656.0,0.0,0,1873.0,0
728,728,0.05988261626052005,0.1,1.0,1.0,321.0,885.0,0.0,0,1794.0,0
729,729,-0.6764090374402452,-0.7,1.0,0.0,334.0,992.0,0.0,0,1674.0,1
730,730,0.6650118123758365,0.7,1.0,1.0,270.0,828.0,0.0,0,1902.0,0
731,731,0.3039035092756678,0.3,1.0,1.0,490.0,679.0,0.0,0,1831.0,0
732,732,-0.016721264231960964,-0.0,0.0,1.0,422.0,548.0,0.0,1,2030.0,0
733,733,0.18490297397814615,0.2,1.0,1.0,498.0,771.0,0.0,0,1731.0,0
734,734,0.15199595475623873,0.2,0.0,0.0,377.0,689.0,0.0,1,1934.0,1
735,735,0.593932712999271,0.6,0.0,0.0,488.0,765.0,0.0,1,1747.0,1
736,736,0.7506165528504357,0.8,0.0,0.0,278.0,627.0,1.0,0,-835.0,0
737,737,0.44926272915730847,0.4,1.0,1.0,325.0,922.0,0.0,0,1753.0,0
738,738,-0.10578562185883378,-0.1,1.0,0.0,413.0,645.0,0.0,0,1942.0,1
739,739,0.1062837720339832,0.1,0.0,0.0,303.0,674.0,0.0,1,2023.0,1
740,740,0.134808906439026,0.1,1.0,1.0,449.0,995.0,1.0,1,-1384.0,1
741,741,-0.8188673886607897,-0.8,1.0,0.0,335.0,809.0,0.0,0,1856.0,1
742,742,-0.5938180499214787,-0.6,0.0,1.0,288.0,806.0,0.0,1,1906.0,0
743,743,-0.7065574303435141,-0.7,0.0,1.0,296.0,956.0,1.0,0,-1222.0,1
744,744,-0.1537225909225386,-0.2,0.0,1.0,486.0,527.0,0.0,1,1987.0,0
745,745,0.46110581690818664,0.5,1.0,1.0,320.0,806.0,0.0,0,-1096.0,0
746,746,-0.0970078165886108,-0.1,0.0,1.0,437.0,642.0,0.0,1,1921.0,0
747,747,0.32911784916522413,0.3,1.0,1.0,379.0,902.0,0.0,0,1719.0,0
748,748,0.34230542366129846,0.3,1.0,1.0,327.0,589.0,0.0,0,2084.0,0
749,749,-0.7586053701218427,-0.8,1.0,0.0,280.0,963.0,0.0,0,1757.0,1
750,750,0.04476454264551166,0.0,0.0,0.0,258.0,866.0,0.0,1,1876.0,1
751,751,0.40957293006313955,0.4,1.0,1.0,265.0,526.0,0.0,0,2209.0,0
752,752,0.8363165973887347,0.8,1.0,1.0,251.0,741.0,0.0,0,2008.0,0
753,753,-0.088153739293228,-0.1,0.0,1.0,480.0,552.0,0.0,1,1968.0,0
754,754,-0.7721788259202418,-0.8,1.0,0.0,471.0,784.0,0.0,0,1745.0,1
755,755,0.1717656440698977,0.2,0.0,0.0,450.0,632.0,0.0,1,1918.0,1
756,756,-0.5932356992314669,-0.6,0.0,1.0,307.0,648.0,1.0,0,-925.0,1
757,757,0.2071971793287487,0.2,0.0,0.0,398.0,809.0,0.0,1,1793.0,1
758,758,0.3666889432215207,0.4,1.0,1.0,455.0,758.0,0.0,0,1787.0,0
759,759,-0.7846740179317779,-0.8,0.0,1.0,383.0,562.0,0.0,1,2055.0,0
760,760,-0.1559516211934665,-0.2,0.0,1.0,331.0,599.0,1.0,0,-880.0,1
761,761,-0.7926736645389908,-0.8,0.0,1.0,312.0,814.0,0.0,1,1874.0,0
762,762,-0.8239171531632599,-0.8,0.0,1.0,369.0,633.0,0.0,1,1998.0,0
763,763,0.5472127774531542,0.5,0.0,0.0,367.0,946.0,0.0,1,-1283.0,1
764,764,-0.41563698346010447,-0.4,1.0,0.0,329.0,536.0,0.0,0,2135.0,1
765,765,0.1693530616259732,0.2,0.0,0.0,441.0,602.0,0.0,1,1957.0,1
766,766,-0.24214504590543462,-0.2,0.0,1.0,458.0,630.0,0.0,1,1912.0,0
767,767,-0.16890689245059443,-0.2,0.0,1.0,469.0,603.0,0.0,1,1928.0,0
768,768,-0.8725852889282548,-0.9,0.0,1.0,293.0,524.0,0.0,1,2183.0,0
769,769,-0.7029630267546628,-0.7,0.0,1.0,257.0,727.0,0.0,1,2016.0,0
770,770,-0.4475592251437962,-0.4,0.0,1.0,445.0,823.0,0.0,1,1732.0,0
771,771,-0.19704597579213323,-0.2,1.0,0.0,477.0,703.0,0.0,0,1820.0,1
772,772,0.5331827815424889,0.5,1.0,1.0,308.0,551.0,0.0,0,2141.0,0
773,773,0.5041836435239616,0.5,1.0,1.0,454.0,603.0,1.0,1,-1027.0,1
774,774,-0.236739045492655,-0.2,0.0,1.0,321.0,591.0,0.0,1,2088.0,0
775,775,-0.09172236746811169,-0.1,1.0,0.0,449.0,695.0,0.0,0,1856.0,1
776,776,0.36548759567296873,0.4,1.0,1.0,280.0,724.0,1.0,1,-1004.0,1
777,777,-0.40411654228027244,-0.4,1.0,0.0,285.0,681.0,0.0,0,2034.0,1
778,778,-0.21707606364361487,-0.2,0.0,1.0,494.0,973.0,0.0,1,1533.0,0
779,779,-0.4551417628200912,-0.5,0.0,1.0,481.0,983.0,0.0,1,1536.0,0
780,780,-0.22915908339786273,-0.2,0.0,1.0,419.0,659.0,0.0,1,1922.0,0
781,781,-0.6554355455443618,-0.7,1.0,0.0,260.0,541.0,0.0,0,2199.0,1
782,782,0.6846584618763681,0.7,0.0,0.0,397.0,821.0,0.0,1,1782.0,1
783,783,0.8992752094482815,0.9,1.0,1.0,362.0,756.0,0.0,0,-1098.0,0
784,784,0.14960904714673096,0.1,1.0,1.0,441.0,770.0,0.0,0,1789.0,0
785,785,-0.04248668967095215,-0.0,0.0,1.0,385.0,503.0,0.0,1,-888.0,0
786,786,-0.5254433665753919,-0.5,1.0,0.0,332.0,843.0,0.0,0,1825.0,1
787,787,-0.8216944174968335,-0.8,0.0,1.0,356.0,807.0,0.0,1,1837.0,0
788,788,0.6998234632380774,0.7,0.0,0.0,486.0,563.0,0.0,1,1951.0,1
789,789,0.6957633436865641,0.7,1.0,1.0,391.0,652.0,0.0,0,1957.0,0
790,790,-0.610248300024166,-0.6,0.0,1.0,268.0,693.0,0.0,1,2039.0,0
791,791,-0.3318560247482998,-0.3,0.0,1.0,309.0,543.0,0.0,1,2148.0,0
792,792,0.6703050473219453,0.7,0.0,0.0,388.0,932.0,0.0,1,1680.0,1
793,793,0.5170730472426225,0.5,0.0,0.0,362.0,651.0,0.0,1,-993.0,1
794,794,0.8820730573987928,0.9,0.0,0.0,313.0,611.0,0.0,1,2076.0,1
795,795,-0.505212986079536,-0.5,0.0,1.0,395.0,596.0,0.0,1,2009.0,0
796,796,-0.12563076398572637,-0.1,1.0,0.0,428.0,805.0,0.0,0,1767.0,1
797,797,0.5025768269289413,0.5,1.0,1.0,284.0,669.0,0.0,0,-913.0,0
798,798,0.04738259974565018,0.0,1.0,1.0,306.0,817.0,0.0,0,1877.0,0
799,799,0.09859994098895142,0.1,1.0,1.0,274.0,525.0,0.0,0,2201.0,0
800,800,0.4885162796722836,0.5,0.0,0.0,439.0,761.0,0.0,1,1800.0,1
801,801,-0.7661632748327558,-0.8,1.0,0.0,264.0,942.0,0.0,0,1794.0,1
802,802,-0.7268754700750881,-0.7,1.0,0.0,428.0,606.0,0.0,0,1966.0,1
803,803,-0.09128395431547298,-0.1,1.0,0.0,391.0,619.0,0.0,0,1990.0,1
804,804,-0.10636932685969114,-0.1,0.0,1.0,328.0,672.0,0.0,1,2000.0,0
805,805,0.47002114531614014,0.5,0.0,0.0,369.0,577.0,0.0,1,2054.0,1
806,806,0.5430635135502214,0.5,0.0,0.0,396.0,878.0,0.0,1,1726.0,1
807,807,0.34356446342056246,0.3,1.0,1.0,422.0,604.0,0.0,0,1974.0,0
808,808,-0.7135266581572477,-0.7,1.0,0.0,307.0,837.0,0.0,0,1856.0,1
809,809,-0.5284877084243762,-0.5,0.0,1.0,338.0,690.0,0.0,1,1972.0,0
810,810,-0.1904215042341475,-0.2,1.0,0.0,318.0,701.0,0.0,0,1981.0,1
811,811,-0.290148335593728,-0.3,0.0,1.0,305.0,723.0,0.0,1,1972.0,0
812,812,0.5038710468679218,0.5,1.0,1.0,345.0,924.0,0.0,0,1731.0,0
813,813,-0.8202789607145007,-0.8,1.0,0.0,250.0,704.0,0.0,0,2046.0,1
814,814,0.4787589917220859,0.5,0.0,0.0,363.0,899.0,0.0,1,1738.0,1
815,815,-0.6556195427457135,-0.7,0.0,1.0,403.0,924.0,0.0,1,1673.0,0
816,816,0.845572660840371,0.8,0.0,0.0,346.0,868.0,0.0,1,1786.0,1
817,817,0.5729104965546666,0.6,1.0,1.0,400.0,764.0,0.0,0,1836.0,0
818,818,-0.24680343829303297,-0.2,0.0,1.0,492.0,629.0,0.0,1,1879.0,0
819,819,0.11696689230983603,0.1,1.0,1.0,442.0,838.0,0.0,0,1720.0,0
820,820,0.7025127538525183,0.7,0.0,0.0,435.0,917.0,0.0,1,1648.0,1
821,821,-0.24326786947828993,-0.2,0.0,1.0,445.0,742.0,0.0,1,1813.0,0
822,822,0.11260518109721163,0.1,0.0,0.0,285.0,776.0,0.0,1,1939.0,1
823,823,-0.12025988115157615,-0.1,1.0,0.0,419.0,774.0,0.0,0,1807.0,1
824,824,-0.09999771964871806,-0.1,0.0,1.0,269.0,520.0,0.0,1,2211.0,0
825,825,0.7916165264578371,0.8,1.0,1.0,315.0,676.0,0.0,0,2009.0,0
826,826,0.29293094969992717,0.3,0.0,0.0,462.0,714.0,0.0,1,1824.0,1
827,827,-0.6950581228705508,-0.7,1.0,0.0,252.0,789.0,0.0,0,1959.0,1
828,828,-0.0693369241705929,-0.1,0.0,1.0,278.0,523.0,0.0,1,-701.0,0
829,829,0.03022772857759526,0.0,1.0,1.0,333.0,644.0,0.0,0,2023.0,0
830,830,0.6447405882989797,0.6,0.0,0.0,298.0,789.0,0.0,1,1913.0,1
831,831,0.2926796889886628,0.3,1.0,1.0,351.0,636.0,0.0,0,2013.0,0
832,832,-0.16552434896314827,-0.2,1.0,0.0,469.0,706.0,0.0,0,1825.0,1
833,833,0.24579991667024548,0.2,0.0,0.0,358.0,549.0,0.0,1,2093.0,1
834,834,-0.719082395121489,-0.7,0.0,1.0,482.0,647.0,0.0,1,1871.0,0
835,835,-0.10058153575383699,-0.1,1.0,0.0,449.0,961.0,0.0,0,1590.0,1
836,836,0.6663207679372548,0.7,1.0,1.0,256.0,968.0,0.0,0,1776.0,0
837,837,-0.7343314964891904,-0.7,0.0,1.0,253.0,660.0,1.0,0,-893.0,1
838,838,0.076949345207316,0.1,0.0,0.0,304.0,687.0,0.0,1,2009.0,1
839,839,0.575567495107335,0.6,1.0,1.0,360.0,699.0,0.0,0,1941.0,0
840,840,-0.3175473526985102,-0.3,0.0,1.0,464.0,702.0,0.0,1,1834.0,0
841,841,-0.6288228577745081,-0.6,0.0,1.0,414.0,908.0,0.0,1,1678.0,0
842,842,0.6304566970001785,0.6,1.0,1.0,488.0,759.0,0.0,0,1753.0,0
843,843,-0.7406447310473263,-0.7,0.0,1.0,450.0,830.0,1.0,0,-1260.0,1
844,844,0.40584280139755025,0.4,0.0,0.0,489.0,579.0,0.0,1,1932.0,1
845,845,-0.6321961370517387,-0.6,1.0,0.0,312.0,784.0,0.0,0,1904.0,1
846,846,-0.7967785618149814,-0.8,0.0,1.0,321.0,935.0,0.0,1,1744.0,0
847,847,-0.6065253689379688,-0.6,1.0,0.0,440.0,828.0,0.0,0,1732.0,1
848,848,0.21885192931057518,0.2,1.0,1.0,361.0,965.0,0.0,0,-1226.0,0
849,849,-0.6683472572038642,-0.7,0.0,1.0,446.0,560.0,0.0,1,1994.0,0
850,850,0.13915566575441451,0.1,0.0,0.0,389.0,901.0,0.0,1,-1280.0,1
851,851,0.10423505213890272,0.1,1.0,1.0,455.0,696.0,0.0,0,1849.0,0
852,852,0.5252638095544028,0.5,1.0,1.0,420.0,798.0,1.0,1,-1178.0,1
853,853,-0.09446714644470189,-0.1,1.0,0.0,358.0,992.0,0.0,0,1650.0,1
854,854,-0.0689074641185734,-0.1,0.0,1.0,405.0,577.0,0.0,1,2018.0,0
855,855,-0.49223953699574824,-0.5,0.0,1.0,402.0,877.0,0.0,1,1721.0,0
856,856,-0.30231700386789373,-0.3,0.0,1.0,476.0,877.0,1.0,0,-1233.0,1
857,857,0.8394446165785195,0.8,1.0,1.0,427.0,899.0,0.0,0,1674.0,0
858,858,-0.06525686843237266,-0.1,0.0,1.0,476.0,534.0,1.0,0,-960.0,1
859,859,0.6505803701314162,0.7,1.0,1.0,387.0,915.0,0.0,0,1698.0,0
860,860,-0.1726843416330167,-0.2,1.0,0.0,321.0,811.0,0.0,0,1868.0,1
861,861,-0.0214865440569334,-0.0,0.0,1.0,492.0,732.0,0.0,1,-1204.0,0
862,862,0.1873622011674937,0.2,0.0,0.0,350.0,648.0,0.0,1,2002.0,1
863,863,0.8156590118294894,0.8,1.0,1.0,382.0,518.0,0.0,0,2100.0,0
864,864,0.8477548146042685,0.8,0.0,0.0,321.0,826.0,0.0,1,1853.0,1
865,865,0.7027352318975274,0.7,1.0,1.0,382.0,819.0,0.0,0,1799.0,0
866,866,0.16006792323769348,0.2,1.0,1.0,464.0,943.0,0.0,0,1593.0,0
867,867,-0.3550237560787909,-0.4,0.0,1.0,254.0,645.0,0.0,1,2101.0,0
868,868,0.13784513263839704,0.1,0.0,0.0,267.0,990.0,0.0,1,1743.0,1
869,869,0.6723926581842316,0.7,1.0,1.0,311.0,966.0,0.0,0,1723.0,0
870,870,-0.46667945813515,-0.5,0.0,1.0,294.0,863.0,0.0,1,1843.0,0
871,871,0.11683559293592294,0.1,1.0,1.0,346.0,723.0,0.0,0,1931.0,0
872,872,0.46267428273433386,0.5,1.0,1.0,379.0,670.0,0.0,0,1951.0,0
873,873,0.26299992729170485,0.3,1.0,1.0,399.0,537.0,0.0,0,2064.0,0
874,874,0.7566756525205444,0.8,1.0,1.0,371.0,907.0,0.0,0,1722.0,0
875,875,0.7713633266199801,0.8,0.0,0.0,360.0,782.0,0.0,1,1858.0,1
876,876,0.28643716085411974,0.3,0.0,0.0,494.0,510.0,1.0,0,-964.0,0
877,877,-0.6076425355145865,-0.6,0.0,1.0,268.0,674.0,0.0,1,2058.0,0
878,878,0.1782877286206429,0.2,0.0,0.0,486.0,594.0,0.0,1,1920.0,1
879,879,0.8525872479875675,0.9,1.0,1.0,408.0,505.0,0.0,0,2087.0,0
880,880,0.04800396917006955,0.0,1.0,1.0,267.0,710.0,0.0,0,2023.0,0
881,881,0.577978250794709,0.6,0.0,0.0,428.0,687.0,0.0,1,1885.0,1
882,882,-0.14643597999778357,-0.1,1.0,0.0,431.0,751.0,0.0,0,1818.0,1
883,883,-0.0024499981073945465,-0.0,0.0,1.0,254.0,942.0,0.0,1,1804.0,0
884,884,-0.5970194875655113,-0.6,1.0,0.0,355.0,744.0,1.0,1,-1079.0,0
885,885,0.17882252442775537,0.2,0.0,0.0,353.0,855.0,0.0,1,1792.0,1
886,886,-0.2959083327884997,-0.3,0.0,1.0,438.0,505.0,0.0,1,2057.0,0
887,887,0.26922896830999743,0.3,1.0,1.0,318.0,574.0,0.0,0,2108.0,0
888,888,0.6153355550987475,0.6,0.0,0.0,291.0,746.0,0.0,1,1963.0,1
889,889,0.7172084793099108,0.7,1.0,1.0,251.0,576.0,0.0,0,-617.0,0
890,890,0.6514090032108116,0.7,0.0,0.0,344.0,637.0,0.0,1,2019.0,1
891,891,-0.07166980468530548,-0.1,0.0,1.0,324.0,859.0,0.0,1,1817.0,0
892,892,0.7986096590014063,0.8,0.0,0.0,272.0,928.0,0.0,1,1800.0,1
893,893,0.6598052888882652,0.7,0.0,0.0,351.0,646.0,0.0,1,2003.0,1
894,894,-0.864723273448169,-0.9,0.0,1.0,354.0,747.0,0.0,1,1899.0,0
895,895,-0.6208082502774772,-0.6,1.0,0.0,280.0,540.0,0.0,0,2180.0,1
896,896,-0.5469812565526684,-0.5,1.0,0.0,492.0,520.0,0.0,0,1988.0,1
897,897,0.8952120967557716,0.9,1.0,1.0,369.0,833.0,0.0,0,1798.0,0
898,898,-0.2515722895943959,-0.3,0.0,1.0,423.0,929.0,0.0,1,1648.0,0
899,899,0.6964836376797702,0.7,0.0,0.0,373.0,531.0,0.0,1,2096.0,1
900,900,0.3280678646776808,0.3,0.0,0.0,442.0,811.0,0.0,1,1747.0,1
901,901,-0.002685096954881172,-0.0,1.0,0.0,327.0,875.0,0.0,0,1798.0,1
902,902,0.5632764819259427,0.6,1.0,1.0,496.0,805.0,0.0,0,1699.0,0
903,903,-0.2463661519268352,-0.2,0.0,1.0,306.0,771.0,0.0,1,1923.0,0
904,904,0.49382123005887146,0.5,1.0,1.0,329.0,859.0,0.0,0,1812.0,0
905,905,-0.314071728140353,-0.3,1.0,0.0,316.0,573.0,0.0,0,2111.0,1
906,906,-0.6619533911592141,-0.7,0.0,1.0,437.0,584.0,0.0,1,-961.0,0
907,907,-0.48595474443378295,-0.5,1.0,0.0,415.0,511.0,0.0,0,2074.0,1
908,908,0.6306737819846885,0.6,0.0,0.0,372.0,999.0,0.0,1,-1331.0,1
909,909,-0.84110341719503,-0.8,0.0,1.0,419.0,669.0,0.0,1,1912.0,0
910,910,0.4385329011892375,0.4,1.0,1.0,418.0,500.0,0.0,0,2082.0,0
911,911,-0.17804359502870182,-0.2,1.0,0.0,360.0,581.0,0.0,0,2059.0,1
912,912,-0.26262216183162757,-0.3,0.0,1.0,497.0,525.0,0.0,1,1978.0,0
913,913,0.5376224564451643,0.5,0.0,0.0,378.0,993.0,0.0,1,1629.0,1
914,914,-0.7071076505770437,-0.7,0.0,1.0,414.0,777.0,0.0,1,1809.0,0
915,915,0.010427933835348235,0.0,0.0,0.0,497.0,822.0,0.0,1,1681.0,1
916,916,-0.7321111240493512,-0.7,1.0,0.0,396.0,994.0,0.0,0,-1170.0,1
917,917,0.29219091208250136,0.3,0.0,0.0,387.0,601.0,0.0,1,2012.0,1
918,918,-0.43618584084542533,-0.4,1.0,0.0,433.0,926.0,0.0,0,1641.0,1
919,919,0.14790758022147077,0.1,0.0,0.0,393.0,641.0,0.0,1,1966.0,1
920,920,-0.847337225683166,-0.8,1.0,0.0,453.0,830.0,0.0,0,1717.0,1
921,921,0.03136829244153183,0.0,0.0,0.0,346.0,692.0,0.0,1,1962.0,1
922,922,-0.7163864881441151,-0.7,0.0,1.0,440.0,562.0,0.0,1,1998.0,0
923,923,0.42957888339914263,0.4,0.0,0.0,484.0,922.0,0.0,1,1594.0,1
924,924,0.7019693077506707,0.7,1.0,1.0,497.0,513.0,0.0,0,1990.0,0
925,925,-0.6893200328057001,-0.7,0.0,1.0,426.0,643.0,0.0,1,-979.0,0
926,926,-0.6622949057010411,-0.7,0.0,1.0,255.0,960.0,0.0,1,1785.0,0
927,927,0.8556334123706203,0.9,1.0,1.0,441.0,725.0,0.0,0,1834.0,0
928,928,0.48926186056065146,0.5,1.0,1.0,373.0,718.0,0.0,0,-1071.0,0
929,929,0.28677153524430643,0.3,1.0,1.0,478.0,753.0,0.0,0,1769.0,0
930,930,0.23053877845444226,0.2,0.0,0.0,418.0,918.0,0.0,1,1664.0,1
931,931,-0.43716474729622534,-0.4,0.0,1.0,262.0,688.0,0.0,1,2050.0,0
932,932,-0.708871635586606,-0.7,0.0,1.0,417.0,813.0,0.0,1,1770.0,0
933,933,0.5788918656032264,0.6,1.0,1.0,399.0,830.0,0.0,0,1771.0,0
934,934,-0.35463390662279437,-0.4,1.0,0.0,450.0,512.0,0.0,0,2038.0,1
935,935,-0.7065287759446779,-0.7,1.0,0.0,498.0,541.0,0.0,0,1961.0,1
936,936,-0.4328558707297597,-0.4,0.0,1.0,434.0,848.0,0.0,1,1718.0,0
937,937,0.608981667237385,0.6,0.0,0.0,277.0,652.0,0.0,1,2071.0,1
938,938,0.07400085552256752,0.1,0.0,0.0,348.0,517.0,0.0,1,2135.0,1
939,939,-0.013978280606644522,-0.0,0.0,1.0,281.0,618.0,0.0,1,2101.0,0
940,940,-0.8177015683684346,-0.8,1.0,0.0,361.0,929.0,0.0,0,-1280.0,1
941,941,0.27571032810617047,0.3,0.0,0.0,389.0,751.0,0.0,1,1860.0,1
942,942,-0.7092703551157726,-0.7,0.0,1.0,434.0,645.0,0.0,1,1921.0,0
943,943,-0.5010635119715952,-0.5,1.0,0.0,357.0,678.0,0.0,0,1965.0,1
944,944,0.8958591993920239,0.9,1.0,1.0,268.0,727.0,0.0,0,2005.0,0
945,945,-0.691716471947003,-0.7,1.0,0.0,393.0,780.0,0.0,0,1827.0,1
946,946,-0.22705560676555625,-0.2,0.0,1.0,298.0,663.0,0.0,1,2039.0,0
947,947,-0.16567832753634926,-0.2,1.0,0.0,396.0,612.0,0.0,0,1992.0,1
948,948,0.5675671236765009,0.6,1.0,1.0,489.0,504.0,0.0,0,-933.0,0
949,949,0.7496759482456431,0.7,0.0,0.0,455.0,985.0,0.0,1,1560.0,1
950,950,0.5045453944774619,0.5,1.0,1.0,442.0,980.0,0.0,0,1578.0,0
951,951,0.719491805901456,0.7,1.0,1.0,375.0,941.0,0.0,0,1684.0,0
952,952,0.45151623745987013,0.5,1.0,1.0,477.0,760.0,0.0,0,1763.0,0
953,953,0.26185332003643913,0.3,1.0,1.0,415.0,660.0,0.0,0,1925.0,0
954,954,0.14992392142185318,0.1,1.0,1.0,272.0,963.0,0.0,0,1765.0,0
955,955,0.042250654030749124,0.0,0.0,0.0,478.0,603.0,1.0,0,-941.0,0
956,956,-0.486906578729169,-0.5,1.0,0.0,347.0,671.0,0.0,0,1982.0,1
957,957,0.6014245767377101,0.6,0.0,0.0,336.0,613.0,0.0,1,2051.0,1
958,958,0.21076465440732284,0.2,1.0,1.0,363.0,502.0,0.0,0,2135.0,0
959,959,0.48520170306990995,0.5,1.0,1.0,483.0,698.0,0.0,0,1819.0,0
960,960,-0.07204718684166855,-0.1,1.0,0.0,434.0,555.0,0.0,0,2011.0,1
961,961,-0.1737546452703551,-0.2,0.0,1.0,355.0,959.0,0.0,1,1686.0,0
962,962,-0.5599360366692783,-0.6,0.0,1.0,270.0,693.0,0.0,1,2037.0,0
963,963,0.2467851241440141,0.2,1.0,1.0,410.0,518.0,0.0,0,2072.0,0
964,964,0.6748228329958473,0.7,0.0,0.0,293.0,519.0,0.0,1,2188.0,1
965,965,0.17167239548499913,0.2,0.0,0.0,433.0,737.0,1.0,0,-1100.0,0
966,966,0.4566912165977234,0.5,1.0,1.0,389.0,575.0,0.0,0,-724.0,0
967,967,0.6638793122148486,0.7,1.0,1.0,284.0,633.0,1.0,1,-877.0,1
968,968,-0.7426425313972596,-0.7,0.0,1.0,259.0,960.0,0.0,1,1781.0,0
969,969,-0.6467676626588591,-0.6,0.0,1.0,340.0,906.0,0.0,1,1754.0,0
970,970,-0.8678804037156296,-0.9,0.0,1.0,388.0,744.0,0.0,1,1868.0,0
971,971,-0.32632601988961174,-0.3,0.0,1.0,431.0,688.0,0.0,1,1881.0,0
972,972,0.19568062437717904,0.2,1.0,1.0,258.0,632.0,0.0,0,2110.0,0
973,973,-0.8768782331905842,-0.9,1.0,0.0,282.0,640.0,0.0,0,2078.0,1
974,974,-0.42557852764454857,-0.4,1.0,0.0,279.0,773.0,0.0,0,-902.0,1
975,975,-0.3160374548789374,-0.3,1.0,0.0,270.0,564.0,0.0,0,2166.0,1
976,976,-0.10682892613948192,-0.1,1.0,0.0,486.0,632.0,0.0,0,1882.0,1
977,977,0.40574753674419994,0.4,0.0,0.0,485.0,714.0,0.0,1,1801.0,1
978,978,-0.27228249032631413,-0.3,1.0,0.0,440.0,534.0,0.0,0,2026.0,1
979,979,-0.4499291427306113,-0.4,1.0,0.0,342.0,787.0,0.0,0,1871.0,1
980,980,0.748287293430114,0.7,1.0,1.0,474.0,970.0,0.0,0,1556.0,0
981,981,0.4334176841817433,0.4,1.0,1.0,365.0,884.0,0.0,0,1751.0,0
982,982,0.2846726143783801,0.3,0.0,0.0,280.0,875.0,0.0,1,1845.0,1
983,983,-0.47103074131739797,-0.5,0.0,1.0,499.0,993.0,0.0,1,1508.0,0
984,984,-0.14251907678917541,-0.1,0.0,1.0,444.0,532.0,0.0,1,2024.0,0
985,985,-0.10521887999383206,-0.1,0.0,1.0,318.0,736.0,0.0,1,1946.0,0
986,986,0.7362563267239798,0.7,0.0,0.0,475.0,778.0,0.0,1,1747.0,1
987,987,-0.7178560203089391,-0.7,0.0,1.0,476.0,674.0,0.0,1,1850.0,0
988,988,0.5170593624112184,0.5,0.0,0.0,467.0,747.0,0.0,1,1786.0,1
989,989,0.35630832623021036,0.4,0.0,0.0,358.0,554.0,0.0,1,2088.0,1
990,990,-0.3714886385699774,-0.4,1.0,0.0,397.0,729.0,0.0,0,1874.0,1
991,991,0.6915235983799654,0.7,1.0,1.0,443.0,666.0,0.0,0,1891.0,0
992,992,0.5757341644156665,0.6,1.0,1.0,353.0,845.0,0.0,0,1802.0,0
993,993,0.3391777049873178,0.3,1.0,1.0,481.0,819.0,0.0,0,1700.0,0
994,994,0.43175994520195526,0.4,0.0,0.0,297.0,879.0,0.0,1,1824.0,1
995,995,0.7381351862328634,0.7,1.0,1.0,290.0,698.0,1.0,1,-938.0,1
996,996,0.12084909311105807,0.1,1.0,1.0,378.0,677.0,0.0,0,1945.0,0
997,997,-0.7868717676985024,-0.8,0.0,1.0,267.0,726.0,0.0,1,-633.0,0
998,998,0.4578187756557798,0.5,1.0,1.0,447.0,860.0,0.0,0,-1277.0,0
999,999,-0.3369085695399773,-0.3,1.0,0.0,347.0,833.0,0.0,0,1820.0,1
1000,1000,-0.36547259259765497,-0.4,0.0,1.0,447.0,728.0,0.0,1,1825.0,0
1001,1001,-0.33507732414958047,-0.3,0.0,1.0,425.0,522.0,0.0,1,2053.0,0
1002,1002,0.2917624756997027,0.3,1.0,1.0,484.0,504.0,0.0,0,2012.0,0
1003,1003,0.7199941108046991,0.7,1.0,1.0,423.0,944.0,0.0,0,1633.0,0
1004,1004,-0.6116392389110696,-0.6,0.0,1.0,498.0,689.0,0.0,1,1813.0,0
1005,1005,0.7647744566224542,0.8,0.0,0.0,464.0,838.0,0.0,1,1698.0,1
1006,1006,-0.5173263139216293,-0.5,0.0,1.0,392.0,754.0,0.0,1,1854.0,0
1007,1007,-0.23899783397970464,-0.2,1.0,0.0,374.0,971.0,0.0,0,1655.0,1
1008,1008,0.6305134441663228,0.6,1.0,1.0,412.0,824.0,0.0,0,1764.0,0
1009,1009,-0.02674575267741819,-0.0,0.0,1.0,258.0,732.0,0.0,1,2010.0,0
1010,1010,0.2894822210539628,0.3,0.0,0.0,433.0,634.0,0.0,1,1933.0,1
1011,1011,0.5344784797366432,0.5,0.0,0.0,344.0,858.0,0.0,1,1798.0,1
1012,1012,-0.008514098255527291,-0.0,0.0,1.0,420.0,912.0,0.0,1,1668.0,0
1013,1013,-0.7307234745264167,-0.7,0.0,1.0,295.0,772.0,0.0,1,1933.0,0
1014,1014,0.050832820327981865,0.1,1.0,1.0,353.0,561.0,0.0,0,2086.0,0
1015,1015,0.8846002762743138,0.9,1.0,1.0,272.0,600.0,0.0,0,2128.0,0
1016,1016,-0.4382658504608688,-0.4,1.0,0.0,432.0,799.0,0.0,0,1769.0,1
1017,1017,0.7491404233414517,0.7,1.0,1.0,356.0,649.0,0.0,0,1995.0,0
1018,1018,0.13544474325368394,0.1,1.0,1.0,406.0,505.0,0.0,0,2089.0,0
1019,1019,-0.10140436212408921,-0.1,0.0,1.0,401.0,778.0,0.0,1,1821.0,0
1020,1020,-0.5355385563031041,-0.5,0.0,1.0,257.0,651.0,0.0,1,2092.0,0
1021,1021,0.4107189337995386,0.4,1.0,1.0,251.0,748.0,0.0,0,2001.0,0
1022,1022,-0.14142697003182314,-0.1,1.0,0.0,374.0,965.0,1.0,1,-1299.0,0
1023,1023,-0.2349083728256065,-0.2,1.0,0.0,267.0,533.0,0.0,0,2200.0,1
1024,1024,-0.36361225081471915,-0.4,0.0,1.0,400.0,762.0,0.0,1,-1152.0,0
1025,1025,0.33302196531971806,0.3,0.0,0.0,345.0,813.0,1.0,0,-1138.0,0
1026,1026,-0.34624004210880777,-0.3,0.0,1.0,299.0,961.0,0.0,1,1740.0,0
1027,1027,-0.27220848636573436,-0.3,1.0,0.0,472.0,504.0,0.0,0,2024.0,1
1028,1028,0.49048219671155924,0.5,1.0,1.0,350.0,782.0,0.0,0,1868.0,0
1029,1029,-0.15716692371079033,-0.2,1.0,0.0,472.0,849.0,0.0,0,1679.0,1
1030,1030,0.34282625683677914,0.3,1.0,1.0,381.0,825.0,0.0,0,1794.0,0
1031,1031,0.23161833074103522,0.2,1.0,1.0,420.0,647.0,0.0,0,1933.0,0
1032,1032,-0.7618272804934104,-0.8,1.0,0.0,393.0,615.0,0.0,0,1992.0,1
1033,1033,0.5568619070275239,0.6,0.0,0.0,295.0,993.0,0.0,1,1712.0,1
1034,1034,-0.16074811282566093,-0.2,0.0,1.0,266.0,542.0,0.0,1,2192.0,0
1035,1035,-0.4155301478637195,-0.4,1.0,0.0,334.0,940.0,0.0,0,1726.0,1
1036,1036,-0.18717883200462127,-0.2,1.0,0.0,342.0,894.0,0.0,0,1764.0,1
1037,1037,0.6980778873695511,0.7,0.0,0.0,297.0,707.0,0.0,1,1996.0,1
1038,1038,-0.05287816999838346,-0.1,0.0,1.0,283.0,614.0,0.0,1,2103.0,0
1039,1039,-0.5705133266695801,-0.6,0.0,1.0,319.0,585.0,0.0,1,2096.0,0
1040,1040,-0.7136347894068935,-0.7,0.0,1.0,488.0,804.0,0.0,1,1708.0,0
1041,1041,-0.3324587810913492,-0.3,1.0,0.0,256.0,717.0,0.0,0,2027.0,1
1042,1042,0.8896980126132584,0.9,0.0,0.0,283.0,984.0,0.0,1,1733.0,1
1043,1043,-0.742139041814554,-0.7,0.0,1.0,413.0,907.0,0.0,1,1680.0,0
1044,1044,0.47545591616010563,0.5,0.0,0.0,491.0,619.0,0.0,1,1890.0,1
1045,1045,-0.35496256775032364,-0.4,0.0,1.0,493.0,777.0,0.0,1,1730.0,0
1046,1046,-0.6768127146159633,-0.7,0.0,1.0,488.0,799.0,0.0,1,1713.0,0
1047,1047,0.4800641996305376,0.5,1.0,1.0,495.0,686.0,0.0,0,1819.0,0
1048,1048,-0.24660214303725392,-0.2,1.0,0.0,295.0,783.0,1.0,1,-918.0,0
1049,1049,-0.6978794038564683,-0.7,0.0,1.0,287.0,575.0,0.0,1,2138.0,0
1050,1050,-0.8660184192258059,-0.9,1.0,0.0,440.0,612.0,0.0,0,1948.0,1
1051,1051,-0.24953673323915204,-0.2,1.0,0.0,358.0,653.0,0.0,0,1989.0,1
1052,1052,-0.3807423687051016,-0.4,0.0,1.0,491.0,872.0,1.0,0,-1323.0,1
1053,1053,-0.5061361242805369,-0.5,0.0,1.0,434.0,888.0,0.0,1,1678.0,0
1054,1054,-0.6171455004645994,-0.6,1.0,0.0,258.0,509.0,0.0,0,2233.0,1
1055,1055,0.256759016363994,0.3,0.0,0.0,448.0,792.0,0.0,1,1760.0,1
1056,1056,0.1182772994479252,0.1,0.0,0.0,270.0,965.0,0.0,1,1765.0,1
1057,1057,-0.8516357123534679,-0.9,0.0,1.0,283.0,509.0,0.0,1,-772.0,0
1058,1058,0.4803348481077675,0.5,0.0,0.0,387.0,864.0,0.0,1,1749.0,1
1059,1059,0.341944161749946,0.3,0.0,0.0,300.0,877.0,0.0,1,1823.0,1
1060,1060,0.7899062887718052,0.8,1.0,1.0,281.0,818.0,0.0,0,-1079.0,0
1061,1061,0.15514510120295177,0.2,1.0,1.0,453.0,801.0,0.0,0,1746.0,0
1062,1062,0.42413406770523177,0.4,0.0,0.0,420.0,547.0,0.0,1,2033.0,1
1063,1063,-0.2833884148127771,-0.3,0.0,1.0,347.0,525.0,0.0,1,2128.0,0
1064,1064,0.11934375666034425,0.1,1.0,1.0,391.0,584.0,0.0,0,2025.0,0
1065,1065,0.00736971516906304,0.0,0.0,0.0,421.0,985.0,0.0,1,1594.0,1
1066,1066,0.8419622730290005,0.8,0.0,0.0,260.0,856.0,0.0,1,1884.0,1
1067,1067,0.8178734568789975,0.8,0.0,0.0,440.0,835.0,0.0,1,1725.0,1
1068,1068,0.3836915851673669,0.4,0.0,0.0,346.0,630.0,0.0,1,2024.0,1
1069,1069,-0.22927664845090645,-0.2,1.0,0.0,302.0,974.0,0.0,0,1724.0,1
1070,1070,-0.3591050037551381,-0.4,1.0,0.0,493.0,682.0,0.0,0,1825.0,1
1071,1071,-0.6350756780500333,-0.6,0.0,1.0,498.0,934.0,0.0,1,1568.0,0
1072,1072,0.0928761210100002,0.1,1.0,1.0,346.0,744.0,0.0,0,1910.0,0
1073,1073,-0.26433285102873194,-0.3,0.0,1.0,493.0,704.0,0.0,1,1803.0,0
1074,1074,-0.3350919224050357,-0.3,0.0,1.0,265.0,768.0,0.0,1,1967.0,0
1075,1075,-0.267891481822937,-0.3,0.0,1.0,464.0,608.0,0.0,1,1928.0,0
1076,1076,-0.7559004765295513,-0.8,0.0,1.0,401.0,950.0,0.0,1,1649.0,0
1077,1077,-0.870151115442081,-0.9,0.0,1.0,416.0,894.0,0.0,1,1690.0,0
1078,1078,-0.6418111056005964,-0.6,0.0,1.0,402.0,649.0,0.0,1,1949.0,0
1079,1079,-0.32612178057527386,-0.3,0.0,1.0,257.0,868.0,0.0,1,1875.0,0
1080,1080,0.7986675447286368,0.8,0.0,0.0,439.0,525.0,0.0,1,2036.0,1
1081,1081,-0.6323542812563117,-0.6,0.0,1.0,321.0,830.0,0.0,1,1849.0,0
1082,1082,-0.315808939378483,-0.3,0.0,1.0,407.0,846.0,0.0,1,1747.0,0
1083,1083,0.8728550219532821,0.9,0.0,0.0,426.0,536.0,0.0,1,-832.0,1
1084,1084,0.7545420998782161,0.8,0.0,0.0,414.0,995.0,0.0,1,1591.0,1
1085,1085,0.295796398001532,0.3,0.0,0.0,385.0,682.0,0.0,1,1933.0,1
1086,1086,0.449297741303733,0.4,0.0,0.0,250.0,556.0,0.0,1,2194.0,1
1087,1087,-0.7865055545420699,-0.8,1.0,0.0,402.0,577.0,0.0,0,2021.0,1
1088,1088,0.16019858341968474,0.2,0.0,0.0,334.0,617.0,0.0,1,2049.0,1
1089,1089,0.07353223200427428,0.1,1.0,1.0,270.0,915.0,0.0,0,1815.0,0
1090,1090,-0.4624073623103093,-0.5,1.0,0.0,289.0,910.0,0.0,0,1801.0,1
1091,1091,0.4074774580572561,0.4,1.0,1.0,439.0,585.0,1.0,1,-964.0,1
1092,1092,-0.38861137865000406,-0.4,1.0,0.0,412.0,567.0,0.0,0,2021.0,1
1093,1093,-0.5376806683468516,-0.5,1.0,0.0,488.0,924.0,0.0,0,1588.0,1
1094,1094,0.20335640020872103,0.2,0.0,0.0,268.0,926.0,0.0,1,1806.0,1
1095,1095,-0.2953708280499707,-0.3,1.0,0.0,315.0,928.0,0.0,0,1757.0,1
1096,1096,0.02048080523820761,0.0,0.0,0.0,432.0,853.0,0.0,1,1715.0,1
1097,1097,-0.09163534589809841,-0.1,0.0,1.0,456.0,869.0,0.0,1,1675.0,0
1098,1098,-0.18004926515923825,-0.2,1.0,0.0,418.0,600.0,0.0,0,1982.0,1
1099,1099,0.6126262704622595,0.6,1.0,1.0,402.0,883.0,0.0,0,1715.0,0
1100,1100,0.8781919789971865,0.9,1.0,1.0,451.0,636.0,0.0,0,1913.0,0
1101,1101,0.07632831303478838,0.1,1.0,1.0,495.0,918.0,0.0,0,1587.0,0
1102,1102,0.8132674543908306,0.8,1.0,1.0,370.0,813.0,0.0,0,1817.0,0
1103,1103,0.8587124536459353,0.9,1.0,1.0,357.0,668.0,0.0,0,1975.0,0
1104,1104,-0.5554250023547538,-0.6,1.0,0.0,312.0,906.0,0.0,0,1782.0,1
1105,1105,0.0723777291005605,0.1,0.0,0.0,480.0,853.0,0.0,1,1667.0,1
1106,1106,-0.516075254498849,-0.5,1.0,0.0,343.0,610.0,0.0,0,2047.0,1
1107,1107,-0.3988840679956124,-0.4,0.0,1.0,468.0,508.0,0.0,1,2024.0,0
1108,1108,-0.3649803711893205,-0.4,0.0,1.0,251.0,717.0,0.0,1,2032.0,0
1109,1109,0.5750009041427872,0.6,0.0,0.0,429.0,682.0,0.0,1,1889.0,1
1110,1110,-0.8117363134098032,-0.8,0.0,1.0,257.0,570.0,0.0,1,2173.0,0
1111,1111,0.021061751074894608,0.0,1.0,1.0,257.0,962.0,0.0,0,1781.0,0
1112,1112,0.0187299664180004,0.0,0.0,0.0,416.0,615.0,0.0,1,1969.0,1
1113,1113,0.24654379270094917,0.2,1.0,1.0,281.0,525.0,0.0,0,2194.0,0
1114,1114,0.0214600461419735,0.0,0.0,0.0,471.0,905.0,0.0,1,1624.0,1
1115,1115,-0.0083563477616041,-0.0,1.0,0.0,329.0,787.0,0.0,0,1884.0,1
1116,1116,0.5061977660132612,0.5,0.0,0.0,325.0,682.0,0.0,1,1993.0,1
1117,1117,0.5772940636113192,0.6,0.0,0.0,326.0,613.0,0.0,1,2061.0,1
1118,1118,0.09774135535009054,0.1,1.0,1.0,305.0,733.0,0.0,0,1962.0,0
1119,1119,-0.02033425685163648,-0.0,0.0,1.0,457.0,596.0,0.0,1,1947.0,0
1120,1120,0.7974253247427227,0.8,0.0,0.0,372.0,767.0,0.0,1,1861.0,1
1121,1121,-0.10480653175859389,-0.1,0.0,1.0,440.0,821.0,0.0,1,1739.0,0
1122,1122,-0.7973588474427652,-0.8,1.0,0.0,494.0,711.0,0.0,0,1795.0,1
1123,1123,0.5763374198210595,0.6,0.0,0.0,304.0,589.0,0.0,1,2107.0,1
1124,1124,0.577168320604096,0.6,1.0,1.0,357.0,712.0,0.0,0,1931.0,0
1125,1125,0.4753139620355008,0.5,0.0,0.0,274.0,841.0,0.0,1,1885.0,1
1126,1126,-0.581900129876856,-0.6,1.0,0.0,433.0,912.0,0.0,0,1655.0,1
1127,1127,0.22109968632553312,0.2,0.0,0.0,299.0,675.0,0.0,1,2026.0,1
1128,1128,0.5391692573584012,0.5,1.0,1.0,499.0,564.0,0.0,0,1937.0,0
1129,1129,-0.00477605358295119,-0.0,1.0,0.0,487.0,884.0,0.0,0,1629.0,1
1130,1130,0.0559689760351626,0.1,0.0,0.0,397.0,937.0,0.0,1,1666.0,1
1131,1131,-0.6716633499825538,-0.7,0.0,1.0,338.0,841.0,0.0,1,1821.0,0
1132,1132,-0.17686189965229904,-0.2,1.0,0.0,350.0,598.0,0.0,0,-858.0,1
1133,1133,0.2805642483497507,0.3,1.0,1.0,447.0,561.0,0.0,0,1992.0,0
1134,1134,-0.8917647457386161,-0.9,1.0,0.0,448.0,742.0,0.0,0,1810.0,1
1135,1135,-0.20768187173823283,-0.2,0.0,1.0,454.0,567.0,0.0,1,1979.0,0
1136,1136,0.04914021438283667,0.0,0.0,0.0,335.0,794.0,0.0,1,1871.0,1
1137,1137,0.23138480367686143,0.2,0.0,0.0,256.0,555.0,0.0,1,2189.0,1
1138,1138,-0.5565108118789546,-0.6,0.0,1.0,274.0,957.0,0.0,1,1769.0,0
1139,1139,-0.18239555130359608,-0.2,1.0,0.0,493.0,965.0,0.0,0,1542.0,1
1140,1140,0.01638584214670158,0.0,0.0,0.0,356.0,540.0,0.0,1,2104.0,1
1141,1141,0.8841091162621352,0.9,1.0,1.0,461.0,688.0,0.0,0,1851.0,0
1142,1142,0.32642212055290754,0.3,0.0,0.0,336.0,660.0,0.0,1,2004.0,1
1143,1143,-0.8358074451607556,-0.8,1.0,0.0,496.0,651.0,0.0,0,1853.0,1
1144,1144,0.8366854479994045,0.8,0.0,0.0,339.0,885.0,0.0,1,1776.0,1
1145,1145,0.8631217094527902,0.9,1.0,1.0,398.0,923.0,0.0,0,1679.0,0
1146,1146,-0.5432916752387602,-0.5,0.0,1.0,296.0,826.0,0.0,1,1878.0,0
1147,1147,0.1789600585936787,0.2,0.0,0.0,365.0,620.0,0.0,1,2015.0,1
1148,1148,0.5052348460507813,0.5,0.0,0.0,266.0,545.0,0.0,1,2189.0,1
1149,1149,-0.040389702849934817,-0.0,1.0,0.0,389.0,879.0,0.0,0,1732.0,1
1150,1150,-0.7608901189475692,-0.8,1.0,0.0,492.0,791.0,0.0,0,1717.0,1
1151,1151,0.39787237298354217,0.4,0.0,0.0,355.0,779.0,0.0,1,1866.0,1
1152,1152,-0.07523413519217537,-0.1,0.0,1.0,343.0,613.0,0.0,1,2044.0,0
1153,1153,-0.5527126663504611,-0.6,0.0,1.0,349.0,986.0,0.0,1,1665.0,0
1154,1154,0.14531479642796252,0.1,0.0,0.0,299.0,672.0,0.0,1,2029.0,1
1155,1155,0.35748423518294425,0.4,1.0,1.0,428.0,602.0,0.0,0,1970.0,0
1156,1156,-0.1413328489614709,-0.1,1.0,0.0,498.0,513.0,0.0,0,1989.0,1
1157,1157,-0.7251478347783572,-0.7,1.0,0.0,342.0,976.0,0.0,0,1682.0,1
1158,1158,0.036309442772422984,0.0,0.0,0.0,328.0,662.0,0.0,1,2010.0,1
1159,1159,-0.3862774810554289,-0.4,1.0,0.0,312.0,612.0,0.0,0,2076.0,1
1160,1160,-0.5838670309814027,-0.6,0.0,1.0,294.0,808.0,0.0,1,1898.0,0
1161,1161,0.6236006340182499,0.6,0.0,0.0,391.0,653.0,0.0,1,-724.0,1
1162,1162,-0.5297446894152233,-0.5,0.0,1.0,285.0,978.0,0.0,1,1737.0,0
1163,1163,-0.7809747953544809,-0.8,1.0,0.0,391.0,520.0,0.0,0,2089.0,1
1164,1164,-0.5037535721943198,-0.5,0.0,1.0,404.0,641.0,0.0,1,1955.0,0
1165,1165,0.20361224955124146,0.2,0.0,0.0,288.0,552.0,0.0,1,2160.0,1
1166,1166,-0.23942761100130472,-0.2,1.0,0.0,416.0,897.0,0.0,0,1687.0,1
1167,1167,0.8287441872030289,0.8,1.0,1.0,288.0,859.0,0.0,0,1853.0,0
1168,1168,-0.7277750410028527,-0.7,1.0,0.0,316.0,897.0,0.0,0,1787.0,1
1169,1169,0.07856284053666851,0.1,0.0,0.0,480.0,939.0,0.0,1,1581.0,1
1170,1170,-0.6477173264675713,-0.6,1.0,0.0,336.0,961.0,0.0,0,1703.0,1
1171,1171,0.5529033444132706,0.6,1.0,1.0,345.0,500.0,0.0,0,2155.0,0
1172,1172,0.43340750232894953,0.4,0.0,0.0,467.0,829.0,0.0,1,1704.0,1
1173,1173,-0.4910711093374652,-0.5,1.0,0.0,396.0,978.0,0.0,0,1626.0,1
1174,1174,0.05482889015567605,0.1,0.0,0.0,457.0,722.0,0.0,1,1821.0,1
1175,1175,-0.13195780300390492,-0.1,1.0,0.0,329.0,721.0,0.0,0,1950.0,1
1176,1176,0.3354255309347921,0.3,0.0,0.0,455.0,841.0,0.0,1,1704.0,1
1177,1177,-0.497870449771376,-0.5,0.0,1.0,437.0,948.0,0.0,1,1615.0,0
1178,1178,0.34290801875823307,0.3,1.0,1.0,419.0,587.0,0.0,0,1994.0,0
1179,1179,0.6705070463090955,0.7,1.0,1.0,484.0,528.0,0.0,0,1988.0,0
1180,1180,-0.8697784864188607,-0.9,1.0,0.0,413.0,916.0,0.0,0,1671.0,1
1181,1181,-0.6508754061196745,-0.7,1.0,0.0,359.0,504.0,0.0,0,2137.0,1
1182,1182,-0.21982236445287873,-0.2,1.0,0.0,368.0,687.0,0.0,0,1945.0,1
1183,1183,0.5533654297869454,0.6,1.0,1.0,283.0,746.0,0.0,0,1971.0,0
1184,1184,-0.07965284493834435,-0.1,1.0,0.0,274.0,797.0,1.0,1,-1071.0,0
1185,1185,0.5497439706420663,0.5,0.0,0.0,317.0,769.0,0.0,1,-826.0,1
1186,1186,-0.5737220104017111,-0.6,0.0,1.0,488.0,967.0,0.0,1,1545.0,0
1187,1187,-0.25041885607148073,-0.3,1.0,0.0,269.0,522.0,0.0,0,2209.0,1
1188,1188,0.2311945547763784,0.2,0.0,0.0,325.0,889.0,0.0,1,1786.0,1
1189,1189,-0.4338611162379147,-0.4,1.0,0.0,393.0,805.0,0.0,0,1802.0,1
1190,1190,0.8061434809233342,0.8,0.0,0.0,364.0,854.0,0.0,1,1782.0,1
1191,1191,-0.7800019905514419,-0.8,1.0,0.0,377.0,519.0,0.0,0,2104.0,1
1192,1192,-0.1392893029741844,-0.1,1.0,0.0,281.0,603.0,0.0,0,2116.0,1
1193,1193,-0.8287712925338414,-0.8,1.0,0.0,265.0,565.0,0.0,0,2170.0,1
1194,1194,-0.1135234271395662,-0.1,0.0,1.0,309.0,940.0,0.0,1,1751.0,0
1195,1195,0.7996532547312997,0.8,0.0,0.0,251.0,707.0,0.0,1,2042.0,1
1196,1196,0.11812714380110945,0.1,0.0,0.0,451.0,713.0,0.0,1,1836.0,1
1197,1197,0.1442228401806268,0.1,1.0,1.0,458.0,535.0,0.0,0,2007.0,0
1198,1198,-0.19831581531656772,-0.2,0.0,1.0,260.0,702.0,0.0,1,2038.0,0
1199,1199,0.027791955995889683,0.0,1.0,1.0,265.0,682.0,0.0,0,2053.0,0
1200,1200,-0.6161926424017646,-0.6,0.0,1.0,483.0,665.0,0.0,1,1852.0,0
1201,1201,0.884614806866662,0.9,0.0,0.0,267.0,964.0,0.0,1,1769.0,1
1202,1202,-0.6673297242576671,-0.7,1.0,0.0,488.0,717.0,0.0,0,1795.0,1
1203,1203,-0.10424206262494728,-0.1,1.0,0.0,348.0,978.0,0.0,0,-1206.0,1
1204,1204,0.4780897397702738,0.5,1.0,1.0,383.0,989.0,0.0,0,1628.0,0
1205,1205,0.5076728533781326,0.5,1.0,1.0,381.0,989.0,0.0,0,1630.0,0
1206,1206,-0.5753272672831089,-0.6,1.0,0.0,338.0,651.0,0.0,0,2011.0,1
1207,1207,0.3230934929159185,0.3,0.0,0.0,331.0,644.0,0.0,1,2025.0,1
1208,1208,-0.5616532442704563,-0.6,1.0,0.0,265.0,603.0,0.0,0,2132.0,1
1209,1209,0.7882972287560105,0.8,1.0,1.0,449.0,708.0,0.0,0,1843.0,0
1210,1210,0.5650514284169085,0.6,0.0,0.0,434.0,865.0,0.0,1,1701.0,1
1211,1211,0.0863688353198997,0.1,0.0,0.0,423.0,840.0,0.0,1,-1193.0,1
1212,1212,0.06341808114589198,0.1,1.0,1.0,378.0,774.0,0.0,0,-1012.0,0
1213,1213,-0.3112241884392489,-0.3,1.0,0.0,345.0,512.0,0.0,0,2143.0,1
1214,1214,0.583467890803545,0.6,0.0,0.0,320.0,626.0,0.0,1,2054.0,1
1215,1215,-0.6772541811375685,-0.7,0.0,1.0,444.0,544.0,0.0,1,2012.0,0
1216,1216,0.8781954293295074,0.9,1.0,1.0,349.0,532.0,0.0,0,2119.0,0
1217,1217,-0.14289270105003993,-0.1,0.0,1.0,370.0,886.0,0.0,1,1744.0,0
1218,1218,-0.20051021718642348,-0.2,0.0,1.0,256.0,839.0,0.0,1,1905.0,0
1219,1219,0.14151977197241827,0.1,0.0,0.0,428.0,748.0,0.0,1,1824.0,1
1220,1220,0.7007580859866055,0.7,1.0,1.0,422.0,501.0,0.0,0,2077.0,0
1221,1221,0.29044001351312365,0.3,0.0,0.0,491.0,760.0,0.0,1,1749.0,1
1222,1222,-0.17638814396211355,-0.2,1.0,0.0,440.0,551.0,0.0,0,2009.0,1
1223,1223,-0.3545722343364913,-0.4,1.0,0.0,438.0,552.0,0.0,0,2010.0,1
1224,1224,0.864648251722251,0.9,0.0,0.0,359.0,633.0,0.0,1,2008.0,1
1225,1225,0.38225626887122444,0.4,1.0,1.0,354.0,766.0,0.0,0,1880.0,0
1226,1226,-0.3290187567947659,-0.3,1.0,0.0,485.0,988.0,0.0,0,-1443.0,1
1227,1227,-0.6337590741460607,-0.6,0.0,1.0,433.0,779.0,0.0,1,1788.0,0
1228,1228,-0.8887733939751498,-0.9,0.0,1.0,489.0,676.0,0.0,1,1835.0,0
1229,1229,0.13651960207362934,0.1,1.0,1.0,366.0,929.0,0.0,0,1705.0,0
1230,1230,0.46830503378857846,0.5,1.0,1.0,332.0,748.0,0.0,0,1920.0,0
1231,1231,0.4980676196347992,0.5,1.0,1.0,306.0,972.0,0.0,0,1722.0,0
1232,1232,0.30805050568439174,0.3,0.0,0.0,459.0,945.0,0.0,1,1596.0,1
1233,1233,-0.17007184546107623,-0.2,0.0,1.0,295.0,669.0,0.0,1,2036.0,0
1234,1234,0.5859123101695184,0.6,0.0,0.0,256.0,988.0,0.0,1,1756.0,1
1235,1235,-0.7905486755993453,-0.8,0.0,1.0,408.0,732.0,0.0,1,1860.0,0
1236,1236,-0.7985103712786202,-0.8,0.0,1.0,472.0,978.0,0.0,1,1550.0,0
1237,1237,0.042546011270616746,0.0,1.0,1.0,254.0,833.0,0.0,0,1913.0,0
1238,1238,-0.07296071128624804,-0.1,1.0,0.0,392.0,652.0,0.0,0,1956.0,1
1239,1239,0.07851756741313864,0.1,1.0,1.0,300.0,881.0,0.0,0,1819.0,0
1240,1240,0.6123652226701418,0.6,1.0,1.0,460.0,523.0,0.0,0,2017.0,0
1241,1241,-0.27981819762251914,-0.3,0.0,1.0,442.0,903.0,0.0,1,1655.0,0
1242,1242,-0.7976582340473115,-0.8,1.0,0.0,378.0,555.0,0.0,0,2067.0,1
1243,1243,0.17556968292413522,0.2,1.0,1.0,367.0,546.0,0.0,0,2087.0,0
1244,1244,-0.04994254129542852,-0.0,1.0,0.0,436.0,523.0,0.0,0,2041.0,1
1245,1245,-0.7493433600964796,-0.7,0.0,1.0,343.0,960.0,0.0,1,1697.0,0
1246,1246,-0.5317754743302406,-0.5,0.0,1.0,272.0,951.0,0.0,1,1777.0,0
1247,1247,0.8671509228596542,0.9,1.0,1.0,485.0,834.0,0.0,0,1681.0,0
1248,1248,0.6432814476872576,0.6,1.0,1.0,388.0,986.0,0.0,0,1626.0,0
1249,1249,-0.43792536626373096,-0.4,0.0,1.0,473.0,545.0,0.0,1,1982.0,0
1250,1250,0.6927329906772804,0.7,1.0,1.0,496.0,727.0,0.0,0,1777.0,0
1251,1251,0.5581263274945157,0.6,0.0,0.0,481.0,592.0,0.0,1,-1053.0,1
1252,1252,-0.12428640848400108,-0.1,0.0,1.0,466.0,914.0,0.0,1,1620.0,0
1253,1253,-0.7037885357272318,-0.7,0.0,1.0,317.0,864.0,0.0,1,1819.0,0
1254,1254,-0.34081352181815117,-0.3,0.0,1.0,351.0,933.0,0.0,1,1716.0,0
1255,1255,0.5925050598129656,0.6,1.0,1.0,482.0,718.0,0.0,0,1800.0,0
1256,1256,0.6473726171880102,0.6,0.0,0.0,359.0,566.0,0.0,1,2075.0,1
1257,1257,-0.8746223201678449,-0.9,1.0,0.0,254.0,625.0,0.0,0,2121.0,1
1258,1258,0.023884655574371028,0.0,0.0,0.0,329.0,564.0,0.0,1,-773.0,1
1259,1259,-0.672941399390597,-0.7,0.0,1.0,423.0,565.0,0.0,1,2012.0,0
1260,1260,0.24514934769900776,0.2,1.0,1.0,282.0,848.0,0.0,0,1870.0,0
1261,1261,-0.5489375661271461,-0.5,0.0,1.0,443.0,678.0,0.0,1,1879.0,0
1262,1262,0.21732954757649725,0.2,1.0,1.0,342.0,513.0,0.0,0,2145.0,0
1263,1263,-0.4169230093955986,-0.4,0.0,1.0,282.0,796.0,0.0,1,1922.0,0
1264,1264,0.7910395807030718,0.8,1.0,1.0,332.0,511.0,0.0,0,2157.0,0
1265,1265,0.5743135602199566,0.6,0.0,0.0,285.0,547.0,0.0,1,2168.0,1
1266,1266,-0.6265467972937551,-0.6,1.0,0.0,398.0,705.0,0.0,0,1897.0,1
1267,1267,-0.0075245674272791385,-0.0,1.0,0.0,369.0,848.0,0.0,0,1783.0,1
1268,1268,0.5303839898656867,0.5,0.0,0.0,284.0,976.0,0.0,1,1740.0,1
1269,1269,-0.7585805739281668,-0.8,0.0,1.0,374.0,515.0,0.0,1,2111.0,0
1270,1270,0.0923484597484946,0.1,1.0,1.0,309.0,596.0,0.0,0,2095.0,0
1271,1271,-0.27011452913071865,-0.3,1.0,0.0,389.0,972.0,0.0,0,1639.0,1
1272,1272,0.43462000682889357,0.4,1.0,1.0,302.0,516.0,0.0,0,2182.0,0
1273,1273,-0.4101520909169401,-0.4,0.0,1.0,274.0,602.0,0.0,1,2124.0,0
1274,1274,0.754374713062892,0.8,0.0,0.0,251.0,904.0,0.0,1,1845.0,1
1275,1275,-0.14463836959131682,-0.1,0.0,1.0,350.0,635.0,0.0,1,2015.0,0
1276,1276,-0.49263093306426015,-0.5,0.0,1.0,391.0,626.0,0.0,1,1983.0,0
1277,1277,0.5835686746256518,0.6,0.0,0.0,477.0,654.0,0.0,1,1869.0,1
1278,1278,0.09225176976246019,0.1,1.0,1.0,495.0,710.0,0.0,0,1795.0,0
1279,1279,-0.18237832579592295,-0.2,1.0,0.0,260.0,589.0,0.0,0,2151.0,1
1280,1280,0.6274735135860848,0.6,1.0,1.0,263.0,756.0,0.0,0,1981.0,0
1281,1281,0.003637706534493579,0.0,1.0,1.0,288.0,843.0,0.0,0,1869.0,0
1282,1282,-0.39074431205040283,-0.4,0.0,1.0,464.0,749.0,0.0,1,-1213.0,0
1283,1283,0.21893000362786952,0.2,0.0,0.0,330.0,932.0,1.0,0,-1242.0,0
1284,1284,-0.23349868855149736,-0.2,1.0,0.0,280.0,593.0,0.0,0,2127.0,1
1285,1285,0.6745189486610833,0.7,0.0,0.0,418.0,953.0,0.0,1,1629.0,1
1286,1286,-0.074612879121701,-0.1,0.0,1.0,479.0,951.0,0.0,1,1570.0,0
1287,1287,-0.2001868288363714,-0.2,1.0,0.0,302.0,685.0,0.0,0,2013.0,1
1288,1288,-0.20240257190820743,-0.2,0.0,1.0,320.0,995.0,0.0,1,1685.0,0
1289,1289,-0.6305844806959076,-0.6,0.0,1.0,311.0,950.0,0.0,1,1739.0,0
1290,1290,0.5048207852794507,0.5,1.0,1.0,337.0,946.0,0.0,0,1717.0,0
1291,1291,-0.8566974022933699,-0.9,1.0,0.0,293.0,887.0,0.0,0,1820.0,1
1292,1292,0.3419175482028619,0.3,1.0,1.0,443.0,847.0,0.0,0,1710.0,0
1293,1293,-0.24859583150535602,-0.2,0.0,1.0,382.0,597.0,0.0,1,2021.0,0
1294,1294,0.08817126684750876,0.1,0.0,0.0,472.0,663.0,0.0,1,1865.0,1
1295,1295,-0.4904666768997756,-0.5,0.0,1.0,402.0,685.0,0.0,1,1913.0,0
1296,1296,-0.26989088916843285,-0.3,1.0,0.0,473.0,856.0,0.0,0,1671.0,1
1297,1297,-0.20885316232695206,-0.2,0.0,1.0,426.0,781.0,0.0,1,1793.0,0
1298,1298,-0.6027531386334544,-0.6,1.0,0.0,336.0,674.0,0.0,0,-990.0,1
1299,1299,0.7736105912087762,0.8,0.0,0.0,472.0,913.0,0.0,1,1615.0,1
1300,1300,0.5128215299613986,0.5,0.0,0.0,385.0,519.0,0.0,1,-874.0,1
1301,1301,-0.5418219405536364,-0.5,1.0,0.0,457.0,591.0,0.0,0,1952.0,1
1302,1302,0.16849651547665545,0.2,1.0,1.0,485.0,800.0,0.0,0,1715.0,0
1303,1303,-0.7606386536514504,-0.8,1.0,0.0,473.0,504.0,0.0,0,2023.0,1
1304,1304,-0.6271578015005621,-0.6,1.0,0.0,339.0,547.0,0.0,0,2114.0,1
1305,1305,0.6419651855951701,0.6,1.0,1.0,348.0,806.0,0.0,0,1846.0,0
1306,1306,-0.8714875641909638,-0.9,0.0,1.0,470.0,984.0,0.0,1,1546.0,0
1307,1307,0.1393643683099236,0.1,0.0,0.0,456.0,719.0,0.0,1,1825.0,1
1308,1308,-0.1349098449398468,-0.1,0.0,1.0,351.0,721.0,0.0,1,1928.0,0
1309,1309,0.7630083449190989,0.8,1.0,1.0,477.0,740.0,1.0,1,-1077.0,1
1310,1310,-0.8641636919606298,-0.9,0.0,1.0,433.0,601.0,0.0,1,1966.0,0
1311,1311,0.07168295099078448,0.1,0.0,0.0,350.0,647.0,0.0,1,2003.0,1
1312,1312,0.432597505485126,0.4,0.0,0.0,422.0,949.0,0.0,1,1629.0,1
1313,1313,0.24784181486721157,0.2,1.0,1.0,446.0,936.0,0.0,0,1618.0,0
1314,1314,-0.2036329274176244,-0.2,0.0,1.0,361.0,780.0,0.0,1,1859.0,0
1315,1315,0.8228228298193413,0.8,0.0,0.0,305.0,925.0,0.0,1,1770.0,1
1316,1316,0.8852919035037218,0.9,0.0,0.0,452.0,665.0,0.0,1,1883.0,1
1317,1317,0.0814130540825958,0.1,0.0,0.0,465.0,960.0,0.0,1,1575.0,1
1318,1318,-0.243431366176741,-0.2,0.0,1.0,334.0,794.0,0.0,1,1872.0,0
1319,1319,0.5191490081358231,0.5,1.0,1.0,265.0,617.0,0.0,0,2118.0,0
1320,1320,-0.5050356691388925,-0.5,0.0,1.0,481.0,882.0,0.0,1,1637.0,0
1321,1321,0.17988431698056384,0.2,1.0,1.0,320.0,844.0,0.0,0,1836.0,0
1322,1322,0.5371486706447371,0.5,0.0,0.0,282.0,793.0,0.0,1,1925.0,1
1323,1323,0.1712196141163601,0.2,0.0,0.0,270.0,580.0,0.0,1,2150.0,1
1324,1324,0.6804971639926555,0.7,1.0,1.0,280.0,854.0,0.0,0,1866.0,0
1325,1325,0.6447997218719922,0.6,0.0,0.0,393.0,893.0,0.0,1,1714.0,1
1326,1326,-0.02849629592975733,-0.0,0.0,1.0,441.0,968.0,0.0,1,1591.0,0
1327,1327,0.2202524360205801,0.2,1.0,1.0,291.0,671.0,0.0,0,2038.0,0
1328,1328,-0.6993263891759881,-0.7,1.0,0.0,290.0,831.0,0.0,0,1879.0,1
1329,1329,0.8101212026182517,0.8,1.0,1.0,270.0,888.0,0.0,0,1842.0,0
1330,1330,-0.3169798466613927,-0.3,0.0,1.0,300.0,575.0,1.0,0,-715.0,1
1331,1331,-0.7576678369451324,-0.8,0.0,1.0,326.0,777.0,0.0,1,1897.0,0
1332,1332,0.40672737435949047,0.4,1.0,1.0,481.0,867.0,0.0,0,1652.0,0
1333,1333,0.16530433932278277,0.2,0.0,0.0,360.0,554.0,1.0,0,-854.0,0
1334,1334,-0.617625957145171,-0.6,1.0,0.0,446.0,660.0,0.0,0,-1076.0,1
1335,1335,0.026212464218762332,0.0,1.0,1.0,302.0,988.0,0.0,0,1710.0,0
1336,1336,-0.581068601545442,-0.6,0.0,1.0,445.0,876.0,0.0,1,-1281.0,0
1337,1337,0.7377673954741956,0.7,0.0,0.0,452.0,681.0,0.0,1,1867.0,1
1338,1338,0.2005766672182402,0.2,0.0,0.0,268.0,779.0,0.0,1,1953.0,1
1339,1339,-0.7636840525566035,-0.8,1.0,0.0,440.0,541.0,0.0,0,2019.0,1
1340,1340,0.691511454944351,0.7,0.0,0.0,311.0,850.0,0.0,1,1839.0,1
1341,1341,0.28147961058536397,0.3,1.0,1.0,472.0,822.0,0.0,0,1706.0,0
1342,1342,0.08482477574448855,0.1,0.0,0.0,266.0,889.0,0.0,1,1845.0,1
1343,1343,-0.7400366314629659,-0.7,0.0,1.0,372.0,668.0,0.0,1,1960.0,0
1344,1344,0.779219010572913,0.8,1.0,1.0,494.0,800.0,0.0,0,1706.0,0
1345,1345,-0.8299623888767182,-0.8,0.0,1.0,401.0,802.0,0.0,1,1797.0,0
1346,1346,0.6346467509427435,0.6,1.0,1.0,279.0,893.0,0.0,0,1828.0,0
1347,1347,0.05980248869749172,0.1,0.0,0.0,258.0,695.0,0.0,1,2047.0,1
1348,1348,0.5665248021380594,0.6,1.0,1.0,328.0,705.0,0.0,0,1967.0,0
1349,1349,0.15103638504809613,0.2,1.0,1.0,371.0,993.0,0.0,0,1636.0,0
1350,1350,0.43116138554713845,0.4,1.0,1.0,297.0,937.0,0.0,0,1766.0,0
1351,1351,-0.6324258775942108,-0.6,0.0,1.0,456.0,760.0,0.0,1,1784.0,0
1352,1352,0.272222740320721,0.3,0.0,0.0,407.0,512.0,0.0,1,2081.0,1
1353,1353,0.5706799982616747,0.6,1.0,1.0,334.0,707.0,0.0,0,1959.0,0
1354,1354,0.5873315715078408,0.6,0.0,0.0,457.0,861.0,0.0,1,1682.0,1
1355,1355,0.4340663148364102,0.4,0.0,0.0,448.0,672.0,0.0,1,1880.0,1
1356,1356,-0.3579073133561974,-0.4,0.0,1.0,472.0,790.0,0.0,1,1738.0,0
1357,1357,0.4527378042308009,0.5,1.0,1.0,420.0,552.0,0.0,0,2028.0,0
1358,1358,-0.12470285119484659,-0.1,0.0,1.0,419.0,916.0,0.0,1,1665.0,0
1359,1359,-0.15212967195888494,-0.2,0.0,1.0,457.0,508.0,0.0,1,2035.0,0
1360,1360,0.6867319414893708,0.7,0.0,0.0,430.0,537.0,0.0,1,2033.0,1
1361,1361,-0.4060212366503162,-0.4,1.0,0.0,431.0,760.0,0.0,0,1809.0,1
1362,1362,-0.636010887396598,-0.6,1.0,0.0,449.0,742.0,0.0,0,1809.0,1
1363,1363,0.5521046271269595,0.6,0.0,0.0,417.0,795.0,0.0,1,1788.0,1
1364,1364,0.6408205463072253,0.6,0.0,0.0,271.0,585.0,0.0,1,2144.0,1
1365,1365,0.7730374823589016,0.8,1.0,1.0,399.0,886.0,1.0,1,-1255.0,1
1366,1366,-0.1998823043419935,-0.2,1.0,0.0,450.0,916.0,0.0,0,1634.0,1
1367,1367,-0.7590253125400176,-0.8,1.0,0.0,283.0,839.0,0.0,0,1878.0,1
1368,1368,-0.5820457471791047,-0.6,1.0,0.0,283.0,946.0,0.0,0,1771.0,1
1369,1369,0.8607754492525032,0.9,0.0,0.0,388.0,747.0,0.0,1,1865.0,1
1370,1370,0.027846025392314178,0.0,1.0,1.0,484.0,912.0,0.0,0,-1296.0,0
1371,1371,-0.25937089821388504,-0.3,0.0,1.0,354.0,881.0,0.0,1,1765.0,0
1372,1372,-0.2833223344117133,-0.3,0.0,1.0,432.0,568.0,0.0,1,2000.0,0
1373,1373,-0.3943643618563971,-0.4,0.0,1.0,275.0,792.0,0.0,1,1933.0,0
1374,1374,0.1419205113248495,0.1,1.0,1.0,276.0,798.0,0.0,0,1926.0,0
1375,1375,-0.1520947457393622,-0.2,0.0,1.0,400.0,978.0,0.0,1,1622.0,0
1376,1376,0.1871045069826095,0.2,1.0,1.0,482.0,953.0,1.0,1,-1345.0,1
1377,1377,0.6839757417228488,0.7,1.0,1.0,406.0,592.0,0.0,0,2002.0,0
1378,1378,-0.7309196075440132,-0.7,1.0,0.0,291.0,790.0,0.0,0,1919.0,1
1379,1379,-0.17776152608459395,-0.2,0.0,1.0,398.0,534.0,0.0,1,2068.0,0
1380,1380,0.5350632154476457,0.5,0.0,0.0,487.0,917.0,0.0,1,1596.0,1
1381,1381,-0.8135068995214393,-0.8,1.0,0.0,394.0,826.0,0.0,0,1780.0,1
1382,1382,-0.16818905658711236,-0.2,1.0,0.0,349.0,525.0,0.0,0,2126.0,1
1383,1383,-0.11563220508827954,-0.1,0.0,1.0,305.0,639.0,0.0,1,2056.0,0
1384,1384,0.6740237768634124,0.7,0.0,0.0,397.0,534.0,0.0,1,-891.0,1
1385,1385,-0.5875142978780297,-0.6,1.0,0.0,485.0,974.0,0.0,0,1541.0,1
1386,1386,-0.43488628916026406,-0.4,1.0,0.0,410.0,673.0,1.0,1,-1063.0,0
1387,1387,0.41725586980948803,0.4,1.0,1.0,341.0,981.0,0.0,0,1678.0,0
1388,1388,0.21805181296882503,0.2,0.0,0.0,287.0,528.0,1.0,0,-735.0,0
1389,1389,-0.0547955372716844,-0.1,1.0,0.0,435.0,592.0,0.0,0,1973.0,1
1390,1390,-0.6909802307064283,-0.7,0.0,1.0,358.0,917.0,0.0,1,1725.0,0
1391,1391,0.8011806953298352,0.8,1.0,1.0,329.0,913.0,0.0,0,1758.0,0
1392,1392,0.7975757420787234,0.8,1.0,1.0,494.0,624.0,0.0,0,1882.0,0
1393,1393,-0.8499102552559964,-0.8,1.0,0.0,323.0,971.0,0.0,0,1706.0,1
1394,1394,-0.2588469039410961,-0.3,0.0,1.0,402.0,797.0,0.0,1,1801.0,0
1395,1395,0.641770880945607,0.6,1.0,1.0,351.0,755.0,1.0,1,-1056.0,1
1396,1396,0.38523128374689,0.4,1.0,1.0,432.0,545.0,0.0,0,2023.0,0
1397,1397,-0.5007218844716477,-0.5,0.0,1.0,323.0,716.0,0.0,1,1961.0,0
1398,1398,0.20765212116400977,0.2,0.0,0.0,420.0,879.0,0.0,1,-1189.0,1
1399,1399,0.15292161795305825,0.2,0.0,0.0,468.0,977.0,0.0,1,1555.0,1
1400,1400,0.3660154917293711,0.4,0.0,0.0,289.0,546.0,0.0,1,2165.0,1
1401,1401,0.5376677192569198,0.5,0.0,0.0,292.0,932.0,0.0,1,1776.0,1
1402,1402,0.03580745818250286,0.0,1.0,1.0,434.0,764.0,0.0,0,1802.0,0
1403,1403,0.1552621155222963,0.2,1.0,1.0,468.0,864.0,0.0,0,1668.0,0
1404,1404,0.26313482474569827,0.3,0.0,0.0,277.0,846.0,0.0,1,1877.0,1
1405,1405,-0.6199094647521279,-0.6,0.0,1.0,275.0,508.0,0.0,1,2217.0,0
1406,1406,0.35886831285099097,0.4,1.0,1.0,345.0,784.0,1.0,1,-1099.0,1
1407,1407,-0.8686674099293139,-0.9,1.0,0.0,472.0,553.0,1.0,1,-985.0,0
1408,1408,0.4211866149952078,0.4,1.0,1.0,412.0,914.0,0.0,0,1674.0,0
1409,1409,-0.20220124770394488,-0.2,1.0,0.0,437.0,912.0,0.0,0,1651.0,1
1410,1410,-0.6461602525965018,-0.6,0.0,1.0,469.0,799.0,1.0,0,-1268.0,1
1411,1411,-0.4870930700839315,-0.5,1.0,0.0,493.0,551.0,1.0,1,-984.0,0
1412,1412,-0.3291237544470549,-0.3,0.0,1.0,310.0,820.0,0.0,1,1870.0,0
1413,1413,0.042596589450957345,0.0,1.0,1.0,297.0,701.0,0.0,0,2002.0,0
1414,1414,-0.551504723759177,-0.6,0.0,1.0,312.0,622.0,0.0,1,2066.0,0
1415,1415,-0.3700908729273301,-0.4,1.0,0.0,255.0,509.0,0.0,0,2236.0,1
1416,1416,-0.48092155694722627,-0.5,1.0,0.0,299.0,783.0,0.0,0,1918.0,1
1417,1417,0.7616622045640772,0.8,0.0,0.0,279.0,599.0,0.0,1,2122.0,1
1418,1418,0.7412204331258997,0.7,0.0,0.0,473.0,977.0,0.0,1,1550.0,1
1419,1419,0.8438226234964262,0.8,0.0,0.0,418.0,679.0,0.0,1,1903.0,1
1420,1420,0.4926011553149917,0.5,1.0,1.0,386.0,883.0,0.0,0,1731.0,0
1421,1421,0.6270527219070469,0.6,0.0,0.0,447.0,648.0,0.0,1,1905.0,1
1422,1422,-0.7464950030635218,-0.7,0.0,1.0,417.0,606.0,0.0,1,1977.0,0
1423,1423,0.07025692973168962,0.1,1.0,1.0,368.0,990.0,0.0,0,1642.0,0
1424,1424,0.253870527822318,0.3,0.0,0.0,405.0,942.0,0.0,1,1653.0,1
1425,1425,-0.8426909480841764,-0.8,1.0,0.0,352.0,750.0,0.0,0,1898.0,1
1426,1426,0.22726075815650837,0.2,0.0,0.0,437.0,990.0,0.0,1,1573.0,1
1427,1427,-0.23115178373605716,-0.2,1.0,0.0,412.0,608.0,0.0,0,1980.0,1
1428,1428,-0.7117424193962858,-0.7,0.0,1.0,294.0,870.0,0.0,1,1836.0,0
1429,1429,0.03669437904618866,0.0,0.0,0.0,332.0,615.0,0.0,1,2053.0,1
1430,1430,0.35102947438310916,0.4,1.0,1.0,496.0,534.0,0.0,0,1970.0,0
1431,1431,0.253413090452851,0.3,1.0,1.0,316.0,736.0,0.0,0,1948.0,0
1432,1432,0.13681254749827387,0.1,0.0,0.0,267.0,891.0,0.0,1,1842.0,1
1433,1433,0.4505210671201124,0.5,1.0,1.0,344.0,667.0,0.0,0,1989.0,0
1434,1434,-0.6355797342628215,-0.6,0.0,1.0,301.0,573.0,0.0,1,-844.0,0
1435,1435,0.4649466600523565,0.5,0.0,0.0,479.0,840.0,0.0,1,1681.0,1
1436,1436,-0.6709346475432122,-0.7,0.0,1.0,379.0,576.0,0.0,1,2045.0,0
1437,1437,-0.8026726324933117,-0.8,0.0,1.0,442.0,971.0,0.0,1,1587.0,0
1438,1438,0.4154777639659458,0.4,0.0,0.0,485.0,571.0,0.0,1,1944.0,1
1439,1439,-0.47969612525301686,-0.5,0.0,1.0,368.0,521.0,0.0,1,2111.0,0
1440,1440,0.1964351605119875,0.2,0.0,0.0,411.0,637.0,0.0,1,1952.0,1
1441,1441,0.3093465835620045,0.3,1.0,1.0,354.0,953.0,1.0,1,-1237.0,1
1442,1442,0.3199160610115884,0.3,1.0,1.0,433.0,951.0,0.0,0,1616.0,0
1443,1443,-0.4009748692861934,-0.4,0.0,1.0,389.0,539.0,0.0,1,2072.0,0
1444,1444,0.4045071599952347,0.4,1.0,1.0,270.0,565.0,0.0,0,2165.0,0
1445,1445,0.5801842874407365,0.6,1.0,1.0,317.0,624.0,0.0,0,2059.0,0
1446,1446,-0.0336053485753004,-0.0,1.0,0.0,466.0,879.0,0.0,0,1655.0,1
1447,1447,0.6108819807098095,0.6,0.0,0.0,495.0,879.0,0.0,1,1626.0,1
1448,1448,-0.3339551022854269,-0.3,1.0,0.0,339.0,882.0,0.0,0,1779.0,1
1449,1449,0.6150721652187366,0.6,1.0,1.0,403.0,553.0,0.0,0,2044.0,0
1450,1450,0.4883402450347486,0.5,0.0,0.0,417.0,672.0,0.0,1,1911.0,1
1451,1451,-0.5283129461229936,-0.5,1.0,0.0,454.0,851.0,0.0,0,1695.0,1
1452,1452,0.6539110949279338,0.7,0.0,0.0,428.0,692.0,0.0,1,1880.0,1
1453,1453,0.6035547600149588,0.6,1.0,1.0,475.0,715.0,0.0,0,1810.0,0
1454,1454,-0.8535266396083468,-0.9,0.0,1.0,376.0,860.0,0.0,1,1764.0,0
1455,1455,-0.1583254206271466,-0.2,0.0,1.0,286.0,556.0,0.0,1,2158.0,0
1456,1456,-0.21807669995078371,-0.2,1.0,0.0,362.0,953.0,1.0,1,-1265.0,0
1457,1457,-0.37031368440040846,-0.4,1.0,0.0,495.0,918.0,0.0,0,1587.0,1
1458,1458,0.4533140597028841,0.5,1.0,1.0,360.0,826.0,0.0,0,-1036.0,0
1459,1459,0.5736422901092456,0.6,0.0,0.0,410.0,597.0,0.0,1,1993.0,1
1460,1460,-0.8155510948827328,-0.8,0.0,1.0,476.0,800.0,0.0,1,1724.0,0
1461,1461,-0.23950542575594358,-0.2,0.0,1.0,307.0,617.0,0.0,1,2076.0,0
1462,1462,0.21545700827528946,0.2,1.0,1.0,478.0,961.0,0.0,0,1561.0,0
1463,1463,-0.06765207214580449,-0.1,0.0,1.0,293.0,963.0,0.0,1,1744.0,0
1464,1464,0.21758779886514745,0.2,0.0,0.0,472.0,880.0,0.0,1,1648.0,1
1465,1465,0.8897504181438459,0.9,1.0,1.0,293.0,685.0,0.0,0,2022.0,0
1466,1466,0.24258630097179734,0.2,0.0,0.0,461.0,964.0,0.0,1,1575.0,1
1467,1467,0.7908014576006653,0.8,1.0,1.0,342.0,737.0,0.0,0,1921.0,0
1468,1468,-0.271755379729278,-0.3,0.0,1.0,329.0,548.0,0.0,1,2123.0,0
1469,1469,0.1253193499999078,0.1,0.0,0.0,295.0,953.0,0.0,1,1752.0,1
1470,1470,-0.47807371682783517,-0.5,0.0,1.0,443.0,676.0,0.0,1,-1059.0,0
