,trial,coherence,coherence_bin,green_side,correct_side,target_onset,checker_onset,decision,green_decision,decision_time,correct_decision
0,0,0.3297983023465304,0.3,1.0,1.0,402.0,609.0,1.0,1,419.0,1
1,1,-0.09137472950152725,-0.1,1.0,0.0,490.0,533.0,1.0,1,1977.0,0
2,2,0.61597598013685,0.6,1.0,1.0,349.0,604.0,1.0,1,157.0,1
3,3,-0.6552925559607025,-0.7,1.0,0.0,257.0,934.0,0.0,0,889.0,1
4,4,0.5596465732881758,0.6,0.0,0.0,369.0,731.0,0.0,1,250.0,1
5,5,0.23286733871109366,0.2,0.0,0.0,493.0,805.0,0.0,1,1702.0,1
6,6,0.5596707036678407,0.6,0.0,0.0,453.0,740.0,0.0,1,367.0,1
7,7,-0.24188896953610495,-0.2,1.0,0.0,312.0,519.0,0.0,0,9.0,1
8,8,-0.10806015145776104,-0.1,0.0,1.0,481.0,762.0,1.0,0,1347.0,1
9,9,-0.7460567155913033,-0.7,0.0,1.0,395.0,663.0,1.0,0,132.0,1
10,10,-0.8254225186173592,-0.8,0.0,1.0,473.0,855.0,1.0,0,182.0,1
11,11,0.8351297351325596,0.8,0.0,0.0,432.0,737.0,0.0,1,271.0,1
12,12,-0.2024725563831824,-0.2,0.0,1.0,434.0,886.0,1.0,0,530.0,1
13,13,0.5583721468185231,0.6,1.0,1.0,385.0,872.0,1.0,1,153.0,1
14,14,-0.8861208202989134,-0.9,0.0,1.0,295.0,671.0,1.0,0,294.0,1
15,15,-0.875807121659868,-0.9,1.0,0.0,411.0,882.0,0.0,0,-173.0,1
16,16,0.1940435427483599,0.2,0.0,0.0,374.0,971.0,0.0,1,1655.0,1
17,17,-0.4140765857573755,-0.4,1.0,0.0,456.0,948.0,0.0,0,726.0,1
18,18,-0.8750878524686412,-0.9,1.0,0.0,361.0,843.0,0.0,0,356.0,1
19,19,-0.6790956715310684,-0.7,1.0,0.0,318.0,790.0,0.0,0,152.0,1
20,20,-0.5677722155377392,-0.6,1.0,0.0,484.0,965.0,0.0,0,141.0,1
21,21,0.5796952719452516,0.6,0.0,0.0,495.0,878.0,0.0,1,527.0,1
22,22,0.8545074057793572,0.9,0.0,0.0,258.0,508.0,0.0,1,84.0,1
23,23,-0.4672254117180672,-0.5,1.0,0.0,460.0,993.0,0.0,0,387.0,1
24,24,0.83190885633865,0.8,1.0,1.0,358.0,681.0,0.0,0,1.0,0
25,25,-0.8927479554897881,-0.9,1.0,0.0,279.0,880.0,0.0,0,-229.0,1
26,26,-0.8937827055449009,-0.9,0.0,1.0,317.0,711.0,1.0,0,232.0,1
27,27,0.7331099701930542,0.7,0.0,0.0,389.0,635.0,0.0,1,546.0,1
28,28,-0.21233776126843862,-0.2,1.0,0.0,487.0,932.0,0.0,0,11.0,1
29,29,0.31078263686291996,0.3,0.0,0.0,355.0,576.0,0.0,1,2069.0,1
30,30,-0.29632151548303165,-0.3,0.0,1.0,375.0,909.0,1.0,0,96.0,1
31,31,-0.8709232410914362,-0.9,1.0,0.0,465.0,932.0,1.0,1,-307.0,0
32,32,0.7692054104400007,0.8,1.0,1.0,314.0,683.0,1.0,1,123.0,1
33,33,0.311678569752566,0.3,0.0,0.0,431.0,528.0,0.0,1,1441.0,1
34,34,-0.6490327908910656,-0.6,0.0,1.0,257.0,725.0,1.0,0,238.0,1
35,35,0.015811909487417286,0.0,0.0,0.0,350.0,665.0,0.0,1,1985.0,1
36,36,0.17860379239239876,0.2,0.0,0.0,469.0,724.0,0.0,1,317.0,1
37,37,0.19680733369998815,0.2,1.0,1.0,301.0,569.0,1.0,1,1220.0,1
38,38,0.22115502266149523,0.2,1.0,1.0,370.0,593.0,1.0,1,947.0,1
39,39,0.8378105662086063,0.8,0.0,0.0,426.0,576.0,0.0,1,388.0,1
40,40,0.2458288282138058,0.2,0.0,0.0,436.0,868.0,0.0,1,1696.0,1
41,41,-0.44914056782190265,-0.4,0.0,1.0,394.0,752.0,1.0,0,224.0,1
42,42,-0.013738603090275636,-0.0,1.0,0.0,358.0,572.0,1.0,1,2070.0,0
43,43,0.8378295930146803,0.8,1.0,1.0,258.0,570.0,1.0,1,272.0,1
44,44,-0.3006604270913943,-0.3,1.0,0.0,427.0,945.0,0.0,0,158.0,1
45,45,-0.6790577881475318,-0.7,0.0,1.0,290.0,653.0,1.0,0,47.0,1
46,46,0.8824924746656001,0.9,0.0,0.0,466.0,976.0,0.0,1,218.0,1
47,47,0.04850460530953149,0.0,1.0,1.0,476.0,682.0,1.0,1,1842.0,1
48,48,-0.8949969281088034,-0.9,1.0,0.0,280.0,810.0,0.0,0,270.0,1
49,49,0.8840076900206538,0.9,0.0,0.0,495.0,689.0,0.0,1,486.0,1
50,50,-0.17071807429402264,-0.2,1.0,0.0,296.0,682.0,0.0,0,1542.0,1
51,51,0.8616774913830937,0.9,1.0,1.0,311.0,926.0,1.0,1,223.0,1
52,52,0.44401455693272573,0.4,0.0,0.0,364.0,669.0,0.0,1,537.0,1
53,53,0.4045838204830198,0.4,0.0,0.0,261.0,526.0,0.0,1,1543.0,1
54,54,-0.7297978546910242,-0.7,0.0,1.0,413.0,592.0,1.0,0,155.0,1
55,55,0.017011952096763983,0.0,0.0,0.0,258.0,672.0,0.0,1,2070.0,1
56,56,-0.7926843225251919,-0.8,0.0,1.0,260.0,566.0,1.0,0,234.0,1
57,57,0.6153637413609844,0.6,0.0,0.0,381.0,902.0,0.0,1,287.0,1
58,58,-0.3224945589348346,-0.3,0.0,1.0,258.0,721.0,1.0,0,311.0,1
59,59,0.2996582329939793,0.3,0.0,0.0,394.0,546.0,0.0,1,1060.0,1
60,60,0.7085959849882869,0.7,1.0,1.0,260.0,614.0,1.0,1,86.0,1
61,61,0.3919366803563541,0.4,0.0,0.0,452.0,988.0,0.0,1,1560.0,1
62,62,0.3876977080822178,0.4,1.0,1.0,311.0,738.0,1.0,1,551.0,1
63,63,-0.16645554874283908,-0.2,1.0,0.0,435.0,868.0,0.0,0,687.0,1
64,64,-0.4893412955137656,-0.5,0.0,1.0,436.0,812.0,1.0,0,452.0,1
65,65,-0.21534364879809031,-0.2,1.0,0.0,498.0,914.0,1.0,1,-132.0,0
66,66,-0.7047746986874927,-0.7,1.0,0.0,329.0,882.0,1.0,1,39.0,0
67,67,-0.5674355268073628,-0.6,0.0,1.0,495.0,832.0,1.0,0,343.0,1
68,68,-0.2833230405666596,-0.3,1.0,0.0,413.0,644.0,0.0,0,1333.0,1
69,69,-0.5938913541539552,-0.6,0.0,1.0,418.0,731.0,1.0,0,311.0,1
70,70,0.17096960561669106,0.2,0.0,0.0,318.0,682.0,0.0,1,2000.0,1
71,71,-0.570130816697303,-0.6,1.0,0.0,348.0,681.0,0.0,0,331.0,1
72,72,0.5068484296129193,0.5,0.0,0.0,457.0,649.0,0.0,1,1894.0,1
73,73,0.07790289930819982,0.1,1.0,1.0,481.0,728.0,0.0,0,1791.0,0
74,74,0.30572936811368445,0.3,0.0,0.0,420.0,775.0,0.0,1,555.0,1
75,75,0.5552512702891365,0.6,1.0,1.0,337.0,881.0,1.0,1,132.0,1
76,76,0.30852172304765524,0.3,0.0,0.0,318.0,814.0,0.0,1,1218.0,1
77,77,-0.5576938528118245,-0.6,1.0,0.0,267.0,694.0,0.0,0,269.0,1
78,78,-0.657518857302985,-0.7,1.0,0.0,315.0,985.0,0.0,0,80.0,1
79,79,0.27134738221204546,0.3,1.0,1.0,378.0,519.0,1.0,1,293.0,1
80,80,-0.8662601061094335,-0.9,1.0,0.0,278.0,780.0,0.0,0,162.0,1
81,81,-0.6347954484290774,-0.6,0.0,1.0,489.0,955.0,1.0,0,216.0,1
82,82,-0.2700133676321107,-0.3,1.0,0.0,345.0,505.0,0.0,0,1730.0,1
83,83,0.048460601633356304,0.0,1.0,1.0,290.0,787.0,1.0,1,-17.0,1
84,84,0.8486346797488905,0.8,0.0,0.0,260.0,789.0,0.0,1,361.0,1
85,85,-0.5703508352476555,-0.6,1.0,0.0,473.0,913.0,1.0,1,-366.0,0
86,86,0.10243743989280174,0.1,0.0,0.0,293.0,891.0,0.0,1,1816.0,1
87,87,-0.8821442910279941,-0.9,1.0,0.0,426.0,817.0,0.0,0,167.0,1
88,88,0.22007564484128894,0.2,0.0,0.0,323.0,666.0,0.0,1,2011.0,1
89,89,0.6162283995222381,0.6,1.0,1.0,299.0,882.0,1.0,1,199.0,1
90,90,0.15601232217265137,0.2,0.0,0.0,429.0,995.0,0.0,1,1166.0,1
91,91,0.5375742361187213,0.5,1.0,1.0,495.0,955.0,1.0,1,750.0,1
92,92,-0.6711018980513971,-0.7,1.0,0.0,315.0,753.0,0.0,0,222.0,1
93,93,0.1279239404145972,0.1,0.0,0.0,383.0,798.0,1.0,0,1819.0,0
94,94,-0.24369717649805855,-0.2,0.0,1.0,493.0,503.0,1.0,0,834.0,1
95,95,-0.07363030767664291,-0.1,0.0,1.0,483.0,642.0,1.0,0,1875.0,1
96,96,-0.29167233394755376,-0.3,1.0,0.0,327.0,938.0,0.0,0,435.0,1
97,97,-0.6088096638445388,-0.6,1.0,0.0,489.0,626.0,0.0,0,235.0,1
98,98,0.2956876253723223,0.3,1.0,1.0,435.0,673.0,1.0,1,842.0,1
99,99,0.7010058597361545,0.7,1.0,1.0,415.0,623.0,1.0,1,202.0,1
100,100,-0.07043212988931125,-0.1,1.0,0.0,444.0,852.0,0.0,0,254.0,1
101,101,0.07688726002717094,0.1,0.0,0.0,288.0,611.0,0.0,1,2101.0,1
102,102,0.421341641126583,0.4,0.0,0.0,263.0,737.0,0.0,1,360.0,1
103,103,-0.11121613986067824,-0.1,0.0,1.0,441.0,509.0,1.0,0,590.0,1
104,104,0.6879367577106322,0.7,0.0,0.0,325.0,945.0,0.0,1,640.0,1
105,105,0.6235143278670202,0.6,0.0,0.0,281.0,561.0,0.0,1,628.0,1
106,106,0.4956714868874622,0.5,0.0,0.0,314.0,966.0,0.0,1,1720.0,1
107,107,-0.8979675880363867,-0.9,1.0,0.0,270.0,591.0,0.0,0,189.0,1
108,108,0.8536676995416453,0.9,1.0,1.0,386.0,848.0,1.0,1,86.0,1
109,109,-0.10126967954242494,-0.1,0.0,1.0,264.0,528.0,1.0,0,1308.0,1
110,110,-0.2742175013576431,-0.3,0.0,1.0,350.0,915.0,1.0,0,365.0,1
111,111,0.5608801331490806,0.6,0.0,0.0,372.0,773.0,0.0,1,605.0,1
112,112,-0.8899657987365102,-0.9,0.0,1.0,303.0,749.0,1.0,0,238.0,1
113,113,-0.8880784136963369,-0.9,0.0,1.0,449.0,535.0,1.0,0,246.0,1
114,114,0.7678980373828243,0.8,1.0,1.0,432.0,768.0,1.0,1,60.0,1
115,115,0.22080715047198962,0.2,1.0,1.0,458.0,754.0,1.0,1,1408.0,1
116,116,0.5331281842143153,0.5,0.0,0.0,300.0,515.0,0.0,1,785.0,1
117,117,0.8487180847446213,0.8,0.0,0.0,460.0,697.0,0.0,1,383.0,1
118,118,-0.0010435359776539421,-0.0,1.0,0.0,326.0,621.0,1.0,1,2053.0,0
119,119,0.21482063925884753,0.2,0.0,0.0,256.0,961.0,0.0,1,-257.0,1
120,120,-0.14836652076982804,-0.1,1.0,0.0,431.0,918.0,0.0,0,301.0,1
121,121,0.05906754114155366,0.1,0.0,0.0,438.0,794.0,1.0,0,188.0,0
122,122,-0.09737199330949442,-0.1,0.0,1.0,305.0,595.0,1.0,0,200.0,1
123,123,-0.002348758242243343,-0.0,1.0,0.0,274.0,775.0,1.0,1,1611.0,0
124,124,-0.2939125348091868,-0.3,1.0,0.0,436.0,678.0,0.0,0,816.0,1
125,125,-0.41660641010692606,-0.4,0.0,1.0,429.0,938.0,1.0,0,383.0,1
126,126,-0.712756089791503,-0.7,0.0,1.0,290.0,963.0,1.0,0,207.0,1
127,127,0.5385904739434123,0.5,1.0,1.0,357.0,730.0,1.0,1,153.0,1
128,128,0.4560343342023968,0.5,0.0,0.0,351.0,835.0,0.0,1,954.0,1
129,129,0.6514939801065104,0.7,1.0,1.0,408.0,708.0,1.0,1,194.0,1
130,130,-0.6695695833912712,-0.7,1.0,0.0,368.0,916.0,0.0,0,-124.0,1
131,131,-0.8158596069621911,-0.8,0.0,1.0,398.0,693.0,1.0,0,249.0,1
132,132,0.680216655640174,0.7,1.0,1.0,288.0,586.0,1.0,1,176.0,1
133,133,0.06519635856629946,0.1,0.0,0.0,372.0,634.0,0.0,1,1994.0,1
134,134,-0.18144785537562258,-0.2,0.0,1.0,358.0,605.0,1.0,0,1377.0,1
135,135,0.4369847687373277,0.4,0.0,0.0,471.0,679.0,0.0,1,1030.0,1
136,136,0.4355779375602501,0.4,1.0,1.0,449.0,786.0,1.0,1,355.0,1
137,137,0.27994591233211896,0.3,1.0,1.0,357.0,683.0,1.0,1,240.0,1
138,138,-0.631397533561834,-0.6,1.0,0.0,351.0,931.0,0.0,0,208.0,1
139,139,0.40840533399902623,0.4,1.0,1.0,470.0,965.0,1.0,1,-555.0,1
140,140,0.37170718133179215,0.4,1.0,1.0,273.0,663.0,1.0,1,834.0,1
141,141,0.750278412696591,0.8,1.0,1.0,286.0,920.0,1.0,1,134.0,1
142,142,-0.5722288170068457,-0.6,1.0,0.0,278.0,665.0,0.0,0,457.0,1
143,143,-0.24520952093741666,-0.2,1.0,0.0,485.0,617.0,0.0,0,788.0,1
144,144,0.7637732323308658,0.8,1.0,1.0,325.0,989.0,1.0,1,266.0,1
145,145,0.5210300577629089,0.5,1.0,1.0,350.0,716.0,1.0,1,234.0,1
146,146,0.32576796459960244,0.3,0.0,0.0,395.0,555.0,0.0,1,1800.0,1
147,147,-0.5287000525293866,-0.5,1.0,0.0,305.0,611.0,0.0,0,464.0,1
148,148,0.6206832792819142,0.6,0.0,0.0,285.0,657.0,0.0,1,758.0,1
149,149,0.617610646295845,0.6,0.0,0.0,448.0,958.0,0.0,1,254.0,1
150,150,0.5599587833712628,0.6,0.0,0.0,362.0,568.0,0.0,1,650.0,1
151,151,-0.01984003719753258,-0.0,0.0,1.0,338.0,869.0,1.0,0,323.0,1
152,152,-0.18764503354994733,-0.2,0.0,1.0,270.0,523.0,1.0,0,267.0,1
153,153,0.7536246902523643,0.8,1.0,1.0,484.0,929.0,0.0,0,-513.0,0
154,154,-0.15860497717958488,-0.2,1.0,0.0,479.0,695.0,0.0,0,1826.0,1
155,155,-0.42000052486204453,-0.4,0.0,1.0,369.0,528.0,1.0,0,213.0,1
156,156,0.10827374081637886,0.1,1.0,1.0,372.0,908.0,1.0,1,1160.0,1
157,157,-0.1411756287238921,-0.1,1.0,0.0,275.0,651.0,0.0,0,2074.0,1
158,158,-0.4348879439294839,-0.4,1.0,0.0,360.0,528.0,0.0,0,52.0,1
159,159,0.15569710625366195,0.2,0.0,0.0,410.0,927.0,0.0,1,1663.0,1
160,160,-0.5545949572332347,-0.6,1.0,0.0,293.0,777.0,0.0,0,210.0,1
161,161,0.6185540446783352,0.6,1.0,1.0,354.0,931.0,1.0,1,145.0,1
162,162,-0.17620803022743525,-0.2,1.0,0.0,343.0,969.0,0.0,0,1068.0,1
163,163,-0.7154931869138104,-0.7,1.0,0.0,448.0,611.0,0.0,0,641.0,1
164,164,-0.5991448972820015,-0.6,1.0,0.0,269.0,861.0,0.0,0,420.0,1
165,165,0.3534925756779884,0.4,1.0,1.0,321.0,687.0,1.0,1,-68.0,1
166,166,0.025018300264025073,0.0,1.0,1.0,340.0,947.0,1.0,1,1713.0,1
167,167,0.046192323980083216,0.0,1.0,1.0,325.0,511.0,1.0,1,984.0,1
168,168,-0.4232101176871664,-0.4,1.0,0.0,455.0,667.0,0.0,0,1028.0,1
169,169,-0.5950180557023912,-0.6,1.0,0.0,290.0,733.0,1.0,1,-313.0,0
170,170,-0.1509612820299575,-0.2,0.0,1.0,253.0,939.0,1.0,0,418.0,1
171,171,0.5340853875246393,0.5,0.0,0.0,463.0,767.0,0.0,1,260.0,1
172,172,-0.1072701012214008,-0.1,1.0,0.0,410.0,531.0,0.0,0,1609.0,1
173,173,-0.31068976423559946,-0.3,1.0,0.0,420.0,659.0,0.0,0,301.0,1
174,174,-0.035877697172659984,-0.0,1.0,0.0,454.0,867.0,0.0,0,39.0,1
175,175,0.8869793927844535,0.9,1.0,1.0,316.0,688.0,1.0,1,416.0,1
176,176,-0.058371147720306715,-0.1,1.0,0.0,287.0,634.0,0.0,0,839.0,1
177,177,0.6519718660092001,0.7,1.0,1.0,416.0,572.0,1.0,1,202.0,1
178,178,-0.19608519767379717,-0.2,0.0,1.0,273.0,599.0,1.0,0,518.0,1
179,179,-0.18782734804323375,-0.2,1.0,0.0,278.0,845.0,0.0,0,1877.0,1
180,180,-0.7648961380010726,-0.8,0.0,1.0,274.0,982.0,1.0,0,234.0,1
181,181,-0.6955179959353651,-0.7,0.0,1.0,391.0,629.0,1.0,0,190.0,1
182,182,0.26757778023185075,0.3,1.0,1.0,406.0,532.0,1.0,1,362.0,1
183,183,-0.6419351367848696,-0.6,1.0,0.0,469.0,580.0,0.0,0,211.0,1
184,184,-0.6906355898216588,-0.7,0.0,1.0,444.0,589.0,1.0,0,237.0,1
185,185,-0.5517720899785834,-0.6,1.0,0.0,311.0,672.0,1.0,1,-123.0,0
186,186,-0.12080328485289449,-0.1,0.0,1.0,378.0,510.0,1.0,0,942.0,1
187,187,0.1024405810020802,0.1,1.0,1.0,252.0,996.0,1.0,1,732.0,1
188,188,-0.2796550347648361,-0.3,1.0,0.0,341.0,913.0,0.0,0,826.0,1
189,189,0.5673282331781427,0.6,1.0,1.0,304.0,964.0,1.0,1,232.0,1
190,190,-0.7972081512939684,-0.8,1.0,0.0,416.0,782.0,0.0,0,302.0,1
191,191,-0.6500121142637348,-0.7,0.0,1.0,407.0,921.0,1.0,0,332.0,1
192,192,-0.7169507661142223,-0.7,1.0,0.0,345.0,718.0,0.0,0,267.0,1
193,193,0.4335632954838017,0.4,1.0,1.0,453.0,637.0,1.0,1,260.0,1
194,194,0.4736273682157811,0.5,0.0,0.0,487.0,942.0,1.0,0,-229.0,0
195,195,-0.5372992761572677,-0.5,0.0,1.0,449.0,598.0,1.0,0,363.0,1
196,196,-0.28197825913529584,-0.3,1.0,0.0,469.0,977.0,0.0,0,424.0,1
197,197,0.423454715439035,0.4,0.0,0.0,343.0,603.0,0.0,1,2054.0,1
198,198,0.23451488476536564,0.2,1.0,1.0,435.0,621.0,1.0,1,404.0,1
199,199,0.15747338296561086,0.2,0.0,0.0,364.0,610.0,0.0,1,2026.0,1
200,200,0.11273725381632393,0.1,1.0,1.0,264.0,871.0,0.0,0,-45.0,0
201,201,-0.6925390991128847,-0.7,0.0,1.0,270.0,788.0,1.0,0,312.0,1
202,202,-0.4439313166706405,-0.4,0.0,1.0,330.0,597.0,1.0,0,353.0,1
203,203,-0.6336066980520442,-0.6,1.0,0.0,322.0,620.0,0.0,0,128.0,1
204,204,-0.13754827705036565,-0.1,1.0,0.0,471.0,624.0,0.0,0,1905.0,1
205,205,0.6416223758418415,0.6,0.0,0.0,319.0,646.0,0.0,1,1175.0,1
206,206,0.37229567441096323,0.4,1.0,1.0,361.0,996.0,1.0,1,-867.0,1
207,207,0.8018883430014098,0.8,1.0,1.0,483.0,676.0,1.0,1,341.0,1
208,208,0.7535252276319467,0.8,0.0,0.0,326.0,927.0,0.0,1,257.0,1
209,209,0.3651064699244212,0.4,1.0,1.0,380.0,541.0,1.0,1,749.0,1
210,210,-0.26553442297834473,-0.3,1.0,0.0,440.0,610.0,0.0,0,250.0,1
211,211,-0.29119963852865216,-0.3,0.0,1.0,357.0,885.0,1.0,0,338.0,1
212,212,0.0021015716704697596,0.0,0.0,0.0,394.0,658.0,0.0,1,1948.0,1
213,213,0.33657625492300636,0.3,0.0,0.0,419.0,523.0,0.0,1,768.0,1
214,214,0.6053823654944602,0.6,0.0,0.0,432.0,993.0,1.0,0,-365.0,0
215,215,0.2737927054616135,0.3,1.0,1.0,325.0,773.0,1.0,1,1002.0,1
216,216,-0.5106307878928764,-0.5,0.0,1.0,308.0,596.0,1.0,0,106.0,1
217,217,-0.057712757927733005,-0.1,1.0,0.0,446.0,729.0,1.0,1,1825.0,0
218,218,0.18243958738749722,0.2,1.0,1.0,262.0,826.0,1.0,1,1912.0,1
219,219,0.22246851352010044,0.2,1.0,1.0,262.0,846.0,1.0,1,-238.0,1
220,220,0.1817548832086603,0.2,0.0,0.0,362.0,759.0,0.0,1,1879.0,1
221,221,-0.13617413433908065,-0.1,1.0,0.0,364.0,681.0,1.0,1,1955.0,0
222,222,-0.30099706050024966,-0.3,1.0,0.0,346.0,589.0,0.0,0,265.0,1
223,223,-0.3202444283920919,-0.3,1.0,0.0,460.0,610.0,0.0,0,190.0,1
224,224,-0.7927011160782971,-0.8,0.0,1.0,409.0,661.0,1.0,0,270.0,1
225,225,0.402384213206476,0.4,0.0,0.0,468.0,604.0,0.0,1,748.0,1
226,226,0.2749235049442197,0.3,1.0,1.0,364.0,683.0,1.0,1,63.0,1
227,227,0.041359399902303084,0.0,0.0,0.0,372.0,593.0,0.0,1,2035.0,1
228,228,-0.10453731255850185,-0.1,0.0,1.0,440.0,929.0,1.0,0,1631.0,1
229,229,-0.7652883443326823,-0.8,1.0,0.0,479.0,770.0,0.0,0,481.0,1
230,230,0.20231468667792962,0.2,1.0,1.0,342.0,923.0,1.0,1,-125.0,1
231,231,-0.09426741614660006,-0.1,0.0,1.0,432.0,557.0,1.0,0,421.0,1
232,232,0.005805126160767671,0.0,1.0,1.0,302.0,831.0,0.0,0,-163.0,0
233,233,0.46860594593831106,0.5,0.0,0.0,341.0,836.0,0.0,1,1113.0,1
234,234,-0.27501304056009723,-0.3,0.0,1.0,446.0,806.0,1.0,0,48.0,1
235,235,0.5266249678276699,0.5,0.0,0.0,434.0,691.0,0.0,1,745.0,1
236,236,0.4739114688881624,0.5,0.0,0.0,281.0,642.0,0.0,1,477.0,1
237,237,-0.8391733425588002,-0.8,0.0,1.0,333.0,931.0,1.0,0,306.0,1
238,238,0.35291784231753576,0.4,1.0,1.0,330.0,621.0,1.0,1,239.0,1
239,239,0.6503854095864646,0.7,0.0,0.0,332.0,676.0,0.0,1,382.0,1
240,240,-0.13771161035822987,-0.1,0.0,1.0,274.0,816.0,1.0,0,300.0,1
241,241,0.6906073836456571,0.7,1.0,1.0,324.0,931.0,1.0,1,35.0,1
242,242,-0.1656577541382166,-0.2,0.0,1.0,474.0,935.0,1.0,0,771.0,1
243,243,0.3152153916347423,0.3,0.0,0.0,414.0,733.0,0.0,1,1353.0,1
244,244,-0.22173810858665843,-0.2,1.0,0.0,411.0,893.0,0.0,0,706.0,1
245,245,-0.5322947318947198,-0.5,0.0,1.0,464.0,735.0,1.0,0,151.0,1
246,246,-0.5510623172482281,-0.6,1.0,0.0,330.0,927.0,0.0,0,243.0,1
247,247,0.5504281140308845,0.6,1.0,1.0,463.0,615.0,1.0,1,742.0,1
248,248,0.029948739369517585,0.0,1.0,1.0,261.0,807.0,1.0,1,662.0,1
249,249,-0.3884374138222416,-0.4,1.0,0.0,448.0,529.0,0.0,0,1373.0,1
250,250,0.1722857980672251,0.2,1.0,1.0,393.0,609.0,1.0,1,438.0,1
251,251,0.6583035336754554,0.7,0.0,0.0,287.0,683.0,0.0,1,530.0,1
252,252,-0.33687527605463785,-0.3,1.0,0.0,437.0,906.0,0.0,0,267.0,1
253,253,0.05483829287638131,0.1,0.0,0.0,417.0,850.0,0.0,1,963.0,1
254,254,0.7289688748352093,0.7,1.0,1.0,464.0,857.0,1.0,1,139.0,1
255,255,-0.03557417279296893,-0.0,0.0,1.0,482.0,726.0,1.0,0,1112.0,1
256,256,0.17426337679262816,0.2,0.0,0.0,297.0,839.0,0.0,1,1864.0,1
257,257,-0.686511569796266,-0.7,1.0,0.0,489.0,853.0,0.0,0,318.0,1
258,258,-0.37532625486599935,-0.4,1.0,0.0,307.0,922.0,0.0,0,571.0,1
259,259,0.20480141838219235,0.2,0.0,0.0,431.0,785.0,0.0,1,634.0,1
260,260,-0.8281779285076579,-0.8,0.0,1.0,499.0,703.0,1.0,0,48.0,1
261,261,0.6646083223918043,0.7,0.0,0.0,261.0,693.0,0.0,1,306.0,1
262,262,0.1553330043831932,0.2,0.0,0.0,448.0,701.0,0.0,1,1851.0,1
263,263,0.7584341078974911,0.8,0.0,0.0,429.0,584.0,0.0,1,417.0,1
264,264,-0.02217886520909662,-0.0,1.0,0.0,267.0,552.0,1.0,1,-319.0,0
265,265,0.6014602164073496,0.6,0.0,0.0,306.0,849.0,0.0,1,285.0,1
266,266,0.19763994979902277,0.2,0.0,0.0,429.0,577.0,0.0,1,1994.0,1
267,267,-0.8511316646311053,-0.9,1.0,0.0,324.0,683.0,0.0,0,143.0,1
268,268,-0.16469485348754143,-0.2,1.0,0.0,274.0,823.0,1.0,1,1903.0,0
269,269,-0.31067207973298017,-0.3,1.0,0.0,329.0,866.0,0.0,0,825.0,1
270,270,0.29191926481200026,0.3,0.0,0.0,349.0,786.0,0.0,1,1865.0,1
271,271,0.32770894399381134,0.3,0.0,0.0,484.0,913.0,1.0,0,3.0,0
272,272,0.4170411699856874,0.4,0.0,0.0,290.0,890.0,0.0,1,500.0,1
273,273,-0.3809607985139607,-0.4,1.0,0.0,451.0,856.0,0.0,0,193.0,1
274,274,0.6201699345751007,0.6,0.0,0.0,257.0,992.0,0.0,1,941.0,1
275,275,-0.5799106624629622,-0.6,1.0,0.0,497.0,777.0,1.0,1,-514.0,0
276,276,0.8896257160568678,0.9,1.0,1.0,420.0,546.0,1.0,1,174.0,1
277,277,0.1484303094634064,0.1,0.0,0.0,424.0,510.0,0.0,1,2066.0,1
278,278,-0.6735148658814591,-0.7,1.0,0.0,421.0,934.0,0.0,0,-25.0,1
279,279,-0.029644708040963974,-0.0,0.0,1.0,458.0,965.0,1.0,0,1577.0,1
280,280,0.7202687465769532,0.7,0.0,0.0,260.0,503.0,0.0,1,517.0,1
281,281,-0.3578045925760306,-0.4,0.0,1.0,420.0,987.0,1.0,0,323.0,1
282,282,-0.05869970303526206,-0.1,1.0,0.0,406.0,535.0,1.0,1,939.0,0
283,283,-0.6149449293566365,-0.6,1.0,0.0,492.0,702.0,0.0,0,406.0,1
284,284,0.3345165575203227,0.3,1.0,1.0,263.0,625.0,1.0,1,652.0,1
285,285,-0.31952920404383245,-0.3,1.0,0.0,444.0,684.0,0.0,0,662.0,1
286,286,-0.7962595640199458,-0.8,1.0,0.0,432.0,929.0,1.0,1,-141.0,0
287,287,0.16830057857442993,0.2,1.0,1.0,494.0,994.0,1.0,1,1362.0,1
288,288,0.3834573449881381,0.4,1.0,1.0,366.0,505.0,1.0,1,629.0,1
289,289,0.8770445682776441,0.9,0.0,0.0,402.0,678.0,0.0,1,280.0,1
290,290,-0.4160620199298886,-0.4,1.0,0.0,394.0,833.0,0.0,0,543.0,1
291,291,-0.7957861996147708,-0.8,0.0,1.0,374.0,787.0,1.0,0,289.0,1
292,292,0.8330666077611623,0.8,0.0,0.0,453.0,992.0,0.0,1,195.0,1
293,293,0.04996972999833438,0.0,0.0,0.0,486.0,654.0,1.0,0,920.0,0
294,294,-0.7092241448063743,-0.7,0.0,1.0,400.0,662.0,1.0,0,178.0,1
295,295,0.8075617557517979,0.8,1.0,1.0,252.0,781.0,1.0,1,237.0,1
296,296,0.40880237872717295,0.4,1.0,1.0,270.0,648.0,1.0,1,702.0,1
297,297,0.5618130362588195,0.6,0.0,0.0,487.0,809.0,0.0,1,354.0,1
298,298,0.7646761503592235,0.8,0.0,0.0,250.0,875.0,1.0,0,-415.0,0
299,299,0.6210961293681535,0.6,0.0,0.0,353.0,701.0,0.0,1,216.0,1
300,300,0.2145345294394122,0.2,1.0,1.0,344.0,541.0,1.0,1,1145.0,1
301,301,0.07194971411335616,0.1,1.0,1.0,308.0,566.0,1.0,1,466.0,1
302,302,-0.6402156265410934,-0.6,1.0,0.0,367.0,936.0,1.0,1,17.0,0
303,303,-0.7508569884224254,-0.8,1.0,0.0,269.0,526.0,0.0,0,365.0,1
304,304,0.12694149054431236,0.1,1.0,1.0,498.0,998.0,1.0,1,-196.0,1
305,305,-0.537378115064534,-0.5,1.0,0.0,283.0,570.0,0.0,0,317.0,1
306,306,-0.32968154097200897,-0.3,1.0,0.0,301.0,912.0,1.0,1,-73.0,0
307,307,-0.1547286323245456,-0.2,0.0,1.0,495.0,886.0,1.0,0,1619.0,1
308,308,-0.7764708887339655,-0.8,0.0,1.0,287.0,508.0,1.0,0,195.0,1
309,309,-0.19265275770313472,-0.2,1.0,0.0,479.0,547.0,0.0,0,1524.0,1
310,310,-0.5314102383208053,-0.5,1.0,0.0,323.0,755.0,0.0,0,1022.0,1
311,311,0.37872517285031326,0.4,0.0,0.0,276.0,560.0,0.0,1,2164.0,1
312,312,-0.7626531986752327,-0.8,1.0,0.0,301.0,808.0,1.0,1,1.0,0
313,313,-0.4992549267713484,-0.5,0.0,1.0,410.0,684.0,1.0,0,456.0,1
314,314,0.3918041632526451,0.4,1.0,1.0,327.0,946.0,1.0,1,-353.0,1
315,315,0.3505216742202465,0.4,0.0,0.0,326.0,925.0,0.0,1,999.0,1
316,316,-0.5119967247774213,-0.5,0.0,1.0,425.0,717.0,1.0,0,298.0,1
317,317,0.333926939306343,0.3,0.0,0.0,344.0,837.0,0.0,1,1819.0,1
318,318,-0.4489995406778158,-0.4,0.0,1.0,371.0,829.0,1.0,0,470.0,1
319,319,-0.8083448044647361,-0.8,0.0,1.0,281.0,924.0,1.0,0,425.0,1
320,320,-0.24988858078718712,-0.2,1.0,0.0,351.0,858.0,0.0,0,571.0,1
321,321,-0.2583985870951895,-0.3,0.0,1.0,452.0,845.0,1.0,0,383.0,1
322,322,-0.4151680235407364,-0.4,0.0,1.0,289.0,877.0,1.0,0,204.0,1
323,323,0.8565771150530311,0.9,1.0,1.0,385.0,509.0,1.0,1,176.0,1
324,324,0.5663271619213751,0.6,0.0,0.0,432.0,999.0,0.0,1,1569.0,1
325,325,0.21172006497023832,0.2,0.0,0.0,381.0,711.0,1.0,0,1908.0,0
326,326,-0.23706175300617394,-0.2,0.0,1.0,395.0,834.0,1.0,0,631.0,1
327,327,-0.5688911250177129,-0.6,0.0,1.0,331.0,593.0,1.0,0,486.0,1
328,328,-0.5738954412929045,-0.6,0.0,1.0,399.0,754.0,1.0,0,127.0,1
329,329,-0.03210601642997413,-0.0,1.0,0.0,401.0,930.0,1.0,1,1039.0,0
330,330,-0.7556933935012511,-0.8,0.0,1.0,309.0,809.0,1.0,0,32.0,1
331,331,-0.6683341061097359,-0.7,0.0,1.0,296.0,500.0,1.0,0,184.0,1
332,332,-0.14960725248398377,-0.1,1.0,0.0,295.0,949.0,0.0,0,1416.0,1
333,333,0.07474380886148502,0.1,1.0,1.0,401.0,897.0,1.0,1,1362.0,1
334,334,-0.45051312030563084,-0.5,0.0,1.0,392.0,649.0,1.0,0,349.0,1
335,335,-0.7020657925240812,-0.7,1.0,0.0,400.0,744.0,0.0,0,216.0,1
336,336,-0.27261383804716244,-0.3,0.0,1.0,266.0,851.0,1.0,0,363.0,1
337,337,-0.7112170843038987,-0.7,1.0,0.0,487.0,869.0,0.0,0,464.0,1
338,338,-0.8260781472830567,-0.8,1.0,0.0,425.0,904.0,0.0,0,221.0,1
339,339,-0.5157327664986997,-0.5,1.0,0.0,390.0,531.0,0.0,0,619.0,1
340,340,0.22594672527590876,0.2,0.0,0.0,357.0,563.0,0.0,1,2080.0,1
341,341,-0.8050830387934448,-0.8,1.0,0.0,468.0,506.0,0.0,0,376.0,1
342,342,-0.6261870510849818,-0.6,0.0,1.0,444.0,721.0,1.0,0,95.0,1
343,343,-0.5283254797615846,-0.5,1.0,0.0,446.0,761.0,0.0,0,183.0,1
344,344,0.05537575429651931,0.1,1.0,1.0,454.0,736.0,0.0,0,1810.0,0
345,345,0.1509809472546798,0.2,1.0,1.0,493.0,579.0,1.0,1,538.0,1
346,346,0.7139253469802437,0.7,0.0,0.0,454.0,863.0,0.0,1,463.0,1
347,347,0.6810067647658077,0.7,1.0,1.0,276.0,567.0,1.0,1,187.0,1
348,348,-0.7733328970725913,-0.8,1.0,0.0,405.0,835.0,0.0,0,490.0,1
349,349,0.2606946665229736,0.3,1.0,1.0,346.0,944.0,1.0,1,800.0,1
350,350,0.07704946847702399,0.1,0.0,0.0,428.0,677.0,1.0,0,1895.0,0
351,351,0.806959404327885,0.8,1.0,1.0,471.0,695.0,1.0,1,304.0,1
352,352,0.2708939452792739,0.3,1.0,1.0,432.0,790.0,1.0,1,728.0,1
353,353,0.7467141762292325,0.7,0.0,0.0,497.0,816.0,0.0,1,167.0,1
354,354,-0.2844324347059517,-0.3,0.0,1.0,338.0,580.0,1.0,0,72.0,1
355,355,0.37180802244298305,0.4,1.0,1.0,465.0,747.0,1.0,1,458.0,1
356,356,-0.2729747782931281,-0.3,0.0,1.0,361.0,795.0,1.0,0,734.0,1
357,357,-0.8260249293663815,-0.8,1.0,0.0,422.0,623.0,0.0,0,435.0,1
358,358,-0.25481492036143694,-0.3,1.0,0.0,481.0,820.0,0.0,0,1629.0,1
359,359,0.10645283570227926,0.1,0.0,0.0,334.0,939.0,0.0,1,1687.0,1
360,360,-0.06139062966569908,-0.1,1.0,0.0,490.0,540.0,1.0,1,590.0,0
361,361,0.891415230953503,0.9,1.0,1.0,370.0,959.0,1.0,1,51.0,1
362,362,0.034044351167747844,0.0,0.0,0.0,287.0,558.0,1.0,0,2155.0,0
363,363,-0.12737691415450347,-0.1,1.0,0.0,379.0,542.0,0.0,0,2079.0,1
364,364,-0.5534894845974636,-0.6,1.0,0.0,257.0,706.0,0.0,0,257.0,1
365,365,-0.31225296704837546,-0.3,0.0,1.0,410.0,543.0,1.0,0,467.0,1
366,366,0.8055777976553852,0.8,0.0,0.0,380.0,564.0,0.0,1,956.0,1
367,367,0.10006510989720063,0.1,0.0,0.0,354.0,984.0,1.0,0,-58.0,0
368,368,0.3487627750664749,0.3,1.0,1.0,389.0,783.0,1.0,1,1108.0,1
369,369,0.5138808399085372,0.5,1.0,1.0,288.0,750.0,1.0,1,272.0,1
370,370,0.18378924956114429,0.2,0.0,0.0,442.0,899.0,0.0,1,1659.0,1
371,371,0.5614243832507831,0.6,0.0,0.0,377.0,553.0,0.0,1,790.0,1
372,372,-0.829906379374305,-0.8,0.0,1.0,339.0,797.0,1.0,0,-196.0,1
373,373,-0.8681362039203248,-0.9,0.0,1.0,331.0,964.0,1.0,0,175.0,1
374,374,0.3092460842939476,0.3,0.0,0.0,264.0,664.0,0.0,1,2072.0,1
375,375,-0.09104552268011934,-0.1,1.0,0.0,414.0,595.0,1.0,1,1991.0,0
376,376,0.17124056132987964,0.2,0.0,0.0,456.0,701.0,0.0,1,1843.0,1
377,377,0.5506937989862638,0.6,1.0,1.0,414.0,583.0,1.0,1,143.0,1
378,378,-0.8732256975444704,-0.9,1.0,0.0,293.0,887.0,1.0,1,-260.0,0
379,379,0.12580430971444556,0.1,1.0,1.0,417.0,735.0,1.0,1,48.0,1
380,380,-0.6190498387654668,-0.6,0.0,1.0,448.0,923.0,1.0,0,339.0,1
381,381,-0.34847444993808674,-0.3,0.0,1.0,304.0,722.0,1.0,0,-96.0,1
382,382,0.2212632046505888,0.2,1.0,1.0,324.0,858.0,1.0,1,608.0,1
383,383,-0.3451759698921322,-0.3,0.0,1.0,380.0,897.0,1.0,0,303.0,1
384,384,0.2663098586484903,0.3,1.0,1.0,458.0,512.0,1.0,1,1260.0,1
385,385,0.08486441747550433,0.1,0.0,0.0,446.0,837.0,0.0,1,1717.0,1
386,386,0.7281968502875505,0.7,0.0,0.0,287.0,919.0,0.0,1,264.0,1
387,387,0.09893317662378986,0.1,0.0,0.0,490.0,596.0,0.0,1,1914.0,1
388,388,0.8417381966973604,0.8,1.0,1.0,499.0,619.0,1.0,1,202.0,1
389,389,0.1582013301846238,0.2,0.0,0.0,376.0,920.0,1.0,0,-696.0,0
390,390,0.41002054831423107,0.4,0.0,0.0,335.0,507.0,0.0,1,1948.0,1
391,391,-0.18221766906009806,-0.2,0.0,1.0,430.0,714.0,1.0,0,906.0,1
392,392,0.7316366897216314,0.7,0.0,0.0,460.0,570.0,1.0,0,-240.0,0
393,393,-0.5754330519966242,-0.6,1.0,0.0,287.0,616.0,0.0,0,987.0,1
394,394,0.7984703121793001,0.8,1.0,1.0,374.0,701.0,1.0,1,85.0,1
395,395,0.5607628871114639,0.6,0.0,0.0,282.0,844.0,0.0,1,654.0,1
396,396,-0.5091259434870152,-0.5,0.0,1.0,465.0,827.0,1.0,0,278.0,1
397,397,0.7563099239276535,0.8,1.0,1.0,482.0,738.0,1.0,1,420.0,1
398,398,-0.019377639807895752,-0.0,1.0,0.0,485.0,754.0,1.0,1,1761.0,0
399,399,-0.4548886559241371,-0.5,0.0,1.0,316.0,743.0,1.0,0,171.0,1
400,400,-0.7312999504387123,-0.7,1.0,0.0,349.0,980.0,0.0,0,231.0,1
401,401,-0.4384139796341956,-0.4,1.0,0.0,354.0,523.0,0.0,0,243.0,1
402,402,-0.7796284616306601,-0.8,1.0,0.0,426.0,994.0,0.0,0,120.0,1
403,403,-0.8957255384879202,-0.9,0.0,1.0,315.0,653.0,1.0,0,122.0,1
404,404,-0.08608047565134025,-0.1,0.0,1.0,324.0,882.0,1.0,0,1794.0,1
405,405,-0.28413795392572294,-0.3,1.0,0.0,445.0,832.0,0.0,0,813.0,1
406,406,0.8412415514339414,0.8,1.0,1.0,470.0,574.0,1.0,1,146.0,1
407,407,-0.8037683110066309,-0.8,1.0,0.0,489.0,910.0,1.0,1,-759.0,0
408,408,-0.7073273593985695,-0.7,0.0,1.0,422.0,823.0,1.0,0,285.0,1
409,409,-0.3753827423712788,-0.4,0.0,1.0,270.0,803.0,1.0,0,187.0,1
410,410,0.3388376758641777,0.3,0.0,0.0,345.0,895.0,0.0,1,1370.0,1
411,411,0.7727257664550661,0.8,0.0,0.0,314.0,911.0,0.0,1,125.0,1
412,412,0.319202557289178,0.3,0.0,0.0,418.0,822.0,0.0,1,1000.0,1
413,413,0.3755422810750565,0.4,0.0,0.0,432.0,950.0,0.0,1,258.0,1
414,414,-0.4016250153519382,-0.4,1.0,0.0,438.0,644.0,0.0,0,508.0,1
415,415,-0.4107535968281342,-0.4,1.0,0.0,270.0,967.0,0.0,0,223.0,1
416,416,-0.11678983787671515,-0.1,1.0,0.0,321.0,618.0,0.0,0,961.0,1
417,417,0.7735026053451669,0.8,1.0,1.0,331.0,516.0,1.0,1,183.0,1
418,418,-0.39383932616226713,-0.4,0.0,1.0,293.0,568.0,1.0,0,99.0,1
419,419,0.24620296039685485,0.2,1.0,1.0,422.0,834.0,1.0,1,374.0,1
420,420,0.8759190064681724,0.9,0.0,0.0,491.0,774.0,0.0,1,155.0,1
421,421,0.6972023234899379,0.7,1.0,1.0,364.0,765.0,1.0,1,221.0,1
422,422,-0.4428038238130606,-0.4,0.0,1.0,298.0,506.0,1.0,0,216.0,1
423,423,0.10228999025174301,0.1,0.0,0.0,333.0,660.0,1.0,0,-543.0,0
424,424,0.10074807481892212,0.1,0.0,0.0,452.0,737.0,1.0,0,1811.0,0
425,425,-0.435563110029056,-0.4,0.0,1.0,380.0,838.0,1.0,0,422.0,1
426,426,0.203651040080428,0.2,1.0,1.0,281.0,753.0,1.0,1,986.0,1
427,427,0.6056342764471218,0.6,0.0,0.0,299.0,768.0,0.0,1,313.0,1
428,428,-0.14078470024792344,-0.1,1.0,0.0,276.0,822.0,0.0,0,1902.0,1
429,429,0.31826450100672254,0.3,1.0,1.0,355.0,543.0,1.0,1,262.0,1
430,430,0.568211470397859,0.6,0.0,0.0,369.0,844.0,0.0,1,207.0,1
431,431,-0.032500758990970935,-0.0,1.0,0.0,335.0,686.0,0.0,0,-31.0,1
432,432,-0.7919758636149183,-0.8,0.0,1.0,456.0,943.0,1.0,0,261.0,1
433,433,-0.8816103063625064,-0.9,0.0,1.0,429.0,844.0,1.0,0,47.0,1
434,434,-0.14858330096700034,-0.1,1.0,0.0,427.0,877.0,1.0,1,1696.0,0
435,435,0.08608666738662474,0.1,1.0,1.0,313.0,520.0,1.0,1,717.0,1
436,436,-0.4404993055552698,-0.4,0.0,1.0,421.0,553.0,1.0,0,146.0,1
437,437,0.3878590607172906,0.4,1.0,1.0,328.0,554.0,1.0,1,418.0,1
438,438,0.6449975264885585,0.6,1.0,1.0,463.0,913.0,1.0,1,264.0,1
439,439,-0.12112760072180162,-0.1,1.0,0.0,377.0,938.0,1.0,1,125.0,0
440,440,0.6946353718124051,0.7,1.0,1.0,260.0,740.0,0.0,0,-150.0,0
441,441,0.3162614008096126,0.3,0.0,0.0,476.0,572.0,0.0,1,1952.0,1
442,442,-0.20102956555427964,-0.2,0.0,1.0,345.0,583.0,1.0,0,392.0,1
443,443,-0.6784918744085886,-0.7,1.0,0.0,498.0,925.0,0.0,0,487.0,1
444,444,-0.7581882744427227,-0.8,0.0,1.0,487.0,685.0,1.0,0,128.0,1
445,445,-0.6177766623479681,-0.6,0.0,1.0,449.0,594.0,1.0,0,377.0,1
446,446,0.4134238597986474,0.4,0.0,0.0,391.0,784.0,0.0,1,975.0,1
447,447,-0.010588133339150319,-0.0,0.0,1.0,286.0,602.0,0.0,1,332.0,0
448,448,0.6859116566646736,0.7,1.0,1.0,390.0,628.0,1.0,1,482.0,1
449,449,0.4280513923191839,0.4,0.0,0.0,321.0,747.0,0.0,1,482.0,1
450,450,-0.31096656930634625,-0.3,0.0,1.0,349.0,621.0,1.0,0,400.0,1
451,451,0.030579005312729945,0.0,1.0,1.0,384.0,623.0,0.0,0,1993.0,0
452,452,-0.021159677510816377,-0.0,0.0,1.0,445.0,663.0,0.0,1,1892.0,0
453,453,0.585396892031573,0.6,1.0,1.0,445.0,532.0,1.0,1,373.0,1
454,454,-0.5803989594802237,-0.6,0.0,1.0,269.0,795.0,1.0,0,126.0,1
455,455,0.7185792450425633,0.7,0.0,0.0,342.0,739.0,0.0,1,149.0,1
456,456,-0.8395658113377256,-0.8,0.0,1.0,281.0,852.0,1.0,0,237.0,1
457,457,-0.8086994465497178,-0.8,1.0,0.0,308.0,594.0,0.0,0,358.0,1
458,458,-0.3653222273629423,-0.4,0.0,1.0,378.0,810.0,1.0,0,222.0,1
459,459,0.8087624713468803,0.8,0.0,0.0,473.0,876.0,1.0,0,-219.0,0
460,460,0.6622942301208131,0.7,1.0,1.0,296.0,636.0,1.0,1,448.0,1
461,461,0.6585334069688135,0.7,1.0,1.0,326.0,591.0,1.0,1,223.0,1
462,462,0.8486724438461514,0.8,1.0,1.0,310.0,818.0,1.0,1,142.0,1
463,463,0.06426914729453359,0.1,0.0,0.0,438.0,790.0,1.0,0,1772.0,0
464,464,0.09806320686558878,0.1,0.0,0.0,257.0,802.0,0.0,1,1941.0,1
465,465,-0.6953665594259867,-0.7,0.0,1.0,455.0,571.0,1.0,0,324.0,1
466,466,0.41399060177187585,0.4,0.0,0.0,370.0,773.0,0.0,1,827.0,1
467,467,-0.750281831492892,-0.8,0.0,1.0,440.0,779.0,1.0,0,101.0,1
468,468,-0.18118687860245297,-0.2,1.0,0.0,297.0,652.0,1.0,1,21.0,0
469,469,-0.40966001031001675,-0.4,1.0,0.0,326.0,691.0,0.0,0,443.0,1
470,470,-0.28988074695083,-0.3,1.0,0.0,356.0,943.0,0.0,0,261.0,1
471,471,-0.14677258476103205,-0.1,1.0,0.0,420.0,683.0,0.0,0,427.0,1
472,472,0.6712541332952918,0.7,1.0,1.0,413.0,757.0,1.0,1,260.0,1
473,473,0.5941141047601651,0.6,1.0,1.0,317.0,792.0,0.0,0,-469.0,0
474,474,0.15646928602575583,0.2,1.0,1.0,391.0,919.0,1.0,1,1210.0,1
475,475,-0.32498724493911435,-0.3,1.0,0.0,273.0,931.0,0.0,0,1186.0,1
476,476,-0.0014579988082258355,-0.0,0.0,1.0,390.0,950.0,0.0,1,1660.0,0
477,477,-0.5086609595200646,-0.5,1.0,0.0,443.0,703.0,0.0,0,504.0,1
478,478,-0.6936351742238587,-0.7,1.0,0.0,499.0,804.0,0.0,0,77.0,1
479,479,0.771464817498701,0.8,0.0,0.0,265.0,556.0,0.0,1,1079.0,1
480,480,-0.8505335117153562,-0.9,1.0,0.0,275.0,606.0,0.0,0,319.0,1
481,481,-0.6875748770863883,-0.7,1.0,0.0,315.0,631.0,0.0,0,374.0,1
482,482,-0.28565639786336894,-0.3,1.0,0.0,459.0,652.0,0.0,0,279.0,1
483,483,0.6190544761792541,0.6,1.0,1.0,437.0,514.0,1.0,1,609.0,1
484,484,-0.2978706433224917,-0.3,0.0,1.0,425.0,921.0,1.0,0,1274.0,1
485,485,-0.7523811066886584,-0.8,0.0,1.0,459.0,795.0,1.0,0,126.0,1
486,486,0.2289981756008045,0.2,1.0,1.0,322.0,881.0,1.0,1,467.0,1
487,487,0.20866710784400888,0.2,0.0,0.0,390.0,880.0,0.0,1,1730.0,1
488,488,-0.35420822404368835,-0.4,0.0,1.0,287.0,850.0,1.0,0,313.0,1
489,489,0.8762711434870255,0.9,1.0,1.0,466.0,658.0,1.0,1,56.0,1
490,490,-0.6086923273815368,-0.6,0.0,1.0,292.0,653.0,1.0,0,265.0,1
491,491,-0.3775035267183956,-0.4,1.0,0.0,323.0,608.0,0.0,0,609.0,1
492,492,-0.7991277542798433,-0.8,0.0,1.0,437.0,913.0,1.0,0,80.0,1
493,493,0.07258021067980691,0.1,1.0,1.0,283.0,776.0,1.0,1,241.0,1
494,494,0.4519805375853566,0.5,1.0,1.0,485.0,860.0,1.0,1,335.0,1
495,495,0.42948973259610146,0.4,0.0,0.0,308.0,616.0,0.0,1,736.0,1
496,496,-0.10287563675793565,-0.1,0.0,1.0,298.0,532.0,1.0,0,-250.0,1
497,497,-0.260009724440577,-0.3,1.0,0.0,373.0,800.0,0.0,0,1277.0,1
498,498,0.3283926438857615,0.3,1.0,1.0,279.0,870.0,1.0,1,1291.0,1
499,499,0.17253232217427283,0.2,0.0,0.0,387.0,951.0,0.0,1,1662.0,1
500,500,-0.24414768547397536,-0.2,1.0,0.0,407.0,710.0,1.0,1,3.0,0
501,501,0.8311700883514602,0.8,1.0,1.0,360.0,633.0,1.0,1,227.0,1
502,502,0.3944713090727946,0.4,0.0,0.0,330.0,883.0,0.0,1,137.0,1
503,503,-0.5971939294638422,-0.6,1.0,0.0,428.0,619.0,0.0,0,203.0,1
504,504,0.6150869377249805,0.6,1.0,1.0,348.0,824.0,1.0,1,-52.0,1
505,505,0.39666653418514375,0.4,0.0,0.0,296.0,944.0,0.0,1,1760.0,1
506,506,0.3682664616097894,0.4,1.0,1.0,413.0,734.0,1.0,1,193.0,1
507,507,0.8071919759775347,0.8,1.0,1.0,256.0,878.0,1.0,1,556.0,1
508,508,-0.2492871418343855,-0.2,1.0,0.0,414.0,914.0,0.0,0,932.0,1
509,509,-0.3716852092532936,-0.4,1.0,0.0,359.0,775.0,0.0,0,856.0,1
510,510,0.569553642916005,0.6,0.0,0.0,440.0,659.0,0.0,1,481.0,1
511,511,0.13118683863195602,0.1,0.0,0.0,252.0,658.0,0.0,1,2090.0,1
512,512,0.8482679062488457,0.8,0.0,0.0,488.0,983.0,0.0,1,499.0,1
513,513,0.14720665876519312,0.1,1.0,1.0,424.0,699.0,1.0,1,617.0,1
514,514,0.8036795960965953,0.8,1.0,1.0,470.0,858.0,1.0,1,102.0,1
515,515,-0.11989494418328539,-0.1,1.0,0.0,266.0,781.0,0.0,0,383.0,1
516,516,0.2776379859490833,0.3,1.0,1.0,375.0,502.0,1.0,1,513.0,1
517,517,0.24114348182512158,0.2,0.0,0.0,419.0,953.0,0.0,1,808.0,1
518,518,-0.6294485354102961,-0.6,0.0,1.0,327.0,771.0,1.0,0,312.0,1
519,519,0.7978718390204899,0.8,1.0,1.0,451.0,503.0,1.0,1,166.0,1
520,520,0.20927950145948182,0.2,1.0,1.0,309.0,514.0,1.0,1,1057.0,1
521,521,-0.49834325150616565,-0.5,0.0,1.0,458.0,724.0,1.0,0,168.0,1
522,522,0.10036112991102308,0.1,0.0,0.0,479.0,687.0,0.0,1,1834.0,1
523,523,-0.6062843410821113,-0.6,0.0,1.0,390.0,788.0,1.0,0,312.0,1
524,524,-0.2426149109924166,-0.2,1.0,0.0,265.0,963.0,0.0,0,42.0,1
525,525,-0.7239146998787153,-0.7,1.0,0.0,343.0,979.0,0.0,0,188.0,1
526,526,0.31547279853026355,0.3,0.0,0.0,497.0,547.0,0.0,1,1956.0,1
527,527,0.3374345483856446,0.3,1.0,1.0,481.0,622.0,1.0,1,-53.0,1
528,528,-0.14853602473521577,-0.1,1.0,0.0,486.0,906.0,0.0,0,948.0,1
529,529,-0.22755557350978806,-0.2,0.0,1.0,350.0,798.0,1.0,0,372.0,1
530,530,-0.2900278865523712,-0.3,0.0,1.0,314.0,644.0,1.0,0,632.0,1
531,531,0.1763807761709465,0.2,1.0,1.0,458.0,509.0,1.0,1,233.0,1
532,532,-0.4699812059004481,-0.5,0.0,1.0,326.0,703.0,1.0,0,161.0,1
533,533,-0.7132845181194681,-0.7,0.0,1.0,414.0,977.0,1.0,0,139.0,1
534,534,-0.20927797643123103,-0.2,0.0,1.0,359.0,519.0,1.0,0,392.0,1
535,535,0.7064942021962618,0.7,1.0,1.0,298.0,758.0,1.0,1,-136.0,1
536,536,-0.3483895055076336,-0.3,0.0,1.0,437.0,959.0,1.0,0,274.0,1
537,537,0.7357444044321094,0.7,0.0,0.0,262.0,586.0,0.0,1,512.0,1
538,538,0.8008144285456672,0.8,0.0,0.0,403.0,642.0,0.0,1,625.0,1
539,539,-0.30769817726287596,-0.3,0.0,1.0,254.0,614.0,1.0,0,402.0,1
540,540,0.8175468219956318,0.8,0.0,0.0,412.0,959.0,0.0,1,429.0,1
541,541,-0.5534129469349649,-0.6,0.0,1.0,498.0,672.0,1.0,0,70.0,1
542,542,-0.212656781364722,-0.2,0.0,1.0,276.0,693.0,1.0,0,2031.0,1
543,543,0.35994523212234253,0.4,0.0,0.0,487.0,576.0,0.0,1,1247.0,1
544,544,-0.32588793181607933,-0.3,1.0,0.0,398.0,666.0,0.0,0,806.0,1
545,545,-0.38433435293713036,-0.4,0.0,1.0,275.0,552.0,1.0,0,483.0,1
546,546,-0.018324184351466433,-0.0,1.0,0.0,267.0,695.0,0.0,0,618.0,1
547,547,0.45726794216431565,0.5,0.0,0.0,424.0,746.0,0.0,1,1830.0,1
548,548,0.6677939406857082,0.7,0.0,0.0,274.0,777.0,0.0,1,199.0,1
549,549,0.13802382068782648,0.1,0.0,0.0,267.0,523.0,1.0,0,2210.0,0
550,550,0.27789403643098554,0.3,0.0,0.0,361.0,700.0,0.0,1,429.0,1
551,551,0.45333906196518126,0.5,1.0,1.0,287.0,611.0,1.0,1,212.0,1
552,552,0.19180486090210602,0.2,0.0,0.0,278.0,810.0,0.0,1,1912.0,1
553,553,0.44223647358222784,0.4,1.0,1.0,472.0,772.0,1.0,1,36.0,1
554,554,-0.24689142232852068,-0.2,0.0,1.0,476.0,787.0,1.0,0,597.0,1
555,555,0.881368972871026,0.9,0.0,0.0,348.0,677.0,0.0,1,285.0,1
556,556,-0.44666502703352196,-0.4,0.0,1.0,376.0,825.0,1.0,0,299.0,1
557,557,0.6951220432259536,0.7,1.0,1.0,297.0,526.0,1.0,1,167.0,1
558,558,-0.03760863967342676,-0.0,1.0,0.0,269.0,946.0,1.0,1,1785.0,0
559,559,0.4490129594470905,0.4,1.0,1.0,442.0,603.0,1.0,1,185.0,1
560,560,0.00204376320616928,0.0,1.0,1.0,450.0,948.0,1.0,1,532.0,1
561,561,-0.8554675146117431,-0.9,1.0,0.0,332.0,608.0,0.0,0,270.0,1
562,562,0.33742040863156963,0.3,1.0,1.0,352.0,936.0,1.0,1,82.0,1
563,563,0.7454252165188083,0.7,1.0,1.0,373.0,706.0,1.0,1,141.0,1
564,564,0.13955532850302277,0.1,0.0,0.0,270.0,689.0,0.0,1,2041.0,1
565,565,-0.6672715470866803,-0.7,1.0,0.0,309.0,952.0,0.0,0,139.0,1
566,566,0.22085187898203407,0.2,0.0,0.0,400.0,549.0,0.0,1,1381.0,1
567,567,0.6804166890195954,0.7,0.0,0.0,392.0,583.0,0.0,1,145.0,1
568,568,-0.38043523063394546,-0.4,0.0,1.0,274.0,930.0,1.0,0,236.0,1
569,569,0.2481555106992751,0.2,1.0,1.0,408.0,818.0,1.0,1,354.0,1
570,570,0.37761600119970773,0.4,1.0,1.0,375.0,825.0,1.0,1,380.0,1
571,571,0.5782219211181251,0.6,0.0,0.0,366.0,877.0,0.0,1,1067.0,1
572,572,-0.4614765920075001,-0.5,1.0,0.0,271.0,870.0,0.0,0,509.0,1
573,573,-0.6764665078432641,-0.7,0.0,1.0,326.0,714.0,1.0,0,190.0,1
574,574,0.5625342801364449,0.6,0.0,0.0,419.0,605.0,0.0,1,586.0,1
575,575,0.2654763232377103,0.3,1.0,1.0,454.0,654.0,1.0,1,392.0,1
576,576,-0.02204300165317008,-0.0,0.0,1.0,348.0,672.0,1.0,0,1980.0,1
577,577,0.5749251900977551,0.6,1.0,1.0,421.0,711.0,1.0,1,328.0,1
578,578,0.8039846560767504,0.8,0.0,0.0,459.0,949.0,0.0,1,342.0,1
579,579,-0.6069566088354712,-0.6,0.0,1.0,460.0,667.0,1.0,0,153.0,1
580,580,-0.5577405766967424,-0.6,1.0,0.0,280.0,653.0,0.0,0,237.0,1
581,581,-0.22475989298901633,-0.2,0.0,1.0,401.0,649.0,1.0,0,710.0,1
582,582,-0.07753200597063636,-0.1,0.0,1.0,310.0,895.0,1.0,0,1795.0,1
583,583,0.19732279771464178,0.2,0.0,0.0,318.0,949.0,0.0,1,1083.0,1
584,584,-0.7818507149942584,-0.8,0.0,1.0,309.0,751.0,1.0,0,200.0,1
585,585,-0.6922139608634831,-0.7,0.0,1.0,351.0,828.0,1.0,0,31.0,1
586,586,0.42854738008752735,0.4,0.0,0.0,375.0,778.0,0.0,1,487.0,1
587,587,-0.010804875351861476,-0.0,1.0,0.0,416.0,955.0,1.0,1,1629.0,0
588,588,-0.36655810183078674,-0.4,1.0,0.0,362.0,502.0,0.0,0,436.0,1
589,589,0.5955974078562535,0.6,1.0,1.0,496.0,925.0,1.0,1,289.0,1
590,590,0.3830396248768396,0.4,0.0,0.0,278.0,800.0,0.0,1,602.0,1
591,591,-0.2517419341221514,-0.3,1.0,0.0,406.0,937.0,0.0,0,737.0,1
592,592,0.4102167648167384,0.4,1.0,1.0,252.0,959.0,0.0,0,-721.0,0
593,593,-0.46412582561130855,-0.5,0.0,1.0,442.0,644.0,1.0,0,14.0,1
594,594,-0.23427527338857657,-0.2,0.0,1.0,343.0,744.0,1.0,0,483.0,1
595,595,-0.02582778755861803,-0.0,0.0,1.0,476.0,845.0,1.0,0,1339.0,1
596,596,0.6101401417072506,0.6,1.0,1.0,471.0,907.0,1.0,1,-618.0,1
597,597,0.52893081389458,0.5,0.0,0.0,449.0,532.0,0.0,1,269.0,1
598,598,0.7173808479255704,0.7,0.0,0.0,380.0,798.0,0.0,1,242.0,1
599,599,-0.09608336704722753,-0.1,1.0,0.0,303.0,509.0,0.0,0,2188.0,1
600,600,0.6543135809763682,0.7,1.0,1.0,258.0,771.0,1.0,1,151.0,1
601,601,0.21883761689301207,0.2,1.0,1.0,369.0,601.0,1.0,1,210.0,1
602,602,0.18735273563655952,0.2,1.0,1.0,340.0,925.0,1.0,1,295.0,1
603,603,0.23291334893896332,0.2,0.0,0.0,299.0,875.0,0.0,1,1826.0,1
604,604,-0.4954649096797041,-0.5,0.0,1.0,427.0,862.0,1.0,0,211.0,1
605,605,-0.3852639798643166,-0.4,0.0,1.0,329.0,730.0,1.0,0,251.0,1
606,606,-0.3733671940001787,-0.4,1.0,0.0,421.0,755.0,0.0,0,654.0,1
607,607,0.6650512967853074,0.7,0.0,0.0,433.0,736.0,0.0,1,261.0,1
608,608,-0.7916579572660182,-0.8,0.0,1.0,388.0,889.0,1.0,0,93.0,1
609,609,-0.16202020063856748,-0.2,1.0,0.0,328.0,500.0,0.0,0,1282.0,1
610,610,0.7136580286105011,0.7,1.0,1.0,429.0,904.0,1.0,1,-43.0,1
611,611,-0.16470670620697314,-0.2,0.0,1.0,424.0,827.0,1.0,0,1279.0,1
612,612,0.42523757495606096,0.4,0.0,0.0,497.0,838.0,0.0,1,775.0,1
613,613,-0.7049987042931842,-0.7,0.0,1.0,474.0,999.0,1.0,0,87.0,1
614,614,0.6116152729048451,0.6,1.0,1.0,324.0,873.0,1.0,1,213.0,1
615,615,0.047304538774760374,0.0,0.0,0.0,432.0,851.0,1.0,0,1717.0,0
616,616,0.5212459881711943,0.5,1.0,1.0,477.0,699.0,1.0,1,264.0,1
617,617,0.6058811495880855,0.6,1.0,1.0,449.0,580.0,1.0,1,41.0,1
618,618,-0.13324209900323958,-0.1,0.0,1.0,451.0,868.0,1.0,0,821.0,1
619,619,0.1465472005658378,0.1,1.0,1.0,478.0,504.0,1.0,1,498.0,1
620,620,-0.5829761378082471,-0.6,0.0,1.0,369.0,810.0,1.0,0,291.0,1
621,621,-0.2602041120379529,-0.3,1.0,0.0,498.0,829.0,0.0,0,1103.0,1
622,622,-0.11583432010795802,-0.1,0.0,1.0,374.0,619.0,1.0,0,117.0,1
623,623,-0.34069759702262714,-0.3,0.0,1.0,486.0,915.0,1.0,0,109.0,1
624,624,0.5159501044829718,0.5,1.0,1.0,288.0,605.0,1.0,1,457.0,1
625,625,-0.4631406019920464,-0.5,1.0,0.0,496.0,610.0,0.0,0,484.0,1
626,626,0.34441159238159125,0.3,0.0,0.0,357.0,582.0,0.0,1,1011.0,1
627,627,-0.06521388647917381,-0.1,0.0,1.0,270.0,589.0,1.0,0,531.0,1
628,628,-0.8754775224518611,-0.9,1.0,0.0,474.0,951.0,0.0,0,185.0,1
629,629,-0.5631624476680968,-0.6,0.0,1.0,391.0,885.0,1.0,0,554.0,1
630,630,0.5796954925524572,0.6,1.0,1.0,473.0,857.0,1.0,1,230.0,1
631,631,-0.6752569196377978,-0.7,0.0,1.0,258.0,691.0,1.0,0,171.0,1
632,632,-0.07301538694321796,-0.1,1.0,0.0,474.0,569.0,1.0,1,1957.0,0
633,633,-0.32011320135632404,-0.3,1.0,0.0,329.0,796.0,0.0,0,165.0,1
634,634,-0.016747872224158744,-0.0,1.0,0.0,313.0,745.0,1.0,1,502.0,0
635,635,0.14542748273532446,0.1,1.0,1.0,331.0,814.0,1.0,1,475.0,1
636,636,0.11656565877751512,0.1,1.0,1.0,251.0,694.0,1.0,1,1345.0,1
637,637,0.3441175814647862,0.3,1.0,1.0,455.0,642.0,1.0,1,-127.0,1
638,638,0.8268109850215514,0.8,1.0,1.0,387.0,562.0,1.0,1,311.0,1
639,639,-0.1278281111047489,-0.1,1.0,0.0,379.0,891.0,1.0,1,890.0,0
640,640,-0.2892123301980325,-0.3,0.0,1.0,468.0,550.0,1.0,0,442.0,1
641,641,-0.40488547065290187,-0.4,0.0,1.0,354.0,910.0,1.0,0,216.0,1
642,642,0.3633821632977675,0.4,1.0,1.0,345.0,918.0,1.0,1,467.0,1
643,643,0.4194918457683302,0.4,0.0,0.0,346.0,934.0,0.0,1,1440.0,1
644,644,0.4577615664908449,0.5,0.0,0.0,306.0,718.0,0.0,1,1226.0,1
645,645,0.450444895516699,0.5,1.0,1.0,288.0,873.0,1.0,1,-41.0,1
646,646,-0.7534415345913699,-0.8,0.0,1.0,386.0,961.0,1.0,0,123.0,1
647,647,0.4444950810431457,0.4,1.0,1.0,468.0,878.0,1.0,1,764.0,1
648,648,-0.7786994909504944,-0.8,0.0,1.0,307.0,893.0,1.0,0,260.0,1
649,649,-0.11618822027161257,-0.1,0.0,1.0,316.0,569.0,1.0,0,275.0,1
650,650,0.8778946562586322,0.9,0.0,0.0,422.0,947.0,0.0,1,291.0,1
651,651,-0.25643243342748334,-0.3,1.0,0.0,490.0,721.0,0.0,0,389.0,1
652,652,0.17942736264007275,0.2,1.0,1.0,340.0,559.0,1.0,1,561.0,1
653,653,-0.16437081138028087,-0.2,1.0,0.0,455.0,616.0,0.0,0,1199.0,1
654,654,0.42991010460975343,0.4,1.0,1.0,263.0,988.0,1.0,1,399.0,1
655,655,-0.8817620165477165,-0.9,1.0,0.0,393.0,917.0,0.0,0,100.0,1
656,656,-0.3626617665193014,-0.4,0.0,1.0,309.0,939.0,1.0,0,312.0,1
657,657,0.2720104715030184,0.3,1.0,1.0,337.0,988.0,1.0,1,685.0,1
658,658,-0.8098477870536128,-0.8,1.0,0.0,494.0,736.0,1.0,1,-100.0,0
659,659,0.5523630696505407,0.6,1.0,1.0,388.0,565.0,1.0,1,407.0,1
660,660,0.6965978980404727,0.7,1.0,1.0,329.0,505.0,1.0,1,246.0,1
661,661,0.7142732194202196,0.7,1.0,1.0,268.0,900.0,1.0,1,-618.0,1
662,662,0.5024470262120325,0.5,1.0,1.0,258.0,623.0,1.0,1,649.0,1
663,663,-0.5782978013652027,-0.6,0.0,1.0,329.0,850.0,1.0,0,51.0,1
664,664,0.5186365140962751,0.5,1.0,1.0,440.0,674.0,1.0,1,416.0,1
665,665,-0.29219910758979584,-0.3,0.0,1.0,395.0,751.0,1.0,0,394.0,1
666,666,0.3741072716337407,0.4,0.0,0.0,420.0,940.0,0.0,1,1640.0,1
667,667,-0.3886142329482163,-0.4,0.0,1.0,264.0,548.0,1.0,0,388.0,1
668,668,-0.5400956147475924,-0.5,0.0,1.0,254.0,699.0,1.0,0,227.0,1
669,669,-0.4302467575336519,-0.4,1.0,0.0,485.0,792.0,0.0,0,313.0,1
670,670,-0.8577513464342046,-0.9,1.0,0.0,293.0,934.0,0.0,0,73.0,1
671,671,0.2616131797166502,0.3,1.0,1.0,356.0,865.0,1.0,1,-261.0,1
672,672,-0.7359363670913447,-0.7,0.0,1.0,498.0,966.0,1.0,0,156.0,1
673,673,-0.05488148953300798,-0.1,1.0,0.0,276.0,943.0,0.0,0,281.0,1
674,674,0.310995671460211,0.3,0.0,0.0,454.0,520.0,0.0,1,2026.0,1
675,675,0.14728016148424572,0.1,1.0,1.0,453.0,985.0,1.0,1,-548.0,1
676,676,0.7096713400378457,0.7,1.0,1.0,405.0,649.0,1.0,1,286.0,1
677,677,0.7523066938957578,0.8,0.0,0.0,467.0,788.0,1.0,0,-185.0,0
678,678,0.3740451645916193,0.4,1.0,1.0,385.0,698.0,1.0,1,427.0,1
679,679,0.6935397785821155,0.7,1.0,1.0,286.0,828.0,1.0,1,296.0,1
680,680,-0.3408593713182787,-0.3,0.0,1.0,253.0,849.0,1.0,0,488.0,1
681,681,-0.5910567684858962,-0.6,0.0,1.0,390.0,858.0,1.0,0,262.0,1
682,682,-0.6545384605252805,-0.7,0.0,1.0,360.0,772.0,1.0,0,138.0,1
683,683,0.3479869638605527,0.3,0.0,0.0,255.0,642.0,0.0,1,563.0,1
684,684,-0.4298976406795724,-0.4,0.0,1.0,385.0,814.0,1.0,0,81.0,1
685,685,0.7414619646752326,0.7,0.0,0.0,309.0,960.0,0.0,1,371.0,1
686,686,-0.6251479086082592,-0.6,1.0,0.0,357.0,893.0,0.0,0,210.0,1
687,687,0.4845932004151515,0.5,0.0,0.0,408.0,887.0,0.0,1,405.0,1
688,688,-0.5940226906654853,-0.6,1.0,0.0,255.0,597.0,0.0,0,218.0,1
689,689,0.8873009590659567,0.9,0.0,0.0,372.0,741.0,0.0,1,227.0,1
690,690,-0.25748613536897447,-0.3,0.0,1.0,364.0,537.0,1.0,0,1059.0,1
691,691,0.7269653169880731,0.7,0.0,0.0,435.0,806.0,0.0,1,629.0,1
692,692,-0.8359432312572402,-0.8,1.0,0.0,424.0,892.0,0.0,0,664.0,1
693,693,-0.24670808091721208,-0.2,1.0,0.0,299.0,542.0,0.0,0,1169.0,1
694,694,0.33148212768772345,0.3,0.0,0.0,394.0,553.0,0.0,1,813.0,1
695,695,-0.5245826779730507,-0.5,0.0,1.0,277.0,829.0,1.0,0,154.0,1
696,696,0.4915807215204534,0.5,1.0,1.0,311.0,977.0,1.0,1,252.0,1
697,697,0.6197898536626488,0.6,0.0,0.0,252.0,857.0,0.0,1,291.0,1
698,698,0.7078248206504186,0.7,0.0,0.0,289.0,529.0,0.0,1,942.0,1
699,699,-0.09386904715316502,-0.1,0.0,1.0,393.0,846.0,1.0,0,691.0,1
700,700,-0.5661283115469182,-0.6,0.0,1.0,352.0,671.0,1.0,0,227.0,1
701,701,-0.6746826474831482,-0.7,0.0,1.0,279.0,891.0,1.0,0,120.0,1
702,702,0.7245217005823584,0.7,1.0,1.0,469.0,859.0,1.0,1,492.0,1
703,703,-0.8631856971092767,-0.9,1.0,0.0,331.0,995.0,0.0,0,114.0,1
704,704,0.6797849136366455,0.7,1.0,1.0,272.0,693.0,1.0,1,75.0,1
705,705,-0.6602467228998047,-0.7,1.0,0.0,393.0,832.0,0.0,0,-85.0,1
706,706,0.8007046011703792,0.8,1.0,1.0,333.0,883.0,1.0,1,14.0,1
707,707,-0.22664059394956826,-0.2,0.0,1.0,485.0,923.0,1.0,0,1592.0,1
708,708,-0.5099346346936242,-0.5,0.0,1.0,433.0,714.0,1.0,0,263.0,1
709,709,-0.3275959562666283,-0.3,1.0,0.0,379.0,652.0,0.0,0,819.0,1
710,710,-0.6039706055400247,-0.6,0.0,1.0,250.0,862.0,1.0,0,-12.0,1
711,711,0.45126685912510756,0.5,1.0,1.0,494.0,770.0,1.0,1,726.0,1
712,712,-0.8498439278058832,-0.8,1.0,0.0,332.0,519.0,0.0,0,379.0,1
713,713,-0.12334804676350497,-0.1,0.0,1.0,356.0,988.0,1.0,0,636.0,1
714,714,0.08618475017304117,0.1,1.0,1.0,491.0,568.0,1.0,1,1941.0,1
715,715,-0.22162453929499992,-0.2,0.0,1.0,343.0,873.0,1.0,0,1204.0,1
716,716,0.26370413613125254,0.3,1.0,1.0,337.0,811.0,1.0,1,212.0,1
717,717,0.2514898470609005,0.3,1.0,1.0,312.0,664.0,1.0,1,684.0,1
718,718,0.495535176702924,0.5,0.0,0.0,314.0,678.0,0.0,1,2008.0,1
719,719,0.7633429119612823,0.8,0.0,0.0,421.0,692.0,0.0,1,337.0,1
720,720,-0.08877043024126918,-0.1,0.0,1.0,367.0,841.0,1.0,0,1792.0,1
721,721,0.5453536470453516,0.5,1.0,1.0,336.0,751.0,1.0,1,253.0,1
722,722,0.2641384416389917,0.3,1.0,1.0,402.0,818.0,1.0,1,460.0,1
723,723,-0.25290602440711074,-0.3,0.0,1.0,413.0,663.0,1.0,0,604.0,1
724,724,0.8043367407471552,0.8,0.0,0.0,465.0,540.0,0.0,1,1445.0,1
725,725,-0.78625675454566,-0.8,0.0,1.0,338.0,653.0,1.0,0,129.0,1
726,726,0.025732827576887773,0.0,1.0,1.0,344.0,853.0,1.0,1,1443.0,1
727,727,0.25239275044826737,0.3,0.0,0.0,344.0,671.0,0.0,1,895.0,1
728,728,-0.5475779610812941,-0.5,0.0,1.0,437.0,950.0,1.0,0,213.0,1
729,729,-0.5649751411597435,-0.6,1.0,0.0,372.0,687.0,0.0,0,151.0,1
730,730,-0.7622039759951145,-0.8,0.0,1.0,367.0,513.0,1.0,0,160.0,1
731,731,0.8517934855627266,0.9,1.0,1.0,378.0,557.0,1.0,1,45.0,1
732,732,0.8676186868373458,0.9,1.0,1.0,453.0,712.0,1.0,1,155.0,1
733,733,-0.6910639042044282,-0.7,1.0,0.0,316.0,822.0,0.0,0,372.0,1
734,734,0.15902221316212428,0.2,0.0,0.0,441.0,631.0,0.0,1,1088.0,1
735,735,-0.6052561673066472,-0.6,0.0,1.0,409.0,860.0,1.0,0,311.0,1
736,736,-0.5447626011868121,-0.5,0.0,1.0,375.0,857.0,1.0,0,158.0,1
737,737,-0.26089571959804425,-0.3,1.0,0.0,383.0,738.0,1.0,1,-291.0,0
738,738,0.24435235707908476,0.2,1.0,1.0,437.0,526.0,1.0,1,687.0,1
739,739,0.5170820264332662,0.5,1.0,1.0,446.0,902.0,1.0,1,282.0,1
740,740,0.8372046681830195,0.8,0.0,0.0,487.0,831.0,0.0,1,232.0,1
741,741,0.1424267606324402,0.1,1.0,1.0,283.0,704.0,1.0,1,453.0,1
742,742,-0.8421910722188575,-0.8,0.0,1.0,291.0,522.0,1.0,0,177.0,1
743,743,0.7168139657903837,0.7,1.0,1.0,394.0,581.0,1.0,1,195.0,1
744,744,-0.8533960335259972,-0.9,1.0,0.0,324.0,779.0,0.0,0,217.0,1
745,745,-0.5328845166071676,-0.5,0.0,1.0,277.0,553.0,1.0,0,230.0,1
746,746,-0.27692595266762565,-0.3,1.0,0.0,466.0,530.0,0.0,0,554.0,1
747,747,0.5896208344883348,0.6,0.0,0.0,347.0,915.0,0.0,1,768.0,1
748,748,-0.5546203882264038,-0.6,1.0,0.0,412.0,699.0,0.0,0,559.0,1
749,749,-0.11071791460664338,-0.1,0.0,1.0,356.0,723.0,1.0,0,1171.0,1
750,750,0.7030167138262601,0.7,0.0,0.0,396.0,893.0,0.0,1,381.0,1
751,751,0.4038250679215437,0.4,0.0,0.0,309.0,996.0,0.0,1,735.0,1
752,752,-0.024395103144441488,-0.0,1.0,0.0,450.0,567.0,1.0,1,503.0,0
753,753,0.061186517306151655,0.1,0.0,0.0,392.0,716.0,1.0,0,1892.0,0
754,754,0.0327952125715224,0.0,0.0,0.0,303.0,819.0,1.0,0,1878.0,0
755,755,0.5988864529621053,0.6,0.0,0.0,316.0,510.0,0.0,1,264.0,1
756,756,0.016914007200843573,0.0,0.0,0.0,317.0,959.0,1.0,0,884.0,0
757,757,-0.1412382820663931,-0.1,0.0,1.0,330.0,852.0,1.0,0,1118.0,1
758,758,-0.8413112260103535,-0.8,1.0,0.0,315.0,714.0,1.0,1,-149.0,0
759,759,0.8334012809795347,0.8,0.0,0.0,302.0,908.0,0.0,1,1220.0,1
760,760,-0.23213001014104817,-0.2,1.0,0.0,360.0,749.0,0.0,0,1441.0,1
761,761,-0.3429469252090097,-0.3,0.0,1.0,312.0,576.0,1.0,0,382.0,1
762,762,-0.5067857920701375,-0.5,0.0,1.0,461.0,813.0,1.0,0,156.0,1
763,763,-0.7126166859298375,-0.7,1.0,0.0,395.0,846.0,0.0,0,139.0,1
764,764,0.3703567868613723,0.4,1.0,1.0,286.0,855.0,1.0,1,569.0,1
765,765,-0.796777715628356,-0.8,0.0,1.0,379.0,813.0,1.0,0,198.0,1
766,766,-0.3480474225698281,-0.3,0.0,1.0,302.0,816.0,1.0,0,672.0,1
767,767,0.13841351796599788,0.1,0.0,0.0,407.0,996.0,0.0,1,1597.0,1
768,768,-0.7347947624533205,-0.7,1.0,0.0,438.0,828.0,0.0,0,364.0,1
769,769,0.8525723711150103,0.9,1.0,1.0,498.0,651.0,1.0,1,201.0,1
770,770,0.04243402792085049,0.0,1.0,1.0,489.0,658.0,1.0,1,1073.0,1
771,771,-0.3273132371506695,-0.3,0.0,1.0,332.0,627.0,1.0,0,421.0,1
772,772,0.8311529166677382,0.8,1.0,1.0,321.0,977.0,1.0,1,332.0,1
773,773,0.8467079082520764,0.8,1.0,1.0,493.0,524.0,1.0,1,-267.0,1
774,774,-0.6356132391956577,-0.6,0.0,1.0,394.0,750.0,1.0,0,196.0,1
775,775,-0.3804590400084257,-0.4,0.0,1.0,343.0,999.0,1.0,0,548.0,1
776,776,-0.2590627229942186,-0.3,0.0,1.0,399.0,577.0,1.0,0,254.0,1
777,777,0.4496630889732761,0.4,0.0,0.0,297.0,611.0,1.0,0,-258.0,0
778,778,0.18491388026901612,0.2,0.0,0.0,395.0,587.0,0.0,1,2018.0,1
779,779,-0.3111490233041174,-0.3,0.0,1.0,371.0,815.0,1.0,0,514.0,1
780,780,0.6915144275060267,0.7,1.0,1.0,260.0,519.0,1.0,1,251.0,1
781,781,0.8754471571991244,0.9,1.0,1.0,465.0,863.0,0.0,0,-268.0,0
782,782,0.45896659833459685,0.5,1.0,1.0,269.0,851.0,1.0,1,-490.0,1
783,783,0.3572106053669898,0.4,0.0,0.0,275.0,576.0,0.0,1,299.0,1
784,784,0.4150178255513478,0.4,0.0,0.0,280.0,596.0,0.0,1,1684.0,1
785,785,0.6722255506424591,0.7,0.0,0.0,394.0,859.0,0.0,1,457.0,1
786,786,-0.3518822385753424,-0.4,1.0,0.0,455.0,896.0,0.0,0,469.0,1
787,787,0.13984069206060468,0.1,1.0,1.0,328.0,995.0,1.0,1,1677.0,1
788,788,0.8350969094176436,0.8,1.0,1.0,472.0,897.0,1.0,1,91.0,1
789,789,-0.19045665554240188,-0.2,0.0,1.0,451.0,715.0,1.0,0,1664.0,1
790,790,-0.8594547896475483,-0.9,0.0,1.0,271.0,587.0,1.0,0,232.0,1
791,791,-0.0045661584057302695,-0.0,1.0,0.0,385.0,950.0,1.0,1,1665.0,0
792,792,0.7074405315476519,0.7,1.0,1.0,304.0,794.0,1.0,1,272.0,1
793,793,0.7650499983353148,0.8,0.0,0.0,333.0,762.0,0.0,1,355.0,1
794,794,0.7164680575150953,0.7,1.0,1.0,480.0,651.0,1.0,1,299.0,1
795,795,-0.48296624898128854,-0.5,1.0,0.0,388.0,791.0,0.0,0,461.0,1
796,796,-0.5607556022797422,-0.6,1.0,0.0,348.0,736.0,0.0,0,166.0,1
797,797,-0.5123675980021497,-0.5,0.0,1.0,298.0,742.0,1.0,0,250.0,1
798,798,-0.7488222915630169,-0.7,1.0,0.0,340.0,938.0,0.0,0,272.0,1
799,799,0.06534960145308721,0.1,0.0,0.0,261.0,571.0,1.0,0,178.0,0
800,800,0.2301989231735252,0.2,0.0,0.0,491.0,734.0,1.0,0,1775.0,0
801,801,0.4216323944133561,0.4,0.0,0.0,493.0,604.0,0.0,1,353.0,1
802,802,0.26419918578234103,0.3,0.0,0.0,476.0,728.0,0.0,1,1796.0,1
803,803,0.04493478678245344,0.0,1.0,1.0,250.0,512.0,1.0,1,178.0,1
804,804,-0.14778630130687465,-0.1,1.0,0.0,288.0,707.0,0.0,0,2005.0,1
805,805,-0.5380255729211454,-0.5,1.0,0.0,470.0,915.0,0.0,0,765.0,1
806,806,-0.3667808444405982,-0.4,0.0,1.0,273.0,992.0,1.0,0,215.0,1
807,807,0.12084985369652002,0.1,0.0,0.0,384.0,992.0,0.0,1,1624.0,1
808,808,0.45064299818672937,0.5,0.0,0.0,414.0,603.0,0.0,1,243.0,1
809,809,0.4758374813549061,0.5,1.0,1.0,480.0,975.0,1.0,1,265.0,1
810,810,-0.7266420448116292,-0.7,0.0,1.0,294.0,529.0,1.0,0,147.0,1
811,811,0.23468096155702434,0.2,1.0,1.0,383.0,575.0,1.0,1,372.0,1
812,812,-0.6987425301509145,-0.7,1.0,0.0,349.0,901.0,0.0,0,350.0,1
813,813,0.8157660175841438,0.8,0.0,0.0,429.0,597.0,0.0,1,834.0,1
814,814,-0.29729075718419395,-0.3,1.0,0.0,427.0,528.0,0.0,0,1095.0,1
815,815,-0.6064314281741379,-0.6,0.0,1.0,374.0,562.0,1.0,0,254.0,1
816,816,0.8211277216395562,0.8,1.0,1.0,376.0,768.0,1.0,1,56.0,1
817,817,0.5156474065834541,0.5,0.0,0.0,276.0,931.0,0.0,1,903.0,1
818,818,0.5616497683281273,0.6,0.0,0.0,260.0,996.0,1.0,0,-486.0,0
819,819,0.8002410873412861,0.8,1.0,1.0,334.0,627.0,1.0,1,149.0,1
820,820,0.17767146231614606,0.2,0.0,0.0,366.0,915.0,0.0,1,1719.0,1
821,821,-0.4099236164495738,-0.4,1.0,0.0,338.0,520.0,0.0,0,162.0,1
822,822,-0.06859032942453758,-0.1,1.0,0.0,275.0,846.0,0.0,0,1879.0,1
823,823,0.2119892811316425,0.2,0.0,0.0,256.0,558.0,0.0,1,436.0,1
824,824,0.6134280983056696,0.6,1.0,1.0,464.0,995.0,1.0,1,51.0,1
825,825,0.25217412626566393,0.3,1.0,1.0,416.0,723.0,1.0,1,1701.0,1
826,826,-0.1145222159795023,-0.1,1.0,0.0,461.0,608.0,1.0,1,1931.0,0
827,827,0.025728448026931194,0.0,1.0,1.0,422.0,738.0,0.0,0,1840.0,0
828,828,-0.8742054652566041,-0.9,0.0,1.0,251.0,646.0,1.0,0,-117.0,1
829,829,-0.7053311095644208,-0.7,1.0,0.0,486.0,720.0,0.0,0,254.0,1
830,830,-0.1961204075559726,-0.2,0.0,1.0,258.0,771.0,1.0,0,701.0,1
831,831,-0.2772710745332967,-0.3,0.0,1.0,396.0,668.0,1.0,0,406.0,1
832,832,0.5107107580067155,0.5,1.0,1.0,381.0,623.0,1.0,1,596.0,1
833,833,-0.7761549139895078,-0.8,0.0,1.0,350.0,989.0,1.0,0,-79.0,1
834,834,-0.8812980186166073,-0.9,0.0,1.0,484.0,912.0,1.0,0,-546.0,1
835,835,-0.7911865153192247,-0.8,1.0,0.0,443.0,936.0,0.0,0,311.0,1
836,836,-0.29118430796251105,-0.3,1.0,0.0,350.0,992.0,0.0,0,858.0,1
837,837,0.4193237502345345,0.4,1.0,1.0,460.0,670.0,1.0,1,670.0,1
838,838,0.8731437187937702,0.9,0.0,0.0,360.0,537.0,0.0,1,123.0,1
839,839,0.18111262093530633,0.2,0.0,0.0,498.0,652.0,0.0,1,1850.0,1
840,840,0.7944475313590312,0.8,0.0,0.0,445.0,750.0,0.0,1,265.0,1
841,841,-0.20104790861033695,-0.2,1.0,0.0,275.0,773.0,0.0,0,1172.0,1
842,842,0.5178575508408548,0.5,0.0,0.0,490.0,649.0,0.0,1,1481.0,1
843,843,-0.43084139922989234,-0.4,1.0,0.0,302.0,881.0,0.0,0,307.0,1
844,844,-0.8909151305530678,-0.9,0.0,1.0,470.0,741.0,1.0,0,279.0,1
845,845,0.7410187819381121,0.7,0.0,0.0,328.0,630.0,0.0,1,192.0,1
846,846,-0.33764581558052964,-0.3,1.0,0.0,428.0,757.0,0.0,0,465.0,1
847,847,-0.17993442931912895,-0.2,1.0,0.0,469.0,625.0,0.0,0,416.0,1
848,848,-0.7416685257316693,-0.7,1.0,0.0,370.0,743.0,0.0,0,167.0,1
849,849,0.8477454927010543,0.8,1.0,1.0,443.0,947.0,1.0,1,160.0,1
850,850,0.2645830355715043,0.3,0.0,0.0,402.0,669.0,0.0,1,1929.0,1
851,851,-0.28476698351940133,-0.3,1.0,0.0,379.0,993.0,0.0,0,-102.0,1
852,852,-0.05942361786818939,-0.1,1.0,0.0,456.0,989.0,0.0,0,1555.0,1
853,853,0.8048412506814063,0.8,1.0,1.0,493.0,625.0,1.0,1,322.0,1
854,854,-0.33630344508749166,-0.3,0.0,1.0,259.0,839.0,1.0,0,362.0,1
855,855,0.5012807809899053,0.5,0.0,0.0,250.0,798.0,0.0,1,662.0,1
856,856,0.532778984618315,0.5,1.0,1.0,317.0,936.0,1.0,1,477.0,1
857,857,-0.6899177514846622,-0.7,1.0,0.0,301.0,517.0,0.0,0,452.0,1
858,858,-0.35483767357441676,-0.4,1.0,0.0,279.0,774.0,0.0,0,447.0,1
859,859,0.5880898451786715,0.6,0.0,0.0,416.0,922.0,0.0,1,372.0,1
860,860,0.28909446977701936,0.3,0.0,0.0,285.0,669.0,0.0,1,1666.0,1
861,861,-0.14929677486184978,-0.1,1.0,0.0,433.0,721.0,0.0,0,-144.0,1
862,862,0.6559929655053695,0.7,1.0,1.0,272.0,802.0,1.0,1,56.0,1
863,863,-0.7526416113688057,-0.8,1.0,0.0,466.0,806.0,1.0,1,-302.0,0
864,864,0.48497864500710997,0.5,0.0,0.0,402.0,660.0,0.0,1,768.0,1
865,865,-0.5645901286108587,-0.6,1.0,0.0,259.0,574.0,0.0,0,427.0,1
866,866,-0.4856744698695666,-0.5,0.0,1.0,361.0,899.0,1.0,0,450.0,1
867,867,0.25840627624980017,0.3,0.0,0.0,303.0,641.0,0.0,1,616.0,1
868,868,-0.06680096074325736,-0.1,1.0,0.0,342.0,999.0,0.0,0,-281.0,1
869,869,-0.8578825206724124,-0.9,1.0,0.0,260.0,537.0,0.0,0,113.0,1
870,870,-0.7618661570968097,-0.8,1.0,0.0,458.0,639.0,0.0,0,183.0,1
871,871,-0.17272398283674462,-0.2,0.0,1.0,313.0,886.0,1.0,0,431.0,1
872,872,-0.5940464064622725,-0.6,1.0,0.0,470.0,814.0,0.0,0,336.0,1
873,873,-0.6859833027197805,-0.7,1.0,0.0,367.0,807.0,0.0,0,136.0,1
874,874,-0.714403667953355,-0.7,1.0,0.0,282.0,916.0,0.0,0,142.0,1
875,875,-0.11590356775698019,-0.1,1.0,0.0,363.0,657.0,0.0,0,710.0,1
876,876,-0.008783459138386296,-0.0,0.0,1.0,373.0,712.0,1.0,0,1915.0,1
877,877,0.4876496973728651,0.5,0.0,0.0,299.0,876.0,0.0,1,575.0,1
878,878,0.8178965571222859,0.8,1.0,1.0,396.0,744.0,1.0,1,160.0,1
879,879,-0.7935888240958877,-0.8,1.0,0.0,493.0,635.0,0.0,0,272.0,1
880,880,-0.7948858532820808,-0.8,1.0,0.0,434.0,945.0,0.0,0,261.0,1
881,881,0.13781697720357855,0.1,0.0,0.0,410.0,541.0,0.0,1,949.0,1
882,882,0.7932237786231625,0.8,0.0,0.0,466.0,695.0,0.0,1,409.0,1
883,883,0.6559763435749301,0.7,1.0,1.0,434.0,775.0,1.0,1,231.0,1
884,884,-0.028186552060813885,-0.0,1.0,0.0,290.0,825.0,1.0,1,-15.0,0
885,885,-0.11078556088975178,-0.1,1.0,0.0,354.0,604.0,0.0,0,812.0,1
886,886,-0.006740599578820339,-0.0,0.0,1.0,326.0,889.0,1.0,0,-405.0,1
887,887,-0.8383301827055082,-0.8,1.0,0.0,308.0,500.0,0.0,0,82.0,1
888,888,0.5329230048627241,0.5,0.0,0.0,333.0,743.0,0.0,1,604.0,1
889,889,-0.3923111123499061,-0.4,1.0,0.0,394.0,707.0,0.0,0,339.0,1
890,890,-0.6129503754647547,-0.6,1.0,0.0,296.0,663.0,0.0,0,461.0,1
891,891,0.30529301870170833,0.3,1.0,1.0,314.0,680.0,1.0,1,276.0,1
892,892,-0.055048217399406796,-0.1,0.0,1.0,332.0,886.0,1.0,0,1552.0,1
893,893,0.17046741774049157,0.2,0.0,0.0,356.0,685.0,0.0,1,1959.0,1
894,894,0.2046754523496933,0.2,1.0,1.0,474.0,663.0,1.0,1,113.0,1
895,895,0.4729642069782932,0.5,1.0,1.0,258.0,838.0,1.0,1,474.0,1
896,896,0.8958297519786155,0.9,1.0,1.0,420.0,994.0,1.0,1,166.0,1
897,897,-0.5595112543580263,-0.6,0.0,1.0,256.0,949.0,1.0,0,365.0,1
898,898,-0.4524157763992915,-0.5,0.0,1.0,314.0,972.0,1.0,0,284.0,1
899,899,-0.8983866921281958,-0.9,1.0,0.0,257.0,928.0,0.0,0,205.0,1
900,900,0.810969850138542,0.8,1.0,1.0,254.0,728.0,1.0,1,128.0,1
901,901,-0.19197957860851345,-0.2,1.0,0.0,285.0,742.0,0.0,0,1363.0,1
902,902,0.04709465605214158,0.0,1.0,1.0,363.0,953.0,1.0,1,1184.0,1
903,903,-0.10402021284699325,-0.1,1.0,0.0,352.0,654.0,1.0,1,1054.0,0
904,904,-0.6876389823517852,-0.7,1.0,0.0,406.0,689.0,0.0,0,225.0,1
905,905,-0.6369197679852578,-0.6,0.0,1.0,496.0,867.0,1.0,0,317.0,1
906,906,-0.748832977185769,-0.7,0.0,1.0,414.0,765.0,1.0,0,-499.0,1
907,907,0.8716219238198207,0.9,0.0,0.0,337.0,752.0,0.0,1,481.0,1
908,908,-0.10895052863156329,-0.1,1.0,0.0,426.0,805.0,0.0,0,1769.0,1
909,909,0.04516788643801173,0.0,1.0,1.0,429.0,614.0,1.0,1,667.0,1
910,910,0.21050989425161715,0.2,0.0,0.0,392.0,779.0,0.0,1,1829.0,1
911,911,0.12656461192398993,0.1,0.0,0.0,414.0,999.0,0.0,1,1587.0,1
912,912,-0.10199713975888236,-0.1,1.0,0.0,296.0,789.0,0.0,0,825.0,1
913,913,-0.23500642962157547,-0.2,0.0,1.0,317.0,511.0,1.0,0,992.0,1
914,914,0.21998659185424552,0.2,0.0,0.0,421.0,587.0,0.0,1,1992.0,1
915,915,0.15155061981156936,0.2,0.0,0.0,310.0,826.0,0.0,1,1864.0,1
916,916,-0.028309550053445043,-0.0,1.0,0.0,285.0,680.0,1.0,1,-225.0,0
917,917,0.4332492457735774,0.4,0.0,0.0,361.0,677.0,0.0,1,802.0,1
918,918,-0.09476565262492842,-0.1,0.0,1.0,461.0,753.0,1.0,0,736.0,1
919,919,0.16186991361664183,0.2,0.0,0.0,442.0,696.0,0.0,1,1862.0,1
920,920,0.25497943119652755,0.3,0.0,0.0,493.0,734.0,1.0,0,1773.0,0
921,921,0.2993650872230992,0.3,1.0,1.0,414.0,566.0,1.0,1,290.0,1
922,922,0.251142008308911,0.3,1.0,1.0,312.0,608.0,1.0,1,80.0,1
923,923,0.4273485541530534,0.4,1.0,1.0,323.0,904.0,1.0,1,73.0,1
924,924,0.48251955236706456,0.5,0.0,0.0,443.0,620.0,0.0,1,1677.0,1
925,925,0.009651372483534648,0.0,0.0,0.0,296.0,981.0,1.0,0,1723.0,0
926,926,-0.585680063605085,-0.6,1.0,0.0,347.0,835.0,0.0,0,358.0,1
927,927,0.18329776062414938,0.2,0.0,0.0,272.0,558.0,0.0,1,2170.0,1
928,928,0.24162915273424856,0.2,1.0,1.0,326.0,799.0,1.0,1,255.0,1
929,929,-0.5903377466528315,-0.6,1.0,0.0,327.0,865.0,1.0,1,-572.0,0
930,930,0.011713100744837446,0.0,1.0,1.0,455.0,553.0,0.0,0,1992.0,0
931,931,0.8824563892411178,0.9,0.0,0.0,465.0,646.0,0.0,1,369.0,1
932,932,0.013398916673305505,0.0,1.0,1.0,296.0,975.0,0.0,0,-1.0,0
933,933,-0.49811370764526725,-0.5,0.0,1.0,393.0,791.0,1.0,0,456.0,1
934,934,-0.8435154772298438,-0.8,0.0,1.0,463.0,968.0,1.0,0,129.0,1
935,935,0.3278995065186322,0.3,1.0,1.0,324.0,807.0,1.0,1,309.0,1
936,936,-0.26070427138364705,-0.3,1.0,0.0,456.0,621.0,0.0,0,1553.0,1
937,937,-0.1508962067150177,-0.2,0.0,1.0,350.0,522.0,1.0,0,1098.0,1
938,938,-0.7794651853589917,-0.8,1.0,0.0,394.0,984.0,0.0,0,272.0,1
939,939,-0.24879855483781577,-0.2,0.0,1.0,458.0,653.0,1.0,0,1319.0,1
940,940,0.784562450851119,0.8,0.0,0.0,282.0,520.0,0.0,1,908.0,1
941,941,0.27391029490356333,0.3,0.0,0.0,481.0,575.0,0.0,1,1834.0,1
942,942,0.636549932823761,0.6,0.0,0.0,288.0,639.0,0.0,1,803.0,1
943,943,-0.061067688986141344,-0.1,0.0,1.0,258.0,524.0,1.0,0,2218.0,1
944,944,0.14792687190766352,0.1,1.0,1.0,345.0,826.0,1.0,1,-231.0,1
945,945,0.04969489169564678,0.0,1.0,1.0,272.0,508.0,0.0,0,2220.0,0
946,946,0.5152011964593911,0.5,0.0,0.0,324.0,704.0,0.0,1,762.0,1
947,947,-0.3934831833340664,-0.4,1.0,0.0,411.0,555.0,1.0,1,-386.0,0
948,948,-0.6515810899964266,-0.7,0.0,1.0,427.0,681.0,1.0,0,92.0,1
949,949,0.7629348455592387,0.8,0.0,0.0,457.0,981.0,1.0,0,-688.0,0
950,950,0.8764340637312816,0.9,1.0,1.0,291.0,529.0,1.0,1,220.0,1
951,951,-0.03989574981225241,-0.0,0.0,1.0,321.0,990.0,1.0,0,1429.0,1
952,952,-0.8345685592319207,-0.8,0.0,1.0,281.0,750.0,1.0,0,229.0,1
953,953,-0.33814285389197196,-0.3,1.0,0.0,444.0,969.0,1.0,1,67.0,0
954,954,0.6969667621331365,0.7,0.0,0.0,366.0,765.0,0.0,1,149.0,1
955,955,-0.6154480149049975,-0.6,1.0,0.0,333.0,529.0,0.0,0,188.0,1
956,956,-0.7570976248271595,-0.8,1.0,0.0,284.0,839.0,0.0,0,147.0,1
957,957,-0.1260638193760405,-0.1,0.0,1.0,316.0,612.0,1.0,0,872.0,1
958,958,-0.8520351125054779,-0.9,1.0,0.0,481.0,853.0,0.0,0,216.0,1
959,959,-0.8999146532675839,-0.9,0.0,1.0,354.0,744.0,1.0,0,202.0,1
960,960,0.20880262040120645,0.2,0.0,0.0,260.0,583.0,0.0,1,2157.0,1
961,961,0.2720883840249183,0.3,0.0,0.0,328.0,853.0,0.0,1,1379.0,1
962,962,0.490842957001702,0.5,0.0,0.0,442.0,538.0,0.0,1,90.0,1
963,963,0.489482205116328,0.5,1.0,1.0,327.0,865.0,1.0,1,358.0,1
964,964,0.09535381287905142,0.1,0.0,0.0,289.0,807.0,0.0,1,204.0,1
965,965,-0.2046566364536606,-0.2,1.0,0.0,258.0,605.0,0.0,0,2137.0,1
966,966,-0.136032318688859,-0.1,0.0,1.0,346.0,553.0,1.0,0,1531.0,1
967,967,0.43323120129699666,0.4,1.0,1.0,385.0,675.0,1.0,1,280.0,1
968,968,-0.1644770113449684,-0.2,0.0,1.0,455.0,850.0,1.0,0,1045.0,1
969,969,0.5917415605591031,0.6,0.0,0.0,481.0,842.0,0.0,1,337.0,1
970,970,0.5762425378059065,0.6,0.0,0.0,484.0,733.0,0.0,1,233.0,1
971,971,-0.4516833037842456,-0.5,1.0,0.0,348.0,572.0,0.0,0,760.0,1
972,972,0.24186423113226174,0.2,0.0,0.0,498.0,864.0,0.0,1,1638.0,1
973,973,0.49942610838311097,0.5,1.0,1.0,471.0,770.0,1.0,1,369.0,1
974,974,0.1481120595174975,0.1,0.0,0.0,453.0,733.0,0.0,1,1004.0,1
975,975,-0.3980191939185298,-0.4,0.0,1.0,399.0,930.0,1.0,0,291.0,1
976,976,-0.5146884879611342,-0.5,1.0,0.0,365.0,644.0,0.0,0,351.0,1
977,977,-0.48909458124187716,-0.5,0.0,1.0,461.0,774.0,1.0,0,95.0,1
978,978,-0.47381709097743796,-0.5,0.0,1.0,434.0,701.0,1.0,0,505.0,1
979,979,-0.5068856535658584,-0.5,0.0,1.0,398.0,568.0,1.0,0,334.0,1
980,980,-0.39788879756598183,-0.4,0.0,1.0,394.0,966.0,1.0,0,220.0,1
981,981,-0.4673206422583293,-0.5,1.0,0.0,341.0,848.0,0.0,0,791.0,1
982,982,-0.6582166732445411,-0.7,0.0,1.0,404.0,917.0,1.0,0,49.0,1
983,983,-0.6969743839585956,-0.7,1.0,0.0,270.0,913.0,0.0,0,477.0,1
984,984,0.5345153072107899,0.5,1.0,1.0,253.0,567.0,1.0,1,240.0,1
985,985,0.871977873671761,0.9,1.0,1.0,356.0,938.0,1.0,1,196.0,1
986,986,-0.4022059869958581,-0.4,0.0,1.0,415.0,780.0,1.0,0,465.0,1
987,987,-0.310133133731074,-0.3,1.0,0.0,416.0,547.0,0.0,0,577.0,1
988,988,0.5112013580266831,0.5,0.0,0.0,405.0,524.0,0.0,1,2071.0,1
989,989,0.704090048976686,0.7,1.0,1.0,448.0,598.0,1.0,1,274.0,1
990,990,-0.22483957347990113,-0.2,0.0,1.0,408.0,922.0,1.0,0,950.0,1
991,991,-0.2873603540325138,-0.3,1.0,0.0,365.0,677.0,0.0,0,1458.0,1
992,992,0.2525431838371114,0.3,1.0,1.0,284.0,962.0,1.0,1,274.0,1
993,993,0.5977135741375749,0.6,1.0,1.0,267.0,508.0,1.0,1,275.0,1
994,994,-0.6908097811722947,-0.7,0.0,1.0,260.0,861.0,1.0,0,279.0,1
995,995,0.8465976535985636,0.8,1.0,1.0,399.0,703.0,1.0,1,168.0,1
996,996,0.8556170578867849,0.9,1.0,1.0,487.0,577.0,1.0,1,136.0,1
997,997,0.7560191487477096,0.8,0.0,0.0,490.0,536.0,0.0,1,364.0,1
998,998,-0.4262204582668963,-0.4,0.0,1.0,364.0,980.0,1.0,0,186.0,1
999,999,-0.7751881672922076,-0.8,0.0,1.0,488.0,741.0,1.0,0,131.0,1
1000,1000,0.3591225859057364,0.4,0.0,0.0,389.0,884.0,0.0,1,1727.0,1
1001,1001,0.7492803544481262,0.7,1.0,1.0,489.0,513.0,1.0,1,248.0,1
1002,1002,-0.2973018309279255,-0.3,1.0,0.0,470.0,571.0,0.0,0,409.0,1
1003,1003,0.14117711922967324,0.1,0.0,0.0,306.0,506.0,1.0,0,2188.0,0
1004,1004,0.21569867617626104,0.2,0.0,0.0,409.0,545.0,0.0,1,2046.0,1
1005,1005,-0.6174303331598376,-0.6,0.0,1.0,313.0,761.0,1.0,0,296.0,1
1006,1006,-0.4589769060318796,-0.5,1.0,0.0,425.0,515.0,0.0,0,740.0,1
1007,1007,-0.20850841789092456,-0.2,0.0,1.0,488.0,982.0,1.0,0,370.0,1
1008,1008,-0.46442655432959484,-0.5,0.0,1.0,489.0,792.0,1.0,0,369.0,1
1009,1009,0.5780392529807697,0.6,1.0,1.0,372.0,756.0,1.0,1,142.0,1
1010,1010,-0.549617018698382,-0.5,1.0,0.0,376.0,539.0,0.0,0,255.0,1
1011,1011,0.44123652285247206,0.4,1.0,1.0,305.0,760.0,1.0,1,-575.0,1
1012,1012,0.1073221590668777,0.1,1.0,1.0,250.0,748.0,1.0,1,812.0,1
1013,1013,-0.5084927088363651,-0.5,0.0,1.0,362.0,758.0,1.0,0,410.0,1
1014,1014,0.4570841036776142,0.5,0.0,0.0,390.0,808.0,0.0,1,1732.0,1
1015,1015,0.6352265621556467,0.6,1.0,1.0,255.0,505.0,1.0,1,370.0,1
1016,1016,-0.10634942642174694,-0.1,0.0,1.0,483.0,604.0,1.0,0,1913.0,1
1017,1017,-0.8245161930207161,-0.8,1.0,0.0,380.0,879.0,0.0,0,141.0,1
1018,1018,-0.6769979578082033,-0.7,0.0,1.0,268.0,573.0,1.0,0,229.0,1
1019,1019,-0.3818213842882129,-0.4,0.0,1.0,418.0,699.0,1.0,0,273.0,1
1020,1020,0.2753999619630868,0.3,1.0,1.0,278.0,543.0,1.0,1,289.0,1
1021,1021,0.23936247455573934,0.2,0.0,0.0,391.0,602.0,0.0,1,2007.0,1
1022,1022,0.26228555644193763,0.3,1.0,1.0,405.0,691.0,1.0,1,-46.0,1
1023,1023,-0.0993282167046291,-0.1,1.0,0.0,294.0,749.0,1.0,1,-553.0,0
1024,1024,0.46120058603586267,0.5,0.0,0.0,299.0,545.0,0.0,1,116.0,1
1025,1025,0.18151687632072588,0.2,1.0,1.0,440.0,782.0,1.0,1,238.0,1
1026,1026,0.07638316462074923,0.1,1.0,1.0,382.0,747.0,1.0,1,701.0,1
1027,1027,0.5901562941899722,0.6,1.0,1.0,449.0,909.0,1.0,1,382.0,1
1028,1028,-0.12821772120895025,-0.1,1.0,0.0,252.0,646.0,0.0,0,152.0,1
1029,1029,-0.6506825229743238,-0.7,1.0,0.0,271.0,721.0,0.0,0,328.0,1
1030,1030,0.7671850634271037,0.8,0.0,0.0,320.0,501.0,0.0,1,629.0,1
1031,1031,0.8853357056219441,0.9,0.0,0.0,297.0,670.0,0.0,1,303.0,1
1032,1032,-0.8383199667258288,-0.8,0.0,1.0,285.0,801.0,1.0,0,154.0,1
1033,1033,0.2871256705952986,0.3,0.0,0.0,398.0,524.0,0.0,1,2078.0,1
1034,1034,-0.8091416183765625,-0.8,1.0,0.0,365.0,690.0,0.0,0,145.0,1
1035,1035,-0.7911037590278365,-0.8,0.0,1.0,424.0,621.0,1.0,0,175.0,1
1036,1036,-0.03575656891187007,-0.0,1.0,0.0,306.0,722.0,0.0,0,1972.0,1
1037,1037,0.770773105409119,0.8,0.0,0.0,300.0,824.0,0.0,1,206.0,1
1038,1038,0.2099080645917174,0.2,1.0,1.0,332.0,750.0,1.0,1,828.0,1
1039,1039,-0.7063053136896209,-0.7,0.0,1.0,290.0,710.0,1.0,0,180.0,1
1040,1040,-0.4507561609780077,-0.5,1.0,0.0,274.0,927.0,0.0,0,399.0,1
1041,1041,-0.6470402392877228,-0.6,0.0,1.0,463.0,814.0,1.0,0,-57.0,1
1042,1042,-0.5310393510196112,-0.5,1.0,0.0,367.0,973.0,0.0,0,80.0,1
1043,1043,-0.5718659626920799,-0.6,1.0,0.0,407.0,761.0,0.0,0,402.0,1
1044,1044,0.6976546691646047,0.7,0.0,0.0,252.0,763.0,0.0,1,185.0,1
1045,1045,0.5178775179728566,0.5,0.0,0.0,394.0,841.0,0.0,1,1585.0,1
1046,1046,-0.5774332864571947,-0.6,1.0,0.0,271.0,904.0,0.0,0,395.0,1
1047,1047,-0.5210016716003085,-0.5,1.0,0.0,263.0,751.0,0.0,0,246.0,1
1048,1048,-0.8182225144946376,-0.8,1.0,0.0,381.0,789.0,0.0,0,240.0,1
1049,1049,-0.3347494568148711,-0.3,0.0,1.0,274.0,877.0,1.0,0,59.0,1
1050,1050,-0.3757255354903185,-0.4,0.0,1.0,456.0,969.0,1.0,0,175.0,1
1051,1051,0.6397416812231013,0.6,1.0,1.0,383.0,524.0,1.0,1,133.0,1
1052,1052,0.655851173472687,0.7,0.0,0.0,458.0,502.0,0.0,1,410.0,1
1053,1053,-0.5592668939523633,-0.6,0.0,1.0,387.0,853.0,1.0,0,300.0,1
1054,1054,0.6923489920182165,0.7,0.0,0.0,445.0,860.0,0.0,1,1125.0,1
1055,1055,0.7267694115185549,0.7,0.0,0.0,447.0,538.0,0.0,1,425.0,1
1056,1056,0.7798920827924037,0.8,0.0,0.0,477.0,894.0,1.0,0,-381.0,0
1057,1057,0.30826276654530205,0.3,0.0,0.0,344.0,693.0,0.0,1,763.0,1
1058,1058,0.839214586280204,0.8,0.0,0.0,306.0,989.0,0.0,1,205.0,1
1059,1059,0.1307532559010377,0.1,0.0,0.0,262.0,875.0,0.0,1,1863.0,1
1060,1060,-0.06457982676423346,-0.1,0.0,1.0,389.0,744.0,1.0,0,1867.0,1
1061,1061,0.6463058685401456,0.6,1.0,1.0,271.0,671.0,1.0,1,318.0,1
1062,1062,0.11170361859449318,0.1,1.0,1.0,407.0,647.0,1.0,1,816.0,1
1063,1063,0.5336842796671922,0.5,1.0,1.0,489.0,928.0,1.0,1,73.0,1
1064,1064,-0.6417545326661547,-0.6,0.0,1.0,295.0,936.0,1.0,0,129.0,1
1065,1065,0.8569770648403955,0.9,1.0,1.0,348.0,661.0,1.0,1,101.0,1
1066,1066,0.6777883057681199,0.7,1.0,1.0,267.0,858.0,1.0,1,135.0,1
1067,1067,0.056746131480611806,0.1,0.0,0.0,468.0,696.0,0.0,1,1836.0,1
1068,1068,0.5195551499307437,0.5,1.0,1.0,315.0,917.0,1.0,1,178.0,1
1069,1069,0.5302507508917654,0.5,0.0,0.0,279.0,972.0,0.0,1,309.0,1
1070,1070,-0.1281276856165522,-0.1,0.0,1.0,291.0,848.0,1.0,0,1211.0,1
1071,1071,0.12565904257731642,0.1,0.0,0.0,287.0,898.0,0.0,1,1815.0,1
1072,1072,0.8760355059339905,0.9,0.0,0.0,363.0,941.0,1.0,0,-4.0,0
1073,1073,0.5273334361312266,0.5,1.0,1.0,339.0,796.0,0.0,0,-275.0,0
1074,1074,-0.22339618191048916,-0.2,1.0,0.0,445.0,583.0,0.0,0,1092.0,1
1075,1075,0.8252809427662856,0.8,1.0,1.0,275.0,972.0,1.0,1,253.0,1
1076,1076,-0.7444355384607009,-0.7,1.0,0.0,307.0,534.0,0.0,0,259.0,1
1077,1077,-0.11632221916076979,-0.1,0.0,1.0,454.0,679.0,1.0,0,647.0,1
1078,1078,-0.36551227467606495,-0.4,0.0,1.0,377.0,694.0,1.0,0,469.0,1
1079,1079,0.586212733469699,0.6,0.0,0.0,497.0,752.0,1.0,0,-219.0,0
1080,1080,0.6324100761653831,0.6,1.0,1.0,331.0,562.0,1.0,1,547.0,1
1081,1081,-0.6559622585055663,-0.7,0.0,1.0,267.0,542.0,1.0,0,201.0,1
1082,1082,-0.6778160573913843,-0.7,0.0,1.0,253.0,847.0,1.0,0,160.0,1
1083,1083,-0.2201798647460096,-0.2,1.0,0.0,382.0,801.0,0.0,0,227.0,1
1084,1084,-0.5743300044513424,-0.6,0.0,1.0,377.0,924.0,1.0,0,319.0,1
1085,1085,0.8006444726482601,0.8,0.0,0.0,490.0,662.0,0.0,1,348.0,1
1086,1086,-0.18532109451964296,-0.2,0.0,1.0,303.0,898.0,1.0,0,759.0,1
1087,1087,-0.34579511734027324,-0.3,0.0,1.0,312.0,595.0,1.0,0,1213.0,1
1088,1088,-0.6357351056617768,-0.6,1.0,0.0,449.0,715.0,0.0,0,106.0,1
1089,1089,-0.3207850755738998,-0.3,0.0,1.0,434.0,821.0,1.0,0,345.0,1
1090,1090,-0.5374477334101058,-0.5,0.0,1.0,283.0,654.0,1.0,0,133.0,1
1091,1091,0.14931453592560084,0.1,1.0,1.0,322.0,683.0,1.0,1,1495.0,1
1092,1092,-0.5048159172884282,-0.5,1.0,0.0,443.0,985.0,1.0,1,-588.0,0
1093,1093,0.08368006502552616,0.1,1.0,1.0,300.0,509.0,1.0,1,111.0,1
1094,1094,0.30339741943809917,0.3,1.0,1.0,308.0,619.0,1.0,1,363.0,1
1095,1095,-0.3712851218521994,-0.4,0.0,1.0,383.0,780.0,1.0,0,-53.0,1
1096,1096,0.4681572372582171,0.5,0.0,0.0,288.0,866.0,0.0,1,556.0,1
1097,1097,0.08840078566278364,0.1,1.0,1.0,364.0,502.0,1.0,1,2134.0,1
1098,1098,-0.7974592429184171,-0.8,0.0,1.0,394.0,976.0,1.0,0,100.0,1
1099,1099,0.5870133002517851,0.6,0.0,0.0,389.0,660.0,0.0,1,491.0,1
1100,1100,-0.09818753500755739,-0.1,1.0,0.0,289.0,570.0,1.0,1,-189.0,0
1101,1101,-0.019814417381992855,-0.0,0.0,1.0,436.0,653.0,0.0,1,1911.0,0
1102,1102,0.7130720137660581,0.7,0.0,0.0,370.0,669.0,0.0,1,361.0,1
1103,1103,0.58044004131815,0.6,1.0,1.0,364.0,990.0,1.0,1,496.0,1
1104,1104,-0.7748643178757619,-0.8,1.0,0.0,342.0,564.0,0.0,0,384.0,1
1105,1105,0.2829424925030254,0.3,0.0,0.0,263.0,586.0,0.0,1,1661.0,1
1106,1106,0.3557518464054904,0.4,1.0,1.0,321.0,572.0,1.0,1,707.0,1
1107,1107,0.8329548456743076,0.8,0.0,0.0,398.0,859.0,0.0,1,233.0,1
1108,1108,-0.4802052511376889,-0.5,0.0,1.0,491.0,938.0,1.0,0,381.0,1
1109,1109,-0.3319976440138416,-0.3,1.0,0.0,260.0,521.0,0.0,0,959.0,1
1110,1110,0.6723439299644268,0.7,0.0,0.0,424.0,807.0,0.0,1,169.0,1
1111,1111,-0.48124397158858584,-0.5,1.0,0.0,463.0,505.0,0.0,0,482.0,1
1112,1112,-0.7324708951317865,-0.7,1.0,0.0,390.0,538.0,0.0,0,162.0,1
1113,1113,-0.3685320539455579,-0.4,0.0,1.0,410.0,570.0,1.0,0,260.0,1
1114,1114,-0.33250774209186007,-0.3,0.0,1.0,411.0,891.0,1.0,0,448.0,1
1115,1115,0.21559736837621146,0.2,1.0,1.0,430.0,511.0,1.0,1,259.0,1
1116,1116,-0.2777960515767802,-0.3,0.0,1.0,353.0,925.0,1.0,0,482.0,1
1117,1117,-0.44841501381639864,-0.4,1.0,0.0,424.0,697.0,0.0,0,289.0,1
1118,1118,-0.5222055501301704,-0.5,0.0,1.0,341.0,531.0,1.0,0,178.0,1
1119,1119,-0.27939929028748667,-0.3,0.0,1.0,318.0,671.0,1.0,0,91.0,1
1120,1120,-0.24969705729489478,-0.2,0.0,1.0,447.0,984.0,1.0,0,669.0,1
1121,1121,0.6618223367498351,0.7,0.0,0.0,438.0,780.0,0.0,1,652.0,1
1122,1122,-0.6440368878846965,-0.6,1.0,0.0,309.0,655.0,0.0,0,196.0,1
1123,1123,0.21084772955634834,0.2,1.0,1.0,342.0,865.0,1.0,1,283.0,1
1124,1124,0.08473700556130814,0.1,1.0,1.0,296.0,546.0,1.0,1,2158.0,1
1125,1125,-0.8131906228023583,-0.8,0.0,1.0,492.0,959.0,1.0,0,179.0,1
1126,1126,-0.8936410325251575,-0.9,0.0,1.0,382.0,766.0,1.0,0,242.0,1
1127,1127,0.6997428325527132,0.7,0.0,0.0,282.0,840.0,0.0,1,498.0,1
1128,1128,-0.1850752582430898,-0.2,1.0,0.0,297.0,886.0,0.0,0,817.0,1
1129,1129,0.13337269447242572,0.1,1.0,1.0,342.0,629.0,1.0,1,539.0,1
1130,1130,-0.5636392837526473,-0.6,0.0,1.0,463.0,782.0,1.0,0,45.0,1
1131,1131,-0.20465529691055995,-0.2,0.0,1.0,429.0,821.0,1.0,0,350.0,1
1132,1132,0.38835556044541286,0.4,1.0,1.0,298.0,976.0,1.0,1,-144.0,1
1133,1133,0.3887690790260264,0.4,0.0,0.0,346.0,600.0,0.0,1,2054.0,1
1134,1134,-0.6061723865220741,-0.6,0.0,1.0,363.0,606.0,1.0,0,271.0,1
1135,1135,-0.732334758679078,-0.7,1.0,0.0,348.0,917.0,0.0,0,365.0,1
1136,1136,-0.6785536890105675,-0.7,0.0,1.0,262.0,896.0,1.0,0,142.0,1
1137,1137,-0.5359826247933344,-0.5,0.0,1.0,480.0,721.0,1.0,0,199.0,1
1138,1138,-0.46994186920571135,-0.5,1.0,0.0,336.0,966.0,0.0,0,178.0,1
1139,1139,0.0821832792426902,0.1,0.0,0.0,331.0,868.0,1.0,0,1801.0,0
1140,1140,0.046020495705968445,0.0,1.0,1.0,268.0,797.0,1.0,1,1935.0,1
1141,1141,-0.1710155985840126,-0.2,1.0,0.0,387.0,977.0,0.0,0,1636.0,1
1142,1142,-0.18380822879039194,-0.2,0.0,1.0,450.0,661.0,1.0,0,389.0,1
1143,1143,0.8466944901816452,0.8,1.0,1.0,437.0,898.0,1.0,1,75.0,1
1144,1144,0.32604979146600377,0.3,1.0,1.0,485.0,666.0,1.0,1,819.0,1
1145,1145,-0.7861289351344105,-0.8,1.0,0.0,281.0,689.0,0.0,0,120.0,1
1146,1146,-0.41141177502689286,-0.4,1.0,0.0,379.0,757.0,0.0,0,524.0,1
1147,1147,-0.5849586125891064,-0.6,0.0,1.0,372.0,766.0,1.0,0,92.0,1
1148,1148,-0.051455595875790516,-0.1,0.0,1.0,280.0,861.0,1.0,0,1859.0,1
1149,1149,0.71263395370063,0.7,0.0,0.0,416.0,594.0,0.0,1,880.0,1
1150,1150,0.47598540540569123,0.5,1.0,1.0,272.0,710.0,1.0,1,248.0,1
1151,1151,-0.45279196747671685,-0.5,1.0,0.0,394.0,897.0,0.0,0,429.0,1
1152,1152,-0.5658981840195092,-0.6,1.0,0.0,314.0,753.0,0.0,0,363.0,1
1153,1153,-0.2514674110508951,-0.3,1.0,0.0,498.0,697.0,0.0,0,1805.0,1
1154,1154,-0.22836013335296135,-0.2,0.0,1.0,407.0,978.0,1.0,0,575.0,1
1155,1155,0.06144601250527548,0.1,1.0,1.0,284.0,795.0,1.0,1,-199.0,1
1156,1156,-0.4590845181117443,-0.5,1.0,0.0,417.0,717.0,0.0,0,116.0,1
1157,1157,-0.5489007373752707,-0.5,0.0,1.0,323.0,745.0,1.0,0,262.0,1
1158,1158,0.3849747004084326,0.4,1.0,1.0,402.0,829.0,1.0,1,129.0,1
1159,1159,0.3110744432094833,0.3,1.0,1.0,301.0,811.0,1.0,1,418.0,1
1160,1160,-0.48929023940633076,-0.5,1.0,0.0,466.0,588.0,1.0,1,-104.0,0
1161,1161,-0.09846923609428937,-0.1,0.0,1.0,370.0,673.0,1.0,0,807.0,1
1162,1162,-0.7621029452377988,-0.8,0.0,1.0,466.0,892.0,1.0,0,242.0,1
1163,1163,0.4241741464175882,0.4,1.0,1.0,452.0,787.0,1.0,1,301.0,1
1164,1164,0.6826752897080454,0.7,0.0,0.0,437.0,506.0,0.0,1,647.0,1
1165,1165,-0.7713328250668183,-0.8,0.0,1.0,431.0,875.0,1.0,0,184.0,1
1166,1166,0.8836107433358685,0.9,1.0,1.0,403.0,891.0,1.0,1,116.0,1
1167,1167,0.3184264036879997,0.3,0.0,0.0,427.0,562.0,0.0,1,2011.0,1
1168,1168,-0.16227024752406516,-0.2,0.0,1.0,497.0,566.0,1.0,0,1037.0,1
1169,1169,0.7660968729539176,0.8,0.0,0.0,423.0,945.0,0.0,1,372.0,1
1170,1170,0.7507268349837911,0.8,1.0,1.0,281.0,905.0,1.0,1,234.0,1
1171,1171,-0.5434550197814321,-0.5,1.0,0.0,271.0,564.0,0.0,0,1405.0,1
1172,1172,-0.8137809379313348,-0.8,0.0,1.0,483.0,713.0,1.0,0,264.0,1
1173,1173,0.5589132938343478,0.6,1.0,1.0,475.0,992.0,1.0,1,-517.0,1
1174,1174,-0.5588808916627592,-0.6,1.0,0.0,416.0,556.0,1.0,1,-2.0,0
1175,1175,-0.6689992149333526,-0.7,1.0,0.0,270.0,563.0,0.0,0,67.0,1
1176,1176,-0.6474370902712678,-0.6,1.0,0.0,446.0,754.0,0.0,0,440.0,1
1177,1177,-0.46708489277762766,-0.5,0.0,1.0,330.0,945.0,1.0,0,255.0,1
1178,1178,-0.2896857078928782,-0.3,0.0,1.0,481.0,832.0,1.0,0,317.0,1
1179,1179,-0.2108261476396004,-0.2,0.0,1.0,345.0,681.0,1.0,0,594.0,1
1180,1180,-0.7353006573426972,-0.7,0.0,1.0,304.0,769.0,1.0,0,207.0,1
1181,1181,0.1307147994872334,0.1,0.0,0.0,470.0,682.0,0.0,1,1848.0,1
1182,1182,-0.1745673880178672,-0.2,1.0,0.0,289.0,917.0,1.0,1,1794.0,0
1183,1183,0.8751901638643683,0.9,1.0,1.0,333.0,989.0,1.0,1,288.0,1
1184,1184,0.1945483947523231,0.2,0.0,0.0,281.0,633.0,0.0,1,2086.0,1
1185,1185,-0.4102567163858253,-0.4,1.0,0.0,294.0,652.0,0.0,0,144.0,1
1186,1186,-0.259296694734512,-0.3,1.0,0.0,309.0,653.0,0.0,0,958.0,1
1187,1187,0.14465552227031264,0.1,1.0,1.0,362.0,502.0,1.0,1,946.0,1
1188,1188,-0.16135156670450856,-0.2,0.0,1.0,262.0,586.0,1.0,0,382.0,1
1189,1189,-0.47239855395922414,-0.5,0.0,1.0,355.0,777.0,1.0,0,188.0,1
1190,1190,0.7129072390680208,0.7,1.0,1.0,473.0,762.0,1.0,1,305.0,1
1191,1191,0.300490209259466,0.3,0.0,0.0,392.0,801.0,1.0,0,17.0,0
1192,1192,-0.7678806021196445,-0.8,0.0,1.0,359.0,551.0,1.0,0,280.0,1
1193,1193,0.4284976324979498,0.4,0.0,0.0,322.0,824.0,0.0,1,1854.0,1
1194,1194,0.20902538961825512,0.2,0.0,0.0,497.0,605.0,0.0,1,1898.0,1
1195,1195,0.1594639234324945,0.2,1.0,1.0,328.0,547.0,1.0,1,665.0,1
1196,1196,-0.05510157769246038,-0.1,1.0,0.0,270.0,853.0,0.0,0,1877.0,1
1197,1197,-0.0033524820237050834,-0.0,0.0,1.0,475.0,611.0,1.0,0,1914.0,1
1198,1198,0.7552173543288739,0.8,1.0,1.0,425.0,967.0,1.0,1,258.0,1
1199,1199,-0.16270882821482513,-0.2,1.0,0.0,380.0,628.0,0.0,0,372.0,1
1200,1200,-0.2352236774956098,-0.2,1.0,0.0,384.0,795.0,1.0,1,11.0,0
1201,1201,-0.5558297536818488,-0.6,1.0,0.0,396.0,627.0,0.0,0,207.0,1
1202,1202,0.45251077750785706,0.5,1.0,1.0,487.0,552.0,1.0,1,521.0,1
1203,1203,0.21601501065241047,0.2,1.0,1.0,287.0,512.0,1.0,1,621.0,1
1204,1204,-0.01655094261867207,-0.0,1.0,0.0,451.0,984.0,1.0,1,275.0,0
1205,1205,-0.4445617256608318,-0.4,1.0,0.0,310.0,615.0,0.0,0,725.0,1
1206,1206,0.8307419018973802,0.8,1.0,1.0,428.0,832.0,1.0,1,210.0,1
1207,1207,-0.3554895146948729,-0.4,0.0,1.0,260.0,972.0,1.0,0,308.0,1
1208,1208,-0.7726209820632376,-0.8,1.0,0.0,413.0,727.0,0.0,0,220.0,1
1209,1209,0.3030291043495078,0.3,1.0,1.0,353.0,522.0,1.0,1,935.0,1
1210,1210,-0.524430102234841,-0.5,1.0,0.0,363.0,504.0,0.0,0,453.0,1
1211,1211,-0.6452588863928571,-0.6,1.0,0.0,332.0,510.0,0.0,0,308.0,1
1212,1212,-0.584836233649487,-0.6,1.0,0.0,361.0,634.0,0.0,0,185.0,1
1213,1213,-0.34717985361642456,-0.3,0.0,1.0,482.0,556.0,1.0,0,112.0,1
1214,1214,0.6388761430434574,0.6,0.0,0.0,341.0,654.0,0.0,1,335.0,1
1215,1215,0.09708867017895029,0.1,0.0,0.0,452.0,944.0,0.0,1,1604.0,1
1216,1216,0.6955522625523279,0.7,0.0,0.0,360.0,558.0,0.0,1,272.0,1
1217,1217,-0.06186883618216632,-0.1,0.0,1.0,309.0,929.0,1.0,0,-528.0,1
1218,1218,0.6026831255273425,0.6,0.0,0.0,498.0,543.0,0.0,1,269.0,1
1219,1219,-0.7527770338460519,-0.8,0.0,1.0,286.0,796.0,1.0,0,198.0,1
1220,1220,-0.06683343031574163,-0.1,1.0,0.0,272.0,594.0,0.0,0,284.0,1
1221,1221,-0.6547893726374139,-0.7,0.0,1.0,462.0,562.0,1.0,0,266.0,1
1222,1222,-0.47042897953990415,-0.5,1.0,0.0,314.0,929.0,1.0,1,-753.0,0
1223,1223,0.6589139241158751,0.7,1.0,1.0,250.0,600.0,1.0,1,310.0,1
1224,1224,-0.8238057145147586,-0.8,1.0,0.0,424.0,913.0,1.0,1,-107.0,0
1225,1225,0.5982373869931413,0.6,1.0,1.0,386.0,654.0,0.0,0,-60.0,0
1226,1226,-0.6715082110528838,-0.7,1.0,0.0,345.0,913.0,0.0,0,282.0,1
1227,1227,0.3269133149605107,0.3,0.0,0.0,484.0,927.0,0.0,1,469.0,1
1228,1228,-0.5087804218670069,-0.5,1.0,0.0,355.0,504.0,0.0,0,761.0,1
1229,1229,-0.6801607050363834,-0.7,1.0,0.0,273.0,826.0,1.0,1,-429.0,0
1230,1230,0.5168734574944768,0.5,1.0,1.0,254.0,726.0,1.0,1,490.0,1
1231,1231,-0.17065051560769096,-0.2,0.0,1.0,438.0,807.0,1.0,0,645.0,1
1232,1232,-0.268744601651313,-0.3,0.0,1.0,346.0,558.0,1.0,0,286.0,1
1233,1233,-0.36201348612989204,-0.4,0.0,1.0,341.0,540.0,1.0,0,389.0,1
1234,1234,0.5226348667411153,0.5,1.0,1.0,270.0,500.0,1.0,1,390.0,1
1235,1235,0.43062374041713614,0.4,0.0,0.0,458.0,797.0,0.0,1,1715.0,1
1236,1236,-0.4792002054694523,-0.5,1.0,0.0,407.0,684.0,0.0,0,709.0,1
1237,1237,-0.12129003550521944,-0.1,1.0,0.0,456.0,551.0,0.0,0,1993.0,1
1238,1238,0.18984834498827652,0.2,1.0,1.0,277.0,757.0,1.0,1,-254.0,1
1239,1239,-0.06081471700722896,-0.1,0.0,1.0,394.0,604.0,1.0,0,342.0,1
1240,1240,0.19378620741644237,0.2,1.0,1.0,314.0,953.0,1.0,1,333.0,1
1241,1241,-0.624061960036838,-0.6,1.0,0.0,306.0,707.0,0.0,0,927.0,1
1242,1242,0.4412366311845387,0.4,1.0,1.0,427.0,921.0,1.0,1,202.0,1
1243,1243,0.8282514561253186,0.8,0.0,0.0,296.0,593.0,0.0,1,451.0,1
1244,1244,0.8096418540011309,0.8,1.0,1.0,342.0,771.0,1.0,1,127.0,1
1245,1245,0.6793147044851354,0.7,1.0,1.0,482.0,718.0,1.0,1,270.0,1
1246,1246,0.2629191063656243,0.3,0.0,0.0,269.0,622.0,0.0,1,799.0,1
1247,1247,-0.7619192347641828,-0.8,0.0,1.0,491.0,692.0,1.0,0,377.0,1
1248,1248,-0.44796027170498215,-0.4,1.0,0.0,333.0,979.0,0.0,0,268.0,1
1249,1249,-0.6378857293256057,-0.6,1.0,0.0,419.0,594.0,0.0,0,317.0,1
1250,1250,0.5991905925086668,0.6,0.0,0.0,258.0,726.0,0.0,1,326.0,1
1251,1251,0.2893292977357217,0.3,0.0,0.0,287.0,647.0,0.0,1,1746.0,1
1252,1252,0.3692147119997017,0.4,0.0,0.0,340.0,679.0,0.0,1,481.0,1
1253,1253,-0.07392494457285981,-0.1,1.0,0.0,353.0,513.0,0.0,0,2134.0,1
1254,1254,0.7566672936600926,0.8,0.0,0.0,430.0,646.0,0.0,1,494.0,1
1255,1255,0.2302401519453282,0.2,0.0,0.0,288.0,517.0,0.0,1,2195.0,1
1256,1256,-0.08983385362508556,-0.1,0.0,1.0,275.0,881.0,1.0,0,744.0,1
1257,1257,0.7385561242153426,0.7,0.0,0.0,342.0,527.0,0.0,1,201.0,1
1258,1258,0.5596366338171327,0.6,1.0,1.0,325.0,852.0,1.0,1,513.0,1
1259,1259,-0.5384639684717571,-0.5,1.0,0.0,331.0,894.0,0.0,0,1125.0,1
1260,1260,0.6679499689093903,0.7,1.0,1.0,375.0,967.0,1.0,1,188.0,1
1261,1261,-0.42174144252119444,-0.4,0.0,1.0,255.0,513.0,1.0,0,132.0,1
1262,1262,-0.7070898097414559,-0.7,0.0,1.0,457.0,748.0,1.0,0,335.0,1
1263,1263,-0.745793254063029,-0.7,1.0,0.0,393.0,980.0,0.0,0,77.0,1
1264,1264,-0.2896184975134989,-0.3,1.0,0.0,449.0,666.0,0.0,0,1485.0,1
1265,1265,0.6299585520467431,0.6,0.0,0.0,267.0,988.0,0.0,1,505.0,1
1266,1266,0.281084091533503,0.3,1.0,1.0,389.0,657.0,1.0,1,104.0,1
1267,1267,-0.8409014070947355,-0.8,1.0,0.0,440.0,538.0,0.0,0,472.0,1
1268,1268,0.09052572687497351,0.1,1.0,1.0,302.0,570.0,1.0,1,718.0,1
1269,1269,-0.7543774967373189,-0.8,1.0,0.0,426.0,997.0,0.0,0,397.0,1
1270,1270,-0.25100070095893756,-0.3,0.0,1.0,478.0,853.0,1.0,0,-631.0,1
1271,1271,-0.6356225441141441,-0.6,0.0,1.0,482.0,679.0,1.0,0,279.0,1
1272,1272,0.6914841768502454,0.7,1.0,1.0,314.0,904.0,0.0,0,-158.0,0
1273,1273,-0.5238743205937828,-0.5,0.0,1.0,490.0,626.0,1.0,0,384.0,1
1274,1274,0.3793987254410146,0.4,1.0,1.0,344.0,863.0,1.0,1,403.0,1
1275,1275,0.21244567319783247,0.2,1.0,1.0,336.0,997.0,1.0,1,157.0,1
1276,1276,-0.5780659598929274,-0.6,0.0,1.0,260.0,561.0,1.0,0,169.0,1
1277,1277,-0.2964445778461112,-0.3,1.0,0.0,464.0,685.0,0.0,0,1851.0,1
1278,1278,-0.46896021910491154,-0.5,1.0,0.0,370.0,888.0,0.0,0,92.0,1
1279,1279,0.006076908810541459,0.0,0.0,0.0,400.0,843.0,0.0,1,1757.0,1
1280,1280,-0.6833963524799522,-0.7,0.0,1.0,352.0,815.0,1.0,0,83.0,1
1281,1281,-0.8276139980718268,-0.8,1.0,0.0,491.0,768.0,0.0,0,351.0,1
1282,1282,-0.8589409500603914,-0.9,1.0,0.0,466.0,718.0,0.0,0,186.0,1
1283,1283,0.37290344676051024,0.4,0.0,0.0,321.0,706.0,0.0,1,243.0,1
1284,1284,0.48610853227321205,0.5,1.0,1.0,285.0,778.0,1.0,1,887.0,1
1285,1285,-0.6093633175543355,-0.6,0.0,1.0,482.0,671.0,1.0,0,297.0,1
1286,1286,0.5116191654952077,0.5,0.0,0.0,482.0,747.0,0.0,1,1771.0,1
1287,1287,-0.13846856865440038,-0.1,0.0,1.0,259.0,675.0,1.0,0,1546.0,1
1288,1288,0.0400072230181866,0.0,1.0,1.0,350.0,569.0,1.0,1,941.0,1
1289,1289,0.1642778867197362,0.2,0.0,0.0,424.0,859.0,0.0,1,1717.0,1
1290,1290,-0.7718931226400464,-0.8,0.0,1.0,462.0,780.0,1.0,0,78.0,1
1291,1291,-0.6469031529620678,-0.6,1.0,0.0,380.0,728.0,0.0,0,162.0,1
1292,1292,0.12320266285148385,0.1,1.0,1.0,485.0,802.0,1.0,1,3.0,1
1293,1293,-0.8239693921114063,-0.8,1.0,0.0,492.0,893.0,0.0,0,145.0,1
1294,1294,0.3106328409008169,0.3,1.0,1.0,398.0,828.0,1.0,1,364.0,1
1295,1295,-0.5606043866939965,-0.6,1.0,0.0,276.0,974.0,0.0,0,170.0,1
1296,1296,0.11575047428267993,0.1,0.0,0.0,410.0,983.0,1.0,0,217.0,0
1297,1297,-0.8815673774077656,-0.9,0.0,1.0,473.0,963.0,1.0,0,194.0,1
1298,1298,-0.6535589345507342,-0.7,0.0,1.0,363.0,663.0,1.0,0,174.0,1
1299,1299,-0.27279423109259027,-0.3,0.0,1.0,405.0,577.0,1.0,0,218.0,1
1300,1300,0.7368184023254235,0.7,0.0,0.0,448.0,927.0,0.0,1,415.0,1
1301,1301,0.6116885223820595,0.6,1.0,1.0,387.0,884.0,1.0,1,289.0,1
1302,1302,0.4574032906688362,0.5,0.0,0.0,341.0,851.0,0.0,1,1178.0,1
1303,1303,0.002304589425471293,0.0,0.0,0.0,487.0,981.0,0.0,1,1532.0,1
1304,1304,0.5413435527673834,0.5,0.0,0.0,422.0,602.0,0.0,1,536.0,1
1305,1305,-0.15321177352962712,-0.2,1.0,0.0,283.0,684.0,1.0,1,83.0,0
1306,1306,0.6501165168371074,0.7,1.0,1.0,391.0,695.0,1.0,1,134.0,1
1307,1307,-0.165517154562271,-0.2,1.0,0.0,293.0,831.0,1.0,1,-74.0,0
1308,1308,-0.4808698396601476,-0.5,1.0,0.0,275.0,688.0,0.0,0,387.0,1
1309,1309,0.08856241011142207,0.1,0.0,0.0,271.0,714.0,1.0,0,2015.0,0
1310,1310,-0.029039245547696213,-0.0,1.0,0.0,398.0,851.0,0.0,0,1751.0,1
1311,1311,0.8797002179434749,0.9,0.0,0.0,337.0,823.0,0.0,1,200.0,1
1312,1312,0.6831740867661648,0.7,1.0,1.0,358.0,592.0,1.0,1,250.0,1
1313,1313,-0.8228147135214489,-0.8,1.0,0.0,270.0,803.0,0.0,0,337.0,1
1314,1314,-0.5756547816302269,-0.6,0.0,1.0,327.0,867.0,1.0,0,356.0,1
1315,1315,-0.5801609426608316,-0.6,1.0,0.0,312.0,613.0,0.0,0,215.0,1
1316,1316,-0.1685185775623238,-0.2,1.0,0.0,333.0,551.0,0.0,0,966.0,1
1317,1317,0.2445261877160162,0.2,0.0,0.0,324.0,995.0,0.0,1,1401.0,1
1318,1318,-0.3796958676242641,-0.4,0.0,1.0,329.0,534.0,1.0,0,447.0,1
1319,1319,0.3382443915509791,0.3,0.0,0.0,441.0,635.0,0.0,1,1514.0,1
1320,1320,-0.4511467832836255,-0.5,1.0,0.0,484.0,945.0,0.0,0,351.0,1
1321,1321,-0.4432705647367435,-0.4,1.0,0.0,487.0,914.0,0.0,0,249.0,1
1322,1322,-0.793620881177566,-0.8,0.0,1.0,361.0,508.0,1.0,0,141.0,1
1323,1323,-0.7826846309842191,-0.8,1.0,0.0,462.0,711.0,0.0,0,137.0,1
1324,1324,0.1387782441245674,0.1,1.0,1.0,325.0,816.0,1.0,1,79.0,1
1325,1325,0.7082653151752777,0.7,1.0,1.0,468.0,714.0,1.0,1,338.0,1
1326,1326,-0.6385277941513043,-0.6,1.0,0.0,399.0,730.0,0.0,0,301.0,1
1327,1327,0.8713066218063955,0.9,1.0,1.0,411.0,533.0,1.0,1,56.0,1
1328,1328,-0.5674390810497837,-0.6,0.0,1.0,262.0,810.0,1.0,0,208.0,1
1329,1329,-0.8766637078542256,-0.9,1.0,0.0,311.0,874.0,0.0,0,85.0,1
1330,1330,-0.7123992483876043,-0.7,0.0,1.0,485.0,675.0,1.0,0,230.0,1
1331,1331,-0.2848748676424393,-0.3,0.0,1.0,367.0,731.0,1.0,0,542.0,1
1332,1332,0.3096241838625894,0.3,0.0,0.0,315.0,588.0,0.0,1,1827.0,1
1333,1333,-0.1833043775720179,-0.2,1.0,0.0,316.0,720.0,0.0,0,644.0,1
1334,1334,-0.29169208457510043,-0.3,0.0,1.0,368.0,668.0,1.0,0,264.0,1
1335,1335,0.8412146968461071,0.8,0.0,0.0,409.0,787.0,0.0,1,394.0,1
1336,1336,0.27792195607922954,0.3,1.0,1.0,348.0,984.0,1.0,1,478.0,1
1337,1337,-0.5025570153881618,-0.5,1.0,0.0,284.0,890.0,0.0,0,366.0,1
1338,1338,0.5749791857019432,0.6,1.0,1.0,254.0,793.0,1.0,1,3.0,1
1339,1339,0.2567356832184783,0.3,0.0,0.0,474.0,549.0,0.0,1,1977.0,1
1340,1340,0.42686887527513184,0.4,1.0,1.0,352.0,980.0,1.0,1,38.0,1
1341,1341,-0.0764996383068749,-0.1,0.0,1.0,468.0,670.0,1.0,0,382.0,1
1342,1342,0.5129421939089159,0.5,0.0,0.0,411.0,668.0,0.0,1,281.0,1
1343,1343,-0.7523873119437501,-0.8,0.0,1.0,470.0,891.0,1.0,0,169.0,1
1344,1344,-0.5418049615804854,-0.5,1.0,0.0,365.0,895.0,0.0,0,220.0,1
1345,1345,-0.017525489812142525,-0.0,0.0,1.0,335.0,793.0,1.0,0,1872.0,1
1346,1346,0.058755952557288715,0.1,1.0,1.0,331.0,692.0,1.0,1,737.0,1
1347,1347,-0.5921423168364239,-0.6,0.0,1.0,326.0,634.0,1.0,0,150.0,1
1348,1348,-0.6064996080334785,-0.6,1.0,0.0,330.0,901.0,0.0,0,29.0,1
1349,1349,-0.8451775940117012,-0.8,0.0,1.0,457.0,978.0,1.0,0,-465.0,1
1350,1350,0.22084449382093296,0.2,0.0,0.0,311.0,671.0,0.0,1,2018.0,1
1351,1351,0.645941468487328,0.6,0.0,0.0,295.0,971.0,0.0,1,344.0,1
1352,1352,0.5054524098153111,0.5,1.0,1.0,328.0,558.0,1.0,1,274.0,1
1353,1353,-0.04945008708721188,-0.0,0.0,1.0,392.0,618.0,1.0,0,1990.0,1
1354,1354,0.09033377551063415,0.1,0.0,0.0,273.0,552.0,0.0,1,2175.0,1
1355,1355,-0.11497315099328154,-0.1,0.0,1.0,373.0,508.0,1.0,0,299.0,1
1356,1356,0.6078584732589539,0.6,1.0,1.0,341.0,645.0,1.0,1,274.0,1
1357,1357,-0.7663128905213897,-0.8,1.0,0.0,308.0,904.0,0.0,0,308.0,1
1358,1358,0.21566891098463603,0.2,1.0,1.0,265.0,948.0,1.0,1,127.0,1
1359,1359,0.03599360901694948,0.0,0.0,0.0,322.0,793.0,0.0,1,1885.0,1
1360,1360,-0.09538849728395804,-0.1,0.0,1.0,391.0,670.0,0.0,1,1939.0,0
1361,1361,0.8782165709314697,0.9,1.0,1.0,287.0,842.0,1.0,1,81.0,1
1362,1362,-0.05093772349786663,-0.1,0.0,1.0,457.0,994.0,1.0,0,1549.0,1
1363,1363,0.17479066623190398,0.2,0.0,0.0,344.0,732.0,0.0,1,1924.0,1
1364,1364,0.679025084946543,0.7,0.0,0.0,360.0,668.0,0.0,1,1082.0,1
1365,1365,-0.8684484393837889,-0.9,1.0,0.0,467.0,506.0,0.0,0,617.0,1
1366,1366,0.3062873319431131,0.3,1.0,1.0,288.0,569.0,1.0,1,483.0,1
1367,1367,-0.8686269474090088,-0.9,1.0,0.0,330.0,646.0,0.0,0,224.0,1
1368,1368,-0.14649202803922623,-0.1,0.0,1.0,357.0,797.0,1.0,0,1376.0,1
1369,1369,0.673103403390236,0.7,0.0,0.0,465.0,584.0,0.0,1,261.0,1
1370,1370,-0.5680686606312231,-0.6,1.0,0.0,442.0,611.0,0.0,0,147.0,1
1371,1371,0.5258413708681594,0.5,0.0,0.0,313.0,541.0,0.0,1,456.0,1
1372,1372,0.482208897570951,0.5,1.0,1.0,436.0,661.0,1.0,1,613.0,1
1373,1373,0.12147558899459121,0.1,1.0,1.0,312.0,800.0,1.0,1,338.0,1
1374,1374,0.3497976212689645,0.3,1.0,1.0,278.0,732.0,1.0,1,390.0,1
1375,1375,0.1922308718837521,0.2,0.0,0.0,294.0,547.0,1.0,0,-1.0,0
1376,1376,0.3299908444810776,0.3,0.0,0.0,336.0,927.0,1.0,0,-503.0,0
1377,1377,0.17836192751196,0.2,0.0,0.0,278.0,746.0,0.0,1,1626.0,1
1378,1378,0.4274244769837737,0.4,0.0,0.0,479.0,976.0,0.0,1,1545.0,1
1379,1379,0.3799143540303892,0.4,0.0,0.0,384.0,776.0,0.0,1,680.0,1
1380,1380,-0.8902267142113296,-0.9,1.0,0.0,430.0,708.0,0.0,0,132.0,1
1381,1381,0.6617569033098422,0.7,0.0,0.0,382.0,814.0,0.0,1,464.0,1
1382,1382,0.3795984524042674,0.4,1.0,1.0,367.0,742.0,1.0,1,131.0,1
1383,1383,0.37808197833622825,0.4,0.0,0.0,339.0,791.0,0.0,1,1870.0,1
1384,1384,0.19194082437070803,0.2,1.0,1.0,419.0,698.0,0.0,0,-147.0,0
1385,1385,0.0240654967455759,0.0,0.0,0.0,489.0,831.0,1.0,0,1680.0,0
1386,1386,0.21821404940032385,0.2,0.0,0.0,451.0,632.0,0.0,1,1347.0,1
1387,1387,-0.23761279066985264,-0.2,1.0,0.0,356.0,681.0,0.0,0,473.0,1
1388,1388,0.2252961982389633,0.2,1.0,1.0,440.0,948.0,1.0,1,712.0,1
1389,1389,-0.7980804261039292,-0.8,0.0,1.0,276.0,885.0,1.0,0,209.0,1
1390,1390,0.5964652352806771,0.6,1.0,1.0,376.0,620.0,1.0,1,444.0,1
1391,1391,-0.10721847615860935,-0.1,0.0,1.0,478.0,561.0,1.0,0,521.0,1
1392,1392,0.40170058346848314,0.4,0.0,0.0,422.0,724.0,0.0,1,504.0,1
1393,1393,-0.6578306102123441,-0.7,0.0,1.0,461.0,772.0,1.0,0,207.0,1
1394,1394,-0.05232125465581827,-0.1,1.0,0.0,372.0,802.0,0.0,0,1826.0,1
1395,1395,-0.36086810529895974,-0.4,1.0,0.0,289.0,595.0,0.0,0,476.0,1
1396,1396,-0.44057726825352683,-0.4,0.0,1.0,406.0,682.0,1.0,0,-68.0,1
1397,1397,0.678511300006874,0.7,1.0,1.0,329.0,833.0,1.0,1,368.0,1
1398,1398,0.27825455279253986,0.3,1.0,1.0,324.0,648.0,1.0,1,1018.0,1
1399,1399,0.4494205632888276,0.4,1.0,1.0,252.0,572.0,1.0,1,356.0,1
1400,1400,-0.05649848694921522,-0.1,0.0,1.0,387.0,753.0,0.0,1,1860.0,0
1401,1401,-0.41980910081957495,-0.4,1.0,0.0,430.0,916.0,0.0,0,244.0,1
1402,1402,-0.5635717396234536,-0.6,1.0,0.0,335.0,757.0,0.0,0,398.0,1
1403,1403,0.6449911462507499,0.6,0.0,0.0,418.0,776.0,1.0,0,-334.0,0
1404,1404,-0.6080887076035713,-0.6,1.0,0.0,484.0,915.0,0.0,0,321.0,1
1405,1405,0.1817096171228495,0.2,0.0,0.0,334.0,637.0,0.0,1,2029.0,1
1406,1406,-0.4012818881529204,-0.4,1.0,0.0,447.0,726.0,0.0,0,-383.0,1
1407,1407,-0.5632481485183242,-0.6,1.0,0.0,480.0,831.0,0.0,0,189.0,1
1408,1408,-0.11238047481957747,-0.1,0.0,1.0,439.0,943.0,1.0,0,588.0,1
1409,1409,0.34587977067441555,0.3,1.0,1.0,437.0,933.0,1.0,1,300.0,1
1410,1410,0.12082697951723775,0.1,1.0,1.0,321.0,728.0,1.0,1,391.0,1
1411,1411,0.2645776270055372,0.3,1.0,1.0,315.0,849.0,1.0,1,726.0,1
1412,1412,-0.07535812461204894,-0.1,1.0,0.0,410.0,895.0,1.0,1,-375.0,0
1413,1413,-0.13544202711386955,-0.1,1.0,0.0,457.0,713.0,1.0,1,-80.0,0
1414,1414,0.6758888708149241,0.7,1.0,1.0,343.0,632.0,1.0,1,155.0,1
1415,1415,-0.7574935234523318,-0.8,0.0,1.0,489.0,847.0,1.0,0,134.0,1
1416,1416,-0.6076180912445206,-0.6,0.0,1.0,496.0,851.0,1.0,0,323.0,1
1417,1417,-0.19837378209598155,-0.2,0.0,1.0,416.0,530.0,1.0,0,944.0,1
1418,1418,0.2408536533402047,0.2,1.0,1.0,293.0,693.0,1.0,1,474.0,1
1419,1419,0.10910084519814534,0.1,1.0,1.0,305.0,843.0,1.0,1,502.0,1
1420,1420,0.840043996967318,0.8,0.0,0.0,266.0,555.0,0.0,1,279.0,1
1421,1421,0.65500951718333,0.7,0.0,0.0,441.0,551.0,0.0,1,258.0,1
1422,1422,0.35290981871536664,0.4,1.0,1.0,494.0,827.0,1.0,1,149.0,1
1423,1423,-0.20635708994405755,-0.2,1.0,0.0,350.0,797.0,1.0,1,93.0,0
1424,1424,0.0829445872466208,0.1,1.0,1.0,402.0,700.0,1.0,1,778.0,1
1425,1425,-0.4519972536010315,-0.5,0.0,1.0,470.0,991.0,1.0,0,429.0,1
1426,1426,0.3484592702544834,0.3,1.0,1.0,394.0,905.0,1.0,1,611.0,1
1427,1427,0.2624043618761166,0.3,0.0,0.0,491.0,925.0,1.0,0,-356.0,0
1428,1428,-0.5685404375351872,-0.6,1.0,0.0,430.0,909.0,0.0,0,261.0,1
1429,1429,-0.5354358049168969,-0.5,0.0,1.0,434.0,786.0,1.0,0,200.0,1
1430,1430,0.7923855352736727,0.8,0.0,0.0,465.0,923.0,0.0,1,332.0,1
1431,1431,0.8318382986149967,0.8,0.0,0.0,492.0,624.0,0.0,1,164.0,1
1432,1432,0.8768047957293125,0.9,1.0,1.0,286.0,861.0,1.0,1,93.0,1
1433,1433,-0.8068326861636969,-0.8,1.0,0.0,393.0,788.0,0.0,0,239.0,1
1434,1434,-0.2967237040362759,-0.3,1.0,0.0,298.0,725.0,0.0,0,1337.0,1
1435,1435,-0.5292119809966229,-0.5,1.0,0.0,474.0,784.0,0.0,0,192.0,1
1436,1436,-0.8683578380540148,-0.9,1.0,0.0,391.0,557.0,0.0,0,242.0,1
1437,1437,-0.32410798870829727,-0.3,1.0,0.0,269.0,786.0,0.0,0,-225.0,1
1438,1438,-0.15738449429494128,-0.2,0.0,1.0,257.0,679.0,1.0,0,134.0,1
1439,1439,-0.4822961245749002,-0.5,0.0,1.0,493.0,565.0,1.0,0,352.0,1
1440,1440,0.7828326271783522,0.8,1.0,1.0,292.0,659.0,1.0,1,-201.0,1
1441,1441,0.172782290070984,0.2,1.0,1.0,354.0,725.0,1.0,1,691.0,1
1442,1442,0.041172339093332955,0.0,0.0,0.0,360.0,982.0,1.0,0,1658.0,0
1443,1443,-0.005574274005013202,-0.0,0.0,1.0,486.0,616.0,1.0,0,1898.0,1
1444,1444,0.7323055161789637,0.7,0.0,0.0,427.0,896.0,0.0,1,157.0,1
1445,1445,-0.07552264126463337,-0.1,1.0,0.0,257.0,980.0,1.0,1,1343.0,0
1446,1446,-0.5572259971595054,-0.6,0.0,1.0,376.0,939.0,1.0,0,205.0,1
1447,1447,0.8677968927674334,0.9,1.0,1.0,272.0,571.0,1.0,1,77.0,1
1448,1448,-0.1579956889695997,-0.2,1.0,0.0,457.0,540.0,0.0,0,2003.0,1
1449,1449,-0.37451409954029646,-0.4,0.0,1.0,420.0,830.0,1.0,0,520.0,1
1450,1450,0.5004375384779539,0.5,1.0,1.0,334.0,889.0,1.0,1,137.0,1
1451,1451,-0.5380888391552289,-0.5,1.0,0.0,399.0,643.0,0.0,0,448.0,1
1452,1452,-0.32042713047904003,-0.3,1.0,0.0,268.0,737.0,0.0,0,835.0,1
1453,1453,-0.31523378033897287,-0.3,1.0,0.0,316.0,589.0,0.0,0,365.0,1
1454,1454,-0.8580401574834997,-0.9,0.0,1.0,384.0,701.0,1.0,0,115.0,1
1455,1455,0.6050519074246138,0.6,1.0,1.0,404.0,770.0,1.0,1,126.0,1
1456,1456,0.7351773356022026,0.7,1.0,1.0,343.0,819.0,1.0,1,308.0,1
1457,1457,0.8880023157532863,0.9,1.0,1.0,400.0,697.0,1.0,1,123.0,1
1458,1458,-0.5707520014569835,-0.6,0.0,1.0,271.0,883.0,1.0,0,126.0,1
1459,1459,-0.8518202619411421,-0.9,1.0,0.0,481.0,824.0,0.0,0,195.0,1
1460,1460,-0.02524235224858884,-0.0,0.0,1.0,413.0,507.0,1.0,0,300.0,1
1461,1461,0.5653552023528351,0.6,1.0,1.0,321.0,730.0,1.0,1,-451.0,1
1462,1462,0.02707228998903466,0.0,0.0,0.0,402.0,621.0,1.0,0,1977.0,0
1463,1463,0.34628302790077636,0.3,1.0,1.0,474.0,716.0,1.0,1,320.0,1
1464,1464,-0.5591207879054759,-0.6,1.0,0.0,363.0,713.0,0.0,0,224.0,1
1465,1465,-0.7206475010900891,-0.7,1.0,0.0,303.0,825.0,0.0,0,332.0,1
1466,1466,0.4896338927186358,0.5,0.0,0.0,407.0,650.0,0.0,1,473.0,1
1467,1467,0.8656277622335308,0.9,0.0,0.0,261.0,913.0,0.0,1,326.0,1
1468,1468,-0.08705099944657169,-0.1,1.0,0.0,253.0,890.0,0.0,0,1637.0,1
1469,1469,0.4467283087471873,0.4,0.0,0.0,348.0,977.0,0.0,1,335.0,1
1470,1470,0.16168120220598914,0.2,1.0,1.0,420.0,916.0,1.0,1,584.0,1
1471,1471,-0.021272711796523014,-0.0,0.0,1.0,440.0,884.0,1.0,0,1676.0,1
1472,1472,-0.735635026455121,-0.7,1.0,0.0,258.0,886.0,0.0,0,196.0,1
1473,1473,-0.08815694642998395,-0.1,0.0,1.0,403.0,538.0,1.0,0,629.0,1
1474,1474,-0.28682344925832004,-0.3,1.0,0.0,435.0,905.0,0.0,0,390.0,1
1475,1475,0.6016291843693579,0.6,0.0,0.0,435.0,948.0,0.0,1,827.0,1
1476,1476,-0.47761538863589653,-0.5,0.0,1.0,483.0,829.0,1.0,0,268.0,1
1477,1477,0.7082116618207231,0.7,0.0,0.0,300.0,727.0,0.0,1,413.0,1
1478,1478,-0.8775558724171999,-0.9,1.0,0.0,304.0,839.0,0.0,0,87.0,1
1479,1479,0.15993134254794328,0.2,0.0,0.0,341.0,845.0,0.0,1,1814.0,1
1480,1480,0.7899510202833516,0.8,1.0,1.0,432.0,615.0,1.0,1,223.0,1
1481,1481,0.5352419960769671,0.5,1.0,1.0,310.0,808.0,1.0,1,72.0,1
1482,1482,0.6824059585565,0.7,0.0,0.0,327.0,508.0,0.0,1,775.0,1
1483,1483,0.5050296617214977,0.5,0.0,0.0,494.0,968.0,0.0,1,418.0,1
1484,1484,-0.3889295589147369,-0.4,1.0,0.0,296.0,748.0,0.0,0,726.0,1
1485,1485,0.3283387928920293,0.3,0.0,0.0,452.0,525.0,0.0,1,1693.0,1
1486,1486,0.32553159439527624,0.3,0.0,0.0,322.0,700.0,0.0,1,488.0,1
1487,1487,0.6439985294828193,0.6,0.0,0.0,345.0,881.0,0.0,1,144.0,1
1488,1488,-0.7592341924949815,-0.8,0.0,1.0,454.0,723.0,1.0,0,213.0,1
