,trial,coherence,coherence_bin,green_side,correct_side,target_onset,checker_onset,decision,green_decision,decision_time,correct_decision
0,0,0.5099882920464062,0.5,1.0,1.0,336.0,950.0,0.0,0,1714.0,0
1,1,-0.7467961986013175,-0.7,0.0,1.0,408.0,508.0,0.0,1,2084.0,0
2,2,0.35569338598006117,0.4,0.0,0.0,275.0,839.0,0.0,1,1886.0,1
3,3,0.2520173075829214,0.3,1.0,1.0,413.0,936.0,0.0,0,1651.0,0
4,4,0.3962527413389746,0.4,1.0,1.0,461.0,532.0,0.0,0,2007.0,0
5,5,-0.3344206862391116,-0.3,0.0,1.0,356.0,717.0,0.0,1,1927.0,0
6,6,0.5880166535992698,0.6,0.0,0.0,284.0,663.0,0.0,1,2053.0,1
7,7,0.8666107902245855,0.9,0.0,0.0,433.0,942.0,0.0,1,1625.0,1
8,8,-0.6818433438098123,-0.7,1.0,0.0,405.0,649.0,0.0,0,1946.0,1
9,9,0.46055891571575513,0.5,0.0,0.0,353.0,894.0,1.0,0,-1237.0,0
10,10,-0.4494162983999767,-0.4,0.0,1.0,283.0,748.0,0.0,1,1969.0,0
11,11,0.6409349338827547,0.6,0.0,0.0,437.0,778.0,0.0,1,1785.0,1
12,12,-0.5310408569138345,-0.5,1.0,0.0,484.0,735.0,0.0,0,1781.0,1
13,13,0.3864061094513179,0.4,1.0,1.0,305.0,851.0,0.0,0,1844.0,0
14,14,0.02153513403435503,0.0,1.0,1.0,302.0,831.0,0.0,0,1867.0,0
15,15,0.5312152532920823,0.5,0.0,0.0,336.0,639.0,0.0,1,2025.0,1
16,16,0.4466088983528903,0.4,1.0,1.0,395.0,743.0,0.0,0,-1138.0,0
17,17,0.6568376494146463,0.7,1.0,1.0,255.0,805.0,0.0,0,1940.0,0
18,18,-0.3642864106591731,-0.4,0.0,1.0,353.0,780.0,0.0,1,1867.0,0
19,19,0.5964508569594301,0.6,1.0,1.0,496.0,537.0,0.0,0,1967.0,0
20,20,-0.3995292373489937,-0.4,0.0,1.0,468.0,678.0,0.0,1,1854.0,0
21,21,-0.061672237725303836,-0.1,1.0,0.0,301.0,628.0,0.0,0,2071.0,1
22,22,-0.11033427956483788,-0.1,0.0,1.0,257.0,590.0,0.0,1,2153.0,0
23,23,0.8574458672935376,0.9,0.0,0.0,337.0,585.0,0.0,1,-812.0,1
24,24,-0.48554450666471904,-0.5,1.0,0.0,343.0,760.0,0.0,0,1897.0,1
25,25,-0.28702713757496645,-0.3,1.0,0.0,272.0,863.0,0.0,0,1865.0,1
26,26,-0.35022423974785977,-0.4,1.0,0.0,410.0,624.0,0.0,0,-1024.0,1
27,27,-0.8496457781761548,-0.8,0.0,1.0,477.0,762.0,0.0,1,1761.0,0
28,28,0.04601699566902251,0.0,1.0,1.0,496.0,877.0,0.0,0,1627.0,0
29,29,0.8242414782382216,0.8,0.0,0.0,381.0,653.0,0.0,1,1966.0,1
30,30,-0.32299550909074703,-0.3,0.0,1.0,289.0,677.0,0.0,1,2034.0,0
31,31,0.57384206948397,0.6,1.0,1.0,425.0,887.0,0.0,0,1688.0,0
32,32,-0.07431991379651137,-0.1,0.0,1.0,301.0,774.0,0.0,1,-1035.0,0
33,33,-0.2825128465710204,-0.3,1.0,0.0,386.0,693.0,0.0,0,1921.0,1
34,34,-0.45028381470596857,-0.5,0.0,1.0,335.0,800.0,0.0,1,-1035.0,0
35,35,-0.5593197366848557,-0.6,0.0,1.0,430.0,852.0,0.0,1,1718.0,0
36,36,-0.4733406545186735,-0.5,1.0,0.0,494.0,853.0,0.0,0,1653.0,1
37,37,0.07095195880610794,0.1,0.0,0.0,405.0,838.0,0.0,1,1757.0,1
38,38,-0.6953749477212556,-0.7,0.0,1.0,472.0,889.0,0.0,1,1639.0,0
39,39,-0.3003353146646859,-0.3,0.0,1.0,497.0,832.0,0.0,1,1671.0,0
40,40,-0.8312113036157925,-0.8,0.0,1.0,314.0,753.0,0.0,1,1933.0,0
41,41,0.7205221841725763,0.7,0.0,0.0,285.0,917.0,0.0,1,1798.0,1
42,42,-0.8213880124071921,-0.8,1.0,0.0,329.0,692.0,0.0,0,1979.0,1
43,43,-0.23566269714171983,-0.2,0.0,1.0,322.0,845.0,0.0,1,1833.0,0
44,44,0.6399703154901829,0.6,1.0,1.0,404.0,735.0,0.0,0,1861.0,0
45,45,-0.4061848486801309,-0.4,0.0,1.0,319.0,854.0,0.0,1,1827.0,0
46,46,0.5801942323350581,0.6,1.0,1.0,330.0,559.0,0.0,0,2111.0,0
47,47,-0.42245631663273625,-0.4,0.0,1.0,267.0,615.0,0.0,1,2118.0,0
48,48,-0.6666954438650206,-0.7,1.0,0.0,280.0,582.0,0.0,0,2138.0,1
49,49,0.11364618320112851,0.1,1.0,1.0,331.0,959.0,0.0,0,1710.0,0
50,50,0.3500224432170854,0.4,1.0,1.0,486.0,794.0,0.0,0,1720.0,0
51,51,0.0852268530760052,0.1,1.0,1.0,453.0,984.0,0.0,0,1563.0,0
52,52,-0.17486295111315586,-0.2,1.0,0.0,412.0,589.0,0.0,0,1999.0,1
53,53,-0.323437685092979,-0.3,1.0,0.0,390.0,978.0,0.0,0,1632.0,1
54,54,0.6873516101471774,0.7,0.0,0.0,482.0,634.0,0.0,1,1884.0,1
55,55,-0.342765041813999,-0.3,1.0,0.0,389.0,807.0,0.0,0,1804.0,1
56,56,-0.40471494410302866,-0.4,0.0,1.0,386.0,599.0,0.0,1,2015.0,0
57,57,-0.8328362044568289,-0.8,1.0,0.0,384.0,545.0,0.0,0,2071.0,1
58,58,-0.28413772495767,-0.3,1.0,0.0,405.0,617.0,0.0,0,1978.0,1
59,59,0.06892029573136049,0.1,1.0,1.0,365.0,821.0,0.0,0,1814.0,0
60,60,-0.5299836478795901,-0.5,1.0,0.0,313.0,906.0,0.0,0,1781.0,1
61,61,-0.8520086689091074,-0.9,1.0,0.0,392.0,855.0,0.0,0,1753.0,1
62,62,-0.41294546264975196,-0.4,0.0,1.0,256.0,550.0,0.0,1,-806.0,0
63,63,-0.12040671711447426,-0.1,0.0,1.0,491.0,719.0,0.0,1,1790.0,0
64,64,0.059096640409842416,0.1,1.0,1.0,461.0,825.0,0.0,0,1714.0,0
65,65,0.21226314847488414,0.2,0.0,0.0,437.0,647.0,0.0,1,1916.0,1
66,66,0.8057699213279362,0.8,1.0,1.0,458.0,794.0,0.0,0,1748.0,0
67,67,0.1460957471732619,0.1,1.0,1.0,330.0,828.0,0.0,0,1842.0,0
68,68,0.026299496250029253,0.0,0.0,0.0,405.0,940.0,0.0,1,-1335.0,1
69,69,0.8973855362772744,0.9,1.0,1.0,258.0,833.0,0.0,0,1909.0,0
70,70,0.10812934157159748,0.1,1.0,1.0,401.0,959.0,0.0,0,1640.0,0
71,71,-0.653182546666457,-0.7,0.0,1.0,412.0,939.0,0.0,1,1649.0,0
72,72,-0.0775282266010594,-0.1,1.0,0.0,330.0,825.0,0.0,0,1845.0,1
73,73,0.6412332990547173,0.6,0.0,0.0,351.0,760.0,0.0,1,1889.0,1
74,74,0.4293017081812708,0.4,1.0,1.0,321.0,809.0,0.0,0,1870.0,0
75,75,-0.41451321619501885,-0.4,1.0,0.0,368.0,548.0,0.0,0,2084.0,1
76,76,0.25894352408636034,0.3,0.0,0.0,269.0,932.0,0.0,1,-1191.0,1
77,77,-0.44322052393276173,-0.4,1.0,0.0,483.0,847.0,0.0,0,1670.0,1
78,78,-0.24219129195406408,-0.2,0.0,1.0,482.0,839.0,0.0,1,1679.0,0
79,79,-0.2305317071990206,-0.2,1.0,0.0,322.0,738.0,0.0,0,1940.0,1
80,80,0.6689853233467756,0.7,0.0,0.0,370.0,750.0,0.0,1,1880.0,1
81,81,-0.638446987592473,-0.6,0.0,1.0,362.0,902.0,0.0,1,1736.0,0
82,82,-0.8736850573498498,-0.9,0.0,1.0,277.0,761.0,0.0,1,1962.0,0
83,83,-0.6959152111455326,-0.7,0.0,1.0,440.0,879.0,0.0,1,1681.0,0
84,84,-0.6177054112008965,-0.6,1.0,0.0,287.0,877.0,0.0,0,1836.0,1
85,85,-0.33243944090880206,-0.3,1.0,0.0,390.0,649.0,0.0,0,-949.0,1
86,86,-0.6514851048038848,-0.7,1.0,0.0,272.0,728.0,0.0,0,2000.0,1
87,87,-0.2702245588995338,-0.3,0.0,1.0,306.0,734.0,0.0,1,1960.0,0
88,88,-0.8059333669443238,-0.8,1.0,0.0,470.0,714.0,0.0,0,1816.0,1
89,89,0.5481202582378905,0.5,0.0,0.0,390.0,514.0,0.0,1,2096.0,1
90,90,0.8236965531059178,0.8,0.0,0.0,273.0,762.0,0.0,1,-955.0,1
91,91,-0.18596981587736372,-0.2,1.0,0.0,353.0,837.0,0.0,0,1810.0,1
92,92,-0.4914823934204688,-0.5,0.0,1.0,414.0,709.0,0.0,1,1877.0,0
93,93,-0.26785434616337733,-0.3,1.0,0.0,274.0,642.0,1.0,1,-906.0,0
94,94,0.47404837349523754,0.5,0.0,0.0,281.0,754.0,0.0,1,1965.0,1
95,95,-0.4722173114019831,-0.5,0.0,1.0,295.0,741.0,0.0,1,1964.0,0
96,96,-0.73623753432716,-0.7,0.0,1.0,363.0,789.0,0.0,1,1848.0,0
97,97,0.8731893028742491,0.9,0.0,0.0,392.0,783.0,0.0,1,1825.0,1
98,98,0.6998868421689192,0.7,1.0,1.0,250.0,789.0,0.0,0,1961.0,0
99,99,0.2476299796199023,0.2,0.0,0.0,304.0,791.0,0.0,1,1905.0,1
100,100,0.3844323175904124,0.4,1.0,1.0,470.0,659.0,0.0,0,1871.0,0
101,101,0.3614042400193206,0.4,1.0,1.0,292.0,674.0,0.0,0,2034.0,0
102,102,0.27669740406178633,0.3,0.0,0.0,361.0,939.0,0.0,1,1700.0,1
103,103,0.1936248334742362,0.2,1.0,1.0,413.0,888.0,0.0,0,1699.0,0
104,104,-0.6251930420746596,-0.6,0.0,1.0,400.0,534.0,0.0,1,2066.0,0
105,105,-0.09043554181245139,-0.1,1.0,0.0,254.0,596.0,0.0,0,2150.0,1
106,106,-0.313727437460236,-0.3,1.0,0.0,401.0,648.0,0.0,0,1951.0,1
107,107,-0.3530583847254405,-0.4,0.0,1.0,412.0,509.0,0.0,1,2079.0,0
108,108,0.08173653124201208,0.1,1.0,1.0,306.0,696.0,0.0,0,1998.0,0
109,109,-0.38400380732223893,-0.4,0.0,1.0,324.0,559.0,0.0,1,2117.0,0
110,110,0.21954120736013538,0.2,1.0,1.0,253.0,931.0,0.0,0,1816.0,0
111,111,-0.11186467962678892,-0.1,1.0,0.0,388.0,739.0,0.0,0,1873.0,1
112,112,0.6241974073200319,0.6,0.0,0.0,292.0,733.0,0.0,1,-775.0,1
113,113,-0.26786433160614054,-0.3,1.0,0.0,274.0,870.0,0.0,0,1856.0,1
114,114,-0.01776983359013118,-0.0,1.0,0.0,264.0,666.0,0.0,0,2070.0,1
115,115,-0.3678730293187753,-0.4,0.0,1.0,290.0,973.0,0.0,1,1737.0,0
116,116,0.3718684853843245,0.4,1.0,1.0,354.0,568.0,1.0,1,-822.0,1
117,117,0.6522776461984551,0.7,0.0,0.0,494.0,985.0,0.0,1,1521.0,1
118,118,0.5033381143778667,0.5,1.0,1.0,276.0,824.0,1.0,1,-1030.0,1
119,119,0.771608136151806,0.8,0.0,0.0,320.0,709.0,0.0,1,1971.0,1
120,120,-0.6341233232897054,-0.6,1.0,0.0,425.0,572.0,0.0,0,2003.0,1
121,121,-0.8573116202964539,-0.9,1.0,0.0,384.0,824.0,0.0,0,1792.0,1
122,122,0.8088872200064962,0.8,1.0,1.0,465.0,969.0,0.0,0,1566.0,0
123,123,-0.660385725700053,-0.7,1.0,0.0,360.0,779.0,0.0,0,1861.0,1
124,124,-0.3376066084873066,-0.3,0.0,1.0,264.0,841.0,0.0,1,1895.0,0
125,125,0.06102889271239953,0.1,1.0,1.0,417.0,546.0,0.0,0,2037.0,0
126,126,-0.7565865684140798,-0.8,1.0,0.0,313.0,835.0,0.0,0,1852.0,1
127,127,-0.13691457540283025,-0.1,0.0,1.0,286.0,688.0,0.0,1,2026.0,0
128,128,-0.3474672581669951,-0.3,0.0,1.0,448.0,901.0,0.0,1,1651.0,0
129,129,0.17127718491515476,0.2,0.0,0.0,331.0,546.0,1.0,0,-787.0,0
130,130,0.09321220154033039,0.1,0.0,0.0,299.0,589.0,0.0,1,2112.0,1
131,131,-0.43384364306609063,-0.4,1.0,0.0,342.0,678.0,0.0,0,1980.0,1
132,132,0.6926031999542995,0.7,1.0,1.0,476.0,689.0,0.0,0,1835.0,0
133,133,0.1311874818550166,0.1,1.0,1.0,426.0,705.0,0.0,0,1869.0,0
134,134,0.24819448480710593,0.2,1.0,1.0,281.0,829.0,0.0,0,1890.0,0
135,135,-0.1605912557923952,-0.2,0.0,1.0,395.0,863.0,0.0,1,1742.0,0
136,136,-0.061452036283675016,-0.1,1.0,0.0,420.0,930.0,0.0,0,1650.0,1
137,137,0.2671557190146113,0.3,1.0,1.0,421.0,944.0,0.0,0,1635.0,0
138,138,0.34483107830499626,0.3,0.0,0.0,257.0,907.0,0.0,1,1836.0,1
139,139,0.6580283163275448,0.7,1.0,1.0,268.0,720.0,0.0,0,2012.0,0
140,140,0.49913172549659135,0.5,0.0,0.0,389.0,957.0,0.0,1,1654.0,1
141,141,0.20339403154848001,0.2,0.0,0.0,496.0,719.0,0.0,1,1785.0,1
142,142,0.4947853902950513,0.5,1.0,1.0,424.0,751.0,0.0,0,1825.0,0
143,143,-0.23244947802177085,-0.2,1.0,0.0,359.0,606.0,0.0,0,2035.0,1
144,144,0.7800307103990373,0.8,1.0,1.0,471.0,924.0,0.0,0,-1385.0,0
145,145,0.5465674992433295,0.5,1.0,1.0,381.0,790.0,0.0,0,1829.0,0
146,146,0.3685257869708879,0.4,0.0,0.0,404.0,678.0,0.0,1,1918.0,1
147,147,0.6442876773836032,0.6,0.0,0.0,390.0,505.0,0.0,1,2105.0,1
148,148,-0.6325004724545067,-0.6,1.0,0.0,305.0,942.0,0.0,0,1753.0,1
149,149,0.8873247377338408,0.9,1.0,1.0,343.0,769.0,0.0,0,1888.0,0
150,150,0.8222648993498144,0.8,1.0,1.0,274.0,982.0,0.0,0,1744.0,0
151,151,-0.5152154220417695,-0.5,0.0,1.0,418.0,915.0,0.0,1,1667.0,0
152,152,0.8882584202799356,0.9,1.0,1.0,337.0,657.0,1.0,1,-984.0,1
153,153,-0.0620088746571964,-0.1,1.0,0.0,351.0,971.0,0.0,0,1678.0,1
154,154,0.5803481410676387,0.6,0.0,0.0,280.0,850.0,0.0,1,1870.0,1
155,155,0.5634790081610551,0.6,1.0,1.0,450.0,537.0,0.0,0,2013.0,0
156,156,0.7835342052322435,0.8,1.0,1.0,350.0,863.0,0.0,0,1787.0,0
157,157,-0.18542953882187752,-0.2,0.0,1.0,487.0,789.0,0.0,1,1724.0,0
158,158,0.2827656779569375,0.3,0.0,0.0,405.0,826.0,0.0,1,1769.0,1
159,159,0.6170990698876971,0.6,0.0,0.0,374.0,874.0,0.0,1,1752.0,1
160,160,-0.1399875591060319,-0.1,1.0,0.0,379.0,954.0,0.0,0,1667.0,1
161,161,0.023370029099381906,0.0,1.0,1.0,476.0,884.0,0.0,0,1640.0,0
162,162,-0.8154628017190677,-0.8,0.0,1.0,402.0,727.0,0.0,1,1871.0,0
163,163,-0.40015285222039143,-0.4,1.0,0.0,394.0,578.0,0.0,0,2028.0,1
164,164,0.6174657059008158,0.6,1.0,1.0,476.0,874.0,0.0,0,1650.0,0
165,165,0.8835555645304766,0.9,0.0,0.0,356.0,643.0,0.0,1,2001.0,1
166,166,-0.3407341018793961,-0.3,0.0,1.0,395.0,501.0,0.0,1,2104.0,0
167,167,0.3441407936857065,0.3,1.0,1.0,316.0,648.0,0.0,0,2036.0,0
168,168,-0.0840002336863136,-0.1,0.0,1.0,423.0,757.0,0.0,1,1820.0,0
169,169,-0.35840422997668453,-0.4,1.0,0.0,411.0,761.0,0.0,0,1828.0,1
170,170,0.5049193057595237,0.5,0.0,0.0,335.0,778.0,0.0,1,1887.0,1
171,171,0.7894467527972017,0.8,0.0,0.0,387.0,636.0,0.0,1,1977.0,1
172,172,0.7413971270368335,0.7,0.0,0.0,456.0,712.0,0.0,1,1832.0,1
173,173,0.5338825103549824,0.5,1.0,1.0,449.0,922.0,0.0,0,1629.0,0
174,174,-0.10183557766112761,-0.1,1.0,0.0,468.0,533.0,0.0,0,1999.0,1
175,175,0.7543614276421112,0.8,0.0,0.0,435.0,507.0,0.0,1,2058.0,1
176,176,0.7134208178335414,0.7,1.0,1.0,486.0,666.0,0.0,0,1848.0,0
177,177,-0.2650917559806084,-0.3,0.0,1.0,390.0,637.0,0.0,1,1973.0,0
178,178,-0.7243268025571861,-0.7,1.0,0.0,463.0,808.0,0.0,0,1729.0,1
179,179,-0.7719709922923663,-0.8,0.0,1.0,336.0,505.0,0.0,1,2159.0,0
180,180,-0.251977569798269,-0.3,0.0,1.0,402.0,588.0,0.0,1,2010.0,0
181,181,-0.38897352935426865,-0.4,1.0,0.0,494.0,577.0,1.0,1,-1041.0,0
182,182,-0.41457120485429444,-0.4,1.0,0.0,363.0,523.0,0.0,0,2114.0,1
183,183,-0.5747527663467948,-0.6,0.0,1.0,355.0,671.0,0.0,1,1974.0,0
184,184,0.33134920370294163,0.3,1.0,1.0,388.0,888.0,0.0,0,1724.0,0
185,185,0.8830640815933785,0.9,1.0,1.0,403.0,649.0,0.0,0,1948.0,0
186,186,0.7201765715611651,0.7,0.0,0.0,280.0,877.0,0.0,1,1843.0,1
187,187,0.8959105316580956,0.9,0.0,0.0,397.0,628.0,0.0,1,1975.0,1
188,188,-0.8490030056915597,-0.8,1.0,0.0,444.0,675.0,0.0,0,1881.0,1
189,189,-0.10016280205378991,-0.1,0.0,1.0,460.0,587.0,0.0,1,1953.0,0
190,190,-0.7610921563694037,-0.8,1.0,0.0,419.0,828.0,1.0,1,-1197.0,0
191,191,-0.4908255961354673,-0.5,0.0,1.0,373.0,903.0,0.0,1,1724.0,0
192,192,-0.8023892046756329,-0.8,0.0,1.0,354.0,679.0,0.0,1,-1023.0,0
193,193,0.08141460143175838,0.1,1.0,1.0,469.0,697.0,0.0,0,1834.0,0
194,194,-0.6303706486995146,-0.6,1.0,0.0,257.0,536.0,0.0,0,2207.0,1
195,195,0.3860536398279323,0.4,0.0,0.0,465.0,631.0,0.0,1,1904.0,1
196,196,-0.828560563178535,-0.8,0.0,1.0,363.0,831.0,0.0,1,1806.0,0
197,197,0.6466105784279522,0.6,1.0,1.0,415.0,952.0,0.0,0,1633.0,0
198,198,-0.7310739181355437,-0.7,0.0,1.0,423.0,505.0,0.0,1,2072.0,0
199,199,-0.7777355330620344,-0.8,0.0,1.0,489.0,841.0,0.0,1,1670.0,0
200,200,-0.10387037291794932,-0.1,0.0,1.0,320.0,654.0,0.0,1,2026.0,0
201,201,-0.30207613534496014,-0.3,0.0,1.0,350.0,799.0,0.0,1,1851.0,0
202,202,0.1010668870694954,0.1,1.0,1.0,486.0,937.0,0.0,0,1577.0,0
203,203,-0.769224131147003,-0.8,0.0,1.0,387.0,659.0,0.0,1,1954.0,0
204,204,-0.45453117829667133,-0.5,1.0,0.0,340.0,812.0,0.0,0,1848.0,1
205,205,-0.7642577966138377,-0.8,1.0,0.0,408.0,746.0,0.0,0,1846.0,1
206,206,-0.20940913532044803,-0.2,0.0,1.0,499.0,604.0,0.0,1,1897.0,0
207,207,-0.7895504209373978,-0.8,0.0,1.0,373.0,617.0,0.0,1,2010.0,0
208,208,-0.837126052214289,-0.8,0.0,1.0,320.0,991.0,0.0,1,1689.0,0
209,209,0.16379778084002583,0.2,0.0,0.0,447.0,662.0,0.0,1,-1059.0,1
210,210,-0.7948729339389741,-0.8,1.0,0.0,264.0,551.0,0.0,0,2185.0,1
211,211,0.6312061060111497,0.6,1.0,1.0,432.0,762.0,1.0,1,-1194.0,1
212,212,0.6388483843028036,0.6,0.0,0.0,325.0,699.0,1.0,0,-1004.0,0
213,213,0.8842380311958488,0.9,1.0,1.0,259.0,536.0,0.0,0,2205.0,0
214,214,0.8289176531784418,0.8,1.0,1.0,304.0,990.0,0.0,0,1706.0,0
215,215,-0.8195343242715487,-0.8,0.0,1.0,310.0,527.0,0.0,1,2163.0,0
216,216,0.5167371309404812,0.5,0.0,0.0,494.0,910.0,0.0,1,1596.0,1
217,217,-0.23253483950090503,-0.2,1.0,0.0,251.0,542.0,0.0,0,2207.0,1
218,218,0.7597191491252607,0.8,1.0,1.0,398.0,684.0,0.0,0,1918.0,0
219,219,0.28203347840131465,0.3,0.0,0.0,273.0,960.0,0.0,1,1767.0,1
220,220,0.556756578025894,0.6,1.0,1.0,489.0,822.0,0.0,0,1689.0,0
221,221,0.7357302915329825,0.7,1.0,1.0,301.0,786.0,0.0,0,1913.0,0
222,222,0.6741157337537972,0.7,0.0,0.0,436.0,774.0,0.0,1,1790.0,1
223,223,0.34176802200847656,0.3,0.0,0.0,449.0,585.0,0.0,1,1966.0,1
224,224,0.30380225761046964,0.3,1.0,1.0,255.0,620.0,0.0,0,2125.0,0
225,225,-0.8960594246895609,-0.9,0.0,1.0,476.0,697.0,0.0,1,1827.0,0
226,226,0.8615199655610201,0.9,1.0,1.0,262.0,632.0,0.0,0,2106.0,0
227,227,-0.2715963953918755,-0.3,0.0,1.0,298.0,773.0,0.0,1,1929.0,0
228,228,-0.07722602212941598,-0.1,1.0,0.0,420.0,639.0,0.0,0,-789.0,1
229,229,0.030789156113264937,0.0,1.0,1.0,304.0,508.0,0.0,0,2188.0,0
230,230,0.7259128449519451,0.7,1.0,1.0,339.0,723.0,0.0,0,1938.0,0
231,231,0.21087367507069465,0.2,1.0,1.0,385.0,565.0,0.0,0,-910.0,0
232,232,0.3244861394461612,0.3,0.0,0.0,472.0,658.0,0.0,1,1870.0,1
233,233,0.0015763237671140296,0.0,0.0,0.0,445.0,927.0,0.0,1,1628.0,1
234,234,0.09100783552522906,0.1,0.0,0.0,251.0,520.0,0.0,1,2229.0,1
235,235,-0.5107647289104125,-0.5,0.0,1.0,321.0,542.0,0.0,1,2137.0,0
236,236,-0.6113071477632802,-0.6,1.0,0.0,334.0,671.0,0.0,0,-885.0,1
237,237,0.2030601637359909,0.2,0.0,0.0,265.0,633.0,0.0,1,2102.0,1
238,238,-0.4550271934728875,-0.5,0.0,1.0,325.0,933.0,0.0,1,1742.0,0
239,239,-0.07257276252892719,-0.1,1.0,0.0,472.0,820.0,0.0,0,1708.0,1
240,240,-0.2817677173170613,-0.3,0.0,1.0,415.0,614.0,1.0,0,-949.0,1
241,241,0.713728020520345,0.7,0.0,0.0,282.0,718.0,0.0,1,2000.0,1
242,242,-0.6827697101854949,-0.7,1.0,0.0,261.0,596.0,0.0,0,2143.0,1
243,243,0.24345178261358413,0.2,1.0,1.0,495.0,931.0,0.0,0,1574.0,0
244,244,0.6207561568758598,0.6,1.0,1.0,276.0,921.0,0.0,0,1803.0,0
245,245,0.2886909420052478,0.3,1.0,1.0,279.0,851.0,1.0,1,-1090.0,1
246,246,0.0687967283403651,0.1,1.0,1.0,252.0,883.0,0.0,0,1865.0,0
247,247,-0.4214678719276868,-0.4,1.0,0.0,252.0,890.0,0.0,0,1858.0,1
248,248,-0.29929848404203674,-0.3,1.0,0.0,288.0,942.0,0.0,0,1770.0,1
249,249,0.4244220336059662,0.4,0.0,0.0,298.0,987.0,1.0,0,-1265.0,0
250,250,-0.44383321365917794,-0.4,1.0,0.0,291.0,927.0,0.0,0,1782.0,1
251,251,0.6047522894946488,0.6,1.0,1.0,422.0,902.0,0.0,0,1676.0,0
252,252,0.3298762674011485,0.3,1.0,1.0,436.0,575.0,0.0,0,1989.0,0
253,253,-0.70756493104762,-0.7,1.0,0.0,356.0,640.0,0.0,0,2004.0,1
254,254,0.7265533424437657,0.7,1.0,1.0,421.0,993.0,0.0,0,1586.0,0
255,255,0.2847334275526082,0.3,0.0,0.0,469.0,603.0,0.0,1,1928.0,1
256,256,-0.16353878698800983,-0.2,0.0,1.0,420.0,981.0,0.0,1,1599.0,0
257,257,0.04155995742992946,0.0,0.0,0.0,358.0,540.0,0.0,1,2102.0,1
258,258,-0.4552791280839055,-0.5,1.0,0.0,320.0,635.0,0.0,0,2045.0,1
259,259,0.7166506729810819,0.7,1.0,1.0,338.0,540.0,0.0,0,2122.0,0
260,260,0.06582115355831919,0.1,0.0,0.0,316.0,515.0,0.0,1,2169.0,1
261,261,0.67942385004601,0.7,1.0,1.0,341.0,780.0,0.0,0,1879.0,0
262,262,0.5083831328691334,0.5,0.0,0.0,479.0,504.0,0.0,1,2017.0,1
263,263,-0.21520840876707714,-0.2,0.0,1.0,414.0,526.0,0.0,1,2060.0,0
264,264,-0.06523189612719138,-0.1,1.0,0.0,341.0,651.0,0.0,0,2008.0,1
265,265,-0.18511652586504357,-0.2,1.0,0.0,410.0,962.0,0.0,0,-1302.0,1
266,266,0.0409258435851555,0.0,0.0,0.0,398.0,576.0,0.0,1,2026.0,1
267,267,-0.2552754342626038,-0.3,1.0,0.0,262.0,560.0,0.0,0,2178.0,1
268,268,-0.3438561339553209,-0.3,1.0,0.0,357.0,545.0,0.0,0,2098.0,1
269,269,0.5683464868679372,0.6,1.0,1.0,335.0,979.0,0.0,0,1686.0,0
270,270,-0.04375765704111423,-0.0,1.0,0.0,451.0,817.0,1.0,1,-1238.0,0
271,271,-0.7686698148658947,-0.8,0.0,1.0,304.0,639.0,0.0,1,2057.0,0
272,272,0.7078183453879695,0.7,1.0,1.0,467.0,622.0,0.0,0,1911.0,0
273,273,-0.23977410765986007,-0.2,1.0,0.0,265.0,952.0,0.0,0,1783.0,1
274,274,0.4353954058618109,0.4,1.0,1.0,293.0,563.0,0.0,0,2144.0,0
275,275,0.5549421407366549,0.6,0.0,0.0,329.0,520.0,0.0,1,2151.0,1
276,276,0.6792976456389043,0.7,0.0,0.0,385.0,785.0,0.0,1,1830.0,1
277,277,0.27051015643562815,0.3,0.0,0.0,294.0,752.0,0.0,1,1954.0,1
278,278,0.5112857229264595,0.5,1.0,1.0,327.0,507.0,0.0,0,2166.0,0
279,279,-0.5145245822687574,-0.5,0.0,1.0,296.0,501.0,0.0,1,2203.0,0
280,280,0.5953237450297696,0.6,1.0,1.0,445.0,845.0,0.0,0,1710.0,0
281,281,0.592525652396286,0.6,1.0,1.0,317.0,729.0,0.0,0,1954.0,0
282,282,0.4676961832064096,0.5,0.0,0.0,391.0,971.0,0.0,1,1638.0,1
283,283,0.7409312570070613,0.7,0.0,0.0,417.0,884.0,0.0,1,1699.0,1
284,284,0.3135890506312081,0.3,0.0,0.0,296.0,582.0,0.0,1,2122.0,1
285,285,-0.016504435071667323,-0.0,0.0,1.0,397.0,856.0,0.0,1,1747.0,0
286,286,-0.4038242163597178,-0.4,0.0,1.0,386.0,906.0,0.0,1,1708.0,0
287,287,-0.6437450810367832,-0.6,1.0,0.0,260.0,512.0,0.0,0,2228.0,1
288,288,0.5369529993219594,0.5,0.0,0.0,277.0,991.0,0.0,1,1732.0,1
289,289,-0.6380143988283984,-0.6,1.0,0.0,496.0,605.0,0.0,0,-1001.0,1
290,290,0.8911891012443592,0.9,0.0,0.0,453.0,904.0,0.0,1,1643.0,1
291,291,0.6184070616805383,0.6,0.0,0.0,355.0,976.0,0.0,1,1669.0,1
292,292,0.022819807734797304,0.0,1.0,1.0,334.0,594.0,0.0,0,2072.0,0
293,293,-0.4747042960846592,-0.5,1.0,0.0,255.0,648.0,0.0,0,2097.0,1
294,294,-0.1985446013813834,-0.2,1.0,0.0,266.0,806.0,0.0,0,1928.0,1
295,295,-0.7499677452207365,-0.7,1.0,0.0,380.0,866.0,0.0,0,1754.0,1
296,296,-0.7176500490722185,-0.7,1.0,0.0,348.0,805.0,0.0,0,1847.0,1
297,297,0.4938621979264398,0.5,1.0,1.0,300.0,673.0,0.0,0,2027.0,0
298,298,-0.38925640443635334,-0.4,1.0,0.0,462.0,652.0,0.0,0,1886.0,1
299,299,0.5370625085500224,0.5,0.0,0.0,299.0,593.0,0.0,1,2108.0,1
300,300,0.2199878043478195,0.2,0.0,0.0,447.0,899.0,0.0,1,1654.0,1
301,301,0.08377534202176473,0.1,0.0,0.0,316.0,504.0,0.0,1,2180.0,1
302,302,0.017382271508512015,0.0,1.0,1.0,312.0,790.0,0.0,0,1898.0,0
303,303,-0.6242122740795641,-0.6,1.0,0.0,463.0,537.0,0.0,0,2000.0,1
304,304,0.7681222914553639,0.8,1.0,1.0,320.0,596.0,1.0,1,-906.0,1
305,305,0.1449861783318277,0.1,0.0,0.0,357.0,929.0,0.0,1,1714.0,1
306,306,0.7696252195702341,0.8,0.0,0.0,258.0,672.0,0.0,1,2070.0,1
307,307,0.27970974348597955,0.3,1.0,1.0,355.0,580.0,1.0,1,-765.0,1
308,308,0.7061943451653491,0.7,0.0,0.0,358.0,587.0,0.0,1,2055.0,1
309,309,0.15543406107336677,0.2,1.0,1.0,497.0,872.0,0.0,0,1631.0,0
310,310,-0.22241142425885152,-0.2,1.0,0.0,309.0,598.0,0.0,0,2093.0,1
311,311,0.5846642878337099,0.6,1.0,1.0,390.0,537.0,0.0,0,2073.0,0
312,312,-0.8816903253891676,-0.9,1.0,0.0,264.0,591.0,0.0,0,2145.0,1
313,313,-0.5982377072694158,-0.6,0.0,1.0,375.0,996.0,1.0,0,-1341.0,1
314,314,-0.10219144011682901,-0.1,0.0,1.0,493.0,722.0,0.0,1,1785.0,0
315,315,-0.38001941840611053,-0.4,0.0,1.0,309.0,512.0,0.0,1,2179.0,0
316,316,-0.8059572156236434,-0.8,1.0,0.0,409.0,782.0,0.0,0,1809.0,1
317,317,-0.6384789121731353,-0.6,1.0,0.0,473.0,651.0,0.0,0,1876.0,1
318,318,0.6414385949066973,0.6,0.0,0.0,339.0,667.0,0.0,1,1994.0,1
319,319,-0.6207195121274314,-0.6,0.0,1.0,403.0,822.0,0.0,1,1775.0,0
320,320,-0.09601329160572902,-0.1,0.0,1.0,287.0,818.0,0.0,1,1895.0,0
321,321,-0.32081683355646606,-0.3,1.0,0.0,287.0,882.0,0.0,0,1831.0,1
322,322,-0.6814326205564291,-0.7,1.0,0.0,452.0,713.0,0.0,0,1835.0,1
323,323,-0.32896828675298506,-0.3,0.0,1.0,284.0,666.0,0.0,1,2050.0,0
324,324,0.6805411050892541,0.7,0.0,0.0,456.0,645.0,0.0,1,1899.0,1
325,325,0.7837909555855239,0.8,0.0,0.0,356.0,859.0,0.0,1,1785.0,1
326,326,-0.3408007263846661,-0.3,0.0,1.0,342.0,784.0,0.0,1,1874.0,0
327,327,0.2466176254736937,0.2,1.0,1.0,404.0,593.0,0.0,0,2003.0,0
328,328,0.5137946762386695,0.5,1.0,1.0,380.0,520.0,0.0,0,2100.0,0
329,329,-0.10341330059973153,-0.1,0.0,1.0,320.0,815.0,0.0,1,1865.0,0
330,330,0.3196122623418759,0.3,0.0,0.0,328.0,699.0,0.0,1,1973.0,1
331,331,-0.24511613767469853,-0.2,1.0,0.0,394.0,933.0,0.0,0,1673.0,1
332,332,0.5554403573118237,0.6,1.0,1.0,459.0,664.0,0.0,0,1877.0,0
333,333,0.27338795018351003,0.3,0.0,0.0,438.0,736.0,0.0,1,1826.0,1
334,334,-0.7201269116253285,-0.7,0.0,1.0,403.0,601.0,0.0,1,1996.0,0
335,335,0.39964451870782625,0.4,1.0,1.0,444.0,732.0,0.0,0,1824.0,0
336,336,-0.8775671766881172,-0.9,1.0,0.0,449.0,708.0,1.0,1,-1117.0,0
337,337,0.857595635363633,0.9,1.0,1.0,258.0,611.0,1.0,1,-799.0,1
338,338,-0.5087588708504254,-0.5,1.0,0.0,290.0,887.0,0.0,0,1823.0,1
339,339,-0.22958852908282368,-0.2,0.0,1.0,252.0,813.0,0.0,1,1935.0,0
340,340,0.851828153427827,0.9,1.0,1.0,492.0,869.0,0.0,0,1639.0,0
341,341,-0.7892731856541193,-0.8,1.0,0.0,379.0,928.0,0.0,0,1693.0,1
342,342,0.028963677522045206,0.0,0.0,0.0,348.0,661.0,0.0,1,1991.0,1
343,343,-0.8187749523546078,-0.8,0.0,1.0,393.0,623.0,0.0,1,1984.0,0
344,344,0.15142821032506426,0.2,0.0,0.0,462.0,732.0,0.0,1,1806.0,1
345,345,0.5908926688836577,0.6,0.0,0.0,429.0,653.0,0.0,1,1918.0,1
346,346,0.7550369839087626,0.8,0.0,0.0,350.0,739.0,0.0,1,1911.0,1
347,347,-0.1222757662919266,-0.1,0.0,1.0,417.0,606.0,0.0,1,1977.0,0
348,348,0.3544294670779794,0.4,0.0,0.0,424.0,820.0,0.0,1,-1174.0,1
349,349,0.8901664547221423,0.9,1.0,1.0,453.0,786.0,0.0,0,1761.0,0
350,350,0.7745362079877286,0.8,1.0,1.0,325.0,979.0,0.0,0,1696.0,0
351,351,0.4032882140743804,0.4,0.0,0.0,451.0,598.0,0.0,1,1951.0,1
352,352,-0.16200160193668944,-0.2,1.0,0.0,390.0,772.0,0.0,0,1838.0,1
353,353,0.5875105307320635,0.6,1.0,1.0,423.0,688.0,0.0,0,1889.0,0
354,354,0.17104584409461554,0.2,1.0,1.0,425.0,680.0,0.0,0,1895.0,0
355,355,0.013280242038593015,0.0,1.0,1.0,319.0,972.0,0.0,0,1709.0,0
356,356,0.2355403381448583,0.2,1.0,1.0,255.0,997.0,0.0,0,1748.0,0
357,357,0.8150972130105613,0.8,1.0,1.0,424.0,543.0,0.0,0,2033.0,0
358,358,-0.7553882879117607,-0.8,0.0,1.0,335.0,931.0,0.0,1,1734.0,0
359,359,0.7325883560224172,0.7,1.0,1.0,375.0,501.0,0.0,0,2124.0,0
360,360,-0.46287062648090593,-0.5,0.0,1.0,339.0,727.0,0.0,1,1934.0,0
361,361,0.22475783461167287,0.2,0.0,0.0,265.0,674.0,0.0,1,2061.0,1
362,362,-0.2559444196037426,-0.3,1.0,0.0,301.0,841.0,0.0,0,1858.0,1
363,363,0.2196933794805057,0.2,0.0,0.0,421.0,616.0,0.0,1,1963.0,1
364,364,-0.46712556401645083,-0.5,1.0,0.0,368.0,565.0,0.0,0,2067.0,1
365,365,0.03971448033925251,0.0,1.0,1.0,265.0,909.0,0.0,0,1826.0,0
366,366,0.852951686857003,0.9,0.0,0.0,427.0,953.0,0.0,1,-1280.0,1
367,367,-0.5241917725459286,-0.5,0.0,1.0,497.0,996.0,0.0,1,1507.0,0
368,368,0.719777779908502,0.7,0.0,0.0,451.0,911.0,0.0,1,1638.0,1
369,369,-0.6605556225011725,-0.7,1.0,0.0,368.0,948.0,0.0,0,1684.0,1
370,370,0.19411013620548123,0.2,0.0,0.0,453.0,780.0,0.0,1,1767.0,1
371,371,-0.837353494422369,-0.8,0.0,1.0,373.0,878.0,0.0,1,1749.0,0
372,372,0.41527500913422644,0.4,0.0,0.0,431.0,984.0,0.0,1,1585.0,1
373,373,0.5129348375847255,0.5,1.0,1.0,363.0,842.0,1.0,1,-1185.0,1
374,374,-0.18321374229703768,-0.2,1.0,0.0,450.0,682.0,0.0,0,1868.0,1
375,375,0.1039043979143458,0.1,0.0,0.0,423.0,735.0,0.0,1,1842.0,1
376,376,0.5377676505511605,0.5,1.0,1.0,379.0,741.0,0.0,0,1880.0,0
377,377,0.041419479125920255,0.0,0.0,0.0,262.0,996.0,0.0,1,1742.0,1
378,378,-0.4208574041503979,-0.4,1.0,0.0,415.0,533.0,0.0,0,-858.0,1
379,379,-0.4867188528784596,-0.5,1.0,0.0,440.0,507.0,0.0,0,2053.0,1
380,380,0.30684223456048454,0.3,0.0,0.0,322.0,560.0,0.0,1,2118.0,1
381,381,-0.44769296338964953,-0.4,0.0,1.0,481.0,502.0,0.0,1,2017.0,0
382,382,0.4155655434318538,0.4,1.0,1.0,399.0,749.0,1.0,1,-1118.0,1
383,383,0.05174182249805026,0.1,1.0,1.0,491.0,859.0,0.0,0,1650.0,0
384,384,-0.8631010839597503,-0.9,0.0,1.0,371.0,520.0,0.0,1,2109.0,0
385,385,-0.798362961554258,-0.8,0.0,1.0,494.0,627.0,0.0,1,1879.0,0
386,386,-0.5931668495053892,-0.6,0.0,1.0,473.0,747.0,0.0,1,1780.0,0
387,387,-0.25236407592367416,-0.3,1.0,0.0,259.0,727.0,0.0,0,2014.0,1
388,388,0.7832457212306808,0.8,1.0,1.0,422.0,971.0,0.0,0,1607.0,0
389,389,-0.008687252481502483,-0.0,1.0,0.0,374.0,514.0,0.0,0,2112.0,1
390,390,-0.11874707255407446,-0.1,0.0,1.0,407.0,629.0,0.0,1,1964.0,0
391,391,-0.7284291654702598,-0.7,0.0,1.0,423.0,873.0,1.0,0,-1246.0,1
392,392,0.6314035263241805,0.6,1.0,1.0,402.0,944.0,0.0,0,1654.0,0
393,393,0.684916620280417,0.7,1.0,1.0,330.0,549.0,0.0,0,2121.0,0
394,394,0.12537880611783014,0.1,1.0,1.0,346.0,570.0,0.0,0,2084.0,0
395,395,-0.21438394430217245,-0.2,0.0,1.0,499.0,788.0,0.0,1,1713.0,0
396,396,-0.026826894533837242,-0.0,1.0,0.0,462.0,517.0,0.0,0,2021.0,1
397,397,0.5553215442578844,0.6,1.0,1.0,369.0,703.0,0.0,0,1928.0,0
398,398,0.10015473023932342,0.1,1.0,1.0,349.0,817.0,0.0,0,1834.0,0
399,399,-0.4081872999410085,-0.4,1.0,0.0,463.0,589.0,0.0,0,1948.0,1
400,400,-0.25880035532270906,-0.3,1.0,0.0,328.0,826.0,0.0,0,1846.0,1
401,401,0.7679745958990426,0.8,1.0,1.0,477.0,976.0,0.0,0,1547.0,0
402,402,-0.0600727422732239,-0.1,0.0,1.0,384.0,695.0,0.0,1,1921.0,0
403,403,0.6545250857046804,0.7,1.0,1.0,442.0,767.0,0.0,0,1791.0,0
404,404,0.28863130677374527,0.3,0.0,0.0,466.0,686.0,0.0,1,1848.0,1
405,405,-0.8433795790426344,-0.8,0.0,1.0,466.0,950.0,0.0,1,1584.0,0
406,406,-0.06936999237237451,-0.1,1.0,0.0,290.0,738.0,0.0,0,1972.0,1
407,407,0.05761880810950604,0.1,0.0,0.0,323.0,626.0,0.0,1,2051.0,1
408,408,-0.7571981415384681,-0.8,0.0,1.0,479.0,727.0,1.0,0,-1176.0,1
409,409,-0.21981112749207965,-0.2,1.0,0.0,288.0,629.0,0.0,0,2083.0,1
410,410,0.4545414505009543,0.5,0.0,0.0,496.0,836.0,0.0,1,1668.0,1
411,411,0.4107329794454452,0.4,1.0,1.0,452.0,542.0,0.0,0,2006.0,0
412,412,-0.13048376682297647,-0.1,0.0,1.0,399.0,790.0,0.0,1,1811.0,0
413,413,0.056148757920916004,0.1,1.0,1.0,494.0,841.0,0.0,0,1665.0,0
414,414,-0.5515236302415323,-0.6,1.0,0.0,303.0,842.0,0.0,0,1855.0,1
415,415,0.7629699237938018,0.8,1.0,1.0,429.0,500.0,0.0,0,2071.0,0
416,416,0.651315521042633,0.7,1.0,1.0,344.0,519.0,0.0,0,2137.0,0
417,417,0.1482590571822383,0.1,0.0,0.0,327.0,621.0,1.0,0,-918.0,0
418,418,-0.08776785635601492,-0.1,0.0,1.0,480.0,585.0,0.0,1,1935.0,0
419,419,-0.28244512266139465,-0.3,1.0,0.0,382.0,743.0,0.0,0,1875.0,1
420,420,0.8624063584589697,0.9,1.0,1.0,302.0,797.0,1.0,1,-1079.0,1
421,421,0.1501456905346109,0.2,1.0,1.0,270.0,501.0,0.0,0,2229.0,0
422,422,-0.18620009845385943,-0.2,1.0,0.0,417.0,577.0,0.0,0,-894.0,1
423,423,-0.8456501930241429,-0.8,0.0,1.0,380.0,660.0,0.0,1,1960.0,0
424,424,-0.7112457783575509,-0.7,0.0,1.0,456.0,598.0,1.0,0,-904.0,1
425,425,0.7051582525166992,0.7,1.0,1.0,433.0,702.0,0.0,0,1865.0,0
426,426,-0.1098508364648002,-0.1,0.0,1.0,361.0,632.0,0.0,1,2007.0,0
427,427,0.40277040150051235,0.4,0.0,0.0,421.0,714.0,0.0,1,1865.0,1
428,428,0.5699098004738697,0.6,1.0,1.0,313.0,672.0,0.0,0,2015.0,0
429,429,0.5496199924494952,0.5,1.0,1.0,355.0,504.0,0.0,0,2141.0,0
430,430,-0.21236265688882605,-0.2,0.0,1.0,255.0,729.0,0.0,1,2016.0,0
431,431,0.1854841962668422,0.2,0.0,0.0,350.0,626.0,0.0,1,2024.0,1
432,432,-0.5646596768421761,-0.6,0.0,1.0,438.0,679.0,0.0,1,-1067.0,0
433,433,-0.8457378436776671,-0.8,1.0,0.0,353.0,674.0,0.0,0,1973.0,1
434,434,0.05401859375171758,0.1,1.0,1.0,479.0,817.0,0.0,0,1704.0,0
435,435,0.6491590158850981,0.6,0.0,0.0,297.0,503.0,0.0,1,2200.0,1
436,436,-0.14547464241425034,-0.1,1.0,0.0,441.0,625.0,0.0,0,1934.0,1
437,437,-0.06729768756892562,-0.1,1.0,0.0,313.0,538.0,0.0,0,2149.0,1
438,438,0.13903351082999083,0.1,1.0,1.0,264.0,911.0,1.0,1,-1165.0,1
439,439,0.16069557142034807,0.2,1.0,1.0,458.0,889.0,0.0,0,1653.0,0
440,440,0.11733284611667216,0.1,1.0,1.0,436.0,627.0,0.0,0,1937.0,0
441,441,-0.07707809687716327,-0.1,1.0,0.0,330.0,505.0,0.0,0,2165.0,1
442,442,0.8770223801744034,0.9,0.0,0.0,272.0,611.0,0.0,1,2117.0,1
443,443,0.03856370401492337,0.0,0.0,0.0,350.0,661.0,0.0,1,1989.0,1
444,444,0.26795633881319614,0.3,1.0,1.0,282.0,659.0,0.0,0,2059.0,0
445,445,0.3870849453996593,0.4,0.0,0.0,259.0,957.0,0.0,1,1784.0,1
446,446,0.28052872885870095,0.3,1.0,1.0,312.0,897.0,0.0,0,1791.0,0
447,447,0.33149036295762946,0.3,1.0,1.0,386.0,757.0,0.0,0,-983.0,0
448,448,0.13464356183047432,0.1,0.0,0.0,338.0,515.0,0.0,1,2147.0,1
449,449,-0.34260160956657326,-0.3,1.0,0.0,292.0,824.0,0.0,0,1884.0,1
450,450,-0.8322814950712604,-0.8,1.0,0.0,457.0,832.0,0.0,0,1711.0,1
451,451,-0.32887212149479006,-0.3,0.0,1.0,345.0,762.0,1.0,0,-1057.0,1
452,452,0.6725314292272137,0.7,1.0,1.0,483.0,507.0,0.0,0,2010.0,0
453,453,0.008891770826132461,0.0,0.0,0.0,331.0,507.0,0.0,1,2162.0,1
454,454,-0.6707945765435775,-0.7,1.0,0.0,287.0,622.0,0.0,0,2091.0,1
455,455,0.15279974458472279,0.2,0.0,0.0,250.0,791.0,0.0,1,1959.0,1
456,456,0.20065169955116657,0.2,0.0,0.0,304.0,663.0,0.0,1,2033.0,1
457,457,0.40977634375390537,0.4,1.0,1.0,361.0,698.0,0.0,0,1941.0,0
458,458,0.6741592667840276,0.7,1.0,1.0,394.0,682.0,1.0,1,-1056.0,1
459,459,-0.13193146688205137,-0.1,1.0,0.0,326.0,771.0,0.0,0,1903.0,1
460,460,-0.3281109776682578,-0.3,0.0,1.0,293.0,906.0,0.0,1,1801.0,0
461,461,-0.4091420834284069,-0.4,0.0,1.0,268.0,982.0,0.0,1,1750.0,0
462,462,0.04999252687307276,0.0,0.0,0.0,369.0,808.0,0.0,1,1823.0,1
463,463,0.740288451265568,0.7,1.0,1.0,374.0,685.0,0.0,0,1941.0,0
464,464,-0.8902451805259792,-0.9,0.0,1.0,319.0,724.0,0.0,1,1957.0,0
465,465,0.2993094608160768,0.3,1.0,1.0,406.0,621.0,0.0,0,1973.0,0
466,466,0.6031676494441499,0.6,0.0,0.0,348.0,675.0,0.0,1,1977.0,1
467,467,-0.8660200964236539,-0.9,1.0,0.0,413.0,591.0,0.0,0,1996.0,1
468,468,-0.1731459648707543,-0.2,0.0,1.0,458.0,610.0,0.0,1,1932.0,0
469,469,-0.8710318377270262,-0.9,0.0,1.0,408.0,989.0,0.0,1,-1347.0,0
470,470,0.3375420265749528,0.3,1.0,1.0,396.0,974.0,0.0,0,1630.0,0
471,471,0.36884002157040674,0.4,1.0,1.0,394.0,615.0,0.0,0,1991.0,0
472,472,-0.23949726097201984,-0.2,1.0,0.0,274.0,783.0,0.0,0,1943.0,1
473,473,0.4188981637500845,0.4,0.0,0.0,489.0,642.0,1.0,0,-1041.0,0
474,474,-0.03521703975460089,-0.0,0.0,1.0,420.0,831.0,0.0,1,1749.0,0
475,475,-0.04333499367351923,-0.0,1.0,0.0,347.0,619.0,1.0,1,-956.0,0
476,476,0.6919979600857923,0.7,0.0,0.0,283.0,813.0,0.0,1,1904.0,1
477,477,-0.8810236008675969,-0.9,1.0,0.0,301.0,856.0,0.0,0,1843.0,1
478,478,0.425488695636013,0.4,1.0,1.0,293.0,734.0,0.0,0,1973.0,0
479,479,-0.05957622835618881,-0.1,0.0,1.0,449.0,808.0,0.0,1,1743.0,0
480,480,0.46012456928547085,0.5,0.0,0.0,267.0,932.0,0.0,1,1801.0,1
481,481,-0.4270304516963983,-0.4,0.0,1.0,476.0,705.0,0.0,1,1819.0,0
482,482,-0.6935698175806412,-0.7,1.0,0.0,494.0,594.0,0.0,0,1912.0,1
483,483,0.5501435915119673,0.6,0.0,0.0,253.0,567.0,0.0,1,2180.0,1
484,484,0.18231186151823253,0.2,1.0,1.0,334.0,926.0,0.0,0,1740.0,0
485,485,-0.452212773604223,-0.5,0.0,1.0,444.0,808.0,0.0,1,1748.0,0
486,486,0.11725457237545223,0.1,0.0,0.0,297.0,876.0,0.0,1,1827.0,1
487,487,-0.35731897300327087,-0.4,1.0,0.0,470.0,670.0,0.0,0,1860.0,1
488,488,-0.4966699388511614,-0.5,1.0,0.0,317.0,549.0,0.0,0,-836.0,1
489,489,-0.18715593071181547,-0.2,1.0,0.0,324.0,654.0,0.0,0,2022.0,1
490,490,-0.13959305459669802,-0.1,1.0,0.0,334.0,920.0,0.0,0,1746.0,1
491,491,-0.3282864870538197,-0.3,1.0,0.0,475.0,735.0,0.0,0,1790.0,1
492,492,-0.09109787414998005,-0.1,1.0,0.0,390.0,988.0,0.0,0,1622.0,1
493,493,-0.11476136891024602,-0.1,0.0,1.0,373.0,723.0,0.0,1,1904.0,0
494,494,0.1530501727724699,0.2,1.0,1.0,345.0,850.0,0.0,0,1805.0,0
495,495,0.23453216757263984,0.2,1.0,1.0,281.0,743.0,0.0,0,1976.0,0
496,496,-0.21085125041097041,-0.2,1.0,0.0,395.0,670.0,0.0,0,1935.0,1
497,497,0.20020473835797603,0.2,0.0,0.0,432.0,709.0,0.0,1,1859.0,1
498,498,0.23406324737719986,0.2,1.0,1.0,341.0,819.0,0.0,0,1840.0,0
499,499,0.08275609810310047,0.1,1.0,1.0,251.0,520.0,0.0,0,2229.0,0
500,500,0.6325431572229322,0.6,1.0,1.0,411.0,743.0,0.0,0,1846.0,0
501,501,0.5498960222409871,0.5,0.0,0.0,269.0,578.0,0.0,1,-827.0,1
502,502,0.8776726910082068,0.9,0.0,0.0,410.0,509.0,0.0,1,2081.0,1
503,503,0.03919908141985062,0.0,1.0,1.0,335.0,857.0,0.0,0,1808.0,0
504,504,0.450958508126477,0.5,1.0,1.0,319.0,601.0,0.0,0,2080.0,0
505,505,0.8713892991415814,0.9,1.0,1.0,489.0,875.0,0.0,0,1636.0,0
506,506,0.8851373139560738,0.9,0.0,0.0,481.0,549.0,0.0,1,1970.0,1
507,507,0.0820007281967543,0.1,0.0,0.0,417.0,829.0,0.0,1,-1026.0,1
508,508,-0.83546890666615,-0.8,1.0,0.0,488.0,610.0,0.0,0,1902.0,1
509,509,0.5915740140720857,0.6,1.0,1.0,487.0,936.0,0.0,0,1577.0,0
510,510,-0.2615918710651659,-0.3,0.0,1.0,389.0,757.0,1.0,0,-1076.0,1
511,511,0.7801354404899256,0.8,1.0,1.0,427.0,815.0,0.0,0,-1152.0,0
512,512,0.37610546821248436,0.4,0.0,0.0,307.0,535.0,0.0,1,2158.0,1
513,513,-0.20938960459627964,-0.2,0.0,1.0,425.0,821.0,0.0,1,-1206.0,0
514,514,-0.5967518868859467,-0.6,0.0,1.0,323.0,648.0,0.0,1,2029.0,0
515,515,-0.19059535950116047,-0.2,1.0,0.0,494.0,527.0,0.0,0,1979.0,1
516,516,0.3360227161850208,0.3,1.0,1.0,369.0,645.0,0.0,0,1986.0,0
517,517,0.2967870051850975,0.3,0.0,0.0,455.0,645.0,0.0,1,1900.0,1
518,518,0.3452908619299494,0.3,1.0,1.0,487.0,913.0,0.0,0,1600.0,0
519,519,0.6838363720224193,0.7,0.0,0.0,322.0,844.0,0.0,1,1834.0,1
520,520,-0.16617931417056175,-0.2,0.0,1.0,330.0,704.0,0.0,1,1966.0,0
521,521,-0.5094959804755321,-0.5,0.0,1.0,273.0,690.0,0.0,1,2037.0,0
522,522,0.7580402647207268,0.8,1.0,1.0,305.0,799.0,0.0,0,1896.0,0
523,523,0.7753112464769326,0.8,0.0,0.0,296.0,590.0,0.0,1,2114.0,1
524,524,0.6064113773096801,0.6,1.0,1.0,250.0,688.0,0.0,0,2062.0,0
525,525,0.517734810925978,0.5,0.0,0.0,291.0,771.0,0.0,1,1938.0,1
526,526,-0.6862781440489254,-0.7,0.0,1.0,452.0,679.0,0.0,1,1869.0,0
527,527,0.46921067824276064,0.5,0.0,0.0,288.0,859.0,0.0,1,1853.0,1
528,528,0.8109196625911946,0.8,1.0,1.0,440.0,805.0,0.0,0,1755.0,0
529,529,-0.8217353578176089,-0.8,1.0,0.0,435.0,597.0,0.0,0,1968.0,1
530,530,0.21425186385906814,0.2,1.0,1.0,356.0,586.0,0.0,0,2058.0,0
531,531,-0.6933952506462646,-0.7,0.0,1.0,354.0,622.0,0.0,1,2024.0,0
532,532,-0.5358194640918696,-0.5,0.0,1.0,255.0,878.0,0.0,1,-1063.0,0
533,533,-0.70691497869363,-0.7,0.0,1.0,305.0,901.0,0.0,1,1794.0,0
534,534,0.1199879527746971,0.1,0.0,0.0,284.0,965.0,0.0,1,1751.0,1
535,535,0.7856444776657935,0.8,1.0,1.0,367.0,597.0,0.0,0,2036.0,0
536,536,-0.2782306009600739,-0.3,0.0,1.0,349.0,885.0,0.0,1,1766.0,0
537,537,0.07593978269060686,0.1,1.0,1.0,327.0,589.0,0.0,0,2084.0,0
538,538,-0.006776590711900621,-0.0,0.0,1.0,455.0,654.0,0.0,1,1891.0,0
539,539,-0.7754268364409913,-0.8,1.0,0.0,407.0,563.0,1.0,1,-880.0,0
540,540,0.3200767668211312,0.3,0.0,0.0,417.0,913.0,0.0,1,1670.0,1
541,541,-0.11901285209260237,-0.1,1.0,0.0,334.0,555.0,0.0,0,2111.0,1
542,542,0.20964418825558184,0.2,1.0,1.0,389.0,507.0,0.0,0,2104.0,0
543,543,0.8732718896874753,0.9,1.0,1.0,429.0,520.0,0.0,0,2051.0,0
544,544,0.5599647874086832,0.6,0.0,0.0,271.0,967.0,0.0,1,1762.0,1
545,545,0.8164077638489456,0.8,1.0,1.0,352.0,818.0,0.0,0,1830.0,0
546,546,0.0774602066349156,0.1,0.0,0.0,475.0,568.0,0.0,1,1957.0,1
547,547,0.004853977988327318,0.0,0.0,0.0,434.0,880.0,0.0,1,1686.0,1
548,548,0.8782866497521092,0.9,1.0,1.0,327.0,712.0,0.0,0,1961.0,0
549,549,0.8506334720110605,0.9,1.0,1.0,344.0,592.0,0.0,0,2064.0,0
550,550,-0.8806627944244101,-0.9,1.0,0.0,468.0,747.0,0.0,0,1785.0,1
551,551,0.8838808511389121,0.9,1.0,1.0,326.0,762.0,0.0,0,1912.0,0
552,552,-0.12348132698774472,-0.1,1.0,0.0,430.0,983.0,0.0,0,1587.0,1
553,553,-0.3341426928978779,-0.3,0.0,1.0,401.0,657.0,0.0,1,1942.0,0
554,554,0.5937108966678001,0.6,1.0,1.0,464.0,724.0,0.0,0,1812.0,0
555,555,-0.026025994421119303,-0.0,0.0,1.0,429.0,990.0,0.0,1,1581.0,0
556,556,-0.14952381856071295,-0.1,1.0,0.0,323.0,665.0,0.0,0,2012.0,1
557,557,-0.8543784407766215,-0.9,1.0,0.0,302.0,993.0,0.0,0,1705.0,1
558,558,0.5369970123098654,0.5,1.0,1.0,459.0,520.0,0.0,0,2021.0,0
559,559,0.5517771700273123,0.6,0.0,0.0,356.0,677.0,0.0,1,1967.0,1
560,560,-0.1742237217768412,-0.2,0.0,1.0,492.0,759.0,0.0,1,1749.0,0
561,561,0.582097892290263,0.6,1.0,1.0,405.0,666.0,0.0,0,1929.0,0
562,562,0.19437069448524824,0.2,0.0,0.0,324.0,570.0,0.0,1,2106.0,1
563,563,0.12150257341311199,0.1,1.0,1.0,467.0,968.0,0.0,0,1565.0,0
564,564,-0.2025839523815477,-0.2,0.0,1.0,324.0,662.0,0.0,1,2014.0,0
565,565,0.6386101877903273,0.6,0.0,0.0,276.0,780.0,0.0,1,1944.0,1
566,566,-0.08322406536487736,-0.1,0.0,1.0,265.0,584.0,0.0,1,2151.0,0
567,567,0.6660763384259091,0.7,0.0,0.0,361.0,796.0,0.0,1,1843.0,1
568,568,-0.22922063618502453,-0.2,0.0,1.0,439.0,877.0,0.0,1,1684.0,0
569,569,-0.145037310375855,-0.1,1.0,0.0,453.0,683.0,1.0,1,-1086.0,0
570,570,-0.08424790910852398,-0.1,1.0,0.0,399.0,592.0,0.0,0,2009.0,1
571,571,-0.3877284679796905,-0.4,0.0,1.0,483.0,645.0,0.0,1,1872.0,0
572,572,0.22746913956298787,0.2,1.0,1.0,266.0,955.0,0.0,0,1779.0,0
573,573,0.21085349186247704,0.2,0.0,0.0,478.0,741.0,0.0,1,1781.0,1
574,574,-0.5023038658232498,-0.5,0.0,1.0,495.0,509.0,0.0,1,1996.0,0
575,575,0.6596927613338318,0.7,1.0,1.0,340.0,704.0,0.0,0,1956.0,0
576,576,0.5607366802460577,0.6,0.0,0.0,411.0,665.0,0.0,1,1924.0,1
577,577,0.7955133253717325,0.8,1.0,1.0,471.0,675.0,0.0,0,-1136.0,0
578,578,0.6411069271112507,0.6,0.0,0.0,486.0,802.0,0.0,1,1712.0,1
579,579,0.8891791199671143,0.9,0.0,0.0,363.0,632.0,0.0,1,2005.0,1
580,580,-0.24208783987523874,-0.2,1.0,0.0,497.0,767.0,0.0,0,-1124.0,1
581,581,-0.199856659560271,-0.2,0.0,1.0,375.0,933.0,0.0,1,1692.0,0
582,582,-0.4243120974791993,-0.4,0.0,1.0,325.0,784.0,0.0,1,1891.0,0
583,583,-0.8252979892363954,-0.8,1.0,0.0,330.0,847.0,0.0,0,1823.0,1
584,584,-0.7529020464949576,-0.8,1.0,0.0,439.0,862.0,0.0,0,1699.0,1
585,585,0.8436516190145592,0.8,1.0,1.0,408.0,694.0,0.0,0,1898.0,0
586,586,-0.20190786317968257,-0.2,0.0,1.0,324.0,574.0,0.0,1,2102.0,0
587,587,0.4426843106440216,0.4,0.0,0.0,441.0,793.0,0.0,1,1766.0,1
588,588,-0.23402414902365976,-0.2,1.0,0.0,318.0,529.0,0.0,0,2153.0,1
589,589,-0.3234649895452891,-0.3,0.0,1.0,352.0,609.0,0.0,1,-921.0,0
590,590,-0.6649850489700054,-0.7,1.0,0.0,476.0,615.0,0.0,0,1909.0,1
591,591,0.7477906909657753,0.7,1.0,1.0,288.0,723.0,0.0,0,1989.0,0
592,592,-0.6998840216128595,-0.7,0.0,1.0,445.0,733.0,0.0,1,1822.0,0
593,593,0.2712298162746273,0.3,1.0,1.0,395.0,790.0,1.0,1,-1175.0,1
594,594,-0.6671724126453416,-0.7,1.0,0.0,311.0,546.0,0.0,0,2143.0,1
595,595,0.8614850937347595,0.9,1.0,1.0,342.0,544.0,0.0,0,2114.0,0
596,596,0.6627206098083117,0.7,1.0,1.0,337.0,877.0,0.0,0,1786.0,0
597,597,0.8459704645321126,0.8,0.0,0.0,405.0,540.0,0.0,1,2055.0,1
598,598,0.8887671188628553,0.9,1.0,1.0,418.0,881.0,1.0,1,-1259.0,1
599,599,0.09318229458032712,0.1,0.0,0.0,277.0,821.0,0.0,1,1902.0,1
600,600,-0.3529692580227406,-0.4,1.0,0.0,489.0,738.0,0.0,0,1773.0,1
601,601,0.08335337823722666,0.1,0.0,0.0,482.0,704.0,0.0,1,1814.0,1
602,602,0.45435457021717485,0.5,1.0,1.0,473.0,765.0,0.0,0,1762.0,0
603,603,-0.7011491979661995,-0.7,0.0,1.0,452.0,714.0,0.0,1,1834.0,0
604,604,-0.031536703092782004,-0.0,1.0,0.0,367.0,877.0,0.0,0,1756.0,1
605,605,-0.3276230315022507,-0.3,0.0,1.0,285.0,517.0,0.0,1,2198.0,0
606,606,0.8785148106856627,0.9,1.0,1.0,417.0,629.0,0.0,0,1954.0,0
607,607,-0.7598065944084591,-0.8,0.0,1.0,255.0,990.0,0.0,1,1755.0,0
608,608,-0.062114640503746044,-0.1,1.0,0.0,354.0,694.0,0.0,0,1952.0,1
609,609,-0.8420982903060618,-0.8,0.0,1.0,368.0,769.0,0.0,1,1863.0,0
610,610,0.8186917840929692,0.8,0.0,0.0,355.0,861.0,0.0,1,1784.0,1
611,611,-0.7553766470597996,-0.8,1.0,0.0,257.0,801.0,0.0,0,1942.0,1
612,612,-0.8156200554911939,-0.8,1.0,0.0,364.0,621.0,0.0,0,2015.0,1
613,613,0.4552539004399899,0.5,1.0,1.0,498.0,822.0,0.0,0,1680.0,0
614,614,0.4068358820474861,0.4,1.0,1.0,326.0,886.0,0.0,0,1788.0,0
615,615,-0.2868619676563464,-0.3,0.0,1.0,392.0,827.0,0.0,1,1781.0,0
616,616,-0.271889052828286,-0.3,0.0,1.0,425.0,790.0,0.0,1,1785.0,0
617,617,0.3340930772162255,0.3,0.0,0.0,257.0,602.0,0.0,1,2141.0,1
618,618,0.3705750033870304,0.4,0.0,0.0,475.0,651.0,0.0,1,1874.0,1
619,619,0.783707454401055,0.8,0.0,0.0,356.0,679.0,0.0,1,1965.0,1
620,620,-0.4417580266617528,-0.4,1.0,0.0,251.0,675.0,0.0,0,2074.0,1
621,621,0.7457181224277861,0.7,1.0,1.0,395.0,810.0,0.0,0,1795.0,0
622,622,-0.03944065288956322,-0.0,0.0,1.0,326.0,764.0,0.0,1,1910.0,0
623,623,0.18278066610455312,0.2,1.0,1.0,314.0,905.0,1.0,1,-1079.0,1
624,624,0.7067934654760487,0.7,1.0,1.0,378.0,917.0,0.0,0,1705.0,0
625,625,0.6761058979287721,0.7,0.0,0.0,466.0,959.0,0.0,1,1575.0,1
626,626,0.6712780730919755,0.7,0.0,0.0,374.0,713.0,0.0,1,1913.0,1
627,627,-0.09014349460756377,-0.1,1.0,0.0,368.0,991.0,0.0,0,1641.0,1
628,628,-0.5708080540239935,-0.6,1.0,0.0,402.0,705.0,1.0,1,-947.0,0
629,629,0.6763470722792321,0.7,1.0,1.0,343.0,911.0,0.0,0,1746.0,0
630,630,0.13081525209466982,0.1,1.0,1.0,411.0,730.0,0.0,0,1859.0,0
631,631,-0.478113329120234,-0.5,0.0,1.0,392.0,755.0,0.0,1,1853.0,0
632,632,-0.2137758227703529,-0.2,0.0,1.0,415.0,831.0,0.0,1,1754.0,0
633,633,-0.07170912743873947,-0.1,1.0,0.0,456.0,660.0,0.0,0,1884.0,1
634,634,-0.25585879347038576,-0.3,1.0,0.0,291.0,854.0,0.0,0,1855.0,1
635,635,0.8637312789269967,0.9,1.0,1.0,305.0,755.0,0.0,0,1940.0,0
636,636,-0.10480622861746514,-0.1,0.0,1.0,476.0,535.0,0.0,1,1989.0,0
637,637,-0.6415160271279774,-0.6,1.0,0.0,428.0,747.0,0.0,0,1825.0,1
638,638,0.17370600022998361,0.2,1.0,1.0,419.0,840.0,0.0,0,1741.0,0
639,639,-0.7566943223418311,-0.8,0.0,1.0,444.0,844.0,0.0,1,1712.0,0
640,640,-0.2472501505930953,-0.2,0.0,1.0,408.0,676.0,0.0,1,1916.0,0
641,641,0.8434137188857947,0.8,0.0,0.0,386.0,926.0,0.0,1,1688.0,1
642,642,-0.3401180472066444,-0.3,1.0,0.0,252.0,709.0,0.0,0,2039.0,1
643,643,-0.14926051897986725,-0.1,0.0,1.0,276.0,888.0,0.0,1,1836.0,0
644,644,-0.4328606295780793,-0.4,1.0,0.0,427.0,550.0,0.0,0,2023.0,1
645,645,0.31286412128866437,0.3,0.0,0.0,422.0,524.0,0.0,1,2054.0,1
646,646,0.22752328837479718,0.2,1.0,1.0,430.0,765.0,0.0,0,1805.0,0
647,647,0.057774777433706404,0.1,1.0,1.0,473.0,664.0,0.0,0,1863.0,0
648,648,-0.6671830101034866,-0.7,0.0,1.0,314.0,966.0,1.0,0,-1180.0,1
649,649,0.6399580694940447,0.6,0.0,0.0,402.0,505.0,0.0,1,2093.0,1
650,650,0.24311771005966631,0.2,0.0,0.0,340.0,750.0,0.0,1,1910.0,1
651,651,0.6421074442775833,0.6,1.0,1.0,266.0,885.0,0.0,0,1849.0,0
652,652,0.858526222163894,0.9,1.0,1.0,461.0,901.0,0.0,0,1638.0,0
653,653,0.409485604135405,0.4,0.0,0.0,266.0,842.0,0.0,1,1892.0,1
654,654,-0.19045275979251197,-0.2,0.0,1.0,304.0,591.0,0.0,1,2105.0,0
655,655,-0.0014829843585637548,-0.0,0.0,1.0,460.0,744.0,0.0,1,1796.0,0
656,656,0.0713654783814528,0.1,0.0,0.0,408.0,986.0,0.0,1,1606.0,1
657,657,0.16740454994518827,0.2,0.0,0.0,313.0,590.0,0.0,1,2097.0,1
658,658,-0.7480141595395671,-0.7,1.0,0.0,360.0,886.0,0.0,0,1754.0,1
659,659,0.7314652678790495,0.7,0.0,0.0,451.0,745.0,0.0,1,1804.0,1
660,660,-0.5550642715194922,-0.6,1.0,0.0,367.0,966.0,0.0,0,1667.0,1
661,661,-0.5403854024330927,-0.5,1.0,0.0,439.0,698.0,1.0,1,-1077.0,0
662,662,0.016869912062600467,0.0,1.0,1.0,456.0,831.0,0.0,0,1713.0,0
663,663,0.23166616765924364,0.2,0.0,0.0,314.0,543.0,0.0,1,2143.0,1
664,664,-0.4064158884705901,-0.4,0.0,1.0,402.0,557.0,0.0,1,2041.0,0
665,665,0.11137448316088838,0.1,1.0,1.0,274.0,891.0,0.0,0,1835.0,0
666,666,0.6355795081700736,0.6,1.0,1.0,313.0,734.0,0.0,0,1953.0,0
667,667,0.6020849954420059,0.6,1.0,1.0,277.0,795.0,0.0,0,1928.0,0
668,668,-0.08233039228261974,-0.1,0.0,1.0,444.0,952.0,0.0,1,1604.0,0
669,669,-0.8696164147819017,-0.9,0.0,1.0,316.0,838.0,0.0,1,1846.0,0
670,670,-0.33899620205557224,-0.3,1.0,0.0,346.0,592.0,0.0,0,2062.0,1
671,671,0.08529403580168826,0.1,1.0,1.0,289.0,997.0,0.0,0,1714.0,0
672,672,0.25958268470568024,0.3,0.0,0.0,432.0,572.0,0.0,1,-954.0,1
673,673,0.7914249316375727,0.8,0.0,0.0,280.0,578.0,0.0,1,2142.0,1
674,674,0.2870084815992243,0.3,1.0,1.0,372.0,649.0,0.0,0,-1011.0,0
675,675,0.476892986996161,0.5,0.0,0.0,349.0,720.0,0.0,1,1931.0,1
676,676,0.6003004322584008,0.6,1.0,1.0,370.0,596.0,0.0,0,2034.0,0
677,677,-0.28392024896538604,-0.3,0.0,1.0,334.0,796.0,0.0,1,1870.0,0
678,678,0.39199401491516095,0.4,0.0,0.0,346.0,956.0,0.0,1,1698.0,1
679,679,0.4490475093965366,0.4,0.0,0.0,498.0,711.0,0.0,1,1791.0,1
680,680,0.6256994354424096,0.6,1.0,1.0,345.0,987.0,0.0,0,1668.0,0
681,681,0.5116700647837092,0.5,1.0,1.0,366.0,766.0,0.0,0,1868.0,0
682,682,-0.06947232913158763,-0.1,1.0,0.0,274.0,504.0,0.0,0,2222.0,1
683,683,-0.26242936474196665,-0.3,1.0,0.0,307.0,974.0,0.0,0,1719.0,1
684,684,0.49491048885128175,0.5,0.0,0.0,338.0,939.0,0.0,1,1723.0,1
685,685,0.15613245228717043,0.2,0.0,0.0,430.0,947.0,0.0,1,1623.0,1
686,686,0.4501254052664615,0.5,1.0,1.0,261.0,710.0,0.0,0,2029.0,0
687,687,0.09063682593672728,0.1,1.0,1.0,285.0,831.0,0.0,0,1884.0,0
688,688,0.542008672876429,0.5,1.0,1.0,424.0,947.0,0.0,0,1629.0,0
689,689,-0.8889009782621801,-0.9,0.0,1.0,483.0,957.0,0.0,1,1560.0,0
690,690,0.5506534647430329,0.6,0.0,0.0,272.0,884.0,0.0,1,1844.0,1
691,691,-0.4387650776658733,-0.4,1.0,0.0,413.0,633.0,0.0,0,1954.0,1
692,692,-0.46700900637752946,-0.5,1.0,0.0,475.0,927.0,0.0,0,1598.0,1
693,693,0.48181781640294596,0.5,1.0,1.0,286.0,876.0,0.0,0,1838.0,0
694,694,0.002047196409677543,0.0,1.0,1.0,253.0,585.0,0.0,0,-838.0,0
695,695,-0.6402173087386088,-0.6,0.0,1.0,275.0,724.0,0.0,1,2001.0,0
696,696,0.0038296502831838275,0.0,0.0,0.0,355.0,743.0,0.0,1,-1088.0,1
697,697,0.7635222867366741,0.8,1.0,1.0,478.0,534.0,0.0,0,1988.0,0
698,698,-0.37720831475676997,-0.4,1.0,0.0,318.0,572.0,0.0,0,2110.0,1
699,699,-0.5676741376907017,-0.6,1.0,0.0,399.0,895.0,0.0,0,1706.0,1
700,700,-0.3675814781566563,-0.4,1.0,0.0,344.0,516.0,0.0,0,2140.0,1
701,701,0.6433525537661607,0.6,1.0,1.0,361.0,710.0,0.0,0,1929.0,0
702,702,0.8450786933126552,0.8,1.0,1.0,252.0,512.0,0.0,0,2236.0,0
703,703,0.4698355281766923,0.5,1.0,1.0,482.0,842.0,1.0,1,-1294.0,1
704,704,0.4252516293334839,0.4,1.0,1.0,374.0,779.0,0.0,0,1847.0,0
705,705,0.794488919060819,0.8,0.0,0.0,283.0,721.0,0.0,1,1996.0,1
706,706,0.4689628635960684,0.5,0.0,0.0,449.0,819.0,0.0,1,1732.0,1
707,707,0.03642680114959973,0.0,0.0,0.0,264.0,676.0,0.0,1,-940.0,1
708,708,0.4792611343887453,0.5,1.0,1.0,391.0,519.0,0.0,0,2090.0,0
709,709,0.29918780988520954,0.3,1.0,1.0,298.0,642.0,0.0,0,2060.0,0
710,710,0.1496921017728029,0.1,1.0,1.0,430.0,980.0,0.0,0,1590.0,0
711,711,0.7877072185515107,0.8,0.0,0.0,309.0,866.0,0.0,1,1825.0,1
712,712,0.7231838153008606,0.7,1.0,1.0,475.0,909.0,0.0,0,1616.0,0
713,713,0.7720305720628357,0.8,0.0,0.0,255.0,644.0,0.0,1,-879.0,1
714,714,0.6910913343276478,0.7,0.0,0.0,295.0,502.0,0.0,1,2203.0,1
715,715,0.2104364639102988,0.2,1.0,1.0,394.0,808.0,0.0,0,1798.0,0
716,716,-0.339926583179205,-0.3,0.0,1.0,286.0,672.0,0.0,1,2042.0,0
717,717,0.8595144259962729,0.9,0.0,0.0,278.0,515.0,0.0,1,2207.0,1
718,718,-0.7222319495360333,-0.7,0.0,1.0,295.0,725.0,0.0,1,1980.0,0
719,719,0.3352123321779895,0.3,0.0,0.0,467.0,818.0,0.0,1,1715.0,1
720,720,-0.31781643704812945,-0.3,0.0,1.0,279.0,523.0,0.0,1,2198.0,0
721,721,-0.702242976918362,-0.7,1.0,0.0,358.0,828.0,0.0,0,1814.0,1
722,722,0.8328619752627276,0.8,0.0,0.0,499.0,811.0,0.0,1,1690.0,1
723,723,0.6948976109570927,0.7,1.0,1.0,362.0,966.0,0.0,0,1672.0,0
724,724,0.007693816626988426,0.0,0.0,0.0,448.0,833.0,0.0,1,1719.0,1
725,725,0.5196828141786497,0.5,1.0,1.0,447.0,594.0,0.0,0,1959.0,0
726,726,-0.15387190287316532,-0.2,0.0,1.0,338.0,824.0,0.0,1,-1132.0,0
727,727,0.30903447131564754,0.3,1.0,1.0,367.0,889.0,0.0,0,1744.0,0
728,728,-0.6761741896553926,-0.7,0.0,1.0,256.0,600.0,0.0,1,2144.0,0
729,729,-0.02445435007112684,-0.0,1.0,0.0,426.0,952.0,0.0,0,1622.0,1
730,730,0.043662742760606665,0.0,0.0,0.0,264.0,889.0,0.0,1,1847.0,1
731,731,-0.09966974892926705,-0.1,1.0,0.0,313.0,960.0,0.0,0,1727.0,1
732,732,0.27144853360510657,0.3,0.0,0.0,457.0,952.0,0.0,1,1591.0,1
733,733,-0.12610345164434233,-0.1,0.0,1.0,467.0,995.0,0.0,1,1538.0,0
734,734,-0.27968459027341686,-0.3,0.0,1.0,467.0,572.0,0.0,1,1961.0,0
735,735,0.049924894190002345,0.0,0.0,0.0,473.0,697.0,0.0,1,1830.0,1
736,736,0.11172511437052346,0.1,0.0,0.0,437.0,909.0,0.0,1,1654.0,1
737,737,-0.4744456882964617,-0.5,0.0,1.0,264.0,582.0,0.0,1,2154.0,0
738,738,0.20215756437640253,0.2,0.0,0.0,380.0,907.0,0.0,1,1713.0,1
739,739,0.20797309466791603,0.2,0.0,0.0,285.0,788.0,0.0,1,1927.0,1
740,740,0.5246148006479482,0.5,0.0,0.0,321.0,698.0,0.0,1,1981.0,1
741,741,0.2482687333361645,0.2,0.0,0.0,369.0,636.0,0.0,1,1995.0,1
742,742,-0.26007105174786915,-0.3,0.0,1.0,407.0,658.0,0.0,1,1935.0,0
743,743,0.022765751729978523,0.0,1.0,1.0,497.0,517.0,0.0,0,1986.0,0
744,744,0.8408934126940749,0.8,0.0,0.0,411.0,869.0,0.0,1,1720.0,1
745,745,0.5976772920308987,0.6,1.0,1.0,438.0,864.0,0.0,0,1698.0,0
746,746,0.2467251873722126,0.2,0.0,0.0,418.0,552.0,0.0,1,2030.0,1
747,747,-0.45301079240977254,-0.5,0.0,1.0,480.0,759.0,0.0,1,1761.0,0
748,748,0.5755751244958741,0.6,0.0,0.0,257.0,535.0,0.0,1,2208.0,1
749,749,-0.20789055607769336,-0.2,1.0,0.0,408.0,798.0,0.0,0,1794.0,1
750,750,0.4315573848474653,0.4,0.0,0.0,361.0,844.0,0.0,1,1795.0,1
751,751,0.2907055304919032,0.3,1.0,1.0,261.0,598.0,0.0,0,2141.0,0
752,752,0.46720515577402544,0.5,1.0,1.0,268.0,789.0,0.0,0,1943.0,0
753,753,-0.09724250257508926,-0.1,0.0,1.0,484.0,708.0,0.0,1,1808.0,0
754,754,0.8526456559984098,0.9,0.0,0.0,406.0,697.0,0.0,1,1897.0,1
755,755,0.12418447227273532,0.1,0.0,0.0,269.0,970.0,0.0,1,1761.0,1
756,756,0.4103809489915339,0.4,1.0,1.0,330.0,648.0,0.0,0,2022.0,0
757,757,0.6735107760194742,0.7,0.0,0.0,291.0,624.0,0.0,1,2085.0,1
758,758,0.40401932830737597,0.4,0.0,0.0,418.0,982.0,0.0,1,1600.0,1
759,759,-0.1572191088548619,-0.2,1.0,0.0,354.0,691.0,0.0,0,1955.0,1
760,760,0.563252145438944,0.6,1.0,1.0,379.0,604.0,0.0,0,2017.0,0
761,761,0.30169072941996056,0.3,0.0,0.0,253.0,783.0,0.0,1,1964.0,1
762,762,0.8007188569100726,0.8,1.0,1.0,489.0,920.0,0.0,0,1591.0,0
763,763,-0.6169237783688521,-0.6,1.0,0.0,293.0,997.0,0.0,0,-1190.0,1
764,764,-0.6818543677188219,-0.7,0.0,1.0,328.0,671.0,0.0,1,2001.0,0
765,765,0.5909559618825625,0.6,0.0,0.0,287.0,502.0,0.0,1,2211.0,1
766,766,0.3819869140564617,0.4,0.0,0.0,278.0,565.0,0.0,1,2157.0,1
767,767,-0.6641386053870725,-0.7,1.0,0.0,468.0,689.0,0.0,0,1843.0,1
768,768,0.49631462095249945,0.5,1.0,1.0,380.0,811.0,0.0,0,1809.0,0
769,769,-0.3833166427919089,-0.4,0.0,1.0,475.0,726.0,0.0,1,1799.0,0
770,770,0.0006820596692930225,0.0,0.0,0.0,497.0,737.0,0.0,1,1766.0,1
771,771,0.6178246335435579,0.6,1.0,1.0,261.0,581.0,0.0,0,2158.0,0
772,772,0.037174728538956536,0.0,1.0,1.0,293.0,937.0,0.0,0,1770.0,0
773,773,0.29034688090493954,0.3,0.0,0.0,350.0,901.0,0.0,1,1749.0,1
774,774,-0.14434804973564164,-0.1,0.0,1.0,277.0,983.0,0.0,1,1740.0,0
775,775,-0.8381768895065667,-0.8,0.0,1.0,437.0,793.0,0.0,1,1770.0,0
776,776,-0.4308508243675309,-0.4,0.0,1.0,288.0,653.0,0.0,1,2059.0,0
777,777,-0.8664632566811403,-0.9,0.0,1.0,260.0,786.0,0.0,1,1954.0,0
778,778,-0.8407448577692469,-0.8,0.0,1.0,335.0,534.0,0.0,1,2131.0,0
779,779,0.7112324069636943,0.7,0.0,0.0,414.0,785.0,0.0,1,1801.0,1
780,780,0.6043505003570578,0.6,1.0,1.0,296.0,700.0,0.0,0,2004.0,0
781,781,-0.7630996849206693,-0.8,1.0,0.0,475.0,558.0,0.0,0,1967.0,1
782,782,-0.3555754499145455,-0.4,0.0,1.0,371.0,707.0,0.0,1,-998.0,0
783,783,-0.6408663050810184,-0.6,1.0,0.0,470.0,666.0,0.0,0,1864.0,1
784,784,-0.7863895200118535,-0.8,1.0,0.0,464.0,611.0,0.0,0,1925.0,1
785,785,0.5842244036374201,0.6,1.0,1.0,355.0,589.0,0.0,0,2056.0,0
786,786,-0.35681137029268495,-0.4,0.0,1.0,260.0,960.0,0.0,1,1780.0,0
787,787,0.7331107266128646,0.7,0.0,0.0,257.0,745.0,0.0,1,1998.0,1
788,788,-0.05004064194392255,-0.1,0.0,1.0,337.0,733.0,0.0,1,1930.0,0
789,789,-0.08261091826472333,-0.1,1.0,0.0,425.0,575.0,0.0,0,2000.0,1
790,790,-0.10040861720972982,-0.1,1.0,0.0,371.0,709.0,0.0,0,1920.0,1
791,791,-0.11777533472647816,-0.1,1.0,0.0,437.0,508.0,0.0,0,2055.0,1
792,792,-0.42058105836192483,-0.4,1.0,0.0,479.0,963.0,0.0,0,1558.0,1
793,793,-0.010449401431177785,-0.0,0.0,1.0,300.0,742.0,0.0,1,1958.0,0
794,794,-0.2516909372539091,-0.3,0.0,1.0,357.0,881.0,0.0,1,1762.0,0
795,795,-0.6241509315920267,-0.6,1.0,0.0,276.0,807.0,0.0,0,1917.0,1
796,796,-0.7747832267681687,-0.8,0.0,1.0,424.0,893.0,1.0,0,-1317.0,1
797,797,0.01825105301876706,0.0,0.0,0.0,300.0,846.0,0.0,1,1854.0,1
798,798,-0.8014336260529381,-0.8,1.0,0.0,353.0,790.0,0.0,0,1857.0,1
799,799,0.4675424731286749,0.5,1.0,1.0,348.0,589.0,0.0,0,2063.0,0
800,800,0.44566994795835224,0.4,1.0,1.0,494.0,925.0,0.0,0,1581.0,0
801,801,0.17373940106689634,0.2,1.0,1.0,483.0,733.0,0.0,0,1784.0,0
802,802,-0.36219837215862727,-0.4,1.0,0.0,425.0,916.0,0.0,0,1659.0,1
803,803,-0.599290198374568,-0.6,1.0,0.0,276.0,607.0,0.0,0,-873.0,1
804,804,0.5904759002783823,0.6,0.0,0.0,482.0,776.0,0.0,1,1742.0,1
805,805,-0.3223017739679842,-0.3,1.0,0.0,394.0,562.0,0.0,0,2044.0,1
806,806,0.844005445487897,0.8,1.0,1.0,481.0,814.0,0.0,0,1705.0,0
807,807,0.362569952503489,0.4,0.0,0.0,359.0,572.0,0.0,1,2069.0,1
808,808,-0.17169328501820558,-0.2,1.0,0.0,338.0,957.0,0.0,0,1705.0,1
809,809,0.5447345873041359,0.5,1.0,1.0,319.0,770.0,0.0,0,1911.0,0
810,810,0.49498574712527554,0.5,1.0,1.0,257.0,824.0,0.0,0,1919.0,0
811,811,-0.6747784459690604,-0.7,1.0,0.0,256.0,525.0,0.0,0,2219.0,1
812,812,0.21940204979782452,0.2,0.0,0.0,470.0,596.0,0.0,1,1934.0,1
813,813,-0.42733898142420373,-0.4,0.0,1.0,286.0,568.0,0.0,1,2146.0,0
814,814,-0.307146892795622,-0.3,1.0,0.0,416.0,957.0,0.0,0,1627.0,1
815,815,0.24806706620510777,0.2,1.0,1.0,478.0,594.0,0.0,0,1928.0,0
816,816,0.34630666472413985,0.3,0.0,0.0,469.0,984.0,0.0,1,1547.0,1
817,817,-0.6694799515194336,-0.7,0.0,1.0,426.0,699.0,0.0,1,1875.0,0
818,818,0.3826813757108153,0.4,1.0,1.0,468.0,565.0,0.0,0,1967.0,0
819,819,-0.49266617778827165,-0.5,0.0,1.0,287.0,886.0,0.0,1,1827.0,0
820,820,0.7621516857693552,0.8,0.0,0.0,478.0,885.0,0.0,1,1637.0,1
821,821,0.154078439642365,0.2,1.0,1.0,263.0,823.0,0.0,0,1914.0,0
822,822,0.5714425043224142,0.6,1.0,1.0,319.0,911.0,0.0,0,1770.0,0
823,823,0.25262393983198705,0.3,0.0,0.0,393.0,607.0,0.0,1,2000.0,1
824,824,0.5596715661319519,0.6,1.0,1.0,332.0,593.0,0.0,0,2075.0,0
825,825,0.48111821974266056,0.5,0.0,0.0,274.0,957.0,0.0,1,1769.0,1
826,826,0.10461444032867695,0.1,1.0,1.0,334.0,514.0,0.0,0,-698.0,0
827,827,-0.676460651273128,-0.7,1.0,0.0,344.0,736.0,0.0,0,1920.0,1
828,828,-0.21201464892166366,-0.2,0.0,1.0,418.0,503.0,0.0,1,2079.0,0
829,829,-0.7455267109546387,-0.7,1.0,0.0,485.0,613.0,0.0,0,1902.0,1
830,830,0.3067608898346138,0.3,0.0,0.0,413.0,557.0,0.0,1,2030.0,1
831,831,-0.3058411061898194,-0.3,1.0,0.0,280.0,561.0,0.0,0,2159.0,1
832,832,0.014294695514418754,0.0,1.0,1.0,286.0,522.0,0.0,0,2192.0,0
833,833,0.1050521433205055,0.1,1.0,1.0,464.0,608.0,0.0,0,1928.0,0
834,834,-0.6751675197915226,-0.7,0.0,1.0,344.0,527.0,0.0,1,2129.0,0
835,835,-0.15500873487084643,-0.2,0.0,1.0,499.0,900.0,0.0,1,1601.0,0
836,836,0.44631672487182306,0.4,0.0,0.0,336.0,533.0,0.0,1,2131.0,1
837,837,-0.250430901044171,-0.3,1.0,0.0,454.0,561.0,0.0,0,1985.0,1
838,838,-0.010256650201863615,-0.0,0.0,1.0,308.0,809.0,0.0,1,1883.0,0
839,839,-0.24722838654055646,-0.2,1.0,0.0,464.0,744.0,0.0,0,1792.0,1
840,840,0.8243053109536612,0.8,0.0,0.0,348.0,989.0,0.0,1,1663.0,1
841,841,-0.5162143962378722,-0.5,1.0,0.0,452.0,939.0,0.0,0,1609.0,1
842,842,0.398286998328767,0.4,0.0,0.0,486.0,974.0,0.0,1,1540.0,1
843,843,0.09247807536615704,0.1,0.0,0.0,405.0,534.0,0.0,1,-859.0,1
844,844,-0.24921361943158982,-0.2,0.0,1.0,256.0,586.0,0.0,1,2158.0,0
845,845,-0.7041614853516731,-0.7,0.0,1.0,382.0,684.0,0.0,1,1934.0,0
846,846,-0.8396267473999,-0.8,0.0,1.0,268.0,747.0,0.0,1,1985.0,0
847,847,0.888870527639292,0.9,1.0,1.0,317.0,570.0,0.0,0,2113.0,0
848,848,0.0019639476516449816,0.0,1.0,1.0,468.0,946.0,0.0,0,1586.0,0
849,849,0.5887294180022037,0.6,0.0,0.0,400.0,673.0,0.0,1,1927.0,1
850,850,0.26358085049751423,0.3,0.0,0.0,414.0,520.0,0.0,1,2066.0,1
851,851,-0.16701785455049023,-0.2,0.0,1.0,443.0,509.0,1.0,0,-932.0,1
852,852,-0.12926814821320443,-0.1,1.0,0.0,289.0,517.0,0.0,0,2194.0,1
853,853,-0.12752199906851236,-0.1,0.0,1.0,364.0,620.0,0.0,1,2016.0,0
854,854,-0.18228982616073364,-0.2,0.0,1.0,481.0,654.0,0.0,1,1865.0,0
855,855,-0.4967322664484521,-0.5,0.0,1.0,491.0,793.0,0.0,1,1716.0,0
856,856,-0.45150690299868373,-0.5,1.0,0.0,289.0,727.0,1.0,1,-1016.0,0
857,857,-0.7447496723731443,-0.7,0.0,1.0,419.0,832.0,0.0,1,1749.0,0
858,858,0.14853785262018981,0.1,1.0,1.0,448.0,567.0,0.0,0,1985.0,0
859,859,-0.07697186823547075,-0.1,1.0,0.0,430.0,643.0,0.0,0,1927.0,1
860,860,-0.7485180265901811,-0.7,1.0,0.0,391.0,607.0,0.0,0,2002.0,1
861,861,-0.13234255059434563,-0.1,1.0,0.0,393.0,942.0,0.0,0,1665.0,1
862,862,-0.8004656669351805,-0.8,0.0,1.0,424.0,903.0,0.0,1,1673.0,0
863,863,-0.8705485017761337,-0.9,1.0,0.0,328.0,631.0,0.0,0,2041.0,1
864,864,-0.8575265849258501,-0.9,0.0,1.0,259.0,581.0,0.0,1,2160.0,0
865,865,-0.5262118490070649,-0.5,0.0,1.0,300.0,589.0,0.0,1,-739.0,0
866,866,-0.16746204571230494,-0.2,1.0,0.0,288.0,774.0,0.0,0,1938.0,1
867,867,-0.8911311381282747,-0.9,0.0,1.0,274.0,768.0,0.0,1,1958.0,0
868,868,-0.21099441068722402,-0.2,1.0,0.0,321.0,566.0,0.0,0,2113.0,1
869,869,-0.49876402294786676,-0.5,0.0,1.0,342.0,863.0,0.0,1,1795.0,0
870,870,0.18901907691352815,0.2,1.0,1.0,482.0,980.0,1.0,1,-1432.0,1
871,871,0.8165049753308707,0.8,1.0,1.0,374.0,741.0,0.0,0,-975.0,0
872,872,0.1780636995820878,0.2,1.0,1.0,460.0,710.0,0.0,0,1830.0,0
873,873,0.733865739433304,0.7,1.0,1.0,255.0,867.0,0.0,0,1878.0,0
874,874,0.1682998818570004,0.2,0.0,0.0,417.0,987.0,0.0,1,1596.0,1
875,875,-0.517889474433656,-0.5,1.0,0.0,401.0,795.0,1.0,1,-1126.0,0
876,876,-0.7973201779638273,-0.8,0.0,1.0,253.0,982.0,0.0,1,1765.0,0
877,877,0.7233977395571364,0.7,0.0,0.0,362.0,778.0,0.0,1,-1060.0,1
878,878,0.01897361380973306,0.0,1.0,1.0,267.0,759.0,0.0,0,1974.0,0
879,879,-0.4303948064257802,-0.4,0.0,1.0,253.0,870.0,0.0,1,1877.0,0
880,880,0.7174800189038176,0.7,1.0,1.0,300.0,993.0,0.0,0,1707.0,0
881,881,0.7908957838825922,0.8,1.0,1.0,377.0,946.0,0.0,0,-1173.0,0
882,882,0.12645004070787647,0.1,1.0,1.0,259.0,875.0,0.0,0,1866.0,0
883,883,0.7920470697088137,0.8,0.0,0.0,448.0,784.0,0.0,1,1768.0,1
884,884,0.27077000780228955,0.3,1.0,1.0,454.0,565.0,0.0,0,1981.0,0
885,885,0.031915093384254134,0.0,1.0,1.0,496.0,598.0,0.0,0,1906.0,0
886,886,-0.6509043735425185,-0.7,0.0,1.0,332.0,625.0,0.0,1,2043.0,0
887,887,0.445766575099272,0.4,0.0,0.0,273.0,554.0,0.0,1,2173.0,1
888,888,-0.17548959571457645,-0.2,1.0,0.0,494.0,659.0,0.0,0,1847.0,1
889,889,-0.14076917317794557,-0.1,0.0,1.0,317.0,771.0,0.0,1,1912.0,0
890,890,-0.605601953378339,-0.6,0.0,1.0,409.0,749.0,0.0,1,1842.0,0
891,891,-0.05994283647750642,-0.1,1.0,0.0,289.0,937.0,0.0,0,1774.0,1
892,892,-0.4266091655298117,-0.4,0.0,1.0,466.0,816.0,1.0,0,-1252.0,1
893,893,0.608095774652223,0.6,1.0,1.0,490.0,581.0,0.0,0,1929.0,0
894,894,0.37226576884207396,0.4,0.0,0.0,382.0,859.0,0.0,1,1759.0,1
895,895,-0.5528229389181754,-0.6,0.0,1.0,438.0,671.0,0.0,1,1891.0,0
896,896,-0.3536320631627816,-0.4,1.0,0.0,430.0,558.0,1.0,1,-918.0,0
897,897,0.008006778841575746,0.0,1.0,1.0,349.0,691.0,0.0,0,1960.0,0
898,898,0.5242740588794189,0.5,1.0,1.0,270.0,895.0,0.0,0,-1075.0,0
899,899,-0.1332885139903438,-0.1,0.0,1.0,459.0,611.0,1.0,0,-1020.0,1
900,900,0.22043338149890068,0.2,0.0,0.0,491.0,845.0,0.0,1,1664.0,1
901,901,-0.18635150552178126,-0.2,1.0,0.0,431.0,626.0,0.0,0,1943.0,1
902,902,0.337811531587633,0.3,0.0,0.0,309.0,875.0,0.0,1,1816.0,1
903,903,0.4516807035842857,0.5,1.0,1.0,492.0,980.0,0.0,0,-1382.0,0
904,904,0.20052710896794868,0.2,1.0,1.0,274.0,523.0,0.0,0,2203.0,0
905,905,0.2789291586755712,0.3,0.0,0.0,460.0,593.0,0.0,1,1947.0,1
906,906,-0.635392039551762,-0.6,0.0,1.0,266.0,911.0,0.0,1,1823.0,0
907,907,0.7250076815411689,0.7,0.0,0.0,480.0,689.0,0.0,1,1831.0,1
908,908,-0.12342569343535892,-0.1,0.0,1.0,425.0,913.0,0.0,1,1662.0,0
909,909,-0.5104004100825525,-0.5,1.0,0.0,333.0,801.0,0.0,0,1866.0,1
910,910,-0.758081272115273,-0.8,0.0,1.0,378.0,672.0,0.0,1,1950.0,0
911,911,0.0238353565189936,0.0,1.0,1.0,387.0,664.0,0.0,0,1949.0,0
912,912,-0.30138870892373515,-0.3,1.0,0.0,291.0,730.0,0.0,0,1979.0,1
913,913,-0.35225941541052097,-0.4,1.0,0.0,381.0,705.0,0.0,0,1914.0,1
914,914,-0.7757039301584999,-0.8,0.0,1.0,397.0,867.0,0.0,1,-1264.0,0
915,915,-0.7318638580778268,-0.7,0.0,1.0,486.0,754.0,0.0,1,1760.0,0
916,916,0.8712205229113538,0.9,1.0,1.0,469.0,936.0,1.0,1,-1245.0,1
917,917,0.7900496655792283,0.8,1.0,1.0,283.0,739.0,0.0,0,1978.0,0
918,918,0.43210687844511464,0.4,1.0,1.0,303.0,500.0,0.0,0,2197.0,0
919,919,-0.24458214052854976,-0.2,0.0,1.0,290.0,715.0,0.0,1,-1005.0,0
920,920,0.21058731036302702,0.2,0.0,0.0,333.0,625.0,0.0,1,2042.0,1
921,921,-0.7583983260388911,-0.8,0.0,1.0,424.0,681.0,0.0,1,1895.0,0
922,922,-0.6145247684063178,-0.6,0.0,1.0,328.0,534.0,0.0,1,2138.0,0
923,923,-0.09589300342644169,-0.1,1.0,0.0,263.0,647.0,0.0,0,2090.0,1
924,924,0.669217121560561,0.7,0.0,0.0,318.0,740.0,0.0,1,1942.0,1
925,925,0.5811968754196909,0.6,0.0,0.0,432.0,556.0,0.0,1,2012.0,1
926,926,-0.02388874949121189,-0.0,0.0,1.0,474.0,799.0,0.0,1,1727.0,0
927,927,0.13338718297815022,0.1,0.0,0.0,394.0,687.0,0.0,1,1919.0,1
928,928,-0.4966907663870857,-0.5,0.0,1.0,497.0,597.0,0.0,1,1906.0,0
929,929,0.44186441272071175,0.4,1.0,1.0,319.0,841.0,0.0,0,1840.0,0
930,930,0.5959658819695578,0.6,0.0,0.0,350.0,691.0,1.0,0,-901.0,0
931,931,-0.2197774733955583,-0.2,0.0,1.0,307.0,613.0,0.0,1,2080.0,0
932,932,0.5324229616877248,0.5,0.0,0.0,345.0,754.0,0.0,1,1901.0,1
933,933,-0.4979449505370404,-0.5,1.0,0.0,271.0,736.0,0.0,0,1993.0,1
934,934,0.24119088010112255,0.2,0.0,0.0,404.0,576.0,0.0,1,2020.0,1
935,935,-0.26114607250200295,-0.3,0.0,1.0,474.0,633.0,0.0,1,1893.0,0
936,936,0.46402131896841026,0.5,1.0,1.0,263.0,803.0,0.0,0,1934.0,0
937,937,-0.5444971549132305,-0.5,1.0,0.0,341.0,825.0,0.0,0,1834.0,1
938,938,-0.758858961793581,-0.8,0.0,1.0,429.0,731.0,0.0,1,1840.0,0
939,939,0.1380564843247084,0.1,0.0,0.0,414.0,794.0,0.0,1,1792.0,1
940,940,0.2671305718971574,0.3,1.0,1.0,327.0,789.0,0.0,0,1884.0,0
941,941,-0.1937950437357968,-0.2,1.0,0.0,340.0,546.0,0.0,0,2114.0,1
942,942,-0.7818388856059333,-0.8,0.0,1.0,498.0,778.0,0.0,1,1724.0,0
943,943,0.36123190163629515,0.4,1.0,1.0,442.0,961.0,0.0,0,1597.0,0
944,944,0.5972780736283699,0.6,1.0,1.0,322.0,828.0,1.0,1,-1070.0,1
945,945,0.08475121805118457,0.1,0.0,0.0,365.0,567.0,0.0,1,2068.0,1
946,946,-0.23970144082262024,-0.2,0.0,1.0,306.0,772.0,0.0,1,1922.0,0
947,947,0.296695167154008,0.3,1.0,1.0,368.0,520.0,0.0,0,2112.0,0
948,948,0.19287430716508214,0.2,1.0,1.0,281.0,607.0,0.0,0,2112.0,0
949,949,-0.5260261473004024,-0.5,0.0,1.0,406.0,915.0,0.0,1,1679.0,0
950,950,0.3244891605677821,0.3,1.0,1.0,473.0,570.0,0.0,0,1957.0,0
951,951,0.8278709513118087,0.8,0.0,0.0,338.0,953.0,0.0,1,1709.0,1
952,952,0.4609255625532521,0.5,1.0,1.0,318.0,987.0,0.0,0,1695.0,0
953,953,-0.8601439804635774,-0.9,0.0,1.0,252.0,765.0,0.0,1,1983.0,0
954,954,-0.5199519143692577,-0.5,1.0,0.0,370.0,627.0,0.0,0,2003.0,1
955,955,-0.1184393381611546,-0.1,1.0,0.0,476.0,561.0,0.0,0,1963.0,1
956,956,-0.8045562953286026,-0.8,1.0,0.0,483.0,857.0,0.0,0,1660.0,1
957,957,-0.3095000993840902,-0.3,1.0,0.0,339.0,989.0,0.0,0,1672.0,1
958,958,-0.22896020257977734,-0.2,1.0,0.0,477.0,809.0,1.0,1,-1276.0,0
959,959,0.10362956596774986,0.1,0.0,0.0,499.0,785.0,0.0,1,1716.0,1
960,960,-0.864689983768475,-0.9,1.0,0.0,370.0,707.0,0.0,0,1923.0,1
961,961,-0.4373721450759557,-0.4,0.0,1.0,323.0,620.0,0.0,1,2057.0,0
962,962,0.6025691617700869,0.6,0.0,0.0,382.0,784.0,0.0,1,1834.0,1
963,963,-0.26971348473445633,-0.3,1.0,0.0,435.0,865.0,0.0,0,1700.0,1
964,964,-0.07671904823184794,-0.1,0.0,1.0,320.0,556.0,0.0,1,2124.0,0
965,965,0.009751357648617898,0.0,0.0,0.0,422.0,992.0,0.0,1,1586.0,1
966,966,-0.6686005487048352,-0.7,0.0,1.0,257.0,727.0,0.0,1,2016.0,0
967,967,-0.5992219254781979,-0.6,1.0,0.0,256.0,901.0,0.0,0,1843.0,1
968,968,0.00371956642404081,0.0,0.0,0.0,250.0,965.0,0.0,1,1785.0,1
969,969,-0.030003281212353072,-0.0,1.0,0.0,460.0,728.0,0.0,0,1812.0,1
970,970,-0.8770924747313781,-0.9,0.0,1.0,445.0,631.0,0.0,1,1924.0,0
971,971,-0.7276949797663971,-0.7,0.0,1.0,259.0,870.0,0.0,1,-1049.0,0
972,972,-0.456738885052356,-0.5,0.0,1.0,484.0,780.0,0.0,1,1736.0,0
973,973,0.8448788048029673,0.8,1.0,1.0,356.0,577.0,0.0,0,2067.0,0
974,974,-0.7242372323745071,-0.7,1.0,0.0,269.0,678.0,0.0,0,2053.0,1
975,975,0.1382127238636749,0.1,0.0,0.0,279.0,865.0,0.0,1,1856.0,1
976,976,0.23361512316001598,0.2,1.0,1.0,257.0,672.0,0.0,0,2071.0,0
977,977,-0.6456100631691821,-0.6,1.0,0.0,462.0,614.0,0.0,0,-1066.0,1
978,978,-0.8586331874019096,-0.9,0.0,1.0,339.0,520.0,0.0,1,2141.0,0
979,979,-0.5016981612339328,-0.5,0.0,1.0,428.0,781.0,0.0,1,1791.0,0
980,980,-0.2819682073646098,-0.3,0.0,1.0,316.0,947.0,0.0,1,1737.0,0
981,981,-0.35583739894515853,-0.4,0.0,1.0,378.0,904.0,1.0,0,-1152.0,1
982,982,-0.6280370397744035,-0.6,1.0,0.0,424.0,727.0,0.0,0,1849.0,1
983,983,0.7787581739241899,0.8,1.0,1.0,268.0,687.0,0.0,0,2045.0,0
984,984,0.3311502007527011,0.3,1.0,1.0,290.0,689.0,1.0,1,-939.0,1
985,985,-0.7947935923939613,-0.8,0.0,1.0,494.0,866.0,0.0,1,1640.0,0
986,986,-0.2520460874898761,-0.3,1.0,0.0,424.0,835.0,0.0,0,1741.0,1
987,987,-0.6527152184203843,-0.7,0.0,1.0,488.0,664.0,0.0,1,1848.0,0
988,988,0.7805255841906035,0.8,1.0,1.0,283.0,500.0,0.0,0,2217.0,0
989,989,0.08536466552146738,0.1,0.0,0.0,269.0,531.0,0.0,1,2200.0,1
990,990,-0.12004113700035313,-0.1,0.0,1.0,489.0,644.0,0.0,1,1867.0,0
991,991,0.2456109233714826,0.2,1.0,1.0,274.0,764.0,0.0,0,1962.0,0
992,992,0.6612798047728966,0.7,0.0,0.0,445.0,796.0,0.0,1,1759.0,1
993,993,-0.15978269779880472,-0.2,1.0,0.0,437.0,620.0,0.0,0,1943.0,1
994,994,0.7855902909746441,0.8,1.0,1.0,410.0,633.0,0.0,0,1957.0,0
995,995,-0.8211017876410674,-0.8,1.0,0.0,495.0,540.0,0.0,0,1965.0,1
996,996,-0.15256852500401052,-0.2,1.0,0.0,498.0,610.0,0.0,0,1892.0,1
997,997,-0.27285547541089117,-0.3,0.0,1.0,390.0,881.0,0.0,1,1729.0,0
998,998,0.6666205465973537,0.7,0.0,0.0,362.0,582.0,0.0,1,2056.0,1
999,999,0.4706361193995282,0.5,1.0,1.0,431.0,809.0,0.0,0,1760.0,0
1000,1000,-0.8113324483089918,-0.8,0.0,1.0,445.0,966.0,0.0,1,1589.0,0
1001,1001,-0.5798456140359858,-0.6,0.0,1.0,264.0,837.0,0.0,1,1899.0,0
1002,1002,-0.8998539228033962,-0.9,1.0,0.0,463.0,623.0,0.0,0,1914.0,1
1003,1003,0.6044512523193545,0.6,0.0,0.0,320.0,589.0,0.0,1,2091.0,1
1004,1004,-0.09146472432979158,-0.1,1.0,0.0,474.0,811.0,0.0,0,1715.0,1
1005,1005,0.5656205975109251,0.6,1.0,1.0,344.0,518.0,0.0,0,2138.0,0
1006,1006,0.187605460553823,0.2,1.0,1.0,327.0,746.0,0.0,0,1927.0,0
1007,1007,-0.8799942103806849,-0.9,0.0,1.0,311.0,562.0,0.0,1,2127.0,0
1008,1008,0.286107699326403,0.3,0.0,0.0,471.0,524.0,0.0,1,2005.0,1
1009,1009,-0.7670800541821415,-0.8,1.0,0.0,274.0,826.0,1.0,1,-1080.0,0
1010,1010,0.5181871817040852,0.5,0.0,0.0,262.0,886.0,0.0,1,1852.0,1
1011,1011,-0.3327845587956584,-0.3,1.0,0.0,476.0,586.0,0.0,0,1938.0,1
1012,1012,0.006516906376959453,0.0,1.0,1.0,414.0,623.0,0.0,0,1963.0,0
1013,1013,-0.725110755540344,-0.7,0.0,1.0,314.0,941.0,0.0,1,1745.0,0
1014,1014,0.16444273021913858,0.2,0.0,0.0,320.0,726.0,1.0,0,-876.0,0
1015,1015,-0.6465200069496793,-0.6,0.0,1.0,492.0,881.0,0.0,1,1627.0,0
1016,1016,-0.8809630363852718,-0.9,1.0,0.0,483.0,820.0,0.0,0,1697.0,1
1017,1017,0.241479496350968,0.2,1.0,1.0,448.0,751.0,0.0,0,1801.0,0
1018,1018,0.5280782956065885,0.5,0.0,0.0,430.0,772.0,0.0,1,1798.0,1
1019,1019,-0.573750372655228,-0.6,0.0,1.0,430.0,704.0,1.0,0,-1084.0,1
1020,1020,0.3417386089183666,0.3,1.0,1.0,297.0,511.0,0.0,0,2192.0,0
1021,1021,-0.22555360448944017,-0.2,0.0,1.0,353.0,746.0,0.0,1,1901.0,0
1022,1022,0.3680392111527767,0.4,1.0,1.0,416.0,709.0,0.0,0,1875.0,0
1023,1023,-0.34234242046887187,-0.3,1.0,0.0,451.0,914.0,0.0,0,1635.0,1
1024,1024,0.3458309515277239,0.3,0.0,0.0,291.0,767.0,0.0,1,1942.0,1
1025,1025,0.5773286404793828,0.6,0.0,0.0,474.0,825.0,0.0,1,1701.0,1
1026,1026,-0.5645195231732785,-0.6,1.0,0.0,268.0,700.0,0.0,0,2032.0,1
1027,1027,0.8917914479327144,0.9,0.0,0.0,465.0,523.0,0.0,1,2012.0,1
1028,1028,-0.7663873056561403,-0.8,1.0,0.0,349.0,831.0,0.0,0,1820.0,1
1029,1029,-0.04246397691578685,-0.0,1.0,0.0,309.0,522.0,0.0,0,2169.0,1
1030,1030,-0.6208839440793928,-0.6,1.0,0.0,364.0,723.0,0.0,0,1913.0,1
1031,1031,-0.7666290696249156,-0.8,0.0,1.0,421.0,519.0,0.0,1,2060.0,0
1032,1032,0.47806978467859407,0.5,0.0,0.0,257.0,671.0,0.0,1,2072.0,1
1033,1033,-0.7960892665589518,-0.8,0.0,1.0,324.0,517.0,0.0,1,2159.0,0
1034,1034,-0.8292044839975193,-0.8,0.0,1.0,371.0,635.0,0.0,1,1994.0,0
1035,1035,-0.050803206344604446,-0.1,0.0,1.0,278.0,777.0,0.0,1,1945.0,0
1036,1036,-0.7743564543673578,-0.8,1.0,0.0,498.0,728.0,0.0,0,1774.0,1
1037,1037,0.17348837150286356,0.2,1.0,1.0,443.0,908.0,0.0,0,1649.0,0
1038,1038,-0.6929899646166378,-0.7,0.0,1.0,476.0,973.0,0.0,1,1551.0,0
1039,1039,-0.781756808821182,-0.8,1.0,0.0,348.0,859.0,0.0,0,1793.0,1
1040,1040,-0.7543006237584092,-0.8,1.0,0.0,371.0,522.0,0.0,0,2107.0,1
1041,1041,-0.8504914160621787,-0.9,1.0,0.0,389.0,869.0,0.0,0,1742.0,1
1042,1042,-0.29597532693710815,-0.3,1.0,0.0,373.0,838.0,0.0,0,1789.0,1
1043,1043,-0.5078036125454539,-0.5,0.0,1.0,489.0,658.0,0.0,1,1853.0,0
1044,1044,0.40465653905443644,0.4,0.0,0.0,402.0,782.0,0.0,1,1816.0,1
1045,1045,-0.29898070451117187,-0.3,1.0,0.0,428.0,561.0,0.0,0,2011.0,1
1046,1046,-0.44813055392570184,-0.4,1.0,0.0,391.0,977.0,0.0,0,1632.0,1
1047,1047,0.062181740040620714,0.1,1.0,1.0,439.0,537.0,0.0,0,2024.0,0
1048,1048,-0.5822539688064442,-0.6,1.0,0.0,367.0,796.0,0.0,0,1837.0,1
1049,1049,-0.5158930734982792,-0.5,1.0,0.0,312.0,685.0,0.0,0,2003.0,1
1050,1050,0.6476156310881239,0.6,0.0,0.0,402.0,857.0,0.0,1,1741.0,1
1051,1051,0.19683788401305702,0.2,1.0,1.0,449.0,658.0,0.0,0,1893.0,0
1052,1052,0.7718177769940312,0.8,1.0,1.0,349.0,609.0,0.0,0,2042.0,0
1053,1053,-0.5924597517596311,-0.6,0.0,1.0,310.0,504.0,0.0,1,2186.0,0
1054,1054,-0.2414524239461051,-0.2,0.0,1.0,300.0,568.0,0.0,1,2132.0,0
1055,1055,0.04029847217913163,0.0,1.0,1.0,324.0,524.0,0.0,0,2152.0,0
1056,1056,-0.7499095624003205,-0.7,1.0,0.0,389.0,897.0,0.0,0,1714.0,1
1057,1057,0.8047955603608642,0.8,0.0,0.0,312.0,977.0,0.0,1,1711.0,1
1058,1058,0.2775746888112939,0.3,0.0,0.0,439.0,837.0,0.0,1,1724.0,1
1059,1059,0.7687390248951874,0.8,0.0,0.0,283.0,767.0,0.0,1,1950.0,1
1060,1060,0.27073958708045465,0.3,0.0,0.0,421.0,783.0,0.0,1,1796.0,1
1061,1061,-0.3108199222635234,-0.3,0.0,1.0,419.0,647.0,0.0,1,1934.0,0
1062,1062,-0.6170084197530838,-0.6,0.0,1.0,253.0,703.0,1.0,0,-916.0,1
1063,1063,-0.5111798946545667,-0.5,0.0,1.0,368.0,687.0,0.0,1,1945.0,0
1064,1064,-0.7051305213609316,-0.7,1.0,0.0,462.0,549.0,0.0,0,1989.0,1
1065,1065,-0.348575693909562,-0.3,1.0,0.0,335.0,526.0,0.0,0,2139.0,1
1066,1066,0.8464778881362002,0.8,1.0,1.0,477.0,970.0,0.0,0,1553.0,0
1067,1067,0.5698480349932004,0.6,0.0,0.0,368.0,651.0,0.0,1,1981.0,1
1068,1068,-0.4562202117371848,-0.5,1.0,0.0,321.0,649.0,0.0,0,2030.0,1
1069,1069,-0.25491041916681956,-0.3,0.0,1.0,476.0,693.0,0.0,1,1831.0,0
1070,1070,0.22244612241817496,0.2,0.0,0.0,314.0,970.0,0.0,1,1716.0,1
1071,1071,-0.27123584783058885,-0.3,0.0,1.0,398.0,837.0,1.0,0,-1185.0,1
1072,1072,0.1952395717590275,0.2,1.0,1.0,259.0,806.0,0.0,0,1935.0,0
1073,1073,-0.0037072163430371674,-0.0,1.0,0.0,400.0,525.0,0.0,0,2075.0,1
1074,1074,0.7497445311718322,0.7,1.0,1.0,449.0,889.0,0.0,0,1662.0,0
1075,1075,-0.5720545430060466,-0.6,1.0,0.0,374.0,700.0,0.0,0,1926.0,1
1076,1076,0.41867177713611026,0.4,0.0,0.0,346.0,918.0,0.0,1,1736.0,1
1077,1077,-0.5992295683487701,-0.6,0.0,1.0,493.0,548.0,0.0,1,1959.0,0
1078,1078,0.0814121728217797,0.1,1.0,1.0,254.0,962.0,0.0,0,1784.0,0
1079,1079,0.29579096313901,0.3,1.0,1.0,365.0,812.0,0.0,0,1823.0,0
1080,1080,-0.8054986477889049,-0.8,0.0,1.0,358.0,958.0,1.0,0,-1226.0,1
1081,1081,-0.06065438886113339,-0.1,0.0,1.0,321.0,525.0,0.0,1,-836.0,0
1082,1082,0.574804655071654,0.6,1.0,1.0,441.0,776.0,0.0,0,1783.0,0
1083,1083,0.7325734828559428,0.7,1.0,1.0,377.0,585.0,0.0,0,-962.0,0
1084,1084,0.29567040078647844,0.3,1.0,1.0,277.0,578.0,0.0,0,2145.0,0
1085,1085,0.49750899440637253,0.5,0.0,0.0,490.0,805.0,0.0,1,1705.0,1
1086,1086,0.8859076513157466,0.9,0.0,0.0,256.0,635.0,0.0,1,2109.0,1
1087,1087,-0.761607347268793,-0.8,0.0,1.0,471.0,889.0,0.0,1,1640.0,0
1088,1088,0.869469384900554,0.9,0.0,0.0,385.0,966.0,0.0,1,1649.0,1
1089,1089,-0.6266326101113742,-0.6,0.0,1.0,411.0,675.0,0.0,1,1914.0,0
1090,1090,-0.2851528900505609,-0.3,1.0,0.0,471.0,816.0,0.0,0,1713.0,1
1091,1091,0.015609117642333192,0.0,1.0,1.0,322.0,677.0,0.0,0,2001.0,0
1092,1092,0.46046444703107203,0.5,1.0,1.0,397.0,506.0,0.0,0,2097.0,0
1093,1093,0.6949990679584007,0.7,1.0,1.0,297.0,520.0,0.0,0,2183.0,0
1094,1094,0.6417175142135484,0.6,0.0,0.0,327.0,922.0,0.0,1,1751.0,1
1095,1095,-0.29861044472741416,-0.3,0.0,1.0,415.0,684.0,0.0,1,1901.0,0
1096,1096,-0.025922433621293983,-0.0,0.0,1.0,315.0,853.0,0.0,1,1832.0,0
1097,1097,-0.7543760426043763,-0.8,0.0,1.0,496.0,675.0,0.0,1,1829.0,0
1098,1098,0.08468618200763256,0.1,0.0,0.0,328.0,974.0,1.0,0,-1252.0,0
1099,1099,-0.7947270050813732,-0.8,0.0,1.0,432.0,502.0,0.0,1,2066.0,0
1100,1100,-0.18676351699385707,-0.2,0.0,1.0,343.0,635.0,0.0,1,2022.0,0
1101,1101,-0.5176183183684877,-0.5,1.0,0.0,394.0,909.0,0.0,0,1697.0,1
1102,1102,-0.10383528677646459,-0.1,1.0,0.0,469.0,842.0,0.0,0,1689.0,1
1103,1103,-0.06803224014662923,-0.1,1.0,0.0,423.0,806.0,0.0,0,1771.0,1
1104,1104,-0.02268130490125375,-0.0,0.0,1.0,292.0,529.0,0.0,1,2179.0,0
1105,1105,-0.380836246276434,-0.4,1.0,0.0,452.0,712.0,0.0,0,1836.0,1
1106,1106,0.27977996062935173,0.3,0.0,0.0,322.0,747.0,0.0,1,1931.0,1
1107,1107,-0.03995400792114445,-0.0,1.0,0.0,300.0,631.0,0.0,0,2069.0,1
1108,1108,0.5923124157826877,0.6,1.0,1.0,409.0,671.0,0.0,0,1920.0,0
1109,1109,0.22716872989723524,0.2,1.0,1.0,258.0,699.0,0.0,0,2043.0,0
1110,1110,0.3327146569608034,0.3,1.0,1.0,488.0,765.0,0.0,0,1747.0,0
1111,1111,-0.2615606170703192,-0.3,1.0,0.0,324.0,594.0,0.0,0,2082.0,1
1112,1112,-0.8947920602467021,-0.9,0.0,1.0,366.0,741.0,0.0,1,-937.0,0
1113,1113,-0.7934791632092227,-0.8,0.0,1.0,403.0,669.0,0.0,1,1928.0,0
1114,1114,-0.7193674443641386,-0.7,0.0,1.0,293.0,846.0,0.0,1,1861.0,0
1115,1115,-0.6107180137069055,-0.6,1.0,0.0,332.0,758.0,0.0,0,1910.0,1
1116,1116,-0.5668835091940313,-0.6,0.0,1.0,308.0,648.0,0.0,1,2044.0,0
1117,1117,0.8938112266401746,0.9,0.0,0.0,276.0,944.0,0.0,1,1780.0,1
1118,1118,-0.5836611184884676,-0.6,1.0,0.0,355.0,649.0,0.0,0,1996.0,1
1119,1119,0.376513391986104,0.4,1.0,1.0,324.0,943.0,0.0,0,1733.0,0
1120,1120,0.8027659893442495,0.8,1.0,1.0,308.0,812.0,0.0,0,1880.0,0
1121,1121,-0.2689394155359327,-0.3,1.0,0.0,305.0,752.0,0.0,0,1943.0,1
1122,1122,-0.3146532056563601,-0.3,1.0,0.0,274.0,857.0,1.0,1,-1101.0,0
1123,1123,-0.6858823567825616,-0.7,1.0,0.0,416.0,825.0,0.0,0,1759.0,1
1124,1124,0.14647268080383136,0.1,0.0,0.0,413.0,940.0,1.0,0,-1333.0,0
1125,1125,0.1495345621324734,0.1,0.0,0.0,415.0,608.0,0.0,1,1977.0,1
1126,1126,-0.6270405435612532,-0.6,0.0,1.0,338.0,810.0,0.0,1,1852.0,0
1127,1127,0.6922630271653075,0.7,0.0,0.0,434.0,894.0,0.0,1,1672.0,1
1128,1128,-0.6941288591451497,-0.7,0.0,1.0,350.0,528.0,0.0,1,2122.0,0
1129,1129,0.01724567385213993,0.0,0.0,0.0,331.0,858.0,0.0,1,1811.0,1
1130,1130,-0.8694428777675314,-0.9,0.0,1.0,433.0,587.0,0.0,1,1980.0,0
1131,1131,-0.292688463419398,-0.3,0.0,1.0,385.0,602.0,0.0,1,2013.0,0
1132,1132,-0.2570864427054672,-0.3,1.0,0.0,340.0,992.0,0.0,0,1668.0,1
1133,1133,-0.1381316143838227,-0.1,0.0,1.0,444.0,576.0,0.0,1,1980.0,0
1134,1134,0.13993344717715284,0.1,1.0,1.0,396.0,660.0,0.0,0,1944.0,0
1135,1135,-0.7102285969543609,-0.7,1.0,0.0,253.0,533.0,0.0,0,-716.0,1
1136,1136,-0.243624275240937,-0.2,0.0,1.0,490.0,531.0,0.0,1,1979.0,0
1137,1137,0.7275787456415549,0.7,1.0,1.0,320.0,769.0,0.0,0,1911.0,0
1138,1138,-0.7798632111286198,-0.8,0.0,1.0,486.0,641.0,1.0,0,-1097.0,1
1139,1139,0.19731971166184847,0.2,0.0,0.0,482.0,747.0,0.0,1,1771.0,1
1140,1140,-0.5697464871078428,-0.6,1.0,0.0,458.0,816.0,0.0,0,1726.0,1
1141,1141,0.3872729208603417,0.4,1.0,1.0,384.0,905.0,0.0,0,1711.0,0
1142,1142,-0.41822546273063227,-0.4,0.0,1.0,359.0,692.0,0.0,1,1949.0,0
1143,1143,-0.21926346586396295,-0.2,0.0,1.0,326.0,923.0,0.0,1,1751.0,0
1144,1144,-0.30105323688053665,-0.3,0.0,1.0,285.0,668.0,0.0,1,2047.0,0
1145,1145,-0.2607417794364797,-0.3,0.0,1.0,401.0,796.0,0.0,1,1803.0,0
1146,1146,-0.6536694670261541,-0.7,0.0,1.0,310.0,507.0,0.0,1,-797.0,0
1147,1147,0.6506792752717788,0.7,1.0,1.0,386.0,724.0,0.0,0,-1080.0,0
1148,1148,0.08206952895097153,0.1,0.0,0.0,290.0,624.0,0.0,1,2086.0,1
1149,1149,-0.31569148770770783,-0.3,0.0,1.0,268.0,886.0,0.0,1,1846.0,0
1150,1150,-0.5339412161617623,-0.5,0.0,1.0,485.0,532.0,0.0,1,1983.0,0
1151,1151,-0.8069233197267642,-0.8,0.0,1.0,395.0,784.0,1.0,0,-1109.0,1
1152,1152,-0.7513656682464269,-0.8,0.0,1.0,471.0,528.0,0.0,1,2001.0,0
1153,1153,-0.014493174886328841,-0.0,0.0,1.0,368.0,690.0,0.0,1,1942.0,0
1154,1154,0.5454117522002818,0.5,0.0,0.0,305.0,780.0,0.0,1,1915.0,1
1155,1155,0.8389569609694242,0.8,0.0,0.0,448.0,522.0,0.0,1,2030.0,1
1156,1156,0.5094659440704955,0.5,1.0,1.0,413.0,712.0,0.0,0,-1045.0,0
1157,1157,0.6206357023716998,0.6,0.0,0.0,375.0,627.0,0.0,1,1998.0,1
1158,1158,0.38960922775362483,0.4,0.0,0.0,450.0,966.0,0.0,1,1584.0,1
1159,1159,-0.5689615501278876,-0.6,0.0,1.0,322.0,957.0,1.0,0,-1209.0,1
1160,1160,-0.14641095179132024,-0.1,1.0,0.0,337.0,889.0,0.0,0,1774.0,1
1161,1161,0.727238865249859,0.7,0.0,0.0,348.0,959.0,0.0,1,1693.0,1
1162,1162,0.13236120275373253,0.1,1.0,1.0,252.0,743.0,0.0,0,2005.0,0
1163,1163,0.04303210979479222,0.0,1.0,1.0,438.0,723.0,0.0,0,1839.0,0
1164,1164,-0.43488002662000846,-0.4,1.0,0.0,433.0,932.0,0.0,0,1635.0,1
1165,1165,-0.12741441585990165,-0.1,1.0,0.0,491.0,852.0,0.0,0,1657.0,1
1166,1166,-0.3759622073466816,-0.4,0.0,1.0,465.0,646.0,0.0,1,1889.0,0
1167,1167,0.8076275346735867,0.8,1.0,1.0,342.0,896.0,0.0,0,1762.0,0
1168,1168,0.5324140103778611,0.5,1.0,1.0,433.0,570.0,0.0,0,1997.0,0
1169,1169,0.6505631201906598,0.7,0.0,0.0,317.0,997.0,0.0,1,1686.0,1
1170,1170,0.7698786027831516,0.8,0.0,0.0,363.0,749.0,0.0,1,1888.0,1
1171,1171,0.6915332806036308,0.7,0.0,0.0,391.0,630.0,0.0,1,1979.0,1
1172,1172,0.6836762038675298,0.7,1.0,1.0,352.0,767.0,0.0,0,1881.0,0
1173,1173,0.8168402727155079,0.8,1.0,1.0,409.0,860.0,0.0,0,1731.0,0
1174,1174,-0.21196257317839184,-0.2,1.0,0.0,289.0,855.0,0.0,0,1856.0,1
1175,1175,0.7839700528322467,0.8,1.0,1.0,264.0,814.0,0.0,0,1922.0,0
1176,1176,-0.24099448570815896,-0.2,1.0,0.0,312.0,550.0,1.0,1,-762.0,0
1177,1177,-0.5882089856451589,-0.6,0.0,1.0,438.0,896.0,0.0,1,1666.0,0
1178,1178,0.7346410610099235,0.7,1.0,1.0,299.0,732.0,0.0,0,1969.0,0
1179,1179,0.3151220019996742,0.3,1.0,1.0,456.0,746.0,0.0,0,1798.0,0
1180,1180,0.6466486528998058,0.6,1.0,1.0,274.0,593.0,0.0,0,2133.0,0
1181,1181,-0.03442730772361646,-0.0,1.0,0.0,302.0,993.0,0.0,0,1705.0,1
1182,1182,-0.06538174712887079,-0.1,0.0,1.0,401.0,996.0,0.0,1,1603.0,0
1183,1183,0.4295735444535612,0.4,1.0,1.0,485.0,551.0,0.0,0,1964.0,0
1184,1184,-0.7225243817140945,-0.7,0.0,1.0,407.0,786.0,0.0,1,1807.0,0
1185,1185,0.25001640997907126,0.3,1.0,1.0,480.0,731.0,1.0,1,-971.0,1
1186,1186,-0.781102772820106,-0.8,1.0,0.0,278.0,670.0,0.0,0,2052.0,1
1187,1187,-0.8303076836493446,-0.8,0.0,1.0,371.0,831.0,0.0,1,1798.0,0
1188,1188,-0.549473950403957,-0.5,0.0,1.0,336.0,873.0,0.0,1,1791.0,0
1189,1189,-0.5445919012583826,-0.5,0.0,1.0,326.0,519.0,0.0,1,2155.0,0
1190,1190,0.408640776612499,0.4,1.0,1.0,285.0,759.0,0.0,0,1956.0,0
1191,1191,-0.4535967792192927,-0.5,1.0,0.0,439.0,561.0,0.0,0,2000.0,1
1192,1192,-0.455398568282346,-0.5,1.0,0.0,493.0,777.0,0.0,0,1730.0,1
1193,1193,-0.45187237479046416,-0.5,1.0,0.0,486.0,878.0,0.0,0,-1214.0,1
1194,1194,0.2933141834600609,0.3,1.0,1.0,433.0,959.0,0.0,0,1608.0,0
1195,1195,0.5807774466563213,0.6,1.0,1.0,360.0,550.0,0.0,0,2090.0,0
1196,1196,0.8729659611391786,0.9,1.0,1.0,359.0,580.0,0.0,0,2061.0,0
1197,1197,-0.11136783048240761,-0.1,1.0,0.0,347.0,801.0,0.0,0,1852.0,1
1198,1198,0.08918361388579288,0.1,0.0,0.0,320.0,808.0,0.0,1,1872.0,1
1199,1199,0.8315509738094867,0.8,0.0,0.0,284.0,735.0,0.0,1,1981.0,1
1200,1200,-0.38185680431096247,-0.4,0.0,1.0,324.0,526.0,0.0,1,2150.0,0
1201,1201,0.7629490167571061,0.8,0.0,0.0,336.0,603.0,0.0,1,2061.0,1
1202,1202,0.10345552368682964,0.1,0.0,0.0,375.0,555.0,0.0,1,2070.0,1
1203,1203,-0.16615531953882556,-0.2,0.0,1.0,494.0,661.0,0.0,1,1845.0,0
1204,1204,0.05830751976848436,0.1,1.0,1.0,458.0,788.0,0.0,0,1754.0,0
1205,1205,0.5345448457758649,0.5,1.0,1.0,381.0,943.0,1.0,1,-1294.0,1
1206,1206,-0.018746780003491947,-0.0,0.0,1.0,442.0,931.0,0.0,1,1627.0,0
1207,1207,-0.18881122172847853,-0.2,1.0,0.0,492.0,957.0,0.0,0,1551.0,1
1208,1208,0.42907386399030545,0.4,1.0,1.0,369.0,511.0,0.0,0,2120.0,0
1209,1209,0.1757707566204928,0.2,1.0,1.0,277.0,870.0,0.0,0,1853.0,0
1210,1210,-0.8823725717258285,-0.9,1.0,0.0,264.0,934.0,0.0,0,-1008.0,1
1211,1211,-0.02423265106332595,-0.0,0.0,1.0,254.0,770.0,0.0,1,1976.0,0
1212,1212,0.3254395601190868,0.3,0.0,0.0,405.0,803.0,0.0,1,1792.0,1
1213,1213,-0.6453803259858113,-0.6,0.0,1.0,350.0,937.0,0.0,1,1713.0,0
1214,1214,0.37860013170909,0.4,0.0,0.0,269.0,672.0,0.0,1,2059.0,1
1215,1215,0.2000399429968921,0.2,1.0,1.0,446.0,510.0,0.0,0,2044.0,0
1216,1216,-0.6911079626719632,-0.7,1.0,0.0,255.0,560.0,0.0,0,2185.0,1
1217,1217,0.5758593935042747,0.6,0.0,0.0,342.0,658.0,0.0,1,-990.0,1
1218,1218,-0.8867788499482817,-0.9,0.0,1.0,413.0,990.0,0.0,1,1597.0,0
1219,1219,0.7335316511241338,0.7,0.0,0.0,447.0,612.0,0.0,1,1941.0,1
1220,1220,-0.7294461956458563,-0.7,1.0,0.0,330.0,790.0,0.0,0,1880.0,1
1221,1221,-0.4550152065006301,-0.5,1.0,0.0,425.0,753.0,0.0,0,1822.0,1
1222,1222,-0.6193644929343426,-0.6,1.0,0.0,427.0,659.0,0.0,0,1914.0,1
1223,1223,-0.031241049034948287,-0.0,0.0,1.0,283.0,595.0,0.0,1,2122.0,0
1224,1224,0.6001924013229322,0.6,1.0,1.0,337.0,910.0,0.0,0,1753.0,0
1225,1225,-0.02915643610178409,-0.0,1.0,0.0,343.0,621.0,0.0,0,2036.0,1
1226,1226,-0.7053452613387979,-0.7,1.0,0.0,310.0,557.0,0.0,0,2133.0,1
1227,1227,-0.5875056206392308,-0.6,1.0,0.0,382.0,790.0,0.0,0,1828.0,1
1228,1228,-0.8553396238781211,-0.9,0.0,1.0,346.0,831.0,0.0,1,1823.0,0
1229,1229,-0.7624625542145619,-0.8,0.0,1.0,391.0,865.0,0.0,1,1744.0,0
1230,1230,0.2824582367102447,0.3,1.0,1.0,444.0,517.0,0.0,0,2039.0,0
1231,1231,-0.15254690804776516,-0.2,1.0,0.0,292.0,972.0,0.0,0,1736.0,1
1232,1232,-0.42291478776521446,-0.4,1.0,0.0,420.0,696.0,0.0,0,1884.0,1
1233,1233,-0.4234733324796843,-0.4,0.0,1.0,350.0,724.0,0.0,1,1926.0,0
1234,1234,-0.004593766698520629,-0.0,0.0,1.0,478.0,853.0,0.0,1,1669.0,0
1235,1235,0.14228795822802065,0.1,0.0,0.0,328.0,529.0,0.0,1,2143.0,1
1236,1236,0.009088190306414612,0.0,0.0,0.0,444.0,587.0,0.0,1,1969.0,1
1237,1237,0.5794614035814655,0.6,0.0,0.0,350.0,807.0,0.0,1,1843.0,1
1238,1238,-0.2805016877039852,-0.3,1.0,0.0,353.0,631.0,0.0,0,2016.0,1
1239,1239,0.11402675925798011,0.1,0.0,0.0,431.0,754.0,0.0,1,1815.0,1
1240,1240,-0.6717674261532717,-0.7,1.0,0.0,461.0,704.0,0.0,0,1835.0,1
1241,1241,-0.3177952754772191,-0.3,1.0,0.0,435.0,559.0,0.0,0,2006.0,1
1242,1242,0.13401387087138594,0.1,1.0,1.0,338.0,844.0,0.0,0,1818.0,0
1243,1243,-0.7618266755710298,-0.8,0.0,1.0,296.0,606.0,0.0,1,2098.0,0
1244,1244,-0.5299133332562329,-0.5,0.0,1.0,257.0,568.0,0.0,1,2175.0,0
1245,1245,0.2735109853947725,0.3,1.0,1.0,445.0,512.0,0.0,0,2043.0,0
1246,1246,-0.4261748793316797,-0.4,0.0,1.0,273.0,960.0,0.0,1,1767.0,0
1247,1247,-0.2656464447429522,-0.3,0.0,1.0,291.0,891.0,0.0,1,1818.0,0
1248,1248,0.8444353338119447,0.8,0.0,0.0,360.0,685.0,0.0,1,-1005.0,1
1249,1249,0.6274520315332196,0.6,1.0,1.0,298.0,590.0,0.0,0,2112.0,0
1250,1250,0.037005079408501174,0.0,0.0,0.0,334.0,908.0,1.0,0,-1242.0,0
1251,1251,0.04301700072671588,0.0,0.0,0.0,264.0,707.0,0.0,1,2029.0,1
1252,1252,0.3193449791651689,0.3,1.0,1.0,251.0,550.0,0.0,0,2199.0,0
1253,1253,0.1849904427943604,0.2,0.0,0.0,439.0,978.0,0.0,1,-1347.0,1
1254,1254,0.7427915406570863,0.7,0.0,0.0,410.0,914.0,0.0,1,1676.0,1
1255,1255,0.8324181808567291,0.8,0.0,0.0,412.0,604.0,0.0,1,1984.0,1
1256,1256,-0.8089093845230724,-0.8,1.0,0.0,471.0,872.0,0.0,0,1657.0,1
1257,1257,-0.3139912264785788,-0.3,0.0,1.0,266.0,764.0,1.0,0,-1010.0,1
1258,1258,-0.023168306179022213,-0.0,1.0,0.0,486.0,961.0,0.0,0,1553.0,1
1259,1259,-0.14575475053988507,-0.1,0.0,1.0,429.0,711.0,0.0,1,1860.0,0
1260,1260,0.5072654367391286,0.5,1.0,1.0,281.0,768.0,0.0,0,1951.0,0
1261,1261,-0.565294281928853,-0.6,1.0,0.0,493.0,900.0,0.0,0,1607.0,1
1262,1262,-0.049874169479323216,-0.0,1.0,0.0,279.0,813.0,0.0,0,1908.0,1
1263,1263,0.45872057172426073,0.5,0.0,0.0,383.0,528.0,0.0,1,2089.0,1
1264,1264,0.7116806779039219,0.7,1.0,1.0,355.0,940.0,0.0,0,1705.0,0
1265,1265,-0.519561797775818,-0.5,0.0,1.0,289.0,764.0,0.0,1,1947.0,0
1266,1266,0.4858228635471483,0.5,0.0,0.0,376.0,693.0,0.0,1,-989.0,1
1267,1267,0.781767465377356,0.8,1.0,1.0,375.0,831.0,0.0,0,1794.0,0
1268,1268,-0.1571663999263383,-0.2,0.0,1.0,414.0,812.0,0.0,1,1774.0,0
1269,1269,-0.49413818594306874,-0.5,1.0,0.0,360.0,964.0,0.0,0,-1324.0,1
1270,1270,-0.01116699213562522,-0.0,0.0,1.0,486.0,529.0,0.0,1,1985.0,0
1271,1271,-0.29041624585516734,-0.3,1.0,0.0,465.0,697.0,0.0,0,1838.0,1
1272,1272,-0.1592322684194507,-0.2,0.0,1.0,297.0,549.0,0.0,1,2154.0,0
1273,1273,-0.11687105938873177,-0.1,1.0,0.0,333.0,616.0,0.0,0,2051.0,1
1274,1274,0.2574899481752061,0.3,0.0,0.0,262.0,721.0,0.0,1,2017.0,1
1275,1275,-0.03496369914410624,-0.0,1.0,0.0,379.0,739.0,0.0,0,1882.0,1
1276,1276,-0.252436961950365,-0.3,0.0,1.0,293.0,593.0,0.0,1,2114.0,0
1277,1277,-0.0961132812825164,-0.1,1.0,0.0,352.0,648.0,0.0,0,2000.0,1
1278,1278,0.13659499429382815,0.1,0.0,0.0,307.0,804.0,0.0,1,1889.0,1
1279,1279,0.05820686101594419,0.1,0.0,0.0,372.0,844.0,0.0,1,1784.0,1
1280,1280,-0.4217267567867355,-0.4,0.0,1.0,262.0,627.0,0.0,1,2111.0,0
1281,1281,0.8135042795991009,0.8,0.0,0.0,458.0,635.0,0.0,1,1907.0,1
1282,1282,0.7658167127799659,0.8,0.0,0.0,486.0,868.0,0.0,1,1646.0,1
1283,1283,-0.5341938305297907,-0.5,1.0,0.0,287.0,525.0,0.0,0,2188.0,1
1284,1284,0.09042012206508965,0.1,0.0,0.0,460.0,871.0,0.0,1,1669.0,1
1285,1285,-0.5470462258966715,-0.5,1.0,0.0,497.0,800.0,0.0,0,1703.0,1
1286,1286,0.43047807500495894,0.4,0.0,0.0,288.0,602.0,0.0,1,2110.0,1
1287,1287,-0.3499069559437479,-0.3,0.0,1.0,282.0,994.0,0.0,1,1724.0,0
1288,1288,-0.6547806751914453,-0.7,0.0,1.0,379.0,672.0,0.0,1,1949.0,0
1289,1289,-0.7059076358531982,-0.7,0.0,1.0,413.0,530.0,0.0,1,2057.0,0
1290,1290,0.7252024535527318,0.7,1.0,1.0,265.0,899.0,0.0,0,1836.0,0
1291,1291,0.8758825297094289,0.9,1.0,1.0,278.0,639.0,0.0,0,2083.0,0
1292,1292,-0.704837935611414,-0.7,1.0,0.0,439.0,911.0,0.0,0,1650.0,1
1293,1293,-0.1833993563581784,-0.2,1.0,0.0,368.0,876.0,0.0,0,1756.0,1
1294,1294,-0.032092283137717725,-0.0,0.0,1.0,391.0,744.0,0.0,1,1865.0,0
1295,1295,0.663132586789884,0.7,1.0,1.0,405.0,985.0,0.0,0,1610.0,0
1296,1296,0.11317445725414121,0.1,1.0,1.0,312.0,819.0,0.0,0,1869.0,0
1297,1297,0.1644034746300581,0.2,1.0,1.0,327.0,831.0,0.0,0,1842.0,0
1298,1298,0.2737149076140638,0.3,0.0,0.0,361.0,835.0,0.0,1,1804.0,1
1299,1299,-0.4129333083620363,-0.4,0.0,1.0,315.0,796.0,0.0,1,1889.0,0
1300,1300,-0.004964640887521576,-0.0,0.0,1.0,282.0,952.0,0.0,1,1766.0,0
1301,1301,0.5082782226034707,0.5,0.0,0.0,412.0,980.0,0.0,1,1608.0,1
1302,1302,-0.03260689896175739,-0.0,0.0,1.0,321.0,792.0,0.0,1,1887.0,0
1303,1303,0.5279864329162108,0.5,0.0,0.0,363.0,975.0,0.0,1,1662.0,1
1304,1304,0.5305839975284224,0.5,0.0,0.0,268.0,544.0,0.0,1,2188.0,1
1305,1305,-0.5972664306798929,-0.6,0.0,1.0,393.0,654.0,0.0,1,1953.0,0
1306,1306,-0.5917835755444059,-0.6,1.0,0.0,463.0,943.0,0.0,0,1594.0,1
1307,1307,-0.8393780577498219,-0.8,0.0,1.0,464.0,710.0,0.0,1,1826.0,0
1308,1308,-0.20497856514892476,-0.2,0.0,1.0,318.0,807.0,0.0,1,1875.0,0
1309,1309,0.3437949511759254,0.3,1.0,1.0,406.0,724.0,0.0,0,1870.0,0
1310,1310,0.7490495585187716,0.7,1.0,1.0,302.0,930.0,0.0,0,1768.0,0
1311,1311,-0.6605201209746476,-0.7,1.0,0.0,258.0,905.0,0.0,0,1837.0,1
1312,1312,-0.8664641000375382,-0.9,1.0,0.0,498.0,724.0,0.0,0,1778.0,1
1313,1313,0.17819576125434444,0.2,0.0,0.0,441.0,582.0,0.0,1,1977.0,1
1314,1314,-0.046666903082723366,-0.0,1.0,0.0,431.0,934.0,0.0,0,1635.0,1
1315,1315,-0.5509686485577812,-0.6,1.0,0.0,372.0,782.0,0.0,0,1846.0,1
1316,1316,0.3058603881679324,0.3,0.0,0.0,425.0,940.0,0.0,1,1635.0,1
1317,1317,0.09282253769008608,0.1,1.0,1.0,470.0,651.0,0.0,0,1879.0,0
1318,1318,-0.6459751957670583,-0.6,0.0,1.0,411.0,885.0,0.0,1,1704.0,0
1319,1319,-0.1820404736420531,-0.2,0.0,1.0,270.0,712.0,0.0,1,2018.0,0
1320,1320,0.21732847107463826,0.2,1.0,1.0,452.0,797.0,0.0,0,1751.0,0
1321,1321,-0.8018781766350591,-0.8,0.0,1.0,366.0,836.0,0.0,1,1798.0,0
1322,1322,-0.29112488308580664,-0.3,0.0,1.0,419.0,814.0,0.0,1,1767.0,0
1323,1323,-0.3353844725980244,-0.3,0.0,1.0,269.0,875.0,0.0,1,1856.0,0
1324,1324,-0.12925457168133048,-0.1,0.0,1.0,286.0,913.0,0.0,1,1801.0,0
1325,1325,0.11789936081514674,0.1,0.0,0.0,316.0,796.0,0.0,1,1888.0,1
1326,1326,-0.37279348441421656,-0.4,1.0,0.0,423.0,891.0,0.0,0,1686.0,1
1327,1327,0.5570087982628714,0.6,1.0,1.0,481.0,612.0,0.0,0,1907.0,0
1328,1328,0.8417555091643304,0.8,0.0,0.0,269.0,636.0,0.0,1,2095.0,1
1329,1329,0.3653874829881355,0.4,0.0,0.0,274.0,723.0,0.0,1,-907.0,1
1330,1330,0.002375627094115207,0.0,0.0,0.0,476.0,601.0,0.0,1,1923.0,1
1331,1331,0.028219403407171106,0.0,1.0,1.0,318.0,539.0,0.0,0,2143.0,0
1332,1332,0.6610616638107755,0.7,1.0,1.0,362.0,642.0,0.0,0,1996.0,0
1333,1333,0.8418957384770546,0.8,0.0,0.0,320.0,725.0,0.0,1,-895.0,1
1334,1334,-0.702965238308009,-0.7,0.0,1.0,486.0,747.0,0.0,1,1767.0,0
1335,1335,0.5352768101391822,0.5,1.0,1.0,371.0,676.0,0.0,0,1953.0,0
1336,1336,-0.7218725108890168,-0.7,1.0,0.0,476.0,531.0,0.0,0,1993.0,1
1337,1337,-0.8690152433790118,-0.9,0.0,1.0,385.0,984.0,0.0,1,1631.0,0
1338,1338,0.045665980518623694,0.0,1.0,1.0,353.0,590.0,0.0,0,2057.0,0
1339,1339,0.15745769281764843,0.2,0.0,0.0,342.0,963.0,0.0,1,1695.0,1
1340,1340,-0.8997871683382743,-0.9,1.0,0.0,421.0,808.0,0.0,0,1771.0,1
1341,1341,-0.12171962941419656,-0.1,1.0,0.0,438.0,835.0,0.0,0,1727.0,1
1342,1342,-0.8431000190272647,-0.8,0.0,1.0,292.0,563.0,0.0,1,2145.0,0
1343,1343,-0.43767984921953934,-0.4,0.0,1.0,280.0,611.0,0.0,1,2109.0,0
1344,1344,0.6180399492165524,0.6,1.0,1.0,394.0,544.0,0.0,0,2062.0,0
1345,1345,-0.16179871535738055,-0.2,1.0,0.0,340.0,974.0,0.0,0,-1224.0,1
1346,1346,0.0971467998314014,0.1,0.0,0.0,265.0,532.0,0.0,1,2203.0,1
1347,1347,-0.2320982022718896,-0.2,0.0,1.0,325.0,670.0,0.0,1,2005.0,0
1348,1348,0.6365835810897488,0.6,0.0,0.0,440.0,752.0,0.0,1,1808.0,1
1349,1349,0.2944008790806224,0.3,0.0,0.0,361.0,689.0,0.0,1,1950.0,1
1350,1350,0.5679348385552144,0.6,1.0,1.0,486.0,565.0,0.0,0,1949.0,0
1351,1351,0.395376569951681,0.4,1.0,1.0,469.0,830.0,0.0,0,1701.0,0
1352,1352,-0.05904391787486041,-0.1,0.0,1.0,419.0,623.0,0.0,1,1958.0,0
1353,1353,0.13938067808152954,0.1,0.0,0.0,491.0,589.0,0.0,1,1920.0,1
1354,1354,0.052280102382741056,0.1,1.0,1.0,250.0,676.0,0.0,0,2074.0,0
1355,1355,-0.0012800593690955875,-0.0,1.0,0.0,346.0,740.0,0.0,0,1914.0,1
1356,1356,-0.129643466239024,-0.1,1.0,0.0,428.0,721.0,0.0,0,1851.0,1
1357,1357,-0.7580064041463794,-0.8,0.0,1.0,437.0,639.0,0.0,1,-1046.0,0
1358,1358,-0.06901080660771763,-0.1,0.0,1.0,342.0,513.0,0.0,1,2145.0,0
1359,1359,-0.29980745010040877,-0.3,0.0,1.0,464.0,679.0,1.0,0,-1063.0,1
1360,1360,-0.8557506230637775,-0.9,0.0,1.0,310.0,622.0,0.0,1,2068.0,0
1361,1361,-0.22577318773460753,-0.2,1.0,0.0,473.0,684.0,0.0,0,1843.0,1
1362,1362,-0.4834895591227575,-0.5,0.0,1.0,285.0,778.0,0.0,1,1937.0,0
1363,1363,-0.06733530110981356,-0.1,0.0,1.0,362.0,543.0,0.0,1,2095.0,0
1364,1364,-0.002489300224640889,-0.0,1.0,0.0,368.0,774.0,0.0,0,1858.0,1
1365,1365,0.4132168261121886,0.4,0.0,0.0,330.0,855.0,0.0,1,1815.0,1
1366,1366,0.2492184140769259,0.2,0.0,0.0,445.0,878.0,0.0,1,1677.0,1
1367,1367,-0.6895762587533747,-0.7,0.0,1.0,401.0,762.0,0.0,1,1837.0,0
1368,1368,0.6873776380379947,0.7,1.0,1.0,344.0,594.0,0.0,0,2062.0,0
1369,1369,-0.2962982938259081,-0.3,1.0,0.0,325.0,732.0,0.0,0,1943.0,1
1370,1370,-0.40172816014767726,-0.4,1.0,0.0,460.0,552.0,0.0,0,1988.0,1
1371,1371,-0.05447163474371575,-0.1,1.0,0.0,339.0,960.0,0.0,0,1701.0,1
1372,1372,0.09533305836420947,0.1,0.0,0.0,259.0,559.0,0.0,1,2182.0,1
1373,1373,0.26817036270802486,0.3,1.0,1.0,447.0,932.0,0.0,0,1621.0,0
1374,1374,-0.5445868876663631,-0.5,0.0,1.0,392.0,976.0,0.0,1,1632.0,0
1375,1375,-0.13129998567189738,-0.1,0.0,1.0,313.0,958.0,0.0,1,1729.0,0
1376,1376,0.8504342178450605,0.9,1.0,1.0,310.0,773.0,0.0,0,1917.0,0
1377,1377,0.5235915939802217,0.5,1.0,1.0,314.0,950.0,1.0,1,-1234.0,1
1378,1378,0.018178472169839033,0.0,0.0,0.0,377.0,705.0,0.0,1,1918.0,1
1379,1379,0.16816201738080838,0.2,0.0,0.0,293.0,657.0,0.0,1,2050.0,1
1380,1380,0.4586311806419058,0.5,1.0,1.0,348.0,700.0,0.0,0,1952.0,0
1381,1381,-0.1583420784025047,-0.2,0.0,1.0,288.0,621.0,0.0,1,2091.0,0
1382,1382,0.17905177862086175,0.2,1.0,1.0,430.0,842.0,0.0,0,1728.0,0
1383,1383,0.2459189495676103,0.2,1.0,1.0,324.0,953.0,0.0,0,1723.0,0
1384,1384,-0.14719959759870305,-0.1,0.0,1.0,387.0,752.0,0.0,1,1861.0,0
1385,1385,-0.33113012622127946,-0.3,0.0,1.0,459.0,868.0,0.0,1,1673.0,0
1386,1386,-0.8980790078622529,-0.9,0.0,1.0,350.0,559.0,0.0,1,2091.0,0
1387,1387,0.763833335463214,0.8,1.0,1.0,283.0,521.0,0.0,0,2196.0,0
1388,1388,-0.2632753873613486,-0.3,1.0,0.0,272.0,978.0,0.0,0,1750.0,1
1389,1389,-0.5095484616304438,-0.5,1.0,0.0,490.0,792.0,0.0,0,1718.0,1
1390,1390,-0.834590211518351,-0.8,1.0,0.0,352.0,606.0,0.0,0,2042.0,1
1391,1391,0.7185749880451592,0.7,1.0,1.0,373.0,611.0,0.0,0,2016.0,0
1392,1392,0.881951643449587,0.9,0.0,0.0,271.0,845.0,0.0,1,1884.0,1
1393,1393,0.3627147183881433,0.4,1.0,1.0,440.0,766.0,0.0,0,1794.0,0
1394,1394,0.46677696865024354,0.5,0.0,0.0,357.0,851.0,0.0,1,-1128.0,1
1395,1395,-0.43886647505325194,-0.4,0.0,1.0,329.0,896.0,1.0,0,-1225.0,1
1396,1396,0.4335029706667711,0.4,0.0,0.0,424.0,788.0,0.0,1,1788.0,1
1397,1397,-0.569457971278608,-0.6,0.0,1.0,299.0,929.0,0.0,1,1772.0,0
1398,1398,0.22177178908352213,0.2,1.0,1.0,314.0,985.0,0.0,0,1701.0,0
1399,1399,0.04995746026394665,0.0,0.0,0.0,461.0,943.0,0.0,1,1596.0,1
1400,1400,0.13521540430320733,0.1,0.0,0.0,446.0,642.0,0.0,1,1912.0,1
1401,1401,0.6220826129411553,0.6,1.0,1.0,294.0,821.0,0.0,0,1885.0,0
1402,1402,0.4997765212365056,0.5,0.0,0.0,366.0,531.0,0.0,1,2103.0,1
1403,1403,-0.09364412326451921,-0.1,1.0,0.0,338.0,661.0,0.0,0,2001.0,1
1404,1404,-0.6657355083682164,-0.7,1.0,0.0,258.0,688.0,0.0,0,2054.0,1
1405,1405,0.4747250770465862,0.5,0.0,0.0,259.0,562.0,0.0,1,2179.0,1
1406,1406,-0.2730059614844208,-0.3,0.0,1.0,293.0,946.0,0.0,1,1761.0,0
1407,1407,-0.6686015421943649,-0.7,1.0,0.0,497.0,572.0,0.0,0,1931.0,1
1408,1408,0.5380801130252953,0.5,1.0,1.0,495.0,638.0,0.0,0,1867.0,0
1409,1409,-0.515487501428879,-0.5,1.0,0.0,478.0,849.0,0.0,0,1673.0,1
1410,1410,0.5729231658048376,0.6,0.0,0.0,337.0,823.0,1.0,0,-1120.0,0
1411,1411,0.036853236859915706,0.0,0.0,0.0,472.0,996.0,0.0,1,1532.0,1
1412,1412,-0.5815282439849252,-0.6,1.0,0.0,399.0,890.0,0.0,0,1711.0,1
1413,1413,-0.2530819714137228,-0.3,0.0,1.0,493.0,623.0,0.0,1,1884.0,0
1414,1414,0.8952900193764285,0.9,0.0,0.0,345.0,568.0,0.0,1,2087.0,1
1415,1415,0.8777189389386303,0.9,1.0,1.0,257.0,582.0,1.0,1,-799.0,1
1416,1416,0.803195147956368,0.8,1.0,1.0,495.0,557.0,0.0,0,1948.0,0
1417,1417,-0.7809298616718304,-0.8,1.0,0.0,365.0,549.0,0.0,0,2086.0,1
1418,1418,-0.4366473135431389,-0.4,0.0,1.0,319.0,559.0,0.0,1,2122.0,0
1419,1419,-0.1815733226043751,-0.2,0.0,1.0,479.0,747.0,0.0,1,1774.0,0
1420,1420,-0.4859562226318461,-0.5,1.0,0.0,489.0,955.0,0.0,0,1556.0,1
1421,1421,-0.8181148671282008,-0.8,1.0,0.0,403.0,501.0,0.0,0,2096.0,1
1422,1422,-0.790710863090608,-0.8,0.0,1.0,443.0,887.0,0.0,1,1670.0,0
1423,1423,0.8625309526930737,0.9,0.0,0.0,333.0,650.0,1.0,0,-923.0,0
1424,1424,0.38359813901004414,0.4,1.0,1.0,419.0,513.0,0.0,0,2068.0,0
1425,1425,0.2160736614210642,0.2,1.0,1.0,465.0,563.0,0.0,0,-1018.0,0
1426,1426,-0.8549982481493152,-0.9,1.0,0.0,472.0,670.0,0.0,0,1858.0,1
1427,1427,-0.04418667207371019,-0.0,0.0,1.0,312.0,898.0,0.0,1,1790.0,0
1428,1428,-0.001951702131583688,-0.0,0.0,1.0,337.0,792.0,0.0,1,1871.0,0
1429,1429,0.5399643513884284,0.5,0.0,0.0,399.0,513.0,0.0,1,2088.0,1
1430,1430,-0.7890071020144618,-0.8,1.0,0.0,353.0,847.0,0.0,0,1800.0,1
1431,1431,-0.3318307046194746,-0.3,0.0,1.0,331.0,908.0,0.0,1,1761.0,0
1432,1432,0.5930768357499029,0.6,0.0,0.0,254.0,588.0,0.0,1,2158.0,1
1433,1433,-0.793124664629111,-0.8,1.0,0.0,387.0,747.0,0.0,0,1866.0,1
1434,1434,-0.08346671193199684,-0.1,0.0,1.0,322.0,836.0,0.0,1,1842.0,0
1435,1435,-0.05057835465203431,-0.1,1.0,0.0,365.0,576.0,0.0,0,2059.0,1
1436,1436,0.8364373252276424,0.8,1.0,1.0,378.0,796.0,0.0,0,1826.0,0
1437,1437,-0.39054422728656557,-0.4,0.0,1.0,404.0,724.0,0.0,1,1872.0,0
1438,1438,-0.08651886171725864,-0.1,1.0,0.0,472.0,608.0,0.0,0,1920.0,1
1439,1439,0.7915436500564362,0.8,1.0,1.0,291.0,714.0,0.0,0,1995.0,0
1440,1440,0.7554173757754873,0.8,1.0,1.0,402.0,702.0,0.0,0,1896.0,0
1441,1441,0.49455272847260623,0.5,0.0,0.0,322.0,588.0,0.0,1,2090.0,1
1442,1442,-0.3471118122790281,-0.3,0.0,1.0,282.0,636.0,0.0,1,2082.0,0
1443,1443,-0.2501020167941519,-0.3,1.0,0.0,275.0,828.0,0.0,0,1897.0,1
1444,1444,-0.3757033738034129,-0.4,0.0,1.0,366.0,878.0,0.0,1,1756.0,0
1445,1445,0.07187594132307895,0.1,0.0,0.0,374.0,693.0,0.0,1,1933.0,1
1446,1446,-0.18000423601459448,-0.2,1.0,0.0,334.0,968.0,0.0,0,1698.0,1
1447,1447,-0.03737504392427626,-0.0,0.0,1.0,334.0,995.0,0.0,1,1671.0,0
1448,1448,-0.8785158394905037,-0.9,0.0,1.0,414.0,533.0,0.0,1,-747.0,0
1449,1449,-0.6664461817145765,-0.7,1.0,0.0,253.0,966.0,1.0,1,-1159.0,0
1450,1450,0.5842247394677117,0.6,0.0,0.0,433.0,819.0,0.0,1,1748.0,1
1451,1451,-0.3186854437471832,-0.3,0.0,1.0,329.0,910.0,0.0,1,1761.0,0
1452,1452,0.15856569190401382,0.2,0.0,0.0,306.0,668.0,0.0,1,2026.0,1
1453,1453,0.82678292842334,0.8,0.0,0.0,498.0,905.0,0.0,1,1597.0,1
1454,1454,-0.8715185609570805,-0.9,1.0,0.0,316.0,880.0,0.0,0,1804.0,1
1455,1455,0.8925290722892271,0.9,1.0,1.0,384.0,893.0,0.0,0,1723.0,0
1456,1456,0.24990279967078421,0.2,1.0,1.0,252.0,511.0,0.0,0,2237.0,0
1457,1457,0.2978290540122507,0.3,1.0,1.0,472.0,963.0,0.0,0,-1435.0,0
1458,1458,0.521205939637127,0.5,1.0,1.0,255.0,946.0,0.0,0,1799.0,0
1459,1459,0.004917766297973469,0.0,0.0,0.0,304.0,735.0,0.0,1,1961.0,1
1460,1460,-0.7381259720879212,-0.7,1.0,0.0,386.0,757.0,0.0,0,1857.0,1
1461,1461,0.17079503582001065,0.2,0.0,0.0,424.0,788.0,1.0,0,-1062.0,0
1462,1462,0.6298342607424195,0.6,1.0,1.0,398.0,641.0,1.0,1,-1009.0,1
1463,1463,0.31853731490613446,0.3,0.0,0.0,498.0,837.0,0.0,1,1665.0,1
1464,1464,-0.8239104758334033,-0.8,1.0,0.0,347.0,907.0,0.0,0,-1214.0,1
1465,1465,0.10056162669256785,0.1,1.0,1.0,458.0,576.0,0.0,0,1966.0,0
1466,1466,0.3411145756169861,0.3,1.0,1.0,479.0,639.0,0.0,0,1882.0,0
1467,1467,0.6272260540154128,0.6,0.0,0.0,345.0,727.0,0.0,1,1928.0,1
1468,1468,0.797641725431944,0.8,1.0,1.0,398.0,966.0,0.0,0,1636.0,0
1469,1469,0.7828510705683848,0.8,0.0,0.0,453.0,810.0,0.0,1,1737.0,1
1470,1470,0.3415409556252741,0.3,0.0,0.0,287.0,979.0,0.0,1,1734.0,1
