,trial,coherence,coherence_bin,green_side,correct_side,target_onset,checker_onset,decision,green_decision,decision_time,correct_decision
0,0,-0.7998995866182771,-0.8,1.0,0.0,469.0,523.0,0.0,0,218.0,1
1,1,-0.8034552244366329,-0.8,0.0,1.0,288.0,991.0,1.0,0,51.0,1
2,2,0.312799095367568,0.3,0.0,0.0,400.0,855.0,0.0,1,145.0,1
3,3,-0.5480447561958514,-0.5,0.0,1.0,461.0,742.0,1.0,0,447.0,1
4,4,0.2054199520922243,0.2,0.0,0.0,415.0,954.0,0.0,1,321.0,1
5,5,-0.026304930197783016,-0.0,0.0,1.0,397.0,982.0,1.0,0,571.0,1
6,6,0.5226633469834882,0.5,0.0,0.0,488.0,781.0,0.0,1,151.0,1
7,7,0.17723749577678072,0.2,0.0,0.0,387.0,589.0,0.0,1,484.0,1
8,8,0.6489965809312631,0.6,0.0,0.0,276.0,930.0,0.0,1,144.0,1
9,9,0.4037188074607513,0.4,1.0,1.0,269.0,741.0,1.0,1,500.0,1
10,10,-0.6723195045029045,-0.7,1.0,0.0,316.0,638.0,0.0,0,326.0,1
11,11,0.32617148164147836,0.3,0.0,0.0,274.0,893.0,0.0,1,173.0,1
12,12,-0.7041119580752802,-0.7,1.0,0.0,426.0,523.0,0.0,0,591.0,1
13,13,-0.5416223705125289,-0.5,0.0,1.0,284.0,544.0,1.0,0,212.0,1
14,14,0.7880907762436146,0.8,0.0,0.0,266.0,658.0,0.0,1,156.0,1
15,15,-0.5228130026744658,-0.5,0.0,1.0,392.0,698.0,1.0,0,580.0,1
16,16,-0.38783633216153046,-0.4,0.0,1.0,268.0,828.0,1.0,0,224.0,1
17,17,0.07048618313050048,0.1,0.0,0.0,471.0,674.0,0.0,1,765.0,1
18,18,-0.49686715824978456,-0.5,1.0,0.0,356.0,906.0,0.0,0,158.0,1
19,19,0.21830978423332026,0.2,0.0,0.0,362.0,886.0,0.0,1,522.0,1
20,20,0.11548423249001682,0.1,0.0,0.0,429.0,680.0,0.0,1,1041.0,1
21,21,0.05222072117231946,0.1,1.0,1.0,321.0,698.0,1.0,1,1231.0,1
22,22,-0.41699369522386026,-0.4,0.0,1.0,342.0,722.0,1.0,0,286.0,1
23,23,0.41289704215437106,0.4,0.0,0.0,279.0,807.0,0.0,1,204.0,1
24,24,0.8022865071342563,0.8,0.0,0.0,344.0,657.0,0.0,1,169.0,1
25,25,-0.23611275836731838,-0.2,0.0,1.0,368.0,745.0,1.0,0,237.0,1
26,26,0.15694035792846484,0.2,1.0,1.0,398.0,588.0,1.0,1,634.0,1
27,27,-0.4158061301181067,-0.4,1.0,0.0,393.0,876.0,0.0,0,391.0,1
28,28,-0.5660058811514188,-0.6,1.0,0.0,496.0,851.0,0.0,0,153.0,1
29,29,0.49031149512010364,0.5,0.0,0.0,270.0,836.0,0.0,1,264.0,1
30,30,0.7570853538850865,0.8,1.0,1.0,415.0,938.0,1.0,1,217.0,1
31,31,0.8436765924905075,0.8,0.0,0.0,341.0,660.0,0.0,1,149.0,1
32,32,0.12702516432246969,0.1,1.0,1.0,438.0,895.0,1.0,1,237.0,1
33,33,-0.6809571205854843,-0.7,1.0,0.0,427.0,722.0,0.0,0,151.0,1
34,34,-0.2641453257616949,-0.3,1.0,0.0,279.0,540.0,0.0,0,441.0,1
35,35,0.24566972163051892,0.2,0.0,0.0,310.0,933.0,0.0,1,397.0,1
36,36,0.4687762622715045,0.5,1.0,1.0,381.0,881.0,1.0,1,138.0,1
37,37,-0.7630643050844885,-0.8,1.0,0.0,398.0,652.0,0.0,0,220.0,1
38,38,0.19733946715754713,0.2,0.0,0.0,457.0,628.0,0.0,1,555.0,1
39,39,-0.8449397782432936,-0.8,1.0,0.0,342.0,540.0,0.0,0,308.0,1
40,40,-0.48266598513265485,-0.5,0.0,1.0,261.0,504.0,1.0,0,295.0,1
41,41,-0.5669300721741797,-0.6,1.0,0.0,254.0,682.0,0.0,0,184.0,1
42,42,0.08806292626010614,0.1,1.0,1.0,389.0,745.0,1.0,1,366.0,1
43,43,-0.41842151409609385,-0.4,0.0,1.0,427.0,670.0,1.0,0,333.0,1
44,44,0.46720904120152473,0.5,0.0,0.0,442.0,792.0,0.0,1,106.0,1
45,45,0.8909736863013301,0.9,0.0,0.0,449.0,980.0,0.0,1,111.0,1
46,46,0.08717473868133185,0.1,0.0,0.0,355.0,931.0,0.0,1,244.0,1
47,47,-0.6384672657094121,-0.6,1.0,0.0,291.0,726.0,0.0,0,193.0,1
48,48,0.3508599713364594,0.4,0.0,0.0,258.0,922.0,0.0,1,380.0,1
49,49,0.6731493622920982,0.7,0.0,0.0,417.0,555.0,0.0,1,398.0,1
50,50,0.7967359946040099,0.8,0.0,0.0,359.0,782.0,0.0,1,179.0,1
51,51,0.02132119341314065,0.0,0.0,0.0,290.0,919.0,1.0,0,1261.0,0
52,52,0.5060898893719162,0.5,1.0,1.0,322.0,715.0,1.0,1,413.0,1
53,53,-0.2692047743271656,-0.3,0.0,1.0,330.0,745.0,1.0,0,275.0,1
54,54,0.2943927397504086,0.3,1.0,1.0,298.0,903.0,1.0,1,169.0,1
55,55,-0.22642963497083268,-0.2,1.0,0.0,395.0,781.0,0.0,0,304.0,1
56,56,-0.33067203087888086,-0.3,1.0,0.0,278.0,917.0,0.0,0,85.0,1
57,57,-0.8477792485388573,-0.8,0.0,1.0,278.0,747.0,1.0,0,355.0,1
58,58,-0.5454130516078821,-0.5,1.0,0.0,297.0,819.0,0.0,0,184.0,1
59,59,0.7710323760213006,0.8,1.0,1.0,341.0,750.0,1.0,1,329.0,1
60,60,0.4940159372428826,0.5,0.0,0.0,290.0,688.0,0.0,1,242.0,1
61,61,-0.38233336005310825,-0.4,0.0,1.0,472.0,843.0,1.0,0,125.0,1
62,62,-0.12268903778363982,-0.1,1.0,0.0,324.0,882.0,0.0,0,424.0,1
63,63,0.13911484820789533,0.1,0.0,0.0,296.0,642.0,0.0,1,462.0,1
64,64,0.36441827819656225,0.4,0.0,0.0,425.0,636.0,0.0,1,369.0,1
65,65,0.700475765675267,0.7,0.0,0.0,477.0,589.0,0.0,1,234.0,1
66,66,0.7551530649372512,0.8,1.0,1.0,426.0,789.0,1.0,1,355.0,1
67,67,-0.7907719098524676,-0.8,1.0,0.0,445.0,958.0,0.0,0,77.0,1
68,68,-0.6324876153721333,-0.6,0.0,1.0,282.0,566.0,1.0,0,262.0,1
69,69,0.21625462421144703,0.2,0.0,0.0,417.0,991.0,0.0,1,312.0,1
70,70,-0.18201034505848268,-0.2,0.0,1.0,433.0,565.0,1.0,0,902.0,1
71,71,-0.15039140522512007,-0.2,0.0,1.0,324.0,842.0,1.0,0,274.0,1
72,72,0.2770306398841419,0.3,1.0,1.0,293.0,623.0,1.0,1,414.0,1
73,73,-0.28527762825089975,-0.3,0.0,1.0,430.0,568.0,1.0,0,352.0,1
74,74,0.20830553922061334,0.2,1.0,1.0,446.0,665.0,1.0,1,319.0,1
75,75,-0.739492821521061,-0.7,0.0,1.0,277.0,515.0,1.0,0,478.0,1
76,76,-0.41568123660145145,-0.4,1.0,0.0,417.0,552.0,0.0,0,481.0,1
77,77,0.5592983499445222,0.6,0.0,0.0,405.0,687.0,0.0,1,198.0,1
78,78,0.19944326897407294,0.2,0.0,0.0,253.0,868.0,0.0,1,289.0,1
79,79,0.7669082001022417,0.8,1.0,1.0,462.0,796.0,1.0,1,252.0,1
80,80,0.28257693491497704,0.3,0.0,0.0,461.0,767.0,0.0,1,302.0,1
81,81,0.35275422879238827,0.4,0.0,0.0,488.0,696.0,0.0,1,316.0,1
82,82,-0.6964282750461274,-0.7,0.0,1.0,295.0,918.0,1.0,0,197.0,1
83,83,-0.7274596343735402,-0.7,0.0,1.0,418.0,596.0,1.0,0,446.0,1
84,84,-0.33152081290646196,-0.3,0.0,1.0,465.0,938.0,1.0,0,227.0,1
85,85,-0.6815241790874199,-0.7,0.0,1.0,372.0,925.0,1.0,0,193.0,1
86,86,-0.4167315844096601,-0.4,0.0,1.0,373.0,876.0,1.0,0,121.0,1
87,87,0.24653799975154211,0.2,0.0,0.0,284.0,598.0,0.0,1,518.0,1
88,88,-0.6264760651523962,-0.6,0.0,1.0,464.0,750.0,1.0,0,366.0,1
89,89,-0.8873291700331515,-0.9,0.0,1.0,288.0,626.0,1.0,0,336.0,1
90,90,-0.6244269383633931,-0.6,1.0,0.0,284.0,860.0,0.0,0,326.0,1
91,91,0.5438181370565033,0.5,1.0,1.0,402.0,526.0,1.0,1,342.0,1
92,92,0.13948150536045578,0.1,1.0,1.0,344.0,998.0,1.0,1,188.0,1
93,93,0.25853317421052513,0.3,1.0,1.0,252.0,597.0,1.0,1,451.0,1
94,94,0.7838252836609393,0.8,1.0,1.0,278.0,554.0,1.0,1,528.0,1
95,95,-0.12151514195597723,-0.1,1.0,0.0,325.0,973.0,0.0,0,372.0,1
96,96,-0.8717226692311113,-0.9,1.0,0.0,291.0,888.0,0.0,0,211.0,1
97,97,-0.4037503563437875,-0.4,1.0,0.0,388.0,796.0,0.0,0,166.0,1
98,98,0.7931903610035592,0.8,0.0,0.0,420.0,597.0,0.0,1,333.0,1
99,99,-0.39805281647020807,-0.4,1.0,0.0,327.0,959.0,0.0,0,434.0,1
100,100,0.7177404091219842,0.7,0.0,0.0,321.0,900.0,0.0,1,99.0,1
101,101,-0.21468989064096378,-0.2,0.0,1.0,400.0,505.0,1.0,0,675.0,1
102,102,0.3067704131934549,0.3,1.0,1.0,430.0,797.0,1.0,1,123.0,1
103,103,-0.07155804603393345,-0.1,1.0,0.0,317.0,556.0,0.0,0,967.0,1
104,104,0.6538933007651356,0.7,1.0,1.0,467.0,804.0,1.0,1,249.0,1
105,105,0.33077030463944446,0.3,0.0,0.0,255.0,639.0,0.0,1,536.0,1
106,106,-0.8940090839606879,-0.9,0.0,1.0,313.0,701.0,1.0,0,506.0,1
107,107,0.6846210043147857,0.7,0.0,0.0,314.0,807.0,0.0,1,169.0,1
108,108,0.3729161795521708,0.4,1.0,1.0,336.0,988.0,1.0,1,46.0,1
109,109,0.5610050819780582,0.6,0.0,0.0,477.0,623.0,0.0,1,320.0,1
110,110,-0.22915896722645324,-0.2,0.0,1.0,357.0,512.0,1.0,0,561.0,1
111,111,-0.06665995508831246,-0.1,0.0,1.0,314.0,725.0,1.0,0,471.0,1
112,112,0.2202439185421875,0.2,0.0,0.0,413.0,545.0,0.0,1,422.0,1
113,113,-0.5941424359029508,-0.6,1.0,0.0,415.0,647.0,0.0,0,158.0,1
114,114,0.03843067633219466,0.0,1.0,1.0,375.0,670.0,1.0,1,655.0,1
115,115,-0.7370703060597044,-0.7,1.0,0.0,343.0,623.0,0.0,0,294.0,1
116,116,-0.3807504094005354,-0.4,1.0,0.0,375.0,510.0,0.0,0,275.0,1
117,117,0.4279781979703813,0.4,0.0,0.0,407.0,594.0,0.0,1,209.0,1
118,118,-0.04708209713312006,-0.0,1.0,0.0,350.0,753.0,0.0,0,797.0,1
119,119,-0.7173748878154698,-0.7,0.0,1.0,358.0,714.0,1.0,0,118.0,1
120,120,0.7391721992680985,0.7,1.0,1.0,385.0,809.0,1.0,1,246.0,1
121,121,0.7345127655331335,0.7,1.0,1.0,346.0,648.0,1.0,1,456.0,1
122,122,0.04763057793565362,0.0,0.0,0.0,356.0,943.0,0.0,1,1701.0,1
123,123,0.15489624997568263,0.2,0.0,0.0,365.0,880.0,0.0,1,345.0,1
124,124,-0.22493297323101058,-0.2,0.0,1.0,394.0,943.0,1.0,0,213.0,1
125,125,-0.8495155044179439,-0.8,1.0,0.0,273.0,720.0,0.0,0,177.0,1
126,126,0.30313590843943194,0.3,0.0,0.0,357.0,581.0,0.0,1,282.0,1
127,127,0.3701021437933899,0.4,1.0,1.0,485.0,512.0,1.0,1,543.0,1
128,128,0.3434747377293791,0.3,1.0,1.0,255.0,990.0,1.0,1,175.0,1
129,129,0.7280081589709898,0.7,1.0,1.0,316.0,946.0,1.0,1,58.0,1
130,130,-0.06262525515187922,-0.1,0.0,1.0,323.0,595.0,1.0,0,532.0,1
131,131,0.6629697826978457,0.7,0.0,0.0,464.0,674.0,0.0,1,222.0,1
132,132,0.15877528028647891,0.2,1.0,1.0,442.0,584.0,1.0,1,574.0,1
133,133,0.23286280656671343,0.2,1.0,1.0,402.0,645.0,1.0,1,383.0,1
134,134,-0.5252136347045655,-0.5,1.0,0.0,279.0,685.0,0.0,0,196.0,1
135,135,0.7429027990723588,0.7,1.0,1.0,456.0,917.0,1.0,1,207.0,1
136,136,0.4704145254104818,0.5,1.0,1.0,316.0,949.0,1.0,1,245.0,1
137,137,0.8791202696722668,0.9,0.0,0.0,380.0,961.0,0.0,1,119.0,1
138,138,0.4480277070481328,0.4,0.0,0.0,472.0,645.0,0.0,1,403.0,1
139,139,0.759763611685304,0.8,0.0,0.0,441.0,893.0,0.0,1,176.0,1
140,140,-0.5440199022034098,-0.5,0.0,1.0,354.0,507.0,1.0,0,739.0,1
141,141,0.5909187602098055,0.6,1.0,1.0,405.0,900.0,1.0,1,145.0,1
142,142,0.0509710570953954,0.1,0.0,0.0,473.0,637.0,0.0,1,1250.0,1
143,143,-0.7375652669993407,-0.7,1.0,0.0,318.0,624.0,0.0,0,348.0,1
144,144,-0.03782791291229415,-0.0,1.0,0.0,444.0,758.0,0.0,0,1208.0,1
145,145,0.3176404180346045,0.3,0.0,0.0,259.0,845.0,0.0,1,156.0,1
146,146,0.856050515099733,0.9,1.0,1.0,365.0,987.0,1.0,1,338.0,1
147,147,0.32580086881825754,0.3,1.0,1.0,271.0,975.0,1.0,1,174.0,1
148,148,0.7826458279737184,0.8,0.0,0.0,286.0,504.0,0.0,1,370.0,1
149,149,0.8037366086973908,0.8,1.0,1.0,268.0,944.0,1.0,1,158.0,1
150,150,-0.5973108973263956,-0.6,0.0,1.0,275.0,998.0,1.0,0,217.0,1
151,151,0.8430324762189058,0.8,0.0,0.0,361.0,500.0,0.0,1,239.0,1
152,152,0.3417116940359738,0.3,1.0,1.0,287.0,854.0,1.0,1,469.0,1
153,153,-0.16518744291661824,-0.2,1.0,0.0,429.0,701.0,0.0,0,410.0,1
154,154,0.6236440813117335,0.6,0.0,0.0,339.0,895.0,0.0,1,96.0,1
155,155,0.4208392294900086,0.4,1.0,1.0,489.0,907.0,1.0,1,174.0,1
156,156,0.892879699002111,0.9,1.0,1.0,313.0,584.0,1.0,1,483.0,1
157,157,-0.7376784623588664,-0.7,0.0,1.0,489.0,723.0,1.0,0,438.0,1
158,158,-0.38139692377483747,-0.4,1.0,0.0,421.0,682.0,0.0,0,247.0,1
159,159,0.4552926422361704,0.5,0.0,0.0,301.0,663.0,0.0,1,416.0,1
160,160,-0.1719281265898347,-0.2,1.0,0.0,277.0,969.0,0.0,0,334.0,1
161,161,-0.8100360704416737,-0.8,0.0,1.0,293.0,623.0,1.0,0,304.0,1
162,162,0.8785445893101241,0.9,0.0,0.0,376.0,927.0,0.0,1,147.0,1
163,163,-0.08182820653290823,-0.1,1.0,0.0,281.0,614.0,0.0,0,705.0,1
164,164,-0.8760733131006028,-0.9,0.0,1.0,362.0,756.0,1.0,0,312.0,1
165,165,-0.8358328014736334,-0.8,1.0,0.0,311.0,741.0,0.0,0,198.0,1
166,166,0.7830420746625718,0.8,0.0,0.0,384.0,777.0,0.0,1,209.0,1
167,167,0.2236593288714669,0.2,1.0,1.0,294.0,701.0,1.0,1,265.0,1
168,168,-0.7415718575644725,-0.7,1.0,0.0,498.0,732.0,0.0,0,280.0,1
169,169,0.18637021927953057,0.2,0.0,0.0,363.0,586.0,0.0,1,501.0,1
170,170,-0.2530026259049757,-0.3,0.0,1.0,422.0,951.0,1.0,0,187.0,1
171,171,-0.619550546789746,-0.6,0.0,1.0,277.0,550.0,1.0,0,483.0,1
172,172,-0.7110514270433609,-0.7,1.0,0.0,383.0,761.0,0.0,0,176.0,1
173,173,0.2259908407182908,0.2,0.0,0.0,381.0,988.0,0.0,1,121.0,1
174,174,-0.4281805641848136,-0.4,0.0,1.0,315.0,658.0,1.0,0,247.0,1
175,175,0.3706753529969239,0.4,1.0,1.0,336.0,825.0,1.0,1,309.0,1
176,176,0.7312251313823893,0.7,1.0,1.0,434.0,561.0,1.0,1,325.0,1
177,177,0.10029528056789616,0.1,0.0,0.0,322.0,587.0,0.0,1,1341.0,1
178,178,-0.08153436874807529,-0.1,1.0,0.0,309.0,664.0,0.0,0,477.0,1
179,179,0.20516988291986793,0.2,1.0,1.0,282.0,957.0,1.0,1,211.0,1
180,180,0.8774950527876136,0.9,0.0,0.0,256.0,918.0,0.0,1,106.0,1
181,181,-0.15343369723565037,-0.2,1.0,0.0,447.0,889.0,0.0,0,274.0,1
182,182,-0.5634043751678932,-0.6,0.0,1.0,482.0,762.0,1.0,0,236.0,1
183,183,0.14463389655139214,0.1,1.0,1.0,298.0,613.0,1.0,1,439.0,1
184,184,0.4711500601090234,0.5,1.0,1.0,382.0,742.0,1.0,1,196.0,1
185,185,-0.22110030847901552,-0.2,1.0,0.0,461.0,609.0,0.0,0,530.0,1
186,186,0.16959354250930125,0.2,1.0,1.0,372.0,891.0,1.0,1,347.0,1
187,187,0.15071687959798374,0.2,1.0,1.0,445.0,598.0,1.0,1,307.0,1
188,188,-0.4718946848119213,-0.5,1.0,0.0,380.0,899.0,0.0,0,231.0,1
189,189,0.11135022779423809,0.1,1.0,1.0,374.0,557.0,1.0,1,579.0,1
190,190,-0.7193807436269426,-0.7,1.0,0.0,401.0,643.0,0.0,0,306.0,1
191,191,0.3082684901040077,0.3,0.0,0.0,487.0,724.0,0.0,1,289.0,1
192,192,0.7775031504651705,0.8,0.0,0.0,374.0,854.0,0.0,1,92.0,1
193,193,0.4898373839975131,0.5,1.0,1.0,341.0,830.0,1.0,1,129.0,1
194,194,0.16438946784797726,0.2,0.0,0.0,308.0,968.0,0.0,1,484.0,1
195,195,0.17625374773117508,0.2,0.0,0.0,324.0,736.0,0.0,1,660.0,1
196,196,0.5550657724302931,0.6,0.0,0.0,460.0,569.0,0.0,1,341.0,1
197,197,-0.7229356272338937,-0.7,1.0,0.0,414.0,604.0,0.0,0,262.0,1
198,198,-0.848013852099584,-0.8,0.0,1.0,402.0,809.0,1.0,0,169.0,1
199,199,-0.8568122057295594,-0.9,0.0,1.0,474.0,853.0,1.0,0,293.0,1
200,200,-0.8047513864464517,-0.8,1.0,0.0,365.0,671.0,0.0,0,214.0,1
201,201,0.17196645159407653,0.2,1.0,1.0,282.0,622.0,1.0,1,286.0,1
202,202,-0.40371548319859946,-0.4,1.0,0.0,359.0,518.0,0.0,0,153.0,1
203,203,-0.8317012465289213,-0.8,1.0,0.0,315.0,670.0,0.0,0,255.0,1
204,204,-0.15134894423635903,-0.2,0.0,1.0,439.0,531.0,1.0,0,890.0,1
205,205,-0.5842625239505759,-0.6,1.0,0.0,433.0,583.0,0.0,0,184.0,1
206,206,0.3747839416863591,0.4,0.0,0.0,360.0,865.0,0.0,1,385.0,1
207,207,-0.31688633500997365,-0.3,0.0,1.0,493.0,871.0,1.0,0,306.0,1
208,208,0.2618871793428349,0.3,0.0,0.0,275.0,561.0,0.0,1,394.0,1
209,209,0.5190225008384449,0.5,0.0,0.0,459.0,826.0,0.0,1,135.0,1
210,210,0.39651113423352646,0.4,0.0,0.0,466.0,782.0,0.0,1,362.0,1
211,211,-0.41036879900867557,-0.4,0.0,1.0,496.0,919.0,1.0,0,295.0,1
212,212,0.8654699995073941,0.9,1.0,1.0,305.0,641.0,1.0,1,334.0,1
213,213,-0.8248494102304206,-0.8,1.0,0.0,462.0,652.0,0.0,0,256.0,1
214,214,-0.8503878934767649,-0.9,0.0,1.0,292.0,922.0,1.0,0,326.0,1
215,215,-0.20451781154368653,-0.2,0.0,1.0,286.0,694.0,1.0,0,650.0,1
216,216,-0.6195500521407267,-0.6,1.0,0.0,373.0,984.0,0.0,0,133.0,1
217,217,-0.42056771928722364,-0.4,1.0,0.0,320.0,886.0,0.0,0,174.0,1
218,218,0.39871691207375515,0.4,1.0,1.0,375.0,706.0,1.0,1,459.0,1
219,219,-0.46269438623749504,-0.5,1.0,0.0,316.0,776.0,0.0,0,238.0,1
220,220,-0.26806654966586574,-0.3,0.0,1.0,467.0,710.0,1.0,0,273.0,1
221,221,0.7347300959294364,0.7,1.0,1.0,472.0,840.0,1.0,1,138.0,1
222,222,0.7141466128778259,0.7,1.0,1.0,306.0,666.0,1.0,1,568.0,1
223,223,-0.19081773893717413,-0.2,0.0,1.0,391.0,818.0,1.0,0,391.0,1
224,224,-0.745550790310753,-0.7,1.0,0.0,436.0,908.0,0.0,0,66.0,1
225,225,-0.8386405715531265,-0.8,0.0,1.0,414.0,746.0,1.0,0,540.0,1
226,226,0.28844361469203716,0.3,1.0,1.0,312.0,960.0,1.0,1,218.0,1
227,227,0.6156676364370856,0.6,1.0,1.0,478.0,871.0,1.0,1,181.0,1
228,228,0.5127636185122523,0.5,0.0,0.0,312.0,647.0,0.0,1,101.0,1
229,229,0.7289423415340831,0.7,1.0,1.0,400.0,642.0,1.0,1,758.0,1
230,230,0.8049078505988944,0.8,0.0,0.0,350.0,886.0,0.0,1,104.0,1
231,231,-0.2428288237113081,-0.2,0.0,1.0,360.0,684.0,1.0,0,336.0,1
232,232,-0.8994723002010664,-0.9,0.0,1.0,469.0,627.0,1.0,0,274.0,1
233,233,0.062430688170324045,0.1,0.0,0.0,293.0,773.0,0.0,1,524.0,1
234,234,0.15569428595953416,0.2,1.0,1.0,474.0,655.0,1.0,1,561.0,1
235,235,0.2126672937510491,0.2,1.0,1.0,407.0,531.0,1.0,1,352.0,1
236,236,0.1005639210877568,0.1,1.0,1.0,273.0,886.0,1.0,1,191.0,1
237,237,0.5179670595782447,0.5,1.0,1.0,285.0,589.0,1.0,1,276.0,1
238,238,-0.06707007348674099,-0.1,0.0,1.0,313.0,597.0,1.0,0,720.0,1
239,239,0.6224212188031139,0.6,1.0,1.0,494.0,711.0,1.0,1,215.0,1
240,240,-0.8247691267622211,-0.8,1.0,0.0,426.0,818.0,0.0,0,176.0,1
241,241,-0.7485671540787111,-0.7,0.0,1.0,309.0,503.0,1.0,0,408.0,1
242,242,-0.42208502574148593,-0.4,0.0,1.0,347.0,637.0,1.0,0,276.0,1
243,243,0.12041912458303494,0.1,1.0,1.0,303.0,844.0,1.0,1,343.0,1
244,244,0.7544756211240663,0.8,0.0,0.0,383.0,593.0,0.0,1,254.0,1
245,245,0.2419145228794598,0.2,0.0,0.0,256.0,596.0,0.0,1,618.0,1
246,246,-0.7770500020190858,-0.8,0.0,1.0,289.0,669.0,1.0,0,202.0,1
247,247,0.04703066144363466,0.0,0.0,0.0,489.0,690.0,0.0,1,1011.0,1
248,248,-0.08210111311958357,-0.1,0.0,1.0,454.0,660.0,1.0,0,516.0,1
249,249,0.3478508067784084,0.3,1.0,1.0,484.0,985.0,1.0,1,171.0,1
250,250,-0.8941492482491485,-0.9,0.0,1.0,402.0,797.0,1.0,0,141.0,1
251,251,0.7278167524656943,0.7,1.0,1.0,454.0,571.0,1.0,1,485.0,1
252,252,-0.2615962421977813,-0.3,1.0,0.0,365.0,590.0,0.0,0,485.0,1
253,253,0.6656270261055356,0.7,0.0,0.0,286.0,681.0,0.0,1,253.0,1
254,254,-0.14181627223708193,-0.1,1.0,0.0,302.0,816.0,0.0,0,522.0,1
255,255,-0.17954303275285521,-0.2,1.0,0.0,256.0,517.0,0.0,0,627.0,1
256,256,0.3146578117251714,0.3,0.0,0.0,460.0,930.0,0.0,1,360.0,1
257,257,0.6220323353668346,0.6,0.0,0.0,308.0,706.0,0.0,1,286.0,1
258,258,-0.3290247818329014,-0.3,0.0,1.0,375.0,983.0,1.0,0,172.0,1
259,259,0.3408544930005314,0.3,1.0,1.0,442.0,577.0,1.0,1,641.0,1
260,260,0.5178123274081653,0.5,0.0,0.0,295.0,596.0,0.0,1,239.0,1
261,261,-0.8059344026931439,-0.8,1.0,0.0,481.0,505.0,0.0,0,284.0,1
262,262,0.45181296989705044,0.5,0.0,0.0,450.0,659.0,0.0,1,401.0,1
263,263,0.36039463454002607,0.4,1.0,1.0,268.0,906.0,1.0,1,216.0,1
264,264,0.25423667871679567,0.3,1.0,1.0,360.0,949.0,1.0,1,181.0,1
265,265,0.38884004008660866,0.4,1.0,1.0,434.0,907.0,1.0,1,459.0,1
266,266,-0.7575899265753961,-0.8,1.0,0.0,268.0,946.0,0.0,0,106.0,1
267,267,-0.022936579747996788,-0.0,1.0,0.0,455.0,765.0,1.0,1,1400.0,0
268,268,-0.3830835595878054,-0.4,0.0,1.0,311.0,807.0,1.0,0,302.0,1
269,269,-0.7270062310873321,-0.7,1.0,0.0,477.0,963.0,0.0,0,130.0,1
270,270,-0.19321853612446882,-0.2,1.0,0.0,430.0,694.0,0.0,0,386.0,1
271,271,0.7689056731072087,0.8,0.0,0.0,419.0,944.0,0.0,1,237.0,1
272,272,-0.788460933119652,-0.8,1.0,0.0,436.0,978.0,0.0,0,106.0,1
273,273,0.12616269839422334,0.1,0.0,0.0,279.0,535.0,0.0,1,1026.0,1
274,274,-0.38901913606236016,-0.4,0.0,1.0,401.0,979.0,1.0,0,310.0,1
275,275,-0.4719053348357735,-0.5,1.0,0.0,408.0,931.0,0.0,0,231.0,1
276,276,0.764390639160785,0.8,0.0,0.0,341.0,545.0,0.0,1,304.0,1
277,277,-0.6612290991522601,-0.7,0.0,1.0,433.0,804.0,1.0,0,83.0,1
278,278,0.7819611777849514,0.8,0.0,0.0,421.0,546.0,0.0,1,283.0,1
279,279,-0.22570590691556125,-0.2,1.0,0.0,255.0,525.0,0.0,0,400.0,1
280,280,-0.8299936666012906,-0.8,0.0,1.0,375.0,617.0,1.0,0,238.0,1
281,281,-0.03904358056276125,-0.0,1.0,0.0,359.0,841.0,0.0,0,80.0,1
282,282,-0.839029834708522,-0.8,1.0,0.0,259.0,927.0,0.0,0,84.0,1
283,283,-0.7294163513373371,-0.7,0.0,1.0,494.0,612.0,1.0,0,334.0,1
284,284,0.5748057282927203,0.6,1.0,1.0,374.0,953.0,1.0,1,153.0,1
285,285,-0.35635785127873476,-0.4,1.0,0.0,422.0,513.0,0.0,0,295.0,1
286,286,-0.8878389385628915,-0.9,1.0,0.0,466.0,600.0,0.0,0,254.0,1
287,287,0.35483518988605744,0.4,1.0,1.0,464.0,766.0,1.0,1,210.0,1
288,288,0.1349283887779752,0.1,1.0,1.0,437.0,665.0,1.0,1,568.0,1
289,289,-0.5986086601512783,-0.6,0.0,1.0,373.0,849.0,1.0,0,168.0,1
290,290,0.8493905124758429,0.8,1.0,1.0,394.0,509.0,1.0,1,427.0,1
291,291,0.7225761048550551,0.7,1.0,1.0,484.0,991.0,1.0,1,165.0,1
292,292,-0.09478967563802743,-0.1,0.0,1.0,419.0,972.0,1.0,0,569.0,1
293,293,-0.7612350484239498,-0.8,1.0,0.0,497.0,894.0,0.0,0,419.0,1
294,294,0.1791827969072196,0.2,1.0,1.0,283.0,844.0,1.0,1,223.0,1
295,295,0.4409329655474358,0.4,1.0,1.0,368.0,568.0,1.0,1,314.0,1
296,296,-0.2943462801525478,-0.3,1.0,0.0,477.0,896.0,0.0,0,277.0,1
297,297,0.03537032326736356,0.0,0.0,0.0,353.0,621.0,1.0,0,1596.0,0
298,298,-0.8003325217799294,-0.8,0.0,1.0,302.0,513.0,1.0,0,705.0,1
299,299,-0.3129506412596914,-0.3,0.0,1.0,301.0,953.0,1.0,0,106.0,1
300,300,0.6949602268450933,0.7,1.0,1.0,482.0,949.0,1.0,1,179.0,1
301,301,-0.6657330752879299,-0.7,0.0,1.0,317.0,946.0,1.0,0,347.0,1
302,302,-0.8205048446658673,-0.8,0.0,1.0,415.0,973.0,1.0,0,252.0,1
303,303,-0.8071699803705088,-0.8,1.0,0.0,262.0,733.0,0.0,0,105.0,1
304,304,-0.009337018249701123,-0.0,0.0,1.0,443.0,865.0,1.0,0,872.0,1
305,305,0.05441768337800135,0.1,1.0,1.0,410.0,687.0,1.0,1,513.0,1
306,306,-0.5130895778837491,-0.5,1.0,0.0,476.0,654.0,0.0,0,210.0,1
307,307,0.5430092609491718,0.5,1.0,1.0,372.0,904.0,1.0,1,144.0,1
308,308,-0.7508347736200347,-0.8,0.0,1.0,343.0,749.0,1.0,0,1908.0,1
309,309,-0.32256070810491777,-0.3,1.0,0.0,403.0,789.0,0.0,0,478.0,1
310,310,-0.5688105842046296,-0.6,1.0,0.0,318.0,646.0,0.0,0,216.0,1
311,311,0.08759980643298437,0.1,0.0,0.0,466.0,528.0,0.0,1,916.0,1
312,312,-0.04638295644154444,-0.0,1.0,0.0,461.0,649.0,0.0,0,750.0,1
313,313,0.7964015936637984,0.8,0.0,0.0,343.0,681.0,0.0,1,186.0,1
314,314,-0.19921388708015186,-0.2,0.0,1.0,345.0,550.0,1.0,0,535.0,1
315,315,-0.3395181003683506,-0.3,0.0,1.0,394.0,935.0,1.0,0,141.0,1
316,316,0.8581526625169512,0.9,1.0,1.0,422.0,576.0,1.0,1,392.0,1
317,317,-0.7404976599418573,-0.7,1.0,0.0,295.0,724.0,0.0,0,251.0,1
318,318,0.5464339808991615,0.5,0.0,0.0,342.0,817.0,0.0,1,271.0,1
319,319,0.7679897805086743,0.8,0.0,0.0,381.0,652.0,0.0,1,267.0,1
320,320,0.12519306274883657,0.1,0.0,0.0,422.0,784.0,0.0,1,524.0,1
321,321,0.5430182026943197,0.5,0.0,0.0,380.0,979.0,0.0,1,221.0,1
322,322,0.24075505852044,0.2,0.0,0.0,424.0,678.0,0.0,1,438.0,1
323,323,-0.6958658936636193,-0.7,0.0,1.0,387.0,678.0,1.0,0,375.0,1
324,324,0.10862097105236501,0.1,1.0,1.0,496.0,853.0,1.0,1,681.0,1
325,325,-0.04997338415498287,-0.0,1.0,0.0,462.0,946.0,0.0,0,1352.0,1
326,326,0.032919652886219564,0.0,0.0,0.0,303.0,690.0,0.0,1,667.0,1
327,327,0.6744594138799255,0.7,0.0,0.0,398.0,755.0,0.0,1,237.0,1
328,328,-0.10346733712600165,-0.1,1.0,0.0,316.0,799.0,0.0,0,1885.0,1
329,329,0.8898172053928805,0.9,1.0,1.0,313.0,910.0,1.0,1,307.0,1
330,330,0.786556580472017,0.8,1.0,1.0,458.0,880.0,1.0,1,122.0,1
331,331,-0.8124623658125372,-0.8,1.0,0.0,287.0,592.0,0.0,0,231.0,1
332,332,-0.7732974698782604,-0.8,1.0,0.0,486.0,844.0,0.0,0,210.0,1
333,333,-0.6202807885936548,-0.6,1.0,0.0,455.0,792.0,0.0,0,213.0,1
334,334,0.6897862688324287,0.7,0.0,0.0,458.0,678.0,0.0,1,344.0,1
335,335,-0.7250230415821701,-0.7,0.0,1.0,459.0,899.0,1.0,0,332.0,1
336,336,0.18215007620868862,0.2,0.0,0.0,276.0,650.0,0.0,1,474.0,1
337,337,-0.5746687979099123,-0.6,0.0,1.0,358.0,535.0,1.0,0,327.0,1
338,338,-0.15803991332213752,-0.2,1.0,0.0,453.0,773.0,0.0,0,584.0,1
339,339,-0.5459598296407224,-0.5,0.0,1.0,416.0,847.0,1.0,0,207.0,1
340,340,-0.42557603197270155,-0.4,1.0,0.0,376.0,707.0,0.0,0,237.0,1
341,341,0.222392207640009,0.2,1.0,1.0,280.0,636.0,1.0,1,344.0,1
342,342,0.14882899167351205,0.1,0.0,0.0,250.0,868.0,0.0,1,512.0,1
343,343,-0.4410808820529914,-0.4,1.0,0.0,370.0,610.0,0.0,0,410.0,1
344,344,-0.6418731615319522,-0.6,0.0,1.0,440.0,950.0,1.0,0,150.0,1
345,345,-0.3134206187749936,-0.3,1.0,0.0,421.0,598.0,0.0,0,451.0,1
346,346,-0.0473914108035679,-0.0,0.0,1.0,318.0,850.0,1.0,0,352.0,1
347,347,-0.32717929090263187,-0.3,1.0,0.0,296.0,699.0,0.0,0,205.0,1
348,348,-0.2669524746950921,-0.3,0.0,1.0,334.0,783.0,1.0,0,443.0,1
349,349,0.8137001384613906,0.8,0.0,0.0,297.0,881.0,0.0,1,272.0,1
350,350,-0.0016836218924861646,-0.0,1.0,0.0,302.0,959.0,0.0,0,639.0,1
351,351,-0.15781775596431746,-0.2,1.0,0.0,323.0,755.0,0.0,0,452.0,1
352,352,-0.7538857317945502,-0.8,1.0,0.0,479.0,598.0,0.0,0,263.0,1
353,353,0.6678225810644064,0.7,1.0,1.0,317.0,927.0,1.0,1,96.0,1
354,354,-0.14426845668347033,-0.1,1.0,0.0,434.0,879.0,0.0,0,187.0,1
355,355,0.41025903459321544,0.4,0.0,0.0,394.0,950.0,0.0,1,266.0,1
356,356,0.30243206105383547,0.3,1.0,1.0,452.0,724.0,1.0,1,264.0,1
357,357,0.4962344203719228,0.5,1.0,1.0,341.0,799.0,1.0,1,180.0,1
358,358,0.2823111806231343,0.3,1.0,1.0,345.0,773.0,1.0,1,232.0,1
359,359,-0.7519898568290873,-0.8,1.0,0.0,335.0,992.0,0.0,0,63.0,1
360,360,-0.7158451808699808,-0.7,0.0,1.0,307.0,809.0,1.0,0,334.0,1
361,361,0.4375155942618164,0.4,0.0,0.0,340.0,952.0,0.0,1,338.0,1
362,362,0.042416160909240275,0.0,1.0,1.0,411.0,545.0,1.0,1,1484.0,1
363,363,-0.4374001902137699,-0.4,0.0,1.0,344.0,818.0,1.0,0,108.0,1
364,364,-0.6704853974201396,-0.7,1.0,0.0,397.0,605.0,0.0,0,358.0,1
365,365,-0.1784421485617882,-0.2,0.0,1.0,260.0,714.0,1.0,0,206.0,1
366,366,-0.1467020355062464,-0.1,0.0,1.0,499.0,796.0,1.0,0,305.0,1
367,367,-0.23739956070512924,-0.2,0.0,1.0,473.0,556.0,1.0,0,391.0,1
368,368,0.8642459847997458,0.9,1.0,1.0,421.0,671.0,1.0,1,328.0,1
369,369,-0.7985383196901118,-0.8,1.0,0.0,257.0,572.0,0.0,0,231.0,1
370,370,-0.41389550292911004,-0.4,0.0,1.0,396.0,917.0,1.0,0,157.0,1
371,371,0.29042876297409037,0.3,0.0,0.0,453.0,620.0,0.0,1,277.0,1
372,372,-0.5049389222930978,-0.5,0.0,1.0,485.0,891.0,1.0,0,194.0,1
373,373,-0.06599765314834649,-0.1,0.0,1.0,467.0,707.0,1.0,0,906.0,1
374,374,0.475884109154154,0.5,1.0,1.0,294.0,666.0,1.0,1,330.0,1
375,375,-0.2665052951338587,-0.3,1.0,0.0,282.0,736.0,0.0,0,322.0,1
376,376,0.6706649337559928,0.7,0.0,0.0,338.0,736.0,0.0,1,256.0,1
377,377,0.36158509366863234,0.4,1.0,1.0,466.0,832.0,1.0,1,212.0,1
378,378,-0.7340961415356153,-0.7,0.0,1.0,264.0,520.0,1.0,0,1676.0,1
379,379,-0.5330637361614101,-0.5,0.0,1.0,311.0,659.0,1.0,0,290.0,1
380,380,-0.2835637463686712,-0.3,1.0,0.0,341.0,809.0,0.0,0,210.0,1
381,381,0.38044282173141675,0.4,1.0,1.0,358.0,774.0,1.0,1,428.0,1
382,382,0.8710685262946122,0.9,0.0,0.0,280.0,519.0,0.0,1,221.0,1
383,383,0.5076342638015819,0.5,0.0,0.0,319.0,731.0,0.0,1,190.0,1
384,384,-0.6361929182258439,-0.6,1.0,0.0,341.0,506.0,0.0,0,263.0,1
385,385,-0.12572015678148962,-0.1,1.0,0.0,369.0,531.0,0.0,0,600.0,1
386,386,0.41857636578789104,0.4,0.0,0.0,363.0,972.0,0.0,1,125.0,1
387,387,0.7696842012902764,0.8,1.0,1.0,370.0,874.0,1.0,1,236.0,1
388,388,-0.6484733349226455,-0.6,0.0,1.0,272.0,752.0,1.0,0,396.0,1
389,389,-0.2344359718888962,-0.2,0.0,1.0,426.0,856.0,1.0,0,298.0,1
390,390,0.5614006689602765,0.6,0.0,0.0,355.0,935.0,0.0,1,220.0,1
391,391,0.5861003874651639,0.6,0.0,0.0,391.0,519.0,0.0,1,390.0,1
392,392,0.7414666382621674,0.7,1.0,1.0,475.0,961.0,1.0,1,134.0,1
393,393,-0.3400537074509046,-0.3,1.0,0.0,394.0,590.0,0.0,0,196.0,1
394,394,0.3096719749086335,0.3,0.0,0.0,375.0,643.0,0.0,1,322.0,1
395,395,0.5016249913391572,0.5,1.0,1.0,270.0,893.0,1.0,1,147.0,1
396,396,0.8012478000977142,0.8,1.0,1.0,335.0,858.0,1.0,1,427.0,1
397,397,0.6588008051313067,0.7,0.0,0.0,263.0,743.0,0.0,1,184.0,1
398,398,-0.4383238971184166,-0.4,1.0,0.0,260.0,853.0,0.0,0,327.0,1
399,399,0.41339041225734074,0.4,0.0,0.0,336.0,600.0,0.0,1,344.0,1
400,400,-0.2866159463677569,-0.3,1.0,0.0,293.0,840.0,0.0,0,217.0,1
401,401,-0.7692881930882611,-0.8,1.0,0.0,283.0,891.0,0.0,0,196.0,1
402,402,0.6631605169347988,0.7,1.0,1.0,421.0,971.0,1.0,1,118.0,1
403,403,-0.49696558719448636,-0.5,1.0,0.0,468.0,911.0,0.0,0,191.0,1
404,404,-0.25730116661317926,-0.3,0.0,1.0,384.0,774.0,1.0,0,212.0,1
405,405,-0.38119534421047396,-0.4,0.0,1.0,311.0,723.0,1.0,0,436.0,1
406,406,0.7495480764307386,0.7,1.0,1.0,411.0,992.0,1.0,1,167.0,1
407,407,0.42973197113566675,0.4,0.0,0.0,362.0,753.0,0.0,1,175.0,1
408,408,-0.7279220637582715,-0.7,0.0,1.0,340.0,743.0,1.0,0,417.0,1
409,409,0.6442961194243141,0.6,1.0,1.0,429.0,932.0,1.0,1,309.0,1
410,410,0.3852675631162593,0.4,0.0,0.0,487.0,727.0,0.0,1,506.0,1
411,411,-0.06483474152815072,-0.1,0.0,1.0,261.0,753.0,1.0,0,376.0,1
412,412,0.056136695532672864,0.1,1.0,1.0,334.0,620.0,1.0,1,806.0,1
413,413,0.5226427832955535,0.5,1.0,1.0,264.0,982.0,1.0,1,84.0,1
414,414,0.2741245439090473,0.3,0.0,0.0,284.0,901.0,0.0,1,225.0,1
415,415,-0.4167607229791862,-0.4,0.0,1.0,410.0,585.0,1.0,0,455.0,1
416,416,0.34472332752919155,0.3,1.0,1.0,262.0,866.0,1.0,1,502.0,1
417,417,-0.5062583365058968,-0.5,1.0,0.0,316.0,789.0,0.0,0,135.0,1
418,418,0.6367745580143725,0.6,0.0,0.0,446.0,537.0,0.0,1,327.0,1
419,419,-0.17296502283828485,-0.2,0.0,1.0,263.0,825.0,1.0,0,412.0,1
420,420,0.36586986111735953,0.4,0.0,0.0,315.0,568.0,0.0,1,367.0,1
421,421,-0.29916885344314526,-0.3,1.0,0.0,295.0,698.0,0.0,0,177.0,1
422,422,0.8574865366226002,0.9,0.0,0.0,445.0,826.0,0.0,1,139.0,1
423,423,0.870913541274155,0.9,1.0,1.0,310.0,802.0,1.0,1,218.0,1
424,424,-0.1474348295932879,-0.1,0.0,1.0,273.0,933.0,1.0,0,244.0,1
425,425,0.5953667487677688,0.6,1.0,1.0,259.0,974.0,1.0,1,227.0,1
426,426,0.5718485621393942,0.6,1.0,1.0,276.0,667.0,1.0,1,677.0,1
427,427,0.09182391467242679,0.1,0.0,0.0,441.0,590.0,0.0,1,559.0,1
428,428,-0.5029748799009742,-0.5,0.0,1.0,294.0,742.0,1.0,0,234.0,1
429,429,-0.3800283952457142,-0.4,0.0,1.0,385.0,908.0,1.0,0,127.0,1
430,430,0.7974509070081982,0.8,0.0,0.0,403.0,751.0,0.0,1,186.0,1
431,431,-0.43053889455244415,-0.4,0.0,1.0,292.0,769.0,1.0,0,489.0,1
432,432,0.23654959540582043,0.2,0.0,0.0,489.0,607.0,0.0,1,554.0,1
433,433,0.12305588588706662,0.1,1.0,1.0,289.0,999.0,1.0,1,372.0,1
434,434,0.22099619997108444,0.2,0.0,0.0,448.0,770.0,0.0,1,392.0,1
435,435,0.3048966803430949,0.3,0.0,0.0,487.0,689.0,0.0,1,304.0,1
436,436,-0.8623316828232014,-0.9,0.0,1.0,274.0,607.0,1.0,0,319.0,1
437,437,0.825096545581253,0.8,0.0,0.0,409.0,790.0,0.0,1,171.0,1
438,438,-0.862857345124879,-0.9,1.0,0.0,472.0,778.0,0.0,0,210.0,1
439,439,-0.4429233097571032,-0.4,1.0,0.0,366.0,889.0,0.0,0,285.0,1
440,440,0.07420857799274205,0.1,0.0,0.0,319.0,652.0,0.0,1,819.0,1
441,441,0.768912050593283,0.8,1.0,1.0,429.0,622.0,1.0,1,269.0,1
442,442,0.7414491691138233,0.7,1.0,1.0,383.0,784.0,1.0,1,343.0,1
443,443,0.007815402685600548,0.0,0.0,0.0,313.0,981.0,1.0,0,796.0,0
444,444,0.12622689115986707,0.1,0.0,0.0,258.0,736.0,0.0,1,856.0,1
445,445,0.028892183652947878,0.0,1.0,1.0,464.0,745.0,1.0,1,911.0,1
446,446,-0.1075328504740658,-0.1,0.0,1.0,351.0,747.0,1.0,0,252.0,1
447,447,0.6999997304147269,0.7,1.0,1.0,446.0,549.0,1.0,1,415.0,1
448,448,-0.19533326235498438,-0.2,1.0,0.0,442.0,501.0,0.0,0,507.0,1
449,449,0.4500712329036033,0.5,0.0,0.0,423.0,591.0,0.0,1,346.0,1
450,450,0.1452773901963612,0.1,1.0,1.0,497.0,648.0,1.0,1,555.0,1
451,451,-0.6041582405517872,-0.6,1.0,0.0,385.0,714.0,0.0,0,301.0,1
452,452,-0.31380548761489346,-0.3,0.0,1.0,494.0,868.0,1.0,0,358.0,1
453,453,-0.0005121476222224031,-0.0,1.0,0.0,411.0,877.0,0.0,0,292.0,1
454,454,-0.8856515128983373,-0.9,0.0,1.0,434.0,557.0,1.0,0,379.0,1
455,455,0.5819130698503486,0.6,0.0,0.0,308.0,718.0,0.0,1,364.0,1
456,456,-0.45514770107207714,-0.5,1.0,0.0,390.0,891.0,0.0,0,139.0,1
457,457,0.11442471791765818,0.1,1.0,1.0,339.0,637.0,1.0,1,904.0,1
458,458,-0.057551212957483555,-0.1,0.0,1.0,414.0,974.0,1.0,0,452.0,1
459,459,-0.8722380066827272,-0.9,0.0,1.0,345.0,792.0,1.0,0,303.0,1
460,460,-0.5702484294657191,-0.6,1.0,0.0,417.0,928.0,0.0,0,195.0,1
461,461,-0.5475179806096293,-0.5,1.0,0.0,371.0,942.0,0.0,0,347.0,1
462,462,0.6395039536744237,0.6,0.0,0.0,399.0,541.0,0.0,1,270.0,1
463,463,0.7312550390791926,0.7,1.0,1.0,472.0,849.0,1.0,1,359.0,1
464,464,-0.2615534545755357,-0.3,0.0,1.0,264.0,641.0,1.0,0,735.0,1
465,465,0.3971598374140416,0.4,0.0,0.0,266.0,927.0,0.0,1,227.0,1
466,466,0.5180390165163992,0.5,1.0,1.0,329.0,771.0,1.0,1,180.0,1
467,467,-0.2725906618055721,-0.3,1.0,0.0,302.0,830.0,0.0,0,408.0,1
468,468,0.6617130332799309,0.7,0.0,0.0,302.0,814.0,0.0,1,244.0,1
469,469,-0.513146072730277,-0.5,0.0,1.0,370.0,960.0,1.0,0,100.0,1
470,470,0.8066295913146423,0.8,0.0,0.0,278.0,866.0,0.0,1,136.0,1
471,471,-0.5739271169463661,-0.6,0.0,1.0,363.0,897.0,1.0,0,200.0,1
472,472,0.6847348638794236,0.7,0.0,0.0,267.0,562.0,0.0,1,181.0,1
473,473,-0.8992400484909947,-0.9,0.0,1.0,265.0,561.0,1.0,0,354.0,1
474,474,0.16736057874368726,0.2,1.0,1.0,497.0,631.0,1.0,1,672.0,1
475,475,0.10631423775709836,0.1,1.0,1.0,440.0,813.0,1.0,1,577.0,1
476,476,-0.2562108900099166,-0.3,1.0,0.0,409.0,925.0,0.0,0,416.0,1
477,477,0.2844265497369073,0.3,1.0,1.0,260.0,518.0,1.0,1,522.0,1
478,478,0.7480578100339038,0.7,1.0,1.0,299.0,715.0,1.0,1,286.0,1
479,479,0.25594613499774155,0.3,0.0,0.0,459.0,833.0,0.0,1,308.0,1
480,480,0.8263611723704357,0.8,1.0,1.0,419.0,861.0,1.0,1,160.0,1
481,481,0.7537842606300137,0.8,1.0,1.0,261.0,562.0,1.0,1,357.0,1
482,482,0.1438019926854649,0.1,1.0,1.0,377.0,980.0,1.0,1,373.0,1
483,483,-0.007080185441714848,-0.0,1.0,0.0,435.0,636.0,0.0,0,1929.0,1
484,484,-0.5322248124585276,-0.5,1.0,0.0,266.0,902.0,0.0,0,252.0,1
485,485,-0.4435753209507365,-0.4,1.0,0.0,319.0,988.0,0.0,0,123.0,1
486,486,-0.7146618503828226,-0.7,1.0,0.0,317.0,911.0,0.0,0,282.0,1
487,487,-0.22944140372536248,-0.2,1.0,0.0,447.0,528.0,0.0,0,815.0,1
488,488,-0.4242829341988107,-0.4,0.0,1.0,479.0,622.0,1.0,0,429.0,1
489,489,-0.4606963418321901,-0.5,0.0,1.0,491.0,986.0,1.0,0,63.0,1
490,490,-0.7412525500625639,-0.7,0.0,1.0,351.0,822.0,1.0,0,327.0,1
491,491,0.0694301474881569,0.1,1.0,1.0,318.0,555.0,1.0,1,567.0,1
492,492,0.0177652287673693,0.0,1.0,1.0,430.0,920.0,0.0,0,710.0,0
493,493,-0.011584044725125753,-0.0,1.0,0.0,349.0,971.0,0.0,0,460.0,1
494,494,0.39012864087921695,0.4,0.0,0.0,430.0,614.0,0.0,1,306.0,1
495,495,0.2644973210340863,0.3,1.0,1.0,468.0,575.0,1.0,1,507.0,1
496,496,-0.6607755925050666,-0.7,0.0,1.0,473.0,503.0,1.0,0,784.0,1
497,497,-0.6162506073902754,-0.6,0.0,1.0,483.0,976.0,1.0,0,261.0,1
498,498,-0.02352120186500073,-0.0,1.0,0.0,335.0,930.0,0.0,0,1055.0,1
499,499,-0.5181649456127755,-0.5,1.0,0.0,441.0,656.0,0.0,0,293.0,1
500,500,-0.8520551271114123,-0.9,0.0,1.0,479.0,676.0,1.0,0,185.0,1
501,501,-0.09600838738727668,-0.1,1.0,0.0,302.0,621.0,0.0,0,517.0,1
502,502,0.4508814767665116,0.5,0.0,0.0,252.0,999.0,0.0,1,169.0,1
503,503,0.4301412511482484,0.4,0.0,0.0,365.0,799.0,0.0,1,236.0,1
504,504,0.6450210159774971,0.6,1.0,1.0,408.0,664.0,1.0,1,518.0,1
505,505,-0.22835309072965937,-0.2,0.0,1.0,317.0,858.0,1.0,0,315.0,1
506,506,-0.18496956093708117,-0.2,1.0,0.0,402.0,618.0,0.0,0,390.0,1
507,507,0.23885385668934445,0.2,1.0,1.0,338.0,647.0,1.0,1,295.0,1
508,508,-0.7434877525308865,-0.7,1.0,0.0,352.0,804.0,0.0,0,134.0,1
509,509,0.7214777983706785,0.7,0.0,0.0,416.0,939.0,0.0,1,205.0,1
510,510,-0.5415003165525775,-0.5,0.0,1.0,420.0,748.0,1.0,0,212.0,1
511,511,0.576942886809446,0.6,1.0,1.0,339.0,575.0,1.0,1,426.0,1
512,512,-0.5905534656619044,-0.6,1.0,0.0,257.0,826.0,0.0,0,167.0,1
513,513,-0.3645903550698879,-0.4,0.0,1.0,427.0,625.0,1.0,0,308.0,1
514,514,0.6294258849482207,0.6,1.0,1.0,436.0,850.0,1.0,1,724.0,1
515,515,0.8540904388029241,0.9,1.0,1.0,278.0,920.0,1.0,1,182.0,1
516,516,0.2966123311156742,0.3,1.0,1.0,454.0,924.0,1.0,1,262.0,1
517,517,-0.06042052979997825,-0.1,0.0,1.0,455.0,887.0,1.0,0,338.0,1
518,518,-0.02217522535247285,-0.0,0.0,1.0,356.0,565.0,1.0,0,1259.0,1
519,519,0.773455633662738,0.8,1.0,1.0,497.0,585.0,1.0,1,278.0,1
520,520,-0.3373172817459983,-0.3,0.0,1.0,321.0,516.0,1.0,0,813.0,1
521,521,-0.6624930459098531,-0.7,1.0,0.0,350.0,756.0,0.0,0,224.0,1
522,522,-0.46302685781387115,-0.5,1.0,0.0,276.0,612.0,0.0,0,462.0,1
523,523,-0.793004843081343,-0.8,0.0,1.0,486.0,719.0,1.0,0,245.0,1
524,524,0.8017702315715917,0.8,1.0,1.0,429.0,502.0,1.0,1,469.0,1
525,525,0.5174308963859863,0.5,0.0,0.0,435.0,732.0,0.0,1,303.0,1
526,526,-0.6330860029004668,-0.6,0.0,1.0,260.0,658.0,1.0,0,732.0,1
527,527,0.5917169235272332,0.6,1.0,1.0,453.0,962.0,1.0,1,135.0,1
528,528,0.46878004374242443,0.5,1.0,1.0,420.0,605.0,1.0,1,765.0,1
529,529,-0.25444245369496166,-0.3,1.0,0.0,487.0,959.0,0.0,0,234.0,1
530,530,-0.09111930327171136,-0.1,1.0,0.0,250.0,666.0,0.0,0,754.0,1
531,531,0.5235383872472462,0.5,0.0,0.0,386.0,975.0,0.0,1,279.0,1
532,532,-0.680674180611929,-0.7,1.0,0.0,492.0,527.0,0.0,0,381.0,1
533,533,0.5072331869942813,0.5,1.0,1.0,309.0,542.0,1.0,1,619.0,1
534,534,0.21561155066009763,0.2,0.0,0.0,285.0,761.0,0.0,1,494.0,1
535,535,0.1361945738981597,0.1,1.0,1.0,497.0,811.0,1.0,1,322.0,1
536,536,-0.641542738147141,-0.6,1.0,0.0,399.0,581.0,0.0,0,300.0,1
537,537,0.7329059032851545,0.7,0.0,0.0,271.0,591.0,0.0,1,198.0,1
538,538,0.8884293003345362,0.9,1.0,1.0,395.0,962.0,1.0,1,223.0,1
539,539,-0.5912133927672507,-0.6,1.0,0.0,282.0,750.0,0.0,0,278.0,1
540,540,-0.3318744957578683,-0.3,1.0,0.0,387.0,774.0,0.0,0,209.0,1
541,541,0.6427841013475454,0.6,0.0,0.0,443.0,745.0,0.0,1,262.0,1
542,542,0.20890197247170172,0.2,1.0,1.0,324.0,951.0,1.0,1,265.0,1
543,543,0.5191997724579912,0.5,1.0,1.0,294.0,590.0,1.0,1,396.0,1
544,544,0.44688621017791685,0.4,0.0,0.0,337.0,950.0,1.0,0,-7.0,0
545,545,-0.04579232172402781,-0.0,0.0,1.0,291.0,774.0,1.0,0,1815.0,1
546,546,-0.08875138581895425,-0.1,1.0,0.0,417.0,712.0,0.0,0,481.0,1
547,547,-0.3062696313429397,-0.3,1.0,0.0,424.0,577.0,0.0,0,189.0,1
548,548,0.2958638119293092,0.3,1.0,1.0,388.0,919.0,1.0,1,293.0,1
549,549,-0.7672141902510927,-0.8,1.0,0.0,392.0,602.0,0.0,0,166.0,1
550,550,0.7537084477247794,0.8,0.0,0.0,330.0,862.0,0.0,1,138.0,1
551,551,0.17811449846458027,0.2,1.0,1.0,412.0,881.0,1.0,1,477.0,1
552,552,0.5987074012395562,0.6,1.0,1.0,392.0,588.0,1.0,1,330.0,1
553,553,0.23448394359112024,0.2,0.0,0.0,497.0,907.0,0.0,1,346.0,1
554,554,-0.652760981842566,-0.7,0.0,1.0,305.0,985.0,1.0,0,30.0,1
555,555,0.3758884781599555,0.4,0.0,0.0,332.0,658.0,0.0,1,250.0,1
556,556,-0.6058926566030505,-0.6,0.0,1.0,403.0,874.0,1.0,0,243.0,1
557,557,-0.444954423453194,-0.4,0.0,1.0,464.0,681.0,1.0,0,305.0,1
558,558,-0.15918682554336472,-0.2,1.0,0.0,351.0,679.0,0.0,0,430.0,1
559,559,0.7873666077688001,0.8,1.0,1.0,398.0,623.0,1.0,1,399.0,1
560,560,0.7119925796464358,0.7,0.0,0.0,490.0,838.0,0.0,1,232.0,1
561,561,-0.02414051391133154,-0.0,0.0,1.0,346.0,884.0,1.0,0,510.0,1
562,562,-0.5998145697968942,-0.6,0.0,1.0,268.0,642.0,1.0,0,340.0,1
563,563,0.4057816489167295,0.4,0.0,0.0,488.0,937.0,0.0,1,135.0,1
564,564,0.21567208866519338,0.2,1.0,1.0,342.0,571.0,1.0,1,257.0,1
565,565,-0.28229566469863954,-0.3,0.0,1.0,470.0,606.0,1.0,0,514.0,1
566,566,-0.09515628856985447,-0.1,0.0,1.0,448.0,960.0,1.0,0,592.0,1
567,567,0.20596923975034354,0.2,0.0,0.0,461.0,908.0,0.0,1,361.0,1
568,568,0.4349612235748247,0.4,1.0,1.0,453.0,701.0,1.0,1,196.0,1
569,569,0.05840145323483059,0.1,0.0,0.0,395.0,861.0,0.0,1,854.0,1
570,570,0.5039518543977856,0.5,1.0,1.0,255.0,940.0,1.0,1,95.0,1
571,571,0.8833402701279852,0.9,0.0,0.0,295.0,988.0,0.0,1,107.0,1
572,572,0.3911356789667789,0.4,1.0,1.0,426.0,924.0,1.0,1,260.0,1
573,573,-0.15567765134797185,-0.2,0.0,1.0,301.0,717.0,1.0,0,392.0,1
574,574,-0.8452242719516013,-0.8,0.0,1.0,341.0,713.0,1.0,0,476.0,1
575,575,0.8235739373125753,0.8,1.0,1.0,453.0,565.0,1.0,1,392.0,1
576,576,0.14898271064861468,0.1,1.0,1.0,421.0,666.0,1.0,1,443.0,1
577,577,-0.3232651485691824,-0.3,0.0,1.0,395.0,979.0,1.0,0,86.0,1
578,578,0.8843313533706637,0.9,0.0,0.0,379.0,534.0,0.0,1,237.0,1
579,579,-0.577135665586948,-0.6,1.0,0.0,360.0,768.0,0.0,0,192.0,1
580,580,-0.21879995142652509,-0.2,0.0,1.0,365.0,884.0,1.0,0,641.0,1
581,581,0.14335982361527677,0.1,1.0,1.0,284.0,770.0,1.0,1,326.0,1
582,582,-0.5279282965126395,-0.5,0.0,1.0,345.0,673.0,1.0,0,222.0,1
583,583,0.6994716223339904,0.7,0.0,0.0,320.0,732.0,0.0,1,238.0,1
584,584,0.8866110077907988,0.9,0.0,0.0,408.0,732.0,0.0,1,290.0,1
585,585,-0.3830589208575246,-0.4,0.0,1.0,283.0,573.0,1.0,0,324.0,1
586,586,0.694478892606122,0.7,0.0,0.0,276.0,998.0,0.0,1,216.0,1
587,587,0.28467459283479457,0.3,1.0,1.0,484.0,516.0,1.0,1,520.0,1
588,588,-0.691115565913566,-0.7,0.0,1.0,272.0,584.0,1.0,0,314.0,1
589,589,-0.06033074197912591,-0.1,1.0,0.0,465.0,756.0,0.0,0,1249.0,1
590,590,0.6926979323751065,0.7,0.0,0.0,280.0,855.0,0.0,1,205.0,1
591,591,0.14363337809099275,0.1,0.0,0.0,433.0,777.0,0.0,1,320.0,1
592,592,0.22762224062900105,0.2,0.0,0.0,447.0,820.0,0.0,1,493.0,1
593,593,0.0841786514014039,0.1,0.0,0.0,431.0,803.0,0.0,1,506.0,1
594,594,0.005301076116335346,0.0,1.0,1.0,336.0,921.0,1.0,1,1133.0,1
595,595,0.5815215142862188,0.6,1.0,1.0,456.0,889.0,1.0,1,225.0,1
596,596,0.14578445327249734,0.1,0.0,0.0,332.0,800.0,0.0,1,468.0,1
597,597,-0.038697115479306876,-0.0,1.0,0.0,268.0,539.0,0.0,0,513.0,1
598,598,0.8380880052345111,0.8,0.0,0.0,478.0,754.0,0.0,1,158.0,1
599,599,0.24081801156658,0.2,0.0,0.0,361.0,978.0,0.0,1,341.0,1
600,600,0.7734428513405668,0.8,0.0,0.0,499.0,935.0,0.0,1,136.0,1
601,601,0.0036286083796790436,0.0,0.0,0.0,472.0,517.0,0.0,1,1671.0,1
602,602,0.033972522183148834,0.0,0.0,0.0,413.0,971.0,1.0,0,826.0,0
603,603,-0.48657664209860113,-0.5,0.0,1.0,323.0,933.0,1.0,0,324.0,1
604,604,-0.6361479484492605,-0.6,1.0,0.0,269.0,635.0,0.0,0,286.0,1
605,605,0.6765190669019768,0.7,1.0,1.0,408.0,601.0,1.0,1,311.0,1
606,606,-0.8166590197943677,-0.8,0.0,1.0,339.0,923.0,1.0,0,208.0,1
607,607,-0.7343641076132441,-0.7,0.0,1.0,412.0,739.0,1.0,0,249.0,1
608,608,0.44450265309016934,0.4,0.0,0.0,358.0,611.0,0.0,1,251.0,1
609,609,-0.14343861395440272,-0.1,1.0,0.0,389.0,860.0,0.0,0,411.0,1
610,610,0.7381025151843904,0.7,1.0,1.0,256.0,545.0,1.0,1,369.0,1
611,611,-0.04676447830962027,-0.0,0.0,1.0,282.0,745.0,1.0,0,553.0,1
612,612,0.7620546140641365,0.8,0.0,0.0,337.0,691.0,0.0,1,292.0,1
613,613,-0.6146635984735171,-0.6,0.0,1.0,372.0,908.0,1.0,0,250.0,1
614,614,-0.7149467406645462,-0.7,0.0,1.0,408.0,654.0,1.0,0,298.0,1
615,615,0.8231563185769625,0.8,0.0,0.0,328.0,893.0,0.0,1,159.0,1
616,616,0.38366834035657515,0.4,0.0,0.0,341.0,686.0,0.0,1,183.0,1
617,617,-0.6047370870342537,-0.6,1.0,0.0,495.0,743.0,0.0,0,222.0,1
618,618,-0.0944724327512968,-0.1,0.0,1.0,278.0,764.0,1.0,0,478.0,1
619,619,-0.3571045053944303,-0.4,0.0,1.0,426.0,785.0,1.0,0,139.0,1
620,620,-0.79263144839754,-0.8,1.0,0.0,375.0,612.0,0.0,0,193.0,1
621,621,-0.033364809443093946,-0.0,0.0,1.0,397.0,547.0,1.0,0,1046.0,1
622,622,0.461142824484866,0.5,1.0,1.0,382.0,947.0,1.0,1,131.0,1
623,623,0.21088968573892186,0.2,1.0,1.0,309.0,870.0,1.0,1,151.0,1
624,624,-0.2551538765909811,-0.3,0.0,1.0,306.0,889.0,1.0,0,145.0,1
625,625,-0.7005144663370877,-0.7,1.0,0.0,411.0,801.0,0.0,0,158.0,1
626,626,-0.4780782466400063,-0.5,0.0,1.0,435.0,609.0,1.0,0,476.0,1
627,627,0.445398815274448,0.4,0.0,0.0,385.0,989.0,0.0,1,246.0,1
628,628,0.493185266490871,0.5,0.0,0.0,330.0,870.0,0.0,1,240.0,1
629,629,0.8473066473513876,0.8,1.0,1.0,489.0,775.0,1.0,1,346.0,1
630,630,-0.16891976245787654,-0.2,1.0,0.0,267.0,714.0,0.0,0,629.0,1
631,631,0.8506630855902085,0.9,1.0,1.0,381.0,612.0,1.0,1,667.0,1
632,632,0.594265718942376,0.6,0.0,0.0,497.0,710.0,0.0,1,323.0,1
633,633,-0.5110307678868766,-0.5,0.0,1.0,331.0,788.0,1.0,0,191.0,1
634,634,-0.2588891219484507,-0.3,1.0,0.0,391.0,675.0,0.0,0,304.0,1
635,635,0.8617113985687509,0.9,1.0,1.0,363.0,701.0,1.0,1,506.0,1
636,636,-0.17480363117743158,-0.2,0.0,1.0,454.0,746.0,1.0,0,270.0,1
637,637,0.26040599363211514,0.3,1.0,1.0,412.0,678.0,1.0,1,410.0,1
638,638,0.27823203366712124,0.3,0.0,0.0,304.0,831.0,0.0,1,225.0,1
639,639,0.03267491538605738,0.0,0.0,0.0,357.0,940.0,1.0,0,1103.0,0
640,640,0.5498693519031451,0.5,0.0,0.0,357.0,746.0,0.0,1,357.0,1
641,641,-0.33212957129309784,-0.3,0.0,1.0,321.0,665.0,1.0,0,334.0,1
642,642,0.4462863854681275,0.4,0.0,0.0,379.0,944.0,0.0,1,147.0,1
643,643,0.10630960471248085,0.1,0.0,0.0,473.0,775.0,0.0,1,462.0,1
644,644,-0.5354187277961329,-0.5,0.0,1.0,451.0,547.0,1.0,0,372.0,1
645,645,0.7837959534898963,0.8,0.0,0.0,342.0,999.0,0.0,1,159.0,1
646,646,0.0182312128703227,0.0,1.0,1.0,319.0,990.0,1.0,1,461.0,1
647,647,0.5514666030394587,0.6,0.0,0.0,332.0,938.0,0.0,1,160.0,1
648,648,0.08367660429185142,0.1,1.0,1.0,350.0,753.0,1.0,1,647.0,1
649,649,-0.6058510345050185,-0.6,0.0,1.0,370.0,973.0,1.0,0,47.0,1
650,650,0.3342782287887832,0.3,1.0,1.0,476.0,612.0,1.0,1,332.0,1
651,651,0.7331847758722841,0.7,1.0,1.0,386.0,986.0,1.0,1,278.0,1
652,652,-0.8204203278961493,-0.8,1.0,0.0,439.0,680.0,0.0,0,321.0,1
653,653,0.2565624306993305,0.3,1.0,1.0,449.0,920.0,1.0,1,111.0,1
654,654,0.009199540421737318,0.0,0.0,0.0,326.0,970.0,1.0,0,874.0,0
655,655,0.028087111214471827,0.0,1.0,1.0,461.0,946.0,1.0,1,433.0,1
656,656,0.28741170866629895,0.3,1.0,1.0,286.0,949.0,1.0,1,25.0,1
657,657,-0.46660317217331765,-0.5,1.0,0.0,381.0,884.0,0.0,0,135.0,1
658,658,0.3468920945920707,0.3,0.0,0.0,281.0,799.0,0.0,1,380.0,1
659,659,-0.0208860481565053,-0.0,1.0,0.0,250.0,997.0,0.0,0,373.0,1
660,660,-0.13523823595583218,-0.1,0.0,1.0,281.0,828.0,1.0,0,431.0,1
661,661,0.5293194613855824,0.5,0.0,0.0,399.0,507.0,0.0,1,334.0,1
662,662,0.09196077164519989,0.1,0.0,0.0,429.0,819.0,0.0,1,522.0,1
663,663,-0.08507349639081863,-0.1,0.0,1.0,288.0,919.0,1.0,0,263.0,1
664,664,0.5592153096512879,0.6,0.0,0.0,374.0,908.0,0.0,1,138.0,1
665,665,-0.740766797430029,-0.7,1.0,0.0,366.0,587.0,0.0,0,207.0,1
666,666,-0.536961430353333,-0.5,0.0,1.0,465.0,514.0,1.0,0,221.0,1
667,667,0.5016804839319619,0.5,0.0,0.0,278.0,708.0,0.0,1,184.0,1
668,668,0.44061763176156477,0.4,0.0,0.0,486.0,722.0,0.0,1,232.0,1
669,669,-0.14337287781528252,-0.1,0.0,1.0,428.0,659.0,1.0,0,443.0,1
670,670,0.6529431023695688,0.7,1.0,1.0,284.0,825.0,1.0,1,441.0,1
671,671,0.3333621014298257,0.3,1.0,1.0,402.0,842.0,1.0,1,186.0,1
672,672,-0.25281802157937183,-0.3,0.0,1.0,321.0,653.0,1.0,0,666.0,1
673,673,-0.715529041191804,-0.7,0.0,1.0,468.0,540.0,1.0,0,482.0,1
674,674,-0.4933802049694029,-0.5,0.0,1.0,426.0,870.0,1.0,0,254.0,1
675,675,-0.4665012573507689,-0.5,0.0,1.0,396.0,784.0,1.0,0,190.0,1
676,676,0.36518555089430216,0.4,1.0,1.0,360.0,686.0,1.0,1,324.0,1
677,677,-0.5597104554780912,-0.6,0.0,1.0,396.0,686.0,1.0,0,408.0,1
678,678,-0.2710747001839393,-0.3,1.0,0.0,316.0,822.0,0.0,0,252.0,1
679,679,0.3190333792967429,0.3,1.0,1.0,283.0,930.0,1.0,1,297.0,1
680,680,-0.5196937165617579,-0.5,1.0,0.0,266.0,999.0,0.0,0,175.0,1
681,681,0.7245681327374606,0.7,1.0,1.0,426.0,648.0,1.0,1,336.0,1
682,682,-0.818656875676317,-0.8,0.0,1.0,277.0,836.0,1.0,0,127.0,1
683,683,-0.12762649134428483,-0.1,1.0,0.0,256.0,748.0,0.0,0,186.0,1
684,684,0.38199394582111135,0.4,1.0,1.0,466.0,959.0,1.0,1,265.0,1
685,685,-0.41096410361615515,-0.4,1.0,0.0,477.0,763.0,0.0,0,120.0,1
686,686,-0.08253914946978647,-0.1,1.0,0.0,422.0,954.0,0.0,0,514.0,1
687,687,-0.4433090557612206,-0.4,0.0,1.0,356.0,766.0,1.0,0,288.0,1
688,688,-0.8884399870000421,-0.9,0.0,1.0,314.0,513.0,1.0,0,843.0,1
689,689,-0.5136210527527255,-0.5,0.0,1.0,312.0,572.0,1.0,0,546.0,1
690,690,-0.6441059130223126,-0.6,0.0,1.0,478.0,833.0,1.0,0,129.0,1
691,691,0.2411388259489352,0.2,1.0,1.0,459.0,556.0,1.0,1,555.0,1
692,692,-0.32580123727220256,-0.3,1.0,0.0,313.0,877.0,0.0,0,310.0,1
693,693,0.0529832180887686,0.1,0.0,0.0,327.0,612.0,0.0,1,701.0,1
694,694,-0.6755233971285037,-0.7,0.0,1.0,395.0,724.0,1.0,0,241.0,1
695,695,-0.28782591567199456,-0.3,1.0,0.0,252.0,876.0,0.0,0,202.0,1
696,696,0.5121954775518419,0.5,0.0,0.0,387.0,824.0,0.0,1,209.0,1
697,697,-0.20497100862409767,-0.2,1.0,0.0,391.0,724.0,0.0,0,285.0,1
698,698,-0.10910998964725227,-0.1,0.0,1.0,474.0,900.0,1.0,0,236.0,1
699,699,-0.8181179717853295,-0.8,0.0,1.0,482.0,734.0,1.0,0,154.0,1
700,700,0.5806904987695743,0.6,1.0,1.0,324.0,862.0,1.0,1,254.0,1
701,701,-0.09231319815689754,-0.1,1.0,0.0,351.0,512.0,0.0,0,487.0,1
702,702,-0.6391027192621939,-0.6,0.0,1.0,400.0,842.0,1.0,0,178.0,1
703,703,-0.10620299947159118,-0.1,0.0,1.0,358.0,958.0,1.0,0,474.0,1
704,704,0.024890606738484644,0.0,1.0,1.0,488.0,977.0,1.0,1,435.0,1
705,705,0.0862610757427299,0.1,0.0,0.0,301.0,606.0,0.0,1,743.0,1
706,706,-0.29927590705298035,-0.3,0.0,1.0,257.0,700.0,1.0,0,333.0,1
707,707,0.17978463952704338,0.2,0.0,0.0,290.0,875.0,0.0,1,335.0,1
708,708,0.7007715717696078,0.7,1.0,1.0,488.0,808.0,1.0,1,284.0,1
709,709,0.16717038103933202,0.2,1.0,1.0,345.0,722.0,1.0,1,393.0,1
710,710,0.4816095153875325,0.5,0.0,0.0,361.0,611.0,0.0,1,308.0,1
711,711,-0.8901414476171275,-0.9,0.0,1.0,433.0,852.0,1.0,0,215.0,1
712,712,-0.03001426625678716,-0.0,0.0,1.0,263.0,931.0,1.0,0,1006.0,1
713,713,-0.28737273290693344,-0.3,0.0,1.0,251.0,713.0,1.0,0,196.0,1
714,714,-0.08623805568554554,-0.1,1.0,0.0,477.0,705.0,0.0,0,758.0,1
715,715,-0.2692397176219259,-0.3,0.0,1.0,282.0,870.0,1.0,0,168.0,1
716,716,-0.3067716076011917,-0.3,1.0,0.0,467.0,713.0,0.0,0,330.0,1
717,717,-0.37130501555346274,-0.4,0.0,1.0,414.0,924.0,1.0,0,152.0,1
718,718,-0.10110122910137498,-0.1,0.0,1.0,301.0,769.0,1.0,0,220.0,1
719,719,-0.7204127993254865,-0.7,0.0,1.0,260.0,752.0,1.0,0,268.0,1
720,720,0.8854052705813881,0.9,0.0,0.0,377.0,724.0,0.0,1,149.0,1
721,721,0.16819655274074663,0.2,0.0,0.0,352.0,988.0,0.0,1,370.0,1
722,722,0.42908264862763035,0.4,0.0,0.0,437.0,612.0,0.0,1,351.0,1
723,723,-0.3865634024038561,-0.4,1.0,0.0,394.0,872.0,0.0,0,134.0,1
724,724,0.20747126752729306,0.2,1.0,1.0,346.0,720.0,1.0,1,354.0,1
725,725,0.6120666580862836,0.6,0.0,0.0,494.0,585.0,0.0,1,271.0,1
726,726,0.32749286419566526,0.3,1.0,1.0,362.0,953.0,1.0,1,315.0,1
727,727,0.015851371533136205,0.0,0.0,0.0,326.0,650.0,1.0,0,2024.0,0
728,728,-0.23646971279000306,-0.2,0.0,1.0,333.0,753.0,1.0,0,234.0,1
729,729,0.5988331060165527,0.6,1.0,1.0,339.0,548.0,1.0,1,453.0,1
730,730,-0.5782086403055198,-0.6,0.0,1.0,348.0,718.0,1.0,0,604.0,1
731,731,-0.1514217094987148,-0.2,0.0,1.0,499.0,539.0,1.0,0,462.0,1
732,732,-0.08333276350271757,-0.1,1.0,0.0,482.0,659.0,0.0,0,809.0,1
733,733,-0.5616147895476433,-0.6,0.0,1.0,433.0,659.0,1.0,0,618.0,1
734,734,-0.2423138810447668,-0.2,0.0,1.0,265.0,646.0,1.0,0,259.0,1
735,735,-0.06557438146264283,-0.1,0.0,1.0,343.0,524.0,1.0,0,853.0,1
736,736,-0.37746738987164297,-0.4,1.0,0.0,382.0,737.0,0.0,0,281.0,1
737,737,0.6936119670370285,0.7,1.0,1.0,375.0,948.0,1.0,1,327.0,1
738,738,-0.010222202711418493,-0.0,1.0,0.0,319.0,717.0,0.0,0,684.0,1
739,739,-0.4189823574405538,-0.4,1.0,0.0,484.0,769.0,0.0,0,257.0,1
740,740,0.7655830298818097,0.8,0.0,0.0,482.0,731.0,0.0,1,217.0,1
741,741,-0.3237914852439415,-0.3,0.0,1.0,405.0,773.0,1.0,0,222.0,1
742,742,-0.29503226087174095,-0.3,1.0,0.0,474.0,812.0,0.0,0,314.0,1
743,743,-0.6328165366564527,-0.6,1.0,0.0,436.0,630.0,0.0,0,304.0,1
744,744,0.487224559690247,0.5,0.0,0.0,355.0,731.0,0.0,1,284.0,1
745,745,0.4092360541898584,0.4,1.0,1.0,368.0,831.0,1.0,1,351.0,1
746,746,0.6332239447812783,0.6,1.0,1.0,345.0,783.0,1.0,1,192.0,1
747,747,-0.0975543961201839,-0.1,0.0,1.0,442.0,968.0,1.0,0,300.0,1
748,748,0.5084854189736675,0.5,1.0,1.0,422.0,872.0,1.0,1,256.0,1
749,749,-0.7314636899868299,-0.7,1.0,0.0,346.0,872.0,0.0,0,152.0,1
750,750,0.1917093304637888,0.2,0.0,0.0,383.0,744.0,0.0,1,413.0,1
751,751,-0.08289788100437379,-0.1,1.0,0.0,369.0,708.0,0.0,0,533.0,1
752,752,-0.6909456446072825,-0.7,1.0,0.0,480.0,657.0,0.0,0,173.0,1
753,753,0.3876494739812705,0.4,0.0,0.0,324.0,711.0,0.0,1,235.0,1
754,754,0.7473150356387791,0.7,0.0,0.0,460.0,543.0,0.0,1,287.0,1
755,755,-0.42328142458753815,-0.4,0.0,1.0,261.0,831.0,1.0,0,178.0,1
756,756,0.7053211288460844,0.7,0.0,0.0,294.0,716.0,0.0,1,250.0,1
757,757,-0.23346095586263194,-0.2,0.0,1.0,452.0,913.0,1.0,0,465.0,1
758,758,-0.15578625405721325,-0.2,0.0,1.0,393.0,881.0,1.0,0,236.0,1
759,759,-0.8359111019993016,-0.8,0.0,1.0,394.0,571.0,1.0,0,325.0,1
760,760,0.25382702118594336,0.3,0.0,0.0,259.0,971.0,0.0,1,330.0,1
761,761,0.01737654990383064,0.0,0.0,0.0,433.0,600.0,1.0,0,957.0,0
762,762,0.1999174182350275,0.2,0.0,0.0,341.0,948.0,0.0,1,441.0,1
763,763,-0.5491423429057103,-0.5,0.0,1.0,271.0,808.0,1.0,0,111.0,1
764,764,-0.5634338887162076,-0.6,1.0,0.0,316.0,774.0,0.0,0,100.0,1
765,765,-0.8272980212265173,-0.8,1.0,0.0,497.0,795.0,0.0,0,198.0,1
766,766,0.2030478344069261,0.2,0.0,0.0,334.0,560.0,0.0,1,416.0,1
767,767,-0.44334107587301663,-0.4,1.0,0.0,283.0,975.0,0.0,0,132.0,1
768,768,0.0717275791771429,0.1,1.0,1.0,399.0,694.0,1.0,1,367.0,1
769,769,-0.7843561871237816,-0.8,1.0,0.0,403.0,968.0,0.0,0,179.0,1
770,770,-0.3659789441266236,-0.4,1.0,0.0,274.0,884.0,0.0,0,242.0,1
771,771,-0.5913825889588679,-0.6,0.0,1.0,388.0,941.0,1.0,0,131.0,1
772,772,-0.5467402887961659,-0.5,0.0,1.0,422.0,647.0,1.0,0,361.0,1
773,773,0.3199017515279329,0.3,1.0,1.0,434.0,913.0,1.0,1,203.0,1
774,774,0.5174356224139803,0.5,1.0,1.0,442.0,814.0,1.0,1,194.0,1
775,775,-0.5529357511883081,-0.6,1.0,0.0,479.0,854.0,0.0,0,267.0,1
776,776,-0.1300194876234263,-0.1,0.0,1.0,357.0,593.0,1.0,0,740.0,1
777,777,0.882955269176109,0.9,1.0,1.0,280.0,779.0,1.0,1,201.0,1
778,778,0.5418119511174043,0.5,0.0,0.0,345.0,836.0,0.0,1,229.0,1
779,779,-0.7034651657392356,-0.7,1.0,0.0,372.0,659.0,0.0,0,309.0,1
780,780,-0.85021745223608,-0.9,1.0,0.0,476.0,520.0,0.0,0,214.0,1
781,781,0.6368911311737385,0.6,0.0,0.0,255.0,731.0,0.0,1,254.0,1
782,782,0.45837100169120515,0.5,1.0,1.0,491.0,921.0,1.0,1,118.0,1
783,783,0.5184812797857928,0.5,0.0,0.0,327.0,949.0,0.0,1,184.0,1
784,784,-0.05623664000734019,-0.1,0.0,1.0,430.0,647.0,1.0,0,843.0,1
785,785,-0.3360088022250306,-0.3,0.0,1.0,390.0,646.0,1.0,0,314.0,1
786,786,0.5151602699772192,0.5,1.0,1.0,300.0,633.0,1.0,1,257.0,1
787,787,0.624962473039974,0.6,1.0,1.0,253.0,603.0,1.0,1,214.0,1
788,788,0.5792280692226778,0.6,0.0,0.0,297.0,972.0,0.0,1,131.0,1
789,789,0.5549899939360662,0.6,1.0,1.0,459.0,836.0,1.0,1,165.0,1
790,790,-0.13881182947853654,-0.1,0.0,1.0,440.0,690.0,1.0,0,500.0,1
791,791,-0.04316310966978809,-0.0,0.0,1.0,294.0,892.0,1.0,0,594.0,1
792,792,0.5509170116255514,0.6,1.0,1.0,439.0,777.0,1.0,1,214.0,1
793,793,-0.2693563811035631,-0.3,0.0,1.0,376.0,775.0,1.0,0,419.0,1
794,794,0.3940059138577813,0.4,0.0,0.0,485.0,553.0,0.0,1,372.0,1
795,795,0.3033580629109921,0.3,0.0,0.0,471.0,956.0,0.0,1,203.0,1
796,796,-0.5548654836878395,-0.6,1.0,0.0,279.0,615.0,0.0,0,186.0,1
797,797,0.39469482842023573,0.4,1.0,1.0,394.0,604.0,1.0,1,382.0,1
798,798,-0.8316843960622093,-0.8,1.0,0.0,306.0,642.0,0.0,0,302.0,1
799,799,0.7332276816303992,0.7,0.0,0.0,425.0,670.0,0.0,1,195.0,1
800,800,0.3363005824525366,0.3,1.0,1.0,346.0,903.0,1.0,1,341.0,1
801,801,0.586174428108789,0.6,1.0,1.0,416.0,509.0,1.0,1,535.0,1
802,802,0.518354033656876,0.5,0.0,0.0,281.0,950.0,0.0,1,149.0,1
803,803,-0.8247836602113461,-0.8,0.0,1.0,452.0,527.0,1.0,0,311.0,1
804,804,-0.5704090242028514,-0.6,0.0,1.0,343.0,830.0,1.0,0,257.0,1
805,805,0.8479597947789846,0.8,1.0,1.0,441.0,780.0,1.0,1,149.0,1
806,806,-0.7126499751266455,-0.7,1.0,0.0,400.0,541.0,0.0,0,349.0,1
807,807,-0.02196395360201797,-0.0,0.0,1.0,469.0,835.0,1.0,0,576.0,1
808,808,0.03191951588958175,0.0,0.0,0.0,285.0,704.0,0.0,1,1171.0,1
809,809,-0.3083620461572234,-0.3,1.0,0.0,350.0,510.0,0.0,0,450.0,1
810,810,0.02911541791416794,0.0,1.0,1.0,455.0,829.0,1.0,1,816.0,1
811,811,0.5582614964509839,0.6,1.0,1.0,338.0,908.0,1.0,1,354.0,1
812,812,-0.022345022439773987,-0.0,1.0,0.0,337.0,967.0,1.0,1,936.0,0
813,813,0.5065392587141407,0.5,1.0,1.0,421.0,712.0,1.0,1,357.0,1
814,814,0.8129662348624497,0.8,1.0,1.0,417.0,788.0,1.0,1,205.0,1
815,815,0.22648901477850558,0.2,1.0,1.0,350.0,886.0,1.0,1,244.0,1
816,816,-0.0325445341609466,-0.0,1.0,0.0,259.0,866.0,1.0,1,945.0,0
817,817,-0.346486071545287,-0.3,1.0,0.0,326.0,581.0,0.0,0,393.0,1
818,818,-0.4366750441840928,-0.4,1.0,0.0,275.0,972.0,0.0,0,133.0,1
819,819,-0.2470199985892808,-0.2,0.0,1.0,484.0,969.0,1.0,0,237.0,1
820,820,-0.850067493733259,-0.9,0.0,1.0,446.0,944.0,1.0,0,130.0,1
821,821,-0.048038661793368465,-0.0,0.0,1.0,414.0,925.0,1.0,0,1091.0,1
822,822,0.35335072513097365,0.4,1.0,1.0,279.0,818.0,1.0,1,233.0,1
823,823,-0.17541653678621294,-0.2,1.0,0.0,396.0,508.0,0.0,0,346.0,1
824,824,-0.5944237284342546,-0.6,1.0,0.0,420.0,588.0,0.0,0,372.0,1
825,825,0.2478610266238782,0.2,0.0,0.0,450.0,831.0,0.0,1,429.0,1
826,826,-0.5137208684618912,-0.5,1.0,0.0,383.0,758.0,0.0,0,239.0,1
827,827,0.7520940401452839,0.8,0.0,0.0,405.0,537.0,0.0,1,228.0,1
828,828,-0.7123980519922803,-0.7,0.0,1.0,395.0,758.0,1.0,0,267.0,1
829,829,0.29419810004246083,0.3,1.0,1.0,368.0,813.0,1.0,1,309.0,1
830,830,-0.5954964581107085,-0.6,0.0,1.0,497.0,937.0,1.0,0,146.0,1
831,831,-0.22022423551213544,-0.2,0.0,1.0,377.0,930.0,1.0,0,273.0,1
832,832,-0.25029715829329957,-0.3,1.0,0.0,399.0,749.0,0.0,0,502.0,1
833,833,-0.8734116061924313,-0.9,1.0,0.0,462.0,826.0,0.0,0,112.0,1
834,834,-0.4532186747762654,-0.5,1.0,0.0,415.0,766.0,0.0,0,229.0,1
835,835,-0.17870612494997207,-0.2,1.0,0.0,261.0,699.0,0.0,0,310.0,1
836,836,-0.20106701125382775,-0.2,1.0,0.0,470.0,675.0,0.0,0,465.0,1
837,837,0.4356991400911746,0.4,1.0,1.0,424.0,621.0,1.0,1,255.0,1
838,838,-0.0443078610729728,-0.0,0.0,1.0,297.0,898.0,1.0,0,675.0,1
839,839,-0.33180628831562664,-0.3,1.0,0.0,290.0,953.0,0.0,0,277.0,1
840,840,0.5833757305173582,0.6,1.0,1.0,254.0,932.0,1.0,1,244.0,1
841,841,0.43395821730221107,0.4,1.0,1.0,404.0,924.0,1.0,1,252.0,1
842,842,-0.02516885145931469,-0.0,0.0,1.0,346.0,660.0,1.0,0,764.0,1
843,843,0.16604730937145684,0.2,1.0,1.0,295.0,800.0,1.0,1,535.0,1
844,844,-0.5787474402172241,-0.6,1.0,0.0,263.0,569.0,0.0,0,278.0,1
845,845,-0.38716043192543126,-0.4,0.0,1.0,301.0,903.0,1.0,0,386.0,1
846,846,-0.45728804780851995,-0.5,1.0,0.0,410.0,836.0,0.0,0,144.0,1
847,847,0.6721537278972308,0.7,0.0,0.0,474.0,595.0,0.0,1,201.0,1
848,848,0.04687509613011076,0.0,1.0,1.0,462.0,741.0,1.0,1,947.0,1
849,849,0.46751886191966385,0.5,1.0,1.0,275.0,944.0,1.0,1,171.0,1
850,850,-0.561971113008231,-0.6,1.0,0.0,394.0,532.0,0.0,0,244.0,1
851,851,0.5420638452275895,0.5,0.0,0.0,277.0,914.0,0.0,1,189.0,1
852,852,0.5449988554539421,0.5,1.0,1.0,330.0,842.0,1.0,1,228.0,1
853,853,0.6175991333719811,0.6,1.0,1.0,291.0,791.0,1.0,1,228.0,1
854,854,-0.023386094816013392,-0.0,0.0,1.0,413.0,946.0,1.0,0,161.0,1
855,855,-0.7920533473782444,-0.8,0.0,1.0,257.0,711.0,1.0,0,2032.0,1
856,856,-0.23877685144230976,-0.2,0.0,1.0,393.0,926.0,1.0,0,241.0,1
857,857,0.6619848293712137,0.7,1.0,1.0,298.0,686.0,1.0,1,206.0,1
858,858,-0.7340979456018725,-0.7,0.0,1.0,364.0,975.0,1.0,0,181.0,1
859,859,-0.20838926587710938,-0.2,0.0,1.0,275.0,716.0,1.0,0,369.0,1
860,860,0.3517574782944336,0.4,0.0,0.0,465.0,926.0,0.0,1,239.0,1
861,861,0.06590701176563563,0.1,0.0,0.0,279.0,732.0,0.0,1,779.0,1
862,862,-0.050048787323859645,-0.1,1.0,0.0,426.0,686.0,0.0,0,1408.0,1
863,863,-0.3172631911116013,-0.3,1.0,0.0,447.0,640.0,0.0,0,343.0,1
864,864,0.6727026345377148,0.7,1.0,1.0,300.0,857.0,1.0,1,193.0,1
865,865,0.5360428975413595,0.5,1.0,1.0,497.0,725.0,1.0,1,198.0,1
866,866,-0.021324038078914476,-0.0,0.0,1.0,366.0,545.0,1.0,0,719.0,1
867,867,0.06018614546823764,0.1,0.0,0.0,423.0,528.0,0.0,1,1269.0,1
868,868,-0.8715035046066876,-0.9,0.0,1.0,342.0,601.0,1.0,0,617.0,1
869,869,-0.8119235220136948,-0.8,1.0,0.0,375.0,817.0,0.0,0,118.0,1
870,870,-0.3648863461182035,-0.4,1.0,0.0,356.0,997.0,0.0,0,177.0,1
871,871,0.7633818029890919,0.8,1.0,1.0,439.0,776.0,1.0,1,165.0,1
872,872,-0.8543267796739338,-0.9,0.0,1.0,469.0,555.0,1.0,0,1976.0,1
873,873,-0.6836896462154756,-0.7,0.0,1.0,386.0,807.0,1.0,0,197.0,1
874,874,-0.2141315830301933,-0.2,0.0,1.0,354.0,941.0,1.0,0,165.0,1
875,875,-0.2736721687505699,-0.3,1.0,0.0,481.0,720.0,0.0,0,199.0,1
876,876,0.6539815343324046,0.7,0.0,0.0,438.0,575.0,0.0,1,227.0,1
877,877,-0.19483021106574927,-0.2,1.0,0.0,453.0,742.0,0.0,0,365.0,1
878,878,0.028567279666212086,0.0,1.0,1.0,399.0,819.0,1.0,1,562.0,1
879,879,0.6269009245995766,0.6,1.0,1.0,336.0,823.0,1.0,1,171.0,1
880,880,0.8694120439794429,0.9,1.0,1.0,424.0,550.0,1.0,1,936.0,1
881,881,0.0696065502691916,0.1,0.0,0.0,446.0,540.0,0.0,1,874.0,1
882,882,-0.004387559581461753,-0.0,0.0,1.0,486.0,660.0,0.0,1,1584.0,0
883,883,-0.3537004947283229,-0.4,0.0,1.0,293.0,500.0,1.0,0,547.0,1
884,884,0.2676872881491149,0.3,0.0,0.0,324.0,555.0,0.0,1,481.0,1
885,885,0.5722801398891176,0.6,0.0,0.0,333.0,557.0,0.0,1,290.0,1
886,886,-0.5168638862983674,-0.5,1.0,0.0,327.0,606.0,0.0,0,427.0,1
887,887,-0.8064777489945288,-0.8,1.0,0.0,406.0,575.0,0.0,0,389.0,1
888,888,0.34920399156317605,0.3,1.0,1.0,285.0,684.0,1.0,1,381.0,1
889,889,0.46122108707149134,0.5,0.0,0.0,372.0,743.0,0.0,1,205.0,1
890,890,0.05105402303100404,0.1,0.0,0.0,441.0,544.0,0.0,1,745.0,1
891,891,0.5256418221260616,0.5,1.0,1.0,402.0,864.0,1.0,1,224.0,1
892,892,0.37773255537889006,0.4,0.0,0.0,272.0,591.0,0.0,1,407.0,1
893,893,-0.7362262542282295,-0.7,0.0,1.0,285.0,975.0,1.0,0,100.0,1
894,894,0.28264652103349974,0.3,1.0,1.0,383.0,772.0,1.0,1,265.0,1
895,895,0.8309797016808079,0.8,0.0,0.0,398.0,765.0,0.0,1,217.0,1
896,896,-0.39803242099778746,-0.4,1.0,0.0,285.0,502.0,0.0,0,383.0,1
897,897,-0.201822328274324,-0.2,0.0,1.0,496.0,769.0,1.0,0,395.0,1
898,898,-0.6924974505706794,-0.7,1.0,0.0,462.0,854.0,0.0,0,254.0,1
899,899,0.19744643544674967,0.2,0.0,0.0,362.0,703.0,0.0,1,465.0,1
900,900,-0.38920053593162685,-0.4,0.0,1.0,410.0,738.0,1.0,0,422.0,1
901,901,-0.24033570284720962,-0.2,1.0,0.0,300.0,895.0,0.0,0,165.0,1
902,902,-0.5869692449788241,-0.6,0.0,1.0,280.0,960.0,1.0,0,230.0,1
903,903,0.21395711264185635,0.2,1.0,1.0,468.0,757.0,1.0,1,235.0,1
904,904,0.18885867084968055,0.2,0.0,0.0,355.0,953.0,0.0,1,352.0,1
905,905,-0.5167239558509265,-0.5,0.0,1.0,423.0,997.0,1.0,0,270.0,1
906,906,-0.45772315215086035,-0.5,0.0,1.0,299.0,836.0,1.0,0,155.0,1
907,907,0.32770099967066557,0.3,0.0,0.0,322.0,920.0,0.0,1,248.0,1
908,908,-0.5176506589177357,-0.5,1.0,0.0,388.0,827.0,0.0,0,135.0,1
909,909,0.24031586431060548,0.2,1.0,1.0,250.0,619.0,1.0,1,431.0,1
910,910,-0.007234247230285096,-0.0,1.0,0.0,452.0,585.0,0.0,0,653.0,1
911,911,-0.08739130657600913,-0.1,1.0,0.0,327.0,667.0,0.0,0,486.0,1
912,912,0.04646699964527523,0.0,0.0,0.0,335.0,738.0,1.0,0,707.0,0
913,913,-0.5267100156800366,-0.5,1.0,0.0,332.0,865.0,0.0,0,293.0,1
914,914,0.7153995249788182,0.7,0.0,0.0,303.0,726.0,0.0,1,241.0,1
915,915,-0.11519915466344999,-0.1,1.0,0.0,263.0,803.0,0.0,0,394.0,1
916,916,0.30417303232427695,0.3,1.0,1.0,426.0,525.0,1.0,1,319.0,1
917,917,0.6364167179190626,0.6,0.0,0.0,300.0,610.0,0.0,1,150.0,1
918,918,-0.7564414686414572,-0.8,1.0,0.0,495.0,724.0,0.0,0,221.0,1
919,919,-0.07072802800724687,-0.1,1.0,0.0,419.0,575.0,0.0,0,706.0,1
920,920,-0.38526152455530915,-0.4,1.0,0.0,451.0,665.0,0.0,0,304.0,1
921,921,-0.7812762275934123,-0.8,0.0,1.0,259.0,599.0,1.0,0,252.0,1
922,922,-0.6707545191547848,-0.7,0.0,1.0,373.0,652.0,1.0,0,245.0,1
923,923,-0.693828762463228,-0.7,0.0,1.0,451.0,557.0,1.0,0,332.0,1
924,924,0.24681674875050652,0.2,1.0,1.0,446.0,695.0,1.0,1,169.0,1
925,925,-0.8268700993771241,-0.8,0.0,1.0,364.0,797.0,1.0,0,209.0,1
926,926,0.3683119225956327,0.4,1.0,1.0,494.0,556.0,1.0,1,700.0,1
927,927,0.2940906322109337,0.3,0.0,0.0,278.0,805.0,0.0,1,277.0,1
928,928,0.619452842356034,0.6,1.0,1.0,421.0,792.0,1.0,1,217.0,1
929,929,0.687474800960702,0.7,0.0,0.0,474.0,767.0,0.0,1,139.0,1
930,930,0.3021350190909532,0.3,1.0,1.0,369.0,681.0,1.0,1,210.0,1
931,931,-0.24968287267350986,-0.2,1.0,0.0,260.0,911.0,0.0,0,169.0,1
932,932,-0.8488675067794512,-0.8,0.0,1.0,488.0,951.0,1.0,0,61.0,1
933,933,-0.07398761101193474,-0.1,0.0,1.0,402.0,861.0,1.0,0,447.0,1
934,934,0.8309245041911361,0.8,0.0,0.0,452.0,569.0,0.0,1,239.0,1
935,935,-0.19845546971517336,-0.2,0.0,1.0,451.0,889.0,1.0,0,400.0,1
936,936,0.4394606769352113,0.4,1.0,1.0,283.0,800.0,1.0,1,227.0,1
937,937,0.8067362211542762,0.8,1.0,1.0,255.0,512.0,1.0,1,553.0,1
938,938,-0.008520072505972531,-0.0,1.0,0.0,433.0,633.0,1.0,1,584.0,0
939,939,-0.6337647503378813,-0.6,0.0,1.0,386.0,992.0,1.0,0,92.0,1
940,940,-0.8277509236889479,-0.8,0.0,1.0,473.0,559.0,1.0,0,308.0,1
941,941,-0.5553015495406948,-0.6,0.0,1.0,278.0,682.0,1.0,0,170.0,1
942,942,0.20894726554012577,0.2,1.0,1.0,320.0,786.0,1.0,1,284.0,1
943,943,0.6336478360101981,0.6,1.0,1.0,455.0,671.0,1.0,1,284.0,1
944,944,0.050172828060688124,0.1,1.0,1.0,296.0,619.0,1.0,1,915.0,1
945,945,0.8775388507934777,0.9,0.0,0.0,273.0,833.0,0.0,1,194.0,1
946,946,0.6025037495728186,0.6,0.0,0.0,431.0,969.0,0.0,1,170.0,1
947,947,-0.4959358466516216,-0.5,0.0,1.0,335.0,631.0,1.0,0,214.0,1
948,948,0.18416193206515763,0.2,0.0,0.0,359.0,534.0,0.0,1,527.0,1
949,949,-0.48112249452019606,-0.5,0.0,1.0,359.0,561.0,1.0,0,300.0,1
950,950,-0.0058364962660713005,-0.0,0.0,1.0,319.0,856.0,1.0,0,655.0,1
951,951,-0.21866881142994288,-0.2,1.0,0.0,408.0,542.0,0.0,0,420.0,1
952,952,0.2727067178209487,0.3,0.0,0.0,445.0,714.0,0.0,1,341.0,1
953,953,0.1607199905742659,0.2,1.0,1.0,495.0,781.0,1.0,1,204.0,1
954,954,0.8767414350451826,0.9,0.0,0.0,363.0,760.0,0.0,1,127.0,1
955,955,0.6389278909947865,0.6,0.0,0.0,368.0,702.0,0.0,1,230.0,1
956,956,0.6275545886455504,0.6,1.0,1.0,274.0,906.0,1.0,1,200.0,1
957,957,0.6237079356238558,0.6,0.0,0.0,499.0,792.0,0.0,1,229.0,1
958,958,-0.5093986927073131,-0.5,1.0,0.0,457.0,997.0,0.0,0,156.0,1
959,959,0.8667355189861518,0.9,1.0,1.0,321.0,881.0,1.0,1,288.0,1
960,960,0.8736820946873515,0.9,0.0,0.0,316.0,826.0,0.0,1,108.0,1
961,961,0.7512148553124999,0.8,1.0,1.0,431.0,812.0,1.0,1,327.0,1
962,962,0.7088779524307577,0.7,0.0,0.0,447.0,858.0,0.0,1,125.0,1
963,963,0.5504582748593624,0.6,0.0,0.0,332.0,838.0,0.0,1,170.0,1
964,964,0.2984329521799015,0.3,0.0,0.0,378.0,906.0,0.0,1,196.0,1
965,965,0.7205567842018211,0.7,1.0,1.0,499.0,974.0,1.0,1,237.0,1
966,966,-0.26380681491546354,-0.3,1.0,0.0,433.0,553.0,0.0,0,434.0,1
967,967,-0.2437335434864275,-0.2,0.0,1.0,414.0,730.0,1.0,0,406.0,1
968,968,-0.04861526451256837,-0.0,1.0,0.0,324.0,999.0,0.0,0,1447.0,1
969,969,0.11057038368410066,0.1,1.0,1.0,272.0,625.0,1.0,1,533.0,1
970,970,-0.8152872786842149,-0.8,0.0,1.0,251.0,857.0,1.0,0,12.0,1
971,971,0.6134324284641276,0.6,0.0,0.0,259.0,676.0,0.0,1,205.0,1
972,972,0.8797709944370012,0.9,1.0,1.0,499.0,804.0,1.0,1,337.0,1
973,973,0.15360390944982105,0.2,0.0,0.0,386.0,906.0,0.0,1,608.0,1
974,974,-0.29647290692626427,-0.3,1.0,0.0,330.0,533.0,0.0,0,507.0,1
975,975,-0.28003476795526805,-0.3,0.0,1.0,265.0,890.0,1.0,0,155.0,1
976,976,-0.403236510854649,-0.4,1.0,0.0,488.0,512.0,0.0,0,350.0,1
977,977,0.22706147550787337,0.2,0.0,0.0,307.0,733.0,0.0,1,580.0,1
978,978,-0.6107964995424928,-0.6,1.0,0.0,385.0,937.0,0.0,0,98.0,1
979,979,-0.5899305914890809,-0.6,0.0,1.0,426.0,501.0,1.0,0,343.0,1
980,980,-0.8879434619185705,-0.9,1.0,0.0,328.0,686.0,0.0,0,216.0,1
981,981,-0.0921481881096946,-0.1,1.0,0.0,355.0,874.0,0.0,0,411.0,1
982,982,0.611135036322426,0.6,0.0,0.0,439.0,693.0,0.0,1,198.0,1
983,983,-0.6327890142502706,-0.6,1.0,0.0,394.0,848.0,0.0,0,148.0,1
984,984,-0.4058880093804496,-0.4,0.0,1.0,401.0,631.0,1.0,0,358.0,1
985,985,-0.34880659114666435,-0.3,0.0,1.0,251.0,729.0,1.0,0,270.0,1
986,986,0.8848943191750073,0.9,1.0,1.0,426.0,717.0,1.0,1,87.0,1
987,987,-0.6483308935162022,-0.6,1.0,0.0,471.0,902.0,0.0,0,167.0,1
988,988,-0.4620584872933519,-0.5,0.0,1.0,385.0,875.0,1.0,0,270.0,1
989,989,0.6864269326861473,0.7,1.0,1.0,253.0,537.0,1.0,1,360.0,1
990,990,-0.5107983952683031,-0.5,0.0,1.0,410.0,994.0,1.0,0,196.0,1
991,991,-0.40995792242085555,-0.4,1.0,0.0,400.0,971.0,0.0,0,189.0,1
992,992,0.11362396002454045,0.1,0.0,0.0,404.0,836.0,0.0,1,840.0,1
993,993,-0.45731011199054716,-0.5,1.0,0.0,283.0,867.0,0.0,0,150.0,1
994,994,0.05539742959266969,0.1,1.0,1.0,313.0,652.0,1.0,1,895.0,1
995,995,-0.4928177028965273,-0.5,0.0,1.0,287.0,881.0,1.0,0,122.0,1
996,996,0.7252764753733553,0.7,1.0,1.0,263.0,556.0,1.0,1,291.0,1
997,997,0.30523515348965213,0.3,0.0,0.0,289.0,854.0,0.0,1,407.0,1
998,998,0.0037574726343486686,0.0,1.0,1.0,462.0,835.0,1.0,1,403.0,1
999,999,0.09745204294471277,0.1,1.0,1.0,327.0,596.0,1.0,1,497.0,1
1000,1000,0.6729208856865493,0.7,1.0,1.0,478.0,602.0,1.0,1,320.0,1
1001,1001,0.5388066185535717,0.5,0.0,0.0,340.0,593.0,0.0,1,177.0,1
1002,1002,-0.1131102907777799,-0.1,0.0,1.0,470.0,863.0,1.0,0,447.0,1
1003,1003,0.7513012448742417,0.8,1.0,1.0,437.0,835.0,1.0,1,228.0,1
1004,1004,0.21237577908310012,0.2,1.0,1.0,250.0,640.0,1.0,1,470.0,1
1005,1005,-0.4394881645672659,-0.4,1.0,0.0,320.0,773.0,0.0,0,217.0,1
1006,1006,-0.3299443657389811,-0.3,1.0,0.0,382.0,546.0,0.0,0,532.0,1
1007,1007,0.054256416538042807,0.1,0.0,0.0,482.0,849.0,0.0,1,549.0,1
1008,1008,-0.14342594639941197,-0.1,1.0,0.0,314.0,879.0,0.0,0,437.0,1
1009,1009,0.6262339022844875,0.6,1.0,1.0,325.0,569.0,1.0,1,306.0,1
1010,1010,-0.6334296305209182,-0.6,1.0,0.0,258.0,685.0,0.0,0,267.0,1
1011,1011,0.1141447082802437,0.1,1.0,1.0,366.0,766.0,1.0,1,768.0,1
1012,1012,0.2990330028350038,0.3,1.0,1.0,490.0,890.0,1.0,1,170.0,1
1013,1013,0.7009849813586456,0.7,1.0,1.0,262.0,988.0,1.0,1,130.0,1
1014,1014,0.2811802446565922,0.3,0.0,0.0,307.0,620.0,0.0,1,363.0,1
1015,1015,0.45877214658744114,0.5,0.0,0.0,317.0,538.0,0.0,1,425.0,1
1016,1016,0.3746442540171645,0.4,0.0,0.0,474.0,613.0,0.0,1,253.0,1
1017,1017,0.5165575382017736,0.5,1.0,1.0,496.0,853.0,1.0,1,221.0,1
1018,1018,-0.34070383567175144,-0.3,0.0,1.0,367.0,776.0,1.0,0,207.0,1
1019,1019,-0.15505965302628988,-0.2,1.0,0.0,408.0,612.0,0.0,0,620.0,1
1020,1020,-0.6100356425543869,-0.6,0.0,1.0,332.0,639.0,1.0,0,219.0,1
1021,1021,0.2520292354655628,0.3,0.0,0.0,448.0,640.0,0.0,1,512.0,1
1022,1022,0.28429859895020193,0.3,1.0,1.0,411.0,924.0,1.0,1,285.0,1
1023,1023,0.455858590947411,0.5,0.0,0.0,358.0,712.0,0.0,1,140.0,1
1024,1024,0.2718541462665439,0.3,1.0,1.0,434.0,718.0,1.0,1,378.0,1
1025,1025,-0.08184743140464268,-0.1,0.0,1.0,424.0,827.0,1.0,0,259.0,1
1026,1026,-0.5220185220108269,-0.5,1.0,0.0,349.0,800.0,0.0,0,151.0,1
1027,1027,-0.8107655949489121,-0.8,0.0,1.0,375.0,803.0,1.0,0,522.0,1
1028,1028,-0.5740227553446289,-0.6,1.0,0.0,475.0,572.0,0.0,0,323.0,1
1029,1029,-0.050101208612890025,-0.1,0.0,1.0,361.0,786.0,1.0,0,1203.0,1
1030,1030,-0.6988096360123084,-0.7,1.0,0.0,385.0,709.0,0.0,0,276.0,1
1031,1031,-0.5667677383709253,-0.6,0.0,1.0,326.0,949.0,1.0,0,355.0,1
1032,1032,0.8607075341674674,0.9,1.0,1.0,369.0,534.0,1.0,1,937.0,1
1033,1033,0.41921997355483887,0.4,1.0,1.0,380.0,975.0,1.0,1,195.0,1
1034,1034,0.4173761038294391,0.4,1.0,1.0,445.0,945.0,1.0,1,190.0,1
1035,1035,-0.10207775282770926,-0.1,1.0,0.0,438.0,528.0,0.0,0,624.0,1
1036,1036,-0.2238101004616162,-0.2,0.0,1.0,379.0,992.0,1.0,0,249.0,1
1037,1037,-0.577610386281308,-0.6,0.0,1.0,304.0,814.0,1.0,0,422.0,1
1038,1038,0.20068057106090087,0.2,0.0,0.0,326.0,784.0,0.0,1,460.0,1
1039,1039,0.5607879038587761,0.6,1.0,1.0,309.0,947.0,1.0,1,114.0,1
1040,1040,-0.2012900341534033,-0.2,1.0,0.0,458.0,775.0,0.0,0,347.0,1
1041,1041,0.7604182117671577,0.8,0.0,0.0,483.0,549.0,0.0,1,168.0,1
1042,1042,0.4025793160636989,0.4,1.0,1.0,329.0,741.0,1.0,1,230.0,1
1043,1043,0.4491511712879167,0.4,0.0,0.0,277.0,579.0,0.0,1,474.0,1
1044,1044,0.2744115609162733,0.3,0.0,0.0,273.0,972.0,0.0,1,195.0,1
1045,1045,-0.5049001546859329,-0.5,0.0,1.0,270.0,806.0,1.0,0,274.0,1
1046,1046,-0.8912862029274298,-0.9,1.0,0.0,463.0,961.0,0.0,0,146.0,1
1047,1047,-0.7007339237817045,-0.7,1.0,0.0,441.0,679.0,0.0,0,210.0,1
1048,1048,-0.24733297310888847,-0.2,0.0,1.0,276.0,551.0,1.0,0,603.0,1
1049,1049,-0.5092142546230083,-0.5,0.0,1.0,443.0,628.0,1.0,0,529.0,1
1050,1050,0.8868641174941879,0.9,0.0,0.0,311.0,941.0,0.0,1,128.0,1
1051,1051,0.5532013670112249,0.6,0.0,0.0,459.0,763.0,0.0,1,238.0,1
1052,1052,-0.46037496783138826,-0.5,1.0,0.0,260.0,894.0,0.0,0,206.0,1
1053,1053,0.06907867441456428,0.1,1.0,1.0,362.0,914.0,1.0,1,1014.0,1
1054,1054,-0.5811764669139929,-0.6,0.0,1.0,478.0,956.0,1.0,0,66.0,1
1055,1055,0.29052558706250753,0.3,1.0,1.0,292.0,776.0,1.0,1,352.0,1
1056,1056,0.5410292307032275,0.5,1.0,1.0,334.0,576.0,1.0,1,430.0,1
1057,1057,-0.12640491276152233,-0.1,1.0,0.0,389.0,739.0,0.0,0,452.0,1
1058,1058,0.684093286953349,0.7,1.0,1.0,269.0,909.0,1.0,1,242.0,1
1059,1059,0.10147668777290486,0.1,0.0,0.0,284.0,767.0,0.0,1,359.0,1
1060,1060,0.5313079016555745,0.5,0.0,0.0,299.0,614.0,0.0,1,337.0,1
1061,1061,0.5275676838726838,0.5,0.0,0.0,282.0,817.0,0.0,1,241.0,1
1062,1062,0.46820258935535464,0.5,1.0,1.0,344.0,986.0,1.0,1,250.0,1
1063,1063,0.3389743592947069,0.3,0.0,0.0,430.0,900.0,0.0,1,230.0,1
1064,1064,0.8853386580018908,0.9,0.0,0.0,369.0,612.0,0.0,1,189.0,1
1065,1065,-0.32629279987435067,-0.3,1.0,0.0,442.0,846.0,0.0,0,142.0,1
1066,1066,0.0854627235601525,0.1,0.0,0.0,285.0,770.0,0.0,1,505.0,1
1067,1067,-0.4165061619494015,-0.4,1.0,0.0,451.0,776.0,0.0,0,293.0,1
1068,1068,-0.6656483280597876,-0.7,1.0,0.0,462.0,566.0,0.0,0,262.0,1
1069,1069,-0.3377992055396565,-0.3,0.0,1.0,313.0,602.0,1.0,0,495.0,1
1070,1070,0.7115419866068823,0.7,1.0,1.0,469.0,980.0,1.0,1,181.0,1
1071,1071,0.6147637352734886,0.6,1.0,1.0,294.0,946.0,1.0,1,80.0,1
1072,1072,-0.22476725674164422,-0.2,0.0,1.0,323.0,776.0,1.0,0,301.0,1
1073,1073,-0.545322620058375,-0.5,0.0,1.0,304.0,627.0,1.0,0,749.0,1
1074,1074,-0.5638946778902055,-0.6,0.0,1.0,264.0,550.0,1.0,0,676.0,1
1075,1075,0.4870483849553088,0.5,1.0,1.0,328.0,881.0,1.0,1,271.0,1
1076,1076,-0.668507697255202,-0.7,1.0,0.0,318.0,988.0,0.0,0,134.0,1
1077,1077,0.6862324580925415,0.7,1.0,1.0,285.0,599.0,1.0,1,376.0,1
1078,1078,-0.8289300967192779,-0.8,1.0,0.0,257.0,996.0,0.0,0,57.0,1
1079,1079,-0.8711068711370411,-0.9,0.0,1.0,295.0,835.0,1.0,0,370.0,1
1080,1080,0.6435334069709132,0.6,0.0,0.0,412.0,793.0,0.0,1,195.0,1
1081,1081,-0.5201202806919298,-0.5,0.0,1.0,436.0,934.0,1.0,0,170.0,1
1082,1082,0.21288306932259637,0.2,1.0,1.0,392.0,860.0,1.0,1,218.0,1
1083,1083,0.0977732432473527,0.1,1.0,1.0,287.0,540.0,1.0,1,703.0,1
1084,1084,0.6519518462763944,0.7,0.0,0.0,335.0,670.0,0.0,1,245.0,1
1085,1085,0.7102209263193119,0.7,0.0,0.0,466.0,725.0,0.0,1,259.0,1
1086,1086,-0.46954523401608406,-0.5,0.0,1.0,286.0,813.0,1.0,0,181.0,1
1087,1087,-0.19578076110687392,-0.2,0.0,1.0,264.0,887.0,1.0,0,369.0,1
1088,1088,0.5070792371673826,0.5,1.0,1.0,298.0,855.0,1.0,1,217.0,1
1089,1089,-0.33710150208834333,-0.3,0.0,1.0,271.0,596.0,1.0,0,453.0,1
1090,1090,-0.7176940621549022,-0.7,0.0,1.0,412.0,818.0,1.0,0,190.0,1
1091,1091,-0.8479689627283449,-0.8,0.0,1.0,264.0,509.0,1.0,0,1097.0,1
1092,1092,-0.3769652275849239,-0.4,1.0,0.0,309.0,978.0,0.0,0,133.0,1
1093,1093,0.48093884190566316,0.5,1.0,1.0,366.0,610.0,1.0,1,414.0,1
1094,1094,0.465309938948239,0.5,1.0,1.0,386.0,716.0,1.0,1,228.0,1
1095,1095,-0.22305554798379856,-0.2,1.0,0.0,474.0,665.0,0.0,0,301.0,1
1096,1096,0.420665849984449,0.4,1.0,1.0,388.0,593.0,1.0,1,169.0,1
1097,1097,-0.11324623707731263,-0.1,1.0,0.0,267.0,641.0,0.0,0,332.0,1
1098,1098,0.5754161808290802,0.6,1.0,1.0,259.0,798.0,1.0,1,183.0,1
1099,1099,0.872006160810988,0.9,0.0,0.0,476.0,672.0,0.0,1,192.0,1
1100,1100,0.4117806401917917,0.4,1.0,1.0,285.0,589.0,1.0,1,166.0,1
1101,1101,-0.08542991098388009,-0.1,0.0,1.0,484.0,670.0,1.0,0,246.0,1
1102,1102,0.21584861171339698,0.2,0.0,0.0,323.0,916.0,0.0,1,301.0,1
1103,1103,0.32257243759914045,0.3,1.0,1.0,298.0,974.0,0.0,0,8.0,0
1104,1104,0.17853430581665986,0.2,0.0,0.0,492.0,592.0,0.0,1,236.0,1
1105,1105,-0.1165201407216433,-0.1,0.0,1.0,339.0,569.0,1.0,0,732.0,1
1106,1106,0.3331184932573771,0.3,0.0,0.0,285.0,804.0,0.0,1,221.0,1
1107,1107,-0.4832428554404554,-0.5,0.0,1.0,485.0,785.0,1.0,0,270.0,1
1108,1108,0.8333754745220415,0.8,0.0,0.0,268.0,900.0,0.0,1,362.0,1
1109,1109,-0.5565008613467985,-0.6,0.0,1.0,495.0,725.0,1.0,0,340.0,1
1110,1110,-0.6875596945561068,-0.7,1.0,0.0,434.0,813.0,0.0,0,153.0,1
1111,1111,0.8898750235732019,0.9,1.0,1.0,447.0,542.0,1.0,1,441.0,1
1112,1112,-0.8920363969760612,-0.9,0.0,1.0,358.0,771.0,1.0,0,401.0,1
1113,1113,0.7925248262157,0.8,1.0,1.0,375.0,827.0,1.0,1,328.0,1
1114,1114,0.043533479109573614,0.0,1.0,1.0,307.0,595.0,1.0,1,818.0,1
1115,1115,0.6964255348713196,0.7,0.0,0.0,323.0,837.0,0.0,1,110.0,1
1116,1116,0.8313740269387856,0.8,1.0,1.0,283.0,646.0,1.0,1,351.0,1
1117,1117,0.2045247382534675,0.2,1.0,1.0,488.0,945.0,1.0,1,167.0,1
1118,1118,0.38658502691534735,0.4,1.0,1.0,375.0,785.0,1.0,1,400.0,1
1119,1119,-0.0003619366025962023,-0.0,0.0,1.0,359.0,806.0,1.0,0,1015.0,1
1120,1120,-0.592009253894427,-0.6,0.0,1.0,369.0,992.0,1.0,0,99.0,1
1121,1121,-0.06816460723075923,-0.1,0.0,1.0,285.0,912.0,1.0,0,373.0,1
1122,1122,0.5589531878463935,0.6,1.0,1.0,325.0,717.0,1.0,1,308.0,1
1123,1123,-0.5331447583948383,-0.5,1.0,0.0,344.0,683.0,0.0,0,223.0,1
1124,1124,-0.48522208901584024,-0.5,0.0,1.0,340.0,673.0,1.0,0,447.0,1
1125,1125,0.8615445789748243,0.9,0.0,0.0,260.0,934.0,0.0,1,96.0,1
1126,1126,-0.4034398433249026,-0.4,0.0,1.0,273.0,758.0,1.0,0,219.0,1
1127,1127,0.8610197266551788,0.9,1.0,1.0,344.0,600.0,1.0,1,2056.0,1
1128,1128,0.5622990542675436,0.6,0.0,0.0,285.0,912.0,0.0,1,173.0,1
1129,1129,0.7976938007368254,0.8,1.0,1.0,381.0,702.0,1.0,1,427.0,1
1130,1130,0.061864050061595455,0.1,0.0,0.0,310.0,890.0,1.0,0,220.0,0
1131,1131,0.09141187860711075,0.1,0.0,0.0,486.0,947.0,0.0,1,277.0,1
1132,1132,0.6713488014390471,0.7,1.0,1.0,499.0,692.0,1.0,1,339.0,1
1133,1133,0.2179107298765096,0.2,1.0,1.0,355.0,562.0,1.0,1,413.0,1
1134,1134,-0.18021515362533158,-0.2,0.0,1.0,400.0,803.0,1.0,0,287.0,1
1135,1135,0.2513389570947565,0.3,1.0,1.0,456.0,863.0,1.0,1,311.0,1
1136,1136,-0.1942358228922113,-0.2,1.0,0.0,342.0,979.0,0.0,0,259.0,1
1137,1137,-0.16487267395665528,-0.2,1.0,0.0,464.0,794.0,0.0,0,712.0,1
1138,1138,-0.583294445416794,-0.6,1.0,0.0,279.0,654.0,0.0,0,137.0,1
1139,1139,-0.334921487116315,-0.3,0.0,1.0,394.0,575.0,1.0,0,371.0,1
1140,1140,0.8636127095680372,0.9,1.0,1.0,478.0,965.0,1.0,1,7.0,1
1141,1141,-0.2353898126317866,-0.2,0.0,1.0,360.0,624.0,1.0,0,276.0,1
1142,1142,-0.5516596660000126,-0.6,1.0,0.0,445.0,533.0,0.0,0,402.0,1
1143,1143,0.31682004814470355,0.3,0.0,0.0,453.0,647.0,0.0,1,440.0,1
1144,1144,0.03747712485470833,0.0,0.0,0.0,494.0,624.0,0.0,1,972.0,1
1145,1145,0.10718591583162473,0.1,0.0,0.0,356.0,898.0,0.0,1,346.0,1
1146,1146,-0.12641348425402166,-0.1,0.0,1.0,394.0,785.0,1.0,0,351.0,1
1147,1147,0.451539068675206,0.5,1.0,1.0,369.0,604.0,1.0,1,497.0,1
1148,1148,-0.8065305725468559,-0.8,0.0,1.0,281.0,863.0,1.0,0,206.0,1
1149,1149,-0.6796524404551916,-0.7,1.0,0.0,337.0,813.0,0.0,0,190.0,1
1150,1150,0.05053640203818832,0.1,0.0,0.0,437.0,976.0,1.0,0,457.0,0
1151,1151,-0.4100837950498157,-0.4,0.0,1.0,354.0,836.0,1.0,0,150.0,1
1152,1152,0.47908626147129574,0.5,1.0,1.0,311.0,867.0,1.0,1,182.0,1
1153,1153,-0.7078494023515949,-0.7,1.0,0.0,435.0,822.0,0.0,0,303.0,1
1154,1154,0.12033850995738982,0.1,1.0,1.0,313.0,935.0,1.0,1,722.0,1
1155,1155,0.014253634482208066,0.0,1.0,1.0,305.0,661.0,1.0,1,524.0,1
1156,1156,-0.5535455760993158,-0.6,1.0,0.0,389.0,686.0,0.0,0,305.0,1
1157,1157,0.4811836397123278,0.5,0.0,0.0,402.0,675.0,0.0,1,273.0,1
1158,1158,0.41767909984446694,0.4,0.0,0.0,387.0,653.0,0.0,1,190.0,1
1159,1159,-0.4571440414886036,-0.5,1.0,0.0,407.0,874.0,0.0,0,259.0,1
1160,1160,0.7269011001837135,0.7,0.0,0.0,492.0,557.0,0.0,1,321.0,1
1161,1161,0.2974504521102731,0.3,1.0,1.0,345.0,636.0,1.0,1,239.0,1
1162,1162,0.7942640077831861,0.8,1.0,1.0,395.0,852.0,1.0,1,83.0,1
1163,1163,-0.08270164558162263,-0.1,0.0,1.0,342.0,533.0,1.0,0,625.0,1
1164,1164,0.2090434138564109,0.2,1.0,1.0,375.0,775.0,1.0,1,360.0,1
1165,1165,-0.555593987780822,-0.6,1.0,0.0,258.0,538.0,0.0,0,244.0,1
1166,1166,-0.4223518139577951,-0.4,1.0,0.0,399.0,979.0,0.0,0,122.0,1
1167,1167,-0.19841129586357253,-0.2,0.0,1.0,250.0,973.0,1.0,0,407.0,1
1168,1168,-0.3855823115149263,-0.4,0.0,1.0,369.0,972.0,1.0,0,239.0,1
1169,1169,-0.8981406960509937,-0.9,1.0,0.0,374.0,706.0,0.0,0,230.0,1
1170,1170,0.43180840719189184,0.4,0.0,0.0,329.0,957.0,0.0,1,134.0,1
1171,1171,-0.16643968839672163,-0.2,0.0,1.0,439.0,711.0,1.0,0,360.0,1
1172,1172,-0.7812378285684034,-0.8,0.0,1.0,397.0,767.0,1.0,0,146.0,1
1173,1173,-0.7783775103086393,-0.8,0.0,1.0,289.0,641.0,1.0,0,560.0,1
1174,1174,0.563946062539398,0.6,1.0,1.0,387.0,673.0,1.0,1,230.0,1
1175,1175,-0.4436955749165884,-0.4,0.0,1.0,480.0,701.0,1.0,0,259.0,1
1176,1176,-0.6861854178163559,-0.7,1.0,0.0,450.0,558.0,0.0,0,212.0,1
1177,1177,-0.059759052625615094,-0.1,1.0,0.0,468.0,579.0,0.0,0,843.0,1
1178,1178,0.4583234290119679,0.5,1.0,1.0,452.0,593.0,1.0,1,415.0,1
1179,1179,-0.6932077914517977,-0.7,0.0,1.0,404.0,928.0,1.0,0,268.0,1
1180,1180,0.14991172692718246,0.1,0.0,0.0,326.0,889.0,0.0,1,-155.0,1
1181,1181,-0.25326079003090174,-0.3,0.0,1.0,378.0,992.0,1.0,0,280.0,1
1182,1182,0.5273693628520458,0.5,0.0,0.0,336.0,571.0,0.0,1,233.0,1
1183,1183,-0.07826668628671096,-0.1,1.0,0.0,368.0,780.0,0.0,0,312.0,1
1184,1184,0.4256516638142559,0.4,0.0,0.0,371.0,507.0,0.0,1,342.0,1
1185,1185,-0.275155824981431,-0.3,0.0,1.0,472.0,819.0,1.0,0,199.0,1
1186,1186,0.07107180572680882,0.1,0.0,0.0,476.0,583.0,0.0,1,1871.0,1
1187,1187,0.30255338743167004,0.3,0.0,0.0,454.0,636.0,0.0,1,360.0,1
1188,1188,0.12005833690778267,0.1,0.0,0.0,416.0,950.0,0.0,1,494.0,1
1189,1189,-0.05671945554707236,-0.1,0.0,1.0,490.0,844.0,1.0,0,496.0,1
1190,1190,-0.0740824984761751,-0.1,0.0,1.0,377.0,575.0,1.0,0,658.0,1
1191,1191,-0.6202192381066258,-0.6,1.0,0.0,302.0,561.0,0.0,0,227.0,1
1192,1192,0.21547363986495205,0.2,0.0,0.0,423.0,814.0,0.0,1,303.0,1
1193,1193,-0.7023438258410035,-0.7,0.0,1.0,387.0,631.0,1.0,0,452.0,1
1194,1194,0.6004859910284973,0.6,0.0,0.0,287.0,726.0,0.0,1,247.0,1
1195,1195,-0.45108516863643094,-0.5,0.0,1.0,383.0,755.0,1.0,0,222.0,1
1196,1196,-0.7474815715877196,-0.7,1.0,0.0,455.0,975.0,0.0,0,70.0,1
1197,1197,-0.26268544317935727,-0.3,0.0,1.0,285.0,625.0,1.0,0,660.0,1
1198,1198,0.6413061891324293,0.6,1.0,1.0,284.0,929.0,1.0,1,207.0,1
1199,1199,-0.32808402704206907,-0.3,1.0,0.0,337.0,878.0,0.0,0,135.0,1
1200,1200,-0.47141284749190626,-0.5,1.0,0.0,251.0,559.0,0.0,0,410.0,1
1201,1201,0.5523346733541546,0.6,0.0,0.0,252.0,745.0,0.0,1,273.0,1
1202,1202,0.3215144143661187,0.3,1.0,1.0,376.0,616.0,1.0,1,798.0,1
1203,1203,-0.6010648449765943,-0.6,0.0,1.0,257.0,854.0,1.0,0,219.0,1
1204,1204,-0.357823028891048,-0.4,1.0,0.0,452.0,770.0,0.0,0,218.0,1
1205,1205,0.6203529470008565,0.6,1.0,1.0,275.0,718.0,1.0,1,267.0,1
1206,1206,-0.6262373382918496,-0.6,1.0,0.0,349.0,604.0,0.0,0,197.0,1
1207,1207,0.55727134479403,0.6,0.0,0.0,259.0,603.0,0.0,1,328.0,1
1208,1208,-0.09543359678501295,-0.1,0.0,1.0,292.0,999.0,1.0,0,299.0,1
1209,1209,0.3661421243638171,0.4,1.0,1.0,398.0,516.0,1.0,1,536.0,1
1210,1210,-0.14118660065839195,-0.1,0.0,1.0,323.0,599.0,1.0,0,528.0,1
1211,1211,0.8891506924179827,0.9,0.0,0.0,438.0,799.0,0.0,1,223.0,1
1212,1212,0.4985040904478314,0.5,0.0,0.0,312.0,918.0,0.0,1,150.0,1
1213,1213,-0.48040300814246906,-0.5,1.0,0.0,374.0,718.0,0.0,0,308.0,1
1214,1214,0.3363453124332113,0.3,0.0,0.0,354.0,938.0,0.0,1,358.0,1
1215,1215,-0.32590455949755026,-0.3,1.0,0.0,473.0,527.0,0.0,0,420.0,1
1216,1216,-0.13044903661198137,-0.1,0.0,1.0,467.0,767.0,1.0,0,446.0,1
1217,1217,-0.33855215439642294,-0.3,1.0,0.0,484.0,578.0,0.0,0,678.0,1
1218,1218,0.4613620737921301,0.5,1.0,1.0,336.0,701.0,1.0,1,323.0,1
1219,1219,0.7184238016575341,0.7,1.0,1.0,348.0,723.0,1.0,1,479.0,1
1220,1220,-0.15977338757601245,-0.2,0.0,1.0,374.0,916.0,1.0,0,370.0,1
1221,1221,0.6042762594156817,0.6,1.0,1.0,416.0,689.0,1.0,1,455.0,1
1222,1222,-0.7221335507880194,-0.7,1.0,0.0,321.0,835.0,0.0,0,144.0,1
1223,1223,0.13163218243551722,0.1,1.0,1.0,311.0,938.0,1.0,1,351.0,1
1224,1224,0.27292678599845666,0.3,1.0,1.0,468.0,550.0,1.0,1,332.0,1
1225,1225,0.08117914699932138,0.1,0.0,0.0,429.0,909.0,0.0,1,702.0,1
1226,1226,-0.8118589458848215,-0.8,1.0,0.0,277.0,719.0,0.0,0,284.0,1
1227,1227,0.5060501036885635,0.5,1.0,1.0,493.0,678.0,1.0,1,169.0,1
1228,1228,-0.8706713056439502,-0.9,0.0,1.0,482.0,864.0,1.0,0,194.0,1
1229,1229,0.75948651889209,0.8,0.0,0.0,497.0,754.0,0.0,1,149.0,1
1230,1230,-0.730089484786038,-0.7,1.0,0.0,311.0,665.0,0.0,0,244.0,1
1231,1231,-0.41563273425630404,-0.4,0.0,1.0,259.0,683.0,1.0,0,328.0,1
1232,1232,0.36867415666126024,0.4,0.0,0.0,488.0,911.0,0.0,1,101.0,1
1233,1233,-0.49268819072215375,-0.5,1.0,0.0,292.0,627.0,0.0,0,241.0,1
1234,1234,-0.4088778412262734,-0.4,0.0,1.0,474.0,650.0,1.0,0,256.0,1
1235,1235,-0.7317305746134246,-0.7,1.0,0.0,421.0,509.0,0.0,0,510.0,1
1236,1236,-0.06087833948221488,-0.1,1.0,0.0,491.0,580.0,0.0,0,529.0,1
1237,1237,-0.7308482210239531,-0.7,0.0,1.0,439.0,787.0,1.0,0,204.0,1
1238,1238,0.07812880854592663,0.1,0.0,0.0,435.0,629.0,0.0,1,496.0,1
1239,1239,-0.18646570404220386,-0.2,0.0,1.0,388.0,625.0,1.0,0,747.0,1
1240,1240,0.8117661535872142,0.8,0.0,0.0,334.0,793.0,0.0,1,113.0,1
1241,1241,-0.29081800143779346,-0.3,1.0,0.0,412.0,854.0,0.0,0,94.0,1
1242,1242,0.3315246993976123,0.3,1.0,1.0,444.0,838.0,1.0,1,248.0,1
1243,1243,0.48774192272010997,0.5,0.0,0.0,489.0,834.0,0.0,1,407.0,1
1244,1244,0.03173463228692086,0.0,1.0,1.0,364.0,850.0,1.0,1,376.0,1
1245,1245,-0.7678437584617316,-0.8,0.0,1.0,465.0,617.0,1.0,0,358.0,1
1246,1246,-0.18421879714348366,-0.2,0.0,1.0,367.0,601.0,1.0,0,242.0,1
1247,1247,0.5578527644592152,0.6,0.0,0.0,383.0,878.0,0.0,1,209.0,1
1248,1248,0.05545448511088924,0.1,0.0,0.0,266.0,975.0,0.0,1,909.0,1
1249,1249,0.23034792900187673,0.2,0.0,0.0,405.0,567.0,0.0,1,298.0,1
1250,1250,0.6309037326367853,0.6,1.0,1.0,374.0,851.0,1.0,1,255.0,1
1251,1251,0.4779813424589078,0.5,1.0,1.0,383.0,934.0,1.0,1,133.0,1
1252,1252,0.5209922121778968,0.5,1.0,1.0,468.0,951.0,1.0,1,151.0,1
1253,1253,-0.3735769143020137,-0.4,1.0,0.0,482.0,663.0,0.0,0,195.0,1
1254,1254,-0.5603417569386062,-0.6,0.0,1.0,303.0,677.0,1.0,0,320.0,1
1255,1255,-0.3322672899486706,-0.3,1.0,0.0,326.0,959.0,0.0,0,275.0,1
1256,1256,-0.5625037317056609,-0.6,0.0,1.0,309.0,542.0,1.0,0,289.0,1
1257,1257,0.4253687884639171,0.4,1.0,1.0,283.0,661.0,1.0,1,216.0,1
1258,1258,-0.07729625827474773,-0.1,0.0,1.0,295.0,999.0,1.0,0,566.0,1
1259,1259,-0.7096084710024629,-0.7,0.0,1.0,300.0,780.0,1.0,0,200.0,1
1260,1260,0.8276874321471245,0.8,1.0,1.0,325.0,595.0,1.0,1,330.0,1
1261,1261,-0.4024584439921805,-0.4,0.0,1.0,399.0,660.0,1.0,0,301.0,1
1262,1262,0.03063548448307296,0.0,0.0,0.0,411.0,946.0,0.0,1,953.0,1
1263,1263,0.5973312010361579,0.6,1.0,1.0,304.0,572.0,1.0,1,424.0,1
1264,1264,-0.17148001650620592,-0.2,1.0,0.0,356.0,563.0,0.0,0,511.0,1
1265,1265,0.3307860102578529,0.3,0.0,0.0,398.0,841.0,0.0,1,241.0,1
1266,1266,-0.3993977849361203,-0.4,1.0,0.0,420.0,755.0,0.0,0,215.0,1
1267,1267,-0.562567779173523,-0.6,1.0,0.0,299.0,956.0,0.0,0,155.0,1
1268,1268,-0.06563268024113389,-0.1,1.0,0.0,498.0,743.0,0.0,0,729.0,1
1269,1269,-0.5067247022612049,-0.5,1.0,0.0,354.0,822.0,0.0,0,144.0,1
1270,1270,-0.801368934601945,-0.8,1.0,0.0,336.0,658.0,0.0,0,286.0,1
1271,1271,-0.044943120804954884,-0.0,1.0,0.0,482.0,979.0,1.0,1,89.0,0
1272,1272,-0.07289978534490671,-0.1,0.0,1.0,311.0,636.0,1.0,0,823.0,1
1273,1273,-0.31058316811981257,-0.3,1.0,0.0,330.0,881.0,0.0,0,249.0,1
1274,1274,-0.8179873795695805,-0.8,1.0,0.0,384.0,874.0,0.0,0,112.0,1
1275,1275,0.20699089579138652,0.2,0.0,0.0,414.0,673.0,0.0,1,313.0,1
1276,1276,-0.4943488663342977,-0.5,0.0,1.0,272.0,986.0,1.0,0,152.0,1
1277,1277,-0.8079617163251678,-0.8,0.0,1.0,413.0,969.0,1.0,0,208.0,1
1278,1278,-0.08161088457811627,-0.1,0.0,1.0,287.0,647.0,1.0,0,416.0,1
1279,1279,0.33015916662075895,0.3,0.0,0.0,432.0,971.0,0.0,1,317.0,1
1280,1280,-0.5583649777870336,-0.6,1.0,0.0,406.0,938.0,0.0,0,156.0,1
1281,1281,0.27109113897275516,0.3,0.0,0.0,251.0,851.0,0.0,1,378.0,1
1282,1282,-0.8971412554843358,-0.9,1.0,0.0,344.0,753.0,0.0,0,203.0,1
1283,1283,-0.7385826710026383,-0.7,0.0,1.0,337.0,757.0,1.0,0,226.0,1
1284,1284,0.6180470640784604,0.6,0.0,0.0,320.0,852.0,0.0,1,198.0,1
1285,1285,-0.584683940097761,-0.6,1.0,0.0,292.0,901.0,0.0,0,107.0,1
1286,1286,0.6600569880090915,0.7,1.0,1.0,262.0,914.0,1.0,1,234.0,1
1287,1287,0.1093213955100899,0.1,1.0,1.0,273.0,864.0,1.0,1,623.0,1
1288,1288,-0.18677627791648144,-0.2,1.0,0.0,331.0,541.0,0.0,0,468.0,1
1289,1289,-0.16078837216209818,-0.2,1.0,0.0,493.0,758.0,0.0,0,309.0,1
1290,1290,0.19965747361068364,0.2,1.0,1.0,251.0,512.0,1.0,1,777.0,1
1291,1291,-0.36018093282917485,-0.4,1.0,0.0,367.0,936.0,0.0,0,227.0,1
1292,1292,0.6908330028411854,0.7,0.0,0.0,301.0,508.0,0.0,1,351.0,1
1293,1293,-0.7708564038648946,-0.8,1.0,0.0,466.0,713.0,0.0,0,191.0,1
1294,1294,-0.7509174174641694,-0.8,0.0,1.0,396.0,608.0,1.0,0,576.0,1
1295,1295,-0.18746919604275758,-0.2,1.0,0.0,297.0,501.0,0.0,0,602.0,1
1296,1296,-0.3738701831970098,-0.4,0.0,1.0,388.0,672.0,1.0,0,340.0,1
1297,1297,0.37084376422740106,0.4,0.0,0.0,276.0,640.0,0.0,1,424.0,1
1298,1298,-0.12230173061170657,-0.1,1.0,0.0,330.0,609.0,0.0,0,581.0,1
1299,1299,0.233019535121744,0.2,0.0,0.0,397.0,961.0,0.0,1,842.0,1
1300,1300,0.47826532251090537,0.5,1.0,1.0,391.0,864.0,1.0,1,165.0,1
1301,1301,0.2815540720397326,0.3,1.0,1.0,469.0,894.0,1.0,1,127.0,1
1302,1302,-0.3014270748817869,-0.3,1.0,0.0,267.0,932.0,0.0,0,311.0,1
1303,1303,0.6188463201005602,0.6,1.0,1.0,326.0,632.0,1.0,1,222.0,1
1304,1304,-0.46327719068875084,-0.5,0.0,1.0,386.0,703.0,1.0,0,461.0,1
1305,1305,0.8941180816315207,0.9,0.0,0.0,282.0,980.0,0.0,1,198.0,1
1306,1306,-0.32208246348967473,-0.3,0.0,1.0,335.0,610.0,1.0,0,555.0,1
1307,1307,0.18910959904313185,0.2,0.0,0.0,307.0,829.0,0.0,1,204.0,1
1308,1308,-0.8403391487964528,-0.8,0.0,1.0,433.0,566.0,1.0,0,2001.0,1
1309,1309,-0.8166153362898575,-0.8,0.0,1.0,275.0,795.0,1.0,0,70.0,1
1310,1310,0.863590336067738,0.9,0.0,0.0,360.0,810.0,0.0,1,170.0,1
1311,1311,-0.1692118255372118,-0.2,1.0,0.0,371.0,968.0,0.0,0,191.0,1
1312,1312,0.375422832248811,0.4,1.0,1.0,277.0,842.0,1.0,1,231.0,1
1313,1313,-0.8409722973861411,-0.8,1.0,0.0,468.0,767.0,0.0,0,185.0,1
1314,1314,-0.5859017442055303,-0.6,0.0,1.0,253.0,992.0,1.0,0,195.0,1
1315,1315,-0.3022795727094961,-0.3,0.0,1.0,308.0,814.0,1.0,0,218.0,1
1316,1316,-0.8416278904179767,-0.8,0.0,1.0,301.0,571.0,1.0,0,308.0,1
1317,1317,0.8572867301013997,0.9,1.0,1.0,289.0,611.0,1.0,1,470.0,1
1318,1318,-0.8001188197158977,-0.8,0.0,1.0,267.0,691.0,1.0,0,312.0,1
1319,1319,0.5605813200994582,0.6,1.0,1.0,310.0,706.0,1.0,1,404.0,1
1320,1320,-0.024797663226981737,-0.0,1.0,0.0,257.0,870.0,1.0,1,313.0,0
1321,1321,0.780246150068049,0.8,1.0,1.0,294.0,712.0,1.0,1,234.0,1
1322,1322,0.12689180696456337,0.1,0.0,0.0,494.0,763.0,0.0,1,393.0,1
1323,1323,0.2019804184021331,0.2,1.0,1.0,458.0,500.0,1.0,1,352.0,1
1324,1324,-0.8209566573959047,-0.8,1.0,0.0,292.0,931.0,0.0,0,307.0,1
1325,1325,-0.1618078733625028,-0.2,0.0,1.0,267.0,501.0,1.0,0,272.0,1
1326,1326,0.23068816009789417,0.2,1.0,1.0,452.0,756.0,1.0,1,312.0,1
1327,1327,0.3485904430410053,0.3,1.0,1.0,288.0,942.0,1.0,1,140.0,1
1328,1328,0.5234824045189163,0.5,0.0,0.0,352.0,972.0,0.0,1,136.0,1
1329,1329,-0.01427330709775243,-0.0,0.0,1.0,373.0,871.0,1.0,0,1316.0,1
1330,1330,-0.015325824775136887,-0.0,0.0,1.0,299.0,788.0,1.0,0,643.0,1
1331,1331,0.4310550597493549,0.4,1.0,1.0,484.0,598.0,1.0,1,588.0,1
1332,1332,0.6445384747464881,0.6,0.0,0.0,425.0,840.0,0.0,1,155.0,1
1333,1333,-0.841255169858156,-0.8,1.0,0.0,351.0,777.0,0.0,0,232.0,1
1334,1334,0.5736317782786385,0.6,1.0,1.0,371.0,822.0,1.0,1,247.0,1
1335,1335,0.6031366188482964,0.6,0.0,0.0,455.0,547.0,0.0,1,158.0,1
1336,1336,-0.8823445837808354,-0.9,1.0,0.0,366.0,742.0,0.0,0,212.0,1
1337,1337,-0.8767363618871937,-0.9,1.0,0.0,372.0,726.0,0.0,0,202.0,1
1338,1338,-0.284437759828985,-0.3,0.0,1.0,436.0,713.0,1.0,0,291.0,1
1339,1339,0.09846818425339632,0.1,0.0,0.0,322.0,896.0,0.0,1,802.0,1
1340,1340,-0.5288762616177751,-0.5,0.0,1.0,481.0,778.0,1.0,0,321.0,1
1341,1341,-0.8093112203148928,-0.8,1.0,0.0,390.0,804.0,0.0,0,286.0,1
1342,1342,-0.5982135004374984,-0.6,1.0,0.0,421.0,910.0,0.0,0,129.0,1
1343,1343,-0.7637752026041007,-0.8,1.0,0.0,427.0,929.0,0.0,0,364.0,1
1344,1344,0.36617725163617443,0.4,1.0,1.0,426.0,592.0,1.0,1,472.0,1
1345,1345,-0.8886434842171329,-0.9,1.0,0.0,264.0,634.0,0.0,0,192.0,1
1346,1346,0.2865175966443835,0.3,1.0,1.0,483.0,798.0,1.0,1,339.0,1
1347,1347,0.27876191879380363,0.3,0.0,0.0,371.0,922.0,0.0,1,377.0,1
1348,1348,0.5501397131356173,0.6,0.0,0.0,331.0,553.0,0.0,1,316.0,1
1349,1349,0.8521763467693709,0.9,1.0,1.0,343.0,932.0,1.0,1,235.0,1
1350,1350,-0.7854730072438726,-0.8,0.0,1.0,429.0,820.0,1.0,0,421.0,1
1351,1351,-0.8656719195150061,-0.9,1.0,0.0,287.0,642.0,0.0,0,201.0,1
1352,1352,0.657684259445173,0.7,1.0,1.0,362.0,502.0,1.0,1,486.0,1
1353,1353,0.5476113091951708,0.5,1.0,1.0,263.0,997.0,1.0,1,100.0,1
1354,1354,-0.18843996537315633,-0.2,1.0,0.0,456.0,940.0,0.0,0,244.0,1
1355,1355,0.7372742878944386,0.7,0.0,0.0,372.0,894.0,0.0,1,174.0,1
1356,1356,-0.8740350824468516,-0.9,0.0,1.0,429.0,806.0,1.0,0,1765.0,1
1357,1357,-0.381451667837589,-0.4,0.0,1.0,466.0,607.0,1.0,0,327.0,1
1358,1358,0.8569824425566729,0.9,1.0,1.0,475.0,886.0,1.0,1,129.0,1
1359,1359,0.3315763303359823,0.3,0.0,0.0,419.0,859.0,0.0,1,302.0,1
1360,1360,0.5144667043743248,0.5,1.0,1.0,421.0,954.0,1.0,1,185.0,1
1361,1361,0.4648995117404394,0.5,0.0,0.0,332.0,899.0,0.0,1,299.0,1
1362,1362,0.6499646501235571,0.6,0.0,0.0,340.0,737.0,0.0,1,223.0,1
1363,1363,-0.537354380420073,-0.5,0.0,1.0,423.0,678.0,1.0,0,279.0,1
1364,1364,-0.8077860308828163,-0.8,0.0,1.0,453.0,861.0,1.0,0,166.0,1
1365,1365,0.5170989681600912,0.5,1.0,1.0,384.0,512.0,1.0,1,354.0,1
1366,1366,-0.12412937435715188,-0.1,0.0,1.0,341.0,836.0,1.0,0,233.0,1
1367,1367,-0.7633272631119973,-0.8,1.0,0.0,444.0,749.0,0.0,0,347.0,1
1368,1368,0.5447773932937626,0.5,1.0,1.0,262.0,765.0,1.0,1,183.0,1
1369,1369,0.8533922840067044,0.9,1.0,1.0,338.0,751.0,1.0,1,321.0,1
1370,1370,0.5712575186662953,0.6,0.0,0.0,428.0,938.0,0.0,1,184.0,1
1371,1371,0.8352482734232204,0.8,0.0,0.0,358.0,763.0,0.0,1,259.0,1
1372,1372,-0.7534858691188138,-0.8,1.0,0.0,321.0,846.0,0.0,0,223.0,1
1373,1373,0.4612832833089152,0.5,1.0,1.0,294.0,693.0,1.0,1,463.0,1
1374,1374,-0.720942158013651,-0.7,0.0,1.0,339.0,634.0,1.0,0,437.0,1
1375,1375,-0.8695426382221942,-0.9,0.0,1.0,298.0,693.0,1.0,0,379.0,1
1376,1376,-0.7044941961967558,-0.7,1.0,0.0,341.0,913.0,0.0,0,226.0,1
1377,1377,-0.8611505707418883,-0.9,1.0,0.0,397.0,656.0,0.0,0,177.0,1
1378,1378,0.5260357323899921,0.5,1.0,1.0,429.0,654.0,1.0,1,457.0,1
1379,1379,-0.25592061470987115,-0.3,1.0,0.0,338.0,897.0,0.0,0,165.0,1
1380,1380,-0.2874724072146042,-0.3,0.0,1.0,463.0,581.0,1.0,0,296.0,1
1381,1381,-0.6496786634207561,-0.6,0.0,1.0,256.0,500.0,1.0,0,344.0,1
1382,1382,-0.13868578070850512,-0.1,0.0,1.0,276.0,631.0,1.0,0,583.0,1
1383,1383,0.6419660123013323,0.6,0.0,0.0,438.0,887.0,0.0,1,175.0,1
1384,1384,0.7642188075048685,0.8,1.0,1.0,460.0,637.0,1.0,1,273.0,1
1385,1385,-0.25336010093585404,-0.3,0.0,1.0,283.0,631.0,1.0,0,416.0,1
1386,1386,-0.18695862734254354,-0.2,1.0,0.0,289.0,875.0,0.0,0,336.0,1
1387,1387,0.005540781751353974,0.0,0.0,0.0,363.0,784.0,1.0,0,1133.0,0
1388,1388,-0.2649776477375585,-0.3,0.0,1.0,312.0,703.0,1.0,0,815.0,1
1389,1389,0.37225787571044033,0.4,0.0,0.0,295.0,983.0,0.0,1,172.0,1
1390,1390,0.16624621282705754,0.2,1.0,1.0,306.0,788.0,1.0,1,446.0,1
1391,1391,-0.20745870781064546,-0.2,1.0,0.0,320.0,636.0,0.0,0,504.0,1
1392,1392,0.4751293194467866,0.5,0.0,0.0,471.0,903.0,0.0,1,156.0,1
1393,1393,-0.8182229290530754,-0.8,0.0,1.0,491.0,900.0,1.0,0,189.0,1
1394,1394,0.09738731389579325,0.1,0.0,0.0,253.0,553.0,0.0,1,874.0,1
1395,1395,-0.2702435783112249,-0.3,1.0,0.0,261.0,556.0,0.0,0,373.0,1
1396,1396,0.05400082110310234,0.1,0.0,0.0,421.0,748.0,0.0,1,341.0,1
1397,1397,-0.04975559759013681,-0.0,1.0,0.0,451.0,928.0,1.0,1,621.0,0
1398,1398,0.28607211978236935,0.3,1.0,1.0,442.0,905.0,1.0,1,253.0,1
1399,1399,-0.7915202728878946,-0.8,1.0,0.0,437.0,905.0,0.0,0,88.0,1
1400,1400,-0.6447916791560906,-0.6,0.0,1.0,250.0,628.0,1.0,0,312.0,1
1401,1401,-0.7716657399171396,-0.8,0.0,1.0,379.0,781.0,1.0,0,80.0,1
1402,1402,-0.1550654546946748,-0.2,0.0,1.0,358.0,920.0,1.0,0,252.0,1
1403,1403,-0.36358847752290024,-0.4,0.0,1.0,483.0,858.0,1.0,0,129.0,1
1404,1404,0.8466713841711869,0.8,1.0,1.0,343.0,536.0,1.0,1,481.0,1
1405,1405,0.09830007839476196,0.1,0.0,0.0,371.0,754.0,0.0,1,425.0,1
1406,1406,0.07984669365524655,0.1,1.0,1.0,302.0,748.0,1.0,1,480.0,1
1407,1407,0.1854127367784265,0.2,1.0,1.0,455.0,869.0,1.0,1,306.0,1
1408,1408,0.29977046536829166,0.3,1.0,1.0,365.0,733.0,1.0,1,252.0,1
1409,1409,0.5074240378747689,0.5,0.0,0.0,280.0,626.0,0.0,1,404.0,1
1410,1410,-0.8037922794755747,-0.8,1.0,0.0,320.0,611.0,0.0,0,289.0,1
1411,1411,-0.5456427208150942,-0.5,0.0,1.0,309.0,768.0,1.0,0,343.0,1
1412,1412,-0.4493106656880262,-0.4,0.0,1.0,291.0,785.0,1.0,0,234.0,1
1413,1413,0.16636958652191447,0.2,0.0,0.0,464.0,974.0,0.0,1,402.0,1
1414,1414,0.031672020647745214,0.0,1.0,1.0,406.0,949.0,1.0,1,1645.0,1
1415,1415,-0.5568668044107781,-0.6,0.0,1.0,309.0,759.0,1.0,0,232.0,1
1416,1416,0.6084974579785795,0.6,0.0,0.0,275.0,510.0,0.0,1,235.0,1
1417,1417,-0.02555276770573034,-0.0,1.0,0.0,407.0,608.0,1.0,1,975.0,0
1418,1418,-0.4363914958895916,-0.4,1.0,0.0,319.0,582.0,0.0,0,169.0,1
1419,1419,0.2895099839264258,0.3,0.0,0.0,370.0,924.0,0.0,1,346.0,1
1420,1420,-0.6061106280563864,-0.6,1.0,0.0,458.0,902.0,0.0,0,180.0,1
1421,1421,0.24777526195885147,0.2,1.0,1.0,262.0,505.0,1.0,1,493.0,1
1422,1422,0.4973642143641447,0.5,1.0,1.0,322.0,644.0,1.0,1,494.0,1
1423,1423,-0.2542368165314999,-0.3,1.0,0.0,494.0,682.0,0.0,0,364.0,1
1424,1424,-0.8377814017735545,-0.8,0.0,1.0,327.0,972.0,1.0,0,91.0,1
1425,1425,-0.8791877065056919,-0.9,1.0,0.0,437.0,958.0,0.0,0,275.0,1
1426,1426,-0.4714168823536264,-0.5,1.0,0.0,324.0,922.0,0.0,0,94.0,1
1427,1427,0.6531883953085352,0.7,0.0,0.0,481.0,922.0,0.0,1,147.0,1
1428,1428,-0.7108300394144037,-0.7,0.0,1.0,499.0,696.0,1.0,0,245.0,1
1429,1429,-0.7606271275120767,-0.8,1.0,0.0,367.0,602.0,0.0,0,251.0,1
1430,1430,-0.03780865556268198,-0.0,1.0,0.0,486.0,647.0,0.0,0,607.0,1
1431,1431,0.8007439864075548,0.8,1.0,1.0,438.0,501.0,1.0,1,591.0,1
1432,1432,0.6653966711422125,0.7,1.0,1.0,380.0,509.0,1.0,1,261.0,1
1433,1433,0.3832157669755992,0.4,1.0,1.0,494.0,682.0,1.0,1,274.0,1
1434,1434,-0.8527232454493046,-0.9,1.0,0.0,473.0,942.0,0.0,0,105.0,1
1435,1435,-0.8362269444166991,-0.8,0.0,1.0,467.0,534.0,1.0,0,299.0,1
1436,1436,-0.19964716581993158,-0.2,0.0,1.0,287.0,787.0,1.0,0,356.0,1
1437,1437,-0.6104523053845039,-0.6,0.0,1.0,372.0,529.0,1.0,0,309.0,1
1438,1438,-0.46876585748765454,-0.5,0.0,1.0,409.0,818.0,1.0,0,203.0,1
1439,1439,-0.2097877590632169,-0.2,0.0,1.0,328.0,964.0,1.0,0,308.0,1
1440,1440,0.4866909551588129,0.5,0.0,0.0,452.0,680.0,0.0,1,258.0,1
1441,1441,-0.3385856012634919,-0.3,0.0,1.0,375.0,682.0,1.0,0,343.0,1
1442,1442,-0.26989051459695534,-0.3,0.0,1.0,471.0,577.0,1.0,0,292.0,1
1443,1443,0.14912301652402016,0.1,0.0,0.0,473.0,516.0,0.0,1,671.0,1
1444,1444,-0.39511792282124736,-0.4,0.0,1.0,254.0,662.0,1.0,0,264.0,1
1445,1445,-0.6801464509413044,-0.7,0.0,1.0,337.0,669.0,1.0,0,184.0,1
1446,1446,-0.7284648769434152,-0.7,1.0,0.0,337.0,658.0,0.0,0,215.0,1
1447,1447,-0.8999696510366552,-0.9,1.0,0.0,310.0,511.0,0.0,0,229.0,1
1448,1448,0.3449426330038484,0.3,1.0,1.0,431.0,813.0,1.0,1,286.0,1
1449,1449,0.6202871650914598,0.6,0.0,0.0,461.0,770.0,0.0,1,129.0,1
1450,1450,0.8544998456279534,0.9,1.0,1.0,471.0,516.0,1.0,1,443.0,1
1451,1451,-0.030215944966506925,-0.0,0.0,1.0,273.0,624.0,1.0,0,513.0,1
1452,1452,-0.05464039927999076,-0.1,1.0,0.0,255.0,893.0,0.0,0,642.0,1
1453,1453,-0.7968345777582888,-0.8,0.0,1.0,478.0,536.0,1.0,0,516.0,1
1454,1454,0.4923522875467262,0.5,1.0,1.0,395.0,839.0,1.0,1,216.0,1
1455,1455,0.24434535451143435,0.2,0.0,0.0,363.0,548.0,0.0,1,579.0,1
1456,1456,-0.14898341332406195,-0.1,1.0,0.0,303.0,923.0,0.0,0,444.0,1
1457,1457,0.48939187035049125,0.5,0.0,0.0,351.0,675.0,0.0,1,344.0,1
1458,1458,-0.7948729727096132,-0.8,1.0,0.0,409.0,781.0,0.0,0,240.0,1
1459,1459,0.6165121699579402,0.6,1.0,1.0,449.0,740.0,1.0,1,361.0,1
1460,1460,0.5337321936469065,0.5,1.0,1.0,440.0,713.0,1.0,1,357.0,1
1461,1461,-0.732443652834532,-0.7,1.0,0.0,494.0,526.0,0.0,0,350.0,1
1462,1462,0.5289926188883872,0.5,0.0,0.0,314.0,953.0,0.0,1,153.0,1
1463,1463,-0.3006801892222517,-0.3,0.0,1.0,458.0,527.0,1.0,0,585.0,1
1464,1464,-0.3379049921310382,-0.3,1.0,0.0,393.0,658.0,0.0,0,279.0,1
1465,1465,0.4381065011852715,0.4,1.0,1.0,344.0,536.0,1.0,1,640.0,1
1466,1466,0.23409842833283057,0.2,0.0,0.0,345.0,533.0,0.0,1,402.0,1
1467,1467,0.39109658781448975,0.4,0.0,0.0,280.0,675.0,0.0,1,375.0,1
1468,1468,0.6408875763676726,0.6,0.0,0.0,460.0,540.0,0.0,1,350.0,1
1469,1469,-0.03815421662206964,-0.0,1.0,0.0,354.0,820.0,0.0,0,946.0,1
1470,1470,0.8172580807470738,0.8,1.0,1.0,301.0,920.0,1.0,1,119.0,1
1471,1471,0.15675228379772166,0.2,1.0,1.0,377.0,861.0,1.0,1,342.0,1
1472,1472,-0.5373445333742339,-0.5,0.0,1.0,361.0,697.0,1.0,0,292.0,1
1473,1473,-0.2091671637356063,-0.2,1.0,0.0,380.0,672.0,0.0,0,318.0,1
1474,1474,-0.5186096689236837,-0.5,1.0,0.0,454.0,712.0,0.0,0,204.0,1
1475,1475,0.35235343884069514,0.4,1.0,1.0,274.0,781.0,1.0,1,195.0,1
1476,1476,0.30573037934836245,0.3,1.0,1.0,463.0,701.0,1.0,1,416.0,1
1477,1477,-0.5819514708384923,-0.6,0.0,1.0,309.0,988.0,1.0,0,83.0,1
1478,1478,0.22494238473673966,0.2,1.0,1.0,316.0,835.0,1.0,1,259.0,1
1479,1479,-0.15588132451714298,-0.2,0.0,1.0,376.0,547.0,1.0,0,747.0,1
1480,1480,-0.8523821407415091,-0.9,0.0,1.0,332.0,611.0,1.0,0,397.0,1
1481,1481,0.21106985052419425,0.2,0.0,0.0,304.0,517.0,0.0,1,549.0,1
1482,1482,0.21863472650316307,0.2,1.0,1.0,322.0,965.0,1.0,1,163.0,1
1483,1483,-0.8359165923464473,-0.8,0.0,1.0,473.0,864.0,1.0,0,103.0,1
1484,1484,0.19828470011831534,0.2,0.0,0.0,292.0,828.0,0.0,1,490.0,1
1485,1485,-0.6210034717462893,-0.6,0.0,1.0,426.0,576.0,1.0,0,538.0,1
1486,1486,0.6256525799519063,0.6,1.0,1.0,344.0,666.0,1.0,1,330.0,1
1487,1487,0.5021372125688733,0.5,0.0,0.0,352.0,526.0,0.0,1,382.0,1
1488,1488,-0.5932911815625925,-0.6,0.0,1.0,297.0,802.0,1.0,0,171.0,1
1489,1489,-0.8536317551774266,-0.9,0.0,1.0,360.0,975.0,1.0,0,65.0,1
1490,1490,0.6936512811592322,0.7,0.0,0.0,433.0,518.0,0.0,1,379.0,1
1491,1491,0.18813574750824824,0.2,1.0,1.0,322.0,805.0,1.0,1,423.0,1
1492,1492,0.35660551149372466,0.4,0.0,0.0,304.0,841.0,0.0,1,165.0,1
1493,1493,-0.31946759057644847,-0.3,1.0,0.0,400.0,995.0,0.0,0,145.0,1
