,trial,coherence,coherence_bin,green_side,correct_side,target_onset,checker_onset,decision,green_decision,decision_time,correct_decision
0,0,-0.13714960902268947,-0.1,1.0,0.0,438.0,703.0,0.0,0,449.0,1
1,1,0.04476107799800211,0.0,0.0,0.0,303.0,579.0,0.0,1,2118.0,1
2,2,0.04546064693925045,0.0,1.0,1.0,492.0,769.0,1.0,1,1739.0,1
3,3,0.5371716258085119,0.5,1.0,1.0,311.0,887.0,1.0,1,212.0,1
4,4,-0.48637300427970825,-0.5,1.0,0.0,390.0,872.0,0.0,0,198.0,1
5,5,0.8031024667280123,0.8,0.0,0.0,360.0,902.0,0.0,1,158.0,1
6,6,0.019753871162863312,0.0,0.0,0.0,423.0,521.0,1.0,0,2056.0,0
7,7,0.22252448876024788,0.2,0.0,0.0,330.0,954.0,0.0,1,596.0,1
8,8,0.3268660852194861,0.3,1.0,1.0,442.0,525.0,1.0,1,313.0,1
9,9,-0.7184811592509773,-0.7,1.0,0.0,394.0,856.0,0.0,0,240.0,1
10,10,0.4910039922502146,0.5,0.0,0.0,329.0,629.0,0.0,1,412.0,1
11,11,0.12049947120658644,0.1,1.0,1.0,331.0,696.0,1.0,1,373.0,1
12,12,-0.5995119822826731,-0.6,0.0,1.0,328.0,832.0,1.0,0,200.0,1
13,13,-0.39738817873079324,-0.4,1.0,0.0,303.0,751.0,0.0,0,226.0,1
14,14,-0.6945747806084343,-0.7,1.0,0.0,294.0,578.0,0.0,0,318.0,1
15,15,-0.35006411678310057,-0.4,1.0,0.0,356.0,980.0,0.0,0,224.0,1
16,16,-0.3176424543137166,-0.3,1.0,0.0,335.0,725.0,0.0,0,300.0,1
17,17,0.6742251605955875,0.7,1.0,1.0,397.0,625.0,1.0,1,198.0,1
18,18,-0.6781286102345768,-0.7,1.0,0.0,254.0,804.0,0.0,0,292.0,1
19,19,0.6295310448940034,0.6,1.0,1.0,269.0,570.0,1.0,1,151.0,1
20,20,-0.35357939265076954,-0.4,1.0,0.0,339.0,828.0,0.0,0,453.0,1
21,21,0.6127736417996107,0.6,1.0,1.0,435.0,769.0,1.0,1,146.0,1
22,22,-0.34200476009014613,-0.3,0.0,1.0,484.0,674.0,1.0,0,152.0,1
23,23,0.6359995837442217,0.6,0.0,0.0,435.0,647.0,0.0,1,228.0,1
24,24,0.7186442444470099,0.7,0.0,0.0,295.0,765.0,0.0,1,190.0,1
25,25,0.6382039002942609,0.6,0.0,0.0,396.0,581.0,0.0,1,483.0,1
26,26,0.22544172958919206,0.2,1.0,1.0,405.0,846.0,1.0,1,359.0,1
27,27,0.5691470236740831,0.6,0.0,0.0,273.0,938.0,0.0,1,199.0,1
28,28,-0.7218897870449175,-0.7,0.0,1.0,388.0,960.0,1.0,0,362.0,1
29,29,0.5595349563472493,0.6,1.0,1.0,382.0,519.0,1.0,1,319.0,1
30,30,0.5681432111713259,0.6,1.0,1.0,343.0,645.0,1.0,1,192.0,1
31,31,-0.6811814341799636,-0.7,1.0,0.0,406.0,950.0,0.0,0,234.0,1
32,32,0.6512830206814592,0.7,1.0,1.0,440.0,958.0,1.0,1,242.0,1
33,33,-0.4204122012393488,-0.4,1.0,0.0,350.0,657.0,0.0,0,303.0,1
34,34,0.2171045534480921,0.2,0.0,0.0,285.0,904.0,0.0,1,311.0,1
35,35,0.21432680432967477,0.2,0.0,0.0,283.0,546.0,0.0,1,1281.0,1
36,36,0.17830276664423017,0.2,0.0,0.0,341.0,794.0,0.0,1,325.0,1
37,37,-0.25195356171691874,-0.3,0.0,1.0,378.0,529.0,1.0,0,483.0,1
38,38,0.5637138805877019,0.6,0.0,0.0,391.0,598.0,0.0,1,331.0,1
39,39,0.12654664693884,0.1,1.0,1.0,259.0,867.0,1.0,1,294.0,1
40,40,0.47138084805231617,0.5,0.0,0.0,444.0,649.0,0.0,1,407.0,1
41,41,-0.03834563042109451,-0.0,1.0,0.0,401.0,857.0,0.0,0,1742.0,1
42,42,0.8901351674305807,0.9,1.0,1.0,463.0,991.0,1.0,1,146.0,1
43,43,0.21666380343432345,0.2,0.0,0.0,367.0,765.0,0.0,1,938.0,1
44,44,-0.04115396327557652,-0.0,0.0,1.0,455.0,887.0,1.0,0,1658.0,1
45,45,-0.6151447206670371,-0.6,1.0,0.0,399.0,531.0,0.0,0,240.0,1
46,46,0.657709300790006,0.7,1.0,1.0,365.0,830.0,1.0,1,255.0,1
47,47,0.07302839499549496,0.1,0.0,0.0,416.0,567.0,0.0,1,1427.0,1
48,48,0.6633232584684022,0.7,0.0,0.0,395.0,879.0,0.0,1,96.0,1
49,49,0.3108454278968201,0.3,0.0,0.0,424.0,809.0,0.0,1,287.0,1
50,50,-0.8322494099550387,-0.8,1.0,0.0,410.0,596.0,0.0,0,344.0,1
51,51,-0.46635651783302373,-0.5,0.0,1.0,348.0,677.0,1.0,0,245.0,1
52,52,-0.7014992283621727,-0.7,0.0,1.0,354.0,634.0,1.0,0,162.0,1
53,53,-0.816421484930667,-0.8,0.0,1.0,268.0,509.0,1.0,0,353.0,1
54,54,0.2614461637946387,0.3,1.0,1.0,492.0,729.0,1.0,1,419.0,1
55,55,-0.20619474971209395,-0.2,0.0,1.0,433.0,620.0,1.0,0,487.0,1
56,56,-0.252385751620979,-0.3,0.0,1.0,406.0,629.0,1.0,0,535.0,1
57,57,0.6926475184539732,0.7,1.0,1.0,402.0,941.0,1.0,1,157.0,1
58,58,0.5716910705214896,0.6,1.0,1.0,318.0,809.0,1.0,1,243.0,1
59,59,-0.40344809914855256,-0.4,1.0,0.0,294.0,935.0,0.0,0,441.0,1
60,60,-0.03353469953585131,-0.0,0.0,1.0,387.0,952.0,1.0,0,171.0,1
61,61,-0.06499617808977443,-0.1,0.0,1.0,260.0,842.0,1.0,0,618.0,1
62,62,0.8310768318916967,0.8,0.0,0.0,254.0,553.0,0.0,1,313.0,1
63,63,0.1507512035821198,0.2,0.0,0.0,375.0,820.0,0.0,1,335.0,1
64,64,0.2444947738488451,0.2,0.0,0.0,446.0,649.0,0.0,1,685.0,1
65,65,-0.184038961610285,-0.2,0.0,1.0,405.0,786.0,1.0,0,149.0,1
66,66,-0.11009244798285023,-0.1,0.0,1.0,430.0,672.0,1.0,0,328.0,1
67,67,0.6449305490459954,0.6,1.0,1.0,280.0,920.0,1.0,1,80.0,1
68,68,-0.3898575537984108,-0.4,0.0,1.0,328.0,709.0,1.0,0,183.0,1
69,69,-0.6684214184160535,-0.7,1.0,0.0,381.0,817.0,0.0,0,312.0,1
70,70,0.6248343361178615,0.6,0.0,0.0,262.0,868.0,0.0,1,160.0,1
71,71,-0.5629709101429463,-0.6,1.0,0.0,347.0,701.0,0.0,0,252.0,1
72,72,-0.0637801746502582,-0.1,0.0,1.0,397.0,854.0,1.0,0,419.0,1
73,73,-0.6544614095713841,-0.7,0.0,1.0,406.0,579.0,1.0,0,305.0,1
74,74,-0.6876643771912015,-0.7,1.0,0.0,270.0,656.0,0.0,0,334.0,1
75,75,0.8555212868895453,0.9,1.0,1.0,309.0,574.0,1.0,1,287.0,1
76,76,-0.122882750148257,-0.1,1.0,0.0,444.0,832.0,0.0,0,414.0,1
77,77,0.8775392748336664,0.9,1.0,1.0,384.0,994.0,1.0,1,192.0,1
78,78,0.6758759625646843,0.7,1.0,1.0,329.0,706.0,1.0,1,125.0,1
79,79,-0.5552526277346153,-0.6,0.0,1.0,300.0,819.0,1.0,0,171.0,1
80,80,0.2694437261860393,0.3,0.0,0.0,337.0,686.0,0.0,1,377.0,1
81,81,0.2947875479939178,0.3,0.0,0.0,422.0,904.0,0.0,1,294.0,1
82,82,0.7196791514744668,0.7,1.0,1.0,403.0,923.0,1.0,1,224.0,1
83,83,-0.47233031741267595,-0.5,1.0,0.0,428.0,601.0,0.0,0,371.0,1
84,84,0.17298774605899248,0.2,1.0,1.0,414.0,837.0,1.0,1,339.0,1
85,85,0.8339965330116325,0.8,0.0,0.0,380.0,991.0,0.0,1,119.0,1
86,86,-0.48090022625997114,-0.5,1.0,0.0,309.0,642.0,0.0,0,219.0,1
87,87,-0.2828160481514804,-0.3,1.0,0.0,260.0,652.0,0.0,0,278.0,1
88,88,-0.7036236884066773,-0.7,0.0,1.0,484.0,950.0,1.0,0,146.0,1
89,89,0.5737032078048042,0.6,0.0,0.0,475.0,877.0,0.0,1,138.0,1
90,90,-0.19356694218592918,-0.2,1.0,0.0,284.0,987.0,0.0,0,309.0,1
91,91,-0.36933961346952293,-0.4,1.0,0.0,431.0,591.0,0.0,0,258.0,1
92,92,0.718651981102106,0.7,1.0,1.0,472.0,917.0,1.0,1,101.0,1
93,93,-0.18128787263284474,-0.2,1.0,0.0,303.0,934.0,0.0,0,803.0,1
94,94,0.5881613641418736,0.6,1.0,1.0,349.0,617.0,1.0,1,194.0,1
95,95,0.34901598476829,0.3,1.0,1.0,436.0,807.0,1.0,1,257.0,1
96,96,0.45237692435490995,0.5,1.0,1.0,401.0,515.0,1.0,1,254.0,1
97,97,0.7903713307197905,0.8,0.0,0.0,466.0,637.0,0.0,1,277.0,1
98,98,-0.4557832753083998,-0.5,1.0,0.0,458.0,645.0,0.0,0,187.0,1
99,99,-0.30681090476377804,-0.3,0.0,1.0,322.0,896.0,1.0,0,172.0,1
100,100,0.6109885869236126,0.6,0.0,0.0,336.0,528.0,0.0,1,576.0,1
101,101,-0.10705935229085106,-0.1,0.0,1.0,348.0,978.0,1.0,0,1414.0,1
102,102,-0.23019083723717637,-0.2,1.0,0.0,489.0,760.0,0.0,0,341.0,1
103,103,0.3170565227581744,0.3,1.0,1.0,424.0,957.0,1.0,1,149.0,1
104,104,-0.06440140314639409,-0.1,1.0,0.0,438.0,928.0,0.0,0,1634.0,1
105,105,-0.8478599883866433,-0.8,1.0,0.0,494.0,576.0,0.0,0,300.0,1
106,106,-0.2018818338952667,-0.2,0.0,1.0,339.0,535.0,1.0,0,406.0,1
107,107,-0.242014920879575,-0.2,1.0,0.0,428.0,678.0,0.0,0,264.0,1
108,108,0.6842951180806859,0.7,0.0,0.0,449.0,693.0,0.0,1,428.0,1
109,109,0.1264934919760038,0.1,0.0,0.0,282.0,900.0,0.0,1,298.0,1
110,110,-0.6394561444160622,-0.6,0.0,1.0,464.0,721.0,1.0,0,245.0,1
111,111,-0.8932013274282503,-0.9,1.0,0.0,353.0,610.0,0.0,0,337.0,1
112,112,-0.6286248247573625,-0.6,1.0,0.0,253.0,883.0,0.0,0,214.0,1
113,113,-0.8100344992582597,-0.8,1.0,0.0,387.0,673.0,0.0,0,260.0,1
114,114,-0.3610999149694255,-0.4,1.0,0.0,280.0,681.0,0.0,0,419.0,1
115,115,0.1000965085555795,0.1,1.0,1.0,312.0,725.0,1.0,1,453.0,1
116,116,-0.2510995514459662,-0.3,0.0,1.0,296.0,529.0,1.0,0,475.0,1
117,117,0.7625796736807268,0.8,0.0,0.0,442.0,638.0,0.0,1,280.0,1
118,118,0.06960905974835285,0.1,1.0,1.0,481.0,704.0,1.0,1,455.0,1
119,119,-0.1038646651504247,-0.1,0.0,1.0,294.0,584.0,1.0,0,582.0,1
120,120,0.6647260277363981,0.7,0.0,0.0,252.0,674.0,0.0,1,284.0,1
121,121,-0.40246233261711656,-0.4,1.0,0.0,461.0,634.0,0.0,0,305.0,1
122,122,0.34807525038499454,0.3,1.0,1.0,308.0,632.0,1.0,1,270.0,1
123,123,-0.4828625942429625,-0.5,0.0,1.0,371.0,998.0,1.0,0,71.0,1
124,124,0.3182355620768321,0.3,1.0,1.0,298.0,511.0,1.0,1,361.0,1
125,125,-0.28389216620532765,-0.3,0.0,1.0,345.0,551.0,1.0,0,414.0,1
126,126,0.3331601666630227,0.3,1.0,1.0,414.0,971.0,1.0,1,175.0,1
127,127,0.7878349953650202,0.8,0.0,0.0,482.0,769.0,0.0,1,389.0,1
128,128,0.8723098862703237,0.9,0.0,0.0,441.0,772.0,0.0,1,337.0,1
129,129,-0.08537340556875328,-0.1,0.0,1.0,274.0,964.0,1.0,0,422.0,1
130,130,0.47129935761861697,0.5,1.0,1.0,262.0,763.0,1.0,1,235.0,1
131,131,-0.3042642603977117,-0.3,0.0,1.0,271.0,725.0,1.0,0,364.0,1
132,132,0.7582733034361603,0.8,0.0,0.0,299.0,602.0,0.0,1,409.0,1
133,133,-0.04600904680831208,-0.0,1.0,0.0,262.0,597.0,0.0,0,1431.0,1
134,134,0.4025547636392365,0.4,1.0,1.0,468.0,574.0,1.0,1,348.0,1
135,135,0.4350670995060174,0.4,0.0,0.0,425.0,839.0,0.0,1,406.0,1
136,136,0.45018871795983195,0.5,1.0,1.0,401.0,914.0,1.0,1,205.0,1
137,137,0.31364203377715116,0.3,1.0,1.0,444.0,747.0,1.0,1,289.0,1
138,138,0.3916627458944074,0.4,1.0,1.0,354.0,931.0,1.0,1,265.0,1
139,139,0.08613375031444825,0.1,0.0,0.0,490.0,703.0,0.0,1,647.0,1
140,140,0.5005340387872391,0.5,1.0,1.0,427.0,732.0,1.0,1,301.0,1
141,141,0.0579218930369817,0.1,0.0,0.0,388.0,784.0,0.0,1,648.0,1
142,142,0.4869123711599769,0.5,1.0,1.0,475.0,928.0,1.0,1,477.0,1
143,143,-0.21973563185812706,-0.2,0.0,1.0,380.0,585.0,1.0,0,325.0,1
144,144,-0.40249615779892206,-0.4,0.0,1.0,345.0,667.0,1.0,0,238.0,1
145,145,-0.34126004422920175,-0.3,0.0,1.0,485.0,950.0,1.0,0,195.0,1
146,146,0.13531659737391044,0.1,0.0,0.0,428.0,771.0,0.0,1,261.0,1
147,147,0.4483422738258128,0.4,1.0,1.0,394.0,976.0,1.0,1,180.0,1
148,148,-0.25872795566594553,-0.3,0.0,1.0,298.0,956.0,1.0,0,276.0,1
149,149,0.4252504035595207,0.4,0.0,0.0,472.0,942.0,0.0,1,236.0,1
150,150,0.1240415934184248,0.1,1.0,1.0,403.0,749.0,1.0,1,258.0,1
151,151,0.8470423132029875,0.8,0.0,0.0,266.0,695.0,0.0,1,229.0,1
152,152,0.8847266245551225,0.9,0.0,0.0,250.0,703.0,0.0,1,407.0,1
153,153,-0.010764001283531832,-0.0,0.0,1.0,297.0,834.0,1.0,0,949.0,1
154,154,0.4145837395564428,0.4,1.0,1.0,255.0,613.0,1.0,1,252.0,1
155,155,0.722670865140245,0.7,1.0,1.0,270.0,800.0,1.0,1,320.0,1
156,156,0.36166298708091593,0.4,0.0,0.0,310.0,690.0,0.0,1,450.0,1
157,157,-0.600512444453501,-0.6,1.0,0.0,439.0,767.0,0.0,0,214.0,1
158,158,0.8491067195694085,0.8,1.0,1.0,364.0,997.0,1.0,1,39.0,1
159,159,-0.0241573556391369,-0.0,1.0,0.0,330.0,892.0,0.0,0,448.0,1
160,160,0.3514754204020937,0.4,1.0,1.0,282.0,778.0,1.0,1,310.0,1
161,161,-0.5044560002587712,-0.5,0.0,1.0,382.0,607.0,1.0,0,301.0,1
162,162,-0.6203256213140216,-0.6,0.0,1.0,491.0,638.0,1.0,0,171.0,1
163,163,-0.641621407107646,-0.6,1.0,0.0,469.0,682.0,0.0,0,289.0,1
164,164,0.5040333669137002,0.5,1.0,1.0,463.0,813.0,1.0,1,214.0,1
165,165,-0.06345395930601427,-0.1,1.0,0.0,263.0,982.0,0.0,0,1485.0,1
166,166,0.28124312590905165,0.3,1.0,1.0,333.0,725.0,1.0,1,292.0,1
167,167,0.6260858272364799,0.6,1.0,1.0,491.0,704.0,1.0,1,235.0,1
168,168,0.23785093305856198,0.2,1.0,1.0,261.0,911.0,1.0,1,98.0,1
169,169,-0.014792061000952095,-0.0,1.0,0.0,494.0,607.0,1.0,1,1899.0,0
170,170,-0.844673778620771,-0.8,1.0,0.0,339.0,744.0,0.0,0,167.0,1
171,171,-0.5692809180793217,-0.6,0.0,1.0,314.0,549.0,1.0,0,287.0,1
172,172,0.8289985195105413,0.8,0.0,0.0,454.0,866.0,0.0,1,270.0,1
173,173,-0.007664707461836784,-0.0,1.0,0.0,494.0,943.0,1.0,1,1563.0,0
174,174,0.6930471630967793,0.7,0.0,0.0,498.0,769.0,0.0,1,153.0,1
175,175,0.128846590594056,0.1,0.0,0.0,427.0,780.0,0.0,1,673.0,1
176,176,0.003992774720144254,0.0,0.0,0.0,425.0,781.0,1.0,0,1794.0,0
177,177,0.3309787323223733,0.3,1.0,1.0,317.0,928.0,1.0,1,125.0,1
178,178,0.6954671758128418,0.7,1.0,1.0,314.0,591.0,1.0,1,365.0,1
179,179,0.3292169029453508,0.3,0.0,0.0,323.0,900.0,0.0,1,387.0,1
180,180,-0.36051648080223975,-0.4,0.0,1.0,348.0,745.0,1.0,0,177.0,1
181,181,-0.41239578032253904,-0.4,0.0,1.0,484.0,980.0,1.0,0,196.0,1
182,182,0.6080445053750593,0.6,1.0,1.0,465.0,904.0,1.0,1,121.0,1
183,183,0.4482653544962095,0.4,0.0,0.0,305.0,937.0,0.0,1,208.0,1
184,184,0.7882450854093243,0.8,1.0,1.0,322.0,718.0,1.0,1,100.0,1
185,185,0.3039383141526192,0.3,0.0,0.0,280.0,771.0,0.0,1,359.0,1
186,186,-0.5183174618320775,-0.5,0.0,1.0,406.0,797.0,1.0,0,227.0,1
187,187,-0.18869587009078836,-0.2,1.0,0.0,365.0,661.0,0.0,0,274.0,1
188,188,-0.12423937670376095,-0.1,1.0,0.0,363.0,950.0,0.0,0,387.0,1
189,189,0.12102765075586219,0.1,1.0,1.0,431.0,845.0,1.0,1,234.0,1
190,190,-0.6263326425940496,-0.6,1.0,0.0,256.0,889.0,0.0,0,155.0,1
191,191,0.3998454152139922,0.4,0.0,0.0,319.0,845.0,0.0,1,226.0,1
192,192,0.4896503838535434,0.5,0.0,0.0,319.0,834.0,0.0,1,447.0,1
193,193,-0.19602072823417893,-0.2,0.0,1.0,426.0,515.0,1.0,0,369.0,1
194,194,0.4121668077797408,0.4,0.0,0.0,321.0,632.0,0.0,1,457.0,1
195,195,-0.1805317797778362,-0.2,0.0,1.0,467.0,793.0,1.0,0,320.0,1
196,196,0.22263849492339183,0.2,1.0,1.0,286.0,854.0,1.0,1,80.0,1
197,197,-0.8894236297831253,-0.9,0.0,1.0,422.0,682.0,1.0,0,136.0,1
198,198,0.2736788399864737,0.3,0.0,0.0,382.0,921.0,0.0,1,187.0,1
199,199,0.5968158806101022,0.6,0.0,0.0,423.0,842.0,0.0,1,375.0,1
200,200,0.7499961401675225,0.7,1.0,1.0,427.0,878.0,1.0,1,235.0,1
201,201,-0.40365406194139636,-0.4,1.0,0.0,348.0,593.0,0.0,0,249.0,1
202,202,-0.08244391962362363,-0.1,1.0,0.0,285.0,845.0,0.0,0,900.0,1
203,203,0.855678553969463,0.9,0.0,0.0,320.0,550.0,0.0,1,210.0,1
204,204,-0.29980038312530966,-0.3,1.0,0.0,411.0,598.0,0.0,0,481.0,1
205,205,-0.024419746624503746,-0.0,0.0,1.0,484.0,629.0,1.0,0,1887.0,1
206,206,-0.13447370259997327,-0.1,0.0,1.0,353.0,771.0,1.0,0,376.0,1
207,207,-0.3010988180015033,-0.3,1.0,0.0,439.0,710.0,0.0,0,311.0,1
208,208,0.187742879669467,0.2,0.0,0.0,257.0,755.0,0.0,1,308.0,1
209,209,0.6621715329259569,0.7,0.0,0.0,270.0,584.0,0.0,1,686.0,1
210,210,-0.2791090219722442,-0.3,1.0,0.0,264.0,801.0,0.0,0,275.0,1
211,211,-0.6129510998747958,-0.6,0.0,1.0,289.0,789.0,1.0,0,62.0,1
212,212,-0.25779894332549613,-0.3,0.0,1.0,252.0,857.0,1.0,0,461.0,1
213,213,0.7084948965881762,0.7,1.0,1.0,435.0,627.0,1.0,1,448.0,1
214,214,0.013276757660354521,0.0,1.0,1.0,286.0,657.0,1.0,1,677.0,1
215,215,-0.07284147388249662,-0.1,0.0,1.0,343.0,559.0,1.0,0,688.0,1
216,216,-0.6090781508706022,-0.6,1.0,0.0,450.0,691.0,0.0,0,269.0,1
217,217,0.7466703109882235,0.7,1.0,1.0,323.0,988.0,1.0,1,229.0,1
218,218,0.41275092764841614,0.4,1.0,1.0,301.0,716.0,1.0,1,483.0,1
219,219,-0.4551196904277671,-0.5,0.0,1.0,290.0,596.0,1.0,0,254.0,1
220,220,0.09251201364941253,0.1,1.0,1.0,351.0,506.0,1.0,1,593.0,1
221,221,-0.6775349345661669,-0.7,1.0,0.0,467.0,843.0,0.0,0,120.0,1
222,222,-0.023005046912573435,-0.0,0.0,1.0,257.0,538.0,1.0,0,2205.0,1
223,223,-0.800094909249297,-0.8,1.0,0.0,361.0,873.0,0.0,0,106.0,1
224,224,0.42138457425549347,0.4,1.0,1.0,279.0,729.0,1.0,1,162.0,1
225,225,-0.8319011371819456,-0.8,0.0,1.0,488.0,561.0,1.0,0,221.0,1
226,226,-0.4151134498773087,-0.4,1.0,0.0,440.0,968.0,0.0,0,182.0,1
227,227,-0.8438147313997212,-0.8,1.0,0.0,305.0,752.0,0.0,0,303.0,1
228,228,-0.12913301758738782,-0.1,1.0,0.0,401.0,787.0,0.0,0,992.0,1
229,229,0.8773322287458881,0.9,1.0,1.0,389.0,724.0,1.0,1,147.0,1
230,230,0.13389595520142017,0.1,0.0,0.0,433.0,738.0,0.0,1,599.0,1
231,231,-0.5722054998093398,-0.6,0.0,1.0,469.0,902.0,1.0,0,219.0,1
232,232,0.20325610967296026,0.2,1.0,1.0,446.0,813.0,1.0,1,441.0,1
233,233,-0.6234783196914547,-0.6,1.0,0.0,312.0,788.0,0.0,0,210.0,1
234,234,-0.832296595505027,-0.8,1.0,0.0,261.0,538.0,0.0,0,411.0,1
235,235,0.18520071878668054,0.2,1.0,1.0,395.0,700.0,1.0,1,125.0,1
236,236,-0.1232126603941942,-0.1,1.0,0.0,485.0,970.0,0.0,0,1275.0,1
237,237,0.3790204684613584,0.4,1.0,1.0,411.0,800.0,1.0,1,349.0,1
238,238,0.44385760042044675,0.4,0.0,0.0,280.0,788.0,0.0,1,192.0,1
239,239,0.13485307348810982,0.1,1.0,1.0,305.0,834.0,1.0,1,741.0,1
240,240,0.3383433488123143,0.3,1.0,1.0,385.0,692.0,1.0,1,233.0,1
241,241,0.08296276376175793,0.1,1.0,1.0,464.0,659.0,1.0,1,517.0,1
242,242,-0.17660250033576974,-0.2,0.0,1.0,272.0,961.0,1.0,0,247.0,1
243,243,0.07491607749281715,0.1,1.0,1.0,428.0,965.0,1.0,1,1607.0,1
244,244,0.3310820862403915,0.3,1.0,1.0,451.0,729.0,1.0,1,210.0,1
245,245,0.4986298735853051,0.5,1.0,1.0,443.0,899.0,1.0,1,288.0,1
246,246,-0.482351683567867,-0.5,1.0,0.0,359.0,787.0,0.0,0,134.0,1
247,247,-0.5641492477695329,-0.6,0.0,1.0,356.0,773.0,1.0,0,201.0,1
248,248,0.2171460947537197,0.2,0.0,0.0,291.0,908.0,0.0,1,221.0,1
249,249,0.1801624950093933,0.2,0.0,0.0,388.0,700.0,0.0,1,632.0,1
250,250,0.15958308600732585,0.2,1.0,1.0,260.0,628.0,1.0,1,532.0,1
251,251,-0.12321085926327091,-0.1,0.0,1.0,375.0,732.0,1.0,0,403.0,1
252,252,0.6289514875382486,0.6,0.0,0.0,311.0,976.0,0.0,1,243.0,1
253,253,-0.2944859747526539,-0.3,1.0,0.0,317.0,775.0,0.0,0,368.0,1
254,254,0.7545279207311942,0.8,1.0,1.0,424.0,577.0,1.0,1,239.0,1
255,255,0.44621047263371894,0.4,1.0,1.0,254.0,677.0,1.0,1,179.0,1
256,256,-0.345753517686462,-0.3,0.0,1.0,354.0,746.0,1.0,0,190.0,1
257,257,-0.004330564935304704,-0.0,1.0,0.0,481.0,968.0,0.0,0,1541.0,1
258,258,0.7019606119732417,0.7,1.0,1.0,270.0,575.0,1.0,1,185.0,1
259,259,-0.8600990999884086,-0.9,1.0,0.0,487.0,821.0,0.0,0,242.0,1
260,260,-0.5663827661751448,-0.6,0.0,1.0,277.0,738.0,1.0,0,75.0,1
261,261,0.44778376984415724,0.4,0.0,0.0,362.0,595.0,0.0,1,593.0,1
262,262,0.6681723715224747,0.7,1.0,1.0,342.0,763.0,1.0,1,175.0,1
263,263,0.3011320873048756,0.3,1.0,1.0,446.0,513.0,1.0,1,511.0,1
264,264,-0.5115528440619355,-0.5,1.0,0.0,418.0,727.0,0.0,0,295.0,1
265,265,0.07398073803137306,0.1,1.0,1.0,478.0,807.0,1.0,1,555.0,1
266,266,0.7734277766327465,0.8,1.0,1.0,485.0,973.0,1.0,1,72.0,1
267,267,0.8484528147685094,0.8,1.0,1.0,381.0,944.0,1.0,1,275.0,1
268,268,-0.2362723168171188,-0.2,1.0,0.0,312.0,904.0,0.0,0,414.0,1
269,269,-0.18889315455579303,-0.2,1.0,0.0,456.0,545.0,0.0,0,1159.0,1
270,270,-0.37746847685028073,-0.4,1.0,0.0,457.0,729.0,0.0,0,344.0,1
271,271,-0.12003605143622753,-0.1,1.0,0.0,260.0,708.0,0.0,0,212.0,1
272,272,-0.32697890534553475,-0.3,0.0,1.0,303.0,907.0,1.0,0,260.0,1
273,273,0.15661264694063426,0.2,0.0,0.0,345.0,965.0,0.0,1,380.0,1
274,274,-0.7134180998578686,-0.7,0.0,1.0,469.0,543.0,1.0,0,238.0,1
275,275,0.28751678258751856,0.3,1.0,1.0,321.0,508.0,1.0,1,881.0,1
276,276,0.18795551583495518,0.2,1.0,1.0,373.0,819.0,1.0,1,508.0,1
277,277,-0.22243989316230373,-0.2,1.0,0.0,299.0,931.0,0.0,0,480.0,1
278,278,0.7827011834160974,0.8,1.0,1.0,454.0,500.0,1.0,1,236.0,1
279,279,0.5396427016797821,0.5,0.0,0.0,253.0,665.0,0.0,1,242.0,1
280,280,-0.8094375594597144,-0.8,1.0,0.0,486.0,520.0,0.0,0,384.0,1
281,281,-0.26134559592466156,-0.3,0.0,1.0,350.0,625.0,1.0,0,495.0,1
282,282,-0.4785549702651674,-0.5,1.0,0.0,324.0,764.0,0.0,0,212.0,1
283,283,0.8601936587591058,0.9,0.0,0.0,463.0,960.0,0.0,1,97.0,1
284,284,-0.8372401791527134,-0.8,1.0,0.0,456.0,632.0,0.0,0,292.0,1
285,285,-0.15433824974870358,-0.2,0.0,1.0,337.0,972.0,1.0,0,471.0,1
286,286,-0.15028621678202903,-0.2,1.0,0.0,499.0,902.0,0.0,0,439.0,1
287,287,5.0849431848964954e-05,0.0,0.0,0.0,331.0,961.0,1.0,0,1708.0,0
288,288,-0.4121935856211853,-0.4,0.0,1.0,402.0,922.0,1.0,0,266.0,1
289,289,0.11340700775955603,0.1,0.0,0.0,355.0,627.0,0.0,1,1018.0,1
290,290,-0.39666208214717713,-0.4,0.0,1.0,347.0,795.0,1.0,0,228.0,1
291,291,-0.6117170252530532,-0.6,0.0,1.0,382.0,685.0,1.0,0,213.0,1
292,292,-0.22367978874380456,-0.2,0.0,1.0,406.0,886.0,1.0,0,308.0,1
293,293,-0.3024213504563925,-0.3,1.0,0.0,271.0,874.0,0.0,0,305.0,1
294,294,0.14483276635202758,0.1,0.0,0.0,278.0,694.0,0.0,1,808.0,1
295,295,0.7229947129588111,0.7,0.0,0.0,266.0,806.0,0.0,1,178.0,1
296,296,0.04010774811602891,0.0,1.0,1.0,370.0,935.0,1.0,1,315.0,1
297,297,-0.05901250630157173,-0.1,1.0,0.0,385.0,941.0,0.0,0,1634.0,1
298,298,0.5374302281334419,0.5,0.0,0.0,427.0,609.0,0.0,1,444.0,1
299,299,-0.03919055781454173,-0.0,1.0,0.0,268.0,639.0,1.0,1,1273.0,0
300,300,-0.4690101069601132,-0.5,1.0,0.0,313.0,824.0,0.0,0,153.0,1
301,301,-0.8171178094576745,-0.8,0.0,1.0,316.0,942.0,1.0,0,302.0,1
302,302,0.5545416237651483,0.6,0.0,0.0,402.0,617.0,0.0,1,431.0,1
303,303,-0.7532924168407474,-0.8,1.0,0.0,349.0,775.0,0.0,0,216.0,1
304,304,0.5375722573693259,0.5,1.0,1.0,335.0,820.0,1.0,1,315.0,1
305,305,0.6512868215198323,0.7,1.0,1.0,390.0,691.0,1.0,1,129.0,1
306,306,0.8358692669214108,0.8,0.0,0.0,482.0,835.0,0.0,1,313.0,1
307,307,0.345067830419893,0.3,0.0,0.0,286.0,845.0,0.0,1,319.0,1
308,308,0.041964152037018865,0.0,1.0,1.0,326.0,830.0,1.0,1,674.0,1
309,309,-0.646179586917071,-0.6,1.0,0.0,368.0,803.0,0.0,0,229.0,1
310,310,-0.46411383418761415,-0.5,0.0,1.0,314.0,938.0,1.0,0,198.0,1
311,311,0.08813049149767338,0.1,0.0,0.0,264.0,568.0,0.0,1,2168.0,1
312,312,-0.8200511655753866,-0.8,0.0,1.0,446.0,809.0,1.0,0,215.0,1
313,313,-0.33026192885993855,-0.3,1.0,0.0,313.0,860.0,0.0,0,157.0,1
314,314,0.10064054079581786,0.1,1.0,1.0,386.0,515.0,1.0,1,559.0,1
315,315,-0.14778936019049183,-0.1,1.0,0.0,461.0,528.0,0.0,0,691.0,1
316,316,0.7800461455098854,0.8,1.0,1.0,312.0,505.0,1.0,1,183.0,1
317,317,-0.8299727770821167,-0.8,1.0,0.0,351.0,767.0,0.0,0,222.0,1
318,318,-0.25674168845907885,-0.3,1.0,0.0,362.0,574.0,0.0,0,514.0,1
319,319,0.2500442006536018,0.3,0.0,0.0,300.0,572.0,0.0,1,248.0,1
320,320,0.30410921052384376,0.3,1.0,1.0,382.0,888.0,1.0,1,350.0,1
321,321,0.8994920513749111,0.9,1.0,1.0,326.0,562.0,1.0,1,262.0,1
322,322,0.8737652341707262,0.9,1.0,1.0,334.0,912.0,1.0,1,284.0,1
323,323,0.5828743402786035,0.6,1.0,1.0,302.0,861.0,1.0,1,347.0,1
324,324,0.2615093029386316,0.3,0.0,0.0,365.0,843.0,0.0,1,512.0,1
325,325,-0.36091925984764495,-0.4,0.0,1.0,306.0,568.0,1.0,0,266.0,1
326,326,-0.7322897928092201,-0.7,0.0,1.0,447.0,932.0,1.0,0,171.0,1
327,327,0.28344489721015564,0.3,1.0,1.0,334.0,736.0,1.0,1,430.0,1
328,328,0.3121984057311039,0.3,1.0,1.0,477.0,536.0,1.0,1,567.0,1
329,329,0.26349310751345445,0.3,1.0,1.0,432.0,653.0,1.0,1,425.0,1
330,330,-0.8232796461067278,-0.8,0.0,1.0,315.0,979.0,1.0,0,176.0,1
331,331,-0.09028990243302804,-0.1,0.0,1.0,310.0,805.0,1.0,0,1885.0,1
332,332,-0.7577766289823346,-0.8,1.0,0.0,449.0,552.0,0.0,0,329.0,1
333,333,-0.21898281638973793,-0.2,0.0,1.0,293.0,761.0,1.0,0,296.0,1
334,334,-0.10029488627250938,-0.1,1.0,0.0,453.0,802.0,0.0,0,755.0,1
335,335,-0.2934398305534849,-0.3,0.0,1.0,482.0,722.0,1.0,0,176.0,1
336,336,-0.5017938804117529,-0.5,0.0,1.0,475.0,769.0,1.0,0,276.0,1
337,337,-0.46016369920152833,-0.5,1.0,0.0,264.0,781.0,0.0,0,235.0,1
338,338,-0.5026198430243558,-0.5,0.0,1.0,293.0,642.0,1.0,0,545.0,1
339,339,-0.2114368560767288,-0.2,1.0,0.0,267.0,956.0,0.0,0,517.0,1
340,340,0.6296315989988303,0.6,0.0,0.0,381.0,635.0,0.0,1,114.0,1
341,341,-0.0829004930812769,-0.1,1.0,0.0,306.0,752.0,0.0,0,1692.0,1
342,342,-0.49485588975129796,-0.5,1.0,0.0,424.0,731.0,0.0,0,225.0,1
343,343,-0.40322767707034274,-0.4,0.0,1.0,440.0,888.0,1.0,0,272.0,1
344,344,0.46713873235167924,0.5,0.0,0.0,267.0,865.0,0.0,1,348.0,1
345,345,-0.5994433792063394,-0.6,0.0,1.0,491.0,794.0,1.0,0,165.0,1
346,346,-0.5374258588177314,-0.5,1.0,0.0,470.0,581.0,0.0,0,389.0,1
347,347,0.3047309199960141,0.3,1.0,1.0,472.0,985.0,1.0,1,93.0,1
348,348,0.5156724070424578,0.5,0.0,0.0,264.0,950.0,0.0,1,256.0,1
349,349,-0.45579180474188713,-0.5,0.0,1.0,478.0,793.0,1.0,0,239.0,1
350,350,-0.7583343551088713,-0.8,1.0,0.0,351.0,502.0,0.0,0,327.0,1
351,351,0.5481082155803213,0.5,0.0,0.0,407.0,634.0,0.0,1,369.0,1
352,352,0.7584245179168222,0.8,0.0,0.0,266.0,651.0,0.0,1,453.0,1
353,353,0.8099185646049393,0.8,0.0,0.0,395.0,739.0,0.0,1,156.0,1
354,354,-0.18967867642707492,-0.2,0.0,1.0,451.0,886.0,1.0,0,213.0,1
355,355,-0.520690645936922,-0.5,1.0,0.0,372.0,545.0,0.0,0,323.0,1
356,356,0.30648873990623493,0.3,1.0,1.0,273.0,571.0,1.0,1,296.0,1
357,357,0.11972460921181483,0.1,1.0,1.0,264.0,993.0,1.0,1,223.0,1
358,358,-0.6679117508412241,-0.7,0.0,1.0,466.0,992.0,1.0,0,172.0,1
359,359,-0.8111100390657733,-0.8,0.0,1.0,491.0,707.0,1.0,0,262.0,1
360,360,0.8191580758954137,0.8,0.0,0.0,285.0,891.0,0.0,1,124.0,1
361,361,0.09659963810879091,0.1,0.0,0.0,344.0,942.0,0.0,1,314.0,1
362,362,0.6087971517876781,0.6,1.0,1.0,490.0,504.0,1.0,1,286.0,1
363,363,0.775087276184259,0.8,0.0,0.0,387.0,997.0,0.0,1,146.0,1
364,364,0.8439314097375944,0.8,1.0,1.0,260.0,582.0,1.0,1,248.0,1
365,365,0.23988833814213428,0.2,0.0,0.0,458.0,924.0,0.0,1,248.0,1
366,366,-0.5088256612474131,-0.5,1.0,0.0,415.0,607.0,0.0,0,218.0,1
367,367,-0.4145927143455316,-0.4,0.0,1.0,442.0,863.0,1.0,0,165.0,1
368,368,0.4127787351158042,0.4,0.0,0.0,497.0,739.0,0.0,1,254.0,1
369,369,-0.5075968823493711,-0.5,1.0,0.0,271.0,808.0,0.0,0,101.0,1
370,370,-0.2053147236897862,-0.2,1.0,0.0,330.0,824.0,0.0,0,466.0,1
371,371,-0.08908599054584443,-0.1,0.0,1.0,456.0,995.0,1.0,0,1549.0,1
372,372,0.6102346504451553,0.6,1.0,1.0,375.0,630.0,1.0,1,275.0,1
373,373,-0.500262705773997,-0.5,1.0,0.0,261.0,834.0,0.0,0,665.0,1
374,374,0.17298731356867159,0.2,1.0,1.0,302.0,660.0,1.0,1,558.0,1
375,375,-0.8188303810560293,-0.8,0.0,1.0,303.0,985.0,1.0,0,82.0,1
376,376,0.2433254482020527,0.2,0.0,0.0,379.0,856.0,0.0,1,275.0,1
377,377,-0.2955289344889058,-0.3,1.0,0.0,411.0,713.0,0.0,0,396.0,1
378,378,0.34652888927158865,0.3,0.0,0.0,383.0,957.0,0.0,1,230.0,1
379,379,-0.8549711396792006,-0.9,1.0,0.0,444.0,967.0,0.0,0,209.0,1
380,380,-0.6983886863870108,-0.7,1.0,0.0,397.0,748.0,0.0,0,245.0,1
381,381,-0.33029147325307007,-0.3,1.0,0.0,262.0,685.0,0.0,0,323.0,1
382,382,-0.8292027128453177,-0.8,1.0,0.0,476.0,578.0,0.0,0,216.0,1
383,383,-0.05746890646278224,-0.1,0.0,1.0,484.0,746.0,1.0,0,910.0,1
384,384,-0.5060952204770828,-0.5,0.0,1.0,314.0,588.0,1.0,0,208.0,1
385,385,0.5264305574047473,0.5,1.0,1.0,454.0,517.0,1.0,1,209.0,1
386,386,0.7573643163009444,0.8,1.0,1.0,384.0,908.0,1.0,1,178.0,1
387,387,-0.8617452633118271,-0.9,0.0,1.0,387.0,966.0,1.0,0,187.0,1
388,388,0.41853515803225594,0.4,0.0,0.0,457.0,864.0,0.0,1,379.0,1
389,389,0.7552793883277412,0.8,0.0,0.0,322.0,637.0,0.0,1,581.0,1
390,390,0.028814643693984454,0.0,1.0,1.0,468.0,929.0,1.0,1,1603.0,1
391,391,-0.3216256334828681,-0.3,1.0,0.0,446.0,857.0,0.0,0,267.0,1
392,392,0.35078884406959465,0.4,1.0,1.0,351.0,874.0,1.0,1,165.0,1
393,393,-0.8200304407499107,-0.8,1.0,0.0,335.0,805.0,0.0,0,330.0,1
394,394,-0.8080167709986604,-0.8,0.0,1.0,470.0,973.0,1.0,0,257.0,1
395,395,-0.6515362787519129,-0.7,0.0,1.0,427.0,761.0,1.0,0,122.0,1
396,396,-0.6156069843831038,-0.6,1.0,0.0,273.0,839.0,0.0,0,258.0,1
397,397,-0.47439764729287065,-0.5,0.0,1.0,388.0,618.0,1.0,0,164.0,1
398,398,0.585203231821887,0.6,1.0,1.0,342.0,697.0,1.0,1,421.0,1
399,399,-0.7043546560256118,-0.7,1.0,0.0,346.0,687.0,0.0,0,707.0,1
400,400,-0.47016121760504476,-0.5,1.0,0.0,263.0,580.0,0.0,0,267.0,1
401,401,-0.46869415489318644,-0.5,0.0,1.0,421.0,823.0,1.0,0,236.0,1
402,402,0.08362874978651758,0.1,0.0,0.0,430.0,674.0,0.0,1,856.0,1
403,403,0.773078460752283,0.8,1.0,1.0,336.0,822.0,1.0,1,52.0,1
404,404,-0.0795747308769359,-0.1,0.0,1.0,482.0,843.0,1.0,0,445.0,1
405,405,0.8858977849218407,0.9,0.0,0.0,467.0,662.0,0.0,1,201.0,1
406,406,0.692624202073851,0.7,1.0,1.0,456.0,877.0,1.0,1,157.0,1
407,407,0.071709353872637,0.1,0.0,0.0,321.0,917.0,0.0,1,172.0,1
408,408,-0.5518676337225673,-0.6,1.0,0.0,315.0,632.0,0.0,0,433.0,1
409,409,-0.09057739492608785,-0.1,1.0,0.0,305.0,616.0,0.0,0,2079.0,1
410,410,0.7752552173356247,0.8,0.0,0.0,487.0,894.0,0.0,1,319.0,1
411,411,0.11648469899385738,0.1,0.0,0.0,457.0,612.0,0.0,1,791.0,1
412,412,0.28371074209822356,0.3,0.0,0.0,338.0,788.0,0.0,1,394.0,1
413,413,0.8803710216477555,0.9,1.0,1.0,307.0,782.0,1.0,1,151.0,1
414,414,0.10144242308616358,0.1,1.0,1.0,334.0,642.0,1.0,1,904.0,1
415,415,-0.5925954656270622,-0.6,1.0,0.0,344.0,551.0,0.0,0,975.0,1
416,416,-0.7148811654587732,-0.7,0.0,1.0,497.0,893.0,1.0,0,110.0,1
417,417,0.08974263643037339,0.1,1.0,1.0,270.0,639.0,1.0,1,741.0,1
418,418,0.863745081252694,0.9,1.0,1.0,462.0,939.0,1.0,1,229.0,1
419,419,0.4100448789320873,0.4,1.0,1.0,354.0,721.0,1.0,1,245.0,1
420,420,-0.6530487055056944,-0.7,1.0,0.0,302.0,825.0,0.0,0,343.0,1
421,421,-0.4736899470649892,-0.5,0.0,1.0,479.0,816.0,1.0,0,205.0,1
422,422,-0.5214116668711446,-0.5,0.0,1.0,447.0,743.0,1.0,0,210.0,1
423,423,-0.7433935833394807,-0.7,1.0,0.0,308.0,613.0,0.0,0,349.0,1
424,424,-0.5466709744396574,-0.5,1.0,0.0,292.0,643.0,0.0,0,345.0,1
425,425,0.0013958921654851908,0.0,0.0,0.0,266.0,842.0,1.0,0,1892.0,0
426,426,0.47374929422688605,0.5,1.0,1.0,353.0,542.0,1.0,1,175.0,1
427,427,0.5440752501689329,0.5,1.0,1.0,481.0,824.0,1.0,1,145.0,1
428,428,-0.7198823744206112,-0.7,1.0,0.0,320.0,803.0,0.0,0,147.0,1
429,429,-0.7468087315903713,-0.7,0.0,1.0,313.0,599.0,1.0,0,228.0,1
430,430,0.30137458931235217,0.3,0.0,0.0,477.0,544.0,0.0,1,1039.0,1
431,431,-0.7780463290120744,-0.8,0.0,1.0,455.0,819.0,1.0,0,316.0,1
432,432,0.8671395703406993,0.9,1.0,1.0,295.0,504.0,1.0,1,341.0,1
433,433,-0.7164028812116013,-0.7,1.0,0.0,357.0,650.0,0.0,0,1133.0,1
434,434,-0.13059310104185573,-0.1,1.0,0.0,392.0,829.0,0.0,0,519.0,1
435,435,-0.42362718007097744,-0.4,0.0,1.0,440.0,612.0,1.0,0,218.0,1
436,436,-0.7549786428446874,-0.8,0.0,1.0,415.0,922.0,1.0,0,203.0,1
437,437,-0.4695749084520224,-0.5,0.0,1.0,465.0,811.0,1.0,0,314.0,1
438,438,-0.44213724349706496,-0.4,0.0,1.0,455.0,912.0,1.0,0,153.0,1
439,439,0.801361680879857,0.8,1.0,1.0,388.0,543.0,1.0,1,299.0,1
440,440,-0.578037461022076,-0.6,1.0,0.0,360.0,952.0,0.0,0,198.0,1
441,441,0.25852052927396396,0.3,1.0,1.0,272.0,772.0,1.0,1,296.0,1
442,442,0.27785348983956715,0.3,0.0,0.0,380.0,579.0,0.0,1,321.0,1
443,443,0.14290824482595077,0.1,1.0,1.0,430.0,762.0,1.0,1,938.0,1
444,444,0.06266444043088981,0.1,0.0,0.0,348.0,953.0,0.0,1,419.0,1
445,445,0.29585620426331916,0.3,0.0,0.0,367.0,669.0,0.0,1,554.0,1
446,446,0.4021083649019087,0.4,0.0,0.0,268.0,669.0,0.0,1,523.0,1
447,447,0.501228375604888,0.5,1.0,1.0,484.0,981.0,1.0,1,175.0,1
448,448,-0.4810360329872816,-0.5,0.0,1.0,391.0,585.0,1.0,0,244.0,1
449,449,-0.4163754887096905,-0.4,0.0,1.0,261.0,690.0,1.0,0,219.0,1
450,450,0.45743392191150145,0.5,1.0,1.0,370.0,519.0,1.0,1,301.0,1
451,451,-0.8560771345384734,-0.9,0.0,1.0,287.0,718.0,1.0,0,195.0,1
452,452,0.005100316116060766,0.0,0.0,0.0,493.0,876.0,0.0,1,1631.0,1
453,453,0.09736543032899259,0.1,1.0,1.0,260.0,724.0,1.0,1,486.0,1
454,454,0.8786261099458103,0.9,0.0,0.0,411.0,540.0,0.0,1,239.0,1
455,455,-0.1168690470902799,-0.1,0.0,1.0,439.0,507.0,1.0,0,1474.0,1
456,456,-0.5863492463678229,-0.6,1.0,0.0,358.0,677.0,0.0,0,265.0,1
457,457,-0.5281293289408031,-0.5,1.0,0.0,441.0,990.0,0.0,0,289.0,1
458,458,0.022607729516658903,0.0,1.0,1.0,361.0,560.0,1.0,1,2079.0,1
459,459,-0.2134103670226175,-0.2,1.0,0.0,341.0,607.0,0.0,0,452.0,1
460,460,0.6777286479371488,0.7,0.0,0.0,340.0,746.0,0.0,1,214.0,1
461,461,0.8203847241900405,0.8,1.0,1.0,312.0,719.0,1.0,1,349.0,1
462,462,0.7301063629504286,0.7,0.0,0.0,250.0,675.0,0.0,1,305.0,1
463,463,-0.39529814830530363,-0.4,1.0,0.0,364.0,708.0,0.0,0,478.0,1
464,464,-0.0054271919218595865,-0.0,1.0,0.0,309.0,515.0,1.0,1,2176.0,0
465,465,0.48060602712268097,0.5,1.0,1.0,253.0,891.0,1.0,1,166.0,1
466,466,-0.8735648903083032,-0.9,0.0,1.0,432.0,679.0,1.0,0,209.0,1
467,467,-0.10142695039464222,-0.1,1.0,0.0,366.0,916.0,0.0,0,1218.0,1
468,468,0.2721804834659959,0.3,0.0,0.0,288.0,959.0,0.0,1,713.0,1
469,469,-0.5683352990263726,-0.6,1.0,0.0,358.0,896.0,0.0,0,166.0,1
470,470,-0.8344970847791201,-0.8,0.0,1.0,309.0,904.0,1.0,0,277.0,1
471,471,-0.37966514030190557,-0.4,1.0,0.0,357.0,691.0,0.0,0,262.0,1
472,472,0.5210499284252293,0.5,0.0,0.0,480.0,907.0,0.0,1,143.0,1
473,473,0.2863769187928019,0.3,1.0,1.0,417.0,838.0,1.0,1,285.0,1
474,474,0.26009578083419094,0.3,1.0,1.0,442.0,806.0,1.0,1,372.0,1
475,475,0.26450814422771274,0.3,1.0,1.0,339.0,881.0,1.0,1,190.0,1
476,476,-0.38456632185298767,-0.4,0.0,1.0,300.0,802.0,1.0,0,278.0,1
477,477,0.7499318653134387,0.7,0.0,0.0,426.0,506.0,0.0,1,368.0,1
478,478,0.32882187731750034,0.3,1.0,1.0,404.0,945.0,1.0,1,151.0,1
479,479,-0.6967351384993563,-0.7,1.0,0.0,258.0,523.0,0.0,0,459.0,1
480,480,-0.2886045782292891,-0.3,0.0,1.0,289.0,542.0,1.0,0,259.0,1
481,481,0.4135183689090761,0.4,1.0,1.0,271.0,507.0,1.0,1,402.0,1
482,482,-0.696752636796183,-0.7,0.0,1.0,296.0,516.0,1.0,0,298.0,1
483,483,-0.871261191766305,-0.9,0.0,1.0,270.0,906.0,1.0,0,274.0,1
484,484,-0.13338660027097404,-0.1,1.0,0.0,421.0,715.0,0.0,0,394.0,1
485,485,-0.23019149912338743,-0.2,1.0,0.0,497.0,850.0,0.0,0,323.0,1
486,486,0.37154459042630605,0.4,0.0,0.0,416.0,624.0,0.0,1,410.0,1
487,487,0.33033263373282307,0.3,0.0,0.0,319.0,569.0,0.0,1,362.0,1
488,488,-0.46744454600203894,-0.5,0.0,1.0,404.0,831.0,1.0,0,165.0,1
489,489,-0.13021162130626773,-0.1,0.0,1.0,366.0,683.0,1.0,0,471.0,1
490,490,0.006127414176546275,0.0,1.0,1.0,493.0,575.0,1.0,1,1932.0,1
491,491,0.31192872073612243,0.3,1.0,1.0,420.0,996.0,1.0,1,284.0,1
492,492,0.6358108151293106,0.6,0.0,0.0,419.0,951.0,0.0,1,240.0,1
493,493,0.4919350496631406,0.5,1.0,1.0,285.0,608.0,1.0,1,267.0,1
494,494,-0.7743256219845467,-0.8,1.0,0.0,431.0,585.0,0.0,0,354.0,1
495,495,0.028162209702491392,0.0,0.0,0.0,499.0,555.0,0.0,1,926.0,1
496,496,-0.5518902595610808,-0.6,1.0,0.0,493.0,525.0,0.0,0,432.0,1
497,497,-0.6475785443628199,-0.6,0.0,1.0,495.0,877.0,1.0,0,128.0,1
498,498,-0.4519039410067168,-0.5,0.0,1.0,260.0,950.0,1.0,0,330.0,1
499,499,-0.021413009175431208,-0.0,1.0,0.0,472.0,943.0,0.0,0,1585.0,1
500,500,0.8141179844112313,0.8,0.0,0.0,476.0,646.0,0.0,1,298.0,1
501,501,0.6955274542680782,0.7,1.0,1.0,284.0,666.0,1.0,1,300.0,1
502,502,0.0795425787816072,0.1,0.0,0.0,274.0,601.0,0.0,1,1045.0,1
503,503,0.13794527779447552,0.1,1.0,1.0,359.0,784.0,1.0,1,737.0,1
504,504,-0.18927338383355885,-0.2,1.0,0.0,284.0,789.0,0.0,0,507.0,1
505,505,0.2111310116461692,0.2,1.0,1.0,300.0,538.0,1.0,1,432.0,1
506,506,0.08377322073540039,0.1,0.0,0.0,444.0,960.0,0.0,1,1596.0,1
507,507,0.20985274083986571,0.2,0.0,0.0,315.0,697.0,0.0,1,1118.0,1
508,508,0.03750454844470352,0.0,0.0,0.0,283.0,714.0,1.0,0,2003.0,0
509,509,-0.5989026932941753,-0.6,0.0,1.0,472.0,916.0,1.0,0,42.0,1
510,510,-0.05985013606657341,-0.1,0.0,1.0,382.0,835.0,1.0,0,1783.0,1
511,511,0.050613373667132255,0.1,0.0,0.0,359.0,746.0,0.0,1,955.0,1
512,512,0.16271972436025595,0.2,0.0,0.0,329.0,698.0,0.0,1,493.0,1
513,513,0.04911569943871896,0.0,0.0,0.0,313.0,863.0,0.0,1,1544.0,1
514,514,0.1824468864326555,0.2,1.0,1.0,416.0,560.0,1.0,1,574.0,1
515,515,0.05015442139561421,0.1,1.0,1.0,253.0,568.0,1.0,1,789.0,1
516,516,0.7821485882605846,0.8,0.0,0.0,486.0,727.0,0.0,1,237.0,1
517,517,-0.03303261278392733,-0.0,0.0,1.0,333.0,797.0,0.0,1,1580.0,0
518,518,-0.4995775049527555,-0.5,1.0,0.0,277.0,864.0,0.0,0,139.0,1
519,519,0.42244912826347136,0.4,1.0,1.0,499.0,986.0,1.0,1,195.0,1
520,520,0.21951204772111532,0.2,1.0,1.0,343.0,834.0,1.0,1,283.0,1
521,521,-0.14094219280904663,-0.1,1.0,0.0,277.0,919.0,0.0,0,914.0,1
522,522,0.7561460042723623,0.8,1.0,1.0,438.0,822.0,1.0,1,270.0,1
523,523,0.8970129889879684,0.9,0.0,0.0,475.0,776.0,0.0,1,309.0,1
524,524,0.031108731319094085,0.0,1.0,1.0,416.0,500.0,1.0,1,1554.0,1
525,525,0.5871975969445143,0.6,1.0,1.0,270.0,618.0,1.0,1,212.0,1
526,526,0.8669131290010276,0.9,0.0,0.0,250.0,918.0,0.0,1,242.0,1
527,527,0.43712760297077635,0.4,1.0,1.0,459.0,695.0,1.0,1,296.0,1
528,528,-0.07617648486503759,-0.1,1.0,0.0,407.0,758.0,0.0,0,485.0,1
529,529,-0.10316376147672646,-0.1,1.0,0.0,443.0,850.0,0.0,0,1207.0,1
530,530,-0.31011751402154497,-0.3,0.0,1.0,359.0,811.0,1.0,0,310.0,1
531,531,0.44783259866579883,0.4,0.0,0.0,478.0,806.0,0.0,1,266.0,1
532,532,-0.11355277974321332,-0.1,1.0,0.0,270.0,968.0,0.0,0,1252.0,1
533,533,0.46530381391273934,0.5,0.0,0.0,297.0,821.0,0.0,1,302.0,1
534,534,-0.42755698751627463,-0.4,0.0,1.0,437.0,660.0,1.0,0,353.0,1
535,535,-0.6331555478214475,-0.6,0.0,1.0,407.0,503.0,1.0,0,300.0,1
536,536,-0.2529758071697312,-0.3,0.0,1.0,455.0,635.0,1.0,0,310.0,1
537,537,-0.44484588508566075,-0.4,1.0,0.0,268.0,524.0,0.0,0,488.0,1
538,538,-0.8922899422523394,-0.9,0.0,1.0,263.0,543.0,1.0,0,294.0,1
539,539,-0.2878511265111906,-0.3,1.0,0.0,374.0,582.0,0.0,0,514.0,1
540,540,-0.8133348543600872,-0.8,1.0,0.0,253.0,946.0,0.0,0,231.0,1
541,541,0.1089366895292142,0.1,1.0,1.0,419.0,985.0,1.0,1,276.0,1
542,542,0.5969456337196782,0.6,1.0,1.0,325.0,628.0,1.0,1,437.0,1
543,543,0.11804369976827711,0.1,1.0,1.0,406.0,611.0,1.0,1,513.0,1
544,544,0.3736505438541712,0.4,1.0,1.0,427.0,893.0,1.0,1,340.0,1
545,545,0.18854952800556501,0.2,0.0,0.0,275.0,713.0,0.0,1,622.0,1
546,546,-0.1331152428275656,-0.1,0.0,1.0,274.0,968.0,1.0,0,328.0,1
547,547,0.12356497004299449,0.1,1.0,1.0,368.0,902.0,1.0,1,150.0,1
548,548,-0.394314385241458,-0.4,0.0,1.0,294.0,578.0,1.0,0,368.0,1
549,549,-0.28530009012186175,-0.3,0.0,1.0,494.0,597.0,1.0,0,479.0,1
550,550,0.4912771752778812,0.5,1.0,1.0,434.0,659.0,1.0,1,217.0,1
551,551,0.05677177806518474,0.1,1.0,1.0,370.0,621.0,1.0,1,499.0,1
552,552,0.5008478304955463,0.5,1.0,1.0,285.0,579.0,1.0,1,156.0,1
553,553,0.5447038452359335,0.5,1.0,1.0,398.0,796.0,1.0,1,136.0,1
554,554,-0.1286913584764363,-0.1,0.0,1.0,252.0,901.0,1.0,0,437.0,1
555,555,0.0176208069787549,0.0,0.0,0.0,482.0,912.0,0.0,1,1606.0,1
556,556,-0.2671496614534412,-0.3,0.0,1.0,454.0,908.0,1.0,0,258.0,1
557,557,-0.5133222783109261,-0.5,0.0,1.0,489.0,782.0,1.0,0,219.0,1
558,558,-0.7590586002624039,-0.8,1.0,0.0,492.0,859.0,0.0,0,299.0,1
559,559,-0.5344901316344286,-0.5,0.0,1.0,269.0,527.0,1.0,0,204.0,1
560,560,0.4413363509536795,0.4,1.0,1.0,297.0,700.0,1.0,1,323.0,1
561,561,0.5309299108614786,0.5,0.0,0.0,315.0,915.0,0.0,1,480.0,1
562,562,0.20627525667357094,0.2,1.0,1.0,412.0,575.0,1.0,1,493.0,1
563,563,0.5517773292468019,0.6,0.0,0.0,489.0,526.0,0.0,1,355.0,1
564,564,0.2817454261372129,0.3,0.0,0.0,494.0,946.0,0.0,1,310.0,1
565,565,0.7904739315453734,0.8,1.0,1.0,296.0,698.0,1.0,1,166.0,1
566,566,-0.7123791049686021,-0.7,1.0,0.0,404.0,887.0,0.0,0,459.0,1
567,567,0.09756333858821808,0.1,0.0,0.0,447.0,964.0,0.0,1,1359.0,1
568,568,0.19631979959540835,0.2,1.0,1.0,442.0,506.0,1.0,1,542.0,1
569,569,0.7431677701158487,0.7,1.0,1.0,381.0,750.0,1.0,1,169.0,1
570,570,0.8723478604321758,0.9,0.0,0.0,395.0,936.0,0.0,1,149.0,1
571,571,0.4899131373047937,0.5,0.0,0.0,404.0,856.0,0.0,1,340.0,1
572,572,-0.23552374764337902,-0.2,1.0,0.0,287.0,568.0,0.0,0,425.0,1
573,573,-0.06958367732121817,-0.1,1.0,0.0,398.0,822.0,0.0,0,1780.0,1
574,574,0.7919184581689264,0.8,0.0,0.0,252.0,673.0,0.0,1,335.0,1
575,575,0.015150041520391677,0.0,1.0,1.0,301.0,639.0,1.0,1,2060.0,1
576,576,-0.13004237158215926,-0.1,1.0,0.0,370.0,919.0,0.0,0,1711.0,1
577,577,-0.6384979738419576,-0.6,1.0,0.0,320.0,983.0,0.0,0,267.0,1
578,578,-0.8083732174763052,-0.8,0.0,1.0,344.0,922.0,1.0,0,54.0,1
579,579,-0.05586977960747053,-0.1,1.0,0.0,497.0,803.0,0.0,0,1700.0,1
580,580,0.2976916901749701,0.3,0.0,0.0,382.0,835.0,0.0,1,233.0,1
581,581,0.13574856097053456,0.1,1.0,1.0,347.0,662.0,1.0,1,561.0,1
582,582,-0.0483447970799028,-0.0,1.0,0.0,413.0,854.0,0.0,0,1613.0,1
583,583,0.7463014425522373,0.7,0.0,0.0,472.0,615.0,0.0,1,313.0,1
584,584,0.07191154013203793,0.1,0.0,0.0,327.0,751.0,0.0,1,952.0,1
585,585,0.1726791752855369,0.2,0.0,0.0,355.0,687.0,0.0,1,428.0,1
586,586,0.8207797706132883,0.8,1.0,1.0,491.0,532.0,1.0,1,287.0,1
587,587,0.46911908340039965,0.5,0.0,0.0,379.0,556.0,0.0,1,325.0,1
588,588,0.0947687861447688,0.1,1.0,1.0,425.0,716.0,1.0,1,439.0,1
589,589,-0.7711725831549313,-0.8,0.0,1.0,341.0,969.0,1.0,0,270.0,1
590,590,0.4820712240213155,0.5,0.0,0.0,495.0,776.0,0.0,1,209.0,1
591,591,-0.7490673279322749,-0.7,1.0,0.0,287.0,757.0,0.0,0,316.0,1
592,592,-0.12137225699087018,-0.1,0.0,1.0,373.0,830.0,1.0,0,547.0,1
593,593,0.5935186755128171,0.6,1.0,1.0,343.0,800.0,1.0,1,207.0,1
594,594,-0.1385139618398643,-0.1,0.0,1.0,384.0,742.0,1.0,0,414.0,1
595,595,0.7880798507970862,0.8,0.0,0.0,338.0,753.0,0.0,1,179.0,1
596,596,-0.5199759017461579,-0.5,0.0,1.0,357.0,750.0,1.0,0,133.0,1
597,597,-0.2863777713937685,-0.3,1.0,0.0,306.0,625.0,0.0,0,269.0,1
598,598,-0.5694333202872178,-0.6,0.0,1.0,397.0,907.0,1.0,0,186.0,1
599,599,-0.11438617181282018,-0.1,1.0,0.0,436.0,844.0,0.0,0,570.0,1
600,600,0.48805111482932995,0.5,0.0,0.0,439.0,503.0,0.0,1,308.0,1
601,601,-0.0005800187048327077,-0.0,1.0,0.0,434.0,578.0,1.0,1,1988.0,0
602,602,0.15279719258965196,0.2,1.0,1.0,460.0,827.0,1.0,1,283.0,1
603,603,0.3778274448390043,0.4,1.0,1.0,459.0,795.0,1.0,1,166.0,1
604,604,-0.8245423980709077,-0.8,1.0,0.0,456.0,938.0,0.0,0,286.0,1
605,605,0.32506436781338344,0.3,1.0,1.0,347.0,636.0,1.0,1,527.0,1
606,606,-0.3235894079180226,-0.3,1.0,0.0,445.0,735.0,0.0,0,340.0,1
607,607,-0.3730659687501183,-0.4,0.0,1.0,316.0,759.0,1.0,0,285.0,1
608,608,0.8025317350977074,0.8,0.0,0.0,373.0,783.0,0.0,1,144.0,1
609,609,-0.6291024322240297,-0.6,1.0,0.0,301.0,733.0,0.0,0,196.0,1
610,610,0.8053520899268468,0.8,1.0,1.0,487.0,861.0,1.0,1,242.0,1
611,611,-0.32046584412897583,-0.3,1.0,0.0,396.0,917.0,0.0,0,357.0,1
612,612,-0.06969028729332061,-0.1,1.0,0.0,300.0,567.0,0.0,0,1743.0,1
613,613,-0.031229814330707373,-0.0,1.0,0.0,370.0,937.0,0.0,0,1693.0,1
614,614,0.4564234014758345,0.5,0.0,0.0,265.0,739.0,0.0,1,286.0,1
615,615,0.3113783282669419,0.3,0.0,0.0,305.0,765.0,0.0,1,190.0,1
616,616,-0.8675470922308364,-0.9,1.0,0.0,497.0,716.0,0.0,0,277.0,1
617,617,0.8787577908203298,0.9,1.0,1.0,326.0,919.0,1.0,1,295.0,1
618,618,0.24087311317007865,0.2,1.0,1.0,381.0,509.0,1.0,1,310.0,1
619,619,-0.6091722963023405,-0.6,1.0,0.0,436.0,899.0,0.0,0,355.0,1
620,620,0.023547670294954526,0.0,0.0,0.0,434.0,886.0,0.0,1,1680.0,1
621,621,-0.7598790517471834,-0.8,1.0,0.0,308.0,742.0,0.0,0,310.0,1
622,622,0.01856279996878496,0.0,0.0,0.0,276.0,745.0,0.0,1,849.0,1
623,623,-0.8928731047777579,-0.9,1.0,0.0,483.0,856.0,0.0,0,131.0,1
624,624,-0.30572997577252226,-0.3,1.0,0.0,278.0,997.0,0.0,0,625.0,1
625,625,0.8407742312769108,0.8,1.0,1.0,321.0,691.0,1.0,1,88.0,1
626,626,-0.2441084587191773,-0.2,1.0,0.0,420.0,568.0,0.0,0,532.0,1
627,627,-0.8460056288874356,-0.8,1.0,0.0,366.0,667.0,0.0,0,247.0,1
628,628,-0.728983235903704,-0.7,1.0,0.0,451.0,658.0,0.0,0,411.0,1
629,629,-0.1857580823131002,-0.2,1.0,0.0,254.0,543.0,0.0,0,443.0,1
630,630,0.5921602620114609,0.6,1.0,1.0,430.0,596.0,1.0,1,234.0,1
631,631,0.5730722935645468,0.6,0.0,0.0,273.0,824.0,0.0,1,213.0,1
632,632,0.48113758795388295,0.5,0.0,0.0,413.0,989.0,0.0,1,218.0,1
633,633,-0.4875815830434893,-0.5,1.0,0.0,367.0,537.0,0.0,0,556.0,1
634,634,0.4135892162207103,0.4,1.0,1.0,274.0,914.0,1.0,1,192.0,1
635,635,0.26109058431356724,0.3,0.0,0.0,407.0,919.0,0.0,1,154.0,1
636,636,0.026333339048946525,0.0,0.0,0.0,472.0,743.0,1.0,0,1785.0,0
637,637,0.6553903674689424,0.7,1.0,1.0,412.0,808.0,1.0,1,230.0,1
638,638,-0.5927219361621756,-0.6,0.0,1.0,349.0,869.0,1.0,0,142.0,1
639,639,0.39007717144483645,0.4,1.0,1.0,342.0,999.0,1.0,1,109.0,1
640,640,0.3709692154826313,0.4,0.0,0.0,493.0,790.0,0.0,1,167.0,1
641,641,0.5378177576934154,0.5,1.0,1.0,417.0,774.0,1.0,1,199.0,1
642,642,0.03429415654674983,0.0,0.0,0.0,418.0,957.0,1.0,0,1625.0,0
643,643,-0.48847106704118787,-0.5,0.0,1.0,405.0,576.0,1.0,0,329.0,1
644,644,-0.6680079615235169,-0.7,0.0,1.0,453.0,791.0,1.0,0,196.0,1
645,645,0.6063985940766473,0.6,0.0,0.0,340.0,819.0,0.0,1,211.0,1
646,646,0.8918256133273684,0.9,1.0,1.0,361.0,548.0,1.0,1,351.0,1
647,647,-0.6280837263530696,-0.6,1.0,0.0,446.0,901.0,0.0,0,243.0,1
648,648,0.01792907286674239,0.0,1.0,1.0,461.0,579.0,1.0,1,1960.0,1
649,649,-0.8063804798810283,-0.8,1.0,0.0,259.0,729.0,0.0,0,232.0,1
650,650,0.6892958286370138,0.7,0.0,0.0,370.0,526.0,0.0,1,484.0,1
651,651,0.6512108942190294,0.7,0.0,0.0,358.0,893.0,0.0,1,299.0,1
652,652,-0.4457971352189441,-0.4,0.0,1.0,301.0,672.0,1.0,0,437.0,1
653,653,-0.7496466112105966,-0.7,0.0,1.0,320.0,684.0,1.0,0,226.0,1
654,654,0.05529880936112863,0.1,0.0,0.0,361.0,825.0,0.0,1,1814.0,1
655,655,0.8234837393796207,0.8,1.0,1.0,457.0,614.0,1.0,1,489.0,1
656,656,-0.5998670019952038,-0.6,1.0,0.0,295.0,519.0,0.0,0,586.0,1
657,657,-0.2344770091469527,-0.2,1.0,0.0,396.0,536.0,0.0,0,608.0,1
658,658,0.6379201059234086,0.6,1.0,1.0,252.0,926.0,1.0,1,132.0,1
659,659,0.5204848068554665,0.5,1.0,1.0,472.0,538.0,1.0,1,260.0,1
660,660,-0.6709925753264604,-0.7,0.0,1.0,467.0,894.0,1.0,0,169.0,1
661,661,-0.8704389266545289,-0.9,1.0,0.0,357.0,662.0,0.0,0,191.0,1
662,662,-0.7162746442648349,-0.7,0.0,1.0,376.0,871.0,1.0,0,93.0,1
663,663,0.2972198393189641,0.3,0.0,0.0,317.0,603.0,0.0,1,160.0,1
664,664,0.5304764924211457,0.5,1.0,1.0,447.0,765.0,1.0,1,298.0,1
665,665,0.7828712598085134,0.8,0.0,0.0,271.0,541.0,0.0,1,468.0,1
666,666,0.2720190916699029,0.3,1.0,1.0,323.0,583.0,1.0,1,474.0,1
667,667,0.42179255690880424,0.4,1.0,1.0,295.0,957.0,1.0,1,88.0,1
668,668,-0.4382285262171763,-0.4,0.0,1.0,445.0,940.0,1.0,0,195.0,1
669,669,0.07364913526384564,0.1,0.0,0.0,352.0,782.0,0.0,1,1866.0,1
670,670,0.48528776633638937,0.5,0.0,0.0,421.0,908.0,0.0,1,221.0,1
671,671,0.6872016448136581,0.7,0.0,0.0,292.0,552.0,0.0,1,366.0,1
672,672,-0.23910694486204231,-0.2,0.0,1.0,278.0,681.0,1.0,0,251.0,1
673,673,-0.2760675791303435,-0.3,1.0,0.0,281.0,881.0,0.0,0,178.0,1
674,674,0.6672665883278582,0.7,0.0,0.0,463.0,634.0,0.0,1,193.0,1
675,675,-0.4862927583478413,-0.5,0.0,1.0,446.0,791.0,1.0,0,153.0,1
676,676,0.03970989055266072,0.0,1.0,1.0,349.0,831.0,1.0,1,370.0,1
677,677,0.265356937236397,0.3,0.0,0.0,428.0,886.0,0.0,1,686.0,1
678,678,0.5321710501737226,0.5,0.0,0.0,281.0,949.0,0.0,1,180.0,1
679,679,-0.1892875979931864,-0.2,0.0,1.0,387.0,597.0,1.0,0,546.0,1
680,680,-0.1810506835074167,-0.2,1.0,0.0,427.0,615.0,0.0,0,338.0,1
681,681,-0.5427339424810365,-0.5,0.0,1.0,296.0,914.0,1.0,0,30.0,1
682,682,-0.32479264533553553,-0.3,0.0,1.0,392.0,810.0,1.0,0,238.0,1
683,683,0.3249837513053947,0.3,1.0,1.0,411.0,548.0,1.0,1,311.0,1
684,684,0.873922642319168,0.9,0.0,0.0,350.0,931.0,0.0,1,269.0,1
685,685,0.7398346581075167,0.7,1.0,1.0,390.0,929.0,1.0,1,171.0,1
686,686,0.5014289368071446,0.5,0.0,0.0,291.0,723.0,0.0,1,196.0,1
687,687,-0.2399789064387864,-0.2,1.0,0.0,442.0,552.0,0.0,0,566.0,1
688,688,-0.6118454373839428,-0.6,1.0,0.0,407.0,883.0,0.0,0,300.0,1
689,689,-0.37878072537360685,-0.4,1.0,0.0,314.0,980.0,0.0,0,166.0,1
690,690,0.378043802500977,0.4,1.0,1.0,254.0,793.0,1.0,1,413.0,1
691,691,-0.36147272631657845,-0.4,0.0,1.0,286.0,794.0,1.0,0,340.0,1
692,692,-0.6378414366831673,-0.6,1.0,0.0,383.0,867.0,0.0,0,390.0,1
693,693,0.46245715216886885,0.5,1.0,1.0,284.0,683.0,1.0,1,183.0,1
694,694,0.18172988817093028,0.2,1.0,1.0,497.0,949.0,1.0,1,234.0,1
695,695,-0.7544095541530946,-0.8,0.0,1.0,490.0,587.0,1.0,0,193.0,1
696,696,0.4071619743878109,0.4,1.0,1.0,430.0,722.0,1.0,1,418.0,1
697,697,-0.3310692607202542,-0.3,1.0,0.0,268.0,710.0,0.0,0,462.0,1
698,698,0.5749446087345199,0.6,1.0,1.0,309.0,546.0,1.0,1,405.0,1
699,699,-0.24408054003973145,-0.2,0.0,1.0,261.0,553.0,1.0,0,336.0,1
700,700,0.15816090301775032,0.2,0.0,0.0,425.0,857.0,0.0,1,348.0,1
701,701,-0.035016091606322464,-0.0,0.0,1.0,286.0,801.0,1.0,0,153.0,1
702,702,-0.7534335267961924,-0.8,1.0,0.0,294.0,847.0,0.0,0,389.0,1
703,703,-0.8997074861870293,-0.9,0.0,1.0,419.0,557.0,1.0,0,284.0,1
704,704,-0.36836563242155407,-0.4,0.0,1.0,338.0,835.0,1.0,0,307.0,1
705,705,0.24658289982513037,0.2,1.0,1.0,308.0,924.0,1.0,1,218.0,1
706,706,0.6849229028566969,0.7,1.0,1.0,349.0,870.0,1.0,1,281.0,1
707,707,-0.7360253368366885,-0.7,1.0,0.0,459.0,978.0,0.0,0,233.0,1
708,708,0.7538994567386913,0.8,1.0,1.0,415.0,633.0,1.0,1,182.0,1
709,709,-0.05298338469109731,-0.1,1.0,0.0,330.0,636.0,0.0,0,694.0,1
710,710,0.7289275052956586,0.7,0.0,0.0,340.0,993.0,0.0,1,237.0,1
711,711,0.8477848418272459,0.8,1.0,1.0,492.0,718.0,1.0,1,220.0,1
712,712,0.23940946505542227,0.2,1.0,1.0,355.0,539.0,1.0,1,456.0,1
713,713,0.6723065455341476,0.7,1.0,1.0,323.0,981.0,1.0,1,196.0,1
714,714,-0.820635213964553,-0.8,0.0,1.0,435.0,545.0,1.0,0,280.0,1
715,715,0.12193675744322607,0.1,1.0,1.0,397.0,686.0,1.0,1,417.0,1
716,716,0.8247166492242267,0.8,1.0,1.0,401.0,526.0,1.0,1,363.0,1
717,717,-0.7894006716350909,-0.8,1.0,0.0,371.0,850.0,0.0,0,309.0,1
718,718,-0.7823423110945883,-0.8,1.0,0.0,308.0,513.0,0.0,0,369.0,1
719,719,0.3885726418983052,0.4,0.0,0.0,467.0,680.0,0.0,1,273.0,1
720,720,0.7554803117076488,0.8,0.0,0.0,405.0,520.0,0.0,1,225.0,1
721,721,0.8007265047420943,0.8,0.0,0.0,294.0,988.0,0.0,1,278.0,1
722,722,0.7772933767663629,0.8,0.0,0.0,486.0,906.0,0.0,1,448.0,1
723,723,0.4571534063676136,0.5,1.0,1.0,370.0,943.0,1.0,1,377.0,1
724,724,-0.2749991412042295,-0.3,1.0,0.0,343.0,898.0,0.0,0,419.0,1
725,725,-0.3272144151220058,-0.3,1.0,0.0,470.0,659.0,0.0,0,411.0,1
726,726,-0.3191835198769726,-0.3,0.0,1.0,439.0,687.0,1.0,0,384.0,1
727,727,-0.3055651898326248,-0.3,0.0,1.0,371.0,640.0,1.0,0,249.0,1
728,728,0.024471482841318948,0.0,0.0,0.0,328.0,525.0,0.0,1,1767.0,1
729,729,-0.8812802681761693,-0.9,1.0,0.0,254.0,731.0,0.0,0,255.0,1
730,730,-0.3332866665453561,-0.3,0.0,1.0,264.0,997.0,1.0,0,159.0,1
731,731,-0.23768491149460758,-0.2,1.0,0.0,298.0,913.0,0.0,0,349.0,1
732,732,-0.2885974322901279,-0.3,0.0,1.0,332.0,540.0,1.0,0,318.0,1
733,733,0.30006087491032385,0.3,1.0,1.0,496.0,789.0,1.0,1,505.0,1
734,734,0.8077137004186233,0.8,0.0,0.0,399.0,696.0,0.0,1,315.0,1
735,735,0.42344836646012285,0.4,1.0,1.0,434.0,925.0,1.0,1,371.0,1
736,736,-0.09938893293239581,-0.1,0.0,1.0,373.0,648.0,1.0,0,669.0,1
737,737,-0.4842170596160888,-0.5,1.0,0.0,350.0,657.0,0.0,0,593.0,1
738,738,0.2690720223367079,0.3,0.0,0.0,272.0,704.0,0.0,1,374.0,1
739,739,-0.5881645712895638,-0.6,0.0,1.0,321.0,861.0,1.0,0,128.0,1
740,740,-0.023457009712763988,-0.0,1.0,0.0,312.0,778.0,0.0,0,1910.0,1
741,741,0.6936779668852698,0.7,1.0,1.0,406.0,628.0,1.0,1,196.0,1
742,742,0.2438788923237144,0.2,1.0,1.0,458.0,535.0,1.0,1,527.0,1
743,743,0.07141128209831449,0.1,1.0,1.0,392.0,553.0,1.0,1,1075.0,1
744,744,-0.1404915344291474,-0.1,0.0,1.0,447.0,754.0,1.0,0,459.0,1
745,745,-0.209048924296229,-0.2,1.0,0.0,471.0,638.0,0.0,0,831.0,1
746,746,-0.30867374145609594,-0.3,0.0,1.0,370.0,908.0,1.0,0,292.0,1
747,747,-0.8761210686447943,-0.9,1.0,0.0,286.0,834.0,0.0,0,240.0,1
748,748,0.28488446746230134,0.3,1.0,1.0,268.0,983.0,1.0,1,199.0,1
749,749,0.6887234517721218,0.7,0.0,0.0,490.0,692.0,0.0,1,248.0,1
750,750,0.3737542783598039,0.4,0.0,0.0,402.0,835.0,0.0,1,363.0,1
751,751,-0.26914139743673593,-0.3,0.0,1.0,306.0,977.0,1.0,0,467.0,1
752,752,-0.5555051012588148,-0.6,1.0,0.0,358.0,873.0,0.0,0,319.0,1
753,753,-0.7628886838737811,-0.8,0.0,1.0,434.0,691.0,1.0,0,235.0,1
754,754,0.8655879309937354,0.9,0.0,0.0,348.0,698.0,0.0,1,264.0,1
755,755,0.5735773595087205,0.6,1.0,1.0,398.0,873.0,1.0,1,179.0,1
756,756,-0.32134273264229385,-0.3,1.0,0.0,434.0,600.0,0.0,0,436.0,1
757,757,-0.5893322717110767,-0.6,0.0,1.0,322.0,990.0,1.0,0,338.0,1
758,758,-0.03466281601296162,-0.0,1.0,0.0,470.0,660.0,0.0,0,1870.0,1
759,759,-0.03977418644329955,-0.0,0.0,1.0,398.0,858.0,1.0,0,1744.0,1
760,760,0.8480545754261092,0.8,1.0,1.0,411.0,561.0,1.0,1,338.0,1
761,761,0.6323479300606126,0.6,1.0,1.0,498.0,629.0,1.0,1,203.0,1
762,762,-0.8187979319683293,-0.8,1.0,0.0,352.0,544.0,0.0,0,234.0,1
763,763,-0.31505459354386833,-0.3,1.0,0.0,343.0,754.0,0.0,0,273.0,1
764,764,-0.800780758656929,-0.8,0.0,1.0,276.0,669.0,1.0,0,205.0,1
765,765,-0.5128796761340824,-0.5,0.0,1.0,315.0,873.0,1.0,0,232.0,1
766,766,-0.7605016124161675,-0.8,1.0,0.0,456.0,686.0,0.0,0,228.0,1
767,767,-0.6474436445489415,-0.6,0.0,1.0,323.0,623.0,1.0,0,294.0,1
768,768,0.66164335695958,0.7,1.0,1.0,357.0,833.0,1.0,1,80.0,1
769,769,-0.6310255935161011,-0.6,0.0,1.0,348.0,653.0,1.0,0,189.0,1
770,770,0.47525860728591807,0.5,1.0,1.0,368.0,840.0,1.0,1,342.0,1
771,771,0.4634449490221345,0.5,0.0,0.0,330.0,968.0,0.0,1,152.0,1
772,772,-0.12629630790273194,-0.1,1.0,0.0,378.0,851.0,0.0,0,941.0,1
773,773,-0.4877732469202701,-0.5,0.0,1.0,315.0,872.0,1.0,0,163.0,1
774,774,-0.26126675239085584,-0.3,0.0,1.0,401.0,855.0,1.0,0,244.0,1
775,775,-0.7054225457713797,-0.7,1.0,0.0,370.0,534.0,0.0,0,476.0,1
776,776,0.6944510094200192,0.7,1.0,1.0,250.0,995.0,1.0,1,145.0,1
777,777,0.20066414453671688,0.2,0.0,0.0,263.0,671.0,0.0,1,576.0,1
778,778,0.13714537375020963,0.1,1.0,1.0,395.0,726.0,1.0,1,299.0,1
779,779,-0.7901736145752418,-0.8,1.0,0.0,262.0,600.0,0.0,0,308.0,1
780,780,0.5882164931065953,0.6,0.0,0.0,362.0,518.0,0.0,1,240.0,1
781,781,0.34092514900438176,0.3,0.0,0.0,301.0,764.0,0.0,1,535.0,1
782,782,-0.7115395061641857,-0.7,0.0,1.0,472.0,678.0,1.0,0,140.0,1
783,783,0.2875923904570824,0.3,0.0,0.0,272.0,669.0,0.0,1,499.0,1
784,784,-0.3694668311607606,-0.4,1.0,0.0,334.0,553.0,0.0,0,493.0,1
785,785,-0.15621043952829916,-0.2,1.0,0.0,394.0,921.0,0.0,0,865.0,1
786,786,-0.4001269807969637,-0.4,0.0,1.0,467.0,750.0,1.0,0,323.0,1
787,787,0.0032958925276126427,0.0,0.0,0.0,452.0,521.0,1.0,0,2027.0,0
788,788,-0.7327913507598497,-0.7,1.0,0.0,311.0,942.0,0.0,0,337.0,1
789,789,-0.76612217968991,-0.8,0.0,1.0,392.0,974.0,1.0,0,134.0,1
790,790,0.42268312774641725,0.4,1.0,1.0,280.0,814.0,1.0,1,196.0,1
791,791,-0.7676679994228607,-0.8,1.0,0.0,417.0,556.0,0.0,0,517.0,1
792,792,-0.2508505805167036,-0.3,1.0,0.0,272.0,636.0,0.0,0,482.0,1
793,793,0.0511127309768743,0.1,1.0,1.0,487.0,644.0,1.0,1,1079.0,1
794,794,-0.32306426235713137,-0.3,0.0,1.0,303.0,973.0,1.0,0,234.0,1
795,795,0.27207891759100666,0.3,1.0,1.0,360.0,679.0,1.0,1,491.0,1
796,796,0.25007324883081516,0.3,0.0,0.0,332.0,863.0,0.0,1,345.0,1
797,797,-0.42519293089206517,-0.4,0.0,1.0,356.0,817.0,1.0,0,387.0,1
798,798,-0.6903120364598495,-0.7,1.0,0.0,314.0,667.0,0.0,0,269.0,1
799,799,-0.7594567116836314,-0.8,0.0,1.0,280.0,571.0,1.0,0,229.0,1
800,800,-0.06685915393151509,-0.1,1.0,0.0,288.0,839.0,1.0,1,1873.0,0
801,801,0.7055875443536118,0.7,1.0,1.0,426.0,516.0,1.0,1,318.0,1
802,802,-0.4327631896892595,-0.4,0.0,1.0,374.0,770.0,1.0,0,96.0,1
803,803,-0.4252384965220318,-0.4,0.0,1.0,428.0,543.0,1.0,0,489.0,1
804,804,0.6059977205898238,0.6,0.0,0.0,423.0,897.0,0.0,1,250.0,1
805,805,-0.09151603015597731,-0.1,1.0,0.0,355.0,541.0,0.0,0,1974.0,1
806,806,-0.08110989784377787,-0.1,0.0,1.0,442.0,841.0,1.0,0,367.0,1
807,807,-0.8539718095933729,-0.9,0.0,1.0,301.0,811.0,1.0,0,308.0,1
808,808,0.23043038321285592,0.2,1.0,1.0,287.0,623.0,1.0,1,430.0,1
809,809,0.4057540580414801,0.4,0.0,0.0,327.0,678.0,0.0,1,555.0,1
810,810,-0.2452733884799273,-0.2,0.0,1.0,427.0,541.0,1.0,0,502.0,1
811,811,0.37876691182630295,0.4,0.0,0.0,438.0,683.0,0.0,1,759.0,1
812,812,-0.010904896947896092,-0.0,0.0,1.0,473.0,752.0,0.0,1,1775.0,0
813,813,0.7579250394023266,0.8,1.0,1.0,425.0,699.0,1.0,1,316.0,1
814,814,0.659416324654918,0.7,1.0,1.0,271.0,883.0,1.0,1,416.0,1
815,815,-0.535799395895697,-0.5,0.0,1.0,430.0,726.0,1.0,0,194.0,1
816,816,0.1851898632404002,0.2,1.0,1.0,259.0,917.0,1.0,1,574.0,1
817,817,0.8344610910421318,0.8,1.0,1.0,431.0,825.0,1.0,1,174.0,1
818,818,0.7848107872298303,0.8,0.0,0.0,303.0,865.0,0.0,1,372.0,1
819,819,-0.5022152929350998,-0.5,0.0,1.0,493.0,735.0,1.0,0,232.0,1
820,820,0.7384211961943407,0.7,0.0,0.0,283.0,859.0,0.0,1,248.0,1
821,821,-0.43413081152186467,-0.4,0.0,1.0,335.0,516.0,1.0,0,459.0,1
822,822,0.8041860559888262,0.8,1.0,1.0,287.0,630.0,1.0,1,213.0,1
823,823,-0.5383715412978234,-0.5,1.0,0.0,319.0,980.0,0.0,0,381.0,1
824,824,-0.37512088429174684,-0.4,0.0,1.0,292.0,950.0,1.0,0,108.0,1
825,825,-0.6541835146103461,-0.7,1.0,0.0,312.0,899.0,0.0,0,199.0,1
826,826,0.47736346500515137,0.5,0.0,0.0,289.0,728.0,0.0,1,163.0,1
827,827,0.691794633868334,0.7,1.0,1.0,386.0,647.0,1.0,1,347.0,1
828,828,-0.8963301204268579,-0.9,0.0,1.0,319.0,931.0,1.0,0,220.0,1
829,829,-0.6172659148251459,-0.6,1.0,0.0,452.0,617.0,0.0,0,381.0,1
830,830,-0.28198537264587,-0.3,1.0,0.0,347.0,824.0,0.0,0,539.0,1
831,831,0.6239003009391292,0.6,1.0,1.0,397.0,533.0,1.0,1,190.0,1
832,832,-0.09484074849042468,-0.1,0.0,1.0,253.0,938.0,1.0,0,739.0,1
833,833,-0.12238648491882687,-0.1,0.0,1.0,459.0,655.0,1.0,0,446.0,1
834,834,0.6099160474185824,0.6,1.0,1.0,255.0,888.0,1.0,1,167.0,1
835,835,0.8276635698291096,0.8,1.0,1.0,267.0,977.0,1.0,1,176.0,1
836,836,0.5529579435334325,0.6,1.0,1.0,411.0,779.0,1.0,1,250.0,1
837,837,0.0806039317280618,0.1,0.0,0.0,454.0,572.0,0.0,1,574.0,1
838,838,0.6202055069794677,0.6,0.0,0.0,273.0,745.0,0.0,1,282.0,1
839,839,0.6198495145030681,0.6,0.0,0.0,465.0,520.0,0.0,1,455.0,1
840,840,0.07377283197370121,0.1,1.0,1.0,481.0,774.0,1.0,1,1745.0,1
841,841,0.42096889255541947,0.4,1.0,1.0,258.0,537.0,1.0,1,315.0,1
842,842,0.17937907658442998,0.2,1.0,1.0,411.0,713.0,1.0,1,766.0,1
843,843,-0.8906411626829261,-0.9,1.0,0.0,396.0,660.0,0.0,0,244.0,1
844,844,-0.12038958403412103,-0.1,1.0,0.0,380.0,769.0,0.0,0,521.0,1
845,845,-0.7771562042371631,-0.8,0.0,1.0,459.0,511.0,1.0,0,280.0,1
846,846,-0.8610015484049888,-0.9,0.0,1.0,388.0,655.0,1.0,0,227.0,1
847,847,0.15391384904767158,0.2,1.0,1.0,285.0,898.0,1.0,1,297.0,1
848,848,0.08919265944358012,0.1,1.0,1.0,366.0,675.0,1.0,1,1719.0,1
849,849,-0.07423800870362052,-0.1,1.0,0.0,444.0,541.0,0.0,0,2015.0,1
850,850,0.3912307430891887,0.4,0.0,0.0,417.0,951.0,0.0,1,62.0,1
851,851,0.025758666197788438,0.0,0.0,0.0,394.0,665.0,1.0,0,1941.0,0
852,852,0.01710894662512863,0.0,1.0,1.0,353.0,795.0,1.0,1,1322.0,1
853,853,-0.19983706247648403,-0.2,1.0,0.0,329.0,515.0,0.0,0,676.0,1
854,854,-0.38812349560624115,-0.4,1.0,0.0,390.0,844.0,0.0,0,166.0,1
855,855,-0.6457817695905208,-0.6,1.0,0.0,279.0,818.0,0.0,0,123.0,1
856,856,-0.7223055487158665,-0.7,1.0,0.0,309.0,790.0,0.0,0,181.0,1
857,857,0.0673206214990294,0.1,1.0,1.0,398.0,513.0,1.0,1,829.0,1
858,858,-0.8477161381810564,-0.8,1.0,0.0,428.0,595.0,0.0,0,247.0,1
859,859,0.023627531432635407,0.0,1.0,1.0,462.0,698.0,1.0,1,1320.0,1
860,860,0.1782696835681049,0.2,1.0,1.0,323.0,935.0,1.0,1,352.0,1
861,861,-0.7413527314502928,-0.7,1.0,0.0,268.0,863.0,0.0,0,259.0,1
862,862,0.3630215467588217,0.4,1.0,1.0,319.0,517.0,1.0,1,354.0,1
863,863,-0.2552343893140224,-0.3,1.0,0.0,431.0,839.0,0.0,0,330.0,1
864,864,-0.580401536647843,-0.6,1.0,0.0,313.0,986.0,0.0,0,241.0,1
865,865,-0.11483607169505616,-0.1,1.0,0.0,342.0,647.0,0.0,0,1541.0,1
866,866,-0.7074355309703866,-0.7,1.0,0.0,325.0,852.0,0.0,0,263.0,1
867,867,-0.6614322209350347,-0.7,0.0,1.0,400.0,832.0,1.0,0,38.0,1
868,868,0.1448057089520688,0.1,0.0,0.0,379.0,636.0,0.0,1,555.0,1
869,869,-0.6236523585282603,-0.6,1.0,0.0,498.0,696.0,0.0,0,186.0,1
870,870,0.8476173738885692,0.8,0.0,0.0,382.0,857.0,0.0,1,201.0,1
871,871,0.4501768898202462,0.5,0.0,0.0,399.0,863.0,0.0,1,248.0,1
872,872,0.29285683905648263,0.3,1.0,1.0,481.0,638.0,1.0,1,271.0,1
873,873,0.7444721944893219,0.7,0.0,0.0,461.0,778.0,0.0,1,201.0,1
874,874,0.06756268985296587,0.1,1.0,1.0,391.0,908.0,1.0,1,571.0,1
875,875,-0.7279545555178112,-0.7,0.0,1.0,388.0,744.0,1.0,0,148.0,1
876,876,0.41806586354904673,0.4,1.0,1.0,366.0,728.0,1.0,1,236.0,1
877,877,-0.7538121534322826,-0.8,0.0,1.0,426.0,878.0,1.0,0,206.0,1
878,878,0.7014343896887948,0.7,1.0,1.0,450.0,742.0,1.0,1,248.0,1
879,879,0.1063644675178389,0.1,1.0,1.0,282.0,804.0,1.0,1,304.0,1
880,880,0.05402603987743759,0.1,1.0,1.0,423.0,902.0,1.0,1,1215.0,1
881,881,-0.24385434760490932,-0.2,1.0,0.0,356.0,769.0,0.0,0,465.0,1
882,882,-0.8605263926762361,-0.9,1.0,0.0,362.0,804.0,0.0,0,154.0,1
883,883,0.889793262351322,0.9,1.0,1.0,460.0,922.0,1.0,1,108.0,1
884,884,-0.5689977916506599,-0.6,1.0,0.0,447.0,987.0,0.0,0,176.0,1
885,885,-0.16373646877338344,-0.2,1.0,0.0,418.0,804.0,0.0,0,328.0,1
886,886,0.30898172217374287,0.3,0.0,0.0,354.0,922.0,0.0,1,254.0,1
887,887,-0.28006776815844847,-0.3,1.0,0.0,487.0,606.0,0.0,0,747.0,1
888,888,-0.44576098866715613,-0.4,0.0,1.0,393.0,954.0,1.0,0,183.0,1
889,889,0.824720799277232,0.8,1.0,1.0,292.0,904.0,1.0,1,114.0,1
890,890,-0.686854963192143,-0.7,0.0,1.0,334.0,931.0,1.0,0,195.0,1
891,891,0.8879119425193204,0.9,0.0,0.0,295.0,997.0,0.0,1,278.0,1
892,892,-0.5134339450853915,-0.5,1.0,0.0,271.0,706.0,0.0,0,173.0,1
893,893,-0.06452676626508069,-0.1,0.0,1.0,336.0,884.0,1.0,0,670.0,1
894,894,0.8463306940067356,0.8,0.0,0.0,455.0,564.0,0.0,1,111.0,1
895,895,-0.15920618491547678,-0.2,0.0,1.0,357.0,709.0,1.0,0,334.0,1
896,896,-0.2439869274283606,-0.2,1.0,0.0,317.0,716.0,0.0,0,437.0,1
897,897,-0.3790641473113069,-0.4,1.0,0.0,390.0,736.0,0.0,0,744.0,1
898,898,-0.7844343550228778,-0.8,1.0,0.0,348.0,673.0,0.0,0,269.0,1
899,899,0.2028941347117016,0.2,0.0,0.0,346.0,842.0,0.0,1,202.0,1
900,900,0.3900951240066072,0.4,1.0,1.0,403.0,541.0,1.0,1,376.0,1
901,901,0.30547738775540345,0.3,1.0,1.0,339.0,891.0,1.0,1,600.0,1
902,902,-0.7465736329615345,-0.7,0.0,1.0,421.0,983.0,1.0,0,306.0,1
903,903,-0.6361292273149732,-0.6,0.0,1.0,404.0,971.0,1.0,0,275.0,1
904,904,-0.33520444933960547,-0.3,1.0,0.0,396.0,795.0,0.0,0,299.0,1
905,905,-0.1015053780259626,-0.1,0.0,1.0,385.0,883.0,1.0,0,402.0,1
906,906,0.3495816544661562,0.3,0.0,0.0,255.0,976.0,0.0,1,759.0,1
907,907,-0.5038525795885318,-0.5,0.0,1.0,387.0,595.0,1.0,0,348.0,1
908,908,0.18465412442889584,0.2,0.0,0.0,475.0,648.0,0.0,1,467.0,1
909,909,-0.18602425273248824,-0.2,1.0,0.0,474.0,858.0,0.0,0,198.0,1
910,910,-0.6284033949103633,-0.6,0.0,1.0,494.0,883.0,1.0,0,253.0,1
911,911,-0.17884604311170704,-0.2,0.0,1.0,296.0,501.0,1.0,0,563.0,1
912,912,-0.3239248265528849,-0.3,1.0,0.0,298.0,906.0,0.0,0,296.0,1
913,913,0.4553152050130339,0.5,1.0,1.0,378.0,672.0,1.0,1,200.0,1
914,914,-0.22504010041528055,-0.2,0.0,1.0,391.0,800.0,1.0,0,339.0,1
915,915,0.07778014577828918,0.1,1.0,1.0,272.0,621.0,1.0,1,457.0,1
916,916,0.47298825044743154,0.5,1.0,1.0,389.0,762.0,1.0,1,219.0,1
917,917,0.23322983769068306,0.2,1.0,1.0,341.0,589.0,1.0,1,470.0,1
918,918,-0.8743461544094744,-0.9,1.0,0.0,262.0,633.0,0.0,0,435.0,1
919,919,-0.11180402619120167,-0.1,0.0,1.0,497.0,812.0,1.0,0,181.0,1
920,920,-0.07684343259350579,-0.1,0.0,1.0,366.0,540.0,1.0,0,2094.0,1
921,921,-0.6475110255787375,-0.6,1.0,0.0,482.0,552.0,0.0,0,536.0,1
922,922,-0.2546270538889136,-0.3,1.0,0.0,413.0,603.0,0.0,0,284.0,1
923,923,-0.5123135128874285,-0.5,1.0,0.0,265.0,988.0,0.0,0,427.0,1
924,924,-0.2549620097885382,-0.3,0.0,1.0,274.0,583.0,1.0,0,423.0,1
925,925,0.22349348020001203,0.2,1.0,1.0,481.0,880.0,1.0,1,59.0,1
926,926,0.4031755991576548,0.4,1.0,1.0,290.0,781.0,1.0,1,269.0,1
927,927,-0.5395039943231467,-0.5,1.0,0.0,252.0,992.0,0.0,0,286.0,1
928,928,-0.6714533678241866,-0.7,1.0,0.0,480.0,556.0,0.0,0,604.0,1
929,929,-0.5159633670133568,-0.5,0.0,1.0,486.0,593.0,1.0,0,191.0,1
930,930,0.17776559914783474,0.2,0.0,0.0,298.0,592.0,0.0,1,630.0,1
931,931,-0.6761429774746869,-0.7,0.0,1.0,344.0,958.0,1.0,0,128.0,1
932,932,0.519929678423089,0.5,1.0,1.0,350.0,656.0,1.0,1,364.0,1
933,933,-0.41050736445448366,-0.4,0.0,1.0,470.0,864.0,1.0,0,146.0,1
934,934,-0.6364189486993371,-0.6,0.0,1.0,465.0,954.0,1.0,0,261.0,1
935,935,0.2519245792886228,0.3,0.0,0.0,282.0,839.0,0.0,1,329.0,1
936,936,0.7826794033419774,0.8,1.0,1.0,271.0,753.0,1.0,1,416.0,1
937,937,-0.02275245395012826,-0.0,1.0,0.0,427.0,955.0,0.0,0,1618.0,1
938,938,-0.69791916471991,-0.7,0.0,1.0,273.0,739.0,1.0,0,218.0,1
939,939,0.082610557780469,0.1,1.0,1.0,365.0,747.0,1.0,1,968.0,1
940,940,0.6792097215427201,0.7,0.0,0.0,471.0,902.0,0.0,1,307.0,1
941,941,0.8349772451321374,0.8,0.0,0.0,283.0,661.0,0.0,1,156.0,1
942,942,0.49401471545745246,0.5,0.0,0.0,352.0,957.0,0.0,1,311.0,1
943,943,0.638123228121538,0.6,1.0,1.0,351.0,711.0,1.0,1,188.0,1
944,944,-0.14832520093219936,-0.1,0.0,1.0,312.0,751.0,1.0,0,327.0,1
945,945,0.12128115665820893,0.1,1.0,1.0,285.0,941.0,1.0,1,484.0,1
946,946,-0.015677990992193136,-0.0,1.0,0.0,396.0,617.0,1.0,1,1987.0,0
947,947,-0.3629357919573225,-0.4,1.0,0.0,399.0,665.0,0.0,0,286.0,1
948,948,0.8054682534532341,0.8,1.0,1.0,424.0,719.0,1.0,1,287.0,1
949,949,-0.38865451781922933,-0.4,1.0,0.0,409.0,858.0,0.0,0,223.0,1
950,950,-0.6527019182780796,-0.7,0.0,1.0,360.0,801.0,1.0,0,119.0,1
951,951,-0.5969524878279593,-0.6,1.0,0.0,308.0,995.0,0.0,0,107.0,1
952,952,-0.10723962255820807,-0.1,0.0,1.0,286.0,976.0,1.0,0,388.0,1
953,953,0.11477580807345256,0.1,0.0,0.0,263.0,610.0,0.0,1,577.0,1
954,954,0.22595573497855892,0.2,0.0,0.0,314.0,643.0,0.0,1,453.0,1
955,955,-0.3799071015085066,-0.4,1.0,0.0,285.0,698.0,0.0,0,477.0,1
956,956,0.6108307444973328,0.6,0.0,0.0,336.0,801.0,0.0,1,203.0,1
957,957,0.8614946779789531,0.9,0.0,0.0,275.0,952.0,0.0,1,263.0,1
958,958,0.33030663147781436,0.3,1.0,1.0,497.0,974.0,1.0,1,289.0,1
959,959,0.3305322333577393,0.3,1.0,1.0,274.0,711.0,1.0,1,265.0,1
960,960,-0.7377647442800827,-0.7,0.0,1.0,365.0,602.0,1.0,0,353.0,1
961,961,0.8152595208950083,0.8,1.0,1.0,305.0,745.0,1.0,1,210.0,1
962,962,-0.5134380989994369,-0.5,0.0,1.0,417.0,592.0,1.0,0,321.0,1
963,963,0.12475690030128284,0.1,1.0,1.0,275.0,784.0,1.0,1,391.0,1
964,964,0.008848337421281549,0.0,0.0,0.0,498.0,630.0,0.0,1,1872.0,1
965,965,-0.384318291952379,-0.4,0.0,1.0,311.0,794.0,1.0,0,175.0,1
966,966,-0.6158740013667391,-0.6,1.0,0.0,493.0,564.0,0.0,0,353.0,1
967,967,0.8528964850703701,0.9,1.0,1.0,438.0,523.0,1.0,1,289.0,1
968,968,-0.07672856846480713,-0.1,1.0,0.0,331.0,994.0,0.0,0,575.0,1
969,969,0.11106944920005934,0.1,0.0,0.0,391.0,983.0,0.0,1,736.0,1
970,970,-0.033914393059015446,-0.0,1.0,0.0,368.0,705.0,0.0,0,1927.0,1
971,971,-0.7975944814493517,-0.8,0.0,1.0,354.0,984.0,1.0,0,142.0,1
972,972,0.8332177099743486,0.8,1.0,1.0,431.0,529.0,1.0,1,250.0,1
973,973,-0.18006000430880487,-0.2,1.0,0.0,277.0,921.0,0.0,0,232.0,1
974,974,-0.7606311654313537,-0.8,1.0,0.0,491.0,836.0,0.0,0,143.0,1
975,975,0.10026360262300205,0.1,1.0,1.0,420.0,765.0,1.0,1,305.0,1
976,976,-0.7997527053927,-0.8,0.0,1.0,284.0,823.0,1.0,0,153.0,1
977,977,-0.16509802150532038,-0.2,1.0,0.0,442.0,945.0,0.0,0,543.0,1
978,978,-0.7430210546382947,-0.7,1.0,0.0,305.0,705.0,0.0,0,370.0,1
979,979,-0.7430379335124184,-0.7,0.0,1.0,323.0,621.0,1.0,0,326.0,1
980,980,0.5523415316603256,0.6,0.0,0.0,446.0,742.0,0.0,1,192.0,1
981,981,-0.33668820630379137,-0.3,0.0,1.0,394.0,855.0,1.0,0,201.0,1
982,982,0.5236488917756,0.5,0.0,0.0,419.0,774.0,0.0,1,127.0,1
983,983,0.36507768379303107,0.4,0.0,0.0,380.0,975.0,0.0,1,215.0,1
984,984,0.3398272450950047,0.3,1.0,1.0,432.0,826.0,1.0,1,412.0,1
985,985,0.31067789616676367,0.3,1.0,1.0,305.0,868.0,1.0,1,347.0,1
986,986,0.41092205088047773,0.4,0.0,0.0,372.0,899.0,0.0,1,239.0,1
987,987,-0.824206713561958,-0.8,0.0,1.0,314.0,873.0,1.0,0,123.0,1
988,988,0.7708083100870676,0.8,1.0,1.0,253.0,642.0,1.0,1,155.0,1
989,989,-0.0011412120747485988,-0.0,0.0,1.0,383.0,814.0,1.0,0,1803.0,1
990,990,-0.449036266003654,-0.4,0.0,1.0,358.0,748.0,1.0,0,324.0,1
991,991,-0.2759072712700845,-0.3,0.0,1.0,492.0,611.0,1.0,0,307.0,1
992,992,0.34567186246517745,0.3,1.0,1.0,432.0,858.0,1.0,1,150.0,1
993,993,0.11973967376193506,0.1,1.0,1.0,394.0,589.0,1.0,1,477.0,1
994,994,0.8394335351319607,0.8,1.0,1.0,460.0,849.0,1.0,1,181.0,1
995,995,-0.8554364239940597,-0.9,1.0,0.0,347.0,836.0,0.0,0,377.0,1
996,996,-0.6207801606086127,-0.6,1.0,0.0,272.0,800.0,0.0,0,228.0,1
997,997,-0.7967366961147129,-0.8,0.0,1.0,432.0,734.0,1.0,0,284.0,1
998,998,-0.09880541453369918,-0.1,0.0,1.0,486.0,978.0,1.0,0,286.0,1
999,999,0.34453079514948415,0.3,1.0,1.0,442.0,669.0,1.0,1,489.0,1
1000,1000,0.636203575257276,0.6,1.0,1.0,421.0,767.0,1.0,1,242.0,1
1001,1001,0.19097235322462625,0.2,1.0,1.0,343.0,672.0,1.0,1,385.0,1
1002,1002,0.30738486033708223,0.3,1.0,1.0,369.0,678.0,1.0,1,453.0,1
1003,1003,0.7655040078670797,0.8,1.0,1.0,381.0,755.0,1.0,1,224.0,1
1004,1004,-0.661211132217976,-0.7,0.0,1.0,450.0,678.0,1.0,0,152.0,1
1005,1005,-0.837300060771916,-0.8,0.0,1.0,381.0,552.0,1.0,0,257.0,1
1006,1006,0.24467909283965483,0.2,0.0,0.0,384.0,505.0,0.0,1,701.0,1
1007,1007,-0.35240811224596824,-0.4,1.0,0.0,437.0,837.0,0.0,0,366.0,1
1008,1008,-0.09920929866112926,-0.1,1.0,0.0,429.0,837.0,0.0,0,454.0,1
1009,1009,-0.14067273675759084,-0.1,0.0,1.0,429.0,700.0,1.0,0,581.0,1
1010,1010,-0.2726660689224465,-0.3,1.0,0.0,467.0,661.0,0.0,0,422.0,1
1011,1011,-0.3911119941733012,-0.4,0.0,1.0,465.0,547.0,1.0,0,318.0,1
1012,1012,-0.8318220675022027,-0.8,1.0,0.0,435.0,951.0,0.0,0,174.0,1
1013,1013,-0.28937195780165825,-0.3,0.0,1.0,463.0,665.0,1.0,0,302.0,1
1014,1014,0.6263252219009573,0.6,1.0,1.0,267.0,505.0,1.0,1,178.0,1
1015,1015,-0.3605835406340496,-0.4,0.0,1.0,313.0,684.0,1.0,0,353.0,1
1016,1016,-0.5340743374874618,-0.5,0.0,1.0,339.0,864.0,1.0,0,267.0,1
1017,1017,0.21094373529107002,0.2,0.0,0.0,462.0,898.0,0.0,1,300.0,1
1018,1018,-0.5689999957933256,-0.6,0.0,1.0,331.0,559.0,1.0,0,170.0,1
1019,1019,0.2797857301577943,0.3,1.0,1.0,393.0,679.0,1.0,1,458.0,1
1020,1020,-0.5635743663603046,-0.6,1.0,0.0,256.0,628.0,0.0,0,196.0,1
1021,1021,0.4684839463082403,0.5,0.0,0.0,411.0,991.0,0.0,1,128.0,1
1022,1022,-0.2669384011474568,-0.3,0.0,1.0,258.0,531.0,1.0,0,421.0,1
1023,1023,-0.5304313195648022,-0.5,0.0,1.0,474.0,596.0,1.0,0,290.0,1
1024,1024,0.3609138577529626,0.4,1.0,1.0,305.0,649.0,1.0,1,416.0,1
1025,1025,-0.8905700109480057,-0.9,0.0,1.0,322.0,828.0,1.0,0,190.0,1
1026,1026,0.7219244607957641,0.7,0.0,0.0,358.0,626.0,0.0,1,356.0,1
1027,1027,-0.23974297506884612,-0.2,0.0,1.0,485.0,918.0,1.0,0,217.0,1
1028,1028,-0.5397484874733156,-0.5,0.0,1.0,273.0,594.0,1.0,0,413.0,1
1029,1029,-0.7152316714392026,-0.7,0.0,1.0,285.0,590.0,1.0,0,215.0,1
1030,1030,0.8967557844738346,0.9,1.0,1.0,282.0,802.0,1.0,1,166.0,1
1031,1031,0.3186612902620264,0.3,0.0,0.0,446.0,872.0,0.0,1,1552.0,1
1032,1032,-0.11393820523175524,-0.1,1.0,0.0,388.0,781.0,0.0,0,851.0,1
1033,1033,0.013089951192390092,0.0,1.0,1.0,373.0,824.0,1.0,1,623.0,1
1034,1034,-0.3293841675290722,-0.3,0.0,1.0,498.0,792.0,1.0,0,200.0,1
1035,1035,0.8206061037618119,0.8,1.0,1.0,435.0,937.0,1.0,1,108.0,1
1036,1036,0.21774479378114442,0.2,1.0,1.0,432.0,823.0,1.0,1,345.0,1
1037,1037,0.1386899795987745,0.1,0.0,0.0,392.0,771.0,0.0,1,467.0,1
1038,1038,-0.5576814840133086,-0.6,0.0,1.0,433.0,566.0,1.0,0,271.0,1
1039,1039,0.7189605403168232,0.7,1.0,1.0,476.0,919.0,1.0,1,145.0,1
1040,1040,0.3116082266032011,0.3,1.0,1.0,302.0,797.0,1.0,1,91.0,1
1041,1041,-0.00453388425981327,-0.0,0.0,1.0,375.0,717.0,1.0,0,1908.0,1
1042,1042,-0.2847208005524995,-0.3,1.0,0.0,427.0,708.0,0.0,0,365.0,1
1043,1043,0.4994512389426974,0.5,0.0,0.0,404.0,534.0,0.0,1,212.0,1
1044,1044,-0.7491476459708228,-0.7,0.0,1.0,420.0,633.0,1.0,0,167.0,1
1045,1045,0.48113618818670234,0.5,0.0,0.0,478.0,959.0,0.0,1,203.0,1
1046,1046,-0.8678193476500695,-0.9,0.0,1.0,331.0,885.0,1.0,0,164.0,1
1047,1047,0.10536722006704002,0.1,0.0,0.0,434.0,559.0,1.0,0,2007.0,0
1048,1048,0.6113368089881376,0.6,1.0,1.0,365.0,755.0,1.0,1,180.0,1
1049,1049,-0.02940583041104672,-0.0,1.0,0.0,344.0,773.0,0.0,0,1883.0,1
1050,1050,-0.850346745382758,-0.9,1.0,0.0,375.0,910.0,0.0,0,595.0,1
1051,1051,0.7451339078339049,0.7,0.0,0.0,283.0,774.0,0.0,1,243.0,1
1052,1052,-0.08031926158193092,-0.1,1.0,0.0,365.0,866.0,0.0,0,639.0,1
1053,1053,0.6847441686915848,0.7,0.0,0.0,328.0,800.0,0.0,1,142.0,1
1054,1054,0.2666236685394904,0.3,0.0,0.0,261.0,620.0,0.0,1,599.0,1
1055,1055,-0.6682764805640031,-0.7,1.0,0.0,343.0,935.0,0.0,0,162.0,1
1056,1056,-0.6977753291433733,-0.7,0.0,1.0,409.0,734.0,1.0,0,187.0,1
1057,1057,0.20454881867523877,0.2,0.0,0.0,447.0,800.0,0.0,1,313.0,1
1058,1058,0.7639595751269271,0.8,1.0,1.0,483.0,912.0,1.0,1,75.0,1
1059,1059,-0.13006458071342275,-0.1,0.0,1.0,424.0,909.0,1.0,0,517.0,1
1060,1060,-0.5845747529379419,-0.6,1.0,0.0,311.0,514.0,0.0,0,395.0,1
1061,1061,0.3597461642772096,0.4,1.0,1.0,426.0,658.0,1.0,1,236.0,1
1062,1062,-0.050713060591508485,-0.1,1.0,0.0,324.0,995.0,0.0,0,1681.0,1
1063,1063,0.36355715444272596,0.4,1.0,1.0,385.0,594.0,1.0,1,351.0,1
1064,1064,-0.4706493768133169,-0.5,0.0,1.0,486.0,833.0,1.0,0,181.0,1
1065,1065,0.6882123149520624,0.7,0.0,0.0,309.0,526.0,0.0,1,575.0,1
1066,1066,-0.5922035312004261,-0.6,0.0,1.0,485.0,840.0,1.0,0,185.0,1
1067,1067,-0.2757775542115619,-0.3,0.0,1.0,347.0,713.0,1.0,0,520.0,1
1068,1068,0.8295343230594768,0.8,0.0,0.0,480.0,526.0,0.0,1,404.0,1
1069,1069,-0.7716450873405518,-0.8,0.0,1.0,284.0,961.0,1.0,0,25.0,1
1070,1070,-0.6142281458306873,-0.6,1.0,0.0,283.0,975.0,0.0,0,272.0,1
1071,1071,-0.674332406029325,-0.7,1.0,0.0,467.0,600.0,0.0,0,543.0,1
1072,1072,0.38822445695582297,0.4,0.0,0.0,436.0,577.0,0.0,1,267.0,1
1073,1073,0.19742193004030228,0.2,1.0,1.0,336.0,751.0,1.0,1,593.0,1
1074,1074,0.18208594690342383,0.2,0.0,0.0,455.0,559.0,0.0,1,556.0,1
1075,1075,-0.193869036645395,-0.2,0.0,1.0,450.0,690.0,1.0,0,280.0,1
1076,1076,-0.5140597217310638,-0.5,1.0,0.0,351.0,677.0,0.0,0,482.0,1
1077,1077,-0.40254338004671497,-0.4,1.0,0.0,362.0,763.0,0.0,0,165.0,1
1078,1078,-0.3599025559722421,-0.4,1.0,0.0,493.0,835.0,0.0,0,122.0,1
1079,1079,0.08577116641868876,0.1,1.0,1.0,296.0,783.0,1.0,1,871.0,1
1080,1080,0.7492283411458037,0.7,0.0,0.0,354.0,642.0,0.0,1,454.0,1
1081,1081,-0.6893840225128605,-0.7,0.0,1.0,315.0,618.0,1.0,0,187.0,1
1082,1082,0.4000743042287628,0.4,0.0,0.0,390.0,855.0,0.0,1,315.0,1
1083,1083,0.7810290061370354,0.8,0.0,0.0,420.0,950.0,0.0,1,260.0,1
1084,1084,0.09315678390824833,0.1,1.0,1.0,338.0,976.0,1.0,1,906.0,1
1085,1085,0.8183114035825613,0.8,0.0,0.0,419.0,723.0,0.0,1,288.0,1
1086,1086,0.8984065641351698,0.9,0.0,0.0,487.0,566.0,0.0,1,377.0,1
1087,1087,0.46770861863816726,0.5,1.0,1.0,400.0,565.0,1.0,1,305.0,1
1088,1088,-0.27479802749128956,-0.3,0.0,1.0,497.0,955.0,1.0,0,348.0,1
1089,1089,0.09275032807633599,0.1,0.0,0.0,367.0,618.0,0.0,1,365.0,1
1090,1090,-0.7916433926120259,-0.8,1.0,0.0,415.0,713.0,0.0,0,182.0,1
1091,1091,0.5786943931758434,0.6,0.0,0.0,363.0,570.0,0.0,1,267.0,1
1092,1092,0.3204491006425719,0.3,0.0,0.0,442.0,524.0,0.0,1,1134.0,1
1093,1093,0.3386062794703223,0.3,0.0,0.0,312.0,712.0,0.0,1,236.0,1
1094,1094,-0.8732127194181944,-0.9,0.0,1.0,433.0,701.0,1.0,0,216.0,1
1095,1095,-0.8208821351436759,-0.8,0.0,1.0,478.0,610.0,1.0,0,192.0,1
1096,1096,-0.6091835091124234,-0.6,1.0,0.0,279.0,901.0,0.0,0,400.0,1
1097,1097,0.4100456491806911,0.4,1.0,1.0,267.0,934.0,1.0,1,269.0,1
1098,1098,0.6286503426721012,0.6,1.0,1.0,471.0,502.0,1.0,1,197.0,1
1099,1099,-0.607761841348098,-0.6,1.0,0.0,445.0,934.0,0.0,0,371.0,1
1100,1100,-0.7564718245748376,-0.8,1.0,0.0,331.0,820.0,0.0,0,289.0,1
1101,1101,0.19155442134451228,0.2,0.0,0.0,406.0,616.0,0.0,1,988.0,1
1102,1102,0.40159023219575707,0.4,0.0,0.0,465.0,946.0,1.0,0,-291.0,0
1103,1103,-0.40340595138470253,-0.4,1.0,0.0,482.0,805.0,0.0,0,173.0,1
1104,1104,0.6033459123137702,0.6,1.0,1.0,280.0,716.0,1.0,1,264.0,1
1105,1105,0.020999899134268474,0.0,0.0,0.0,388.0,528.0,1.0,0,684.0,0
1106,1106,0.33846714992081395,0.3,0.0,0.0,426.0,837.0,0.0,1,447.0,1
1107,1107,0.7113088549868117,0.7,0.0,0.0,411.0,647.0,0.0,1,312.0,1
1108,1108,-0.13385951351435765,-0.1,1.0,0.0,323.0,596.0,0.0,0,551.0,1
1109,1109,-0.40358335924982935,-0.4,0.0,1.0,370.0,964.0,1.0,0,116.0,1
1110,1110,-0.4925491084563667,-0.5,1.0,0.0,376.0,938.0,0.0,0,276.0,1
1111,1111,0.30543342243598437,0.3,1.0,1.0,445.0,636.0,1.0,1,359.0,1
1112,1112,0.05288415784724598,0.1,1.0,1.0,337.0,889.0,1.0,1,464.0,1
1113,1113,0.2901106709194342,0.3,1.0,1.0,251.0,527.0,1.0,1,502.0,1
1114,1114,-0.15549570891413766,-0.2,1.0,0.0,424.0,708.0,0.0,0,518.0,1
1115,1115,0.20835689369716415,0.2,0.0,0.0,487.0,600.0,0.0,1,683.0,1
1116,1116,-0.026847470461042522,-0.0,1.0,0.0,277.0,631.0,1.0,1,2092.0,0
1117,1117,-0.06357365741840293,-0.1,1.0,0.0,423.0,562.0,0.0,0,535.0,1
1118,1118,-0.3840909036793688,-0.4,1.0,0.0,498.0,833.0,0.0,0,199.0,1
1119,1119,-0.67137687831005,-0.7,1.0,0.0,282.0,820.0,0.0,0,318.0,1
1120,1120,0.711746138111664,0.7,1.0,1.0,418.0,913.0,1.0,1,379.0,1
1121,1121,-0.10278943415120612,-0.1,0.0,1.0,265.0,860.0,1.0,0,135.0,1
1122,1122,-0.2840948564408461,-0.3,1.0,0.0,490.0,818.0,0.0,0,272.0,1
1123,1123,0.29280335057576357,0.3,1.0,1.0,430.0,839.0,1.0,1,91.0,1
1124,1124,-0.17302839474049692,-0.2,1.0,0.0,429.0,865.0,0.0,0,766.0,1
1125,1125,-0.000413802019572862,-0.0,0.0,1.0,342.0,603.0,1.0,0,2055.0,1
1126,1126,-0.798143808305168,-0.8,0.0,1.0,484.0,629.0,1.0,0,317.0,1
1127,1127,-0.7032289836154244,-0.7,1.0,0.0,250.0,785.0,0.0,0,245.0,1
1128,1128,-0.6926581764991983,-0.7,0.0,1.0,410.0,845.0,1.0,0,185.0,1
1129,1129,0.2904051100510848,0.3,1.0,1.0,396.0,893.0,1.0,1,521.0,1
1130,1130,0.6594717485438185,0.7,1.0,1.0,448.0,737.0,1.0,1,415.0,1
1131,1131,-0.2455411121263309,-0.2,1.0,0.0,368.0,908.0,0.0,0,634.0,1
1132,1132,-0.20067313552348576,-0.2,1.0,0.0,403.0,791.0,0.0,0,196.0,1
1133,1133,0.43668141362677504,0.4,1.0,1.0,264.0,615.0,1.0,1,381.0,1
1134,1134,-0.3767543983782885,-0.4,0.0,1.0,302.0,779.0,1.0,0,289.0,1
1135,1135,-0.41855520188127876,-0.4,0.0,1.0,460.0,994.0,1.0,0,136.0,1
1136,1136,-0.8988830384676028,-0.9,0.0,1.0,352.0,823.0,1.0,0,175.0,1
1137,1137,0.8646931660318423,0.9,1.0,1.0,314.0,931.0,1.0,1,255.0,1
1138,1138,-0.6110226421427836,-0.6,1.0,0.0,412.0,833.0,0.0,0,165.0,1
1139,1139,0.5171782612347203,0.5,0.0,0.0,387.0,538.0,0.0,1,805.0,1
1140,1140,0.8119900440344116,0.8,0.0,0.0,282.0,652.0,0.0,1,226.0,1
1141,1141,-0.1512959037527608,-0.2,1.0,0.0,306.0,981.0,0.0,0,633.0,1
1142,1142,0.80731246255589,0.8,0.0,0.0,477.0,961.0,0.0,1,252.0,1
1143,1143,0.31344150589287645,0.3,0.0,0.0,358.0,718.0,0.0,1,334.0,1
1144,1144,0.23932437173768395,0.2,1.0,1.0,430.0,901.0,1.0,1,169.0,1
1145,1145,0.3624423361955872,0.4,1.0,1.0,349.0,964.0,1.0,1,287.0,1
1146,1146,0.5971838205218897,0.6,0.0,0.0,251.0,720.0,0.0,1,359.0,1
1147,1147,0.4528352603873512,0.5,0.0,0.0,265.0,859.0,0.0,1,196.0,1
1148,1148,-0.13375850199989925,-0.1,0.0,1.0,284.0,827.0,1.0,0,409.0,1
1149,1149,0.3602053633259611,0.4,0.0,0.0,408.0,631.0,0.0,1,601.0,1
1150,1150,0.6509800295154614,0.7,1.0,1.0,299.0,623.0,1.0,1,178.0,1
1151,1151,0.16110319407333573,0.2,1.0,1.0,481.0,793.0,1.0,1,416.0,1
1152,1152,-0.17065752578879656,-0.2,1.0,0.0,279.0,668.0,0.0,0,933.0,1
1153,1153,0.27338836028217794,0.3,1.0,1.0,281.0,529.0,1.0,1,530.0,1
1154,1154,-0.13956120871924826,-0.1,1.0,0.0,315.0,804.0,0.0,0,601.0,1
1155,1155,-0.7696336798618129,-0.8,1.0,0.0,406.0,679.0,0.0,0,565.0,1
1156,1156,-0.7434351336630016,-0.7,1.0,0.0,391.0,928.0,0.0,0,161.0,1
1157,1157,0.8868631250322597,0.9,1.0,1.0,459.0,869.0,1.0,1,82.0,1
1158,1158,-0.644304712778537,-0.6,0.0,1.0,323.0,923.0,1.0,0,194.0,1
1159,1159,-0.2497696045248894,-0.2,0.0,1.0,394.0,750.0,1.0,0,226.0,1
1160,1160,0.6198040321237733,0.6,0.0,0.0,413.0,877.0,0.0,1,200.0,1
1161,1161,-0.19839680547370175,-0.2,0.0,1.0,458.0,569.0,1.0,0,173.0,1
1162,1162,-0.5652490606589443,-0.6,0.0,1.0,447.0,507.0,1.0,0,276.0,1
1163,1163,-0.6559241844393437,-0.7,1.0,0.0,418.0,870.0,0.0,0,262.0,1
1164,1164,-0.16842114602530067,-0.2,1.0,0.0,273.0,873.0,0.0,0,364.0,1
1165,1165,0.532350424184982,0.5,0.0,0.0,312.0,819.0,0.0,1,139.0,1
1166,1166,0.38623861448466357,0.4,1.0,1.0,430.0,614.0,1.0,1,356.0,1
1167,1167,-0.2517042554368377,-0.3,1.0,0.0,379.0,588.0,0.0,0,823.0,1
1168,1168,-0.604497604864978,-0.6,0.0,1.0,499.0,728.0,1.0,0,223.0,1
1169,1169,-0.8589577487923117,-0.9,1.0,0.0,464.0,650.0,0.0,0,236.0,1
1170,1170,-0.2624564248874446,-0.3,1.0,0.0,486.0,843.0,0.0,0,1031.0,1
1171,1171,-0.013276729247428065,-0.0,1.0,0.0,259.0,670.0,1.0,1,351.0,0
1172,1172,0.23692735849137125,0.2,1.0,1.0,452.0,702.0,1.0,1,676.0,1
1173,1173,0.07819338354062433,0.1,1.0,1.0,439.0,935.0,1.0,1,366.0,1
1174,1174,-0.653763832983915,-0.7,1.0,0.0,432.0,726.0,0.0,0,732.0,1
1175,1175,0.4679877718422053,0.5,1.0,1.0,415.0,644.0,1.0,1,331.0,1
1176,1176,-0.590106331638087,-0.6,0.0,1.0,490.0,845.0,1.0,0,135.0,1
1177,1177,-0.4432059000523667,-0.4,1.0,0.0,440.0,670.0,0.0,0,360.0,1
1178,1178,0.6615112214040711,0.7,0.0,0.0,436.0,863.0,0.0,1,171.0,1
1179,1179,0.32264813131004877,0.3,0.0,0.0,400.0,677.0,0.0,1,293.0,1
1180,1180,-0.8645950645499183,-0.9,1.0,0.0,435.0,504.0,0.0,0,361.0,1
1181,1181,-0.18626920231091404,-0.2,0.0,1.0,347.0,560.0,1.0,0,353.0,1
1182,1182,0.2226747358873714,0.2,1.0,1.0,378.0,578.0,1.0,1,394.0,1
1183,1183,0.03141563033153638,0.0,0.0,0.0,259.0,979.0,0.0,1,1762.0,1
1184,1184,0.5220907653760586,0.5,0.0,0.0,468.0,576.0,0.0,1,616.0,1
1185,1185,0.6524630318207892,0.7,1.0,1.0,257.0,825.0,1.0,1,178.0,1
1186,1186,-0.8691673483177969,-0.9,0.0,1.0,374.0,970.0,1.0,0,166.0,1
1187,1187,-0.1665194415786284,-0.2,0.0,1.0,442.0,641.0,1.0,0,277.0,1
1188,1188,-0.5196283485478292,-0.5,0.0,1.0,357.0,506.0,1.0,0,287.0,1
1189,1189,-0.1790856567728677,-0.2,1.0,0.0,449.0,571.0,0.0,0,920.0,1
1190,1190,0.7293088702068852,0.7,0.0,0.0,421.0,847.0,0.0,1,212.0,1
1191,1191,-0.3909838751544238,-0.4,0.0,1.0,422.0,836.0,1.0,0,192.0,1
1192,1192,-0.7111093273761769,-0.7,1.0,0.0,474.0,990.0,0.0,0,136.0,1
1193,1193,-0.07061576382831913,-0.1,0.0,1.0,321.0,646.0,1.0,0,443.0,1
1194,1194,0.18379378325417084,0.2,1.0,1.0,257.0,571.0,1.0,1,472.0,1
1195,1195,0.7890652629913276,0.8,0.0,0.0,414.0,826.0,0.0,1,310.0,1
1196,1196,-0.08045594967489222,-0.1,0.0,1.0,394.0,913.0,1.0,0,583.0,1
1197,1197,0.08565943503873463,0.1,0.0,0.0,420.0,681.0,0.0,1,459.0,1
1198,1198,-0.21264835176107344,-0.2,1.0,0.0,462.0,659.0,0.0,0,479.0,1
1199,1199,-0.04100001721169966,-0.0,1.0,0.0,468.0,573.0,0.0,0,1169.0,1
1200,1200,0.19727760151184837,0.2,0.0,0.0,425.0,967.0,0.0,1,508.0,1
1201,1201,-0.3321129053795776,-0.3,0.0,1.0,432.0,836.0,1.0,0,232.0,1
1202,1202,0.058166410302262106,0.1,1.0,1.0,254.0,842.0,1.0,1,604.0,1
1203,1203,0.2445861192888733,0.2,1.0,1.0,424.0,640.0,1.0,1,586.0,1
1204,1204,0.32134481481989374,0.3,1.0,1.0,460.0,808.0,1.0,1,342.0,1
1205,1205,0.08079675535953368,0.1,0.0,0.0,318.0,671.0,0.0,1,891.0,1
1206,1206,-0.13804130915264878,-0.1,0.0,1.0,259.0,776.0,1.0,0,465.0,1
1207,1207,0.6732478971929375,0.7,1.0,1.0,453.0,928.0,1.0,1,19.0,1
1208,1208,-0.7338194065342334,-0.7,1.0,0.0,416.0,812.0,0.0,0,282.0,1
1209,1209,0.03985567967366588,0.0,1.0,1.0,370.0,661.0,1.0,1,729.0,1
1210,1210,0.618318591067596,0.6,1.0,1.0,490.0,631.0,1.0,1,469.0,1
1211,1211,-0.6390770675584317,-0.6,1.0,0.0,338.0,713.0,0.0,0,239.0,1
1212,1212,-0.08265064893568086,-0.1,1.0,0.0,379.0,612.0,0.0,0,749.0,1
1213,1213,-0.21966243988163436,-0.2,0.0,1.0,262.0,720.0,1.0,0,298.0,1
1214,1214,-0.28266179808649494,-0.3,0.0,1.0,471.0,731.0,1.0,0,358.0,1
1215,1215,0.8366661048577838,0.8,1.0,1.0,352.0,686.0,1.0,1,212.0,1
1216,1216,-0.6154933392990299,-0.6,1.0,0.0,371.0,721.0,0.0,0,268.0,1
1217,1217,0.8184583113207359,0.8,1.0,1.0,390.0,930.0,1.0,1,370.0,1
1218,1218,-0.7066519051395177,-0.7,0.0,1.0,256.0,896.0,1.0,0,358.0,1
1219,1219,-0.15983648287253993,-0.2,1.0,0.0,461.0,792.0,0.0,0,357.0,1
1220,1220,0.24155291874993667,0.2,1.0,1.0,369.0,767.0,1.0,1,284.0,1
1221,1221,-0.08135161040331651,-0.1,1.0,0.0,392.0,507.0,0.0,0,1481.0,1
1222,1222,0.19727158092336972,0.2,1.0,1.0,315.0,962.0,1.0,1,203.0,1
1223,1223,-0.8179217065290854,-0.8,1.0,0.0,256.0,704.0,0.0,0,590.0,1
1224,1224,-0.017294724391973992,-0.0,1.0,0.0,465.0,728.0,1.0,1,1807.0,0
1225,1225,-0.06904367757013852,-0.1,1.0,0.0,482.0,886.0,0.0,0,1632.0,1
1226,1226,0.5337367901030651,0.5,0.0,0.0,318.0,914.0,0.0,1,298.0,1
1227,1227,0.49082607741125817,0.5,1.0,1.0,354.0,823.0,1.0,1,363.0,1
1228,1228,0.44266603279109173,0.4,1.0,1.0,260.0,850.0,1.0,1,310.0,1
1229,1229,0.1777015174591271,0.2,0.0,0.0,456.0,957.0,0.0,1,577.0,1
1230,1230,-0.5724057327113923,-0.6,1.0,0.0,351.0,991.0,0.0,0,388.0,1
1231,1231,-0.534240475017294,-0.5,0.0,1.0,488.0,642.0,1.0,0,370.0,1
1232,1232,0.6015241024706551,0.6,0.0,0.0,474.0,709.0,0.0,1,277.0,1
1233,1233,-0.07285520582250393,-0.1,1.0,0.0,269.0,927.0,0.0,0,1804.0,1
1234,1234,0.8539946993688473,0.9,1.0,1.0,324.0,913.0,1.0,1,143.0,1
1235,1235,-0.2737157739378374,-0.3,0.0,1.0,401.0,674.0,1.0,0,325.0,1
1236,1236,-0.6463905739652103,-0.6,1.0,0.0,389.0,516.0,0.0,0,435.0,1
1237,1237,0.6200809270637976,0.6,0.0,0.0,387.0,676.0,0.0,1,357.0,1
1238,1238,0.45482482879121255,0.5,0.0,0.0,380.0,948.0,0.0,1,172.0,1
1239,1239,0.7728790720679831,0.8,1.0,1.0,389.0,837.0,1.0,1,254.0,1
1240,1240,-0.4224055633390577,-0.4,0.0,1.0,472.0,904.0,1.0,0,194.0,1
1241,1241,0.4140449134916321,0.4,1.0,1.0,278.0,703.0,1.0,1,149.0,1
1242,1242,-0.4434551394937071,-0.4,0.0,1.0,414.0,559.0,1.0,0,447.0,1
1243,1243,-0.4851431505649146,-0.5,0.0,1.0,314.0,654.0,1.0,0,282.0,1
1244,1244,-0.029198796727907705,-0.0,0.0,1.0,401.0,763.0,1.0,0,1836.0,1
1245,1245,-0.6954673255330749,-0.7,1.0,0.0,392.0,554.0,0.0,0,264.0,1
1246,1246,0.16523485119025316,0.2,1.0,1.0,400.0,629.0,1.0,1,631.0,1
1247,1247,-0.3715050909756722,-0.4,1.0,0.0,398.0,741.0,0.0,0,321.0,1
1248,1248,-0.1523265209936202,-0.2,0.0,1.0,405.0,818.0,1.0,0,477.0,1
1249,1249,-0.896548215026733,-0.9,1.0,0.0,437.0,923.0,0.0,0,260.0,1
1250,1250,0.037013989848439066,0.0,0.0,0.0,373.0,682.0,0.0,1,435.0,1
1251,1251,0.13460450580835814,0.1,0.0,0.0,293.0,951.0,0.0,1,536.0,1
1252,1252,0.45581524326934153,0.5,1.0,1.0,415.0,856.0,1.0,1,239.0,1
1253,1253,0.1227197397487082,0.1,1.0,1.0,464.0,681.0,1.0,1,485.0,1
1254,1254,-0.30424228709384127,-0.3,0.0,1.0,353.0,809.0,1.0,0,208.0,1
1255,1255,0.35045066887592,0.4,1.0,1.0,420.0,787.0,1.0,1,513.0,1
1256,1256,0.828583063238498,0.8,0.0,0.0,454.0,772.0,0.0,1,254.0,1
1257,1257,0.06044918225267948,0.1,1.0,1.0,292.0,856.0,1.0,1,402.0,1
1258,1258,0.8200124986469887,0.8,1.0,1.0,331.0,883.0,1.0,1,336.0,1
1259,1259,-0.5200158847991394,-0.5,1.0,0.0,266.0,827.0,0.0,0,147.0,1
1260,1260,0.2662871458519481,0.3,0.0,0.0,384.0,754.0,0.0,1,512.0,1
1261,1261,-0.4890476202789642,-0.5,1.0,0.0,270.0,661.0,0.0,0,389.0,1
1262,1262,-0.6413296200678564,-0.6,1.0,0.0,428.0,724.0,0.0,0,238.0,1
1263,1263,0.1837559925866391,0.2,0.0,0.0,336.0,783.0,0.0,1,241.0,1
1264,1264,0.7763430648318298,0.8,1.0,1.0,447.0,556.0,1.0,1,227.0,1
1265,1265,0.10005838604409012,0.1,1.0,1.0,316.0,899.0,1.0,1,535.0,1
1266,1266,0.6464258645957638,0.6,1.0,1.0,430.0,719.0,1.0,1,371.0,1
1267,1267,-0.8375485644837775,-0.8,1.0,0.0,356.0,818.0,0.0,0,226.0,1
1268,1268,0.7708512272508051,0.8,1.0,1.0,319.0,522.0,1.0,1,279.0,1
1269,1269,-0.6981951233831829,-0.7,0.0,1.0,251.0,933.0,1.0,0,286.0,1
1270,1270,-0.1279097834868037,-0.1,1.0,0.0,383.0,712.0,0.0,0,1115.0,1
1271,1271,-0.794002173865611,-0.8,1.0,0.0,253.0,928.0,0.0,0,209.0,1
1272,1272,-0.7178996251145572,-0.7,1.0,0.0,481.0,812.0,0.0,0,337.0,1
1273,1273,-0.32274046524580935,-0.3,0.0,1.0,380.0,554.0,1.0,0,496.0,1
1274,1274,0.5360395475327128,0.5,1.0,1.0,428.0,831.0,1.0,1,181.0,1
1275,1275,-0.2206980035275724,-0.2,0.0,1.0,280.0,626.0,1.0,0,334.0,1
1276,1276,-0.2387419402050397,-0.2,0.0,1.0,396.0,991.0,1.0,0,313.0,1
1277,1277,0.3353486480038602,0.3,1.0,1.0,271.0,862.0,1.0,1,247.0,1
1278,1278,-0.12319925884856398,-0.1,0.0,1.0,487.0,601.0,1.0,0,622.0,1
1279,1279,-0.12737296540950527,-0.1,0.0,1.0,284.0,730.0,1.0,0,646.0,1
1280,1280,0.5979581003891757,0.6,0.0,0.0,337.0,980.0,0.0,1,123.0,1
1281,1281,0.3261444811462234,0.3,0.0,0.0,455.0,629.0,0.0,1,376.0,1
1282,1282,0.3636120491892195,0.4,1.0,1.0,431.0,904.0,1.0,1,135.0,1
1283,1283,-0.6801292060086298,-0.7,0.0,1.0,377.0,753.0,1.0,0,130.0,1
1284,1284,-0.8139499309538722,-0.8,1.0,0.0,481.0,631.0,0.0,0,208.0,1
1285,1285,-0.05398914853147829,-0.1,1.0,0.0,341.0,924.0,0.0,0,715.0,1
1286,1286,-0.6838597569744168,-0.7,0.0,1.0,368.0,695.0,1.0,0,207.0,1
1287,1287,-0.47689422215331667,-0.5,1.0,0.0,475.0,960.0,0.0,0,255.0,1
1288,1288,0.42634358441320297,0.4,1.0,1.0,349.0,799.0,1.0,1,302.0,1
1289,1289,-0.3176435074761921,-0.3,0.0,1.0,327.0,919.0,1.0,0,144.0,1
1290,1290,-0.3262942937968658,-0.3,1.0,0.0,252.0,753.0,0.0,0,345.0,1
1291,1291,-0.4343711317474385,-0.4,1.0,0.0,371.0,774.0,0.0,0,325.0,1
1292,1292,0.07424011527207941,0.1,0.0,0.0,307.0,903.0,0.0,1,600.0,1
1293,1293,0.6760096423345477,0.7,0.0,0.0,430.0,567.0,0.0,1,543.0,1
1294,1294,0.12141011150410408,0.1,1.0,1.0,496.0,831.0,1.0,1,483.0,1
1295,1295,0.12454280715728216,0.1,1.0,1.0,285.0,869.0,1.0,1,486.0,1
1296,1296,0.6964409552523761,0.7,0.0,0.0,259.0,930.0,0.0,1,281.0,1
1297,1297,-0.7250533553346699,-0.7,1.0,0.0,441.0,844.0,0.0,0,175.0,1
1298,1298,0.4761260669103028,0.5,1.0,1.0,323.0,794.0,1.0,1,233.0,1
1299,1299,-0.6100517242928882,-0.6,1.0,0.0,393.0,940.0,0.0,0,487.0,1
1300,1300,-0.6559610932898432,-0.7,1.0,0.0,454.0,549.0,0.0,0,307.0,1
1301,1301,0.7718123467492283,0.8,1.0,1.0,458.0,744.0,1.0,1,168.0,1
1302,1302,0.3191167596912611,0.3,1.0,1.0,396.0,945.0,1.0,1,229.0,1
1303,1303,-0.029824207803719416,-0.0,1.0,0.0,466.0,703.0,0.0,0,1831.0,1
1304,1304,0.043472291163744736,0.0,0.0,0.0,378.0,902.0,1.0,0,1720.0,0
1305,1305,0.4161246316394157,0.4,0.0,0.0,405.0,696.0,0.0,1,209.0,1
1306,1306,0.2905501657807693,0.3,0.0,0.0,325.0,804.0,0.0,1,311.0,1
1307,1307,-0.16280265841015884,-0.2,0.0,1.0,386.0,973.0,1.0,0,751.0,1
1308,1308,-0.22701275945901522,-0.2,0.0,1.0,469.0,829.0,1.0,0,342.0,1
1309,1309,0.06392835502579974,0.1,0.0,0.0,379.0,639.0,0.0,1,1042.0,1
1310,1310,-0.670860135942787,-0.7,1.0,0.0,484.0,536.0,0.0,0,430.0,1
1311,1311,0.10981291340700883,0.1,1.0,1.0,482.0,955.0,1.0,1,463.0,1
1312,1312,-0.8726252047615217,-0.9,0.0,1.0,250.0,798.0,1.0,0,142.0,1
1313,1313,0.3412498109193943,0.3,0.0,0.0,430.0,960.0,0.0,1,100.0,1
1314,1314,-0.8964339368246477,-0.9,0.0,1.0,448.0,781.0,1.0,0,151.0,1
1315,1315,0.23665816779400417,0.2,0.0,0.0,314.0,810.0,0.0,1,806.0,1
1316,1316,-0.4895134802511467,-0.5,1.0,0.0,398.0,549.0,0.0,0,383.0,1
1317,1317,-0.2216004145873124,-0.2,1.0,0.0,317.0,829.0,0.0,0,394.0,1
1318,1318,0.19206953555153305,0.2,0.0,0.0,339.0,588.0,0.0,1,233.0,1
1319,1319,0.7969807732679569,0.8,1.0,1.0,256.0,758.0,1.0,1,106.0,1
1320,1320,0.8668175935373433,0.9,0.0,0.0,422.0,688.0,0.0,1,250.0,1
1321,1321,0.4217966857576064,0.4,0.0,0.0,258.0,614.0,0.0,1,228.0,1
1322,1322,0.6307297702170794,0.6,1.0,1.0,423.0,592.0,1.0,1,215.0,1
1323,1323,-0.22862842849905907,-0.2,0.0,1.0,374.0,601.0,1.0,0,375.0,1
1324,1324,-0.5963642475307669,-0.6,1.0,0.0,452.0,878.0,0.0,0,720.0,1
1325,1325,0.09017729610184089,0.1,1.0,1.0,490.0,658.0,1.0,1,622.0,1
1326,1326,-0.048049990337337145,-0.0,0.0,1.0,486.0,835.0,1.0,0,1679.0,1
1327,1327,0.7331716517540893,0.7,0.0,0.0,473.0,553.0,0.0,1,404.0,1
1328,1328,-0.09260339436084208,-0.1,0.0,1.0,418.0,626.0,1.0,0,786.0,1
1329,1329,0.029814329035020126,0.0,1.0,1.0,497.0,593.0,1.0,1,1470.0,1
1330,1330,0.7282804220972273,0.7,0.0,0.0,360.0,935.0,0.0,1,135.0,1
1331,1331,-0.8511591590983815,-0.9,0.0,1.0,294.0,763.0,1.0,0,193.0,1
1332,1332,0.5818400211604745,0.6,0.0,0.0,339.0,861.0,0.0,1,150.0,1
1333,1333,-0.2646404935968111,-0.3,0.0,1.0,365.0,895.0,1.0,0,630.0,1
1334,1334,0.6415493710157768,0.6,1.0,1.0,267.0,697.0,1.0,1,316.0,1
1335,1335,0.27265101679325443,0.3,1.0,1.0,388.0,788.0,1.0,1,194.0,1
1336,1336,0.10230499730413534,0.1,0.0,0.0,342.0,783.0,0.0,1,595.0,1
1337,1337,0.3361231589578816,0.3,0.0,0.0,284.0,894.0,0.0,1,242.0,1
1338,1338,0.09671431474744285,0.1,1.0,1.0,416.0,851.0,1.0,1,433.0,1
1339,1339,0.8272318042333259,0.8,1.0,1.0,319.0,678.0,1.0,1,283.0,1
1340,1340,0.09244920437501125,0.1,1.0,1.0,413.0,953.0,1.0,1,194.0,1
1341,1341,-0.17769675405507024,-0.2,0.0,1.0,454.0,618.0,1.0,0,458.0,1
1342,1342,0.8916299977832832,0.9,0.0,0.0,412.0,639.0,0.0,1,209.0,1
1343,1343,-0.31495970129593776,-0.3,0.0,1.0,444.0,811.0,1.0,0,255.0,1
1344,1344,-0.5689543220203809,-0.6,1.0,0.0,297.0,514.0,0.0,0,329.0,1
1345,1345,-0.07174132823525414,-0.1,1.0,0.0,435.0,742.0,0.0,0,663.0,1
1346,1346,-0.4936841311877467,-0.5,1.0,0.0,458.0,805.0,0.0,0,217.0,1
1347,1347,-0.344907263887844,-0.3,0.0,1.0,289.0,953.0,1.0,0,188.0,1
1348,1348,0.14340432804694958,0.1,0.0,0.0,464.0,557.0,0.0,1,579.0,1
1349,1349,-0.10548980422719345,-0.1,0.0,1.0,492.0,864.0,1.0,0,1174.0,1
1350,1350,-0.8714020443302174,-0.9,1.0,0.0,304.0,774.0,0.0,0,262.0,1
1351,1351,-0.7487454326121308,-0.7,0.0,1.0,277.0,695.0,1.0,0,178.0,1
1352,1352,0.8861522489771975,0.9,1.0,1.0,468.0,537.0,1.0,1,255.0,1
1353,1353,0.6539340043032605,0.7,0.0,0.0,408.0,661.0,0.0,1,141.0,1
1354,1354,-0.2045330537690192,-0.2,1.0,0.0,329.0,562.0,0.0,0,439.0,1
1355,1355,-0.05592979939450604,-0.1,0.0,1.0,416.0,764.0,1.0,0,570.0,1
1356,1356,-0.437405097895923,-0.4,0.0,1.0,430.0,937.0,1.0,0,283.0,1
1357,1357,-0.7681490417659077,-0.8,0.0,1.0,258.0,951.0,1.0,0,301.0,1
1358,1358,-0.05941743389800713,-0.1,0.0,1.0,488.0,661.0,1.0,0,481.0,1
1359,1359,0.27094507996943407,0.3,1.0,1.0,356.0,859.0,1.0,1,475.0,1
1360,1360,0.5398931299739732,0.5,0.0,0.0,264.0,521.0,0.0,1,705.0,1
1361,1361,-0.06383574018582538,-0.1,1.0,0.0,356.0,859.0,0.0,0,1785.0,1
1362,1362,0.11155851608366152,0.1,0.0,0.0,309.0,638.0,0.0,1,593.0,1
1363,1363,-0.8336568372992176,-0.8,1.0,0.0,270.0,668.0,0.0,0,322.0,1
1364,1364,0.4538347977387428,0.5,1.0,1.0,413.0,748.0,1.0,1,319.0,1
1365,1365,0.8984647634342874,0.9,1.0,1.0,372.0,943.0,1.0,1,315.0,1
1366,1366,0.273169451515373,0.3,1.0,1.0,450.0,713.0,1.0,1,137.0,1
1367,1367,-0.8177132539631089,-0.8,0.0,1.0,458.0,664.0,1.0,0,138.0,1
1368,1368,0.35814693549837207,0.4,1.0,1.0,482.0,989.0,1.0,1,139.0,1
1369,1369,-0.10556755643906113,-0.1,0.0,1.0,411.0,631.0,1.0,0,1188.0,1
1370,1370,0.4781180433325968,0.5,0.0,0.0,280.0,784.0,0.0,1,316.0,1
1371,1371,-0.35922769172355806,-0.4,0.0,1.0,334.0,896.0,1.0,0,130.0,1
1372,1372,0.4640614846206067,0.5,0.0,0.0,405.0,686.0,0.0,1,289.0,1
1373,1373,-0.609752007937229,-0.6,1.0,0.0,297.0,902.0,0.0,0,131.0,1
1374,1374,-0.1891547322936613,-0.2,1.0,0.0,424.0,625.0,0.0,0,541.0,1
1375,1375,-0.3693724049717949,-0.4,1.0,0.0,488.0,525.0,0.0,0,407.0,1
1376,1376,-0.44050125311041394,-0.4,1.0,0.0,314.0,561.0,0.0,0,355.0,1
1377,1377,0.41772220468266863,0.4,1.0,1.0,271.0,825.0,1.0,1,134.0,1
1378,1378,0.8506983512766187,0.9,0.0,0.0,396.0,822.0,0.0,1,302.0,1
1379,1379,0.23109927458002455,0.2,0.0,0.0,459.0,896.0,0.0,1,345.0,1
1380,1380,-0.4213756434856327,-0.4,1.0,0.0,327.0,595.0,0.0,0,328.0,1
1381,1381,0.18940986729220344,0.2,0.0,0.0,261.0,836.0,0.0,1,623.0,1
1382,1382,-0.06954583902455003,-0.1,0.0,1.0,265.0,715.0,1.0,0,660.0,1
1383,1383,-0.4573377538060269,-0.5,1.0,0.0,403.0,695.0,0.0,0,262.0,1
1384,1384,-0.1420351908676175,-0.1,1.0,0.0,394.0,858.0,0.0,0,1588.0,1
1385,1385,0.4157944285199294,0.4,1.0,1.0,320.0,692.0,1.0,1,208.0,1
1386,1386,0.5135613549147026,0.5,0.0,0.0,468.0,946.0,0.0,1,196.0,1
1387,1387,-0.7843081745075338,-0.8,1.0,0.0,453.0,739.0,0.0,0,218.0,1
1388,1388,-0.6072241001627448,-0.6,1.0,0.0,262.0,768.0,0.0,0,240.0,1
1389,1389,-0.7375542911804485,-0.7,0.0,1.0,386.0,515.0,1.0,0,239.0,1
1390,1390,0.026973718521713597,0.0,0.0,0.0,401.0,889.0,0.0,1,1710.0,1
1391,1391,-0.07447550821934035,-0.1,1.0,0.0,413.0,518.0,0.0,0,899.0,1
1392,1392,-0.013235560095436028,-0.0,0.0,1.0,294.0,546.0,1.0,0,650.0,1
1393,1393,0.14900994352611352,0.1,0.0,0.0,333.0,730.0,0.0,1,857.0,1
1394,1394,-0.5633988050723024,-0.6,1.0,0.0,415.0,984.0,0.0,0,41.0,1
1395,1395,-0.6773712412206864,-0.7,1.0,0.0,395.0,980.0,0.0,0,355.0,1
1396,1396,0.6719673888876155,0.7,1.0,1.0,331.0,921.0,1.0,1,318.0,1
1397,1397,-0.8205085842125698,-0.8,0.0,1.0,451.0,531.0,1.0,0,288.0,1
1398,1398,0.22436555181099538,0.2,1.0,1.0,369.0,893.0,1.0,1,388.0,1
1399,1399,-0.7877726419263414,-0.8,0.0,1.0,487.0,955.0,1.0,0,228.0,1
1400,1400,-0.16729502640076999,-0.2,0.0,1.0,385.0,716.0,1.0,0,459.0,1
1401,1401,0.4857537132379067,0.5,0.0,0.0,336.0,962.0,0.0,1,302.0,1
1402,1402,0.31797617789602917,0.3,1.0,1.0,377.0,604.0,1.0,1,289.0,1
1403,1403,0.47247960996430327,0.5,1.0,1.0,278.0,869.0,1.0,1,183.0,1
1404,1404,-0.6547102587480456,-0.7,0.0,1.0,383.0,816.0,1.0,0,241.0,1
1405,1405,0.09862467190320534,0.1,0.0,0.0,389.0,660.0,0.0,1,551.0,1
1406,1406,0.3154400481917524,0.3,0.0,0.0,280.0,920.0,0.0,1,190.0,1
1407,1407,0.39217614219506924,0.4,1.0,1.0,372.0,726.0,1.0,1,202.0,1
1408,1408,-0.289676816881142,-0.3,1.0,0.0,413.0,847.0,0.0,0,230.0,1
1409,1409,-0.47080045097757844,-0.5,1.0,0.0,372.0,659.0,0.0,0,659.0,1
1410,1410,-0.5252200897224081,-0.5,0.0,1.0,300.0,959.0,1.0,0,181.0,1
1411,1411,-0.4760824364797112,-0.5,1.0,0.0,436.0,837.0,0.0,0,357.0,1
1412,1412,-0.1458124091195684,-0.1,0.0,1.0,328.0,523.0,1.0,0,859.0,1
1413,1413,-0.2097565988461152,-0.2,0.0,1.0,414.0,770.0,1.0,0,596.0,1
1414,1414,0.2669865471983318,0.3,1.0,1.0,363.0,883.0,1.0,1,234.0,1
1415,1415,0.7825204161782243,0.8,0.0,0.0,261.0,598.0,0.0,1,181.0,1
1416,1416,-0.7929062692578471,-0.8,1.0,0.0,295.0,614.0,0.0,0,261.0,1
1417,1417,-0.10905663226804474,-0.1,0.0,1.0,389.0,836.0,1.0,0,395.0,1
1418,1418,-0.5023781397522336,-0.5,1.0,0.0,450.0,776.0,0.0,0,434.0,1
1419,1419,-0.22621277592184874,-0.2,1.0,0.0,312.0,823.0,0.0,0,405.0,1
1420,1420,-0.6723182493918328,-0.7,0.0,1.0,479.0,785.0,1.0,0,336.0,1
1421,1421,-0.6020915167289629,-0.6,0.0,1.0,423.0,793.0,1.0,0,184.0,1
1422,1422,0.5334803641771081,0.5,1.0,1.0,387.0,764.0,1.0,1,349.0,1
1423,1423,0.6341515358135171,0.6,1.0,1.0,443.0,996.0,1.0,1,321.0,1
1424,1424,0.07118075182257744,0.1,0.0,0.0,297.0,681.0,0.0,1,1002.0,1
1425,1425,-0.3918511058805917,-0.4,0.0,1.0,322.0,681.0,1.0,0,447.0,1
1426,1426,-0.40094845750338837,-0.4,0.0,1.0,498.0,506.0,1.0,0,336.0,1
1427,1427,0.03117650427697516,0.0,1.0,1.0,465.0,829.0,1.0,1,496.0,1
1428,1428,-0.8398816845130027,-0.8,1.0,0.0,445.0,662.0,0.0,0,273.0,1
1429,1429,-0.10608010113021071,-0.1,0.0,1.0,419.0,615.0,1.0,0,376.0,1
1430,1430,-0.7294856711197093,-0.7,1.0,0.0,298.0,694.0,0.0,0,338.0,1
1431,1431,-0.5541800991572188,-0.6,0.0,1.0,382.0,852.0,1.0,0,206.0,1
1432,1432,0.26415850345713665,0.3,0.0,0.0,255.0,974.0,0.0,1,711.0,1
1433,1433,0.7474355274294854,0.7,0.0,0.0,362.0,982.0,0.0,1,286.0,1
1434,1434,-0.28380643527211036,-0.3,0.0,1.0,351.0,714.0,1.0,0,335.0,1
1435,1435,-0.2949538276537593,-0.3,1.0,0.0,438.0,623.0,0.0,0,359.0,1
1436,1436,-0.3603394505173304,-0.4,1.0,0.0,315.0,511.0,0.0,0,274.0,1
1437,1437,0.8991458659579453,0.9,1.0,1.0,407.0,634.0,1.0,1,139.0,1
1438,1438,-0.10616143115372711,-0.1,1.0,0.0,251.0,960.0,0.0,0,1089.0,1
1439,1439,-0.6818402989892985,-0.7,1.0,0.0,257.0,775.0,0.0,0,128.0,1
1440,1440,0.05146279268429921,0.1,1.0,1.0,276.0,649.0,1.0,1,1015.0,1
1441,1441,-0.010619628627355993,-0.0,0.0,1.0,358.0,953.0,0.0,1,1689.0,0
1442,1442,-0.5004222102174876,-0.5,1.0,0.0,495.0,590.0,0.0,0,735.0,1
1443,1443,0.25130020510023565,0.3,0.0,0.0,262.0,815.0,0.0,1,593.0,1
1444,1444,-0.4851193732458427,-0.5,1.0,0.0,464.0,712.0,0.0,0,354.0,1
1445,1445,-0.06937489651815754,-0.1,0.0,1.0,370.0,614.0,1.0,0,496.0,1
1446,1446,0.4501978540640673,0.5,1.0,1.0,470.0,628.0,1.0,1,222.0,1
1447,1447,-0.36854846180969303,-0.4,1.0,0.0,380.0,758.0,0.0,0,402.0,1
1448,1448,-0.8920282979888813,-0.9,0.0,1.0,480.0,633.0,1.0,0,227.0,1
1449,1449,-0.10159997597959691,-0.1,1.0,0.0,355.0,873.0,0.0,0,992.0,1
1450,1450,0.22359434492367092,0.2,1.0,1.0,292.0,562.0,1.0,1,386.0,1
1451,1451,0.2016433298433712,0.2,0.0,0.0,298.0,676.0,0.0,1,166.0,1
1452,1452,-0.7632191538607186,-0.8,1.0,0.0,395.0,560.0,0.0,0,245.0,1
1453,1453,-0.6473894198400327,-0.6,1.0,0.0,493.0,625.0,0.0,0,362.0,1
1454,1454,-0.5372613626161031,-0.5,0.0,1.0,491.0,686.0,1.0,0,233.0,1
1455,1455,-0.8417511274271895,-0.8,1.0,0.0,469.0,757.0,0.0,0,174.0,1
1456,1456,-0.5079867966177721,-0.5,0.0,1.0,282.0,572.0,1.0,0,346.0,1
1457,1457,-0.2593872732837843,-0.3,1.0,0.0,380.0,724.0,0.0,0,716.0,1
1458,1458,0.68753213638683,0.7,0.0,0.0,309.0,867.0,0.0,1,314.0,1
1459,1459,0.14649875580059313,0.1,0.0,0.0,403.0,637.0,0.0,1,480.0,1
1460,1460,0.6952590427904789,0.7,0.0,0.0,496.0,708.0,0.0,1,166.0,1
1461,1461,-0.3543356349530028,-0.4,0.0,1.0,405.0,927.0,1.0,0,268.0,1
1462,1462,0.8310715290281133,0.8,1.0,1.0,279.0,504.0,1.0,1,237.0,1
1463,1463,-0.5317888937871769,-0.5,0.0,1.0,473.0,785.0,1.0,0,122.0,1
1464,1464,-0.7163678684186212,-0.7,1.0,0.0,347.0,750.0,0.0,0,483.0,1
1465,1465,-0.5549682258710316,-0.6,0.0,1.0,364.0,500.0,1.0,0,226.0,1
1466,1466,-0.08398984900385609,-0.1,0.0,1.0,296.0,947.0,1.0,0,167.0,1
1467,1467,0.4118502918154473,0.4,1.0,1.0,277.0,614.0,1.0,1,279.0,1
1468,1468,0.4598402932677884,0.5,1.0,1.0,473.0,954.0,1.0,1,253.0,1
1469,1469,-0.8266057895041621,-0.8,1.0,0.0,409.0,978.0,0.0,0,113.0,1
1470,1470,0.2160551972623842,0.2,1.0,1.0,361.0,741.0,1.0,1,288.0,1
1471,1471,0.8642301066452814,0.9,1.0,1.0,438.0,872.0,1.0,1,230.0,1
1472,1472,0.2890998529217209,0.3,0.0,0.0,281.0,658.0,0.0,1,421.0,1
1473,1473,0.252382504288032,0.3,0.0,0.0,284.0,546.0,0.0,1,1160.0,1
1474,1474,0.18601296234317,0.2,1.0,1.0,408.0,951.0,1.0,1,121.0,1
1475,1475,-0.554935070754414,-0.6,0.0,1.0,386.0,705.0,1.0,0,159.0,1
1476,1476,0.7435386209430302,0.7,0.0,0.0,320.0,861.0,0.0,1,209.0,1
1477,1477,-0.7180893420122471,-0.7,1.0,0.0,399.0,736.0,0.0,0,515.0,1
1478,1478,-0.3051293177680222,-0.3,0.0,1.0,387.0,884.0,1.0,0,269.0,1
1479,1479,-0.5204325652164221,-0.5,0.0,1.0,474.0,988.0,1.0,0,308.0,1
1480,1480,-0.5354289876375435,-0.5,0.0,1.0,372.0,691.0,1.0,0,197.0,1
1481,1481,-0.05594293543422646,-0.1,1.0,0.0,458.0,548.0,1.0,1,1994.0,0
1482,1482,0.3370106851688196,0.3,1.0,1.0,298.0,561.0,1.0,1,421.0,1
1483,1483,-0.04657058195619035,-0.0,0.0,1.0,462.0,898.0,1.0,0,1640.0,1
1484,1484,0.37589533780960027,0.4,1.0,1.0,297.0,729.0,1.0,1,134.0,1
1485,1485,-0.7473709891270559,-0.7,1.0,0.0,487.0,557.0,0.0,0,316.0,1
1486,1486,-0.08433227629333295,-0.1,1.0,0.0,335.0,646.0,0.0,0,1479.0,1
1487,1487,0.2147424440519764,0.2,1.0,1.0,336.0,700.0,1.0,1,584.0,1
1488,1488,0.554604992358167,0.6,0.0,0.0,257.0,969.0,0.0,1,344.0,1
1489,1489,0.854746125372699,0.9,1.0,1.0,399.0,828.0,1.0,1,263.0,1
1490,1490,-0.06561001477499762,-0.1,1.0,0.0,272.0,673.0,0.0,0,1995.0,1
1491,1491,0.6586448760495648,0.7,0.0,0.0,278.0,787.0,0.0,1,165.0,1
