,trial,coherence,coherence_bin,green_side,correct_side,target_onset,checker_onset,decision,green_decision,decision_time,correct_decision
0,0,-0.28549621529142255,-0.3,1.0,0.0,373.0,807.0,0.0,0,1820.0,1
1,1,0.6935704293617376,0.7,0.0,0.0,432.0,823.0,0.0,1,1745.0,1
2,2,0.3114394045110199,0.3,0.0,0.0,494.0,849.0,0.0,1,1657.0,1
3,3,-0.8381636581976516,-0.8,1.0,0.0,341.0,953.0,0.0,0,1706.0,1
4,4,-0.3659679421682115,-0.4,0.0,1.0,419.0,630.0,0.0,1,1951.0,0
5,5,0.0958575051375099,0.1,1.0,1.0,299.0,817.0,0.0,0,1884.0,0
6,6,-0.29829187634048326,-0.3,1.0,0.0,384.0,794.0,0.0,0,1822.0,1
7,7,0.8687059364050472,0.9,0.0,0.0,488.0,513.0,0.0,1,1999.0,1
8,8,0.8393470468655703,0.8,0.0,0.0,438.0,707.0,0.0,1,1855.0,1
9,9,-0.6816396504260438,-0.7,0.0,1.0,410.0,789.0,0.0,1,1801.0,0
10,10,-0.3777240662759067,-0.4,0.0,1.0,386.0,656.0,0.0,1,1958.0,0
11,11,0.8166038469923843,0.8,0.0,0.0,443.0,590.0,0.0,1,1967.0,1
12,12,-0.18607762649333004,-0.2,1.0,0.0,340.0,904.0,0.0,0,1756.0,1
13,13,-0.03926414177445625,-0.0,1.0,0.0,289.0,692.0,0.0,0,2019.0,1
14,14,0.5347115564556831,0.5,0.0,0.0,309.0,733.0,0.0,1,-922.0,1
15,15,0.20940061943003896,0.2,1.0,1.0,312.0,901.0,0.0,0,1787.0,0
16,16,-0.664293489068804,-0.7,1.0,0.0,301.0,618.0,0.0,0,2081.0,1
17,17,0.4981388344183274,0.5,0.0,0.0,356.0,739.0,0.0,1,1905.0,1
18,18,-0.33075425585965224,-0.3,1.0,0.0,496.0,684.0,0.0,0,1820.0,1
19,19,0.6684335564722733,0.7,0.0,0.0,412.0,516.0,0.0,1,2072.0,1
20,20,-0.1409499105195563,-0.1,0.0,1.0,345.0,612.0,0.0,1,2043.0,0
21,21,0.6668768533587365,0.7,0.0,0.0,455.0,887.0,0.0,1,1658.0,1
22,22,0.6006795642151047,0.6,0.0,0.0,336.0,833.0,0.0,1,1831.0,1
23,23,0.1858118237702352,0.2,1.0,1.0,265.0,997.0,0.0,0,-1212.0,0
24,24,0.32805820016652454,0.3,1.0,1.0,269.0,576.0,1.0,1,-805.0,1
25,25,0.47681001406806145,0.5,0.0,0.0,478.0,500.0,0.0,1,2022.0,1
26,26,0.5064212242697886,0.5,1.0,1.0,491.0,582.0,0.0,0,1927.0,0
27,27,0.7382473297619138,0.7,0.0,0.0,278.0,586.0,0.0,1,2136.0,1
28,28,0.30162586850932704,0.3,0.0,0.0,389.0,725.0,0.0,1,1886.0,1
29,29,-0.8731731627918228,-0.9,0.0,1.0,457.0,704.0,0.0,1,1839.0,0
30,30,0.024399745022628316,0.0,0.0,0.0,350.0,594.0,0.0,1,-814.0,1
31,31,0.15800683663978476,0.2,1.0,1.0,288.0,872.0,0.0,0,1840.0,0
32,32,-0.3369229811198964,-0.3,0.0,1.0,437.0,703.0,1.0,0,-1040.0,1
33,33,0.37354036726936524,0.4,1.0,1.0,251.0,902.0,0.0,0,1847.0,0
34,34,-0.2787976809853241,-0.3,1.0,0.0,491.0,966.0,0.0,0,-1367.0,1
35,35,0.7718015387861948,0.8,0.0,0.0,322.0,993.0,0.0,1,1685.0,1
36,36,-0.20688666454198845,-0.2,1.0,0.0,462.0,923.0,0.0,0,1615.0,1
37,37,0.43499318297107703,0.4,0.0,0.0,413.0,614.0,0.0,1,1973.0,1
38,38,-0.15338652870797742,-0.2,1.0,0.0,282.0,843.0,0.0,0,1875.0,1
39,39,0.8169338374639262,0.8,1.0,1.0,341.0,949.0,0.0,0,1710.0,0
40,40,0.49998193385885326,0.5,0.0,0.0,357.0,607.0,0.0,1,2036.0,1
41,41,-0.19419914675285488,-0.2,1.0,0.0,283.0,915.0,0.0,0,1802.0,1
42,42,-0.20872800526093416,-0.2,1.0,0.0,333.0,950.0,0.0,0,1717.0,1
43,43,-0.25375133102448355,-0.3,1.0,0.0,452.0,594.0,0.0,0,-856.0,1
44,44,0.37024754818502015,0.4,0.0,0.0,403.0,994.0,0.0,1,1603.0,1
45,45,0.6504407930388488,0.7,0.0,0.0,442.0,551.0,0.0,1,2007.0,1
46,46,-0.06464822665022363,-0.1,0.0,1.0,273.0,504.0,0.0,1,2223.0,0
47,47,0.6335512836209508,0.6,0.0,0.0,402.0,932.0,0.0,1,1666.0,1
48,48,0.014844503172128043,0.0,1.0,1.0,387.0,673.0,0.0,0,1940.0,0
49,49,0.5145550416025296,0.5,0.0,0.0,396.0,764.0,0.0,1,1840.0,1
50,50,-0.06852703598080523,-0.1,1.0,0.0,446.0,588.0,0.0,0,1966.0,1
51,51,0.1195383127279096,0.1,1.0,1.0,408.0,798.0,0.0,0,1794.0,0
52,52,-0.7116671106911177,-0.7,0.0,1.0,435.0,566.0,0.0,1,1999.0,0
53,53,-0.5586569318338941,-0.6,1.0,0.0,364.0,749.0,0.0,0,1887.0,1
54,54,0.5786158125820394,0.6,1.0,1.0,391.0,790.0,0.0,0,1819.0,0
55,55,-0.603065119030616,-0.6,1.0,0.0,422.0,853.0,1.0,1,-1165.0,0
56,56,-0.4813057434188,-0.5,0.0,1.0,353.0,691.0,0.0,1,1956.0,0
57,57,0.7251825938685607,0.7,1.0,1.0,257.0,765.0,0.0,0,1978.0,0
58,58,0.777857414091144,0.8,0.0,0.0,335.0,546.0,0.0,1,2119.0,1
59,59,-0.8498487458924094,-0.8,0.0,1.0,409.0,675.0,0.0,1,1916.0,0
60,60,0.05491238173206203,0.1,0.0,0.0,330.0,861.0,1.0,0,-1071.0,0
61,61,-0.4425179991123364,-0.4,0.0,1.0,372.0,747.0,0.0,1,1881.0,0
62,62,-0.2584532804345645,-0.3,0.0,1.0,268.0,570.0,0.0,1,2162.0,0
63,63,-0.3183829242115951,-0.3,1.0,0.0,373.0,768.0,0.0,0,1859.0,1
64,64,0.4201949112341933,0.4,0.0,0.0,276.0,910.0,0.0,1,-1056.0,1
65,65,-0.35735774481314675,-0.4,0.0,1.0,471.0,856.0,0.0,1,1673.0,0
66,66,0.4054904520090644,0.4,1.0,1.0,360.0,628.0,0.0,0,2012.0,0
67,67,-0.4869628842770162,-0.5,1.0,0.0,399.0,682.0,0.0,0,1919.0,1
68,68,-0.7959697700981416,-0.8,1.0,0.0,368.0,924.0,0.0,0,1708.0,1
69,69,-0.6484916669726781,-0.6,0.0,1.0,387.0,629.0,0.0,1,1984.0,0
70,70,-0.5427603137378623,-0.5,1.0,0.0,369.0,558.0,0.0,0,2073.0,1
71,71,-0.0006078190228513414,-0.0,0.0,1.0,421.0,804.0,0.0,1,1775.0,0
72,72,-0.3438089333957297,-0.3,1.0,0.0,353.0,657.0,0.0,0,1990.0,1
73,73,0.3193488186027852,0.3,0.0,0.0,485.0,521.0,1.0,0,-996.0,0
74,74,-0.2495607568088758,-0.2,0.0,1.0,336.0,817.0,0.0,1,1847.0,0
75,75,0.5959711045450059,0.6,1.0,1.0,369.0,669.0,0.0,0,1962.0,0
76,76,-0.6494941484428228,-0.6,0.0,1.0,410.0,562.0,0.0,1,2028.0,0
77,77,0.09132674734449042,0.1,1.0,1.0,459.0,596.0,0.0,0,1945.0,0
78,78,0.4169586900606056,0.4,0.0,0.0,410.0,875.0,0.0,1,1715.0,1
79,79,0.1657345098436661,0.2,0.0,0.0,486.0,638.0,0.0,1,1876.0,1
80,80,0.3859383868534726,0.4,1.0,1.0,433.0,804.0,0.0,0,1763.0,0
81,81,-0.06159613498112215,-0.1,1.0,0.0,367.0,874.0,0.0,0,1759.0,1
82,82,0.5210784410296135,0.5,0.0,0.0,496.0,576.0,0.0,1,1928.0,1
83,83,0.2980105472894313,0.3,0.0,0.0,490.0,800.0,0.0,1,1710.0,1
84,84,-0.327751239893863,-0.3,1.0,0.0,496.0,941.0,0.0,0,1563.0,1
85,85,0.812809361420494,0.8,0.0,0.0,464.0,915.0,0.0,1,1621.0,1
86,86,-0.6159242346607217,-0.6,1.0,0.0,496.0,532.0,0.0,0,1972.0,1
87,87,-0.25457004360376845,-0.3,0.0,1.0,372.0,785.0,0.0,1,1843.0,0
88,88,0.14665713782716228,0.1,1.0,1.0,371.0,633.0,0.0,0,1996.0,0
89,89,0.02576134025053789,0.0,1.0,1.0,298.0,920.0,0.0,0,1782.0,0
90,90,-0.7453967402969521,-0.7,0.0,1.0,448.0,817.0,0.0,1,-1175.0,0
91,91,-0.48835352513812524,-0.5,1.0,0.0,366.0,740.0,0.0,0,1894.0,1
92,92,-0.2891667433651717,-0.3,0.0,1.0,429.0,599.0,1.0,0,-798.0,1
93,93,0.3715069610299636,0.4,1.0,1.0,377.0,773.0,0.0,0,-1000.0,0
94,94,-0.6245765843770081,-0.6,1.0,0.0,276.0,918.0,0.0,0,1806.0,1
95,95,-0.6435094528541478,-0.6,1.0,0.0,367.0,527.0,1.0,1,-834.0,0
96,96,0.6899528645813094,0.7,1.0,1.0,363.0,877.0,0.0,0,-1150.0,0
97,97,0.3685295606543767,0.4,0.0,0.0,491.0,979.0,0.0,1,1530.0,1
98,98,-0.35665072308313117,-0.4,1.0,0.0,384.0,607.0,0.0,0,2009.0,1
99,99,0.7722441221470256,0.8,0.0,0.0,425.0,732.0,0.0,1,1843.0,1
100,100,-0.40580786325776336,-0.4,1.0,0.0,299.0,811.0,1.0,1,-1060.0,0
101,101,-0.2186323721399941,-0.2,0.0,1.0,383.0,734.0,0.0,1,1883.0,0
102,102,0.7659754681043928,0.8,1.0,1.0,407.0,910.0,0.0,0,1683.0,0
103,103,0.8342967693712237,0.8,1.0,1.0,493.0,762.0,0.0,0,1745.0,0
104,104,-0.2905943364181296,-0.3,0.0,1.0,256.0,797.0,0.0,1,1947.0,0
105,105,-0.6632152802139374,-0.7,1.0,0.0,375.0,729.0,0.0,0,1896.0,1
106,106,0.566626714305439,0.6,1.0,1.0,300.0,861.0,0.0,0,1839.0,0
107,107,0.27191353083866165,0.3,0.0,0.0,405.0,975.0,0.0,1,1620.0,1
108,108,0.21075427703584937,0.2,1.0,1.0,404.0,992.0,0.0,0,1604.0,0
109,109,0.5338695037742945,0.5,1.0,1.0,462.0,554.0,0.0,0,1984.0,0
110,110,-0.26036951263132013,-0.3,0.0,1.0,444.0,972.0,0.0,1,1584.0,0
111,111,0.35192316774751864,0.4,0.0,0.0,290.0,885.0,0.0,1,1825.0,1
112,112,-0.5901273923008219,-0.6,1.0,0.0,347.0,512.0,0.0,0,2141.0,1
113,113,0.8656389324944996,0.9,1.0,1.0,251.0,502.0,0.0,0,2247.0,0
114,114,-0.027817865036420253,-0.0,0.0,1.0,368.0,919.0,0.0,1,1713.0,0
115,115,0.8073364000241446,0.8,1.0,1.0,446.0,913.0,0.0,0,1641.0,0
116,116,-0.3791062912666636,-0.4,0.0,1.0,276.0,594.0,0.0,1,2130.0,0
117,117,0.8990303604499793,0.9,1.0,1.0,486.0,667.0,0.0,0,1847.0,0
118,118,-0.25744811603610485,-0.3,0.0,1.0,360.0,705.0,0.0,1,1935.0,0
119,119,-0.005774646265481187,-0.0,1.0,0.0,492.0,644.0,0.0,0,1864.0,1
120,120,0.3609719570020872,0.4,1.0,1.0,357.0,532.0,0.0,0,2111.0,0
121,121,0.07469294457890119,0.1,0.0,0.0,483.0,987.0,0.0,1,1530.0,1
122,122,0.7982545976253733,0.8,1.0,1.0,396.0,547.0,0.0,0,2057.0,0
123,123,0.45156595093648433,0.5,1.0,1.0,272.0,551.0,1.0,1,-733.0,1
124,124,-0.8430661147202926,-0.8,0.0,1.0,319.0,807.0,0.0,1,1874.0,0
125,125,-0.697952190611595,-0.7,0.0,1.0,357.0,502.0,0.0,1,2141.0,0
126,126,0.6177710000843445,0.6,0.0,0.0,343.0,821.0,0.0,1,1836.0,1
127,127,0.629659290414189,0.6,1.0,1.0,281.0,814.0,0.0,0,1905.0,0
128,128,0.5724595672280269,0.6,1.0,1.0,459.0,602.0,0.0,0,1939.0,0
129,129,-0.25962476564584414,-0.3,1.0,0.0,333.0,615.0,0.0,0,2052.0,1
130,130,-0.5600495743990448,-0.6,0.0,1.0,274.0,955.0,0.0,1,1771.0,0
131,131,-0.11570548781492962,-0.1,0.0,1.0,356.0,575.0,0.0,1,2069.0,0
132,132,-0.1131255903592896,-0.1,1.0,0.0,484.0,587.0,0.0,0,1929.0,1
133,133,0.5888730247101893,0.6,0.0,0.0,266.0,964.0,0.0,1,1770.0,1
134,134,-0.16202223427756024,-0.2,1.0,0.0,370.0,740.0,0.0,0,1890.0,1
135,135,-0.7832185052128179,-0.8,0.0,1.0,268.0,763.0,0.0,1,1969.0,0
136,136,-0.08646613650709156,-0.1,0.0,1.0,405.0,669.0,0.0,1,1926.0,0
137,137,-0.41730547707555293,-0.4,0.0,1.0,392.0,851.0,0.0,1,1757.0,0
138,138,-0.15308778986620197,-0.2,1.0,0.0,397.0,597.0,0.0,0,2006.0,1
139,139,-0.8107451995777127,-0.8,0.0,1.0,406.0,504.0,0.0,1,2090.0,0
140,140,-0.003969460185911378,-0.0,1.0,0.0,292.0,976.0,0.0,0,1732.0,1
141,141,0.6805353297779785,0.7,0.0,0.0,447.0,673.0,0.0,1,-1100.0,1
142,142,-0.4522358957674129,-0.5,0.0,1.0,295.0,778.0,1.0,0,-1043.0,1
143,143,-0.22728952117391898,-0.2,0.0,1.0,411.0,626.0,0.0,1,1963.0,0
144,144,-0.735124300573912,-0.7,1.0,0.0,391.0,630.0,0.0,0,1979.0,1
145,145,0.7868503842667337,0.8,1.0,1.0,263.0,533.0,0.0,0,2204.0,0
146,146,0.7938902901835924,0.8,0.0,0.0,473.0,939.0,0.0,1,-1352.0,1
147,147,0.5286046710854196,0.5,1.0,1.0,393.0,689.0,0.0,0,1918.0,0
148,148,0.07782523551855969,0.1,0.0,0.0,388.0,747.0,0.0,1,1865.0,1
149,149,-0.5576290530550834,-0.6,0.0,1.0,328.0,706.0,0.0,1,1966.0,0
150,150,-0.21512422423012434,-0.2,0.0,1.0,400.0,623.0,0.0,1,1977.0,0
151,151,0.37515255856312224,0.4,0.0,0.0,397.0,998.0,0.0,1,1605.0,1
152,152,0.884655550713238,0.9,0.0,0.0,459.0,585.0,0.0,1,1956.0,1
153,153,0.5878504830331038,0.6,0.0,0.0,378.0,895.0,0.0,1,1727.0,1
154,154,-0.6786142370914956,-0.7,1.0,0.0,492.0,974.0,0.0,0,1534.0,1
155,155,-0.11239856432387252,-0.1,0.0,1.0,450.0,512.0,0.0,1,2038.0,0
156,156,-0.18792024296659893,-0.2,0.0,1.0,468.0,894.0,0.0,1,1638.0,0
157,157,0.5412957172409943,0.5,1.0,1.0,479.0,880.0,0.0,0,1641.0,0
158,158,-0.16894017877565248,-0.2,1.0,0.0,486.0,508.0,0.0,0,2006.0,1
159,159,0.5689729513732723,0.6,1.0,1.0,316.0,591.0,0.0,0,2093.0,0
160,160,0.15512930835938576,0.2,0.0,0.0,489.0,713.0,0.0,1,1798.0,1
161,161,-0.5692211725818366,-0.6,0.0,1.0,367.0,751.0,0.0,1,1882.0,0
162,162,-0.6540063018328385,-0.7,1.0,0.0,414.0,904.0,0.0,0,-1278.0,1
163,163,-0.7463166223377661,-0.7,0.0,1.0,431.0,977.0,0.0,1,1592.0,0
164,164,-0.3109592476697083,-0.3,1.0,0.0,280.0,540.0,0.0,0,2180.0,1
165,165,0.8108772135912617,0.8,0.0,0.0,488.0,596.0,0.0,1,1916.0,1
166,166,-0.8188273152622615,-0.8,0.0,1.0,286.0,843.0,0.0,1,1871.0,0
167,167,-0.04444873583614084,-0.0,0.0,1.0,471.0,700.0,0.0,1,1829.0,0
168,168,-0.25410933684661907,-0.3,1.0,0.0,338.0,531.0,0.0,0,2131.0,1
169,169,-0.02072296938248297,-0.0,0.0,1.0,314.0,823.0,0.0,1,-1087.0,0
170,170,0.14423033943310715,0.1,0.0,0.0,460.0,572.0,0.0,1,1968.0,1
171,171,-0.30567375493316906,-0.3,0.0,1.0,458.0,741.0,0.0,1,1801.0,0
172,172,-0.7715213098171672,-0.8,0.0,1.0,386.0,556.0,1.0,0,-782.0,1
173,173,-0.6423091801063123,-0.6,0.0,1.0,321.0,800.0,0.0,1,1879.0,0
174,174,0.38327268772825496,0.4,1.0,1.0,251.0,909.0,0.0,0,-990.0,0
175,175,-0.7503472590142367,-0.8,1.0,0.0,431.0,723.0,0.0,0,-1064.0,1
176,176,-0.5873601656773895,-0.6,1.0,0.0,436.0,603.0,0.0,0,1961.0,1
177,177,0.5665054379377882,0.6,0.0,0.0,453.0,845.0,1.0,0,-1258.0,0
178,178,0.11690353457436709,0.1,1.0,1.0,353.0,571.0,0.0,0,2076.0,0
179,179,0.15402106613930322,0.2,0.0,0.0,452.0,995.0,0.0,1,-1397.0,1
180,180,-0.20748683418798408,-0.2,0.0,1.0,465.0,970.0,0.0,1,1565.0,0
181,181,0.6573645616648035,0.7,1.0,1.0,380.0,851.0,0.0,0,1769.0,0
182,182,-0.7971111621351423,-0.8,0.0,1.0,277.0,521.0,0.0,1,2202.0,0
183,183,-0.8702742583038402,-0.9,0.0,1.0,444.0,611.0,0.0,1,1945.0,0
184,184,0.7221575171116202,0.7,0.0,0.0,307.0,939.0,0.0,1,1754.0,1
185,185,0.43147376532739823,0.4,0.0,0.0,350.0,883.0,0.0,1,1767.0,1
186,186,-0.25099034955829214,-0.3,1.0,0.0,381.0,839.0,0.0,0,1780.0,1
187,187,0.08764755549043135,0.1,1.0,1.0,345.0,996.0,0.0,0,1659.0,0
188,188,-0.27871105946337216,-0.3,1.0,0.0,441.0,593.0,0.0,0,1966.0,1
189,189,-0.22380028891151504,-0.2,1.0,0.0,430.0,961.0,0.0,0,1609.0,1
190,190,0.17720943880337836,0.2,0.0,0.0,494.0,781.0,0.0,1,1725.0,1
191,191,-0.11067268109825001,-0.1,0.0,1.0,274.0,871.0,0.0,1,1855.0,0
192,192,0.1757207584882564,0.2,0.0,0.0,433.0,718.0,0.0,1,1849.0,1
193,193,-0.3113269642230092,-0.3,0.0,1.0,307.0,838.0,0.0,1,1855.0,0
194,194,0.18345029267862578,0.2,1.0,1.0,330.0,727.0,0.0,0,1943.0,0
195,195,-0.36364971443667027,-0.4,1.0,0.0,499.0,534.0,0.0,0,1967.0,1
196,196,-0.41654037767120194,-0.4,0.0,1.0,363.0,588.0,0.0,1,2049.0,0
197,197,0.5162559799203069,0.5,1.0,1.0,310.0,611.0,0.0,0,2079.0,0
198,198,-0.43269562381045584,-0.4,0.0,1.0,289.0,613.0,1.0,0,-822.0,1
199,199,0.09233256224501674,0.1,0.0,0.0,314.0,536.0,0.0,1,2150.0,1
200,200,-0.8207248253213439,-0.8,1.0,0.0,463.0,795.0,0.0,0,1742.0,1
201,201,-0.33441753024445775,-0.3,1.0,0.0,380.0,880.0,0.0,0,1740.0,1
202,202,-0.12358396162875984,-0.1,1.0,0.0,342.0,809.0,0.0,0,1849.0,1
203,203,-0.2849827603407874,-0.3,1.0,0.0,491.0,628.0,0.0,0,1881.0,1
204,204,0.5888440962107838,0.6,1.0,1.0,425.0,864.0,0.0,0,1711.0,0
205,205,0.2073566909223553,0.2,1.0,1.0,491.0,557.0,0.0,0,1952.0,0
206,206,0.8375186868862649,0.8,0.0,0.0,326.0,894.0,0.0,1,1780.0,1
207,207,-0.7855351957582452,-0.8,0.0,1.0,260.0,765.0,0.0,1,1975.0,0
208,208,-0.2500080172332869,-0.3,1.0,0.0,287.0,801.0,0.0,0,1912.0,1
209,209,-0.07716552940537968,-0.1,0.0,1.0,491.0,833.0,0.0,1,1676.0,0
210,210,-0.14264434865275966,-0.1,1.0,0.0,425.0,707.0,0.0,0,1868.0,1
211,211,-0.5617309581016607,-0.6,0.0,1.0,322.0,667.0,0.0,1,2011.0,0
212,212,0.43256578861765493,0.4,1.0,1.0,349.0,816.0,0.0,0,1835.0,0
213,213,0.44597861003629957,0.4,1.0,1.0,450.0,700.0,0.0,0,1850.0,0
214,214,-0.6766873265969713,-0.7,0.0,1.0,312.0,961.0,0.0,1,1727.0,0
215,215,-0.10189642068150728,-0.1,1.0,0.0,336.0,774.0,0.0,0,1890.0,1
216,216,-0.031115792011310095,-0.0,1.0,0.0,275.0,919.0,1.0,1,-1024.0,0
217,217,0.16626158530333257,0.2,1.0,1.0,265.0,784.0,0.0,0,1951.0,0
218,218,-0.5702276838897011,-0.6,1.0,0.0,369.0,946.0,0.0,0,1685.0,1
219,219,0.4941180104594537,0.5,0.0,0.0,260.0,765.0,0.0,1,1975.0,1
220,220,-0.8775832494239482,-0.9,1.0,0.0,299.0,815.0,0.0,0,1886.0,1
221,221,-0.028263376333591217,-0.0,0.0,1.0,460.0,576.0,0.0,1,1964.0,0
222,222,-0.17959673406864118,-0.2,1.0,0.0,260.0,919.0,0.0,0,1821.0,1
223,223,-0.8704514959100237,-0.9,0.0,1.0,442.0,609.0,0.0,1,1949.0,0
224,224,0.09651894581623233,0.1,0.0,0.0,438.0,580.0,0.0,1,1982.0,1
225,225,0.05810800975911945,0.1,0.0,0.0,425.0,508.0,0.0,1,2067.0,1
226,226,0.6672339624376787,0.7,1.0,1.0,257.0,579.0,0.0,0,-836.0,0
227,227,0.3992658849961247,0.4,1.0,1.0,444.0,836.0,0.0,0,1720.0,0
228,228,-0.16571575548881878,-0.2,1.0,0.0,386.0,584.0,0.0,0,2030.0,1
229,229,-0.8928915196221415,-0.9,1.0,0.0,421.0,705.0,0.0,0,1874.0,1
230,230,0.7579338327218671,0.8,1.0,1.0,291.0,544.0,0.0,0,2165.0,0
231,231,0.048180805608056154,0.0,0.0,0.0,331.0,513.0,0.0,1,2156.0,1
232,232,-0.8988896108091342,-0.9,0.0,1.0,384.0,991.0,0.0,1,1625.0,0
233,233,-0.0634804784593831,-0.1,0.0,1.0,296.0,516.0,0.0,1,2188.0,0
234,234,0.6901433816808514,0.7,1.0,1.0,307.0,858.0,1.0,1,-1025.0,1
235,235,0.8263647646090554,0.8,1.0,1.0,386.0,729.0,0.0,0,-1045.0,0
236,236,-0.5378798592506804,-0.5,1.0,0.0,263.0,585.0,0.0,0,2152.0,1
237,237,0.1451575914659221,0.1,1.0,1.0,250.0,832.0,0.0,0,1918.0,0
238,238,-0.2312300138306762,-0.2,1.0,0.0,322.0,776.0,0.0,0,-1068.0,1
239,239,-0.8464687725756884,-0.8,1.0,0.0,328.0,879.0,0.0,0,-987.0,1
240,240,-0.8143258774876693,-0.8,1.0,0.0,303.0,707.0,0.0,0,1990.0,1
241,241,-0.2262102562258097,-0.2,1.0,0.0,296.0,749.0,0.0,0,1955.0,1
242,242,-0.4701844429441871,-0.5,1.0,0.0,424.0,686.0,1.0,1,-1100.0,0
243,243,0.2848365858883274,0.3,1.0,1.0,283.0,721.0,0.0,0,1996.0,0
244,244,0.47234150999012525,0.5,0.0,0.0,305.0,978.0,0.0,1,1717.0,1
245,245,0.45620165498134113,0.5,1.0,1.0,324.0,801.0,0.0,0,1875.0,0
246,246,0.10695795682390907,0.1,1.0,1.0,438.0,930.0,0.0,0,1632.0,0
247,247,-0.4281637573925487,-0.4,1.0,0.0,414.0,552.0,0.0,0,2034.0,1
248,248,-0.004302265785669279,-0.0,0.0,1.0,367.0,835.0,0.0,1,1798.0,0
249,249,-0.3984863516065231,-0.4,0.0,1.0,256.0,868.0,0.0,1,-1074.0,0
250,250,-0.008388584595834914,-0.0,1.0,0.0,325.0,779.0,0.0,0,1896.0,1
251,251,0.19983612685281937,0.2,1.0,1.0,433.0,561.0,0.0,0,2006.0,0
252,252,-0.37850245214591316,-0.4,1.0,0.0,294.0,991.0,0.0,0,1715.0,1
253,253,0.07783010109407662,0.1,1.0,1.0,362.0,533.0,0.0,0,2105.0,0
254,254,-0.001985328198221392,-0.0,1.0,0.0,372.0,852.0,1.0,1,-1134.0,0
255,255,0.8151852224690471,0.8,1.0,1.0,445.0,927.0,0.0,0,1628.0,0
256,256,0.897187122006523,0.9,0.0,0.0,388.0,627.0,0.0,1,1985.0,1
257,257,-0.8371642824122136,-0.8,1.0,0.0,371.0,591.0,1.0,1,-912.0,0
258,258,0.4324503691588567,0.4,1.0,1.0,254.0,713.0,0.0,0,2033.0,0
259,259,-0.587035965208835,-0.6,1.0,0.0,263.0,749.0,0.0,0,1988.0,1
260,260,0.7809847928394481,0.8,1.0,1.0,414.0,735.0,0.0,0,1851.0,0
261,261,-0.5679009725656468,-0.6,0.0,1.0,318.0,807.0,0.0,1,1875.0,0
262,262,0.696816079642346,0.7,1.0,1.0,364.0,934.0,0.0,0,1702.0,0
263,263,-0.28857593760004285,-0.3,1.0,0.0,499.0,921.0,0.0,0,1580.0,1
264,264,-0.14687589693491676,-0.1,0.0,1.0,428.0,987.0,1.0,0,-1275.0,1
265,265,-0.8596713533498198,-0.9,1.0,0.0,298.0,743.0,0.0,0,1959.0,1
266,266,-0.35649335927787196,-0.4,1.0,0.0,340.0,896.0,0.0,0,1764.0,1
267,267,-0.458302522254605,-0.5,0.0,1.0,449.0,657.0,0.0,1,-986.0,0
268,268,-0.496434593692257,-0.5,1.0,0.0,256.0,875.0,1.0,1,-1121.0,0
269,269,-0.7377326429138394,-0.7,0.0,1.0,262.0,877.0,0.0,1,1861.0,0
270,270,0.38293891363965715,0.4,1.0,1.0,415.0,567.0,1.0,1,-932.0,1
271,271,0.25597606407999607,0.3,0.0,0.0,403.0,793.0,0.0,1,1804.0,1
272,272,0.03522766722758719,0.0,1.0,1.0,397.0,514.0,0.0,0,2089.0,0
273,273,-0.1818058254578523,-0.2,0.0,1.0,322.0,782.0,0.0,1,1896.0,0
274,274,0.5796279132686649,0.6,0.0,0.0,373.0,679.0,0.0,1,1948.0,1
275,275,0.7728086627224463,0.8,0.0,0.0,394.0,851.0,0.0,1,1755.0,1
276,276,-0.3161297328802656,-0.3,0.0,1.0,328.0,712.0,0.0,1,1960.0,0
277,277,0.8280089898880728,0.8,1.0,1.0,441.0,963.0,0.0,0,-1384.0,0
278,278,-0.024385360698091274,-0.0,1.0,0.0,430.0,505.0,0.0,0,2065.0,1
279,279,0.12295146978137261,0.1,1.0,1.0,256.0,611.0,0.0,0,2133.0,0
280,280,0.6225754950015138,0.6,0.0,0.0,343.0,598.0,1.0,0,-941.0,0
281,281,-0.7053379764491923,-0.7,1.0,0.0,285.0,706.0,0.0,0,2009.0,1
282,282,-0.7195158092668654,-0.7,1.0,0.0,355.0,795.0,0.0,0,1850.0,1
283,283,-0.865744778597944,-0.9,1.0,0.0,306.0,648.0,0.0,0,2046.0,1
284,284,0.46813335097417996,0.5,0.0,0.0,321.0,674.0,0.0,1,2005.0,1
285,285,0.0599655270623104,0.1,0.0,0.0,408.0,751.0,1.0,0,-1129.0,0
286,286,-0.4796964643653607,-0.5,0.0,1.0,487.0,687.0,0.0,1,1826.0,0
287,287,-0.748415221392462,-0.7,0.0,1.0,367.0,730.0,1.0,0,-1077.0,1
288,288,0.43547273150497146,0.4,1.0,1.0,455.0,821.0,0.0,0,1724.0,0
289,289,-0.3294593164592283,-0.3,0.0,1.0,431.0,675.0,0.0,1,1894.0,0
290,290,-0.6646943434699077,-0.7,1.0,0.0,432.0,506.0,0.0,0,2062.0,1
291,291,-0.4982895326877687,-0.5,1.0,0.0,471.0,985.0,0.0,0,1544.0,1
292,292,0.1088737178810123,0.1,0.0,0.0,391.0,860.0,1.0,0,-1241.0,0
293,293,0.7554455010355082,0.8,0.0,0.0,376.0,561.0,0.0,1,2063.0,1
294,294,-0.435225868014744,-0.4,0.0,1.0,373.0,863.0,0.0,1,1764.0,0
295,295,0.23014027382329727,0.2,1.0,1.0,345.0,532.0,0.0,0,2123.0,0
296,296,-0.08750197219960076,-0.1,1.0,0.0,434.0,521.0,0.0,0,2045.0,1
297,297,-0.09237161510668579,-0.1,1.0,0.0,439.0,534.0,0.0,0,2027.0,1
298,298,0.7768515112713267,0.8,0.0,0.0,319.0,914.0,0.0,1,1767.0,1
299,299,0.6263557258171103,0.6,0.0,0.0,309.0,731.0,0.0,1,1960.0,1
300,300,0.8656027164556711,0.9,1.0,1.0,345.0,698.0,0.0,0,1957.0,0
301,301,0.7779905778773918,0.8,1.0,1.0,395.0,994.0,0.0,0,1611.0,0
302,302,-0.12647410026605266,-0.1,1.0,0.0,421.0,613.0,1.0,1,-714.0,0
303,303,0.3066356876324293,0.3,0.0,0.0,256.0,622.0,0.0,1,2122.0,1
304,304,0.0630118966783969,0.1,1.0,1.0,285.0,593.0,0.0,0,2122.0,0
305,305,-0.44679665143821795,-0.4,1.0,0.0,333.0,880.0,0.0,0,1787.0,1
306,306,-0.09105628306553681,-0.1,0.0,1.0,284.0,694.0,0.0,1,2022.0,0
307,307,0.4333243446106977,0.4,0.0,0.0,280.0,670.0,0.0,1,2050.0,1
308,308,-0.2518967900539134,-0.3,1.0,0.0,300.0,599.0,1.0,1,-839.0,0
309,309,0.8898186932419004,0.9,1.0,1.0,288.0,848.0,0.0,0,1864.0,0
310,310,0.7122427562108026,0.7,1.0,1.0,293.0,967.0,0.0,0,1740.0,0
311,311,-0.0828356276916058,-0.1,0.0,1.0,385.0,880.0,1.0,0,-1245.0,1
312,312,0.85659586899126,0.9,0.0,0.0,363.0,696.0,0.0,1,1941.0,1
313,313,0.8232790410014065,0.8,0.0,0.0,257.0,979.0,0.0,1,1764.0,1
314,314,0.4966327432651124,0.5,1.0,1.0,346.0,502.0,0.0,0,2152.0,0
315,315,0.7040879741515275,0.7,0.0,0.0,495.0,690.0,0.0,1,1815.0,1
316,316,-0.375514333009462,-0.4,0.0,1.0,342.0,938.0,0.0,1,1720.0,0
317,317,-0.7875296570041139,-0.8,0.0,1.0,392.0,773.0,0.0,1,1835.0,0
318,318,-0.2613156854985552,-0.3,0.0,1.0,471.0,537.0,0.0,1,1992.0,0
319,319,-0.09867401840665135,-0.1,0.0,1.0,389.0,725.0,0.0,1,1886.0,0
320,320,0.8469659755297382,0.8,0.0,0.0,341.0,996.0,0.0,1,1663.0,1
321,321,-0.25367896152942127,-0.3,1.0,0.0,391.0,664.0,1.0,1,-1035.0,0
322,322,0.7085547901312493,0.7,0.0,0.0,441.0,623.0,0.0,1,1936.0,1
323,323,-0.6544465162951822,-0.7,0.0,1.0,485.0,595.0,0.0,1,1920.0,0
324,324,-0.7390649717670281,-0.7,1.0,0.0,353.0,503.0,0.0,0,2144.0,1
325,325,0.6334234981376988,0.6,0.0,0.0,259.0,595.0,0.0,1,-774.0,1
326,326,0.560371821456998,0.6,1.0,1.0,341.0,628.0,1.0,1,-859.0,1
327,327,-0.8105984753943567,-0.8,0.0,1.0,393.0,609.0,0.0,1,1998.0,0
328,328,0.43816900848523266,0.4,1.0,1.0,498.0,764.0,0.0,0,1738.0,0
329,329,0.3110423688087137,0.3,1.0,1.0,285.0,698.0,0.0,0,2017.0,0
330,330,0.8032450117889142,0.8,0.0,0.0,258.0,825.0,0.0,1,1917.0,1
331,331,0.15150130598638933,0.2,1.0,1.0,347.0,898.0,0.0,0,1755.0,0
332,332,-0.12955628320899593,-0.1,0.0,1.0,307.0,548.0,0.0,1,2145.0,0
333,333,-0.23939061354603275,-0.2,0.0,1.0,356.0,932.0,0.0,1,1712.0,0
334,334,-0.4128976309629966,-0.4,1.0,0.0,407.0,761.0,0.0,0,1832.0,1
335,335,-0.7510880825790295,-0.8,1.0,0.0,467.0,614.0,0.0,0,1919.0,1
336,336,-0.09954184703660929,-0.1,0.0,1.0,372.0,964.0,0.0,1,1664.0,0
337,337,-0.6078338511823691,-0.6,0.0,1.0,412.0,839.0,0.0,1,1749.0,0
338,338,-0.8254469053201611,-0.8,1.0,0.0,435.0,809.0,0.0,0,1756.0,1
339,339,0.4879863642205332,0.5,1.0,1.0,494.0,903.0,0.0,0,1603.0,0
340,340,-0.5502898381235869,-0.6,1.0,0.0,330.0,503.0,0.0,0,2167.0,1
341,341,-0.24281245113047356,-0.2,0.0,1.0,461.0,777.0,1.0,0,-1218.0,1
342,342,0.41591410213968427,0.4,0.0,0.0,268.0,603.0,0.0,1,-841.0,1
343,343,-0.3427100860209219,-0.3,1.0,0.0,485.0,847.0,0.0,0,1668.0,1
344,344,0.10292394549782646,0.1,0.0,0.0,254.0,815.0,0.0,1,1931.0,1
345,345,-0.3747976938439864,-0.4,1.0,0.0,467.0,916.0,0.0,0,1617.0,1
346,346,-0.5467166122119297,-0.5,1.0,0.0,259.0,643.0,0.0,0,2098.0,1
347,347,-0.09616989747868132,-0.1,1.0,0.0,373.0,591.0,0.0,0,2036.0,1
348,348,0.5626657661460369,0.6,1.0,1.0,318.0,661.0,0.0,0,2021.0,0
349,349,0.7792196870962279,0.8,1.0,1.0,266.0,913.0,0.0,0,1821.0,0
350,350,0.19322089181288693,0.2,0.0,0.0,357.0,604.0,0.0,1,2039.0,1
351,351,-0.6305714370944544,-0.6,1.0,0.0,283.0,957.0,0.0,0,1760.0,1
352,352,0.37862727739489366,0.4,1.0,1.0,348.0,690.0,0.0,0,1962.0,0
353,353,-0.15646548402535387,-0.2,1.0,0.0,424.0,603.0,1.0,1,-927.0,0
354,354,0.6787217848815906,0.7,1.0,1.0,255.0,542.0,0.0,0,2203.0,0
355,355,0.29367832797886095,0.3,0.0,0.0,360.0,951.0,0.0,1,1689.0,1
356,356,-0.3323181769499255,-0.3,1.0,0.0,482.0,643.0,0.0,0,1875.0,1
357,357,-0.44333312397249897,-0.4,0.0,1.0,495.0,738.0,1.0,0,-1163.0,1
358,358,0.44473564675227617,0.4,0.0,0.0,466.0,805.0,0.0,1,1729.0,1
359,359,0.7509299249425129,0.8,0.0,0.0,353.0,793.0,0.0,1,1854.0,1
360,360,0.7193485895162356,0.7,0.0,0.0,484.0,821.0,0.0,1,1695.0,1
361,361,-0.7582776806300003,-0.8,1.0,0.0,292.0,950.0,0.0,0,1758.0,1
362,362,0.756510661419577,0.8,0.0,0.0,273.0,863.0,0.0,1,1864.0,1
363,363,0.8083474266001737,0.8,1.0,1.0,368.0,602.0,0.0,0,2030.0,0
364,364,-0.7042457407437102,-0.7,0.0,1.0,411.0,747.0,0.0,1,1842.0,0
365,365,-0.3913586582918128,-0.4,0.0,1.0,415.0,845.0,1.0,0,-1020.0,1
366,366,-0.03340262606307243,-0.0,0.0,1.0,340.0,861.0,0.0,1,1799.0,0
367,367,0.7842688733958841,0.8,0.0,0.0,476.0,819.0,0.0,1,1705.0,1
368,368,0.839916355782724,0.8,1.0,1.0,283.0,972.0,0.0,0,1745.0,0
369,369,0.42657084210058327,0.4,0.0,0.0,425.0,926.0,0.0,1,-1261.0,1
370,370,-0.7891227109331268,-0.8,1.0,0.0,341.0,912.0,0.0,0,1747.0,1
371,371,-0.33844810481836485,-0.3,0.0,1.0,353.0,921.0,0.0,1,1726.0,0
372,372,-0.0005949292862482691,-0.0,0.0,1.0,455.0,975.0,0.0,1,1570.0,0
373,373,-0.557140796337146,-0.6,1.0,0.0,412.0,699.0,0.0,0,1889.0,1
374,374,0.6288571562528674,0.6,0.0,0.0,451.0,837.0,0.0,1,-1248.0,1
375,375,-0.2600272630515994,-0.3,0.0,1.0,392.0,809.0,0.0,1,1799.0,0
376,376,0.48683862851175863,0.5,1.0,1.0,360.0,586.0,0.0,0,2054.0,0
377,377,-0.315464947833476,-0.3,1.0,0.0,369.0,585.0,0.0,0,2046.0,1
378,378,-0.6311062928554775,-0.6,1.0,0.0,355.0,637.0,0.0,0,2008.0,1
379,379,0.3628753068735363,0.4,0.0,0.0,256.0,684.0,0.0,1,2060.0,1
380,380,0.7836655019408819,0.8,0.0,0.0,495.0,689.0,0.0,1,1816.0,1
381,381,-0.08297820949486345,-0.1,1.0,0.0,453.0,665.0,0.0,0,1882.0,1
382,382,0.6164130185020226,0.6,0.0,0.0,333.0,654.0,0.0,1,2013.0,1
383,383,-0.28615987877885984,-0.3,0.0,1.0,430.0,729.0,0.0,1,1841.0,0
384,384,0.021636361885402855,0.0,0.0,0.0,305.0,920.0,1.0,0,-1215.0,0
385,385,-0.5165051871733085,-0.5,0.0,1.0,434.0,726.0,0.0,1,1840.0,0
386,386,0.49051626967423256,0.5,0.0,0.0,398.0,524.0,0.0,1,-742.0,1
387,387,0.4576296045858591,0.5,1.0,1.0,360.0,585.0,0.0,0,-865.0,0
388,388,0.8805787234143826,0.9,1.0,1.0,439.0,633.0,0.0,0,1928.0,0
389,389,0.13051079996374526,0.1,0.0,0.0,391.0,779.0,0.0,1,1830.0,1
390,390,-0.20932253272706847,-0.2,0.0,1.0,251.0,836.0,0.0,1,1913.0,0
391,391,-0.46785264459244885,-0.5,1.0,0.0,277.0,579.0,0.0,0,2144.0,1
392,392,0.50545320276608,0.5,0.0,0.0,297.0,999.0,0.0,1,-1246.0,1
393,393,-0.7956648990808531,-0.8,1.0,0.0,312.0,671.0,0.0,0,-763.0,1
394,394,0.6337847610829285,0.6,1.0,1.0,479.0,894.0,0.0,0,1627.0,0
395,395,0.4221539692995949,0.4,0.0,0.0,252.0,765.0,0.0,1,1983.0,1
396,396,0.7469050844278128,0.7,0.0,0.0,418.0,656.0,0.0,1,-1004.0,1
397,397,-0.0663205766835645,-0.1,0.0,1.0,390.0,657.0,0.0,1,1953.0,0
398,398,-0.5988586788641672,-0.6,1.0,0.0,281.0,866.0,0.0,0,-1027.0,1
399,399,-0.6497419656619032,-0.6,0.0,1.0,498.0,717.0,0.0,1,1785.0,0
400,400,0.14713480529278622,0.1,0.0,0.0,254.0,703.0,0.0,1,2043.0,1
401,401,0.2735727401771101,0.3,0.0,0.0,339.0,862.0,0.0,1,1799.0,1
402,402,-0.3445086684217683,-0.3,1.0,0.0,349.0,753.0,0.0,0,1898.0,1
403,403,0.8252030142002528,0.8,1.0,1.0,342.0,756.0,0.0,0,1902.0,0
404,404,-0.1326684678446588,-0.1,1.0,0.0,397.0,747.0,0.0,0,1856.0,1
405,405,-0.022485009649746646,-0.0,1.0,0.0,366.0,543.0,0.0,0,2091.0,1
406,406,0.5153794787479861,0.5,1.0,1.0,448.0,830.0,0.0,0,1722.0,0
407,407,-0.5128050444215262,-0.5,1.0,0.0,328.0,514.0,0.0,0,2158.0,1
408,408,0.10391992347783596,0.1,1.0,1.0,295.0,918.0,0.0,0,1787.0,0
409,409,-0.7061179063065817,-0.7,0.0,1.0,439.0,639.0,0.0,1,1922.0,0
410,410,0.139716353708505,0.1,0.0,0.0,399.0,826.0,0.0,1,1775.0,1
411,411,0.2114087656329734,0.2,0.0,0.0,367.0,632.0,0.0,1,-949.0,1
412,412,0.33291678059474006,0.3,1.0,1.0,440.0,521.0,0.0,0,2039.0,0
413,413,-0.42160604559436093,-0.4,0.0,1.0,348.0,775.0,0.0,1,1877.0,0
414,414,-0.7659469702664451,-0.8,0.0,1.0,346.0,618.0,0.0,1,2036.0,0
415,415,-0.143996923459197,-0.1,0.0,1.0,445.0,893.0,0.0,1,-1318.0,0
416,416,-0.42861369113157516,-0.4,0.0,1.0,487.0,564.0,0.0,1,1949.0,0
417,417,0.8977338799855815,0.9,0.0,0.0,486.0,813.0,0.0,1,1701.0,1
418,418,0.7681711950458058,0.8,1.0,1.0,272.0,733.0,0.0,0,1995.0,0
419,419,-0.18971940753421324,-0.2,0.0,1.0,456.0,777.0,0.0,1,1767.0,0
420,420,0.20689720961150726,0.2,0.0,0.0,388.0,939.0,0.0,1,1673.0,1
421,421,-0.5679401086680492,-0.6,1.0,0.0,384.0,955.0,0.0,0,1661.0,1
422,422,-0.17437181500829335,-0.2,0.0,1.0,436.0,708.0,0.0,1,1856.0,0
423,423,-0.08279175672018069,-0.1,0.0,1.0,289.0,970.0,0.0,1,1741.0,0
424,424,0.48167561424521466,0.5,0.0,0.0,257.0,612.0,0.0,1,2131.0,1
425,425,0.8830921083951883,0.9,0.0,0.0,453.0,620.0,0.0,1,1927.0,1
426,426,0.5381757791809557,0.5,1.0,1.0,331.0,890.0,0.0,0,1779.0,0
427,427,0.4021957676373483,0.4,1.0,1.0,308.0,637.0,0.0,0,2055.0,0
428,428,0.1607951181899131,0.2,0.0,0.0,434.0,886.0,0.0,1,1680.0,1
429,429,0.26309005495614246,0.3,0.0,0.0,438.0,645.0,0.0,1,1917.0,1
430,430,-0.10259411794506601,-0.1,0.0,1.0,278.0,952.0,0.0,1,1770.0,0
431,431,-0.4649781875426314,-0.5,0.0,1.0,343.0,990.0,0.0,1,1667.0,0
432,432,-0.3699626192057034,-0.4,1.0,0.0,258.0,618.0,0.0,0,2124.0,1
433,433,0.21358683199348116,0.2,1.0,1.0,275.0,501.0,0.0,0,2224.0,0
434,434,-0.8139527185147891,-0.8,1.0,0.0,323.0,655.0,0.0,0,2022.0,1
435,435,-0.25829092793477726,-0.3,0.0,1.0,469.0,694.0,0.0,1,1837.0,0
436,436,-0.2467757118492947,-0.2,1.0,0.0,260.0,814.0,0.0,0,1926.0,1
437,437,0.32045253178641564,0.3,0.0,0.0,301.0,524.0,0.0,1,2175.0,1
438,438,0.5273506658797499,0.5,1.0,1.0,471.0,978.0,0.0,0,1551.0,0
439,439,-0.047803595455761294,-0.0,1.0,0.0,305.0,726.0,0.0,0,1969.0,1
440,440,-0.7109931550168309,-0.7,0.0,1.0,415.0,960.0,0.0,1,1625.0,0
441,441,0.7109297658357673,0.7,1.0,1.0,474.0,779.0,0.0,0,1747.0,0
442,442,-0.43626720230286165,-0.4,0.0,1.0,262.0,706.0,0.0,1,-938.0,0
443,443,0.8673157412595663,0.9,1.0,1.0,481.0,734.0,0.0,0,-1145.0,0
444,444,-0.6980247872976215,-0.7,1.0,0.0,423.0,860.0,0.0,0,1717.0,1
445,445,-0.5261447780788311,-0.5,0.0,1.0,252.0,629.0,1.0,0,-851.0,1
446,446,-0.15683720344290397,-0.2,0.0,1.0,316.0,906.0,0.0,1,1778.0,0
447,447,-0.5959220682623414,-0.6,0.0,1.0,347.0,536.0,0.0,1,2117.0,0
448,448,0.8354892778671271,0.8,1.0,1.0,262.0,961.0,1.0,1,-1203.0,1
449,449,0.2897222867920598,0.3,1.0,1.0,358.0,607.0,0.0,0,2035.0,0
450,450,0.683983828093257,0.7,1.0,1.0,299.0,559.0,0.0,0,2142.0,0
451,451,-0.3239271792641889,-0.3,0.0,1.0,382.0,819.0,0.0,1,1799.0,0
452,452,0.5420409380262464,0.5,0.0,0.0,449.0,750.0,0.0,1,1801.0,1
453,453,0.511141006592286,0.5,0.0,0.0,456.0,987.0,0.0,1,1557.0,1
454,454,0.4894030167693001,0.5,1.0,1.0,403.0,553.0,0.0,0,2044.0,0
455,455,0.8361675209385483,0.8,1.0,1.0,262.0,678.0,0.0,0,2060.0,0
456,456,-0.18412166327307022,-0.2,0.0,1.0,465.0,858.0,0.0,1,1677.0,0
457,457,-0.19804639056785533,-0.2,1.0,0.0,324.0,721.0,0.0,0,1955.0,1
458,458,-0.7299380597099774,-0.7,0.0,1.0,289.0,533.0,0.0,1,2178.0,0
459,459,0.6148082379300005,0.6,0.0,0.0,297.0,873.0,0.0,1,-1160.0,1
460,460,-0.7096603713556598,-0.7,0.0,1.0,449.0,591.0,0.0,1,1960.0,0
461,461,-0.15983007800633453,-0.2,0.0,1.0,257.0,970.0,0.0,1,1773.0,0
462,462,-0.03508964677547921,-0.0,0.0,1.0,350.0,760.0,0.0,1,1890.0,0
463,463,-0.3499191907417024,-0.3,0.0,1.0,313.0,903.0,0.0,1,1784.0,0
464,464,-0.6845985478423489,-0.7,0.0,1.0,464.0,714.0,0.0,1,1822.0,0
465,465,0.8566383773340484,0.9,1.0,1.0,419.0,668.0,0.0,0,-957.0,0
466,466,-0.6018998000576754,-0.6,1.0,0.0,490.0,965.0,0.0,0,1545.0,1
467,467,0.6288735876617241,0.6,1.0,1.0,408.0,760.0,0.0,0,1832.0,0
468,468,-0.4900611095695147,-0.5,1.0,0.0,495.0,808.0,0.0,0,1697.0,1
469,469,0.3172201999447758,0.3,1.0,1.0,349.0,523.0,1.0,1,-832.0,1
470,470,-0.5764276678391471,-0.6,1.0,0.0,472.0,611.0,0.0,0,1917.0,1
471,471,-0.23313350982692405,-0.2,1.0,0.0,268.0,984.0,0.0,0,1748.0,1
472,472,-0.345911436708936,-0.3,1.0,0.0,281.0,589.0,0.0,0,-770.0,1
473,473,0.6762636942960149,0.7,1.0,1.0,454.0,748.0,0.0,0,-1102.0,0
474,474,0.851495172949755,0.9,1.0,1.0,309.0,960.0,0.0,0,1731.0,0
475,475,-0.7859185924179346,-0.8,0.0,1.0,384.0,533.0,0.0,1,2083.0,0
476,476,-0.08215607491579424,-0.1,0.0,1.0,496.0,594.0,0.0,1,1910.0,0
477,477,-0.8752780230207986,-0.9,0.0,1.0,296.0,588.0,0.0,1,2116.0,0
478,478,-0.8095009530589544,-0.8,0.0,1.0,327.0,976.0,0.0,1,1697.0,0
479,479,-0.033955850038363544,-0.0,1.0,0.0,403.0,935.0,0.0,0,1662.0,1
480,480,-0.05788463457079085,-0.1,1.0,0.0,367.0,863.0,0.0,0,1770.0,1
481,481,-0.6821756794661772,-0.7,0.0,1.0,357.0,571.0,0.0,1,2072.0,0
482,482,-0.37571858103426303,-0.4,0.0,1.0,299.0,708.0,0.0,1,1993.0,0
483,483,-0.2680489097610451,-0.3,0.0,1.0,418.0,748.0,0.0,1,1834.0,0
484,484,0.3716541699594661,0.4,0.0,0.0,269.0,795.0,0.0,1,1936.0,1
485,485,-0.09960568214950838,-0.1,1.0,0.0,431.0,500.0,0.0,0,2069.0,1
486,486,-0.2351925507220931,-0.2,0.0,1.0,294.0,995.0,0.0,1,1711.0,0
487,487,-0.20808950367478996,-0.2,1.0,0.0,306.0,592.0,0.0,0,2102.0,1
488,488,-0.4714461387476724,-0.5,0.0,1.0,314.0,695.0,0.0,1,1991.0,0
489,489,0.7660788382766576,0.8,1.0,1.0,420.0,769.0,0.0,0,1811.0,0
490,490,-0.04556032888153172,-0.0,0.0,1.0,415.0,755.0,0.0,1,1830.0,0
491,491,-0.051843010503973,-0.1,0.0,1.0,486.0,934.0,0.0,1,1580.0,0
492,492,0.6592022850149571,0.7,0.0,0.0,290.0,649.0,1.0,0,-899.0,0
493,493,-0.5960302920882232,-0.6,1.0,0.0,450.0,560.0,0.0,0,1990.0,1
494,494,0.5937553913453711,0.6,0.0,0.0,336.0,870.0,0.0,1,1794.0,1
495,495,0.19386853753833078,0.2,0.0,0.0,453.0,909.0,0.0,1,1638.0,1
496,496,-0.7674319443378711,-0.8,1.0,0.0,442.0,979.0,1.0,1,-1371.0,0
497,497,-0.7839355510840083,-0.8,0.0,1.0,442.0,819.0,0.0,1,-1041.0,0
498,498,-0.7457190548486743,-0.7,0.0,1.0,431.0,679.0,0.0,1,1890.0,0
499,499,0.45161537643953464,0.5,1.0,1.0,361.0,925.0,0.0,0,1714.0,0
500,500,0.05100889102997741,0.1,1.0,1.0,455.0,900.0,1.0,1,-1185.0,1
501,501,0.31307744036195173,0.3,1.0,1.0,298.0,666.0,0.0,0,2036.0,0
502,502,-0.487998630219203,-0.5,1.0,0.0,403.0,786.0,0.0,0,-1159.0,1
503,503,0.2384423913850905,0.2,1.0,1.0,484.0,503.0,0.0,0,2013.0,0
504,504,0.007208860690201768,0.0,0.0,0.0,329.0,735.0,0.0,1,-824.0,1
505,505,-0.7852619239244273,-0.8,0.0,1.0,258.0,586.0,0.0,1,2156.0,0
506,506,0.11621790147985533,0.1,1.0,1.0,465.0,552.0,0.0,0,-727.0,0
507,507,0.3616882577419488,0.4,0.0,0.0,440.0,741.0,0.0,1,1819.0,1
508,508,0.5045969244562644,0.5,0.0,0.0,299.0,530.0,0.0,1,2171.0,1
509,509,-0.46843213118321275,-0.5,1.0,0.0,415.0,665.0,1.0,1,-1020.0,0
510,510,-0.6620783069787611,-0.7,1.0,0.0,326.0,961.0,0.0,0,1713.0,1
511,511,0.5018051691204092,0.5,0.0,0.0,435.0,643.0,0.0,1,1922.0,1
512,512,-0.1880595323685077,-0.2,1.0,0.0,267.0,507.0,0.0,0,2226.0,1
513,513,0.24942633145754656,0.2,0.0,0.0,410.0,692.0,0.0,1,1898.0,1
514,514,-0.6096585672349801,-0.6,0.0,1.0,322.0,969.0,0.0,1,1709.0,0
515,515,0.3107243846323625,0.3,0.0,0.0,487.0,638.0,0.0,1,1875.0,1
516,516,-0.3167653696760431,-0.3,0.0,1.0,497.0,684.0,1.0,0,-1101.0,1
517,517,-0.47462228891163805,-0.5,1.0,0.0,499.0,501.0,0.0,0,2000.0,1
518,518,0.7384504212931468,0.7,1.0,1.0,252.0,800.0,0.0,0,1948.0,0
519,519,0.5030849468935862,0.5,1.0,1.0,389.0,743.0,1.0,1,-1122.0,1
520,520,-0.46065665785487625,-0.5,0.0,1.0,448.0,850.0,0.0,1,1702.0,0
521,521,0.0035144743723121152,0.0,0.0,0.0,258.0,664.0,0.0,1,2078.0,1
522,522,-0.27184288209620777,-0.3,1.0,0.0,379.0,639.0,0.0,0,1982.0,1
523,523,0.4631962441953831,0.5,0.0,0.0,310.0,528.0,0.0,1,2162.0,1
524,524,0.5022496811587166,0.5,0.0,0.0,255.0,803.0,0.0,1,1942.0,1
525,525,-0.021381239229510407,-0.0,0.0,1.0,287.0,568.0,0.0,1,2145.0,0
526,526,-0.7742045993086449,-0.8,0.0,1.0,315.0,839.0,0.0,1,1846.0,0
527,527,0.7015321158631923,0.7,0.0,0.0,254.0,531.0,0.0,1,2215.0,1
528,528,0.319479970726375,0.3,0.0,0.0,344.0,774.0,0.0,1,1882.0,1
529,529,-0.15829149403301368,-0.2,0.0,1.0,324.0,539.0,0.0,1,2137.0,0
530,530,-0.37324958351724014,-0.4,0.0,1.0,448.0,552.0,0.0,1,2000.0,0
531,531,-0.8612057688094963,-0.9,1.0,0.0,318.0,726.0,1.0,1,-1034.0,0
532,532,0.14224956226963303,0.1,1.0,1.0,439.0,527.0,0.0,0,2034.0,0
533,533,-0.5316459577560528,-0.5,1.0,0.0,254.0,885.0,0.0,0,1861.0,1
534,534,0.7248793626881308,0.7,1.0,1.0,322.0,638.0,0.0,0,2040.0,0
535,535,0.4732016503223412,0.5,1.0,1.0,449.0,603.0,0.0,0,-982.0,0
536,536,0.5924032890193632,0.6,0.0,0.0,415.0,757.0,0.0,1,1828.0,1
537,537,0.8346395514002459,0.8,0.0,0.0,331.0,745.0,0.0,1,1924.0,1
538,538,-0.37081486309136424,-0.4,0.0,1.0,261.0,735.0,0.0,1,2004.0,0
539,539,-0.4753489379726378,-0.5,1.0,0.0,411.0,668.0,0.0,0,1921.0,1
540,540,-0.6991227557052168,-0.7,0.0,1.0,264.0,875.0,0.0,1,1861.0,0
541,541,0.16726223354616765,0.2,0.0,0.0,302.0,683.0,0.0,1,2015.0,1
542,542,-0.532219596681244,-0.5,0.0,1.0,337.0,907.0,0.0,1,1756.0,0
543,543,0.5907074670956219,0.6,1.0,1.0,357.0,633.0,0.0,0,2010.0,0
544,544,-0.5085039211849219,-0.5,1.0,0.0,422.0,647.0,0.0,0,1931.0,1
545,545,0.1248783528373979,0.1,0.0,0.0,481.0,586.0,0.0,1,1933.0,1
546,546,0.7880312729308111,0.8,1.0,1.0,438.0,650.0,0.0,0,1912.0,0
547,547,-0.7635251711999694,-0.8,1.0,0.0,270.0,712.0,0.0,0,2018.0,1
548,548,0.5988745478963599,0.6,1.0,1.0,359.0,737.0,0.0,0,1904.0,0
549,549,-0.3262354675394733,-0.3,0.0,1.0,462.0,994.0,1.0,0,-1386.0,1
550,550,-0.36029805520606784,-0.4,0.0,1.0,325.0,673.0,0.0,1,2002.0,0
551,551,-0.08215290540699705,-0.1,0.0,1.0,359.0,796.0,0.0,1,1845.0,0
552,552,0.3363929874985988,0.3,0.0,0.0,452.0,763.0,0.0,1,1785.0,1
553,553,-0.716055770464811,-0.7,0.0,1.0,252.0,924.0,0.0,1,1824.0,0
554,554,0.4935759080681489,0.5,0.0,0.0,353.0,923.0,0.0,1,1724.0,1
555,555,0.5265987318008482,0.5,1.0,1.0,399.0,637.0,0.0,0,1964.0,0
556,556,-0.3170783391281864,-0.3,1.0,0.0,476.0,764.0,0.0,0,1760.0,1
557,557,0.37113740195527745,0.4,1.0,1.0,417.0,895.0,0.0,0,1688.0,0
558,558,-0.0028013699844652296,-0.0,0.0,1.0,265.0,737.0,0.0,1,1998.0,0
559,559,0.3101718950733646,0.3,1.0,1.0,473.0,689.0,0.0,0,1838.0,0
560,560,-0.8812835347865398,-0.9,1.0,0.0,274.0,607.0,0.0,0,2119.0,1
561,561,0.45550617209096933,0.5,1.0,1.0,327.0,925.0,0.0,0,1748.0,0
562,562,-0.3763936378932822,-0.4,0.0,1.0,454.0,617.0,0.0,1,1929.0,0
563,563,-0.5364904442023162,-0.5,1.0,0.0,478.0,544.0,0.0,0,1978.0,1
564,564,-0.014842193258660208,-0.0,0.0,1.0,293.0,578.0,0.0,1,2129.0,0
565,565,-0.6217896058679517,-0.6,1.0,0.0,301.0,617.0,0.0,0,2082.0,1
566,566,-0.3260682615775211,-0.3,1.0,0.0,432.0,882.0,0.0,0,1686.0,1
567,567,-0.3248919612311484,-0.3,1.0,0.0,349.0,681.0,0.0,0,1970.0,1
568,568,-0.378104627454281,-0.4,1.0,0.0,385.0,933.0,0.0,0,1682.0,1
569,569,-0.5418190694479914,-0.5,0.0,1.0,319.0,737.0,0.0,1,1944.0,0
570,570,-0.3768923257860368,-0.4,1.0,0.0,327.0,987.0,0.0,0,1686.0,1
571,571,-0.7054951222193436,-0.7,1.0,0.0,343.0,624.0,0.0,0,2033.0,1
572,572,-0.8554466074566159,-0.9,1.0,0.0,498.0,708.0,0.0,0,1794.0,1
573,573,0.18877489683327664,0.2,1.0,1.0,446.0,648.0,0.0,0,1906.0,0
574,574,0.6517029969552991,0.7,0.0,0.0,307.0,599.0,0.0,1,2094.0,1
575,575,0.6256305855981471,0.6,1.0,1.0,433.0,968.0,0.0,0,1599.0,0
576,576,-0.8723825817424345,-0.9,0.0,1.0,440.0,711.0,0.0,1,1849.0,0
577,577,0.8932873552834472,0.9,0.0,0.0,472.0,633.0,0.0,1,1895.0,1
578,578,-0.7396527068234053,-0.7,0.0,1.0,483.0,995.0,0.0,1,1522.0,0
579,579,0.3612451448364754,0.4,0.0,0.0,466.0,751.0,0.0,1,1783.0,1
580,580,-0.8455875365217024,-0.8,0.0,1.0,454.0,544.0,1.0,0,-998.0,1
581,581,-0.7765817367639369,-0.8,1.0,0.0,322.0,554.0,1.0,1,-856.0,0
582,582,0.27929811247365277,0.3,0.0,0.0,355.0,707.0,0.0,1,1938.0,1
583,583,0.6412589219141395,0.6,0.0,0.0,327.0,712.0,1.0,0,-1019.0,0
584,584,0.7757501465919788,0.8,1.0,1.0,398.0,736.0,0.0,0,1866.0,0
585,585,0.15047924276779423,0.2,1.0,1.0,438.0,545.0,0.0,0,2017.0,0
586,586,-0.0857066720460623,-0.1,0.0,1.0,376.0,777.0,0.0,1,1847.0,0
587,587,0.43066301581558786,0.4,1.0,1.0,343.0,646.0,0.0,0,2011.0,0
588,588,-0.36635620558585336,-0.4,0.0,1.0,378.0,867.0,0.0,1,-995.0,0
589,589,-0.4415890444816788,-0.4,1.0,0.0,412.0,899.0,0.0,0,1689.0,1
590,590,0.1867425784108433,0.2,1.0,1.0,417.0,814.0,0.0,0,1769.0,0
591,591,-0.032193830946672386,-0.0,0.0,1.0,266.0,884.0,0.0,1,1850.0,0
592,592,0.026985862225702206,0.0,0.0,0.0,469.0,911.0,0.0,1,1620.0,1
593,593,-0.23470935102007762,-0.2,0.0,1.0,251.0,891.0,0.0,1,1858.0,0
594,594,0.6952972992733985,0.7,1.0,1.0,371.0,603.0,0.0,0,2026.0,0
595,595,-0.3082476617773585,-0.3,1.0,0.0,295.0,637.0,0.0,0,2068.0,1
596,596,-0.8667553204375446,-0.9,0.0,1.0,360.0,997.0,0.0,1,-917.0,0
597,597,0.11757644233004372,0.1,1.0,1.0,322.0,915.0,0.0,0,1763.0,0
598,598,-0.3802678883081686,-0.4,0.0,1.0,340.0,897.0,0.0,1,1763.0,0
599,599,-0.5481006758202286,-0.5,1.0,0.0,413.0,677.0,0.0,0,1910.0,1
600,600,-0.8438120858982252,-0.8,0.0,1.0,489.0,551.0,0.0,1,1960.0,0
601,601,0.20583404681289152,0.2,1.0,1.0,498.0,906.0,0.0,0,1596.0,0
602,602,0.6262683974549726,0.6,1.0,1.0,315.0,681.0,0.0,0,-966.0,0
603,603,0.1689710724701209,0.2,0.0,0.0,296.0,894.0,0.0,1,1810.0,1
604,604,0.6566825235429242,0.7,0.0,0.0,309.0,541.0,0.0,1,2150.0,1
605,605,0.748795479646489,0.7,1.0,1.0,423.0,549.0,0.0,0,2028.0,0
606,606,-0.7250726995140546,-0.7,0.0,1.0,367.0,664.0,0.0,1,1969.0,0
607,607,-0.4724026718785219,-0.5,1.0,0.0,424.0,846.0,1.0,1,-1240.0,0
608,608,0.025683340102917618,0.0,0.0,0.0,388.0,960.0,0.0,1,1652.0,1
609,609,0.7957609945281333,0.8,1.0,1.0,251.0,668.0,0.0,0,2081.0,0
610,610,-0.3220548268483717,-0.3,0.0,1.0,467.0,886.0,0.0,1,1647.0,0
611,611,0.3298550020957457,0.3,0.0,0.0,266.0,744.0,0.0,1,1990.0,1
612,612,0.419337131661485,0.4,1.0,1.0,410.0,971.0,1.0,1,-1241.0,1
613,613,0.7298227241442284,0.7,0.0,0.0,394.0,637.0,0.0,1,1969.0,1
614,614,-0.32801056472758583,-0.3,0.0,1.0,482.0,691.0,0.0,1,1827.0,0
615,615,-0.07192664673887406,-0.1,1.0,0.0,471.0,678.0,0.0,0,1851.0,1
616,616,0.20417303225282113,0.2,1.0,1.0,356.0,901.0,0.0,0,1743.0,0
617,617,0.7932012659698625,0.8,1.0,1.0,344.0,747.0,0.0,0,1909.0,0
618,618,-0.3280524270893074,-0.3,0.0,1.0,257.0,516.0,1.0,0,-673.0,1
619,619,0.242002683090352,0.2,0.0,0.0,381.0,562.0,0.0,1,2057.0,1
620,620,0.8682682755028047,0.9,1.0,1.0,281.0,717.0,0.0,0,2002.0,0
621,621,0.3713698444045922,0.4,1.0,1.0,413.0,537.0,0.0,0,2050.0,0
622,622,-0.861606786716061,-0.9,0.0,1.0,492.0,790.0,0.0,1,-1252.0,0
623,623,-0.42550422484272626,-0.4,0.0,1.0,386.0,730.0,0.0,1,1884.0,0
624,624,0.06362629487460425,0.1,1.0,1.0,474.0,684.0,0.0,0,1842.0,0
625,625,-0.012698895832611967,-0.0,0.0,1.0,476.0,520.0,0.0,1,2004.0,0
626,626,0.8665299416050706,0.9,1.0,1.0,295.0,865.0,0.0,0,1840.0,0
627,627,0.8997112608014722,0.9,1.0,1.0,445.0,650.0,0.0,0,1905.0,0
628,628,-0.7781378166514521,-0.8,1.0,0.0,317.0,612.0,0.0,0,2071.0,1
629,629,-0.531999403878928,-0.5,1.0,0.0,492.0,832.0,0.0,0,1676.0,1
630,630,-0.7186709167356841,-0.7,0.0,1.0,364.0,956.0,0.0,1,1680.0,0
631,631,-0.7707913829297534,-0.8,1.0,0.0,442.0,924.0,0.0,0,1634.0,1
632,632,0.2504194884910148,0.3,1.0,1.0,365.0,956.0,0.0,0,1679.0,0
633,633,-0.29554446668081835,-0.3,0.0,1.0,375.0,563.0,0.0,1,2062.0,0
634,634,-0.6870168718287171,-0.7,1.0,0.0,360.0,736.0,1.0,1,-1076.0,0
635,635,0.2309711458877205,0.2,1.0,1.0,389.0,500.0,1.0,1,-819.0,1
636,636,0.540573560175939,0.5,0.0,0.0,464.0,583.0,0.0,1,1953.0,1
637,637,-0.1986177236605261,-0.2,1.0,0.0,408.0,631.0,0.0,0,-959.0,1
638,638,0.8938049878088202,0.9,0.0,0.0,436.0,653.0,1.0,0,-929.0,0
639,639,-0.7075591689337128,-0.7,0.0,1.0,289.0,718.0,0.0,1,1993.0,0
640,640,0.5459133425105588,0.5,1.0,1.0,475.0,670.0,0.0,0,1855.0,0
641,641,-0.02950771198154578,-0.0,0.0,1.0,393.0,901.0,0.0,1,1706.0,0
642,642,0.37825392473512964,0.4,1.0,1.0,384.0,634.0,0.0,0,1982.0,0
643,643,-0.060905009093660145,-0.1,0.0,1.0,362.0,633.0,0.0,1,2005.0,0
644,644,-0.6456687777079251,-0.6,1.0,0.0,433.0,774.0,0.0,0,1793.0,1
645,645,0.36328476469087423,0.4,1.0,1.0,417.0,754.0,0.0,0,1829.0,0
646,646,-0.02930479725191726,-0.0,0.0,1.0,450.0,833.0,0.0,1,1717.0,0
647,647,0.6264358865677956,0.6,0.0,0.0,269.0,693.0,1.0,0,-942.0,0
648,648,0.104131558998794,0.1,0.0,0.0,259.0,689.0,0.0,1,-938.0,1
649,649,0.18203393093477593,0.2,0.0,0.0,373.0,908.0,0.0,1,1719.0,1
650,650,-0.1431180528818169,-0.1,1.0,0.0,418.0,668.0,0.0,0,-986.0,1
651,651,0.6037719164282386,0.6,1.0,1.0,479.0,596.0,0.0,0,1925.0,0
652,652,-0.2536799252775238,-0.3,1.0,0.0,416.0,669.0,0.0,0,-1065.0,1
653,653,-0.8884778428175029,-0.9,0.0,1.0,259.0,803.0,0.0,1,1938.0,0
654,654,-0.15864593841005603,-0.2,0.0,1.0,497.0,767.0,1.0,0,-1214.0,1
655,655,0.44053365088757845,0.4,1.0,1.0,404.0,611.0,0.0,0,1985.0,0
656,656,0.8733205829746561,0.9,0.0,0.0,384.0,939.0,0.0,1,1677.0,1
657,657,-0.759586290320698,-0.8,1.0,0.0,299.0,523.0,0.0,0,2178.0,1
658,658,0.4901659509373081,0.5,0.0,0.0,364.0,605.0,0.0,1,2031.0,1
659,659,-0.7505278023821403,-0.8,1.0,0.0,292.0,918.0,0.0,0,1790.0,1
660,660,0.2768756649716678,0.3,0.0,0.0,455.0,773.0,0.0,1,1772.0,1
661,661,-0.12193851938888622,-0.1,0.0,1.0,430.0,641.0,0.0,1,1929.0,0
662,662,0.22642393709843434,0.2,1.0,1.0,360.0,949.0,0.0,0,1691.0,0
663,663,0.4596325203895354,0.5,0.0,0.0,313.0,805.0,0.0,1,1882.0,1
664,664,-0.2608515025051801,-0.3,0.0,1.0,394.0,606.0,0.0,1,2000.0,0
665,665,0.39264546169327363,0.4,1.0,1.0,471.0,863.0,0.0,0,1666.0,0
666,666,-0.8746447588132115,-0.9,0.0,1.0,451.0,831.0,0.0,1,1718.0,0
667,667,0.32470766460665723,0.3,1.0,1.0,413.0,794.0,0.0,0,1793.0,0
668,668,-0.21285601968188927,-0.2,0.0,1.0,301.0,591.0,0.0,1,2108.0,0
669,669,-0.31909603256275565,-0.3,1.0,0.0,418.0,997.0,0.0,0,-915.0,1
670,670,-0.4965844768404024,-0.5,0.0,1.0,416.0,607.0,0.0,1,1977.0,0
671,671,0.3310222505200707,0.3,1.0,1.0,430.0,576.0,0.0,0,-976.0,0
672,672,-0.7151429758412949,-0.7,0.0,1.0,262.0,903.0,0.0,1,1835.0,0
673,673,-0.2382318332567196,-0.2,0.0,1.0,272.0,787.0,0.0,1,1941.0,0
674,674,-0.45946226885293295,-0.5,0.0,1.0,411.0,500.0,0.0,1,2089.0,0
675,675,0.8152559772232005,0.8,1.0,1.0,401.0,832.0,0.0,0,-1073.0,0
676,676,0.11609957623493161,0.1,0.0,0.0,303.0,766.0,1.0,0,-939.0,0
677,677,-0.3505050301269338,-0.4,0.0,1.0,293.0,991.0,0.0,1,1716.0,0
678,678,-0.7368529709752485,-0.7,0.0,1.0,394.0,645.0,1.0,0,-999.0,1
679,679,-0.8314691124425322,-0.8,0.0,1.0,481.0,689.0,0.0,1,1830.0,0
680,680,0.7333019247541578,0.7,0.0,0.0,406.0,964.0,1.0,0,-1330.0,0
681,681,-0.5735693161090973,-0.6,1.0,0.0,268.0,702.0,0.0,0,2030.0,1
682,682,0.8462530980536936,0.8,0.0,0.0,308.0,804.0,0.0,1,1888.0,1
683,683,0.24600988309287708,0.2,0.0,0.0,428.0,985.0,0.0,1,1587.0,1
684,684,-0.11604778676057537,-0.1,1.0,0.0,318.0,531.0,0.0,0,-729.0,1
685,685,-0.878048302109711,-0.9,1.0,0.0,462.0,983.0,0.0,0,1555.0,1
686,686,-0.3638488542229339,-0.4,0.0,1.0,326.0,640.0,0.0,1,2034.0,0
687,687,-0.720819956746522,-0.7,0.0,1.0,294.0,964.0,0.0,1,1742.0,0
688,688,-0.8477891937765022,-0.8,1.0,0.0,339.0,655.0,0.0,0,2006.0,1
689,689,0.7946144339454663,0.8,1.0,1.0,270.0,787.0,0.0,0,1943.0,0
690,690,0.07243583310646651,0.1,0.0,0.0,393.0,522.0,0.0,1,-435.0,1
691,691,-0.7022686495455194,-0.7,0.0,1.0,310.0,970.0,0.0,1,1720.0,0
692,692,-0.5754098854668167,-0.6,0.0,1.0,346.0,679.0,0.0,1,1975.0,0
693,693,-0.3427684416947211,-0.3,0.0,1.0,439.0,646.0,0.0,1,1915.0,0
694,694,0.6771853814180772,0.7,0.0,0.0,312.0,723.0,0.0,1,1965.0,1
695,695,-0.5736767939256902,-0.6,0.0,1.0,366.0,748.0,1.0,0,-1104.0,1
696,696,0.8503454166702119,0.9,1.0,1.0,473.0,534.0,0.0,0,1993.0,0
697,697,-0.26917191248774996,-0.3,1.0,0.0,420.0,757.0,0.0,0,1823.0,1
698,698,-0.2534633754650133,-0.3,0.0,1.0,318.0,986.0,0.0,1,-1234.0,0
699,699,0.03712055351099697,0.0,0.0,0.0,353.0,708.0,0.0,1,1939.0,1
700,700,-0.617508134364314,-0.6,1.0,0.0,377.0,893.0,1.0,1,-1190.0,0
701,701,-0.502060621820726,-0.5,0.0,1.0,426.0,731.0,0.0,1,1843.0,0
702,702,-0.23692443429129673,-0.2,1.0,0.0,422.0,909.0,0.0,0,1669.0,1
703,703,0.34521258962652557,0.3,1.0,1.0,291.0,860.0,0.0,0,1849.0,0
704,704,-0.28358138182246695,-0.3,1.0,0.0,370.0,743.0,0.0,0,1887.0,1
705,705,-0.6723071493903726,-0.7,1.0,0.0,316.0,516.0,0.0,0,2168.0,1
706,706,-0.8846280918961273,-0.9,0.0,1.0,389.0,720.0,0.0,1,1891.0,0
707,707,-0.4239786935622257,-0.4,1.0,0.0,293.0,792.0,0.0,0,1915.0,1
708,708,0.5189394919495333,0.5,1.0,1.0,293.0,706.0,0.0,0,2001.0,0
709,709,0.32617219304411627,0.3,1.0,1.0,470.0,544.0,0.0,0,1986.0,0
710,710,0.7963909873415157,0.8,0.0,0.0,294.0,503.0,1.0,0,-737.0,0
711,711,-0.4452952099943061,-0.4,0.0,1.0,455.0,626.0,0.0,1,1919.0,0
712,712,-0.6364945051070467,-0.6,1.0,0.0,295.0,857.0,0.0,0,1848.0,1
713,713,0.4689470653279121,0.5,1.0,1.0,386.0,763.0,0.0,0,1851.0,0
714,714,0.5104203328647784,0.5,1.0,1.0,472.0,619.0,1.0,1,-1041.0,1
715,715,0.32431458033839744,0.3,0.0,0.0,255.0,673.0,1.0,0,-798.0,0
716,716,0.47063415662254904,0.5,0.0,0.0,470.0,951.0,0.0,1,1579.0,1
717,717,0.39241910059646734,0.4,1.0,1.0,358.0,580.0,0.0,0,2062.0,0
718,718,-0.5826453668886713,-0.6,0.0,1.0,353.0,960.0,0.0,1,1687.0,0
719,719,-0.8933857624216215,-0.9,1.0,0.0,334.0,905.0,0.0,0,1761.0,1
720,720,0.7184216933329001,0.7,1.0,1.0,393.0,827.0,0.0,0,1780.0,0
721,721,0.845692886173467,0.8,0.0,0.0,493.0,504.0,0.0,1,2003.0,1
722,722,-0.41098541552181256,-0.4,0.0,1.0,292.0,704.0,0.0,1,2004.0,0
723,723,-0.48334316737050026,-0.5,1.0,0.0,305.0,998.0,0.0,0,1697.0,1
724,724,-0.0078055821776377154,-0.0,0.0,1.0,435.0,551.0,0.0,1,2014.0,0
725,725,0.4112500689603388,0.4,1.0,1.0,386.0,839.0,0.0,0,1775.0,0
726,726,-0.33729866388734575,-0.3,0.0,1.0,339.0,526.0,0.0,1,2135.0,0
727,727,-0.3194190229131503,-0.3,1.0,0.0,312.0,576.0,0.0,0,2112.0,1
728,728,-0.7484999241035676,-0.7,0.0,1.0,341.0,699.0,0.0,1,1960.0,0
729,729,-0.33052195985131005,-0.3,0.0,1.0,456.0,710.0,0.0,1,1834.0,0
730,730,0.14771058441514728,0.1,1.0,1.0,385.0,914.0,0.0,0,1701.0,0
731,731,0.048539324227102054,0.0,1.0,1.0,476.0,886.0,0.0,0,-1322.0,0
732,732,-0.15917718907148826,-0.2,0.0,1.0,429.0,834.0,0.0,1,-1143.0,0
733,733,0.2460552477700687,0.2,0.0,0.0,496.0,860.0,0.0,1,1644.0,1
734,734,-0.4990418439623691,-0.5,1.0,0.0,259.0,743.0,0.0,0,1998.0,1
735,735,0.6913700464597584,0.7,1.0,1.0,456.0,933.0,0.0,0,1611.0,0
736,736,-0.35646452081369906,-0.4,1.0,0.0,337.0,683.0,0.0,0,1980.0,1
737,737,-0.4060074233452248,-0.4,0.0,1.0,382.0,908.0,1.0,0,-1180.0,1
738,738,-0.5584352231760972,-0.6,1.0,0.0,348.0,686.0,0.0,0,1966.0,1
739,739,-0.07389825674091788,-0.1,1.0,0.0,441.0,871.0,0.0,0,1688.0,1
740,740,0.3444129914724702,0.3,0.0,0.0,270.0,926.0,0.0,1,1804.0,1
741,741,0.11654197568186009,0.1,1.0,1.0,289.0,867.0,0.0,0,1844.0,0
742,742,-0.5222305728365724,-0.5,0.0,1.0,467.0,854.0,0.0,1,1679.0,0
743,743,0.5216778804578509,0.5,1.0,1.0,406.0,637.0,0.0,0,1957.0,0
744,744,0.30481166748528177,0.3,1.0,1.0,310.0,713.0,0.0,0,1977.0,0
745,745,-0.14570752489242023,-0.1,1.0,0.0,304.0,662.0,0.0,0,2034.0,1
746,746,0.5809887514761046,0.6,1.0,1.0,330.0,694.0,0.0,0,1976.0,0
747,747,0.7589015416706067,0.8,1.0,1.0,460.0,908.0,0.0,0,1632.0,0
748,748,-0.11565574763549036,-0.1,1.0,0.0,370.0,950.0,0.0,0,1680.0,1
749,749,0.2439256160552815,0.2,0.0,0.0,261.0,511.0,0.0,1,2228.0,1
750,750,0.12006043971580083,0.1,0.0,0.0,499.0,747.0,0.0,1,1754.0,1
751,751,0.7082951839440409,0.7,0.0,0.0,307.0,633.0,0.0,1,2060.0,1
752,752,-0.34654677759412944,-0.3,1.0,0.0,478.0,707.0,0.0,0,1815.0,1
753,753,-0.044708978565857094,-0.0,0.0,1.0,325.0,748.0,0.0,1,1927.0,0
754,754,0.003920633936908446,0.0,0.0,0.0,354.0,663.0,0.0,1,1983.0,1
755,755,0.2243973117001673,0.2,1.0,1.0,301.0,970.0,0.0,0,1729.0,0
756,756,-0.27033531889524687,-0.3,1.0,0.0,390.0,970.0,0.0,0,1640.0,1
757,757,-0.5589351432909726,-0.6,0.0,1.0,449.0,552.0,0.0,1,1999.0,0
758,758,0.7305989955768354,0.7,0.0,0.0,417.0,572.0,0.0,1,2011.0,1
759,759,0.19645887568076625,0.2,1.0,1.0,476.0,772.0,0.0,0,1752.0,0
760,760,0.8148679917249618,0.8,1.0,1.0,336.0,820.0,0.0,0,1844.0,0
761,761,0.12164086878381564,0.1,1.0,1.0,443.0,781.0,1.0,1,-1104.0,1
762,762,0.8735344494506773,0.9,0.0,0.0,264.0,674.0,0.0,1,-668.0,1
763,763,0.5998585657116112,0.6,0.0,0.0,465.0,586.0,0.0,1,1949.0,1
764,764,0.31594037031867395,0.3,1.0,1.0,462.0,908.0,0.0,0,1630.0,0
765,765,-0.7489724609019546,-0.7,1.0,0.0,399.0,534.0,0.0,0,2067.0,1
766,766,0.6905287388533389,0.7,0.0,0.0,468.0,932.0,0.0,1,1600.0,1
767,767,0.6208323691309584,0.6,1.0,1.0,415.0,912.0,0.0,0,1673.0,0
768,768,0.5629569999900012,0.6,0.0,0.0,460.0,972.0,0.0,1,1568.0,1
769,769,0.08361745690947886,0.1,0.0,0.0,293.0,720.0,0.0,1,1987.0,1
770,770,0.11827178528400462,0.1,1.0,1.0,344.0,562.0,0.0,0,2094.0,0
771,771,0.06401481165122669,0.1,1.0,1.0,345.0,818.0,0.0,0,1837.0,0
772,772,-0.15396860274497826,-0.2,0.0,1.0,410.0,630.0,0.0,1,1960.0,0
773,773,-0.7287748196222754,-0.7,1.0,0.0,402.0,942.0,0.0,0,1656.0,1
774,774,0.6531606354176877,0.7,0.0,0.0,419.0,548.0,0.0,1,2033.0,1
775,775,0.15416526574689937,0.2,1.0,1.0,299.0,575.0,0.0,0,2126.0,0
776,776,-0.08289000512797295,-0.1,1.0,0.0,458.0,505.0,0.0,0,2037.0,1
777,777,0.29927848459951345,0.3,1.0,1.0,488.0,848.0,0.0,0,1664.0,0
778,778,-0.30100018411578067,-0.3,1.0,0.0,401.0,733.0,0.0,0,1866.0,1
779,779,0.4583367275449767,0.5,1.0,1.0,326.0,979.0,0.0,0,1695.0,0
780,780,-0.8102326648315005,-0.8,0.0,1.0,439.0,609.0,0.0,1,1952.0,0
781,781,0.508532541655425,0.5,0.0,0.0,438.0,829.0,0.0,1,1733.0,1
782,782,0.1646614981166824,0.2,1.0,1.0,298.0,640.0,0.0,0,2062.0,0
783,783,-0.2375319919933091,-0.2,1.0,0.0,497.0,737.0,0.0,0,1766.0,1
784,784,0.8849316994476008,0.9,0.0,0.0,291.0,971.0,0.0,1,-1182.0,1
785,785,-0.7832314230206245,-0.8,1.0,0.0,281.0,917.0,0.0,0,1802.0,1
786,786,0.47030696916021275,0.5,0.0,0.0,254.0,964.0,0.0,1,1782.0,1
787,787,-0.0412775971329683,-0.0,1.0,0.0,496.0,912.0,0.0,0,1592.0,1
788,788,-0.654046309483263,-0.7,1.0,0.0,474.0,792.0,0.0,0,1734.0,1
789,789,-0.0028507520492191407,-0.0,0.0,1.0,330.0,593.0,0.0,1,-813.0,0
790,790,-0.48118804388969477,-0.5,1.0,0.0,348.0,535.0,0.0,0,2117.0,1
791,791,-0.5680582661270042,-0.6,0.0,1.0,316.0,949.0,0.0,1,1735.0,0
792,792,-0.6101207020570265,-0.6,0.0,1.0,483.0,521.0,0.0,1,1996.0,0
793,793,0.6728876430901548,0.7,1.0,1.0,475.0,653.0,0.0,0,1872.0,0
794,794,0.720113676302227,0.7,0.0,0.0,462.0,992.0,0.0,1,1546.0,1
795,795,-0.43589195804649045,-0.4,0.0,1.0,335.0,529.0,0.0,1,-734.0,0
796,796,0.7852399362451844,0.8,0.0,0.0,444.0,898.0,0.0,1,1658.0,1
797,797,-0.6187104375585513,-0.6,0.0,1.0,409.0,820.0,0.0,1,1771.0,0
798,798,-0.30324317951588076,-0.3,1.0,0.0,343.0,792.0,1.0,1,-1105.0,0
799,799,0.7804418348840948,0.8,1.0,1.0,277.0,869.0,0.0,0,1854.0,0
800,800,0.19375818171416592,0.2,1.0,1.0,336.0,858.0,0.0,0,1806.0,0
801,801,-0.764445557985047,-0.8,1.0,0.0,482.0,987.0,0.0,0,1531.0,1
802,802,-0.7583037407085891,-0.8,0.0,1.0,277.0,704.0,0.0,1,2019.0,0
803,803,-0.6987715524501409,-0.7,0.0,1.0,390.0,570.0,0.0,1,2040.0,0
804,804,0.46892343132678815,0.5,0.0,0.0,266.0,540.0,0.0,1,2194.0,1
805,805,-0.0625628301310357,-0.1,1.0,0.0,295.0,611.0,0.0,0,2094.0,1
806,806,0.15657769408490585,0.2,1.0,1.0,318.0,885.0,0.0,0,1797.0,0
807,807,0.6877824126503452,0.7,1.0,1.0,329.0,501.0,1.0,1,-730.0,1
808,808,0.7517417115598636,0.8,0.0,0.0,306.0,703.0,0.0,1,1991.0,1
809,809,-0.5970085249015629,-0.6,0.0,1.0,343.0,564.0,0.0,1,2093.0,0
810,810,0.5749634198147212,0.6,0.0,0.0,316.0,934.0,0.0,1,1750.0,1
811,811,0.07044860063875502,0.1,1.0,1.0,341.0,612.0,0.0,0,2047.0,0
812,812,0.17122068585924455,0.2,1.0,1.0,315.0,951.0,0.0,0,1734.0,0
813,813,-0.2381369607387781,-0.2,0.0,1.0,326.0,569.0,0.0,1,2105.0,0
814,814,0.5079382066109207,0.5,1.0,1.0,333.0,945.0,0.0,0,1722.0,0
815,815,-0.7721283997837759,-0.8,1.0,0.0,341.0,694.0,0.0,0,1965.0,1
816,816,-0.6709629522247106,-0.7,0.0,1.0,337.0,657.0,0.0,1,2006.0,0
817,817,-0.13739160289053465,-0.1,1.0,0.0,361.0,804.0,0.0,0,1835.0,1
818,818,-0.633560295254476,-0.6,1.0,0.0,420.0,539.0,0.0,0,2041.0,1
819,819,-0.8615665801733098,-0.9,1.0,0.0,357.0,939.0,0.0,0,1704.0,1
820,820,-0.7436313873378417,-0.7,1.0,0.0,343.0,600.0,0.0,0,-783.0,1
821,821,-0.041071615433490805,-0.0,0.0,1.0,499.0,794.0,0.0,1,1707.0,0
822,822,-0.6235001079533369,-0.6,0.0,1.0,459.0,634.0,0.0,1,1907.0,0
823,823,-0.5397177554623764,-0.5,0.0,1.0,270.0,945.0,0.0,1,1785.0,0
824,824,0.6417778493588614,0.6,0.0,0.0,336.0,582.0,0.0,1,2082.0,1
825,825,-0.18636395552176976,-0.2,1.0,0.0,255.0,721.0,0.0,0,2024.0,1
826,826,0.8610813016810247,0.9,0.0,0.0,287.0,743.0,0.0,1,1970.0,1
827,827,0.5201492462809644,0.5,0.0,0.0,365.0,985.0,0.0,1,1650.0,1
828,828,-0.4515481906133091,-0.5,1.0,0.0,449.0,656.0,0.0,0,1895.0,1
829,829,0.7958005170146748,0.8,0.0,0.0,437.0,620.0,0.0,1,-1047.0,1
830,830,0.07277600608785673,0.1,1.0,1.0,332.0,668.0,0.0,0,2000.0,0
831,831,-0.5426307568587094,-0.5,1.0,0.0,390.0,945.0,0.0,0,1665.0,1
832,832,0.5775050431660501,0.6,0.0,0.0,254.0,754.0,0.0,1,1992.0,1
833,833,0.058247977541725504,0.1,1.0,1.0,294.0,681.0,0.0,0,2025.0,0
834,834,0.35704856518484795,0.4,1.0,1.0,396.0,947.0,1.0,1,-1283.0,1
835,835,0.8421833438326632,0.8,1.0,1.0,253.0,540.0,0.0,0,2207.0,0
836,836,-0.7159087021740158,-0.7,1.0,0.0,452.0,600.0,0.0,0,1948.0,1
837,837,-0.6464678722375305,-0.6,0.0,1.0,423.0,591.0,0.0,1,1986.0,0
838,838,-0.29100810087353834,-0.3,0.0,1.0,464.0,934.0,0.0,1,1602.0,0
839,839,0.8297798661563406,0.8,1.0,1.0,487.0,691.0,1.0,1,-1018.0,1
840,840,0.6052308152940923,0.6,0.0,0.0,496.0,627.0,0.0,1,1877.0,1
841,841,-0.5886080261835311,-0.6,1.0,0.0,362.0,804.0,0.0,0,1834.0,1
842,842,0.3593395064118782,0.4,1.0,1.0,308.0,633.0,0.0,0,2059.0,0
843,843,0.3866385702312086,0.4,0.0,0.0,323.0,554.0,0.0,1,2123.0,1
844,844,0.8385704714385845,0.8,1.0,1.0,378.0,627.0,0.0,0,1995.0,0
845,845,-0.6089294157487297,-0.6,1.0,0.0,309.0,764.0,0.0,0,1927.0,1
846,846,-0.8570377023664285,-0.9,1.0,0.0,329.0,827.0,0.0,0,1844.0,1
847,847,-0.16297131752785055,-0.2,0.0,1.0,467.0,544.0,0.0,1,1989.0,0
848,848,0.35716801422162237,0.4,1.0,1.0,352.0,822.0,0.0,0,1826.0,0
849,849,0.5121966958922773,0.5,1.0,1.0,286.0,960.0,0.0,0,1754.0,0
850,850,0.3183645062327175,0.3,0.0,0.0,338.0,782.0,0.0,1,1880.0,1
851,851,-0.03822050536165611,-0.0,1.0,0.0,313.0,919.0,0.0,0,1768.0,1
852,852,0.3514549963937591,0.4,1.0,1.0,379.0,788.0,0.0,0,1833.0,0
853,853,-0.33424226620212394,-0.3,0.0,1.0,450.0,793.0,0.0,1,1757.0,0
854,854,-0.6565004445513662,-0.7,1.0,0.0,420.0,673.0,0.0,0,1907.0,1
855,855,-0.2293027232918584,-0.2,0.0,1.0,254.0,543.0,1.0,0,-777.0,1
856,856,0.054827366960713886,0.1,0.0,0.0,405.0,921.0,1.0,0,-1326.0,0
857,857,0.1429592472418425,0.1,1.0,1.0,465.0,980.0,0.0,0,1555.0,0
858,858,0.1688749483288482,0.2,0.0,0.0,447.0,800.0,0.0,1,1753.0,1
859,859,0.8826698220621513,0.9,1.0,1.0,313.0,748.0,0.0,0,1939.0,0
860,860,0.7881784774857304,0.8,0.0,0.0,480.0,754.0,0.0,1,1766.0,1
861,861,-0.6160743287808275,-0.6,1.0,0.0,257.0,891.0,0.0,0,1852.0,1
862,862,0.43362196707217604,0.4,1.0,1.0,441.0,601.0,0.0,0,1958.0,0
863,863,-0.8073879305365818,-0.8,1.0,0.0,315.0,631.0,0.0,0,2054.0,1
864,864,0.08817050957093708,0.1,0.0,0.0,454.0,936.0,0.0,1,1610.0,1
865,865,0.36946782552436186,0.4,1.0,1.0,288.0,518.0,0.0,0,2194.0,0
866,866,-0.8115329326977608,-0.8,0.0,1.0,420.0,686.0,0.0,1,-1036.0,0
867,867,-0.7995449306473033,-0.8,1.0,0.0,376.0,962.0,0.0,0,1662.0,1
868,868,0.6612499906821853,0.7,0.0,0.0,373.0,736.0,0.0,1,1891.0,1
869,869,0.7910393266772572,0.8,0.0,0.0,256.0,573.0,0.0,1,2171.0,1
870,870,-0.6425097289238497,-0.6,0.0,1.0,486.0,654.0,0.0,1,-1090.0,0
871,871,-0.38632881945761366,-0.4,1.0,0.0,422.0,858.0,0.0,0,1720.0,1
872,872,-0.7505988908356114,-0.8,1.0,0.0,452.0,817.0,0.0,0,1731.0,1
873,873,-0.4646245061733701,-0.5,0.0,1.0,266.0,508.0,0.0,1,2226.0,0
874,874,-0.594970606024662,-0.6,1.0,0.0,266.0,557.0,0.0,0,2177.0,1
875,875,0.33556787972252466,0.3,1.0,1.0,407.0,813.0,0.0,0,1780.0,0
876,876,-0.809093712183474,-0.8,1.0,0.0,498.0,883.0,0.0,0,1619.0,1
877,877,-0.57456841645869,-0.6,0.0,1.0,291.0,674.0,0.0,1,-815.0,0
878,878,0.2322207383942393,0.2,1.0,1.0,380.0,522.0,0.0,0,2098.0,0
879,879,-0.5726314876117156,-0.6,1.0,0.0,432.0,714.0,0.0,0,1854.0,1
880,880,-0.5771433264178212,-0.6,1.0,0.0,478.0,745.0,0.0,0,-1193.0,1
881,881,0.7245883129975524,0.7,1.0,1.0,283.0,577.0,0.0,0,2140.0,0
882,882,-0.5147859789026379,-0.5,1.0,0.0,280.0,615.0,0.0,0,-745.0,1
883,883,0.3026075907520559,0.3,1.0,1.0,419.0,876.0,0.0,0,1705.0,0
884,884,-0.2372726700676261,-0.2,0.0,1.0,287.0,913.0,0.0,1,1800.0,0
885,885,-0.2680339689972546,-0.3,0.0,1.0,417.0,651.0,0.0,1,1932.0,0
886,886,0.3947692114252953,0.4,1.0,1.0,289.0,717.0,0.0,0,1994.0,0
887,887,0.41123389535997135,0.4,1.0,1.0,328.0,846.0,0.0,0,1826.0,0
888,888,0.575089881427654,0.6,1.0,1.0,463.0,936.0,0.0,0,1601.0,0
889,889,-0.21667652376828717,-0.2,1.0,0.0,285.0,635.0,0.0,0,2080.0,1
890,890,-0.19809689651568485,-0.2,1.0,0.0,421.0,597.0,0.0,0,-838.0,1
891,891,-0.5736728746697124,-0.6,0.0,1.0,309.0,669.0,0.0,1,2022.0,0
892,892,0.15192106087072943,0.2,0.0,0.0,414.0,694.0,0.0,1,-1078.0,1
893,893,-0.7015411934357166,-0.7,1.0,0.0,464.0,749.0,1.0,1,-1193.0,0
894,894,0.38046768551099,0.4,1.0,1.0,451.0,913.0,0.0,0,1636.0,0
895,895,-0.6320470529464635,-0.6,0.0,1.0,385.0,656.0,0.0,1,1959.0,0
896,896,0.7029691436458515,0.7,1.0,1.0,424.0,861.0,0.0,0,1715.0,0
897,897,0.8424473014134627,0.8,0.0,0.0,382.0,541.0,0.0,1,2077.0,1
898,898,0.8362817942481907,0.8,0.0,0.0,371.0,860.0,0.0,1,1769.0,1
899,899,0.45524186830518343,0.5,0.0,0.0,292.0,838.0,0.0,1,1870.0,1
900,900,0.05424632745134306,0.1,1.0,1.0,363.0,946.0,0.0,0,1691.0,0
901,901,0.28516652781633345,0.3,1.0,1.0,412.0,655.0,0.0,0,1933.0,0
902,902,0.0756248496831371,0.1,0.0,0.0,441.0,694.0,0.0,1,1865.0,1
903,903,-0.8660590585557429,-0.9,1.0,0.0,475.0,607.0,0.0,0,1918.0,1
904,904,-0.6054838116437864,-0.6,0.0,1.0,264.0,569.0,0.0,1,-833.0,0
905,905,-0.7966074134445745,-0.8,0.0,1.0,458.0,972.0,0.0,1,1570.0,0
906,906,-0.3327446799685363,-0.3,1.0,0.0,307.0,889.0,0.0,0,1804.0,1
907,907,0.637124422902828,0.6,1.0,1.0,393.0,871.0,1.0,1,-1254.0,1
908,908,-0.7234714022871306,-0.7,1.0,0.0,304.0,767.0,0.0,0,1929.0,1
909,909,-0.8687496638011024,-0.9,1.0,0.0,311.0,504.0,0.0,0,2185.0,1
910,910,0.29891559667021517,0.3,0.0,0.0,261.0,574.0,0.0,1,2165.0,1
911,911,0.8170306307977983,0.8,1.0,1.0,422.0,893.0,0.0,0,1685.0,0
912,912,0.6310816192346548,0.6,1.0,1.0,493.0,967.0,0.0,0,1540.0,0
913,913,-0.03657150647585938,-0.0,0.0,1.0,431.0,650.0,0.0,1,1919.0,0
914,914,-0.2055916002612127,-0.2,0.0,1.0,275.0,895.0,0.0,1,-1150.0,0
915,915,0.05299057103227289,0.1,0.0,0.0,339.0,645.0,0.0,1,2016.0,1
916,916,0.2927692999547561,0.3,1.0,1.0,374.0,897.0,0.0,0,1729.0,0
917,917,-0.11345865961655421,-0.1,1.0,0.0,479.0,987.0,0.0,0,1534.0,1
918,918,-0.5735086549588122,-0.6,1.0,0.0,264.0,981.0,0.0,0,1755.0,1
919,919,-0.8325391525171151,-0.8,0.0,1.0,274.0,704.0,1.0,0,-968.0,1
920,920,0.10763893336334396,0.1,1.0,1.0,271.0,934.0,0.0,0,1795.0,0
921,921,0.5145780860924377,0.5,1.0,1.0,443.0,751.0,0.0,0,1806.0,0
922,922,0.7655446669851774,0.8,1.0,1.0,291.0,897.0,0.0,0,1812.0,0
923,923,-0.6977204860185664,-0.7,0.0,1.0,406.0,606.0,0.0,1,1988.0,0
924,924,-0.5396552566573298,-0.5,1.0,0.0,300.0,809.0,0.0,0,-1029.0,1
925,925,-0.013395971698763054,-0.0,0.0,1.0,324.0,890.0,0.0,1,1786.0,0
926,926,-0.2970414436152963,-0.3,1.0,0.0,262.0,661.0,0.0,0,2077.0,1
927,927,0.060699334237418134,0.1,1.0,1.0,264.0,824.0,0.0,0,1912.0,0
928,928,0.4671237396777089,0.5,0.0,0.0,270.0,851.0,0.0,1,1879.0,1
929,929,-0.31444217687334197,-0.3,0.0,1.0,266.0,764.0,0.0,1,1970.0,0
930,930,0.4585277855330355,0.5,0.0,0.0,302.0,828.0,1.0,0,-1040.0,0
931,931,-0.7848952887137508,-0.8,0.0,1.0,286.0,792.0,0.0,1,1922.0,0
932,932,0.09177886884687658,0.1,0.0,0.0,457.0,728.0,0.0,1,1815.0,1
933,933,-0.5922527569611851,-0.6,1.0,0.0,342.0,984.0,0.0,0,1674.0,1
934,934,-0.52072559594546,-0.5,0.0,1.0,376.0,780.0,0.0,1,1844.0,0
935,935,-0.005679101068823522,-0.0,0.0,1.0,273.0,716.0,0.0,1,2011.0,0
936,936,0.21994175593732057,0.2,0.0,0.0,395.0,902.0,0.0,1,1703.0,1
937,937,0.8441697003228256,0.8,1.0,1.0,492.0,976.0,0.0,0,1532.0,0
938,938,0.627309627387527,0.6,1.0,1.0,333.0,842.0,0.0,0,1825.0,0
939,939,-0.6190084868535877,-0.6,1.0,0.0,262.0,686.0,0.0,0,2052.0,1
940,940,-0.19763619594975845,-0.2,1.0,0.0,292.0,686.0,0.0,0,2022.0,1
941,941,-0.38412440682386784,-0.4,0.0,1.0,287.0,840.0,0.0,1,1873.0,0
942,942,-0.5743629925970946,-0.6,0.0,1.0,302.0,564.0,0.0,1,2134.0,0
943,943,0.5718285582845007,0.6,1.0,1.0,357.0,829.0,0.0,0,1814.0,0
944,944,0.5357596794251221,0.5,1.0,1.0,374.0,783.0,0.0,0,1843.0,0
945,945,0.3696949670824331,0.4,1.0,1.0,408.0,624.0,0.0,0,1968.0,0
946,946,0.7941335591955304,0.8,1.0,1.0,270.0,512.0,0.0,0,2218.0,0
947,947,0.542615192187469,0.5,1.0,1.0,374.0,899.0,0.0,0,1727.0,0
948,948,-0.29618454707163167,-0.3,0.0,1.0,320.0,753.0,0.0,1,1927.0,0
949,949,0.33283449588667413,0.3,1.0,1.0,457.0,660.0,0.0,0,1883.0,0
950,950,-0.7819094838178255,-0.8,0.0,1.0,494.0,585.0,0.0,1,1921.0,0
951,951,-0.6425582045060159,-0.6,0.0,1.0,408.0,857.0,0.0,1,1735.0,0
952,952,0.51207620316472,0.5,1.0,1.0,269.0,810.0,0.0,0,1921.0,0
953,953,0.6858643832818209,0.7,1.0,1.0,466.0,978.0,0.0,0,1556.0,0
954,954,0.33569874382006504,0.3,0.0,0.0,337.0,738.0,0.0,1,-985.0,1
955,955,-0.759292374415368,-0.8,1.0,0.0,422.0,857.0,0.0,0,1721.0,1
956,956,-0.26163217928474747,-0.3,0.0,1.0,398.0,977.0,0.0,1,1625.0,0
957,957,-0.4582804841733933,-0.5,0.0,1.0,296.0,924.0,0.0,1,1780.0,0
958,958,0.613212217095327,0.6,1.0,1.0,484.0,705.0,0.0,0,1811.0,0
959,959,0.48035578244937704,0.5,1.0,1.0,371.0,926.0,0.0,0,-1097.0,0
960,960,-0.7664509233992147,-0.8,1.0,0.0,457.0,918.0,0.0,0,1625.0,1
961,961,-0.14127599236716193,-0.1,0.0,1.0,390.0,847.0,0.0,1,1763.0,0
962,962,0.37170901350897834,0.4,1.0,1.0,445.0,592.0,0.0,0,1963.0,0
963,963,-0.6985996083232967,-0.7,1.0,0.0,433.0,669.0,0.0,0,1898.0,1
964,964,0.3138096411551746,0.3,0.0,0.0,290.0,613.0,0.0,1,2097.0,1
965,965,-0.1515600830124012,-0.2,0.0,1.0,315.0,947.0,0.0,1,1738.0,0
966,966,0.8656106749882534,0.9,0.0,0.0,496.0,862.0,0.0,1,1642.0,1
967,967,-0.7530493527857579,-0.8,0.0,1.0,371.0,626.0,0.0,1,2003.0,0
968,968,-0.7029034092188635,-0.7,0.0,1.0,300.0,665.0,0.0,1,2035.0,0
969,969,-0.8542035856086903,-0.9,1.0,0.0,303.0,551.0,0.0,0,2146.0,1
970,970,0.8287971236768853,0.8,0.0,0.0,318.0,522.0,0.0,1,-600.0,1
971,971,-0.8539674772520139,-0.9,0.0,1.0,443.0,907.0,0.0,1,1650.0,0
972,972,0.5566864879839007,0.6,1.0,1.0,420.0,768.0,1.0,1,-1118.0,1
973,973,0.8462695245668227,0.8,0.0,0.0,423.0,788.0,0.0,1,1789.0,1
974,974,-0.8914886620725232,-0.9,0.0,1.0,357.0,678.0,1.0,0,-995.0,1
975,975,0.4048361432869928,0.4,1.0,1.0,479.0,988.0,1.0,1,-1307.0,1
976,976,-0.6981083258372573,-0.7,0.0,1.0,478.0,693.0,0.0,1,1829.0,0
977,977,-0.4241226496360129,-0.4,1.0,0.0,265.0,680.0,1.0,1,-935.0,0
978,978,-0.8898390354186422,-0.9,0.0,1.0,393.0,870.0,0.0,1,1737.0,0
979,979,0.3349268836999709,0.3,0.0,0.0,284.0,883.0,0.0,1,1833.0,1
980,980,0.706312044224538,0.7,0.0,0.0,495.0,659.0,0.0,1,1846.0,1
981,981,-0.43458968554947813,-0.4,1.0,0.0,436.0,912.0,0.0,0,1652.0,1
982,982,-0.42095529576204943,-0.4,0.0,1.0,475.0,895.0,0.0,1,1630.0,0
983,983,0.6944045508409037,0.7,1.0,1.0,347.0,942.0,0.0,0,-1189.0,0
984,984,-0.2029722141233229,-0.2,0.0,1.0,286.0,947.0,0.0,1,1767.0,0
985,985,0.22980994009502032,0.2,0.0,0.0,287.0,883.0,0.0,1,1830.0,1
986,986,0.35996893079641545,0.4,0.0,0.0,309.0,663.0,0.0,1,2028.0,1
987,987,0.293166470697951,0.3,1.0,1.0,398.0,564.0,0.0,0,2038.0,0
988,988,0.29835540751658185,0.3,0.0,0.0,394.0,935.0,0.0,1,1671.0,1
989,989,-0.6970033254976227,-0.7,0.0,1.0,484.0,859.0,0.0,1,1657.0,0
990,990,-0.27262517425580846,-0.3,0.0,1.0,352.0,873.0,0.0,1,1775.0,0
991,991,0.6784848036745769,0.7,1.0,1.0,314.0,537.0,0.0,0,2149.0,0
992,992,0.16848390171400063,0.2,0.0,0.0,438.0,978.0,0.0,1,1584.0,1
993,993,0.32113310590936395,0.3,0.0,0.0,438.0,905.0,0.0,1,1657.0,1
994,994,-0.27846204028321964,-0.3,0.0,1.0,415.0,548.0,0.0,1,2037.0,0
995,995,-0.20665276262916077,-0.2,1.0,0.0,330.0,708.0,0.0,0,1962.0,1
996,996,0.09812258106723826,0.1,1.0,1.0,470.0,865.0,0.0,0,1665.0,0
997,997,0.1416837656703428,0.1,1.0,1.0,491.0,889.0,0.0,0,1620.0,0
998,998,-0.05512955737977254,-0.1,0.0,1.0,449.0,939.0,0.0,1,1612.0,0
999,999,-0.17417376973392318,-0.2,1.0,0.0,414.0,597.0,0.0,0,1989.0,1
1000,1000,-0.3478652701572106,-0.3,1.0,0.0,405.0,605.0,0.0,0,1990.0,1
1001,1001,-0.62197666383939,-0.6,1.0,0.0,299.0,821.0,0.0,0,1880.0,1
1002,1002,-0.2917671490146684,-0.3,0.0,1.0,430.0,750.0,0.0,1,1820.0,0
1003,1003,0.2526047322393342,0.3,0.0,0.0,342.0,811.0,0.0,1,1847.0,1
1004,1004,0.5764212175258968,0.6,0.0,0.0,343.0,606.0,0.0,1,2051.0,1
1005,1005,0.5249238299562206,0.5,0.0,0.0,406.0,887.0,0.0,1,1707.0,1
1006,1006,-0.6423844178419472,-0.6,1.0,0.0,340.0,741.0,0.0,0,-1061.0,1
1007,1007,0.7122022850052158,0.7,0.0,0.0,456.0,666.0,0.0,1,1878.0,1
1008,1008,-0.26347276554504684,-0.3,0.0,1.0,311.0,905.0,0.0,1,1784.0,0
1009,1009,-0.6813503766239872,-0.7,0.0,1.0,333.0,957.0,0.0,1,1710.0,0
1010,1010,0.7302423672034172,0.7,0.0,0.0,446.0,628.0,0.0,1,1926.0,1
1011,1011,0.7546687364331547,0.8,0.0,0.0,331.0,597.0,0.0,1,2072.0,1
1012,1012,-0.5997593006787152,-0.6,1.0,0.0,261.0,873.0,0.0,0,1866.0,1
1013,1013,0.0865902131536479,0.1,1.0,1.0,322.0,903.0,0.0,0,1775.0,0
1014,1014,0.7256793758049206,0.7,1.0,1.0,265.0,668.0,0.0,0,2067.0,0
1015,1015,0.03806594031776145,0.0,0.0,0.0,263.0,567.0,0.0,1,2170.0,1
1016,1016,-0.29948641536131926,-0.3,1.0,0.0,346.0,894.0,0.0,0,1760.0,1
1017,1017,0.15256882730962185,0.2,1.0,1.0,270.0,606.0,0.0,0,2124.0,0
1018,1018,-0.22700994847015576,-0.2,0.0,1.0,262.0,669.0,1.0,0,-931.0,1
1019,1019,0.26676875088089125,0.3,1.0,1.0,292.0,763.0,0.0,0,1945.0,0
1020,1020,0.22045564208579582,0.2,1.0,1.0,357.0,913.0,0.0,0,1730.0,0
1021,1021,-0.21826845266032613,-0.2,0.0,1.0,345.0,726.0,1.0,0,-1041.0,1
1022,1022,0.10666810697664275,0.1,1.0,1.0,473.0,960.0,0.0,0,-1303.0,0
1023,1023,-0.5322516840508367,-0.5,1.0,0.0,449.0,802.0,0.0,0,1749.0,1
1024,1024,-0.7920686604502273,-0.8,1.0,0.0,323.0,533.0,0.0,0,2144.0,1
1025,1025,-0.8765522261844436,-0.9,1.0,0.0,261.0,525.0,0.0,0,2214.0,1
1026,1026,0.7687416476437884,0.8,0.0,0.0,288.0,915.0,0.0,1,1797.0,1
1027,1027,-0.2334811374190967,-0.2,1.0,0.0,486.0,591.0,0.0,0,1923.0,1
1028,1028,-0.020321259384090795,-0.0,0.0,1.0,250.0,523.0,0.0,1,2227.0,0
1029,1029,-0.23543121270997647,-0.2,1.0,0.0,378.0,734.0,0.0,0,-1032.0,1
1030,1030,-0.5234666376169339,-0.5,0.0,1.0,460.0,731.0,0.0,1,-1131.0,0
1031,1031,-0.8088815041196142,-0.8,1.0,0.0,473.0,554.0,0.0,0,1973.0,1
1032,1032,-0.766618728053758,-0.8,1.0,0.0,263.0,845.0,0.0,0,1892.0,1
1033,1033,-0.16606784897278903,-0.2,1.0,0.0,406.0,784.0,0.0,0,1810.0,1
1034,1034,-0.05502823749244867,-0.1,1.0,0.0,388.0,578.0,0.0,0,2034.0,1
1035,1035,0.1536206273395283,0.2,1.0,1.0,428.0,618.0,0.0,0,1954.0,0
1036,1036,-0.723308634522783,-0.7,0.0,1.0,327.0,526.0,0.0,1,2147.0,0
1037,1037,-0.08114203596742964,-0.1,0.0,1.0,483.0,985.0,0.0,1,1532.0,0
1038,1038,-0.5376049951784738,-0.5,0.0,1.0,332.0,796.0,1.0,0,-918.0,1
1039,1039,-0.3746498192653339,-0.4,1.0,0.0,350.0,945.0,0.0,0,1705.0,1
1040,1040,-0.8425859041476256,-0.8,1.0,0.0,338.0,864.0,0.0,0,1798.0,1
1041,1041,0.6624600818811911,0.7,1.0,1.0,354.0,526.0,0.0,0,2120.0,0
1042,1042,0.2609048548925047,0.3,0.0,0.0,408.0,730.0,0.0,1,-928.0,1
1043,1043,-0.7815531488094738,-0.8,1.0,0.0,401.0,741.0,0.0,0,1858.0,1
1044,1044,0.17627361554819088,0.2,1.0,1.0,433.0,967.0,0.0,0,-1400.0,0
1045,1045,-0.7276182028094912,-0.7,1.0,0.0,254.0,782.0,0.0,0,1964.0,1
1046,1046,0.638713891549738,0.6,1.0,1.0,341.0,681.0,0.0,0,1978.0,0
1047,1047,-0.793724811437053,-0.8,1.0,0.0,255.0,533.0,0.0,0,2212.0,1
1048,1048,0.7701969776687826,0.8,1.0,1.0,271.0,504.0,0.0,0,2225.0,0
1049,1049,0.0936634980448443,0.1,1.0,1.0,285.0,540.0,1.0,1,-675.0,1
1050,1050,0.69044152492742,0.7,0.0,0.0,435.0,840.0,0.0,1,1725.0,1
1051,1051,0.6731475193057975,0.7,0.0,0.0,348.0,720.0,0.0,1,1932.0,1
1052,1052,0.548455944512802,0.5,0.0,0.0,412.0,836.0,0.0,1,1752.0,1
1053,1053,-0.15220996172838253,-0.2,0.0,1.0,256.0,889.0,0.0,1,1855.0,0
1054,1054,-0.6220321088148115,-0.6,1.0,0.0,415.0,643.0,0.0,0,-768.0,1
1055,1055,0.7063941875147296,0.7,0.0,0.0,489.0,883.0,0.0,1,1628.0,1
1056,1056,0.2811335003913841,0.3,0.0,0.0,429.0,871.0,1.0,0,-1250.0,0
1057,1057,-0.31379012047790555,-0.3,0.0,1.0,254.0,663.0,0.0,1,2083.0,0
1058,1058,0.2605889394870252,0.3,0.0,0.0,270.0,865.0,0.0,1,-1015.0,1
1059,1059,0.21149832842913152,0.2,0.0,0.0,326.0,875.0,0.0,1,-1171.0,1
1060,1060,0.6346517934277044,0.6,1.0,1.0,384.0,697.0,0.0,0,1919.0,0
1061,1061,-0.6201769187582766,-0.6,1.0,0.0,279.0,837.0,0.0,0,1884.0,1
1062,1062,-0.7764326881925319,-0.8,0.0,1.0,312.0,608.0,0.0,1,-860.0,0
1063,1063,-0.7050240609500142,-0.7,0.0,1.0,349.0,797.0,0.0,1,1854.0,0
1064,1064,0.8986052123116414,0.9,1.0,1.0,290.0,751.0,0.0,0,-881.0,0
1065,1065,-0.7087741261211332,-0.7,1.0,0.0,453.0,510.0,0.0,0,2037.0,1
1066,1066,0.5430116312929033,0.5,0.0,0.0,453.0,814.0,0.0,1,1733.0,1
1067,1067,0.7819101776518181,0.8,0.0,0.0,377.0,689.0,0.0,1,1934.0,1
1068,1068,0.38550736687494347,0.4,1.0,1.0,294.0,980.0,0.0,0,1726.0,0
1069,1069,0.7322310792475565,0.7,1.0,1.0,440.0,727.0,0.0,0,1833.0,0
1070,1070,-0.8163957887032386,-0.8,1.0,0.0,430.0,518.0,0.0,0,2052.0,1
1071,1071,0.7246231461661111,0.7,0.0,0.0,287.0,745.0,0.0,1,1968.0,1
1072,1072,0.3213752278669383,0.3,1.0,1.0,319.0,724.0,0.0,0,1957.0,0
1073,1073,-0.34450743785108595,-0.3,0.0,1.0,461.0,659.0,0.0,1,1880.0,0
1074,1074,-0.8448804154412558,-0.8,0.0,1.0,470.0,540.0,0.0,1,1990.0,0
1075,1075,0.6065176595590435,0.6,1.0,1.0,379.0,908.0,1.0,1,-1267.0,1
1076,1076,-0.7869199191375813,-0.8,0.0,1.0,379.0,942.0,0.0,1,1679.0,0
1077,1077,-0.4584602439742291,-0.5,1.0,0.0,260.0,919.0,0.0,0,1821.0,1
1078,1078,-0.4956091716776727,-0.5,0.0,1.0,391.0,991.0,0.0,1,1618.0,0
1079,1079,-0.8619251616736053,-0.9,1.0,0.0,435.0,999.0,0.0,0,1566.0,1
1080,1080,0.4143948493199391,0.4,0.0,0.0,404.0,997.0,0.0,1,1599.0,1
1081,1081,-0.26514389255905446,-0.3,1.0,0.0,362.0,966.0,0.0,0,1672.0,1
1082,1082,0.3581518488470997,0.4,0.0,0.0,288.0,679.0,0.0,1,2033.0,1
1083,1083,-0.3489971748766312,-0.3,0.0,1.0,452.0,659.0,0.0,1,1889.0,0
1084,1084,-0.005935760387732469,-0.0,0.0,1.0,443.0,607.0,0.0,1,1950.0,0
1085,1085,0.7958266840030735,0.8,1.0,1.0,431.0,679.0,0.0,0,1890.0,0
1086,1086,-0.5208809826057961,-0.5,1.0,0.0,300.0,985.0,0.0,0,1715.0,1
1087,1087,-0.48596173513699586,-0.5,1.0,0.0,270.0,900.0,0.0,0,1830.0,1
1088,1088,-0.6182933577897878,-0.6,0.0,1.0,298.0,523.0,0.0,1,2179.0,0
1089,1089,-0.32482705732717754,-0.3,0.0,1.0,499.0,938.0,0.0,1,1563.0,0
1090,1090,0.3068888807405522,0.3,0.0,0.0,374.0,744.0,0.0,1,1882.0,1
1091,1091,0.7045946912462889,0.7,0.0,0.0,310.0,504.0,1.0,0,-774.0,0
1092,1092,-0.4658139291244337,-0.5,0.0,1.0,445.0,820.0,0.0,1,1735.0,0
1093,1093,0.7015674912490305,0.7,0.0,0.0,353.0,985.0,0.0,1,1662.0,1
1094,1094,0.6250161738707783,0.6,1.0,1.0,411.0,952.0,0.0,0,1637.0,0
1095,1095,-0.6803867359707956,-0.7,0.0,1.0,393.0,581.0,0.0,1,2026.0,0
1096,1096,0.3768734442559244,0.4,0.0,0.0,438.0,584.0,0.0,1,1978.0,1
1097,1097,0.11276281318504122,0.1,0.0,0.0,286.0,796.0,0.0,1,1918.0,1
1098,1098,-0.3169667034661401,-0.3,0.0,1.0,420.0,947.0,0.0,1,1633.0,0
1099,1099,0.8560807706734354,0.9,0.0,0.0,488.0,913.0,0.0,1,1599.0,1
1100,1100,-0.2169133760236296,-0.2,1.0,0.0,393.0,671.0,0.0,0,1936.0,1
1101,1101,-0.3271590227769471,-0.3,0.0,1.0,345.0,614.0,0.0,1,2041.0,0
1102,1102,-0.5219768483938378,-0.5,0.0,1.0,409.0,952.0,0.0,1,1639.0,0
1103,1103,0.5237566127255452,0.5,1.0,1.0,378.0,877.0,0.0,0,1745.0,0
1104,1104,0.1863323049497848,0.2,0.0,0.0,490.0,555.0,0.0,1,1955.0,1
1105,1105,-0.8652968356084607,-0.9,0.0,1.0,357.0,765.0,0.0,1,1878.0,0
1106,1106,-0.5641621160058223,-0.6,1.0,0.0,367.0,900.0,0.0,0,1733.0,1
1107,1107,-0.5656127509133264,-0.6,0.0,1.0,495.0,835.0,0.0,1,1670.0,0
1108,1108,0.029577975595257544,0.0,1.0,1.0,320.0,898.0,0.0,0,1782.0,0
1109,1109,-0.856372541846567,-0.9,0.0,1.0,291.0,521.0,1.0,0,-772.0,1
1110,1110,0.6016381928355964,0.6,0.0,0.0,331.0,983.0,0.0,1,1686.0,1
1111,1111,0.3887056032873589,0.4,0.0,0.0,339.0,990.0,1.0,0,-1269.0,0
1112,1112,-0.7262643439045435,-0.7,0.0,1.0,360.0,972.0,0.0,1,1668.0,0
1113,1113,0.3141970675825877,0.3,0.0,0.0,486.0,894.0,0.0,1,1620.0,1
1114,1114,-0.8894056466713126,-0.9,0.0,1.0,453.0,738.0,0.0,1,1809.0,0
1115,1115,-0.2049413014601259,-0.2,0.0,1.0,292.0,957.0,0.0,1,1751.0,0
1116,1116,0.36594297560055844,0.4,0.0,0.0,403.0,631.0,0.0,1,1966.0,1
1117,1117,0.12098999712504888,0.1,1.0,1.0,398.0,829.0,1.0,1,-1147.0,1
1118,1118,-0.6812007181566732,-0.7,0.0,1.0,400.0,788.0,0.0,1,1812.0,0
1119,1119,0.09089506467263919,0.1,1.0,1.0,315.0,655.0,0.0,0,2030.0,0
1120,1120,0.28603015428559597,0.3,0.0,0.0,267.0,522.0,0.0,1,2211.0,1
1121,1121,0.46621363853730335,0.5,0.0,0.0,431.0,638.0,0.0,1,1931.0,1
1122,1122,0.8947269568427895,0.9,1.0,1.0,472.0,827.0,0.0,0,1701.0,0
1123,1123,0.1565853898590398,0.2,1.0,1.0,268.0,836.0,0.0,0,1896.0,0
1124,1124,-0.8763149019056021,-0.9,0.0,1.0,448.0,886.0,0.0,1,1666.0,0
1125,1125,-0.6494581695411792,-0.6,0.0,1.0,358.0,919.0,0.0,1,1723.0,0
1126,1126,-0.1900049672615164,-0.2,0.0,1.0,447.0,659.0,0.0,1,1894.0,0
1127,1127,-0.29464661890533306,-0.3,0.0,1.0,423.0,715.0,0.0,1,1862.0,0
1128,1128,-0.24160075257831992,-0.2,1.0,0.0,294.0,799.0,0.0,0,-1053.0,1
1129,1129,0.4701982231318481,0.5,1.0,1.0,375.0,624.0,0.0,0,2001.0,0
1130,1130,0.288676890575175,0.3,1.0,1.0,290.0,989.0,0.0,0,1721.0,0
1131,1131,-0.6044724494582101,-0.6,1.0,0.0,477.0,921.0,0.0,0,1602.0,1
1132,1132,-0.8144068838410232,-0.8,0.0,1.0,434.0,578.0,0.0,1,1988.0,0
1133,1133,0.47176503924225266,0.5,1.0,1.0,363.0,809.0,0.0,0,1828.0,0
1134,1134,0.8883377597086061,0.9,1.0,1.0,263.0,563.0,0.0,0,2174.0,0
1135,1135,-0.5244877935340015,-0.5,1.0,0.0,477.0,990.0,0.0,0,1533.0,1
1136,1136,-0.40772212281284353,-0.4,0.0,1.0,296.0,711.0,0.0,1,1993.0,0
1137,1137,-0.8539954864686532,-0.9,1.0,0.0,352.0,867.0,0.0,0,1781.0,1
1138,1138,0.2050949166883983,0.2,0.0,0.0,483.0,645.0,0.0,1,1872.0,1
1139,1139,-0.820539767115699,-0.8,0.0,1.0,251.0,588.0,0.0,1,2161.0,0
1140,1140,0.17738596670420448,0.2,1.0,1.0,381.0,631.0,0.0,0,1988.0,0
1141,1141,-0.7954727421112472,-0.8,1.0,0.0,388.0,571.0,0.0,0,2041.0,1
1142,1142,0.522075722701706,0.5,1.0,1.0,341.0,669.0,0.0,0,1990.0,0
1143,1143,-0.21327455217386393,-0.2,1.0,0.0,400.0,722.0,0.0,0,1878.0,1
1144,1144,-0.18196521516998543,-0.2,0.0,1.0,403.0,694.0,0.0,1,1903.0,0
1145,1145,0.6040227776328405,0.6,1.0,1.0,286.0,538.0,0.0,0,2176.0,0
1146,1146,0.7385894458505634,0.7,1.0,1.0,492.0,896.0,0.0,0,1612.0,0
1147,1147,0.6966398583117518,0.7,0.0,0.0,389.0,955.0,0.0,1,1656.0,1
1148,1148,-0.15316524543891186,-0.2,0.0,1.0,403.0,693.0,0.0,1,1904.0,0
1149,1149,-0.5271769664801311,-0.5,1.0,0.0,424.0,793.0,0.0,0,1783.0,1
1150,1150,-0.1098190494833049,-0.1,1.0,0.0,264.0,627.0,0.0,0,2109.0,1
1151,1151,0.7994948819192785,0.8,0.0,0.0,319.0,818.0,0.0,1,-1007.0,1
1152,1152,-0.29494065655229185,-0.3,1.0,0.0,286.0,664.0,0.0,0,2050.0,1
1153,1153,0.4071633563149194,0.4,0.0,0.0,427.0,749.0,0.0,1,1824.0,1
1154,1154,-0.8476535531122207,-0.8,0.0,1.0,408.0,931.0,0.0,1,1661.0,0
1155,1155,0.33202490085202097,0.3,0.0,0.0,497.0,838.0,0.0,1,-1265.0,1
1156,1156,-0.01686914519254934,-0.0,1.0,0.0,275.0,619.0,0.0,0,2106.0,1
1157,1157,-0.48850005010793185,-0.5,0.0,1.0,337.0,611.0,0.0,1,2052.0,0
1158,1158,0.377290313018137,0.4,0.0,0.0,493.0,654.0,0.0,1,1853.0,1
1159,1159,-0.6943153433646196,-0.7,0.0,1.0,331.0,615.0,0.0,1,2054.0,0
1160,1160,0.8113893088551215,0.8,1.0,1.0,421.0,911.0,0.0,0,1668.0,0
1161,1161,-0.4802337868478571,-0.5,0.0,1.0,388.0,971.0,0.0,1,1641.0,0
1162,1162,0.4732004536443867,0.5,0.0,0.0,428.0,870.0,0.0,1,1702.0,1
1163,1163,0.25299581741256383,0.3,0.0,0.0,264.0,868.0,0.0,1,1868.0,1
1164,1164,0.3225897265533323,0.3,0.0,0.0,392.0,712.0,0.0,1,-1074.0,1
1165,1165,-0.8363904837706483,-0.8,1.0,0.0,319.0,729.0,0.0,0,1952.0,1
1166,1166,-0.26652442873128657,-0.3,1.0,0.0,467.0,851.0,0.0,0,1682.0,1
1167,1167,0.681619386288372,0.7,1.0,1.0,275.0,781.0,0.0,0,1944.0,0
1168,1168,0.2419432179060207,0.2,0.0,0.0,398.0,953.0,0.0,1,1649.0,1
1169,1169,0.09261688376075183,0.1,0.0,0.0,392.0,655.0,0.0,1,-997.0,1
1170,1170,-0.5181622683104692,-0.5,0.0,1.0,399.0,632.0,0.0,1,1969.0,0
1171,1171,-0.481681211047251,-0.5,0.0,1.0,350.0,556.0,0.0,1,-666.0,0
1172,1172,0.1560522905424967,0.2,0.0,0.0,297.0,866.0,0.0,1,1837.0,1
1173,1173,0.8926400904003041,0.9,1.0,1.0,263.0,994.0,0.0,0,1743.0,0
1174,1174,0.8625683704898611,0.9,1.0,1.0,421.0,647.0,0.0,0,1932.0,0
1175,1175,-0.19815150577449447,-0.2,1.0,0.0,444.0,735.0,0.0,0,1821.0,1
1176,1176,-0.40268304011031025,-0.4,1.0,0.0,395.0,587.0,0.0,0,2018.0,1
1177,1177,-0.6530675398013712,-0.7,1.0,0.0,413.0,648.0,0.0,0,1939.0,1
1178,1178,-0.6912135940633902,-0.7,1.0,0.0,351.0,721.0,0.0,0,1928.0,1
1179,1179,0.25750342775725443,0.3,0.0,0.0,281.0,845.0,0.0,1,1874.0,1
1180,1180,-0.3288855599053898,-0.3,0.0,1.0,473.0,747.0,0.0,1,-910.0,0
1181,1181,0.3801088075472191,0.4,1.0,1.0,280.0,584.0,1.0,1,-824.0,1
1182,1182,-0.1715971564145925,-0.2,0.0,1.0,496.0,718.0,0.0,1,1786.0,0
1183,1183,0.43330536413740905,0.4,0.0,0.0,423.0,522.0,0.0,1,2055.0,1
1184,1184,0.07343496418407103,0.1,1.0,1.0,441.0,911.0,0.0,0,1648.0,0
1185,1185,-0.8867384376002075,-0.9,0.0,1.0,347.0,660.0,0.0,1,1993.0,0
1186,1186,0.3269279307431997,0.3,0.0,0.0,477.0,610.0,0.0,1,1913.0,1
1187,1187,-0.17353761971992832,-0.2,0.0,1.0,316.0,759.0,0.0,1,1925.0,0
1188,1188,-0.41399232124772456,-0.4,0.0,1.0,314.0,658.0,0.0,1,2028.0,0
1189,1189,0.10177413192176366,0.1,1.0,1.0,342.0,884.0,0.0,0,1774.0,0
1190,1190,0.854503365783761,0.9,1.0,1.0,480.0,575.0,0.0,0,1945.0,0
1191,1191,-0.0317717352619602,-0.0,1.0,0.0,402.0,990.0,0.0,0,-1382.0,1
1192,1192,0.2644337463114331,0.3,1.0,1.0,482.0,724.0,0.0,0,1794.0,0
1193,1193,-0.06639515847725086,-0.1,0.0,1.0,455.0,989.0,0.0,1,1556.0,0
1194,1194,-0.22716572441186067,-0.2,1.0,0.0,339.0,917.0,0.0,0,1744.0,1
1195,1195,-0.1392415637909814,-0.1,0.0,1.0,256.0,933.0,0.0,1,1811.0,0
1196,1196,-0.8567924844786028,-0.9,1.0,0.0,398.0,506.0,0.0,0,2096.0,1
1197,1197,-0.6378309764109222,-0.6,0.0,1.0,466.0,970.0,1.0,0,-1416.0,1
1198,1198,-0.11846793279819245,-0.1,0.0,1.0,379.0,638.0,0.0,1,1983.0,0
1199,1199,-0.21463008169588627,-0.2,1.0,0.0,463.0,768.0,0.0,0,1769.0,1
1200,1200,-0.6392930399566135,-0.6,1.0,0.0,389.0,948.0,0.0,0,-1107.0,1
1201,1201,-0.4769582907562778,-0.5,1.0,0.0,325.0,787.0,0.0,0,1888.0,1
1202,1202,-0.10720341829455271,-0.1,0.0,1.0,475.0,895.0,0.0,1,1630.0,0
1203,1203,0.32682432174477893,0.3,1.0,1.0,262.0,524.0,0.0,0,2214.0,0
1204,1204,0.2213263142465628,0.2,1.0,1.0,421.0,785.0,0.0,0,1794.0,0
1205,1205,0.8677229006370147,0.9,0.0,0.0,335.0,553.0,0.0,1,2112.0,1
1206,1206,0.45601566236269575,0.5,0.0,0.0,364.0,884.0,0.0,1,-1238.0,1
1207,1207,0.3977848947090902,0.4,1.0,1.0,371.0,833.0,1.0,1,-1164.0,1
1208,1208,0.45399688587515474,0.5,1.0,1.0,374.0,912.0,0.0,0,-1176.0,0
1209,1209,0.1794623992549308,0.2,1.0,1.0,409.0,939.0,0.0,0,1652.0,0
1210,1210,-0.3915970116330134,-0.4,1.0,0.0,390.0,979.0,0.0,0,1631.0,1
1211,1211,-0.04462121397796048,-0.0,1.0,0.0,321.0,948.0,1.0,1,-1129.0,0
1212,1212,0.7880335600679899,0.8,0.0,0.0,444.0,566.0,0.0,1,1990.0,1
1213,1213,-0.15667895780765484,-0.2,1.0,0.0,275.0,980.0,1.0,1,-1175.0,0
1214,1214,-0.6377209031428144,-0.6,1.0,0.0,327.0,541.0,0.0,0,2132.0,1
1215,1215,0.48737500664153266,0.5,1.0,1.0,308.0,948.0,0.0,0,1744.0,0
1216,1216,-0.41812970223615226,-0.4,1.0,0.0,393.0,550.0,1.0,1,-853.0,0
1217,1217,-0.805819168180604,-0.8,0.0,1.0,250.0,507.0,0.0,1,2243.0,0
1218,1218,-0.17313793514115683,-0.2,1.0,0.0,345.0,837.0,1.0,1,-952.0,0
1219,1219,-0.6584640348211546,-0.7,0.0,1.0,395.0,818.0,0.0,1,1787.0,0
1220,1220,0.882145044804543,0.9,0.0,0.0,264.0,660.0,0.0,1,2076.0,1
1221,1221,-0.5870050328272713,-0.6,0.0,1.0,383.0,687.0,0.0,1,1930.0,0
1222,1222,0.31781905128499244,0.3,0.0,0.0,430.0,852.0,0.0,1,1718.0,1
1223,1223,0.8894132967196723,0.9,0.0,0.0,301.0,630.0,0.0,1,2069.0,1
1224,1224,0.7153829691126944,0.7,1.0,1.0,378.0,946.0,0.0,0,1676.0,0
1225,1225,0.4150991239249323,0.4,0.0,0.0,286.0,568.0,0.0,1,2146.0,1
1226,1226,0.5681156742319858,0.6,0.0,0.0,399.0,798.0,0.0,1,1803.0,1
1227,1227,-0.4850115152554363,-0.5,0.0,1.0,366.0,663.0,0.0,1,1971.0,0
1228,1228,0.5402981975552007,0.5,0.0,0.0,356.0,552.0,0.0,1,2092.0,1
1229,1229,0.7015136805263574,0.7,0.0,0.0,439.0,629.0,0.0,1,1932.0,1
1230,1230,-0.6402590287369803,-0.6,0.0,1.0,476.0,537.0,0.0,1,1987.0,0
1231,1231,0.8967620472032479,0.9,1.0,1.0,486.0,674.0,0.0,0,-1100.0,0
1232,1232,-0.8635594315995914,-0.9,0.0,1.0,298.0,739.0,0.0,1,1963.0,0
1233,1233,0.5546908951799053,0.6,0.0,0.0,327.0,998.0,0.0,1,1675.0,1
1234,1234,-0.8706315171704252,-0.9,1.0,0.0,452.0,918.0,0.0,0,1630.0,1
1235,1235,-0.2081833351459218,-0.2,1.0,0.0,302.0,876.0,0.0,0,1822.0,1
1236,1236,0.580010585612274,0.6,1.0,1.0,362.0,717.0,0.0,0,1921.0,0
1237,1237,0.6999478217874101,0.7,1.0,1.0,367.0,743.0,0.0,0,1890.0,0
1238,1238,0.8045994473972159,0.8,0.0,0.0,290.0,811.0,0.0,1,-1081.0,1
1239,1239,-0.4542239195966513,-0.5,1.0,0.0,446.0,595.0,0.0,0,1959.0,1
1240,1240,0.8622506790507077,0.9,0.0,0.0,470.0,574.0,0.0,1,1956.0,1
1241,1241,0.5050425508875666,0.5,0.0,0.0,363.0,526.0,0.0,1,2111.0,1
1242,1242,-0.3142241405959977,-0.3,0.0,1.0,307.0,553.0,0.0,1,2140.0,0
1243,1243,0.7624546353309422,0.8,1.0,1.0,297.0,779.0,0.0,0,1924.0,0
1244,1244,-0.7960389013888511,-0.8,1.0,0.0,295.0,896.0,0.0,0,-1131.0,1
1245,1245,-0.8494792147438954,-0.8,0.0,1.0,460.0,780.0,0.0,1,1760.0,0
1246,1246,-0.4602008163218378,-0.5,1.0,0.0,270.0,600.0,0.0,0,2130.0,1
1247,1247,0.3297112846368587,0.3,1.0,1.0,451.0,598.0,0.0,0,1951.0,0
1248,1248,0.5524999681788886,0.6,0.0,0.0,440.0,566.0,0.0,1,1994.0,1
1249,1249,0.1542554124722858,0.2,1.0,1.0,357.0,655.0,0.0,0,1988.0,0
1250,1250,0.41782174327728383,0.4,1.0,1.0,320.0,790.0,0.0,0,1890.0,0
1251,1251,-0.28726566732093073,-0.3,1.0,0.0,483.0,997.0,0.0,0,1520.0,1
1252,1252,-0.47658747118752254,-0.5,1.0,0.0,254.0,615.0,0.0,0,2131.0,1
1253,1253,0.7976808267775714,0.8,1.0,1.0,282.0,722.0,0.0,0,1996.0,0
1254,1254,0.8000909912527833,0.8,0.0,0.0,357.0,759.0,0.0,1,1884.0,1
1255,1255,0.08240659387635763,0.1,0.0,0.0,470.0,762.0,0.0,1,1768.0,1
1256,1256,0.7504982072850931,0.8,1.0,1.0,370.0,507.0,0.0,0,2123.0,0
1257,1257,-0.6146042733878152,-0.6,0.0,1.0,311.0,735.0,0.0,1,1954.0,0
1258,1258,0.8379758267929317,0.8,1.0,1.0,288.0,824.0,0.0,0,1888.0,0
1259,1259,0.2173301331145706,0.2,1.0,1.0,341.0,731.0,0.0,0,1928.0,0
1260,1260,-0.04872722947978647,-0.0,1.0,0.0,284.0,688.0,0.0,0,2028.0,1
1261,1261,-0.5215876885563775,-0.5,0.0,1.0,401.0,827.0,0.0,1,1772.0,0
1262,1262,0.20090688915816923,0.2,0.0,0.0,455.0,970.0,0.0,1,1575.0,1
1263,1263,0.3128638798997051,0.3,1.0,1.0,480.0,867.0,0.0,0,1653.0,0
1264,1264,0.36582769674736093,0.4,1.0,1.0,428.0,673.0,0.0,0,1899.0,0
1265,1265,-0.6139055272211411,-0.6,1.0,0.0,256.0,613.0,0.0,0,2131.0,1
1266,1266,-0.14768160808996322,-0.1,0.0,1.0,318.0,645.0,0.0,1,2037.0,0
1267,1267,-0.5456694740641705,-0.5,1.0,0.0,257.0,755.0,0.0,0,1988.0,1
1268,1268,0.744171262078657,0.7,0.0,0.0,307.0,966.0,0.0,1,1727.0,1
1269,1269,-0.05033179884565964,-0.1,1.0,0.0,485.0,650.0,1.0,1,-1095.0,0
1270,1270,-0.27634674902599365,-0.3,0.0,1.0,410.0,640.0,0.0,1,-990.0,0
1271,1271,0.5787000927866647,0.6,0.0,0.0,266.0,730.0,0.0,1,2004.0,1
1272,1272,0.8996421456635889,0.9,0.0,0.0,434.0,721.0,0.0,1,1845.0,1
1273,1273,0.74696296283267,0.7,0.0,0.0,419.0,873.0,0.0,1,1708.0,1
1274,1274,0.10253949103573368,0.1,0.0,0.0,358.0,779.0,0.0,1,1863.0,1
1275,1275,0.3639275062747346,0.4,0.0,0.0,468.0,629.0,0.0,1,1903.0,1
1276,1276,0.21488133871211923,0.2,0.0,0.0,351.0,553.0,0.0,1,2096.0,1
1277,1277,0.8099332644130922,0.8,1.0,1.0,398.0,607.0,0.0,0,1995.0,0
1278,1278,0.34985763893508637,0.3,1.0,1.0,327.0,893.0,0.0,0,1780.0,0
1279,1279,-0.2376047228161604,-0.2,0.0,1.0,324.0,995.0,0.0,1,1681.0,0
1280,1280,0.00922938336733714,0.0,1.0,1.0,385.0,912.0,0.0,0,1703.0,0
1281,1281,-0.4065376356792649,-0.4,0.0,1.0,356.0,997.0,0.0,1,1647.0,0
1282,1282,-0.5890543492916334,-0.6,1.0,0.0,379.0,651.0,0.0,0,1970.0,1
1283,1283,0.8721109227613236,0.9,0.0,0.0,350.0,538.0,0.0,1,2112.0,1
1284,1284,0.1539296187593212,0.2,1.0,1.0,314.0,815.0,0.0,0,1871.0,0
1285,1285,0.39230667474089176,0.4,1.0,1.0,408.0,576.0,0.0,0,2016.0,0
1286,1286,-0.38514454145326904,-0.4,0.0,1.0,320.0,635.0,0.0,1,2045.0,0
1287,1287,-0.22899082745804145,-0.2,1.0,0.0,289.0,554.0,0.0,0,2157.0,1
1288,1288,0.28531220437959803,0.3,0.0,0.0,437.0,849.0,1.0,0,-1256.0,0
1289,1289,0.2061127046910357,0.2,0.0,0.0,498.0,972.0,0.0,1,1530.0,1
1290,1290,-0.8329951637442924,-0.8,1.0,0.0,382.0,877.0,0.0,0,1741.0,1
1291,1291,0.6519486625812231,0.7,0.0,0.0,372.0,872.0,0.0,1,1756.0,1
1292,1292,-0.1877804164412017,-0.2,0.0,1.0,290.0,625.0,0.0,1,2085.0,0
1293,1293,-0.7799021534321472,-0.8,1.0,0.0,420.0,599.0,0.0,0,1981.0,1
1294,1294,-0.4982928953525603,-0.5,0.0,1.0,403.0,972.0,0.0,1,1625.0,0
1295,1295,0.8664124622639152,0.9,0.0,0.0,470.0,750.0,0.0,1,1780.0,1
1296,1296,0.4996596321041199,0.5,1.0,1.0,459.0,588.0,0.0,0,1953.0,0
1297,1297,0.20404380922555065,0.2,0.0,0.0,370.0,802.0,0.0,1,1828.0,1
1298,1298,-0.1902015370307225,-0.2,0.0,1.0,481.0,618.0,0.0,1,1901.0,0
1299,1299,0.8160817669598667,0.8,1.0,1.0,312.0,697.0,0.0,0,1991.0,0
1300,1300,-0.5015861089285985,-0.5,0.0,1.0,343.0,634.0,0.0,1,2023.0,0
1301,1301,-0.15121045045157722,-0.2,0.0,1.0,428.0,697.0,0.0,1,1875.0,0
1302,1302,-0.3796735985776697,-0.4,0.0,1.0,265.0,964.0,0.0,1,1771.0,0
1303,1303,0.3593432085282372,0.4,0.0,0.0,256.0,829.0,0.0,1,1915.0,1
1304,1304,0.8519731985542204,0.9,1.0,1.0,355.0,794.0,0.0,0,1851.0,0
1305,1305,0.5792293597414805,0.6,1.0,1.0,273.0,835.0,0.0,0,1892.0,0
1306,1306,-0.5296565205466388,-0.5,1.0,0.0,423.0,609.0,0.0,0,1968.0,1
1307,1307,0.4247911598992439,0.4,1.0,1.0,281.0,664.0,0.0,0,2055.0,0
1308,1308,0.5110962073720074,0.5,0.0,0.0,337.0,737.0,0.0,1,1926.0,1
1309,1309,-0.41512214349110893,-0.4,0.0,1.0,264.0,932.0,0.0,1,1804.0,0
1310,1310,0.7579319530037273,0.8,0.0,0.0,323.0,888.0,0.0,1,1789.0,1
1311,1311,-0.18478241781778448,-0.2,1.0,0.0,369.0,860.0,0.0,0,1771.0,1
1312,1312,-0.560069621574445,-0.6,0.0,1.0,277.0,775.0,0.0,1,1948.0,0
1313,1313,-0.4896787501342433,-0.5,0.0,1.0,343.0,732.0,0.0,1,1925.0,0
1314,1314,0.00988070799569285,0.0,0.0,0.0,335.0,875.0,0.0,1,1790.0,1
1315,1315,-0.01010093359705766,-0.0,1.0,0.0,358.0,603.0,0.0,0,2039.0,1
1316,1316,-0.022174039711113203,-0.0,0.0,1.0,468.0,877.0,0.0,1,1655.0,0
1317,1317,-0.8218565546463096,-0.8,0.0,1.0,266.0,708.0,0.0,1,2026.0,0
1318,1318,-0.8809270453469623,-0.9,1.0,0.0,270.0,730.0,0.0,0,2000.0,1
1319,1319,0.1143918701925416,0.1,0.0,0.0,266.0,956.0,0.0,1,1778.0,1
1320,1320,-0.07160310422797833,-0.1,1.0,0.0,272.0,946.0,0.0,0,1782.0,1
1321,1321,-0.26939574454307746,-0.3,1.0,0.0,454.0,510.0,0.0,0,2036.0,1
1322,1322,-0.08034733090705515,-0.1,0.0,1.0,384.0,664.0,0.0,1,1952.0,0
1323,1323,0.17056630233545167,0.2,1.0,1.0,431.0,676.0,0.0,0,1893.0,0
1324,1324,-0.6286195652615063,-0.6,0.0,1.0,404.0,902.0,0.0,1,1694.0,0
1325,1325,-0.05944536189480265,-0.1,1.0,0.0,409.0,755.0,0.0,0,1836.0,1
1326,1326,0.11467618547432934,0.1,1.0,1.0,493.0,596.0,0.0,0,1911.0,0
1327,1327,0.8656415699591146,0.9,0.0,0.0,375.0,740.0,0.0,1,-1095.0,1
1328,1328,0.06863504179958435,0.1,1.0,1.0,368.0,818.0,0.0,0,-916.0,0
1329,1329,0.47248844560853465,0.5,1.0,1.0,275.0,910.0,0.0,0,1815.0,0
1330,1330,0.818503361186154,0.8,0.0,0.0,396.0,813.0,0.0,1,1791.0,1
1331,1331,-0.4779259781819943,-0.5,1.0,0.0,359.0,942.0,0.0,0,1699.0,1
1332,1332,0.29444378238525226,0.3,0.0,0.0,331.0,817.0,0.0,1,1852.0,1
1333,1333,0.020004002031204338,0.0,0.0,0.0,398.0,508.0,0.0,1,2094.0,1
1334,1334,-0.5680563203150117,-0.6,0.0,1.0,366.0,554.0,0.0,1,2080.0,0
1335,1335,-0.5271829870734652,-0.5,0.0,1.0,476.0,883.0,0.0,1,1641.0,0
1336,1336,-0.1386182982033235,-0.1,0.0,1.0,483.0,637.0,1.0,0,-760.0,1
1337,1337,-0.24049061651699444,-0.2,0.0,1.0,424.0,840.0,0.0,1,1736.0,0
1338,1338,-0.7612179539390123,-0.8,0.0,1.0,307.0,848.0,0.0,1,1845.0,0
1339,1339,0.03600066224135334,0.0,0.0,0.0,470.0,596.0,0.0,1,1934.0,1
1340,1340,0.546670919724913,0.5,0.0,0.0,439.0,540.0,0.0,1,2021.0,1
1341,1341,0.23864188411873932,0.2,1.0,1.0,390.0,525.0,0.0,0,2085.0,0
1342,1342,-0.810464164625383,-0.8,1.0,0.0,413.0,770.0,0.0,0,-933.0,1
1343,1343,0.20500734548857935,0.2,1.0,1.0,343.0,652.0,0.0,0,2005.0,0
1344,1344,0.6538221318834455,0.7,1.0,1.0,322.0,693.0,1.0,1,-945.0,1
1345,1345,-0.7855906846981988,-0.8,1.0,0.0,499.0,869.0,0.0,0,1632.0,1
1346,1346,-0.6609633273899027,-0.7,0.0,1.0,287.0,997.0,0.0,1,1716.0,0
1347,1347,0.7532390025905628,0.8,0.0,0.0,388.0,631.0,0.0,1,1981.0,1
1348,1348,-0.7969630402610124,-0.8,1.0,0.0,255.0,975.0,0.0,0,1770.0,1
1349,1349,0.20161450597089947,0.2,0.0,0.0,379.0,635.0,1.0,0,-954.0,0
1350,1350,-0.6969032259010549,-0.7,1.0,0.0,418.0,754.0,0.0,0,1828.0,1
1351,1351,-0.748511224642464,-0.7,1.0,0.0,283.0,983.0,1.0,1,-1086.0,0
1352,1352,0.5719813202648986,0.6,0.0,0.0,336.0,748.0,0.0,1,-1034.0,1
1353,1353,0.29323039010553453,0.3,1.0,1.0,453.0,780.0,1.0,1,-1173.0,1
1354,1354,0.6509379890643413,0.7,1.0,1.0,317.0,863.0,0.0,0,1820.0,0
1355,1355,0.37247067683387847,0.4,1.0,1.0,280.0,804.0,0.0,0,1916.0,0
1356,1356,-0.48964096710069344,-0.5,0.0,1.0,472.0,541.0,0.0,1,1987.0,0
1357,1357,0.038377618546136305,0.0,0.0,0.0,425.0,727.0,0.0,1,1848.0,1
1358,1358,0.3463225231468722,0.3,0.0,0.0,376.0,522.0,0.0,1,2102.0,1
1359,1359,0.1762734722609206,0.2,0.0,0.0,438.0,790.0,0.0,1,1772.0,1
1360,1360,-0.4555081343855372,-0.5,1.0,0.0,456.0,657.0,0.0,0,1887.0,1
1361,1361,0.6206849720164614,0.6,1.0,1.0,304.0,622.0,0.0,0,2074.0,0
1362,1362,-0.7525836724189054,-0.8,1.0,0.0,310.0,694.0,0.0,0,1996.0,1
1363,1363,-0.1945195348533414,-0.2,0.0,1.0,371.0,768.0,0.0,1,1861.0,0
1364,1364,0.7535907654588369,0.8,0.0,0.0,302.0,748.0,0.0,1,1950.0,1
1365,1365,0.23365235552948793,0.2,0.0,0.0,311.0,567.0,0.0,1,2122.0,1
1366,1366,0.5636528999655325,0.6,0.0,0.0,431.0,861.0,0.0,1,1708.0,1
1367,1367,-0.2812854784717339,-0.3,0.0,1.0,368.0,919.0,0.0,1,1713.0,0
1368,1368,0.7313099559145858,0.7,0.0,0.0,321.0,619.0,0.0,1,2060.0,1
1369,1369,-0.881951621464326,-0.9,0.0,1.0,251.0,688.0,0.0,1,2061.0,0
1370,1370,-0.2555312195153163,-0.3,1.0,0.0,425.0,737.0,0.0,0,1838.0,1
1371,1371,-0.07623688964039821,-0.1,1.0,0.0,392.0,592.0,0.0,0,2016.0,1
1372,1372,0.2351390867906532,0.2,1.0,1.0,468.0,652.0,0.0,0,1880.0,0
1373,1373,0.33942748710346293,0.3,0.0,0.0,314.0,843.0,0.0,1,1843.0,1
1374,1374,-0.5991708030589608,-0.6,0.0,1.0,296.0,606.0,0.0,1,2098.0,0
1375,1375,0.019334103235349676,0.0,0.0,0.0,334.0,836.0,0.0,1,1830.0,1
1376,1376,-0.4699037242887067,-0.5,1.0,0.0,450.0,536.0,0.0,0,2014.0,1
1377,1377,0.7817141771919237,0.8,1.0,1.0,392.0,561.0,0.0,0,-833.0,0
1378,1378,0.08549480688838529,0.1,0.0,0.0,497.0,911.0,0.0,1,1592.0,1
1379,1379,-0.29379583661350717,-0.3,1.0,0.0,382.0,968.0,0.0,0,-1300.0,1
1380,1380,-0.49048928065379127,-0.5,0.0,1.0,373.0,569.0,0.0,1,2058.0,0
1381,1381,0.4324794267395985,0.4,1.0,1.0,370.0,856.0,0.0,0,1774.0,0
1382,1382,0.4311863849805043,0.4,1.0,1.0,270.0,844.0,0.0,0,1886.0,0
1383,1383,-0.24309563006864454,-0.2,1.0,0.0,313.0,547.0,0.0,0,2140.0,1
1384,1384,-0.08943943530579124,-0.1,1.0,0.0,353.0,727.0,0.0,0,1920.0,1
1385,1385,-0.12528878257218434,-0.1,1.0,0.0,335.0,693.0,0.0,0,1972.0,1
1386,1386,-0.12710508749640193,-0.1,0.0,1.0,482.0,525.0,0.0,1,1993.0,0
1387,1387,0.5943831138239056,0.6,1.0,1.0,356.0,638.0,0.0,0,2006.0,0
1388,1388,0.1560048323217954,0.2,1.0,1.0,254.0,580.0,0.0,0,2166.0,0
1389,1389,-0.7181683272601495,-0.7,1.0,0.0,406.0,881.0,0.0,0,1713.0,1
1390,1390,-0.7535462423881496,-0.8,1.0,0.0,258.0,556.0,0.0,0,2186.0,1
1391,1391,0.8905277358352487,0.9,0.0,0.0,374.0,961.0,0.0,1,-1205.0,1
1392,1392,-0.514405121251494,-0.5,0.0,1.0,404.0,554.0,0.0,1,2042.0,0
1393,1393,-0.12016674468816879,-0.1,1.0,0.0,299.0,820.0,0.0,0,1881.0,1
1394,1394,0.41717005403909246,0.4,1.0,1.0,433.0,694.0,0.0,0,1873.0,0
1395,1395,-0.26614366972046744,-0.3,1.0,0.0,318.0,965.0,0.0,0,1717.0,1
1396,1396,-0.6555418396787741,-0.7,1.0,0.0,497.0,859.0,0.0,0,-1336.0,1
1397,1397,0.47758033312815196,0.5,1.0,1.0,374.0,604.0,0.0,0,2022.0,0
1398,1398,0.21614966648243483,0.2,0.0,0.0,498.0,958.0,1.0,0,-1406.0,0
1399,1399,0.60774864341479,0.6,0.0,0.0,392.0,653.0,0.0,1,1955.0,1
1400,1400,-0.11616646927713914,-0.1,1.0,0.0,491.0,702.0,0.0,0,1807.0,1
1401,1401,0.38632821106396154,0.4,1.0,1.0,498.0,546.0,0.0,0,1956.0,0
1402,1402,0.5647203555361361,0.6,0.0,0.0,356.0,852.0,0.0,1,1792.0,1
1403,1403,-0.7461652074534938,-0.7,1.0,0.0,313.0,963.0,0.0,0,1724.0,1
1404,1404,0.4636782158163325,0.5,0.0,0.0,264.0,928.0,0.0,1,1808.0,1
1405,1405,0.6129787032750037,0.6,0.0,0.0,378.0,599.0,0.0,1,2023.0,1
1406,1406,-0.29256009219309387,-0.3,1.0,0.0,466.0,984.0,0.0,0,1550.0,1
1407,1407,0.8493369675652634,0.8,0.0,0.0,358.0,828.0,0.0,1,1814.0,1
1408,1408,-0.7740471844535562,-0.8,0.0,1.0,499.0,738.0,0.0,1,1763.0,0
1409,1409,0.7238569314421864,0.7,1.0,1.0,425.0,740.0,0.0,0,1835.0,0
1410,1410,-0.6646875074280088,-0.7,1.0,0.0,305.0,523.0,1.0,1,-798.0,0
1411,1411,0.743762510884297,0.7,0.0,0.0,462.0,586.0,0.0,1,1952.0,1
1412,1412,0.3756840211651139,0.4,1.0,1.0,291.0,616.0,0.0,0,2093.0,0
1413,1413,-0.3508567918467064,-0.4,0.0,1.0,451.0,573.0,0.0,1,1976.0,0
1414,1414,0.07814610899993701,0.1,0.0,0.0,365.0,976.0,0.0,1,1659.0,1
1415,1415,-0.21993377132075465,-0.2,1.0,0.0,386.0,823.0,0.0,0,1791.0,1
1416,1416,-0.7854185278063542,-0.8,1.0,0.0,349.0,892.0,0.0,0,1759.0,1
1417,1417,0.38544113129733526,0.4,1.0,1.0,428.0,571.0,0.0,0,2001.0,0
1418,1418,0.8538875219965721,0.9,0.0,0.0,483.0,757.0,0.0,1,1760.0,1
1419,1419,0.5648092833107993,0.6,0.0,0.0,435.0,712.0,0.0,1,1853.0,1
1420,1420,0.13079799571016093,0.1,1.0,1.0,258.0,564.0,0.0,0,2178.0,0
1421,1421,0.20611961481493124,0.2,0.0,0.0,443.0,833.0,0.0,1,1724.0,1
1422,1422,0.8683039612239015,0.9,1.0,1.0,271.0,692.0,0.0,0,2037.0,0
1423,1423,-0.39318743107515564,-0.4,0.0,1.0,371.0,837.0,0.0,1,1792.0,0
1424,1424,-0.3051006554661132,-0.3,0.0,1.0,332.0,682.0,0.0,1,1986.0,0
1425,1425,0.6027468014626943,0.6,1.0,1.0,383.0,707.0,0.0,0,1910.0,0
1426,1426,0.04861378408842609,0.0,0.0,0.0,323.0,834.0,0.0,1,-947.0,1
1427,1427,0.576094225387871,0.6,1.0,1.0,346.0,532.0,0.0,0,2122.0,0
1428,1428,-0.44733688777509656,-0.4,0.0,1.0,278.0,738.0,0.0,1,1984.0,0
1429,1429,0.3079902168372951,0.3,1.0,1.0,347.0,703.0,0.0,0,1950.0,0
1430,1430,0.25020181324016255,0.3,0.0,0.0,382.0,889.0,0.0,1,1729.0,1
1431,1431,-0.6054780263589576,-0.6,0.0,1.0,392.0,869.0,0.0,1,1739.0,0
1432,1432,-0.8158344940681144,-0.8,0.0,1.0,451.0,524.0,0.0,1,2025.0,0
1433,1433,0.6923297969232093,0.7,0.0,0.0,442.0,893.0,0.0,1,1665.0,1
1434,1434,0.15847551788780578,0.2,1.0,1.0,293.0,852.0,0.0,0,1855.0,0
1435,1435,0.650907579916289,0.7,0.0,0.0,353.0,986.0,0.0,1,1661.0,1
1436,1436,0.5145164321725734,0.5,0.0,0.0,470.0,834.0,0.0,1,1696.0,1
1437,1437,0.4713260944647152,0.5,1.0,1.0,281.0,785.0,0.0,0,1934.0,0
1438,1438,-0.07204685342175687,-0.1,0.0,1.0,454.0,793.0,0.0,1,1753.0,0
1439,1439,0.21263667444498735,0.2,1.0,1.0,497.0,662.0,0.0,0,1841.0,0
1440,1440,-0.4229544604351419,-0.4,1.0,0.0,281.0,627.0,0.0,0,2092.0,1
1441,1441,-0.27203688491123124,-0.3,0.0,1.0,484.0,857.0,0.0,1,1659.0,0
1442,1442,0.7359554557510902,0.7,1.0,1.0,495.0,513.0,0.0,0,-898.0,0
1443,1443,-0.7327920792666551,-0.7,0.0,1.0,415.0,840.0,0.0,1,1745.0,0
1444,1444,-0.5597495569033382,-0.6,1.0,0.0,284.0,642.0,0.0,0,2074.0,1
1445,1445,-0.5004968724264132,-0.5,0.0,1.0,399.0,831.0,0.0,1,1770.0,0
1446,1446,0.32808011790460034,0.3,0.0,0.0,360.0,890.0,0.0,1,1750.0,1
1447,1447,0.4665498578212045,0.5,0.0,0.0,331.0,852.0,0.0,1,1817.0,1
1448,1448,0.4472112962573104,0.4,0.0,0.0,393.0,579.0,0.0,1,2028.0,1
1449,1449,-0.7695411673690975,-0.8,0.0,1.0,270.0,649.0,0.0,1,2081.0,0
1450,1450,-0.49710378814024153,-0.5,1.0,0.0,252.0,651.0,0.0,0,-853.0,1
1451,1451,-0.21535963646402512,-0.2,0.0,1.0,359.0,822.0,0.0,1,1819.0,0
1452,1452,0.4107282289232289,0.4,1.0,1.0,455.0,861.0,0.0,0,1684.0,0
1453,1453,0.333211308404154,0.3,1.0,1.0,266.0,908.0,0.0,0,1826.0,0
1454,1454,-0.2324749895463618,-0.2,1.0,0.0,408.0,582.0,0.0,0,2010.0,1
1455,1455,0.4221631409098451,0.4,0.0,0.0,461.0,992.0,0.0,1,1547.0,1
1456,1456,-0.1866652413106138,-0.2,0.0,1.0,416.0,999.0,0.0,1,1585.0,0
1457,1457,0.8120696027637725,0.8,1.0,1.0,298.0,824.0,0.0,0,1878.0,0
1458,1458,0.20287601995222182,0.2,1.0,1.0,270.0,701.0,0.0,0,2029.0,0
1459,1459,0.6773743847227155,0.7,1.0,1.0,451.0,594.0,0.0,0,1955.0,0
1460,1460,0.02482844383032512,0.0,1.0,1.0,364.0,704.0,0.0,0,1932.0,0
1461,1461,0.6550563559929928,0.7,0.0,0.0,435.0,827.0,0.0,1,1738.0,1
1462,1462,0.5607409201323102,0.6,0.0,0.0,302.0,845.0,0.0,1,-977.0,1
1463,1463,0.2625601475008329,0.3,1.0,1.0,330.0,730.0,0.0,0,1940.0,0
1464,1464,0.6429042865943629,0.6,0.0,0.0,306.0,990.0,0.0,1,1704.0,1
1465,1465,-0.36961343378894296,-0.4,1.0,0.0,427.0,768.0,0.0,0,1805.0,1
1466,1466,0.6534481089742102,0.7,1.0,1.0,404.0,968.0,0.0,0,1628.0,0
1467,1467,-0.8859451303392543,-0.9,1.0,0.0,434.0,584.0,0.0,0,1982.0,1
1468,1468,0.814242141484914,0.8,0.0,0.0,296.0,771.0,0.0,1,1933.0,1
1469,1469,0.3197342410426375,0.3,1.0,1.0,359.0,791.0,0.0,0,1850.0,0
