,trial,coherence,coherence_bin,green_side,correct_side,target_onset,checker_onset,decision,green_decision,decision_time,correct_decision
0,0,0.6196667402597863,0.6,1.0,1.0,253.0,629.0,1.0,1,2118.0,1
1,1,-0.1252208693042498,-0.1,0.0,1.0,252.0,979.0,1.0,0,1769.0,1
2,2,0.2882963323904856,0.3,1.0,1.0,399.0,912.0,0.0,0,1689.0,0
3,3,0.07500164776971519,0.1,1.0,1.0,450.0,603.0,1.0,1,1947.0,1
4,4,0.8237366862031273,0.8,0.0,0.0,414.0,802.0,0.0,1,1384.0,1
5,5,0.42935098539459193,0.4,1.0,1.0,437.0,932.0,1.0,1,1631.0,1
6,6,-0.8322143049007235,-0.8,1.0,0.0,339.0,563.0,0.0,0,408.0,1
7,7,-0.539227085638079,-0.5,1.0,0.0,342.0,877.0,0.0,0,871.0,1
8,8,0.14544391742628637,0.1,0.0,0.0,351.0,547.0,1.0,0,2102.0,0
9,9,0.8406482485635264,0.8,0.0,0.0,343.0,766.0,0.0,1,1891.0,1
10,10,0.17801828640256867,0.2,0.0,0.0,410.0,756.0,1.0,0,1834.0,0
11,11,0.7973240196854442,0.8,1.0,1.0,374.0,631.0,0.0,0,1995.0,0
12,12,0.6706897185503845,0.7,0.0,0.0,477.0,539.0,0.0,1,774.0,1
13,13,0.28139790575194656,0.3,0.0,0.0,342.0,533.0,1.0,0,2125.0,0
14,14,-0.15573487143156273,-0.2,1.0,0.0,451.0,658.0,0.0,0,1891.0,1
15,15,0.6860968975671994,0.7,0.0,0.0,372.0,516.0,0.0,1,1422.0,1
16,16,-0.6324400550245355,-0.6,0.0,1.0,269.0,770.0,1.0,0,1961.0,1
17,17,0.3255982032747925,0.3,0.0,0.0,320.0,544.0,1.0,0,2136.0,0
18,18,0.24285742860041182,0.2,0.0,0.0,330.0,738.0,0.0,1,1932.0,1
19,19,0.06824280989387776,0.1,1.0,1.0,415.0,642.0,1.0,1,1943.0,1
20,20,0.24524706770041094,0.2,1.0,1.0,377.0,530.0,1.0,1,2093.0,1
21,21,-0.3895712299409637,-0.4,0.0,1.0,408.0,634.0,1.0,0,1958.0,1
22,22,-0.33535973725411516,-0.3,1.0,0.0,377.0,893.0,0.0,0,1440.0,1
23,23,0.23832473834181023,0.2,1.0,1.0,425.0,861.0,1.0,1,1124.0,1
24,24,-0.8067141839459555,-0.8,0.0,1.0,472.0,952.0,0.0,1,1576.0,0
25,25,0.3313654704288843,0.3,0.0,0.0,424.0,698.0,1.0,0,588.0,0
26,26,0.5904165033255017,0.6,1.0,1.0,354.0,800.0,1.0,1,-154.0,1
27,27,0.05527533831292786,0.1,1.0,1.0,476.0,622.0,0.0,0,1902.0,0
28,28,0.8160901910970934,0.8,0.0,0.0,265.0,580.0,0.0,1,1185.0,1
29,29,0.7790745150066613,0.8,1.0,1.0,485.0,993.0,1.0,1,1522.0,1
30,30,-0.4714621534587378,-0.5,0.0,1.0,383.0,636.0,1.0,0,-699.0,1
31,31,-0.11579411886970425,-0.1,0.0,1.0,364.0,616.0,1.0,0,2020.0,1
32,32,0.8371033951719068,0.8,0.0,0.0,256.0,592.0,1.0,0,-638.0,0
33,33,0.23789712229883453,0.2,0.0,0.0,445.0,512.0,1.0,0,713.0,0
34,34,0.5066227541989102,0.5,1.0,1.0,448.0,835.0,1.0,1,1087.0,1
35,35,-0.032631017184588496,-0.0,0.0,1.0,384.0,743.0,1.0,0,1873.0,1
36,36,-0.28414654412363616,-0.3,1.0,0.0,422.0,581.0,0.0,0,1997.0,1
37,37,-0.369972661536604,-0.4,0.0,1.0,431.0,708.0,0.0,1,1861.0,0
38,38,0.8937945105593371,0.9,1.0,1.0,433.0,567.0,0.0,0,2000.0,0
39,39,0.5018477843779542,0.5,1.0,1.0,387.0,845.0,1.0,1,1768.0,1
40,40,0.016862738294444957,0.0,0.0,0.0,486.0,774.0,0.0,1,1740.0,1
41,41,-0.22812103561443187,-0.2,1.0,0.0,262.0,644.0,0.0,0,2094.0,1
42,42,0.17370613370024135,0.2,1.0,1.0,450.0,635.0,0.0,0,1915.0,0
43,43,-0.10835244344840222,-0.1,1.0,0.0,392.0,798.0,0.0,0,1810.0,1
44,44,0.7943723405290443,0.8,0.0,0.0,429.0,501.0,0.0,1,1570.0,1
45,45,0.6798527101112944,0.7,0.0,0.0,373.0,869.0,0.0,1,1018.0,1
46,46,0.7650326171817056,0.8,1.0,1.0,351.0,804.0,1.0,1,1845.0,1
47,47,0.20808608790277316,0.2,1.0,1.0,428.0,893.0,0.0,0,1679.0,0
48,48,0.24684616927698377,0.2,0.0,0.0,427.0,979.0,0.0,1,1594.0,1
49,49,-0.4808938751101839,-0.5,1.0,0.0,281.0,583.0,1.0,1,-434.0,0
50,50,0.03262692275962742,0.0,0.0,0.0,278.0,685.0,1.0,0,2037.0,0
51,51,0.08703134402305401,0.1,1.0,1.0,434.0,702.0,0.0,0,1864.0,0
52,52,0.7993458007678557,0.8,1.0,1.0,271.0,992.0,1.0,1,1737.0,1
53,53,0.6610904529593115,0.7,0.0,0.0,471.0,617.0,0.0,1,1912.0,1
54,54,0.6879848163622001,0.7,1.0,1.0,316.0,535.0,1.0,1,2149.0,1
55,55,-0.49144309693160226,-0.5,1.0,0.0,405.0,656.0,1.0,1,-631.0,0
56,56,-0.38385332093203783,-0.4,0.0,1.0,254.0,866.0,1.0,0,1880.0,1
57,57,-0.7602116843256217,-0.8,0.0,1.0,289.0,695.0,1.0,0,2016.0,1
58,58,0.7047558261439065,0.7,0.0,0.0,280.0,570.0,0.0,1,2150.0,1
59,59,0.2456745719985346,0.2,0.0,0.0,458.0,941.0,1.0,0,671.0,0
60,60,-0.6721520438028499,-0.7,0.0,1.0,395.0,671.0,1.0,0,1934.0,1
61,61,-0.76303754064946,-0.8,1.0,0.0,331.0,932.0,0.0,0,827.0,1
62,62,-0.3828558954840806,-0.4,1.0,0.0,472.0,550.0,0.0,0,1978.0,1
63,63,0.5044006591463169,0.5,0.0,0.0,319.0,662.0,0.0,1,2019.0,1
64,64,-0.5151401464633262,-0.5,0.0,1.0,454.0,705.0,1.0,0,1841.0,1
65,65,-0.7423770633519801,-0.7,0.0,1.0,383.0,906.0,1.0,0,-49.0,1
66,66,0.6698569151893125,0.7,1.0,1.0,378.0,901.0,1.0,1,-819.0,1
67,67,0.6936827561078786,0.7,0.0,0.0,449.0,637.0,0.0,1,1914.0,1
68,68,0.8204790911609506,0.8,0.0,0.0,456.0,518.0,0.0,1,1586.0,1
69,69,-0.0168321417107411,-0.0,0.0,1.0,279.0,915.0,1.0,0,1806.0,1
70,70,-0.8953846162240905,-0.9,0.0,1.0,490.0,503.0,1.0,0,-223.0,1
71,71,0.005208918797890094,0.0,0.0,0.0,360.0,632.0,1.0,0,2008.0,0
72,72,-0.43816000749419864,-0.4,0.0,1.0,417.0,607.0,1.0,0,1976.0,1
73,73,0.6676244807541117,0.7,1.0,1.0,489.0,781.0,1.0,1,1730.0,1
74,74,-0.5243954833337645,-0.5,0.0,1.0,437.0,854.0,1.0,0,1709.0,1
75,75,-0.21530267618808752,-0.2,0.0,1.0,258.0,860.0,1.0,0,1882.0,1
76,76,-0.3533008858002453,-0.4,1.0,0.0,369.0,971.0,0.0,0,520.0,1
77,77,-0.1653549311090352,-0.2,1.0,0.0,297.0,601.0,0.0,0,2102.0,1
78,78,0.181835620294459,0.2,1.0,1.0,267.0,794.0,1.0,1,1689.0,1
79,79,-0.6252533402644183,-0.6,1.0,0.0,429.0,939.0,0.0,0,-208.0,1
80,80,-0.5576411534638823,-0.6,1.0,0.0,333.0,572.0,0.0,0,2095.0,1
81,81,-0.10314268246802916,-0.1,0.0,1.0,491.0,539.0,1.0,0,1970.0,1
82,82,0.7428882907837183,0.7,0.0,0.0,277.0,913.0,0.0,1,1810.0,1
83,83,-0.2384593619375054,-0.2,0.0,1.0,261.0,823.0,1.0,0,1916.0,1
84,84,-0.3282851687849764,-0.3,1.0,0.0,469.0,808.0,0.0,0,583.0,1
85,85,0.4169050108587641,0.4,0.0,0.0,371.0,931.0,0.0,1,1698.0,1
86,86,-0.03305396535939076,-0.0,1.0,0.0,402.0,674.0,0.0,0,1924.0,1
87,87,-0.4267704559063316,-0.4,0.0,1.0,372.0,580.0,1.0,0,2048.0,1
88,88,0.10637700226464164,0.1,1.0,1.0,478.0,848.0,0.0,0,1674.0,0
89,89,-0.36373243964178115,-0.4,0.0,1.0,419.0,521.0,1.0,0,690.0,1
90,90,0.17675681595274273,0.2,1.0,1.0,410.0,925.0,1.0,1,1665.0,1
91,91,-0.8231999254468414,-0.8,1.0,0.0,496.0,892.0,0.0,0,522.0,1
92,92,-0.7592517957885176,-0.8,1.0,0.0,316.0,586.0,0.0,0,428.0,1
93,93,-0.27180369872346577,-0.3,1.0,0.0,472.0,742.0,0.0,0,966.0,1
94,94,0.5674594988443861,0.6,1.0,1.0,348.0,612.0,0.0,0,2040.0,0
95,95,0.11290499071752758,0.1,0.0,0.0,340.0,938.0,1.0,0,-1108.0,0
96,96,-0.01166119724453274,-0.0,1.0,0.0,481.0,647.0,1.0,1,1662.0,0
97,97,-0.13699402066605582,-0.1,0.0,1.0,456.0,556.0,1.0,0,1988.0,1
98,98,-0.5694937367522193,-0.6,1.0,0.0,489.0,754.0,0.0,0,397.0,1
99,99,0.7552679171635367,0.8,0.0,0.0,355.0,787.0,0.0,1,1858.0,1
100,100,0.8974412589817374,0.9,1.0,1.0,429.0,973.0,1.0,1,1598.0,1
101,101,0.33460504180019834,0.3,0.0,0.0,471.0,895.0,0.0,1,1634.0,1
102,102,-0.8536630650566437,-0.9,0.0,1.0,375.0,748.0,1.0,0,537.0,1
103,103,0.3389942626114725,0.3,0.0,0.0,355.0,657.0,0.0,1,1988.0,1
104,104,-0.585278946975534,-0.6,1.0,0.0,291.0,706.0,0.0,0,783.0,1
105,105,0.7540969152358091,0.8,0.0,0.0,303.0,733.0,0.0,1,1854.0,1
106,106,0.2076556912784343,0.2,0.0,0.0,367.0,838.0,1.0,0,-585.0,0
107,107,-0.2101841255207556,-0.2,1.0,0.0,442.0,801.0,0.0,0,1757.0,1
108,108,0.7879828568391715,0.8,1.0,1.0,313.0,917.0,1.0,1,1770.0,1
109,109,-0.13503326820363626,-0.1,1.0,0.0,355.0,674.0,0.0,0,691.0,1
110,110,-0.82894391872484,-0.8,0.0,1.0,435.0,737.0,1.0,0,1828.0,1
111,111,0.2992662775208327,0.3,0.0,0.0,419.0,842.0,0.0,1,1739.0,1
112,112,-0.2534582530327334,-0.3,1.0,0.0,401.0,884.0,1.0,1,-1015.0,0
113,113,-0.06539578182893158,-0.1,1.0,0.0,304.0,546.0,1.0,1,550.0,0
114,114,0.20406800637135192,0.2,0.0,0.0,303.0,508.0,0.0,1,2189.0,1
115,115,0.048151625407679366,0.0,0.0,0.0,336.0,899.0,1.0,0,1765.0,0
116,116,0.7586316049900897,0.8,0.0,0.0,460.0,506.0,1.0,0,-656.0,0
117,117,-0.454627467615383,-0.5,1.0,0.0,309.0,724.0,0.0,0,1607.0,1
118,118,-0.6918362594353448,-0.7,1.0,0.0,316.0,528.0,0.0,0,666.0,1
119,119,-0.3229235978104865,-0.3,1.0,0.0,338.0,632.0,1.0,1,-500.0,0
120,120,0.009831750697173902,0.0,1.0,1.0,376.0,530.0,0.0,0,2094.0,0
121,121,0.8175879485941303,0.8,0.0,0.0,459.0,573.0,0.0,1,928.0,1
122,122,0.47865433234583243,0.5,1.0,1.0,385.0,582.0,1.0,1,63.0,1
123,123,0.14678673002532594,0.1,1.0,1.0,378.0,810.0,1.0,1,-798.0,1
124,124,0.5924269622861152,0.6,0.0,0.0,477.0,957.0,0.0,1,1566.0,1
125,125,-0.32782510353466676,-0.3,0.0,1.0,353.0,635.0,1.0,0,2012.0,1
126,126,-0.4847195490263976,-0.5,1.0,0.0,389.0,702.0,0.0,0,1909.0,1
127,127,-0.36806515883166857,-0.4,1.0,0.0,468.0,734.0,0.0,0,608.0,1
128,128,-0.06519140135801349,-0.1,1.0,0.0,336.0,852.0,0.0,0,1752.0,1
129,129,-0.3356796142924202,-0.3,1.0,0.0,490.0,789.0,0.0,0,1721.0,1
130,130,-0.4622831311006307,-0.5,1.0,0.0,377.0,787.0,0.0,0,886.0,1
131,131,-0.5210021449076572,-0.5,1.0,0.0,340.0,746.0,0.0,0,934.0,1
132,132,-0.714152816834031,-0.7,1.0,0.0,326.0,705.0,0.0,0,1079.0,1
133,133,-0.11291065539155232,-0.1,0.0,1.0,486.0,646.0,1.0,0,1868.0,1
134,134,-0.7658912616754323,-0.8,0.0,1.0,267.0,814.0,0.0,1,1919.0,0
135,135,0.48478413362982453,0.5,1.0,1.0,335.0,938.0,1.0,1,1727.0,1
136,136,-0.8685274514043616,-0.9,1.0,0.0,472.0,684.0,0.0,0,424.0,1
137,137,-0.2169664651689015,-0.2,1.0,0.0,457.0,720.0,0.0,0,1823.0,1
138,138,-0.490683717185203,-0.5,0.0,1.0,422.0,771.0,1.0,0,-773.0,1
139,139,-0.33602623825955724,-0.3,1.0,0.0,278.0,990.0,1.0,1,1732.0,0
140,140,0.17115905739280313,0.2,1.0,1.0,329.0,669.0,1.0,1,-688.0,1
141,141,0.5029668419949554,0.5,0.0,0.0,379.0,550.0,0.0,1,2071.0,1
142,142,0.09671903433347384,0.1,0.0,0.0,311.0,997.0,1.0,0,392.0,0
143,143,0.7335203830648617,0.7,0.0,0.0,306.0,998.0,0.0,1,1696.0,1
144,144,0.11586295127465707,0.1,1.0,1.0,312.0,979.0,0.0,0,1709.0,0
145,145,0.6763594830508256,0.7,0.0,0.0,286.0,771.0,0.0,1,1943.0,1
146,146,-0.3818112150043732,-0.4,0.0,1.0,431.0,947.0,0.0,1,1622.0,0
147,147,-0.17483289317380601,-0.2,1.0,0.0,427.0,779.0,1.0,1,1794.0,0
148,148,-0.8528684452018933,-0.9,1.0,0.0,379.0,906.0,0.0,0,1285.0,1
149,149,0.7775478231407239,0.8,0.0,0.0,414.0,549.0,0.0,1,2037.0,1
150,150,-0.4713391070649766,-0.5,0.0,1.0,278.0,581.0,1.0,0,611.0,1
151,151,-0.4774201412316186,-0.5,0.0,1.0,269.0,792.0,1.0,0,1939.0,1
152,152,0.5680557344359111,0.6,0.0,0.0,447.0,596.0,0.0,1,1957.0,1
153,153,0.3517371631314635,0.4,0.0,0.0,261.0,610.0,0.0,1,2129.0,1
154,154,-0.5597398654160595,-0.6,0.0,1.0,278.0,764.0,1.0,0,1958.0,1
155,155,0.7062259217290979,0.7,0.0,0.0,492.0,602.0,0.0,1,1906.0,1
156,156,0.7591518105353842,0.8,0.0,0.0,252.0,878.0,1.0,0,1870.0,0
157,157,0.1904245445716598,0.2,1.0,1.0,328.0,738.0,1.0,1,1064.0,1
158,158,0.8375548248238166,0.8,1.0,1.0,479.0,878.0,1.0,1,1643.0,1
159,159,-0.5812180680555313,-0.6,0.0,1.0,407.0,948.0,1.0,0,345.0,1
160,160,-0.0386691397925375,-0.0,0.0,1.0,454.0,784.0,1.0,0,-98.0,1
161,161,0.5979862506935364,0.6,0.0,0.0,445.0,944.0,1.0,0,-1039.0,0
162,162,-0.6746147892878769,-0.7,1.0,0.0,323.0,618.0,0.0,0,1249.0,1
163,163,0.5635571216760632,0.6,1.0,1.0,417.0,536.0,1.0,1,2047.0,1
164,164,0.08264137657100745,0.1,0.0,0.0,411.0,582.0,1.0,0,-883.0,0
165,165,0.8709926542356524,0.9,1.0,1.0,269.0,771.0,1.0,1,1960.0,1
166,166,0.8534887733651123,0.9,1.0,1.0,384.0,630.0,1.0,1,1986.0,1
167,167,-0.13968757181046842,-0.1,1.0,0.0,401.0,643.0,0.0,0,1956.0,1
168,168,0.758247954856364,0.8,1.0,1.0,466.0,805.0,1.0,1,1729.0,1
169,169,-0.8573719207133584,-0.9,1.0,0.0,305.0,954.0,0.0,0,681.0,1
170,170,-0.48940205565746997,-0.5,0.0,1.0,333.0,982.0,1.0,0,-1115.0,1
171,171,0.26796308747936914,0.3,1.0,1.0,358.0,766.0,1.0,1,1056.0,1
172,172,-0.16071549191261436,-0.2,0.0,1.0,361.0,821.0,0.0,1,1818.0,0
173,173,-0.03266517626408194,-0.0,0.0,1.0,258.0,512.0,0.0,1,2230.0,0
174,174,0.01031126148499284,0.0,1.0,1.0,266.0,772.0,1.0,1,1962.0,1
175,175,0.8494240514229664,0.8,0.0,0.0,285.0,565.0,1.0,0,-600.0,0
176,176,-0.08853899917936714,-0.1,1.0,0.0,288.0,875.0,0.0,0,1837.0,1
177,177,0.2806392993794654,0.3,0.0,0.0,301.0,666.0,1.0,0,2033.0,0
178,178,-0.27849104740412733,-0.3,0.0,1.0,452.0,553.0,1.0,0,1995.0,1
179,179,0.22935620662744205,0.2,0.0,0.0,357.0,524.0,0.0,1,2119.0,1
180,180,0.32473583211798773,0.3,1.0,1.0,326.0,552.0,1.0,1,2122.0,1
181,181,0.7504746554619445,0.8,1.0,1.0,367.0,988.0,1.0,1,1645.0,1
182,182,-0.7948574842898131,-0.8,0.0,1.0,442.0,774.0,1.0,0,-966.0,1
183,183,-0.4254114773696588,-0.4,1.0,0.0,462.0,585.0,0.0,0,1953.0,1
184,184,-0.5207666326129834,-0.5,1.0,0.0,419.0,880.0,0.0,0,1451.0,1
185,185,-0.8744568673350387,-0.9,0.0,1.0,359.0,641.0,1.0,0,140.0,1
186,186,-0.6722538229259766,-0.7,1.0,0.0,397.0,812.0,1.0,1,-849.0,0
187,187,-0.45744958680323566,-0.5,1.0,0.0,430.0,795.0,0.0,0,875.0,1
188,188,0.5757454668275056,0.6,1.0,1.0,379.0,741.0,1.0,1,1880.0,1
189,189,-0.1482844262132209,-0.1,0.0,1.0,486.0,626.0,0.0,1,1888.0,0
190,190,0.8795660046763073,0.9,0.0,0.0,294.0,729.0,0.0,1,957.0,1
191,191,0.274789017355212,0.3,0.0,0.0,431.0,595.0,0.0,1,1974.0,1
192,192,0.04999580528111702,0.0,1.0,1.0,376.0,856.0,1.0,1,1768.0,1
193,193,0.14424601776258028,0.1,0.0,0.0,465.0,674.0,1.0,0,1861.0,0
194,194,0.047759509970382474,0.0,1.0,1.0,333.0,553.0,1.0,1,944.0,1
195,195,0.3777186604550419,0.4,0.0,0.0,437.0,956.0,0.0,1,1607.0,1
196,196,0.5733463465263126,0.6,1.0,1.0,483.0,809.0,1.0,1,1318.0,1
197,197,0.6262063263042822,0.6,0.0,0.0,367.0,809.0,0.0,1,1594.0,1
198,198,-0.5634731997404938,-0.6,1.0,0.0,375.0,765.0,0.0,0,1360.0,1
199,199,-0.46697468347092297,-0.5,0.0,1.0,385.0,966.0,0.0,1,1649.0,0
200,200,0.6917673294933205,0.7,1.0,1.0,487.0,963.0,1.0,1,1550.0,1
201,201,0.5112333291698198,0.5,0.0,0.0,267.0,586.0,0.0,1,927.0,1
202,202,0.5690548687252578,0.6,1.0,1.0,338.0,782.0,0.0,0,1880.0,0
203,203,0.36091518356158325,0.4,1.0,1.0,347.0,843.0,1.0,1,-1090.0,1
204,204,-0.4736870901182188,-0.5,0.0,1.0,352.0,651.0,1.0,0,1997.0,1
205,205,0.761941164126649,0.8,0.0,0.0,447.0,611.0,0.0,1,1942.0,1
206,206,0.7306709056048438,0.7,0.0,0.0,287.0,906.0,0.0,1,1667.0,1
207,207,-0.18895590025993625,-0.2,0.0,1.0,277.0,697.0,0.0,1,2026.0,0
208,208,-0.5632508486040869,-0.6,0.0,1.0,352.0,503.0,1.0,0,2145.0,1
209,209,-0.6399798322128588,-0.6,0.0,1.0,410.0,928.0,1.0,0,182.0,1
210,210,0.553794164843446,0.6,1.0,1.0,408.0,768.0,1.0,1,1824.0,1
211,211,-0.7714909996729127,-0.8,0.0,1.0,280.0,963.0,1.0,0,1757.0,1
212,212,0.8326656555655386,0.8,1.0,1.0,401.0,751.0,0.0,0,1848.0,0
213,213,0.06162770517839855,0.1,0.0,0.0,471.0,951.0,0.0,1,1578.0,1
214,214,0.21849431878407588,0.2,1.0,1.0,340.0,866.0,0.0,0,1794.0,0
215,215,0.4310522039748491,0.4,1.0,1.0,252.0,604.0,1.0,1,2144.0,1
216,216,0.6909984389166494,0.7,1.0,1.0,486.0,599.0,0.0,0,645.0,0
217,217,-0.8544341360151471,-0.9,0.0,1.0,387.0,515.0,1.0,0,248.0,1
218,218,-0.4449419636136038,-0.4,1.0,0.0,314.0,527.0,0.0,0,1119.0,1
219,219,0.2035353294950536,0.2,0.0,0.0,337.0,920.0,0.0,1,1743.0,1
220,220,-0.02536711513859813,-0.0,1.0,0.0,304.0,683.0,1.0,1,2013.0,0
221,221,0.7795646210238419,0.8,1.0,1.0,294.0,514.0,1.0,1,2192.0,1
222,222,-0.5544794940269457,-0.6,0.0,1.0,415.0,985.0,1.0,0,880.0,1
223,223,0.13502861125990162,0.1,1.0,1.0,479.0,846.0,1.0,1,455.0,1
224,224,-0.8450777178228619,-0.8,1.0,0.0,455.0,509.0,0.0,0,376.0,1
225,225,-0.31269193841973386,-0.3,0.0,1.0,375.0,770.0,1.0,0,685.0,1
226,226,0.2271215434222532,0.2,1.0,1.0,272.0,594.0,0.0,0,2134.0,0
227,227,-0.7955053541792406,-0.8,0.0,1.0,429.0,902.0,1.0,0,-611.0,1
228,228,-0.1893502241052143,-0.2,1.0,0.0,283.0,834.0,0.0,0,1883.0,1
229,229,0.13896391545436948,0.1,1.0,1.0,446.0,515.0,1.0,1,2039.0,1
230,230,-0.42929930691507984,-0.4,0.0,1.0,456.0,824.0,1.0,0,730.0,1
231,231,-0.08507453236906637,-0.1,1.0,0.0,355.0,868.0,1.0,1,1777.0,0
232,232,0.861531988521384,0.9,1.0,1.0,423.0,914.0,1.0,1,1663.0,1
233,233,0.4897662445612071,0.5,1.0,1.0,268.0,901.0,1.0,1,-929.0,1
234,234,-0.5172871263967096,-0.5,1.0,0.0,251.0,961.0,1.0,1,-662.0,0
235,235,0.05937422196881936,0.1,1.0,1.0,445.0,992.0,1.0,1,1563.0,1
236,236,-0.023686800320385837,-0.0,1.0,0.0,377.0,825.0,1.0,1,1798.0,0
237,237,-0.40415109052439696,-0.4,1.0,0.0,354.0,700.0,0.0,0,1096.0,1
238,238,-0.21591266651818664,-0.2,0.0,1.0,472.0,971.0,0.0,1,1557.0,0
239,239,0.22765452238579653,0.2,0.0,0.0,429.0,850.0,0.0,1,1721.0,1
240,240,-0.46890077704156563,-0.5,0.0,1.0,409.0,521.0,1.0,0,2070.0,1
241,241,-0.4888581343717881,-0.5,1.0,0.0,348.0,889.0,0.0,0,1223.0,1
242,242,-0.22011044089781118,-0.2,0.0,1.0,383.0,959.0,1.0,0,1658.0,1
243,243,0.5667875421340479,0.6,1.0,1.0,266.0,644.0,1.0,1,2090.0,1
244,244,-0.4596881505378837,-0.5,0.0,1.0,369.0,777.0,1.0,0,234.0,1
245,245,0.503291473296044,0.5,1.0,1.0,374.0,546.0,1.0,1,2080.0,1
246,246,-0.6670366392948502,-0.7,1.0,0.0,293.0,774.0,1.0,1,-1017.0,0
247,247,-0.7251139917531874,-0.7,1.0,0.0,487.0,755.0,1.0,1,-1072.0,0
248,248,-0.08582862368073363,-0.1,1.0,0.0,422.0,808.0,0.0,0,1770.0,1
249,249,0.7874012702637104,0.8,0.0,0.0,257.0,971.0,1.0,0,-908.0,0
250,250,-0.342992787733843,-0.3,0.0,1.0,285.0,651.0,1.0,0,2064.0,1
251,251,-0.05416911250235101,-0.1,0.0,1.0,475.0,831.0,1.0,0,1694.0,1
252,252,0.4527953471512197,0.5,1.0,1.0,369.0,616.0,1.0,1,2015.0,1
253,253,-0.37568730607786627,-0.4,0.0,1.0,375.0,817.0,0.0,1,1808.0,0
254,254,0.09020396642047945,0.1,1.0,1.0,434.0,596.0,0.0,0,1970.0,0
255,255,-0.7228585735371362,-0.7,0.0,1.0,259.0,925.0,0.0,1,1816.0,0
256,256,0.3278735750273968,0.3,1.0,1.0,263.0,853.0,1.0,1,-286.0,1
257,257,0.47319182930933346,0.5,1.0,1.0,412.0,506.0,1.0,1,2082.0,1
258,258,0.16651657728578495,0.2,1.0,1.0,300.0,558.0,1.0,1,442.0,1
259,259,0.6263547479686683,0.6,1.0,1.0,332.0,825.0,1.0,1,1843.0,1
260,260,-0.6852098728614161,-0.7,1.0,0.0,339.0,820.0,0.0,0,1021.0,1
261,261,0.27330518547429195,0.3,1.0,1.0,391.0,842.0,1.0,1,1767.0,1
262,262,0.6254920495924153,0.6,1.0,1.0,321.0,914.0,1.0,1,685.0,1
263,263,-0.40344801181944384,-0.4,0.0,1.0,433.0,692.0,1.0,0,1875.0,1
264,264,0.04709632655504159,0.0,0.0,0.0,322.0,675.0,0.0,1,2003.0,1
265,265,0.587996841672188,0.6,0.0,0.0,421.0,951.0,0.0,1,1458.0,1
266,266,0.1478969984854469,0.1,0.0,0.0,279.0,810.0,0.0,1,1911.0,1
267,267,-0.4410499485955918,-0.4,0.0,1.0,292.0,722.0,1.0,0,1986.0,1
268,268,-0.5761364128770945,-0.6,0.0,1.0,484.0,808.0,1.0,0,1708.0,1
269,269,0.2071994507316509,0.2,0.0,0.0,447.0,966.0,0.0,1,1587.0,1
270,270,0.8197710736561777,0.8,1.0,1.0,264.0,576.0,1.0,1,2160.0,1
271,271,0.5085337991410454,0.5,0.0,0.0,347.0,593.0,1.0,0,-740.0,0
272,272,-0.8517337572480738,-0.9,0.0,1.0,364.0,536.0,0.0,1,2100.0,0
273,273,0.04692777018537253,0.0,1.0,1.0,307.0,687.0,1.0,1,2006.0,1
274,274,-0.39969411321843684,-0.4,0.0,1.0,339.0,718.0,1.0,0,773.0,1
275,275,0.1941345513694982,0.2,0.0,0.0,357.0,902.0,1.0,0,1741.0,0
276,276,0.35826168651425194,0.4,1.0,1.0,361.0,969.0,1.0,1,10.0,1
277,277,-0.5973730775229007,-0.6,1.0,0.0,290.0,660.0,0.0,0,1420.0,1
278,278,0.21040163727087913,0.2,0.0,0.0,288.0,862.0,0.0,1,1850.0,1
279,279,-0.10160257833148245,-0.1,0.0,1.0,302.0,581.0,1.0,0,-863.0,1
280,280,0.20022092438705863,0.2,1.0,1.0,496.0,696.0,1.0,1,1808.0,1
281,281,0.4893732069302169,0.5,0.0,0.0,474.0,876.0,0.0,1,1650.0,1
282,282,-0.007973090289079332,-0.0,0.0,1.0,492.0,942.0,1.0,0,1566.0,1
283,283,0.6791243256126368,0.7,1.0,1.0,352.0,596.0,1.0,1,2052.0,1
284,284,0.8537408741035791,0.9,1.0,1.0,258.0,636.0,1.0,1,76.0,1
285,285,-0.14974006980354848,-0.1,0.0,1.0,434.0,608.0,1.0,0,798.0,1
286,286,-0.5681092670994567,-0.6,1.0,0.0,322.0,993.0,0.0,0,1255.0,1
287,287,-0.04520513013064109,-0.0,0.0,1.0,254.0,951.0,0.0,1,1795.0,0
288,288,0.6223076411220324,0.6,1.0,1.0,420.0,622.0,1.0,1,1958.0,1
289,289,0.12462106969603137,0.1,1.0,1.0,275.0,850.0,0.0,0,405.0,0
290,290,-0.28885535084419,-0.3,0.0,1.0,274.0,723.0,1.0,0,2003.0,1
291,291,-0.302763893239818,-0.3,1.0,0.0,337.0,757.0,0.0,0,1906.0,1
292,292,-0.4970187669621527,-0.5,0.0,1.0,289.0,737.0,1.0,0,1584.0,1
293,293,-0.2062886581858565,-0.2,1.0,0.0,409.0,751.0,1.0,1,1840.0,0
294,294,-0.3316423738915981,-0.3,1.0,0.0,313.0,686.0,0.0,0,601.0,1
295,295,-0.5004673436974264,-0.5,1.0,0.0,372.0,862.0,0.0,0,1556.0,1
296,296,-0.8052197860435475,-0.8,1.0,0.0,479.0,537.0,0.0,0,1544.0,1
297,297,-0.2582461496503745,-0.3,1.0,0.0,382.0,730.0,0.0,0,918.0,1
298,298,-0.08356448623035984,-0.1,1.0,0.0,388.0,626.0,0.0,0,1886.0,1
299,299,-0.5158425126046171,-0.5,0.0,1.0,388.0,874.0,1.0,0,1738.0,1
300,300,-0.39787685661187666,-0.4,0.0,1.0,408.0,813.0,1.0,0,1779.0,1
301,301,-0.7531020976302836,-0.8,1.0,0.0,348.0,859.0,1.0,1,-377.0,0
302,302,-0.5743504783766196,-0.6,0.0,1.0,426.0,592.0,1.0,0,-468.0,1
303,303,0.29833777439666853,0.3,1.0,1.0,488.0,725.0,1.0,1,-213.0,1
304,304,0.4735923400867673,0.5,0.0,0.0,377.0,500.0,0.0,1,2123.0,1
305,305,-0.7467984717161604,-0.7,1.0,0.0,475.0,944.0,0.0,0,531.0,1
306,306,-0.5221304797136151,-0.5,1.0,0.0,259.0,736.0,0.0,0,1445.0,1
307,307,0.25822244683641127,0.3,1.0,1.0,362.0,632.0,1.0,1,26.0,1
308,308,-0.3531775764313114,-0.4,0.0,1.0,417.0,812.0,1.0,0,1771.0,1
309,309,-0.7888095387731723,-0.8,1.0,0.0,414.0,732.0,0.0,0,354.0,1
310,310,-0.26894131448309067,-0.3,1.0,0.0,372.0,975.0,0.0,0,1533.0,1
311,311,-0.25163451012884375,-0.3,0.0,1.0,459.0,530.0,1.0,0,2011.0,1
312,312,-0.4034353792797497,-0.4,1.0,0.0,309.0,535.0,0.0,0,1846.0,1
313,313,0.3143507932048285,0.3,1.0,1.0,450.0,567.0,1.0,1,1983.0,1
314,314,-0.7339469560611519,-0.7,1.0,0.0,369.0,568.0,0.0,0,663.0,1
315,315,0.1547944030930083,0.2,1.0,1.0,295.0,638.0,1.0,1,1247.0,1
316,316,0.16628560281229554,0.2,0.0,0.0,412.0,597.0,0.0,1,1991.0,1
317,317,-0.3722928232042093,-0.4,1.0,0.0,454.0,799.0,0.0,0,957.0,1
318,318,0.8277162113174333,0.8,0.0,0.0,346.0,571.0,0.0,1,2083.0,1
319,319,-0.18013710178318498,-0.2,1.0,0.0,480.0,658.0,0.0,0,1662.0,1
320,320,0.18885779787105939,0.2,1.0,1.0,318.0,981.0,1.0,1,1701.0,1
321,321,-0.8015499070992477,-0.8,0.0,1.0,262.0,895.0,0.0,1,1843.0,0
322,322,-0.17542808766451146,-0.2,0.0,1.0,475.0,711.0,1.0,0,1814.0,1
323,323,0.4214633486938991,0.4,0.0,0.0,358.0,674.0,1.0,0,1968.0,0
324,324,0.8019224119084748,0.8,1.0,1.0,427.0,989.0,1.0,1,-16.0,1
325,325,0.19108114024292566,0.2,1.0,1.0,378.0,705.0,1.0,1,-123.0,1
326,326,0.04067735508463699,0.0,0.0,0.0,312.0,937.0,1.0,0,1751.0,0
327,327,-0.35243614088576036,-0.4,0.0,1.0,303.0,760.0,1.0,0,-873.0,1
328,328,-0.4097820962767847,-0.4,1.0,0.0,495.0,817.0,0.0,0,1258.0,1
329,329,0.6688013506056113,0.7,1.0,1.0,382.0,952.0,1.0,1,1606.0,1
330,330,-0.372579225804915,-0.4,1.0,0.0,437.0,510.0,0.0,0,2053.0,1
331,331,-0.11564899689997776,-0.1,0.0,1.0,421.0,520.0,1.0,0,2059.0,1
332,332,-0.7545770196407457,-0.8,0.0,1.0,411.0,776.0,1.0,0,1813.0,1
333,333,0.323148288044833,0.3,1.0,1.0,429.0,751.0,1.0,1,510.0,1
334,334,-0.07706574777370001,-0.1,0.0,1.0,396.0,656.0,1.0,0,-732.0,1
335,335,0.0005351068616428201,0.0,1.0,1.0,422.0,761.0,1.0,1,1817.0,1
336,336,0.8971997430228286,0.9,0.0,0.0,438.0,973.0,0.0,1,1469.0,1
337,337,0.6450442133868143,0.6,1.0,1.0,296.0,841.0,1.0,1,1863.0,1
338,338,0.39660907296290315,0.4,1.0,1.0,493.0,744.0,1.0,1,-1057.0,1
339,339,0.5792181661109234,0.6,0.0,0.0,307.0,656.0,0.0,1,2037.0,1
340,340,0.805033087678333,0.8,0.0,0.0,354.0,875.0,0.0,1,921.0,1
341,341,0.656165834495625,0.7,1.0,1.0,299.0,969.0,0.0,0,-258.0,0
342,342,-0.0072042351811811844,-0.0,0.0,1.0,373.0,805.0,1.0,0,1822.0,1
343,343,0.4418742255127809,0.4,0.0,0.0,430.0,720.0,0.0,1,1850.0,1
344,344,-0.1454550319156922,-0.1,1.0,0.0,301.0,615.0,0.0,0,1344.0,1
345,345,-0.3159886565453768,-0.3,0.0,1.0,437.0,683.0,1.0,0,1880.0,1
346,346,0.12023091911457684,0.1,1.0,1.0,369.0,675.0,1.0,1,1426.0,1
347,347,-0.04382542774673481,-0.0,0.0,1.0,352.0,879.0,1.0,0,1769.0,1
348,348,-0.610321413569761,-0.6,1.0,0.0,403.0,891.0,0.0,0,766.0,1
349,349,-0.31116539535077725,-0.3,0.0,1.0,270.0,787.0,1.0,0,33.0,1
350,350,-0.8664266592978206,-0.9,1.0,0.0,367.0,888.0,1.0,1,-695.0,0
351,351,-0.4056353874080096,-0.4,1.0,0.0,435.0,793.0,0.0,0,672.0,1
352,352,-0.06242131873952683,-0.1,0.0,1.0,372.0,512.0,1.0,0,2116.0,1
353,353,-0.09822218816508088,-0.1,0.0,1.0,271.0,834.0,0.0,1,1895.0,0
354,354,-0.857149762222053,-0.9,1.0,0.0,290.0,808.0,0.0,0,982.0,1
355,355,-0.19689649055247993,-0.2,0.0,1.0,318.0,591.0,1.0,0,911.0,1
356,356,-0.2225028990357517,-0.2,0.0,1.0,258.0,715.0,1.0,0,2027.0,1
357,357,0.7703328250454734,0.8,0.0,0.0,316.0,838.0,0.0,1,496.0,1
358,358,-0.45908270164375586,-0.5,0.0,1.0,439.0,683.0,0.0,1,1878.0,0
359,359,-0.05130716603182983,-0.1,0.0,1.0,418.0,566.0,1.0,0,926.0,1
360,360,-0.5158256658172786,-0.5,0.0,1.0,339.0,947.0,1.0,0,1384.0,1
361,361,0.6153794460378718,0.6,1.0,1.0,455.0,788.0,0.0,0,1757.0,0
362,362,-0.7224262050900538,-0.7,0.0,1.0,349.0,630.0,0.0,1,2021.0,0
363,363,-0.15167607903649216,-0.2,0.0,1.0,338.0,788.0,1.0,0,1874.0,1
364,364,0.8759712715876505,0.9,1.0,1.0,391.0,969.0,1.0,1,1640.0,1
365,365,-0.6454287882577825,-0.6,1.0,0.0,328.0,689.0,0.0,0,543.0,1
366,366,0.7248455979391245,0.7,1.0,1.0,272.0,540.0,0.0,0,1848.0,0
367,367,-0.4153581775280881,-0.4,0.0,1.0,359.0,673.0,0.0,1,1968.0,0
368,368,0.645249137981654,0.6,1.0,1.0,434.0,585.0,1.0,1,1981.0,1
369,369,-0.3508361319476021,-0.4,1.0,0.0,386.0,743.0,0.0,0,1871.0,1
370,370,-0.04920360181291128,-0.0,1.0,0.0,299.0,834.0,1.0,1,1867.0,0
371,371,-0.02814399595797601,-0.0,1.0,0.0,372.0,715.0,1.0,1,-427.0,0
372,372,0.7465677462755173,0.7,0.0,0.0,293.0,630.0,0.0,1,2077.0,1
373,373,0.3352012275498165,0.3,0.0,0.0,386.0,502.0,0.0,1,2112.0,1
374,374,0.5267191353617974,0.5,0.0,0.0,291.0,648.0,0.0,1,2061.0,1
375,375,-0.40823256660502144,-0.4,1.0,0.0,391.0,570.0,0.0,0,2039.0,1
376,376,0.2882632297090221,0.3,0.0,0.0,433.0,835.0,1.0,0,1732.0,0
377,377,0.3045441670055752,0.3,0.0,0.0,381.0,948.0,1.0,0,-839.0,0
378,378,0.2907173867831562,0.3,0.0,0.0,253.0,627.0,1.0,0,-850.0,0
379,379,-0.7368962227521725,-0.7,0.0,1.0,404.0,850.0,1.0,0,-984.0,1
380,380,-0.6070289657877973,-0.6,1.0,0.0,447.0,525.0,1.0,1,-632.0,0
381,381,0.02442913972165861,0.0,1.0,1.0,386.0,712.0,0.0,0,1902.0,0
382,382,0.7218513993744654,0.7,0.0,0.0,317.0,969.0,0.0,1,1714.0,1
383,383,-0.8468391813691266,-0.8,0.0,1.0,347.0,774.0,1.0,0,1879.0,1
384,384,0.6074315193536163,0.6,0.0,0.0,289.0,721.0,0.0,1,1850.0,1
385,385,0.5344766833805458,0.5,0.0,0.0,293.0,921.0,0.0,1,1456.0,1
386,386,0.24492548980754847,0.2,1.0,1.0,460.0,595.0,1.0,1,475.0,1
387,387,-0.823417507369963,-0.8,1.0,0.0,338.0,832.0,1.0,1,-60.0,0
388,388,0.4323156549760946,0.4,1.0,1.0,316.0,695.0,1.0,1,1989.0,1
389,389,0.03764908037662262,0.0,1.0,1.0,476.0,555.0,1.0,1,1969.0,1
390,390,0.7682435066110732,0.8,0.0,0.0,296.0,514.0,1.0,0,-640.0,0
391,391,-0.25568060764185097,-0.3,0.0,1.0,394.0,741.0,1.0,0,1865.0,1
392,392,0.7478684277518443,0.7,0.0,0.0,293.0,827.0,0.0,1,1880.0,1
393,393,-0.6263537553782372,-0.6,1.0,0.0,460.0,889.0,0.0,0,391.0,1
394,394,-0.30835881333808446,-0.3,0.0,1.0,273.0,671.0,1.0,0,296.0,1
395,395,-0.3290960345746462,-0.3,1.0,0.0,431.0,814.0,1.0,1,1755.0,0
396,396,0.8073578283159074,0.8,0.0,0.0,416.0,927.0,0.0,1,527.0,1
397,397,-0.7118293398098597,-0.7,0.0,1.0,390.0,905.0,1.0,0,1385.0,1
398,398,-0.7040455023293654,-0.7,0.0,1.0,360.0,682.0,1.0,0,1958.0,1
399,399,-0.09181225282784666,-0.1,0.0,1.0,329.0,820.0,1.0,0,1851.0,1
400,400,0.46527073446978007,0.5,0.0,0.0,257.0,522.0,0.0,1,2221.0,1
401,401,-0.2008667705658067,-0.2,0.0,1.0,414.0,549.0,1.0,0,2037.0,1
402,402,0.6359857242164125,0.6,1.0,1.0,474.0,698.0,0.0,0,1828.0,0
403,403,-0.4228300425486737,-0.4,1.0,0.0,478.0,504.0,0.0,0,1208.0,1
404,404,0.38632665931046184,0.4,1.0,1.0,268.0,841.0,1.0,1,1891.0,1
405,405,0.010193327982441658,0.0,1.0,1.0,403.0,953.0,0.0,0,1644.0,0
406,406,-0.8739381675591963,-0.9,1.0,0.0,496.0,968.0,0.0,0,1026.0,1
407,407,-0.16619997547384813,-0.2,1.0,0.0,349.0,689.0,0.0,0,122.0,1
408,408,-0.3453668754140564,-0.3,0.0,1.0,456.0,671.0,0.0,1,1873.0,0
409,409,0.30007232450409627,0.3,0.0,0.0,263.0,848.0,0.0,1,1889.0,1
410,410,-0.06107404365224389,-0.1,1.0,0.0,272.0,743.0,1.0,1,1985.0,0
411,411,-0.8195516461414747,-0.8,1.0,0.0,428.0,782.0,0.0,0,350.0,1
412,412,-0.830087291190154,-0.8,1.0,0.0,413.0,705.0,0.0,0,382.0,1
413,413,0.8834694842851939,0.9,0.0,0.0,305.0,755.0,0.0,1,1940.0,1
414,414,-0.8580690037952,-0.9,0.0,1.0,386.0,502.0,1.0,0,2112.0,1
415,415,-0.6567972226621628,-0.7,0.0,1.0,268.0,839.0,1.0,0,1003.0,1
416,416,-0.41650588648897224,-0.4,1.0,0.0,493.0,850.0,1.0,1,-1133.0,0
417,417,-0.1185689402804575,-0.1,0.0,1.0,330.0,997.0,1.0,0,1673.0,1
418,418,-0.575458843799453,-0.6,0.0,1.0,459.0,567.0,1.0,0,1974.0,1
419,419,-0.13770032977565783,-0.1,1.0,0.0,463.0,739.0,0.0,0,1798.0,1
420,420,-0.6158748115323991,-0.6,1.0,0.0,432.0,866.0,0.0,0,1022.0,1
421,421,-0.5849478952437983,-0.6,0.0,1.0,296.0,858.0,0.0,1,1846.0,0
422,422,0.3012298741857372,0.3,1.0,1.0,269.0,712.0,1.0,1,-571.0,1
423,423,0.5502700472298919,0.6,0.0,0.0,411.0,900.0,0.0,1,1689.0,1
424,424,0.3232458220862847,0.3,1.0,1.0,381.0,610.0,1.0,1,2009.0,1
425,425,0.40818611059131793,0.4,1.0,1.0,350.0,778.0,1.0,1,1872.0,1
426,426,0.30328021501318314,0.3,0.0,0.0,253.0,614.0,1.0,0,2133.0,0
427,427,0.4461155960305595,0.4,1.0,1.0,288.0,546.0,1.0,1,2166.0,1
428,428,-0.5953446336660434,-0.6,0.0,1.0,454.0,936.0,1.0,0,1610.0,1
429,429,-0.4101293191467386,-0.4,1.0,0.0,428.0,563.0,0.0,0,1789.0,1
430,430,0.243796789168636,0.2,0.0,0.0,357.0,865.0,0.0,1,1778.0,1
431,431,0.015949758519253954,0.0,1.0,1.0,419.0,821.0,0.0,0,1610.0,0
432,432,-0.7829590661962306,-0.8,1.0,0.0,469.0,837.0,0.0,0,634.0,1
433,433,-0.6600362801991951,-0.7,1.0,0.0,414.0,675.0,0.0,0,621.0,1
434,434,0.7592993557290894,0.8,1.0,1.0,358.0,744.0,1.0,1,1898.0,1
435,435,0.8602679471444322,0.9,0.0,0.0,290.0,661.0,0.0,1,2049.0,1
436,436,0.7254181625613189,0.7,1.0,1.0,252.0,758.0,1.0,1,1990.0,1
437,437,-0.16761942815382713,-0.2,0.0,1.0,295.0,799.0,0.0,1,1906.0,0
438,438,-0.2027816313910955,-0.2,1.0,0.0,490.0,984.0,1.0,1,-344.0,0
439,439,-0.6000187287468812,-0.6,0.0,1.0,295.0,948.0,1.0,0,1757.0,1
440,440,0.33164239429455533,0.3,0.0,0.0,345.0,853.0,0.0,1,1802.0,1
441,441,-0.4809430415717967,-0.5,0.0,1.0,309.0,855.0,1.0,0,1836.0,1
442,442,-0.1592719966036722,-0.2,0.0,1.0,262.0,753.0,1.0,0,1985.0,1
443,443,0.20530494522934972,0.2,0.0,0.0,326.0,764.0,1.0,0,1910.0,0
444,444,-0.42223877445753827,-0.4,1.0,0.0,451.0,979.0,0.0,0,1570.0,1
445,445,0.5760571702923954,0.6,1.0,1.0,449.0,834.0,1.0,1,1717.0,1
446,446,0.6653482083736758,0.7,1.0,1.0,307.0,676.0,1.0,1,2017.0,1
447,447,-0.395852961351998,-0.4,0.0,1.0,493.0,965.0,1.0,0,1542.0,1
448,448,-0.5195211577930985,-0.5,1.0,0.0,267.0,988.0,0.0,0,345.0,1
449,449,0.22870296114855726,0.2,0.0,0.0,446.0,597.0,1.0,0,377.0,0
450,450,-0.13397528700532713,-0.1,0.0,1.0,262.0,673.0,1.0,0,2065.0,1
451,451,0.11710815256650531,0.1,0.0,0.0,365.0,733.0,0.0,1,1902.0,1
452,452,-0.18180697502034482,-0.2,0.0,1.0,337.0,617.0,1.0,0,2046.0,1
453,453,0.1440709974008355,0.1,1.0,1.0,402.0,729.0,1.0,1,-741.0,1
454,454,0.3867513819947811,0.4,1.0,1.0,487.0,504.0,0.0,0,2009.0,0
455,455,0.3568113426871079,0.4,1.0,1.0,468.0,737.0,1.0,1,1795.0,1
456,456,-0.013054372760458066,-0.0,1.0,0.0,493.0,813.0,0.0,0,1694.0,1
457,457,0.19706454204419488,0.2,1.0,1.0,257.0,943.0,1.0,1,1800.0,1
458,458,-0.4886744926574568,-0.5,1.0,0.0,401.0,902.0,1.0,1,-243.0,0
459,459,0.6414100876440244,0.6,1.0,1.0,285.0,537.0,1.0,1,-82.0,1
460,460,0.6151634845274448,0.6,0.0,0.0,323.0,805.0,0.0,1,1642.0,1
461,461,0.1391964692362001,0.1,1.0,1.0,454.0,852.0,1.0,1,1694.0,1
462,462,-0.6874702395713953,-0.7,0.0,1.0,368.0,820.0,0.0,1,1812.0,0
463,463,-0.16142419425039833,-0.2,0.0,1.0,479.0,949.0,1.0,0,1572.0,1
464,464,0.5285705175814847,0.5,1.0,1.0,337.0,957.0,1.0,1,1706.0,1
465,465,0.7136135083641598,0.7,1.0,1.0,290.0,688.0,1.0,1,2022.0,1
466,466,0.3264539532326579,0.3,1.0,1.0,441.0,867.0,1.0,1,1692.0,1
467,467,0.6670777232346273,0.7,0.0,0.0,449.0,674.0,0.0,1,1877.0,1
468,468,-0.18251320734519128,-0.2,1.0,0.0,496.0,591.0,1.0,1,1103.0,0
469,469,0.043675151678531865,0.0,0.0,0.0,435.0,740.0,0.0,1,1825.0,1
470,470,0.4181490582438322,0.4,0.0,0.0,475.0,583.0,0.0,1,1942.0,1
471,471,0.5092750303709422,0.5,1.0,1.0,369.0,991.0,1.0,1,1640.0,1
472,472,-0.07572615390299442,-0.1,1.0,0.0,267.0,548.0,0.0,0,1275.0,1
473,473,-0.7322438326642509,-0.7,0.0,1.0,357.0,520.0,0.0,1,2123.0,0
474,474,-0.4244443169671432,-0.4,1.0,0.0,371.0,997.0,0.0,0,1152.0,1
475,475,0.22275916481813207,0.2,0.0,0.0,445.0,985.0,1.0,0,-170.0,0
476,476,0.6990638527562872,0.7,0.0,0.0,427.0,631.0,0.0,1,1942.0,1
477,477,-0.38768644907442473,-0.4,0.0,1.0,253.0,736.0,1.0,0,2011.0,1
478,478,-0.30515544520959037,-0.3,1.0,0.0,454.0,500.0,0.0,0,2046.0,1
479,479,-0.8521469377679489,-0.9,1.0,0.0,471.0,543.0,0.0,0,246.0,1
480,480,0.370987398835103,0.4,0.0,0.0,289.0,543.0,0.0,1,2168.0,1
481,481,0.6411641995409955,0.6,0.0,0.0,317.0,934.0,1.0,0,-911.0,0
482,482,-0.48652210783351657,-0.5,0.0,1.0,269.0,568.0,1.0,0,2163.0,1
483,483,0.5279420539073117,0.5,0.0,0.0,271.0,607.0,0.0,1,1712.0,1
484,484,0.15306180727440244,0.2,1.0,1.0,433.0,652.0,1.0,1,1915.0,1
485,485,-0.7976996658946611,-0.8,0.0,1.0,402.0,887.0,1.0,0,1711.0,1
486,486,-0.5822222980734146,-0.6,1.0,0.0,292.0,631.0,1.0,1,-863.0,0
487,487,0.29062534887848146,0.3,1.0,1.0,339.0,706.0,1.0,1,1955.0,1
488,488,0.4989292045439052,0.5,1.0,1.0,269.0,800.0,1.0,1,1931.0,1
489,489,-0.6005706756211946,-0.6,1.0,0.0,340.0,836.0,0.0,0,454.0,1
490,490,-0.21282620504595395,-0.2,0.0,1.0,376.0,673.0,1.0,0,-499.0,1
491,491,0.6602994145982392,0.7,0.0,0.0,311.0,522.0,0.0,1,2167.0,1
492,492,0.6518277504286792,0.7,1.0,1.0,480.0,581.0,1.0,1,1939.0,1
493,493,-0.8901648107646316,-0.9,0.0,1.0,312.0,567.0,0.0,1,2121.0,0
494,494,-0.42287145459615644,-0.4,0.0,1.0,429.0,882.0,1.0,0,-661.0,1
495,495,-0.01651972028269999,-0.0,0.0,1.0,265.0,531.0,1.0,0,2204.0,1
496,496,-0.30466428917194965,-0.3,1.0,0.0,494.0,669.0,0.0,0,717.0,1
497,497,-0.7259915666442669,-0.7,0.0,1.0,435.0,661.0,1.0,0,1214.0,1
498,498,0.4778150219213392,0.5,0.0,0.0,407.0,976.0,0.0,1,1617.0,1
499,499,0.6896112285084962,0.7,1.0,1.0,490.0,933.0,1.0,1,1577.0,1
500,500,0.09626757596891877,0.1,0.0,0.0,375.0,815.0,1.0,0,1690.0,0
501,501,-0.737075702546609,-0.7,0.0,1.0,466.0,667.0,0.0,1,1867.0,0
502,502,0.28460977948502897,0.3,0.0,0.0,270.0,662.0,0.0,1,2068.0,1
503,503,0.8317598729235643,0.8,0.0,0.0,340.0,953.0,0.0,1,957.0,1
504,504,0.35363046064737447,0.4,0.0,0.0,361.0,730.0,0.0,1,1909.0,1
505,505,0.46357328779281526,0.5,0.0,0.0,377.0,527.0,0.0,1,2096.0,1
506,506,-0.4777577001659582,-0.5,0.0,1.0,499.0,993.0,0.0,1,1508.0,0
507,507,-0.4423623078009017,-0.4,1.0,0.0,437.0,608.0,0.0,0,395.0,1
508,508,0.1684680879697783,0.2,0.0,0.0,297.0,822.0,1.0,0,1881.0,0
509,509,0.30705377207041573,0.3,0.0,0.0,470.0,728.0,1.0,0,1802.0,0
510,510,-0.8312433404618613,-0.8,0.0,1.0,381.0,516.0,0.0,1,2103.0,0
511,511,-0.20568178835738327,-0.2,1.0,0.0,393.0,673.0,0.0,0,664.0,1
512,512,-0.05823359708964848,-0.1,1.0,0.0,307.0,721.0,1.0,1,1972.0,0
513,513,0.6588444148823519,0.7,1.0,1.0,294.0,908.0,1.0,1,-1042.0,1
514,514,0.8452562233156732,0.8,1.0,1.0,336.0,861.0,0.0,0,1803.0,0
515,515,-0.8090788524955826,-0.8,0.0,1.0,292.0,591.0,0.0,1,2117.0,0
516,516,0.31182301001063106,0.3,0.0,0.0,475.0,566.0,0.0,1,1959.0,1
517,517,-0.33497637890875087,-0.3,1.0,0.0,365.0,874.0,0.0,0,1761.0,1
518,518,0.7171821084707987,0.7,0.0,0.0,477.0,663.0,0.0,1,1860.0,1
519,519,0.4556140452588574,0.5,0.0,0.0,482.0,632.0,0.0,1,1886.0,1
520,520,0.4991267463377106,0.5,1.0,1.0,441.0,676.0,1.0,1,823.0,1
521,521,0.015900716569643647,0.0,1.0,1.0,417.0,688.0,1.0,1,1895.0,1
522,522,-0.42569754859753267,-0.4,0.0,1.0,430.0,508.0,0.0,1,2062.0,0
523,523,-0.29152477530294996,-0.3,0.0,1.0,319.0,952.0,0.0,1,1729.0,0
524,524,0.8735155607088426,0.9,0.0,0.0,361.0,620.0,0.0,1,729.0,1
525,525,-0.6416326383800119,-0.6,1.0,0.0,316.0,958.0,1.0,1,-814.0,0
526,526,0.48909389097213307,0.5,0.0,0.0,496.0,803.0,0.0,1,1701.0,1
527,527,-0.6049603807699432,-0.6,1.0,0.0,434.0,536.0,0.0,0,1890.0,1
528,528,0.18142682900154383,0.2,1.0,1.0,469.0,865.0,1.0,1,1666.0,1
529,529,0.3310452268528753,0.3,1.0,1.0,395.0,790.0,1.0,1,1815.0,1
530,530,0.17900691798657997,0.2,0.0,0.0,422.0,710.0,1.0,0,1868.0,0
531,531,-0.7577242460105975,-0.8,0.0,1.0,492.0,944.0,1.0,0,1564.0,1
532,532,0.6211651044097216,0.6,1.0,1.0,431.0,635.0,1.0,1,1934.0,1
533,533,-0.6069636027574996,-0.6,0.0,1.0,377.0,930.0,1.0,0,1693.0,1
534,534,0.882573682470141,0.9,1.0,1.0,363.0,898.0,1.0,1,1739.0,1
535,535,-0.42585557167200544,-0.4,1.0,0.0,410.0,573.0,0.0,0,537.0,1
536,536,0.8337653638447505,0.8,0.0,0.0,498.0,655.0,0.0,1,407.0,1
537,537,-0.18548456203726582,-0.2,1.0,0.0,356.0,937.0,0.0,0,1007.0,1
538,538,0.7963580896080672,0.8,1.0,1.0,431.0,648.0,1.0,1,1921.0,1
539,539,-0.3610526748260149,-0.4,0.0,1.0,326.0,773.0,1.0,0,1901.0,1
540,540,0.470270790392035,0.5,0.0,0.0,294.0,709.0,0.0,1,1997.0,1
541,541,-0.4330141471630116,-0.4,1.0,0.0,327.0,902.0,0.0,0,1771.0,1
542,542,-0.2592852665695464,-0.3,1.0,0.0,475.0,693.0,0.0,0,1832.0,1
543,543,-0.5274970490953534,-0.5,0.0,1.0,495.0,751.0,1.0,0,-986.0,1
544,544,-0.7544636328741053,-0.8,1.0,0.0,365.0,731.0,0.0,0,1904.0,1
545,545,-0.15511619400596466,-0.2,0.0,1.0,400.0,564.0,1.0,0,2036.0,1
546,546,-0.03436770320679616,-0.0,0.0,1.0,320.0,804.0,0.0,1,1876.0,0
547,547,-0.27663409902899094,-0.3,0.0,1.0,332.0,647.0,1.0,0,2021.0,1
548,548,0.3827837879898942,0.4,1.0,1.0,475.0,667.0,1.0,1,1858.0,1
549,549,0.880744861960567,0.9,0.0,0.0,494.0,520.0,0.0,1,846.0,1
550,550,0.02455885016391146,0.0,1.0,1.0,353.0,970.0,0.0,0,1677.0,0
551,551,-0.7152880742536372,-0.7,1.0,0.0,345.0,541.0,0.0,0,244.0,1
552,552,0.5998081701713301,0.6,0.0,0.0,314.0,622.0,0.0,1,2064.0,1
553,553,-0.19937699437060885,-0.2,0.0,1.0,388.0,680.0,1.0,0,1932.0,1
554,554,0.4068475092717635,0.4,1.0,1.0,306.0,748.0,1.0,1,1946.0,1
555,555,0.8190203308200127,0.8,1.0,1.0,383.0,998.0,1.0,1,1619.0,1
556,556,-0.8780609525071643,-0.9,0.0,1.0,399.0,755.0,0.0,1,1846.0,0
557,557,0.5168901273639795,0.5,1.0,1.0,343.0,797.0,1.0,1,320.0,1
558,558,0.4087779246452107,0.4,0.0,0.0,279.0,871.0,0.0,1,1850.0,1
559,559,0.5663753340345207,0.6,1.0,1.0,443.0,631.0,1.0,1,1086.0,1
560,560,-0.7438920197108733,-0.7,0.0,1.0,471.0,671.0,1.0,0,158.0,1
561,561,-0.8677638943797358,-0.9,0.0,1.0,305.0,640.0,0.0,1,2055.0,0
562,562,0.01726199029077935,0.0,0.0,0.0,401.0,952.0,1.0,0,1647.0,0
563,563,0.3383866786100743,0.3,1.0,1.0,417.0,929.0,1.0,1,-836.0,1
564,564,0.17104305618010762,0.2,0.0,0.0,314.0,868.0,1.0,0,108.0,0
565,565,0.4115573295873768,0.4,0.0,0.0,452.0,595.0,1.0,0,-817.0,0
566,566,0.37933990584501853,0.4,1.0,1.0,497.0,833.0,0.0,0,1670.0,0
567,567,-0.6957668086270586,-0.7,1.0,0.0,385.0,544.0,0.0,0,301.0,1
568,568,-0.019558358234303408,-0.0,0.0,1.0,499.0,712.0,1.0,0,-861.0,1
569,569,-0.6256417878445659,-0.6,1.0,0.0,395.0,643.0,0.0,0,272.0,1
570,570,-0.7748497958826772,-0.8,1.0,0.0,341.0,667.0,0.0,0,422.0,1
571,571,-0.8312866763711209,-0.8,1.0,0.0,396.0,602.0,0.0,0,482.0,1
572,572,-0.4334955427087969,-0.4,0.0,1.0,354.0,989.0,1.0,0,1547.0,1
573,573,-0.2362741152747171,-0.2,0.0,1.0,379.0,918.0,1.0,0,383.0,1
574,574,-0.1945429492163926,-0.2,1.0,0.0,497.0,666.0,0.0,0,1837.0,1
575,575,0.4075651927453615,0.4,1.0,1.0,330.0,572.0,1.0,1,2098.0,1
576,576,0.4694528194315738,0.5,0.0,0.0,259.0,576.0,0.0,1,2165.0,1
577,577,0.8166567430823047,0.8,0.0,0.0,309.0,776.0,0.0,1,1915.0,1
578,578,0.8386759504552662,0.8,1.0,1.0,383.0,961.0,1.0,1,1656.0,1
579,579,-0.08686831485451618,-0.1,0.0,1.0,266.0,760.0,0.0,1,1974.0,0
580,580,0.32467955415974814,0.3,1.0,1.0,370.0,920.0,1.0,1,-660.0,1
581,581,0.6909197447593541,0.7,0.0,0.0,313.0,503.0,0.0,1,2184.0,1
582,582,-0.7561241012002615,-0.8,1.0,0.0,459.0,927.0,1.0,1,-1006.0,0
583,583,0.4811134444841908,0.5,0.0,0.0,375.0,700.0,0.0,1,1235.0,1
584,584,0.3402260353216048,0.3,0.0,0.0,482.0,557.0,1.0,0,-339.0,0
585,585,0.649916666897281,0.6,1.0,1.0,378.0,714.0,1.0,1,1908.0,1
586,586,0.6550198129015278,0.7,1.0,1.0,305.0,650.0,1.0,1,1965.0,1
587,587,-0.32812187850457764,-0.3,0.0,1.0,438.0,905.0,1.0,0,1657.0,1
588,588,0.605412933248998,0.6,1.0,1.0,319.0,580.0,1.0,1,2101.0,1
589,589,0.8020561514197385,0.8,0.0,0.0,259.0,502.0,1.0,0,-221.0,0
590,590,-0.44051649667614545,-0.4,1.0,0.0,479.0,828.0,0.0,0,1693.0,1
591,591,0.02043422491028901,0.0,1.0,1.0,462.0,703.0,1.0,1,-375.0,1
592,592,0.41444933487037094,0.4,0.0,0.0,400.0,891.0,0.0,1,1539.0,1
593,593,0.5980833687359121,0.6,1.0,1.0,277.0,611.0,1.0,1,2112.0,1
594,594,0.09497746178357969,0.1,0.0,0.0,396.0,891.0,1.0,0,1713.0,0
595,595,-0.4742305143338062,-0.5,1.0,0.0,384.0,718.0,0.0,0,828.0,1
596,596,0.44507790201493413,0.4,0.0,0.0,300.0,505.0,1.0,0,1645.0,0
597,597,0.4441485572248923,0.4,1.0,1.0,271.0,882.0,1.0,1,1407.0,1
598,598,-0.2974982828759658,-0.3,1.0,0.0,479.0,516.0,0.0,0,605.0,1
599,599,-0.6549050878443112,-0.7,1.0,0.0,488.0,588.0,1.0,1,-406.0,0
600,600,0.24943648503947757,0.2,1.0,1.0,413.0,870.0,1.0,1,1467.0,1
601,601,0.5925102359889473,0.6,0.0,0.0,331.0,863.0,1.0,0,-604.0,0
602,602,-0.03204596520383274,-0.0,1.0,0.0,495.0,978.0,0.0,0,1527.0,1
603,603,-0.5940616032213788,-0.6,0.0,1.0,390.0,871.0,1.0,0,1739.0,1
604,604,0.5029315447939516,0.5,1.0,1.0,499.0,586.0,1.0,1,1915.0,1
605,605,-0.6340322318957664,-0.6,1.0,0.0,445.0,685.0,0.0,0,470.0,1
606,606,-0.15881773523543385,-0.2,0.0,1.0,403.0,509.0,1.0,0,1188.0,1
607,607,-0.10283062101457041,-0.1,0.0,1.0,395.0,935.0,1.0,0,-640.0,1
608,608,-0.6218169760780281,-0.6,0.0,1.0,471.0,936.0,1.0,0,1593.0,1
609,609,0.8875235179048205,0.9,1.0,1.0,467.0,661.0,0.0,0,1872.0,0
610,610,-0.8811399052286901,-0.9,1.0,0.0,312.0,743.0,0.0,0,175.0,1
611,611,-0.18461687683905614,-0.2,1.0,0.0,441.0,562.0,0.0,0,1997.0,1
612,612,0.49294470990438477,0.5,1.0,1.0,335.0,686.0,1.0,1,1979.0,1
613,613,-0.3110818201727439,-0.3,1.0,0.0,332.0,967.0,1.0,1,1701.0,0
614,614,0.116087032645669,0.1,1.0,1.0,274.0,782.0,1.0,1,-896.0,1
615,615,-0.2431244229624243,-0.2,1.0,0.0,316.0,869.0,0.0,0,1815.0,1
616,616,-0.161105029340614,-0.2,1.0,0.0,377.0,571.0,1.0,1,602.0,0
617,617,-0.1402157086890623,-0.1,1.0,0.0,298.0,623.0,1.0,1,2079.0,0
618,618,0.33608130841026174,0.3,0.0,0.0,265.0,566.0,0.0,1,2169.0,1
619,619,0.5320660991749867,0.5,1.0,1.0,307.0,756.0,1.0,1,1937.0,1
620,620,0.2035336605534529,0.2,1.0,1.0,383.0,732.0,0.0,0,885.0,0
621,621,-0.19831003815222858,-0.2,1.0,0.0,445.0,810.0,1.0,1,1745.0,0
622,622,0.2787048103162907,0.3,0.0,0.0,427.0,716.0,1.0,0,1857.0,0
623,623,0.5901467969443711,0.6,1.0,1.0,496.0,785.0,1.0,1,-1151.0,1
624,624,-0.10359687152046204,-0.1,1.0,0.0,424.0,572.0,1.0,1,2004.0,0
625,625,-0.8978717004447593,-0.9,0.0,1.0,357.0,999.0,1.0,0,1644.0,1
626,626,0.2507079706089138,0.3,0.0,0.0,460.0,692.0,1.0,0,1848.0,0
627,627,-0.8046080511140934,-0.8,1.0,0.0,259.0,971.0,0.0,0,890.0,1
628,628,-0.8130628916403757,-0.8,1.0,0.0,351.0,935.0,0.0,0,224.0,1
629,629,0.4101907995141595,0.4,0.0,0.0,281.0,683.0,0.0,1,2036.0,1
630,630,0.5157761130726192,0.5,0.0,0.0,476.0,875.0,0.0,1,1649.0,1
631,631,0.29280966626482063,0.3,1.0,1.0,499.0,608.0,0.0,0,1893.0,0
632,632,-0.6887648322580302,-0.7,0.0,1.0,362.0,567.0,0.0,1,2071.0,0
633,633,-0.5989095470387715,-0.6,0.0,1.0,463.0,760.0,1.0,0,-453.0,1
634,634,0.6395245127642876,0.6,1.0,1.0,439.0,531.0,1.0,1,2030.0,1
635,635,0.344382512197018,0.3,1.0,1.0,418.0,813.0,1.0,1,1769.0,1
636,636,-0.6797229356726131,-0.7,1.0,0.0,306.0,678.0,0.0,0,1346.0,1
637,637,0.1215471682498327,0.1,1.0,1.0,344.0,994.0,1.0,1,1662.0,1
638,638,0.32648522936617164,0.3,1.0,1.0,336.0,854.0,0.0,0,1810.0,0
639,639,-0.6002950982129045,-0.6,1.0,0.0,287.0,893.0,0.0,0,480.0,1
640,640,-0.3805946497949152,-0.4,0.0,1.0,353.0,699.0,0.0,1,1948.0,0
641,641,0.5004482441114252,0.5,1.0,1.0,280.0,977.0,1.0,1,1743.0,1
642,642,0.44409310621092957,0.4,1.0,1.0,254.0,637.0,1.0,1,2109.0,1
643,643,0.7705789276942067,0.8,1.0,1.0,362.0,631.0,1.0,1,2007.0,1
644,644,0.698048665657545,0.7,0.0,0.0,389.0,876.0,1.0,0,1735.0,0
645,645,0.7670990599522042,0.8,1.0,1.0,397.0,578.0,1.0,1,365.0,1
646,646,-0.8879866786729704,-0.9,0.0,1.0,271.0,561.0,0.0,1,2168.0,0
647,647,0.10741360271454925,0.1,1.0,1.0,412.0,532.0,1.0,1,-274.0,1
648,648,0.41033850980085906,0.4,1.0,1.0,371.0,948.0,1.0,1,1221.0,1
649,649,0.6463497651325668,0.6,1.0,1.0,250.0,685.0,1.0,1,2065.0,1
650,650,-0.4048087208386067,-0.4,0.0,1.0,455.0,866.0,1.0,0,1679.0,1
651,651,-0.8649020757005261,-0.9,0.0,1.0,287.0,726.0,0.0,1,1987.0,0
652,652,0.4072494232648066,0.4,1.0,1.0,388.0,604.0,1.0,1,2008.0,1
653,653,0.61652323500019,0.6,1.0,1.0,416.0,801.0,1.0,1,1783.0,1
654,654,-0.11864040549741606,-0.1,0.0,1.0,455.0,984.0,1.0,0,1561.0,1
655,655,-0.37012084027757475,-0.4,0.0,1.0,252.0,601.0,1.0,0,207.0,1
656,656,-0.5105519277735091,-0.5,1.0,0.0,456.0,821.0,0.0,0,1303.0,1
657,657,-0.0483468332101219,-0.0,1.0,0.0,431.0,858.0,1.0,1,1611.0,0
658,658,0.3895089087227407,0.4,0.0,0.0,415.0,802.0,1.0,0,1783.0,0
659,659,0.1269685141452851,0.1,0.0,0.0,316.0,946.0,0.0,1,1738.0,1
660,660,0.3504780391066443,0.4,0.0,0.0,327.0,549.0,0.0,1,2124.0,1
661,661,0.06957278895627728,0.1,0.0,0.0,402.0,576.0,1.0,0,752.0,0
662,662,-0.7669925527707965,-0.8,1.0,0.0,321.0,827.0,0.0,0,342.0,1
663,663,0.6939147593576184,0.7,0.0,0.0,467.0,775.0,1.0,0,1758.0,0
664,664,0.31295486386864513,0.3,1.0,1.0,263.0,664.0,0.0,0,2073.0,0
665,665,0.5003182963264322,0.5,1.0,1.0,401.0,740.0,1.0,1,1859.0,1
666,666,-0.47311042467353764,-0.5,1.0,0.0,318.0,609.0,1.0,1,-707.0,0
667,667,-0.7428075800026575,-0.7,1.0,0.0,475.0,746.0,0.0,0,759.0,1
668,668,-0.331916638353873,-0.3,0.0,1.0,337.0,882.0,1.0,0,1781.0,1
669,669,-0.1945385938994525,-0.2,0.0,1.0,459.0,644.0,1.0,0,667.0,1
670,670,-0.817338769803023,-0.8,0.0,1.0,334.0,595.0,1.0,0,-729.0,1
671,671,0.20624934104441317,0.2,0.0,0.0,420.0,959.0,1.0,0,1621.0,0
672,672,-0.23116860610424084,-0.2,1.0,0.0,382.0,979.0,0.0,0,1069.0,1
673,673,-0.1833682614598542,-0.2,1.0,0.0,398.0,547.0,0.0,0,2055.0,1
674,674,0.3172686931636616,0.3,1.0,1.0,348.0,904.0,1.0,1,1748.0,1
675,675,0.01327741384142278,0.0,1.0,1.0,262.0,586.0,0.0,0,2052.0,0
676,676,-0.503621882867064,-0.5,0.0,1.0,365.0,723.0,1.0,0,1912.0,1
677,677,-0.5085405106886882,-0.5,1.0,0.0,452.0,871.0,0.0,0,-433.0,1
678,678,-0.5453707979798827,-0.5,1.0,0.0,262.0,595.0,0.0,0,863.0,1
679,679,0.6821492165941186,0.7,0.0,0.0,467.0,502.0,0.0,1,2031.0,1
680,680,0.19753462785639841,0.2,0.0,0.0,424.0,674.0,0.0,1,-18.0,1
681,681,-0.25480143975869307,-0.3,0.0,1.0,476.0,833.0,1.0,0,1691.0,1
682,682,-0.7537502085553857,-0.8,1.0,0.0,480.0,522.0,0.0,0,338.0,1
683,683,-0.5975759742802474,-0.6,0.0,1.0,294.0,997.0,1.0,0,1709.0,1
684,684,0.19266449888086712,0.2,0.0,0.0,303.0,790.0,0.0,1,1907.0,1
685,685,0.8851669591471832,0.9,1.0,1.0,282.0,658.0,0.0,0,2060.0,0
686,686,0.4662726017254698,0.5,0.0,0.0,412.0,898.0,0.0,1,1690.0,1
687,687,0.5527794444074453,0.6,1.0,1.0,308.0,899.0,1.0,1,-547.0,1
688,688,0.8703927287760717,0.9,0.0,0.0,280.0,828.0,0.0,1,1892.0,1
689,689,0.11383831043146408,0.1,1.0,1.0,300.0,820.0,0.0,0,1880.0,0
690,690,-0.16330459875833137,-0.2,1.0,0.0,441.0,919.0,0.0,0,1640.0,1
691,691,-0.24143738272311832,-0.2,1.0,0.0,498.0,635.0,0.0,0,1867.0,1
692,692,-0.23368888208137473,-0.2,1.0,0.0,345.0,690.0,1.0,1,1965.0,0
693,693,-0.24241783246180149,-0.2,0.0,1.0,426.0,777.0,1.0,0,1797.0,1
694,694,0.23618032993675542,0.2,1.0,1.0,393.0,769.0,0.0,0,1838.0,0
695,695,0.7978586067842018,0.8,0.0,0.0,489.0,835.0,0.0,1,1266.0,1
696,696,0.8280036536302787,0.8,0.0,0.0,355.0,713.0,0.0,1,1262.0,1
697,697,-0.08170243432459579,-0.1,0.0,1.0,405.0,766.0,1.0,0,1829.0,1
698,698,0.5251274742356343,0.5,0.0,0.0,275.0,759.0,0.0,1,1966.0,1
699,699,0.4665194911236038,0.5,1.0,1.0,323.0,800.0,1.0,1,1877.0,1
700,700,-0.46668252182576797,-0.5,0.0,1.0,468.0,781.0,1.0,0,631.0,1
701,701,-0.4872370181004289,-0.5,0.0,1.0,309.0,530.0,1.0,0,2161.0,1
702,702,0.45750648389959603,0.5,1.0,1.0,343.0,928.0,1.0,1,1729.0,1
703,703,-0.5482191844777187,-0.5,1.0,0.0,255.0,583.0,0.0,0,1562.0,1
704,704,-0.5905795833792127,-0.6,1.0,0.0,430.0,847.0,0.0,0,1343.0,1
705,705,-0.6645152383449234,-0.7,1.0,0.0,274.0,668.0,0.0,0,78.0,1
706,706,0.17284812838413555,0.2,0.0,0.0,397.0,621.0,0.0,1,1982.0,1
707,707,-0.0936598573223032,-0.1,0.0,1.0,264.0,616.0,0.0,1,2120.0,0
708,708,0.7036667035726959,0.7,0.0,0.0,285.0,733.0,0.0,1,1122.0,1
709,709,-0.22667707686496075,-0.2,1.0,0.0,303.0,950.0,1.0,1,67.0,0
710,710,-0.6844649516497439,-0.7,1.0,0.0,460.0,862.0,0.0,0,1418.0,1
711,711,-0.4179899104261568,-0.4,0.0,1.0,299.0,898.0,1.0,0,1023.0,1
712,712,0.2530289976240997,0.3,0.0,0.0,489.0,875.0,1.0,0,1636.0,0
713,713,0.2746264298954787,0.3,0.0,0.0,403.0,529.0,1.0,0,2068.0,0
714,714,-0.04502196754255683,-0.0,0.0,1.0,418.0,749.0,1.0,0,-397.0,1
715,715,0.18924221031803812,0.2,0.0,0.0,412.0,756.0,0.0,1,1832.0,1
716,716,0.7673754154866693,0.8,0.0,0.0,425.0,693.0,0.0,1,1882.0,1
717,717,0.7920042701176463,0.8,0.0,0.0,272.0,941.0,0.0,1,1787.0,1
718,718,0.7702724998935692,0.8,0.0,0.0,346.0,653.0,0.0,1,1331.0,1
719,719,0.7437273465543394,0.7,0.0,0.0,483.0,856.0,0.0,1,1661.0,1
720,720,-0.4885746756722049,-0.5,1.0,0.0,479.0,714.0,0.0,0,1807.0,1
721,721,0.7023213930126212,0.7,0.0,0.0,452.0,951.0,0.0,1,1457.0,1
722,722,-0.4494600098852045,-0.4,0.0,1.0,270.0,849.0,1.0,0,-1039.0,1
723,723,-0.36604166175445396,-0.4,1.0,0.0,443.0,916.0,0.0,0,1181.0,1
724,724,-0.8325025885636373,-0.8,1.0,0.0,457.0,636.0,0.0,0,717.0,1
725,725,-0.8889864146395169,-0.9,1.0,0.0,371.0,789.0,0.0,0,1300.0,1
726,726,0.5488966176400022,0.5,0.0,0.0,422.0,870.0,0.0,1,1558.0,1
727,727,0.3629837303346398,0.4,1.0,1.0,481.0,651.0,0.0,0,1868.0,0
728,728,-0.28864273921612515,-0.3,0.0,1.0,268.0,976.0,1.0,0,1756.0,1
729,729,-0.2557682846807665,-0.3,0.0,1.0,261.0,707.0,1.0,0,1002.0,1
730,730,-0.5054277994014174,-0.5,0.0,1.0,383.0,955.0,1.0,0,882.0,1
731,731,-0.3706519538763051,-0.4,1.0,0.0,432.0,521.0,0.0,0,1587.0,1
732,732,-0.09128121852406956,-0.1,0.0,1.0,368.0,964.0,1.0,0,1668.0,1
733,733,-0.8604346183516595,-0.9,1.0,0.0,278.0,853.0,1.0,1,-491.0,0
734,734,-0.30080822051813194,-0.3,0.0,1.0,390.0,913.0,1.0,0,937.0,1
735,735,0.3032347616889334,0.3,1.0,1.0,333.0,623.0,1.0,1,2044.0,1
736,736,0.5250661769053174,0.5,0.0,0.0,444.0,750.0,0.0,1,1806.0,1
737,737,-0.17522088273638003,-0.2,0.0,1.0,436.0,722.0,1.0,0,1232.0,1
738,738,-0.5841216773994375,-0.6,0.0,1.0,324.0,662.0,0.0,1,2014.0,0
739,739,-0.0765430260153096,-0.1,1.0,0.0,358.0,634.0,0.0,0,2008.0,1
740,740,-0.028142088910755314,-0.0,1.0,0.0,473.0,870.0,1.0,1,1657.0,0
741,741,-0.45993083463246986,-0.5,0.0,1.0,297.0,721.0,0.0,1,1982.0,0
742,742,-0.6035070122810593,-0.6,1.0,0.0,462.0,932.0,0.0,0,696.0,1
743,743,-0.6997767695426689,-0.7,1.0,0.0,438.0,892.0,0.0,0,560.0,1
744,744,0.2931652427187684,0.3,1.0,1.0,384.0,999.0,1.0,1,1617.0,1
745,745,-0.4989596520211051,-0.5,1.0,0.0,294.0,508.0,0.0,0,1728.0,1
746,746,0.20630108168029426,0.2,1.0,1.0,357.0,603.0,1.0,1,870.0,1
747,747,-0.6088070199975402,-0.6,1.0,0.0,467.0,968.0,0.0,0,75.0,1
748,748,-0.05060336665452991,-0.1,0.0,1.0,318.0,502.0,1.0,0,880.0,1
749,749,-0.21879941588106488,-0.2,1.0,0.0,466.0,678.0,0.0,0,1856.0,1
750,750,-0.257883929667741,-0.3,1.0,0.0,430.0,818.0,0.0,0,1352.0,1
751,751,-0.13373637176432218,-0.1,1.0,0.0,381.0,538.0,1.0,1,521.0,0
752,752,-0.023310427164601966,-0.0,0.0,1.0,277.0,782.0,1.0,0,1941.0,1
753,753,-0.4167772921188389,-0.4,1.0,0.0,492.0,810.0,0.0,0,1338.0,1
754,754,0.7983102843884419,0.8,1.0,1.0,314.0,951.0,1.0,1,1735.0,1
755,755,-0.8400219072610264,-0.8,1.0,0.0,386.0,737.0,0.0,0,327.0,1
756,756,-0.3218353613944235,-0.3,0.0,1.0,467.0,782.0,1.0,0,1561.0,1
757,757,0.7869762938423069,0.8,1.0,1.0,361.0,611.0,1.0,1,2028.0,1
758,758,-0.6966241578319788,-0.7,1.0,0.0,293.0,984.0,0.0,0,1113.0,1
759,759,0.7491465608614064,0.7,0.0,0.0,348.0,998.0,0.0,1,1574.0,1
760,760,0.030908692081782485,0.0,0.0,0.0,357.0,536.0,1.0,0,-353.0,0
761,761,0.7179177565781273,0.7,1.0,1.0,496.0,836.0,1.0,1,1668.0,1
762,762,-0.009531368701397702,-0.0,0.0,1.0,439.0,683.0,1.0,0,1368.0,1
763,763,-0.5053897585907242,-0.5,0.0,1.0,320.0,538.0,1.0,0,2142.0,1
764,764,0.6135687077793511,0.6,1.0,1.0,387.0,827.0,1.0,1,1786.0,1
765,765,0.4293367692160587,0.4,0.0,0.0,283.0,757.0,0.0,1,1960.0,1
766,766,0.016231740110904558,0.0,0.0,0.0,335.0,888.0,0.0,1,1777.0,1
767,767,0.45101552450300175,0.5,0.0,0.0,274.0,861.0,0.0,1,1865.0,1
768,768,-0.7796792682977396,-0.8,1.0,0.0,493.0,665.0,0.0,0,762.0,1
769,769,-0.2715338084064495,-0.3,1.0,0.0,461.0,611.0,0.0,0,948.0,1
770,770,-0.12307627432108015,-0.1,0.0,1.0,477.0,642.0,1.0,0,1881.0,1
771,771,-0.5951637777300127,-0.6,0.0,1.0,447.0,781.0,1.0,0,1012.0,1
772,772,-0.7283706066379186,-0.7,0.0,1.0,477.0,582.0,1.0,0,521.0,1
773,773,-0.7517044365509818,-0.8,0.0,1.0,284.0,733.0,1.0,0,1983.0,1
774,774,-0.010335949215851903,-0.0,0.0,1.0,370.0,781.0,0.0,1,1849.0,0
775,775,-0.019798685351754775,-0.0,0.0,1.0,349.0,951.0,1.0,0,1700.0,1
776,776,-0.41893902337627126,-0.4,1.0,0.0,309.0,569.0,0.0,0,2052.0,1
777,777,0.3534483475006992,0.4,0.0,0.0,376.0,578.0,1.0,0,2046.0,0
778,778,0.3661659053864229,0.4,1.0,1.0,317.0,857.0,1.0,1,-1034.0,1
779,779,0.0811812455882126,0.1,1.0,1.0,335.0,667.0,1.0,1,1998.0,1
780,780,0.23470765108700065,0.2,0.0,0.0,353.0,717.0,1.0,0,-260.0,0
781,781,-0.7364313673595915,-0.7,1.0,0.0,364.0,728.0,0.0,0,1698.0,1
782,782,0.22374996790614887,0.2,0.0,0.0,422.0,672.0,1.0,0,1906.0,0
783,783,0.5873081048833971,0.6,0.0,0.0,253.0,799.0,1.0,0,1948.0,0
784,784,0.20254000450153187,0.2,1.0,1.0,404.0,860.0,1.0,1,1736.0,1
785,785,0.49727753429416166,0.5,0.0,0.0,423.0,561.0,0.0,1,2016.0,1
786,786,0.27372582762806685,0.3,0.0,0.0,434.0,720.0,1.0,0,376.0,0
787,787,-0.7505770559602002,-0.8,1.0,0.0,320.0,831.0,0.0,0,229.0,1
788,788,-0.32780010053848196,-0.3,0.0,1.0,266.0,984.0,1.0,0,780.0,1
789,789,-0.664435167353321,-0.7,0.0,1.0,497.0,959.0,1.0,0,1544.0,1
790,790,0.7849730661413074,0.8,0.0,0.0,271.0,632.0,0.0,1,2097.0,1
791,791,0.04468983167090157,0.0,1.0,1.0,453.0,638.0,1.0,1,1909.0,1
792,792,-0.09803988778008821,-0.1,1.0,0.0,493.0,643.0,0.0,0,1864.0,1
793,793,-0.045393448581280915,-0.0,1.0,0.0,432.0,802.0,1.0,1,1766.0,0
794,794,0.624572646329033,0.6,0.0,0.0,353.0,751.0,0.0,1,1896.0,1
795,795,0.8698074305422495,0.9,1.0,1.0,410.0,711.0,1.0,1,1879.0,1
796,796,0.4598663220434377,0.5,0.0,0.0,319.0,692.0,0.0,1,1989.0,1
797,797,-0.17725298762032582,-0.2,0.0,1.0,419.0,750.0,1.0,0,1831.0,1
798,798,-0.4169938835022296,-0.4,0.0,1.0,276.0,829.0,1.0,0,75.0,1
799,799,-0.23174319298555357,-0.2,0.0,1.0,250.0,872.0,1.0,0,1878.0,1
800,800,0.773885961380499,0.8,1.0,1.0,333.0,580.0,1.0,1,2087.0,1
801,801,-0.6775535155781351,-0.7,0.0,1.0,298.0,632.0,1.0,0,-530.0,1
802,802,0.3715196783541087,0.4,1.0,1.0,310.0,644.0,1.0,1,1196.0,1
803,803,-0.36601424706698305,-0.4,1.0,0.0,355.0,778.0,1.0,1,1867.0,0
804,804,0.10273458383349443,0.1,1.0,1.0,262.0,683.0,1.0,1,1225.0,1
805,805,-0.687479670440784,-0.7,0.0,1.0,389.0,814.0,1.0,0,1187.0,1
806,806,0.2409608519105223,0.2,1.0,1.0,404.0,854.0,0.0,0,1742.0,0
807,807,-0.14733262822136373,-0.1,0.0,1.0,266.0,839.0,1.0,0,1895.0,1
808,808,-0.7738753005898079,-0.8,1.0,0.0,300.0,598.0,0.0,0,722.0,1
809,809,0.038488270601870433,0.0,1.0,1.0,474.0,546.0,0.0,0,1980.0,0
810,810,0.20540644011834763,0.2,0.0,0.0,299.0,574.0,1.0,0,2127.0,0
811,811,0.18660265939419463,0.2,0.0,0.0,291.0,561.0,1.0,0,2148.0,0
812,812,-0.686005174961525,-0.7,0.0,1.0,415.0,736.0,1.0,0,1849.0,1
813,813,-0.16723193857529728,-0.2,1.0,0.0,339.0,597.0,0.0,0,624.0,1
814,814,-0.10412133876814678,-0.1,0.0,1.0,301.0,980.0,0.0,1,1719.0,0
815,815,-0.8363002309367031,-0.8,0.0,1.0,497.0,919.0,1.0,0,334.0,1
816,816,-0.3681027883068998,-0.4,1.0,0.0,387.0,679.0,0.0,0,814.0,1
817,817,0.4943431157229571,0.5,0.0,0.0,331.0,643.0,0.0,1,2026.0,1
818,818,0.2904163330714814,0.3,0.0,0.0,334.0,516.0,1.0,0,-600.0,0
819,819,-0.39928822343914594,-0.4,1.0,0.0,377.0,798.0,0.0,0,235.0,1
820,820,-0.6886377568195072,-0.7,1.0,0.0,484.0,911.0,1.0,1,-1185.0,0
821,821,0.6672501631491591,0.7,0.0,0.0,382.0,642.0,0.0,1,1076.0,1
822,822,-0.7063383441184454,-0.7,1.0,0.0,452.0,846.0,0.0,0,882.0,1
823,823,0.3398816223158151,0.3,0.0,0.0,326.0,805.0,0.0,1,1869.0,1
824,824,0.00548400553899786,0.0,1.0,1.0,272.0,638.0,0.0,0,2090.0,0
825,825,-0.10666195994818861,-0.1,0.0,1.0,412.0,770.0,1.0,0,-672.0,1
826,826,-0.25143942452123047,-0.3,0.0,1.0,418.0,933.0,1.0,0,1649.0,1
827,827,-0.417035114070699,-0.4,0.0,1.0,419.0,995.0,1.0,0,-784.0,1
828,828,0.3917212123038313,0.4,0.0,0.0,448.0,556.0,1.0,0,-614.0,0
829,829,-0.09585769426125157,-0.1,1.0,0.0,424.0,571.0,1.0,1,-895.0,0
830,830,-0.3440759740777152,-0.3,0.0,1.0,433.0,503.0,1.0,0,2064.0,1
831,831,-0.6026121988675377,-0.6,1.0,0.0,456.0,628.0,1.0,1,1916.0,0
832,832,-0.39319391114575497,-0.4,0.0,1.0,345.0,550.0,1.0,0,2105.0,1
833,833,-0.2616846943959811,-0.3,1.0,0.0,397.0,799.0,0.0,0,1254.0,1
834,834,-0.24178350015957684,-0.2,0.0,1.0,260.0,649.0,1.0,0,2091.0,1
835,835,0.4200956838343347,0.4,0.0,0.0,352.0,963.0,0.0,1,415.0,1
836,836,0.8160716469645247,0.8,1.0,1.0,473.0,766.0,1.0,1,-1139.0,1
837,837,0.6512616426922261,0.7,1.0,1.0,319.0,663.0,1.0,1,-312.0,1
838,838,0.8938219146473297,0.9,0.0,0.0,301.0,974.0,1.0,0,1725.0,0
839,839,-0.4351347011051914,-0.4,1.0,0.0,388.0,803.0,1.0,1,-501.0,0
840,840,-0.7926551736877976,-0.8,1.0,0.0,318.0,590.0,1.0,1,162.0,0
841,841,-0.5251908097903555,-0.5,0.0,1.0,470.0,765.0,1.0,0,-425.0,1
842,842,0.7948729125739197,0.8,0.0,0.0,492.0,858.0,0.0,1,960.0,1
843,843,-0.8015330695410166,-0.8,0.0,1.0,487.0,979.0,1.0,0,1534.0,1
844,844,-0.3771899302835674,-0.4,1.0,0.0,458.0,783.0,1.0,1,1759.0,0
845,845,-0.5228632406597726,-0.5,1.0,0.0,322.0,806.0,0.0,0,352.0,1
846,846,-0.24566483676550432,-0.2,1.0,0.0,339.0,529.0,1.0,1,2132.0,0
847,847,-0.388849647964126,-0.4,0.0,1.0,354.0,507.0,0.0,1,2139.0,0
848,848,0.4788887227111466,0.5,0.0,0.0,275.0,669.0,0.0,1,2056.0,1
849,849,-0.4920891654304837,-0.5,1.0,0.0,408.0,817.0,1.0,1,-1155.0,0
850,850,0.030494850119000882,0.0,0.0,0.0,411.0,823.0,0.0,1,1766.0,1
851,851,-0.586997773256948,-0.6,1.0,0.0,287.0,826.0,0.0,0,1067.0,1
852,852,-0.45551845815798336,-0.5,0.0,1.0,414.0,959.0,1.0,0,1627.0,1
853,853,-0.470970459268944,-0.5,0.0,1.0,316.0,511.0,0.0,1,2173.0,0
854,854,0.8576491105271665,0.9,1.0,1.0,438.0,783.0,1.0,1,1779.0,1
855,855,-0.05428026653243323,-0.1,1.0,0.0,366.0,968.0,0.0,0,1666.0,1
856,856,-0.6904202571539461,-0.7,0.0,1.0,361.0,561.0,1.0,0,2078.0,1
857,857,0.7041020771225347,0.7,1.0,1.0,454.0,601.0,1.0,1,1145.0,1
858,858,-0.8878398966942218,-0.9,0.0,1.0,304.0,826.0,1.0,0,520.0,1
859,859,0.45104316480885853,0.5,0.0,0.0,446.0,976.0,0.0,1,1048.0,1
860,860,0.2021601342860696,0.2,1.0,1.0,272.0,695.0,1.0,1,503.0,1
861,861,0.11496627336857623,0.1,0.0,0.0,253.0,736.0,1.0,0,1661.0,0
862,862,0.6838922338002901,0.7,1.0,1.0,340.0,624.0,1.0,1,2036.0,1
863,863,0.607022103005923,0.6,1.0,1.0,308.0,509.0,1.0,1,2183.0,1
864,864,-0.2376735174615977,-0.2,1.0,0.0,259.0,694.0,0.0,0,2047.0,1
865,865,0.4410567723366873,0.4,1.0,1.0,309.0,772.0,1.0,1,1919.0,1
866,866,-0.07743907916382342,-0.1,1.0,0.0,455.0,626.0,0.0,0,199.0,1
867,867,0.18461094164678948,0.2,1.0,1.0,341.0,669.0,0.0,0,1990.0,0
868,868,-0.025193830686038088,-0.0,0.0,1.0,415.0,542.0,1.0,0,-357.0,1
869,869,-0.04274478134041426,-0.0,0.0,1.0,325.0,951.0,1.0,0,1724.0,1
870,870,-0.7526401466078455,-0.8,0.0,1.0,371.0,948.0,0.0,1,1681.0,0
871,871,0.33695091111519104,0.3,1.0,1.0,334.0,730.0,1.0,1,856.0,1
872,872,-0.8498476353962374,-0.8,1.0,0.0,405.0,771.0,0.0,0,824.0,1
873,873,-0.34220867514773734,-0.3,1.0,0.0,365.0,760.0,0.0,0,1875.0,1
874,874,0.19151000115795036,0.2,0.0,0.0,313.0,585.0,0.0,1,2102.0,1
875,875,0.27667565475263445,0.3,0.0,0.0,497.0,699.0,1.0,0,1804.0,0
876,876,0.5501960007459382,0.6,1.0,1.0,412.0,875.0,1.0,1,-747.0,1
877,877,0.8925589348713928,0.9,1.0,1.0,424.0,806.0,1.0,1,1770.0,1
878,878,0.1620502074265614,0.2,0.0,0.0,432.0,954.0,0.0,1,1614.0,1
879,879,0.06897660939638817,0.1,1.0,1.0,259.0,855.0,1.0,1,1886.0,1
880,880,-0.6741526732558375,-0.7,0.0,1.0,262.0,575.0,0.0,1,2163.0,0
881,881,-0.7339036269608369,-0.7,0.0,1.0,347.0,609.0,1.0,0,2044.0,1
882,882,0.18268106439409892,0.2,0.0,0.0,419.0,905.0,0.0,1,1676.0,1
883,883,0.2295506327244935,0.2,0.0,0.0,313.0,999.0,0.0,1,1688.0,1
884,884,0.5627373492538953,0.6,0.0,0.0,284.0,947.0,0.0,1,1769.0,1
885,885,-0.8497928253318561,-0.8,0.0,1.0,331.0,912.0,1.0,0,1757.0,1
886,886,0.15102095789547765,0.2,1.0,1.0,315.0,563.0,1.0,1,2122.0,1
887,887,-0.05447215953799278,-0.1,1.0,0.0,402.0,561.0,1.0,1,467.0,0
888,888,0.5590825154104985,0.6,0.0,0.0,302.0,558.0,0.0,1,2140.0,1
889,889,-0.16572582552793758,-0.2,1.0,0.0,382.0,585.0,0.0,0,633.0,1
890,890,0.1702195993275778,0.2,1.0,1.0,342.0,716.0,1.0,1,-498.0,1
891,891,-0.5166048863603403,-0.5,1.0,0.0,471.0,611.0,0.0,0,308.0,1
892,892,-0.7310188413119546,-0.7,0.0,1.0,305.0,959.0,1.0,0,96.0,1
893,893,0.29098612436972726,0.3,1.0,1.0,468.0,620.0,0.0,0,1912.0,0
894,894,-0.4003021203340521,-0.4,1.0,0.0,479.0,615.0,0.0,0,526.0,1
895,895,0.39611164850834146,0.4,0.0,0.0,295.0,516.0,1.0,0,109.0,0
896,896,0.7374270386444343,0.7,1.0,1.0,402.0,562.0,1.0,1,2036.0,1
897,897,-0.5668922966624719,-0.6,1.0,0.0,472.0,904.0,0.0,0,704.0,1
898,898,0.052067928890915716,0.1,1.0,1.0,323.0,584.0,0.0,0,2093.0,0
899,899,0.7763257051653151,0.8,0.0,0.0,260.0,587.0,0.0,1,283.0,1
900,900,0.7224156874761148,0.7,1.0,1.0,461.0,633.0,1.0,1,1346.0,1
901,901,0.6068889332196762,0.6,0.0,0.0,482.0,926.0,0.0,1,1592.0,1
902,902,-0.2492831580336472,-0.2,1.0,0.0,348.0,936.0,0.0,0,716.0,1
903,903,0.4256738020497136,0.4,1.0,1.0,328.0,586.0,1.0,1,1346.0,1
904,904,-0.4389300692092264,-0.4,1.0,0.0,252.0,834.0,1.0,1,1914.0,0
905,905,-0.24917124879487396,-0.2,0.0,1.0,266.0,605.0,1.0,0,2129.0,1
906,906,0.5965494571551576,0.6,0.0,0.0,286.0,726.0,0.0,1,1988.0,1
907,907,0.5244019569167949,0.5,0.0,0.0,298.0,731.0,0.0,1,1201.0,1
908,908,-0.5956137680994695,-0.6,1.0,0.0,468.0,722.0,1.0,1,-30.0,0
909,909,0.6675618348825422,0.7,0.0,0.0,471.0,764.0,0.0,1,1765.0,1
910,910,-0.10980673807744412,-0.1,0.0,1.0,396.0,647.0,1.0,0,-1023.0,1
911,911,-0.06811880429322459,-0.1,0.0,1.0,437.0,513.0,1.0,0,2050.0,1
912,912,0.4590637465460595,0.5,1.0,1.0,261.0,779.0,1.0,1,90.0,1
913,913,-0.46419306986611136,-0.5,0.0,1.0,430.0,845.0,1.0,0,1035.0,1
914,914,-0.30717231797580846,-0.3,0.0,1.0,385.0,952.0,1.0,0,-237.0,1
915,915,-0.8641764905632902,-0.9,1.0,0.0,302.0,617.0,1.0,1,-709.0,0
916,916,-0.3256936720449769,-0.3,1.0,0.0,420.0,933.0,0.0,0,397.0,1
917,917,-0.7311783324222355,-0.7,1.0,0.0,405.0,727.0,1.0,1,-622.0,0
918,918,-0.6037852026971071,-0.6,1.0,0.0,483.0,746.0,0.0,0,501.0,1
919,919,0.787967236835936,0.8,0.0,0.0,378.0,972.0,0.0,1,1650.0,1
920,920,-0.23203225785193893,-0.2,0.0,1.0,455.0,521.0,1.0,0,2024.0,1
921,921,0.15904952915979653,0.2,1.0,1.0,251.0,846.0,0.0,0,1903.0,0
922,922,0.2926396820225504,0.3,0.0,0.0,270.0,785.0,0.0,1,1945.0,1
923,923,0.7161782085602039,0.7,1.0,1.0,321.0,953.0,1.0,1,1726.0,1
924,924,0.41979664953801776,0.4,1.0,1.0,394.0,858.0,1.0,1,-692.0,1
925,925,-0.2650864574645475,-0.3,1.0,0.0,390.0,833.0,0.0,0,277.0,1
926,926,-0.29436399317586337,-0.3,0.0,1.0,416.0,823.0,1.0,0,1761.0,1
927,927,0.013429323912463653,0.0,0.0,0.0,258.0,667.0,1.0,0,2075.0,0
928,928,-0.6728097400971208,-0.7,0.0,1.0,251.0,973.0,1.0,0,1776.0,1
929,929,-0.7311592783454909,-0.7,1.0,0.0,491.0,841.0,0.0,0,1168.0,1
930,930,0.7690247051119207,0.8,0.0,0.0,333.0,813.0,0.0,1,1494.0,1
931,931,-0.8455841009344333,-0.8,0.0,1.0,370.0,789.0,1.0,0,351.0,1
932,932,-0.18348863056332576,-0.2,0.0,1.0,402.0,702.0,1.0,0,1896.0,1
933,933,0.763596813337159,0.8,1.0,1.0,498.0,717.0,1.0,1,1385.0,1
934,934,-0.5017674593518617,-0.5,1.0,0.0,483.0,774.0,0.0,0,1053.0,1
935,935,-0.47310719931255635,-0.5,0.0,1.0,297.0,893.0,1.0,0,1810.0,1
936,936,0.4550662538469191,0.5,0.0,0.0,488.0,625.0,1.0,0,-863.0,0
937,937,-0.08112709936126128,-0.1,0.0,1.0,301.0,791.0,1.0,0,1908.0,1
938,938,-0.17913631300083277,-0.2,0.0,1.0,473.0,762.0,1.0,0,1765.0,1
939,939,0.7018003635435602,0.7,1.0,1.0,363.0,766.0,1.0,1,1871.0,1
940,940,-0.876001758370896,-0.9,1.0,0.0,298.0,558.0,0.0,0,424.0,1
941,941,-0.28491090839245903,-0.3,1.0,0.0,330.0,854.0,0.0,0,396.0,1
942,942,-0.3090603171228963,-0.3,0.0,1.0,472.0,821.0,1.0,0,-273.0,1
943,943,-0.7754722916646913,-0.8,1.0,0.0,270.0,870.0,0.0,0,760.0,1
944,944,0.8647523408413508,0.9,1.0,1.0,422.0,846.0,1.0,1,372.0,1
945,945,-0.43858502242685615,-0.4,1.0,0.0,402.0,883.0,0.0,0,1715.0,1
946,946,0.3198786781332238,0.3,0.0,0.0,375.0,858.0,0.0,1,1767.0,1
947,947,0.6815093724249991,0.7,1.0,1.0,446.0,885.0,1.0,1,1669.0,1
948,948,0.10024279772808964,0.1,0.0,0.0,399.0,915.0,1.0,0,-504.0,0
949,949,0.7843804943767937,0.8,1.0,1.0,251.0,811.0,1.0,1,1938.0,1
950,950,-0.09921740342970298,-0.1,1.0,0.0,361.0,789.0,0.0,0,1850.0,1
951,951,-0.12485893470230203,-0.1,0.0,1.0,418.0,691.0,0.0,1,1891.0,0
952,952,0.4321477730399136,0.4,0.0,0.0,438.0,587.0,0.0,1,1975.0,1
953,953,-0.5692609637412145,-0.6,0.0,1.0,325.0,608.0,1.0,0,2067.0,1
954,954,-0.3035487469230508,-0.3,0.0,1.0,458.0,998.0,1.0,0,-526.0,1
955,955,0.43457351068242145,0.4,0.0,0.0,499.0,604.0,0.0,1,1897.0,1
956,956,-0.31816676518743403,-0.3,0.0,1.0,450.0,821.0,1.0,0,1729.0,1
957,957,-0.3419502280913528,-0.3,0.0,1.0,486.0,549.0,0.0,1,1965.0,0
958,958,0.4168049703414237,0.4,0.0,0.0,333.0,529.0,0.0,1,2138.0,1
959,959,0.7196024936027118,0.7,0.0,0.0,339.0,584.0,0.0,1,2077.0,1
960,960,0.08107006074042922,0.1,0.0,0.0,354.0,505.0,1.0,0,2141.0,0
961,961,0.6359860846343125,0.6,0.0,0.0,430.0,916.0,1.0,0,-896.0,0
962,962,-0.42290161835147816,-0.4,0.0,1.0,492.0,987.0,1.0,0,131.0,1
963,963,-0.34534459870607037,-0.3,0.0,1.0,298.0,539.0,1.0,0,-677.0,1
964,964,0.4735230330154875,0.5,1.0,1.0,435.0,666.0,1.0,1,1899.0,1
965,965,-0.18864791598435704,-0.2,0.0,1.0,268.0,612.0,1.0,0,2120.0,1
966,966,-0.25482282070810025,-0.3,0.0,1.0,293.0,795.0,0.0,1,1912.0,0
967,967,-0.17739042182162112,-0.2,1.0,0.0,415.0,960.0,0.0,0,1625.0,1
968,968,0.7016676137508763,0.7,0.0,0.0,290.0,749.0,0.0,1,731.0,1
969,969,-0.870692608466368,-0.9,0.0,1.0,360.0,641.0,1.0,0,1999.0,1
970,970,-0.0073161081835354524,-0.0,1.0,0.0,279.0,822.0,1.0,1,1899.0,0
971,971,-0.3076860532735627,-0.3,1.0,0.0,296.0,954.0,0.0,0,1090.0,1
972,972,-0.8187953019542836,-0.8,1.0,0.0,465.0,551.0,0.0,0,324.0,1
973,973,-0.2502507738125358,-0.3,1.0,0.0,452.0,783.0,0.0,0,1765.0,1
974,974,-0.07599095669837674,-0.1,0.0,1.0,318.0,518.0,1.0,0,2164.0,1
975,975,-0.2432321244420116,-0.2,1.0,0.0,407.0,578.0,0.0,0,435.0,1
976,976,0.612260096208406,0.6,0.0,0.0,274.0,887.0,0.0,1,1169.0,1
977,977,-0.8481750064333483,-0.8,0.0,1.0,421.0,643.0,1.0,0,1936.0,1
978,978,-0.6037263453622109,-0.6,1.0,0.0,458.0,946.0,0.0,0,306.0,1
979,979,0.6525591417160604,0.7,1.0,1.0,359.0,768.0,1.0,1,1873.0,1
980,980,-0.007785934882577394,-0.0,1.0,0.0,463.0,531.0,1.0,1,2006.0,0
981,981,-0.2549564619099145,-0.3,1.0,0.0,413.0,611.0,0.0,0,1976.0,1
982,982,0.3123046580013483,0.3,1.0,1.0,365.0,909.0,1.0,1,1726.0,1
983,983,0.6641326335150325,0.7,1.0,1.0,391.0,762.0,1.0,1,1847.0,1
984,984,-0.1896889026404367,-0.2,1.0,0.0,496.0,801.0,1.0,1,1703.0,0
985,985,-0.8691055478672235,-0.9,0.0,1.0,347.0,524.0,0.0,1,2129.0,0
986,986,0.7308508638538841,0.7,0.0,0.0,465.0,998.0,0.0,1,1437.0,1
987,987,-0.48806751787508124,-0.5,1.0,0.0,393.0,619.0,0.0,0,1148.0,1
988,988,0.11061449516988076,0.1,0.0,0.0,414.0,649.0,0.0,1,1937.0,1
989,989,-0.8037634798922539,-0.8,1.0,0.0,442.0,535.0,0.0,0,343.0,1
990,990,-0.29521467018124303,-0.3,0.0,1.0,346.0,738.0,1.0,0,1916.0,1
991,991,-0.3144012487701362,-0.3,0.0,1.0,451.0,705.0,1.0,0,-586.0,1
992,992,0.4500681760615931,0.5,1.0,1.0,440.0,951.0,1.0,1,1609.0,1
993,993,-0.3817236108433396,-0.4,1.0,0.0,379.0,670.0,0.0,0,1631.0,1
994,994,-0.3619786483461934,-0.4,0.0,1.0,436.0,846.0,1.0,0,1718.0,1
995,995,0.6132898819895535,0.6,1.0,1.0,475.0,587.0,1.0,1,1938.0,1
996,996,-0.2458765748821633,-0.2,0.0,1.0,468.0,908.0,1.0,0,1624.0,1
997,997,-0.5405535518747862,-0.5,0.0,1.0,467.0,639.0,1.0,0,1894.0,1
998,998,-0.7160390148700405,-0.7,1.0,0.0,334.0,820.0,0.0,0,946.0,1
999,999,0.41034859953273395,0.4,0.0,0.0,458.0,814.0,0.0,1,1728.0,1
1000,1000,0.18107910873761546,0.2,1.0,1.0,461.0,529.0,1.0,1,-510.0,1
1001,1001,-0.20373617669351085,-0.2,1.0,0.0,372.0,604.0,0.0,0,1114.0,1
1002,1002,0.45877672163182714,0.5,1.0,1.0,447.0,505.0,0.0,0,2048.0,0
1003,1003,0.6381379903411081,0.6,1.0,1.0,453.0,856.0,1.0,1,1691.0,1
1004,1004,-0.31312070046517804,-0.3,1.0,0.0,395.0,618.0,0.0,0,667.0,1
1005,1005,0.44154226147011955,0.4,0.0,0.0,454.0,593.0,0.0,1,1953.0,1
1006,1006,0.873242145063644,0.9,1.0,1.0,331.0,812.0,1.0,1,1857.0,1
1007,1007,-0.2916179924054356,-0.3,1.0,0.0,376.0,607.0,1.0,1,2017.0,0
1008,1008,-0.5672595707814025,-0.6,0.0,1.0,345.0,880.0,1.0,0,1015.0,1
1009,1009,0.026779327455330848,0.0,1.0,1.0,454.0,531.0,0.0,0,1635.0,0
1010,1010,-0.03466842674313331,-0.0,1.0,0.0,254.0,857.0,1.0,1,1889.0,0
1011,1011,-0.28296017493439274,-0.3,0.0,1.0,293.0,886.0,1.0,0,1101.0,1
1012,1012,0.5763889926569815,0.6,1.0,1.0,498.0,862.0,1.0,1,1640.0,1
1013,1013,-0.26117635675995055,-0.3,1.0,0.0,415.0,562.0,0.0,0,653.0,1
1014,1014,0.8733602113231541,0.9,1.0,1.0,453.0,521.0,1.0,1,2026.0,1
1015,1015,0.010730419711869832,0.0,1.0,1.0,366.0,975.0,1.0,1,-1271.0,1
1016,1016,-0.3182463165158729,-0.3,0.0,1.0,342.0,797.0,1.0,0,1861.0,1
1017,1017,0.7926419783569637,0.8,1.0,1.0,263.0,707.0,1.0,1,2030.0,1
1018,1018,0.059242516424307334,0.1,1.0,1.0,395.0,591.0,0.0,0,1024.0,0
1019,1019,0.8711731491150859,0.9,1.0,1.0,349.0,660.0,0.0,0,1991.0,0
1020,1020,-0.5570660728294027,-0.6,1.0,0.0,330.0,681.0,1.0,1,-521.0,0
1021,1021,-0.17473199653249494,-0.2,1.0,0.0,353.0,849.0,1.0,1,1798.0,0
1022,1022,0.6638233299769544,0.7,0.0,0.0,251.0,920.0,0.0,1,1209.0,1
1023,1023,-0.2576676954626095,-0.3,0.0,1.0,364.0,603.0,1.0,0,-427.0,1
1024,1024,-0.7413263361140119,-0.7,0.0,1.0,388.0,802.0,0.0,1,1810.0,0
1025,1025,0.5170804443500011,0.5,1.0,1.0,344.0,852.0,0.0,0,1804.0,0
1026,1026,-0.007215402273439309,-0.0,1.0,0.0,327.0,566.0,1.0,1,2107.0,0
1027,1027,0.022091662218830854,0.0,0.0,0.0,387.0,933.0,1.0,0,1680.0,0
1028,1028,-0.5485726575604084,-0.5,0.0,1.0,381.0,964.0,1.0,0,1655.0,1
1029,1029,0.4954221490803009,0.5,1.0,1.0,446.0,920.0,1.0,1,1634.0,1
1030,1030,-0.16068418760324243,-0.2,0.0,1.0,302.0,608.0,1.0,0,2090.0,1
1031,1031,0.7763980786426491,0.8,1.0,1.0,287.0,969.0,1.0,1,1744.0,1
1032,1032,-0.27391172536860664,-0.3,0.0,1.0,364.0,505.0,0.0,1,2131.0,0
1033,1033,0.4786378023394763,0.5,0.0,0.0,261.0,607.0,1.0,0,2132.0,0
1034,1034,0.6020313400902569,0.6,1.0,1.0,312.0,810.0,1.0,1,1878.0,1
1035,1035,0.12704886494307155,0.1,0.0,0.0,366.0,500.0,1.0,0,2134.0,0
1036,1036,-0.6792442932956,-0.7,0.0,1.0,415.0,607.0,1.0,0,1978.0,1
1037,1037,0.18020424484041808,0.2,1.0,1.0,456.0,897.0,1.0,1,1647.0,1
1038,1038,0.6840203736279912,0.7,0.0,0.0,497.0,628.0,1.0,0,1875.0,0
1039,1039,0.5443630458841809,0.5,0.0,0.0,263.0,843.0,0.0,1,1894.0,1
1040,1040,0.12036041327107905,0.1,0.0,0.0,444.0,550.0,1.0,0,2006.0,0
1041,1041,-0.2328560903511041,-0.2,1.0,0.0,451.0,986.0,0.0,0,1563.0,1
1042,1042,0.6190597512100956,0.6,1.0,1.0,250.0,617.0,0.0,0,2133.0,0
1043,1043,-0.5722634026451601,-0.6,0.0,1.0,410.0,916.0,0.0,1,1674.0,0
1044,1044,-0.29781723769766155,-0.3,1.0,0.0,382.0,989.0,0.0,0,479.0,1
1045,1045,-0.4667198446728453,-0.5,1.0,0.0,453.0,669.0,1.0,1,-322.0,0
1046,1046,-0.5492214292922527,-0.5,0.0,1.0,291.0,503.0,1.0,0,1106.0,1
1047,1047,-0.3520104102680147,-0.4,1.0,0.0,455.0,613.0,0.0,0,972.0,1
1048,1048,0.7255921747529389,0.7,0.0,0.0,281.0,948.0,0.0,1,1771.0,1
1049,1049,-0.6143613683705627,-0.6,0.0,1.0,420.0,819.0,1.0,0,-849.0,1
1050,1050,-0.6858409111582002,-0.7,1.0,0.0,305.0,741.0,0.0,0,814.0,1
1051,1051,-0.793778631349568,-0.8,1.0,0.0,369.0,653.0,0.0,0,858.0,1
1052,1052,0.1265170367266456,0.1,0.0,0.0,258.0,895.0,1.0,0,1847.0,0
1053,1053,-0.8729649143827259,-0.9,0.0,1.0,437.0,501.0,1.0,0,2062.0,1
1054,1054,-0.2513979379326079,-0.3,1.0,0.0,272.0,733.0,0.0,0,835.0,1
1055,1055,-0.13274746334233567,-0.1,0.0,1.0,296.0,983.0,1.0,0,-999.0,1
1056,1056,0.4365060187892952,0.4,1.0,1.0,491.0,886.0,1.0,1,-1307.0,1
1057,1057,0.6436766046780672,0.6,1.0,1.0,495.0,879.0,1.0,1,1626.0,1
1058,1058,0.6357287380941962,0.6,1.0,1.0,385.0,879.0,1.0,1,1736.0,1
1059,1059,-0.6063538599338056,-0.6,0.0,1.0,257.0,945.0,1.0,0,1798.0,1
1060,1060,0.663384346236768,0.7,1.0,1.0,358.0,830.0,1.0,1,-938.0,1
1061,1061,-0.6234600282703027,-0.6,1.0,0.0,462.0,918.0,0.0,0,980.0,1
1062,1062,0.6259831554008705,0.6,0.0,0.0,313.0,637.0,0.0,1,1320.0,1
1063,1063,0.13557949233821243,0.1,1.0,1.0,428.0,890.0,0.0,0,1682.0,0
1064,1064,-0.5042474777717708,-0.5,1.0,0.0,353.0,942.0,0.0,0,405.0,1
1065,1065,-0.40947702880156767,-0.4,1.0,0.0,434.0,929.0,0.0,0,897.0,1
1066,1066,0.590454973180402,0.6,1.0,1.0,397.0,621.0,1.0,1,1982.0,1
1067,1067,-0.6483056913317257,-0.6,1.0,0.0,311.0,824.0,0.0,0,695.0,1
1068,1068,0.029253393744357092,0.0,0.0,0.0,485.0,621.0,0.0,1,1894.0,1
1069,1069,-0.5044214077233573,-0.5,1.0,0.0,272.0,576.0,0.0,0,772.0,1
1070,1070,0.07756059658942316,0.1,1.0,1.0,451.0,657.0,1.0,1,1892.0,1
1071,1071,-0.48961762286781907,-0.5,1.0,0.0,471.0,994.0,0.0,0,-35.0,1
1072,1072,0.21637337365228426,0.2,0.0,0.0,488.0,872.0,1.0,0,1640.0,0
1073,1073,-0.8733397259396051,-0.9,1.0,0.0,255.0,679.0,1.0,1,-524.0,0
1074,1074,0.7797137852041703,0.8,1.0,1.0,370.0,897.0,1.0,1,803.0,1
1075,1075,-0.1061634656604824,-0.1,1.0,0.0,459.0,785.0,1.0,1,-334.0,0
1076,1076,0.024429806427050282,0.0,0.0,0.0,491.0,838.0,0.0,1,1671.0,1
1077,1077,0.5604956025270426,0.6,0.0,0.0,481.0,524.0,0.0,1,1995.0,1
1078,1078,0.25341311746648765,0.3,0.0,0.0,290.0,787.0,1.0,0,1923.0,0
1079,1079,0.7157763104336446,0.7,1.0,1.0,461.0,871.0,1.0,1,1668.0,1
1080,1080,-0.05227485192241177,-0.1,0.0,1.0,498.0,694.0,0.0,1,1808.0,0
1081,1081,-0.8091898906956615,-0.8,0.0,1.0,423.0,562.0,1.0,0,475.0,1
1082,1082,0.3676514903420848,0.4,0.0,0.0,386.0,719.0,0.0,1,1545.0,1
1083,1083,-0.12334701166318929,-0.1,0.0,1.0,472.0,533.0,1.0,0,785.0,1
1084,1084,0.3388973587723517,0.3,0.0,0.0,324.0,934.0,1.0,0,1742.0,0
1085,1085,-0.4366960267734926,-0.4,1.0,0.0,458.0,878.0,0.0,0,854.0,1
1086,1086,-0.6488594067776754,-0.6,1.0,0.0,436.0,782.0,0.0,0,222.0,1
1087,1087,0.21340381444023493,0.2,0.0,0.0,498.0,764.0,1.0,0,1738.0,0
1088,1088,0.7064688529528885,0.7,0.0,0.0,263.0,848.0,0.0,1,1889.0,1
1089,1089,0.25244656028315593,0.3,0.0,0.0,462.0,519.0,1.0,0,569.0,0
1090,1090,0.6050189773925593,0.6,0.0,0.0,299.0,668.0,1.0,0,-447.0,0
1091,1091,0.19295741419680945,0.2,0.0,0.0,396.0,900.0,1.0,0,-1036.0,0
1092,1092,-0.0003462281760251429,-0.0,1.0,0.0,252.0,833.0,1.0,1,1915.0,0
1093,1093,0.25514452418659916,0.3,0.0,0.0,480.0,518.0,1.0,0,2002.0,0
1094,1094,-0.77996731174126,-0.8,0.0,1.0,328.0,684.0,1.0,0,1988.0,1
1095,1095,0.5290767144195602,0.5,0.0,0.0,418.0,998.0,0.0,1,1584.0,1
1096,1096,-0.5905509961062403,-0.6,0.0,1.0,393.0,809.0,0.0,1,1798.0,0
1097,1097,0.7247150288580096,0.7,0.0,0.0,325.0,623.0,0.0,1,512.0,1
1098,1098,-0.3139863529480512,-0.3,0.0,1.0,407.0,500.0,1.0,0,2093.0,1
1099,1099,-0.24676821141775085,-0.2,0.0,1.0,372.0,774.0,1.0,0,1854.0,1
1100,1100,0.005518173559904804,0.0,0.0,0.0,314.0,550.0,0.0,1,2136.0,1
1101,1101,-0.3924590769233295,-0.4,0.0,1.0,326.0,938.0,1.0,0,536.0,1
1102,1102,0.5464016036493403,0.5,0.0,0.0,306.0,903.0,0.0,1,1301.0,1
1103,1103,0.8286818688081695,0.8,1.0,1.0,275.0,875.0,1.0,1,1850.0,1
1104,1104,-0.5027523980492187,-0.5,0.0,1.0,447.0,890.0,1.0,0,1663.0,1
1105,1105,0.26632881577485146,0.3,0.0,0.0,336.0,588.0,0.0,1,2076.0,1
1106,1106,0.7373328771323574,0.7,1.0,1.0,378.0,553.0,1.0,1,2069.0,1
1107,1107,-0.21837666854223237,-0.2,0.0,1.0,489.0,948.0,1.0,0,1563.0,1
1108,1108,0.1741439037935829,0.2,0.0,0.0,424.0,666.0,1.0,0,1910.0,0
1109,1109,0.34709879159268164,0.3,1.0,1.0,270.0,992.0,1.0,1,1738.0,1
1110,1110,0.46407266964811356,0.5,0.0,0.0,252.0,643.0,0.0,1,1115.0,1
1111,1111,0.3067833524914315,0.3,0.0,0.0,412.0,721.0,1.0,0,-513.0,0
1112,1112,0.0001837515416495128,0.0,1.0,1.0,459.0,922.0,1.0,1,1619.0,1
1113,1113,-0.4633004715925562,-0.5,1.0,0.0,384.0,593.0,0.0,0,453.0,1
1114,1114,-0.48459941070305784,-0.5,1.0,0.0,359.0,996.0,0.0,0,365.0,1
1115,1115,0.20180560238566725,0.2,1.0,1.0,493.0,679.0,0.0,0,-62.0,0
1116,1116,0.7712227992650448,0.8,1.0,1.0,345.0,991.0,0.0,0,1664.0,0
1117,1117,-0.6238049371889764,-0.6,0.0,1.0,480.0,663.0,0.0,1,1857.0,0
1118,1118,0.4553046163289137,0.5,1.0,1.0,409.0,891.0,1.0,1,1700.0,1
1119,1119,0.039067355708025775,0.0,1.0,1.0,338.0,503.0,1.0,1,1369.0,1
1120,1120,-0.5478610168679485,-0.5,0.0,1.0,440.0,688.0,1.0,0,1032.0,1
1121,1121,0.5820289891674689,0.6,1.0,1.0,371.0,863.0,1.0,1,1256.0,1
1122,1122,0.2488323687181725,0.2,1.0,1.0,494.0,567.0,0.0,0,1939.0,0
1123,1123,0.18278847034003542,0.2,0.0,0.0,303.0,723.0,1.0,0,1974.0,0
1124,1124,-0.3939540495012914,-0.4,1.0,0.0,382.0,880.0,0.0,0,1148.0,1
1125,1125,0.08332915321610157,0.1,0.0,0.0,443.0,763.0,0.0,1,1794.0,1
1126,1126,0.4477093127918311,0.4,0.0,0.0,378.0,793.0,0.0,1,1829.0,1
1127,1127,0.04268380993622456,0.0,0.0,0.0,484.0,824.0,1.0,0,1692.0,0
1128,1128,-0.047220531622503836,-0.0,1.0,0.0,333.0,588.0,0.0,0,339.0,1
1129,1129,-0.559955713927623,-0.6,0.0,1.0,422.0,800.0,0.0,1,1778.0,0
1130,1130,0.5901466794245503,0.6,0.0,0.0,483.0,937.0,0.0,1,1580.0,1
1131,1131,0.5403963826152495,0.5,0.0,0.0,315.0,868.0,1.0,0,1817.0,0
1132,1132,-0.7466935396526728,-0.7,0.0,1.0,393.0,724.0,1.0,0,1883.0,1
1133,1133,-0.3817046561447718,-0.4,1.0,0.0,377.0,943.0,0.0,0,740.0,1
1134,1134,0.054398011266577506,0.1,1.0,1.0,325.0,691.0,0.0,0,1984.0,0
1135,1135,-0.20987573797399772,-0.2,0.0,1.0,494.0,657.0,0.0,1,1849.0,0
1136,1136,-0.5249052808736678,-0.5,0.0,1.0,290.0,972.0,1.0,0,1738.0,1
1137,1137,-0.3165250476314251,-0.3,0.0,1.0,272.0,624.0,1.0,0,1654.0,1
1138,1138,-0.08284783803207596,-0.1,0.0,1.0,413.0,626.0,1.0,0,1961.0,1
1139,1139,0.8420815475110396,0.8,0.0,0.0,310.0,815.0,1.0,0,1875.0,0
1140,1140,-0.8898469859473978,-0.9,1.0,0.0,410.0,577.0,0.0,0,183.0,1
1141,1141,0.2405736430384341,0.2,1.0,1.0,430.0,882.0,1.0,1,1688.0,1
1142,1142,0.6647612870713661,0.7,1.0,1.0,349.0,675.0,1.0,1,1276.0,1
1143,1143,-0.14678771759496745,-0.1,0.0,1.0,330.0,738.0,1.0,0,-968.0,1
1144,1144,0.736452731746288,0.7,0.0,0.0,317.0,896.0,0.0,1,1637.0,1
1145,1145,0.8405545275734022,0.8,1.0,1.0,461.0,807.0,1.0,1,1732.0,1
1146,1146,-0.3393968690750545,-0.3,1.0,0.0,496.0,999.0,1.0,1,1505.0,0
1147,1147,0.8188575657079372,0.8,0.0,0.0,347.0,811.0,0.0,1,1842.0,1
1148,1148,0.06471065931566078,0.1,1.0,1.0,357.0,821.0,0.0,0,1822.0,0
1149,1149,-0.43075800309915796,-0.4,0.0,1.0,369.0,831.0,1.0,0,250.0,1
1150,1150,0.7423364936532063,0.7,0.0,0.0,327.0,929.0,0.0,1,1744.0,1
1151,1151,-0.5824685195617716,-0.6,0.0,1.0,389.0,822.0,1.0,0,499.0,1
1152,1152,0.47084350645748285,0.5,1.0,1.0,345.0,611.0,1.0,1,2044.0,1
1153,1153,0.6291284847338824,0.6,1.0,1.0,469.0,744.0,1.0,1,1787.0,1
1154,1154,0.7041118147828745,0.7,0.0,0.0,495.0,640.0,0.0,1,1865.0,1
1155,1155,0.7309561856942431,0.7,1.0,1.0,470.0,890.0,1.0,1,1640.0,1
1156,1156,0.42920506596378505,0.4,1.0,1.0,425.0,955.0,1.0,1,1620.0,1
1157,1157,-0.13573471594928277,-0.1,1.0,0.0,328.0,799.0,0.0,0,393.0,1
1158,1158,-0.5399220936634423,-0.5,1.0,0.0,271.0,958.0,1.0,1,-719.0,0
1159,1159,-0.8145442075825239,-0.8,0.0,1.0,475.0,566.0,1.0,0,-871.0,1
1160,1160,0.07221030595505051,0.1,0.0,0.0,345.0,576.0,0.0,1,2079.0,1
1161,1161,0.031061054664479837,0.0,1.0,1.0,366.0,686.0,1.0,1,-402.0,1
1162,1162,-0.7671345361624615,-0.8,1.0,0.0,442.0,985.0,0.0,0,573.0,1
1163,1163,-0.001151288703312603,-0.0,1.0,0.0,457.0,703.0,0.0,0,1840.0,1
1164,1164,-0.1137137990845265,-0.1,1.0,0.0,422.0,882.0,1.0,1,1696.0,0
1165,1165,0.14171019742029356,0.1,1.0,1.0,371.0,933.0,0.0,0,1696.0,0
1166,1166,0.7858800999392398,0.8,1.0,1.0,329.0,756.0,1.0,1,405.0,1
1167,1167,-0.15972683357708617,-0.2,1.0,0.0,369.0,663.0,0.0,0,528.0,1
1168,1168,0.6174898563449734,0.6,1.0,1.0,405.0,626.0,1.0,1,1969.0,1
1169,1169,0.29706863278384443,0.3,1.0,1.0,276.0,627.0,0.0,0,2097.0,0
1170,1170,0.26182007016423936,0.3,0.0,0.0,306.0,998.0,1.0,0,1696.0,0
1171,1171,0.19192560755696075,0.2,0.0,0.0,315.0,860.0,0.0,1,1825.0,1
1172,1172,-0.06839736239510452,-0.1,0.0,1.0,375.0,710.0,1.0,0,1915.0,1
1173,1173,-0.26907464922978674,-0.3,0.0,1.0,271.0,603.0,1.0,0,1566.0,1
1174,1174,0.11105138458429631,0.1,1.0,1.0,343.0,987.0,1.0,1,-870.0,1
1175,1175,-0.7277139275982074,-0.7,0.0,1.0,332.0,537.0,1.0,0,-119.0,1
1176,1176,-0.265617842387602,-0.3,0.0,1.0,335.0,968.0,0.0,1,1697.0,0
1177,1177,0.12814848955543845,0.1,1.0,1.0,481.0,792.0,1.0,1,1727.0,1
1178,1178,0.1830490535966075,0.2,1.0,1.0,287.0,548.0,1.0,1,2165.0,1
1179,1179,-0.07789146944886649,-0.1,1.0,0.0,372.0,747.0,1.0,1,1881.0,0
1180,1180,-0.4783673498062092,-0.5,0.0,1.0,273.0,652.0,0.0,1,2075.0,0
1181,1181,-0.2574457350291979,-0.3,1.0,0.0,305.0,537.0,0.0,0,408.0,1
1182,1182,-0.8079435781745009,-0.8,0.0,1.0,481.0,893.0,1.0,0,666.0,1
1183,1183,0.2603817034551267,0.3,1.0,1.0,479.0,818.0,1.0,1,1703.0,1
1184,1184,-0.7146481889781695,-0.7,1.0,0.0,338.0,956.0,0.0,0,1206.0,1
1185,1185,0.04178002295172323,0.0,1.0,1.0,301.0,806.0,0.0,0,1893.0,0
1186,1186,-0.48034217889631353,-0.5,0.0,1.0,278.0,719.0,1.0,0,-527.0,1
1187,1187,0.5277361514394264,0.5,1.0,1.0,437.0,614.0,1.0,1,1949.0,1
1188,1188,-0.2397100554898608,-0.2,0.0,1.0,496.0,972.0,1.0,0,1532.0,1
1189,1189,0.0035629093548361634,0.0,1.0,1.0,373.0,741.0,1.0,1,1886.0,1
1190,1190,0.6713971326157401,0.7,0.0,0.0,272.0,978.0,0.0,1,930.0,1
1191,1191,0.27204265255301296,0.3,1.0,1.0,453.0,558.0,1.0,1,1989.0,1
1192,1192,-0.30567010927257854,-0.3,0.0,1.0,256.0,877.0,0.0,1,1867.0,0
1193,1193,-0.2343748049730736,-0.2,0.0,1.0,386.0,575.0,1.0,0,789.0,1
1194,1194,-0.2906927539504436,-0.3,1.0,0.0,472.0,672.0,0.0,0,1856.0,1
1195,1195,-0.06657209326795765,-0.1,0.0,1.0,491.0,751.0,1.0,0,1758.0,1
1196,1196,-0.6397383517777882,-0.6,1.0,0.0,488.0,763.0,0.0,0,569.0,1
1197,1197,0.6432326965567313,0.6,1.0,1.0,365.0,921.0,1.0,1,-636.0,1
1198,1198,-0.01293472977207899,-0.0,0.0,1.0,379.0,971.0,1.0,0,1650.0,1
1199,1199,0.3802418409118532,0.4,1.0,1.0,357.0,733.0,1.0,1,1910.0,1
1200,1200,0.2252831724998866,0.2,0.0,0.0,328.0,736.0,1.0,0,1936.0,0
1201,1201,0.8373893037802252,0.8,0.0,0.0,391.0,946.0,0.0,1,1663.0,1
1202,1202,0.20534951573399318,0.2,0.0,0.0,319.0,602.0,0.0,1,2079.0,1
1203,1203,-0.7334282486776423,-0.7,1.0,0.0,364.0,859.0,1.0,1,-883.0,0
1204,1204,-0.4639818859259567,-0.5,0.0,1.0,421.0,750.0,1.0,0,1089.0,1
1205,1205,0.37857589270988223,0.4,1.0,1.0,472.0,924.0,1.0,1,-946.0,1
1206,1206,0.7334563997611322,0.7,0.0,0.0,376.0,867.0,0.0,1,707.0,1
1207,1207,0.39157790597662434,0.4,1.0,1.0,375.0,557.0,1.0,1,-472.0,1
1208,1208,-0.5978408257539618,-0.6,1.0,0.0,277.0,697.0,0.0,0,986.0,1
1209,1209,0.2583863395797795,0.3,0.0,0.0,369.0,610.0,0.0,1,2021.0,1
1210,1210,0.4502373184165557,0.5,1.0,1.0,359.0,622.0,1.0,1,299.0,1
1211,1211,-0.10223298870012587,-0.1,0.0,1.0,344.0,635.0,1.0,0,-449.0,1
1212,1212,0.17423522817539105,0.2,1.0,1.0,304.0,652.0,1.0,1,1234.0,1
1213,1213,0.10358659440057638,0.1,0.0,0.0,468.0,924.0,1.0,0,1608.0,0
1214,1214,0.6030752772650126,0.6,0.0,0.0,347.0,732.0,0.0,1,1921.0,1
1215,1215,-0.10528609458022453,-0.1,0.0,1.0,378.0,863.0,1.0,0,1759.0,1
1216,1216,-0.016085157939414008,-0.0,1.0,0.0,428.0,641.0,0.0,0,1931.0,1
1217,1217,-0.03044832356735172,-0.0,1.0,0.0,264.0,850.0,0.0,0,1886.0,1
1218,1218,-0.669050358962921,-0.7,0.0,1.0,472.0,847.0,1.0,0,1681.0,1
1219,1219,-0.6988681236545706,-0.7,0.0,1.0,420.0,711.0,0.0,1,1869.0,0
1220,1220,-0.8039372295085669,-0.8,0.0,1.0,351.0,803.0,1.0,0,1846.0,1
1221,1221,-0.8547831890468717,-0.9,0.0,1.0,445.0,527.0,0.0,1,2028.0,0
1222,1222,0.02363929536758913,0.0,0.0,0.0,348.0,872.0,1.0,0,760.0,0
1223,1223,0.2186863315679929,0.2,1.0,1.0,480.0,517.0,1.0,1,2003.0,1
1224,1224,0.2225439681522331,0.2,1.0,1.0,286.0,948.0,1.0,1,-444.0,1
1225,1225,0.7182855754946055,0.7,0.0,0.0,325.0,948.0,0.0,1,717.0,1
1226,1226,-0.22661218185559873,-0.2,1.0,0.0,387.0,607.0,0.0,0,1776.0,1
1227,1227,-0.07125343031157039,-0.1,0.0,1.0,444.0,748.0,1.0,0,1808.0,1
1228,1228,0.46531835362180896,0.5,1.0,1.0,436.0,991.0,1.0,1,1573.0,1
1229,1229,-0.1346475911987356,-0.1,1.0,0.0,351.0,715.0,0.0,0,354.0,1
1230,1230,0.028057344924958705,0.0,1.0,1.0,413.0,638.0,1.0,1,369.0,1
1231,1231,-0.7706155125023371,-0.8,0.0,1.0,295.0,853.0,1.0,0,1852.0,1
1232,1232,0.15040346373166613,0.2,1.0,1.0,309.0,627.0,0.0,0,2064.0,0
1233,1233,-0.6445575926571645,-0.6,1.0,0.0,283.0,582.0,0.0,0,465.0,1
1234,1234,0.7231712904549413,0.7,0.0,0.0,486.0,763.0,1.0,0,-179.0,0
1235,1235,-0.4039098399280485,-0.4,1.0,0.0,423.0,883.0,0.0,0,1074.0,1
1236,1236,-0.29499771913407624,-0.3,1.0,0.0,362.0,745.0,0.0,0,1773.0,1
1237,1237,0.7872989128125262,0.8,1.0,1.0,379.0,863.0,1.0,1,1758.0,1
1238,1238,0.6176454446603296,0.6,0.0,0.0,436.0,950.0,1.0,0,-416.0,0
1239,1239,-0.8585285631340739,-0.9,1.0,0.0,255.0,690.0,0.0,0,295.0,1
1240,1240,0.547586751979599,0.5,0.0,0.0,371.0,584.0,0.0,1,2045.0,1
1241,1241,0.16046008854979166,0.2,1.0,1.0,477.0,538.0,1.0,1,935.0,1
1242,1242,-0.17491387256043311,-0.2,1.0,0.0,297.0,661.0,1.0,1,-918.0,0
1243,1243,-0.08112843506380552,-0.1,0.0,1.0,316.0,539.0,0.0,1,2145.0,0
1244,1244,-0.5452712885989619,-0.5,0.0,1.0,456.0,646.0,1.0,0,1898.0,1
1245,1245,-0.3917381256682446,-0.4,1.0,0.0,362.0,859.0,0.0,0,1779.0,1
1246,1246,-0.4603783126030143,-0.5,1.0,0.0,272.0,752.0,0.0,0,1976.0,1
1247,1247,0.7089645909380345,0.7,0.0,0.0,303.0,887.0,0.0,1,1400.0,1
1248,1248,0.874726362322397,0.9,0.0,0.0,389.0,897.0,0.0,1,414.0,1
1249,1249,0.8596217271799319,0.9,1.0,1.0,339.0,808.0,0.0,0,1853.0,0
1250,1250,-0.2363157022197493,-0.2,1.0,0.0,314.0,525.0,0.0,0,61.0,1
1251,1251,0.5692881084420848,0.6,1.0,1.0,353.0,589.0,1.0,1,878.0,1
1252,1252,0.740815690726096,0.7,1.0,1.0,378.0,691.0,1.0,1,1931.0,1
1253,1253,0.24270637760790514,0.2,1.0,1.0,484.0,928.0,0.0,0,978.0,0
1254,1254,-0.5330462499214295,-0.5,0.0,1.0,277.0,733.0,1.0,0,-890.0,1
1255,1255,-0.004645145180547594,-0.0,1.0,0.0,354.0,570.0,0.0,0,2076.0,1
1256,1256,0.6958410572997581,0.7,1.0,1.0,474.0,585.0,1.0,1,401.0,1
1257,1257,0.6077589015682033,0.6,1.0,1.0,337.0,903.0,0.0,0,1760.0,0
1258,1258,-0.8995204095240276,-0.9,1.0,0.0,262.0,868.0,0.0,0,500.0,1
1259,1259,0.22939013635162475,0.2,1.0,1.0,321.0,663.0,0.0,0,66.0,0
1260,1260,-0.010404125426268562,-0.0,1.0,0.0,382.0,654.0,1.0,1,-976.0,0
1261,1261,-0.1804049721981984,-0.2,0.0,1.0,295.0,713.0,0.0,1,1992.0,0
1262,1262,-0.5532215625389751,-0.6,0.0,1.0,439.0,718.0,1.0,0,1843.0,1
1263,1263,0.16122321836816267,0.2,0.0,0.0,271.0,673.0,1.0,0,2056.0,0
1264,1264,0.8392819062118803,0.8,1.0,1.0,305.0,649.0,1.0,1,2046.0,1
1265,1265,0.895660069644756,0.9,0.0,0.0,394.0,895.0,0.0,1,1711.0,1
1266,1266,-0.07270469898726273,-0.1,1.0,0.0,359.0,566.0,0.0,0,1435.0,1
1267,1267,-0.20773735318956799,-0.2,0.0,1.0,483.0,825.0,1.0,0,1692.0,1
1268,1268,0.6693649994434178,0.7,0.0,0.0,449.0,507.0,0.0,1,1294.0,1
1269,1269,-0.6198378804111293,-0.6,0.0,1.0,372.0,804.0,1.0,0,-1036.0,1
1270,1270,0.14977475412779107,0.1,1.0,1.0,281.0,803.0,1.0,1,616.0,1
1271,1271,0.7683870988845002,0.8,1.0,1.0,490.0,894.0,1.0,1,1616.0,1
1272,1272,-0.19955481351818194,-0.2,0.0,1.0,434.0,889.0,1.0,0,1677.0,1
1273,1273,-0.6265796024692427,-0.6,1.0,0.0,392.0,836.0,0.0,0,462.0,1
1274,1274,0.4641829359613,0.5,0.0,0.0,484.0,545.0,1.0,0,1971.0,0
1275,1275,0.5367118277391466,0.5,1.0,1.0,486.0,772.0,1.0,1,1742.0,1
1276,1276,0.37724146942872305,0.4,0.0,0.0,416.0,733.0,1.0,0,1851.0,0
1277,1277,0.3696786040180028,0.4,0.0,0.0,412.0,994.0,0.0,1,1594.0,1
1278,1278,-0.7634741129738362,-0.8,0.0,1.0,277.0,873.0,1.0,0,1660.0,1
1279,1279,-0.3015405811470875,-0.3,1.0,0.0,471.0,871.0,0.0,0,1658.0,1
1280,1280,0.20530843154637368,0.2,1.0,1.0,405.0,922.0,1.0,1,1283.0,1
1281,1281,0.5038290025648352,0.5,0.0,0.0,412.0,960.0,0.0,1,1628.0,1
1282,1282,0.6561081413293312,0.7,1.0,1.0,306.0,706.0,1.0,1,1988.0,1
1283,1283,0.4817925973391236,0.5,0.0,0.0,478.0,815.0,0.0,1,1707.0,1
1284,1284,-0.7909785380868373,-0.8,0.0,1.0,327.0,786.0,1.0,0,-33.0,1
1285,1285,0.8574116090088745,0.9,0.0,0.0,259.0,537.0,0.0,1,1644.0,1
1286,1286,-0.16196110142947373,-0.2,0.0,1.0,441.0,641.0,1.0,0,1918.0,1
1287,1287,0.7567779779625244,0.8,1.0,1.0,413.0,573.0,1.0,1,2014.0,1
1288,1288,-0.056456153203968906,-0.1,0.0,1.0,334.0,702.0,1.0,0,1964.0,1
1289,1289,0.822672246743836,0.8,0.0,0.0,489.0,621.0,0.0,1,1600.0,1
1290,1290,0.8833173823741219,0.9,1.0,1.0,457.0,546.0,1.0,1,1997.0,1
1291,1291,-0.32572065709215847,-0.3,1.0,0.0,308.0,595.0,0.0,0,637.0,1
1292,1292,0.0534281366718693,0.1,1.0,1.0,492.0,857.0,0.0,0,1651.0,0
1293,1293,0.338204653217829,0.3,0.0,0.0,467.0,686.0,1.0,0,-903.0,0
1294,1294,0.1624677226227088,0.2,1.0,1.0,286.0,623.0,1.0,1,2091.0,1
1295,1295,0.11827750429050854,0.1,0.0,0.0,349.0,645.0,1.0,0,2006.0,0
1296,1296,0.0726774290708535,0.1,0.0,0.0,264.0,595.0,1.0,0,1111.0,0
1297,1297,0.08586488659921598,0.1,1.0,1.0,365.0,617.0,1.0,1,2018.0,1
1298,1298,0.34758854203045,0.3,0.0,0.0,379.0,890.0,1.0,0,1731.0,0
1299,1299,0.40393561412933143,0.4,0.0,0.0,409.0,944.0,0.0,1,1647.0,1
1300,1300,0.4432265505142775,0.4,0.0,0.0,469.0,775.0,1.0,0,-584.0,0
1301,1301,0.21803371026169216,0.2,1.0,1.0,349.0,713.0,1.0,1,1938.0,1
1302,1302,0.25675062304807506,0.3,0.0,0.0,463.0,725.0,0.0,1,1812.0,1
1303,1303,0.08514705753792706,0.1,1.0,1.0,415.0,601.0,0.0,0,1984.0,0
1304,1304,-0.13952853843994928,-0.1,0.0,1.0,454.0,767.0,0.0,1,1779.0,0
1305,1305,-0.8497284437009123,-0.8,1.0,0.0,272.0,629.0,0.0,0,509.0,1
1306,1306,0.603430634638176,0.6,1.0,1.0,315.0,766.0,1.0,1,-901.0,1
1307,1307,-0.279335124426884,-0.3,1.0,0.0,443.0,559.0,0.0,0,428.0,1
1308,1308,-0.24251236985414337,-0.2,1.0,0.0,252.0,698.0,0.0,0,850.0,1
1309,1309,-0.8652863666670909,-0.9,1.0,0.0,347.0,709.0,0.0,0,-156.0,1
1310,1310,-0.2813279962462728,-0.3,0.0,1.0,381.0,731.0,1.0,0,768.0,1
1311,1311,-0.08660338342961826,-0.1,0.0,1.0,457.0,616.0,1.0,0,227.0,1
1312,1312,-0.6345080661561615,-0.6,0.0,1.0,282.0,598.0,1.0,0,1450.0,1
1313,1313,0.6524923997367312,0.7,0.0,0.0,433.0,512.0,0.0,1,2055.0,1
1314,1314,-0.18947578591834924,-0.2,0.0,1.0,403.0,715.0,1.0,0,1052.0,1
1315,1315,-0.21630618045633931,-0.2,0.0,1.0,355.0,828.0,1.0,0,1817.0,1
1316,1316,-0.19443035774337913,-0.2,1.0,0.0,286.0,951.0,0.0,0,1763.0,1
1317,1317,-0.4743001275127241,-0.5,1.0,0.0,275.0,626.0,0.0,0,929.0,1
1318,1318,-0.38148339290136946,-0.4,1.0,0.0,343.0,977.0,0.0,0,1160.0,1
1319,1319,0.7002340291186154,0.7,0.0,0.0,409.0,917.0,0.0,1,1674.0,1
1320,1320,0.8586301738017205,0.9,1.0,1.0,475.0,678.0,1.0,1,1847.0,1
1321,1321,-0.5157198141055759,-0.5,1.0,0.0,312.0,925.0,0.0,0,1633.0,1
1322,1322,-0.8438127088956712,-0.8,0.0,1.0,347.0,704.0,1.0,0,1949.0,1
1323,1323,-0.568243335225018,-0.6,1.0,0.0,307.0,566.0,0.0,0,87.0,1
1324,1324,-0.724746472192103,-0.7,1.0,0.0,344.0,603.0,0.0,0,873.0,1
1325,1325,-0.37787947279712797,-0.4,0.0,1.0,270.0,786.0,1.0,0,554.0,1
1326,1326,-0.7004735594036349,-0.7,0.0,1.0,416.0,801.0,0.0,1,1783.0,0
1327,1327,0.3248632257848313,0.3,0.0,0.0,379.0,520.0,0.0,1,2101.0,1
1328,1328,0.0992835295499207,0.1,0.0,0.0,278.0,541.0,0.0,1,2181.0,1
1329,1329,-0.09566912804679517,-0.1,0.0,1.0,271.0,631.0,1.0,0,2098.0,1
1330,1330,0.07326842544312928,0.1,1.0,1.0,348.0,684.0,1.0,1,1968.0,1
1331,1331,0.7757501830184818,0.8,0.0,0.0,457.0,991.0,0.0,1,1552.0,1
1332,1332,0.887791072224433,0.9,1.0,1.0,454.0,730.0,1.0,1,-814.0,1
1333,1333,0.6714321067206487,0.7,1.0,1.0,360.0,988.0,1.0,1,1652.0,1
1334,1334,0.8292902308063327,0.8,1.0,1.0,434.0,577.0,1.0,1,-581.0,1
1335,1335,-0.5026759332354074,-0.5,0.0,1.0,432.0,716.0,1.0,0,1852.0,1
1336,1336,0.6097242301852753,0.6,1.0,1.0,339.0,691.0,1.0,1,1570.0,1
1337,1337,-0.7711792949564239,-0.8,0.0,1.0,447.0,740.0,1.0,0,-167.0,1
1338,1338,0.26277340716966535,0.3,0.0,0.0,399.0,762.0,0.0,1,1839.0,1
1339,1339,0.04823521109001827,0.0,1.0,1.0,379.0,618.0,1.0,1,2003.0,1
1340,1340,-0.7520605992716716,-0.8,1.0,0.0,412.0,658.0,0.0,0,770.0,1
1341,1341,-0.2881884153307931,-0.3,0.0,1.0,396.0,999.0,0.0,1,1605.0,0
1342,1342,-0.7810839277095555,-0.8,0.0,1.0,448.0,800.0,1.0,0,1752.0,1
1343,1343,-0.5113525810758695,-0.5,0.0,1.0,337.0,799.0,1.0,0,1604.0,1
1344,1344,-0.114930927080657,-0.1,0.0,1.0,426.0,852.0,1.0,0,1722.0,1
1345,1345,-0.14227788742164005,-0.1,1.0,0.0,451.0,750.0,0.0,0,1799.0,1
1346,1346,0.6286676392670564,0.6,0.0,0.0,434.0,576.0,1.0,0,1990.0,0
1347,1347,0.1056796308738569,0.1,0.0,0.0,402.0,743.0,0.0,1,1855.0,1
1348,1348,-0.2453797678312044,-0.2,0.0,1.0,387.0,696.0,0.0,1,1917.0,0
1349,1349,-0.21214188509086074,-0.2,0.0,1.0,431.0,713.0,1.0,0,1856.0,1
1350,1350,-0.38850072709914485,-0.4,0.0,1.0,382.0,840.0,1.0,0,1778.0,1
1351,1351,0.41940416059981567,0.4,0.0,0.0,292.0,820.0,1.0,0,1888.0,0
1352,1352,-0.4693094579004164,-0.5,1.0,0.0,498.0,727.0,0.0,0,1425.0,1
1353,1353,0.0511212909024501,0.1,1.0,1.0,346.0,756.0,1.0,1,1298.0,1
1354,1354,-0.26024111698233987,-0.3,0.0,1.0,379.0,504.0,1.0,0,2117.0,1
1355,1355,-0.8324655286920601,-0.8,1.0,0.0,417.0,820.0,0.0,0,443.0,1
1356,1356,0.5489004638728608,0.5,0.0,0.0,290.0,944.0,1.0,0,1766.0,0
1357,1357,0.1656018615037934,0.2,1.0,1.0,422.0,676.0,1.0,1,1902.0,1
1358,1358,0.5265189136853686,0.5,0.0,0.0,434.0,515.0,1.0,0,2051.0,0
1359,1359,-0.8245718482059036,-0.8,0.0,1.0,358.0,573.0,0.0,1,2069.0,0
1360,1360,-0.6764190376252118,-0.7,1.0,0.0,320.0,511.0,0.0,0,699.0,1
1361,1361,-0.6356195945538412,-0.6,0.0,1.0,465.0,833.0,1.0,0,-628.0,1
1362,1362,0.34933069508891024,0.3,0.0,0.0,476.0,666.0,0.0,1,1858.0,1
1363,1363,-0.8125550883423042,-0.8,0.0,1.0,403.0,967.0,0.0,1,1630.0,0
1364,1364,-0.5674009971582763,-0.6,0.0,1.0,395.0,842.0,1.0,0,1763.0,1
1365,1365,0.8258830761738899,0.8,0.0,0.0,452.0,530.0,1.0,0,2018.0,0
1366,1366,0.09385605643507056,0.1,1.0,1.0,375.0,893.0,1.0,1,-458.0,1
1367,1367,-0.7671358422910393,-0.8,0.0,1.0,362.0,586.0,1.0,0,1072.0,1
1368,1368,0.5284964369375024,0.5,1.0,1.0,318.0,859.0,1.0,1,1823.0,1
1369,1369,-0.04864726498225691,-0.0,0.0,1.0,480.0,835.0,0.0,1,1685.0,0
1370,1370,0.6564119533861222,0.7,0.0,0.0,375.0,772.0,1.0,0,-767.0,0
1371,1371,-0.8516702857000026,-0.9,0.0,1.0,329.0,587.0,0.0,1,2084.0,0
1372,1372,0.11104640529595045,0.1,0.0,0.0,415.0,564.0,1.0,0,2021.0,0
1373,1373,0.7296571137547322,0.7,0.0,0.0,417.0,857.0,0.0,1,856.0,1
1374,1374,0.37811356186025147,0.4,1.0,1.0,306.0,943.0,1.0,1,71.0,1
1375,1375,-0.4036709829299331,-0.4,0.0,1.0,390.0,590.0,1.0,0,2020.0,1
1376,1376,0.4943601205544398,0.5,1.0,1.0,388.0,620.0,1.0,1,1992.0,1
1377,1377,0.20986331131787017,0.2,1.0,1.0,321.0,718.0,1.0,1,581.0,1
1378,1378,-0.33128746032004075,-0.3,1.0,0.0,474.0,652.0,1.0,1,1874.0,0
1379,1379,0.5725892047396076,0.6,1.0,1.0,347.0,920.0,1.0,1,783.0,1
1380,1380,0.8044321791268335,0.8,0.0,0.0,386.0,785.0,0.0,1,709.0,1
1381,1381,-0.8838476592991442,-0.9,0.0,1.0,264.0,864.0,1.0,0,1872.0,1
1382,1382,-0.33583576389351477,-0.3,0.0,1.0,470.0,792.0,1.0,0,238.0,1
1383,1383,0.0005344345699902497,0.0,1.0,1.0,437.0,884.0,0.0,0,1189.0,0
1384,1384,-0.22171567522446478,-0.2,0.0,1.0,333.0,830.0,1.0,0,1837.0,1
1385,1385,0.49927266087416144,0.5,1.0,1.0,363.0,681.0,0.0,0,1956.0,0
1386,1386,-0.8227218952899827,-0.8,0.0,1.0,357.0,978.0,1.0,0,1665.0,1
1387,1387,0.38994960104176835,0.4,0.0,0.0,461.0,620.0,0.0,1,1919.0,1
1388,1388,-0.7011541690387365,-0.7,0.0,1.0,310.0,842.0,0.0,1,1848.0,0
1389,1389,-0.4331133089770802,-0.4,0.0,1.0,489.0,991.0,1.0,0,880.0,1
1390,1390,-0.6816818206958561,-0.7,1.0,0.0,495.0,958.0,0.0,0,507.0,1
1391,1391,0.353008062797752,0.4,0.0,0.0,341.0,823.0,0.0,1,1836.0,1
1392,1392,0.5836363783266926,0.6,0.0,0.0,385.0,742.0,0.0,1,1873.0,1
1393,1393,0.6526912841627687,0.7,1.0,1.0,475.0,826.0,1.0,1,1699.0,1
1394,1394,-0.10034705612239603,-0.1,0.0,1.0,279.0,666.0,0.0,1,2055.0,0
1395,1395,0.41608134285721843,0.4,0.0,0.0,466.0,917.0,0.0,1,1617.0,1
1396,1396,-0.24872050399130297,-0.2,1.0,0.0,414.0,934.0,1.0,1,382.0,0
1397,1397,0.7517942603025408,0.8,0.0,0.0,418.0,920.0,0.0,1,1662.0,1
1398,1398,0.08789065394188067,0.1,1.0,1.0,301.0,663.0,1.0,1,2036.0,1
1399,1399,0.31933092875671953,0.3,1.0,1.0,399.0,903.0,1.0,1,1698.0,1
1400,1400,-0.33656239447443037,-0.3,0.0,1.0,305.0,586.0,1.0,0,2109.0,1
1401,1401,0.7186896508111146,0.7,1.0,1.0,498.0,593.0,1.0,1,1909.0,1
1402,1402,0.607413761087657,0.6,1.0,1.0,360.0,624.0,1.0,1,1246.0,1
1403,1403,0.2285346852490583,0.2,0.0,0.0,495.0,858.0,0.0,1,1647.0,1
1404,1404,0.5756909943819611,0.6,1.0,1.0,329.0,959.0,1.0,1,1712.0,1
1405,1405,-0.8571598731729059,-0.9,1.0,0.0,414.0,663.0,0.0,0,753.0,1
1406,1406,0.4264276504875838,0.4,1.0,1.0,357.0,522.0,1.0,1,2121.0,1
1407,1407,0.0810642785821013,0.1,1.0,1.0,373.0,709.0,1.0,1,1918.0,1
1408,1408,0.7727364152560156,0.8,1.0,1.0,470.0,522.0,1.0,1,1998.0,1
1409,1409,0.21273109356869357,0.2,0.0,0.0,387.0,881.0,1.0,0,1732.0,0
1410,1410,-0.7553043800665191,-0.8,1.0,0.0,286.0,665.0,0.0,0,299.0,1
1411,1411,0.878436464548472,0.9,1.0,1.0,468.0,681.0,1.0,1,1851.0,1
1412,1412,0.3022574552233358,0.3,1.0,1.0,399.0,712.0,0.0,0,1889.0,0
1413,1413,0.3552110828797955,0.4,0.0,0.0,310.0,521.0,0.0,1,2169.0,1
1414,1414,-0.40084367885519057,-0.4,0.0,1.0,422.0,628.0,1.0,0,1950.0,1
1415,1415,0.7820745736692879,0.8,0.0,0.0,400.0,682.0,0.0,1,458.0,1
1416,1416,-0.14941905229747665,-0.1,1.0,0.0,453.0,681.0,0.0,0,1866.0,1
1417,1417,-0.7176541304288572,-0.7,0.0,1.0,256.0,568.0,1.0,0,636.0,1
1418,1418,0.10438490141316514,0.1,0.0,0.0,256.0,534.0,0.0,1,2210.0,1
1419,1419,0.4181937560843064,0.4,1.0,1.0,345.0,871.0,1.0,1,1784.0,1
1420,1420,-0.7054556578742911,-0.7,0.0,1.0,265.0,642.0,1.0,0,2093.0,1
1421,1421,0.3724225119597674,0.4,1.0,1.0,429.0,659.0,0.0,0,1912.0,0
1422,1422,0.8138751233749583,0.8,0.0,0.0,326.0,770.0,0.0,1,1234.0,1
1423,1423,0.19433676177449366,0.2,0.0,0.0,358.0,950.0,1.0,0,-378.0,0
1424,1424,0.869715555438724,0.9,1.0,1.0,482.0,653.0,1.0,1,85.0,1
1425,1425,-0.06153191495650834,-0.1,0.0,1.0,479.0,715.0,1.0,0,1806.0,1
1426,1426,0.3375078093457292,0.3,0.0,0.0,295.0,994.0,0.0,1,1711.0,1
1427,1427,0.23500727019372347,0.2,0.0,0.0,498.0,821.0,0.0,1,1681.0,1
1428,1428,0.6714392028910362,0.7,0.0,0.0,315.0,889.0,0.0,1,1796.0,1
1429,1429,-0.26586082823293433,-0.3,0.0,1.0,427.0,758.0,0.0,1,1815.0,0
1430,1430,0.5099537956663459,0.5,0.0,0.0,313.0,875.0,0.0,1,862.0,1
1431,1431,0.36793521351388236,0.4,1.0,1.0,498.0,953.0,1.0,1,-781.0,1
1432,1432,0.7643868873480223,0.8,1.0,1.0,360.0,791.0,1.0,1,1849.0,1
1433,1433,0.7508869249284379,0.8,0.0,0.0,349.0,747.0,0.0,1,1904.0,1
1434,1434,-0.17423777893158243,-0.2,1.0,0.0,275.0,543.0,1.0,1,2182.0,0
1435,1435,0.6899189021970679,0.7,0.0,0.0,406.0,541.0,0.0,1,2053.0,1
1436,1436,-0.566885612794361,-0.6,1.0,0.0,356.0,920.0,0.0,0,1504.0,1
1437,1437,-0.4400035215451317,-0.4,0.0,1.0,372.0,675.0,1.0,0,1953.0,1
1438,1438,-0.8505501119538448,-0.9,1.0,0.0,321.0,899.0,0.0,0,620.0,1
1439,1439,0.1947197698472246,0.2,1.0,1.0,449.0,862.0,1.0,1,-531.0,1
1440,1440,0.08159039480158914,0.1,1.0,1.0,464.0,508.0,1.0,1,2028.0,1
1441,1441,0.6202141776350644,0.6,1.0,1.0,362.0,960.0,0.0,0,1678.0,0
1442,1442,0.46157273050235925,0.5,1.0,1.0,404.0,970.0,1.0,1,1626.0,1
1443,1443,0.7446462084823816,0.7,1.0,1.0,429.0,581.0,1.0,1,1990.0,1
1444,1444,-0.3504209674817582,-0.4,1.0,0.0,251.0,868.0,0.0,0,591.0,1
1445,1445,0.7980639317872708,0.8,1.0,1.0,386.0,844.0,1.0,1,1770.0,1
1446,1446,0.8748477976157095,0.9,0.0,0.0,282.0,676.0,0.0,1,1212.0,1
1447,1447,-0.191599687822947,-0.2,0.0,1.0,450.0,567.0,1.0,0,1983.0,1
1448,1448,-0.4783155443819442,-0.5,1.0,0.0,464.0,822.0,0.0,0,1404.0,1
1449,1449,0.5280749581726295,0.5,0.0,0.0,391.0,847.0,0.0,1,1762.0,1
1450,1450,0.501011198341747,0.5,0.0,0.0,341.0,737.0,0.0,1,1572.0,1
1451,1451,0.5299221925772962,0.5,0.0,0.0,478.0,735.0,1.0,0,1787.0,0
1452,1452,-0.655929959688452,-0.7,1.0,0.0,422.0,879.0,0.0,0,699.0,1
1453,1453,-0.255641847129082,-0.3,1.0,0.0,307.0,514.0,0.0,0,2179.0,1
1454,1454,0.227680422579272,0.2,1.0,1.0,360.0,971.0,1.0,1,1669.0,1
1455,1455,0.7987830411886411,0.8,0.0,0.0,493.0,604.0,0.0,1,1553.0,1
1456,1456,0.8170458824758667,0.8,1.0,1.0,319.0,997.0,1.0,1,1684.0,1
1457,1457,-0.5719574998357608,-0.6,1.0,0.0,347.0,652.0,0.0,0,1341.0,1
1458,1458,-0.873960306037794,-0.9,0.0,1.0,265.0,534.0,0.0,1,1091.0,0
1459,1459,-0.40001080156551644,-0.4,1.0,0.0,250.0,563.0,0.0,0,787.0,1
1460,1460,-0.3136384668297064,-0.3,1.0,0.0,399.0,572.0,0.0,0,769.0,1
1461,1461,-0.31489637575088725,-0.3,1.0,0.0,261.0,663.0,0.0,0,1426.0,1
1462,1462,-0.12665181799554492,-0.1,0.0,1.0,289.0,949.0,1.0,0,1762.0,1
1463,1463,-0.8556519091373864,-0.9,1.0,0.0,462.0,679.0,0.0,0,389.0,1
1464,1464,0.1481701113435182,0.1,0.0,0.0,472.0,782.0,0.0,1,1746.0,1
1465,1465,0.2539662290915642,0.3,1.0,1.0,451.0,847.0,0.0,0,1552.0,0
1466,1466,0.17795597768552185,0.2,1.0,1.0,458.0,795.0,1.0,1,1747.0,1
1467,1467,-0.3642613205218439,-0.4,0.0,1.0,290.0,807.0,1.0,0,1903.0,1
1468,1468,-0.4974308768044822,-0.5,0.0,1.0,352.0,602.0,0.0,1,2046.0,0
1469,1469,-0.4970268291726145,-0.5,1.0,0.0,441.0,646.0,0.0,0,1163.0,1
1470,1470,-0.22261776120616483,-0.2,1.0,0.0,427.0,655.0,0.0,0,1918.0,1
1471,1471,0.2485434323072061,0.2,1.0,1.0,358.0,963.0,1.0,1,1679.0,1
1472,1472,-0.8499160056672139,-0.8,1.0,0.0,304.0,838.0,1.0,1,-162.0,0
1473,1473,-0.060121689759783825,-0.1,0.0,1.0,297.0,828.0,1.0,0,1225.0,1
1474,1474,-0.44849167753421826,-0.4,1.0,0.0,436.0,960.0,0.0,0,1604.0,1
1475,1475,-0.22346920095233758,-0.2,1.0,0.0,265.0,986.0,1.0,1,1749.0,0
