,trial,coherence,coherence_bin,green_side,correct_side,target_onset,checker_onset,decision,green_decision,decision_time,correct_decision
0,0,0.6176827225074083,0.6,1.0,1.0,321.0,545.0,1.0,1,284.0,1
1,1,0.09926294930410717,0.1,0.0,0.0,429.0,500.0,0.0,1,821.0,1
2,2,0.21086651592512473,0.2,0.0,0.0,417.0,549.0,0.0,1,564.0,1
3,3,-0.26254550497281115,-0.3,0.0,1.0,491.0,917.0,1.0,0,312.0,1
4,4,-0.08470781409551797,-0.1,1.0,0.0,497.0,923.0,1.0,1,1310.0,0
5,5,-0.7425982105934037,-0.7,1.0,0.0,400.0,982.0,0.0,0,118.0,1
6,6,-0.35122539693266,-0.4,1.0,0.0,381.0,761.0,0.0,0,238.0,1
7,7,-0.00872145302490035,-0.0,1.0,0.0,492.0,762.0,0.0,0,396.0,1
8,8,-0.14878686806735786,-0.1,0.0,1.0,450.0,625.0,1.0,0,855.0,1
9,9,-0.02784212463816438,-0.0,0.0,1.0,459.0,818.0,0.0,1,263.0,0
10,10,-0.8871996435799986,-0.9,0.0,1.0,316.0,683.0,1.0,0,361.0,1
11,11,-0.8227600389306865,-0.8,1.0,0.0,315.0,776.0,0.0,0,169.0,1
12,12,0.890933103584049,0.9,1.0,1.0,344.0,742.0,1.0,1,294.0,1
13,13,0.020609798872034846,0.0,1.0,1.0,432.0,730.0,1.0,1,848.0,1
14,14,-0.1010779970915664,-0.1,0.0,1.0,321.0,575.0,1.0,0,674.0,1
15,15,0.20452213131455899,0.2,1.0,1.0,319.0,976.0,1.0,1,345.0,1
16,16,0.1789692250613365,0.2,1.0,1.0,497.0,824.0,0.0,0,-41.0,0
17,17,0.6522576250765472,0.7,1.0,1.0,493.0,628.0,1.0,1,249.0,1
18,18,0.4611973877252812,0.5,1.0,1.0,356.0,697.0,1.0,1,197.0,1
19,19,-0.06879361197898648,-0.1,0.0,1.0,356.0,891.0,1.0,0,383.0,1
20,20,-0.22770821852968048,-0.2,0.0,1.0,487.0,895.0,1.0,0,238.0,1
21,21,-0.4494689770655926,-0.4,1.0,0.0,329.0,524.0,0.0,0,177.0,1
22,22,-0.3379331900714534,-0.3,0.0,1.0,383.0,750.0,1.0,0,437.0,1
23,23,-0.74331865885116,-0.7,1.0,0.0,362.0,891.0,0.0,0,127.0,1
24,24,0.2413978297934377,0.2,1.0,1.0,347.0,729.0,1.0,1,414.0,1
25,25,-0.3803467873503794,-0.4,1.0,0.0,391.0,789.0,0.0,0,250.0,1
26,26,-0.6110422650597527,-0.6,0.0,1.0,270.0,516.0,1.0,0,354.0,1
27,27,-0.5377065712106768,-0.5,1.0,0.0,279.0,515.0,0.0,0,386.0,1
28,28,0.6473118496850329,0.6,0.0,0.0,356.0,609.0,0.0,1,325.0,1
29,29,-0.17112169954654322,-0.2,1.0,0.0,443.0,557.0,0.0,0,650.0,1
30,30,0.756747996785558,0.8,0.0,0.0,401.0,923.0,0.0,1,346.0,1
31,31,0.03978611037737767,0.0,1.0,1.0,451.0,900.0,1.0,1,629.0,1
32,32,0.3933825573038773,0.4,1.0,1.0,350.0,809.0,1.0,1,431.0,1
33,33,0.3599607911411532,0.4,1.0,1.0,422.0,999.0,1.0,1,169.0,1
34,34,0.8627637813489998,0.9,0.0,0.0,307.0,542.0,0.0,1,251.0,1
35,35,-0.28965784683089757,-0.3,0.0,1.0,472.0,908.0,1.0,0,370.0,1
36,36,-0.16744510577624216,-0.2,0.0,1.0,282.0,932.0,1.0,0,446.0,1
37,37,-0.4700526044419184,-0.5,1.0,0.0,321.0,846.0,0.0,0,173.0,1
38,38,-0.7843291775785637,-0.8,1.0,0.0,292.0,666.0,0.0,0,202.0,1
39,39,-0.14746199401029625,-0.1,1.0,0.0,297.0,658.0,0.0,0,405.0,1
40,40,0.5910675100256383,0.6,0.0,0.0,482.0,941.0,0.0,1,117.0,1
41,41,-0.25050553411442333,-0.3,1.0,0.0,277.0,512.0,0.0,0,291.0,1
42,42,0.7803995405357408,0.8,1.0,1.0,316.0,516.0,1.0,1,268.0,1
43,43,-0.2444558163944638,-0.2,0.0,1.0,317.0,606.0,1.0,0,607.0,1
44,44,-0.15685294165924157,-0.2,1.0,0.0,298.0,860.0,0.0,0,302.0,1
45,45,-0.18980474055221863,-0.2,0.0,1.0,305.0,506.0,1.0,0,599.0,1
46,46,0.3927545793397932,0.4,1.0,1.0,379.0,898.0,1.0,1,213.0,1
47,47,-0.1645455072870694,-0.2,0.0,1.0,364.0,668.0,1.0,0,698.0,1
48,48,-0.16329656905054635,-0.2,0.0,1.0,348.0,540.0,1.0,0,802.0,1
49,49,0.0828162375385636,0.1,0.0,0.0,338.0,523.0,0.0,1,409.0,1
50,50,0.03492857748267353,0.0,1.0,1.0,417.0,881.0,0.0,0,212.0,0
51,51,-0.1555861682099916,-0.2,1.0,0.0,262.0,902.0,0.0,0,26.0,1
52,52,-0.3298098277501672,-0.3,1.0,0.0,286.0,597.0,0.0,0,227.0,1
53,53,-0.41605480397210115,-0.4,1.0,0.0,407.0,969.0,0.0,0,164.0,1
54,54,-0.14596851156594248,-0.1,0.0,1.0,364.0,982.0,1.0,0,84.0,1
55,55,-0.8821503208137118,-0.9,0.0,1.0,276.0,966.0,1.0,0,78.0,1
56,56,0.4838423929600427,0.5,1.0,1.0,345.0,695.0,1.0,1,180.0,1
57,57,-0.15663613523953257,-0.2,0.0,1.0,378.0,542.0,1.0,0,680.0,1
58,58,0.45182914433433063,0.5,0.0,0.0,319.0,960.0,0.0,1,271.0,1
59,59,0.1883658021059974,0.2,0.0,0.0,385.0,771.0,0.0,1,284.0,1
60,60,-0.5330748573083398,-0.5,1.0,0.0,492.0,938.0,0.0,0,-20.0,1
61,61,0.593628873617919,0.6,1.0,1.0,346.0,830.0,1.0,1,434.0,1
62,62,0.02950843746101106,0.0,0.0,0.0,403.0,722.0,0.0,1,1875.0,1
63,63,0.37842769099605944,0.4,1.0,1.0,442.0,673.0,1.0,1,195.0,1
64,64,-0.45682407493909627,-0.5,1.0,0.0,311.0,856.0,0.0,0,343.0,1
65,65,0.1879084039305844,0.2,0.0,0.0,359.0,920.0,0.0,1,141.0,1
66,66,0.8692729952739481,0.9,1.0,1.0,315.0,745.0,1.0,1,190.0,1
67,67,-0.5696656730884513,-0.6,1.0,0.0,479.0,793.0,0.0,0,128.0,1
68,68,-0.7857331796938025,-0.8,0.0,1.0,385.0,547.0,1.0,0,168.0,1
69,69,0.6142914644265561,0.6,1.0,1.0,287.0,619.0,1.0,1,214.0,1
70,70,-0.7517233066082128,-0.8,0.0,1.0,385.0,890.0,1.0,0,145.0,1
71,71,0.7807013633811534,0.8,0.0,0.0,358.0,982.0,0.0,1,90.0,1
72,72,0.3836006713957477,0.4,0.0,0.0,314.0,603.0,0.0,1,213.0,1
73,73,-0.8087939006356347,-0.8,0.0,1.0,470.0,537.0,1.0,0,223.0,1
74,74,0.442516328472781,0.4,0.0,0.0,439.0,503.0,0.0,1,548.0,1
75,75,-0.4187079118184894,-0.4,1.0,0.0,301.0,711.0,0.0,0,228.0,1
76,76,-0.5062334017547292,-0.5,0.0,1.0,442.0,596.0,1.0,0,322.0,1
77,77,-0.17962301765796396,-0.2,1.0,0.0,449.0,541.0,0.0,0,440.0,1
78,78,-0.08814917364514763,-0.1,0.0,1.0,359.0,630.0,1.0,0,751.0,1
79,79,-0.8637639586375602,-0.9,1.0,0.0,412.0,644.0,0.0,0,154.0,1
80,80,0.11585022372285947,0.1,1.0,1.0,291.0,932.0,0.0,0,37.0,0
81,81,0.056163368993509155,0.1,1.0,1.0,463.0,531.0,1.0,1,966.0,1
82,82,-0.32992466063067727,-0.3,0.0,1.0,468.0,980.0,1.0,0,92.0,1
83,83,-0.5201223507146924,-0.5,0.0,1.0,370.0,563.0,1.0,0,347.0,1
84,84,0.5956498725754221,0.6,0.0,0.0,267.0,504.0,0.0,1,339.0,1
85,85,-0.5025291462016193,-0.5,0.0,1.0,440.0,671.0,1.0,0,429.0,1
86,86,-0.38788538502309955,-0.4,1.0,0.0,276.0,568.0,0.0,0,396.0,1
87,87,-0.10224518559274876,-0.1,0.0,1.0,387.0,757.0,1.0,0,516.0,1
88,88,-0.7032388080740736,-0.7,1.0,0.0,344.0,985.0,0.0,0,101.0,1
89,89,0.26153421348169836,0.3,1.0,1.0,399.0,739.0,1.0,1,142.0,1
90,90,0.25415628477756524,0.3,1.0,1.0,374.0,801.0,1.0,1,265.0,1
91,91,0.3628023269681572,0.4,0.0,0.0,472.0,581.0,0.0,1,537.0,1
92,92,0.6176863546402555,0.6,0.0,0.0,277.0,829.0,0.0,1,134.0,1
93,93,-0.6153565005864219,-0.6,0.0,1.0,418.0,989.0,1.0,0,83.0,1
94,94,-0.6915756651880681,-0.7,1.0,0.0,389.0,593.0,0.0,0,148.0,1
95,95,-0.6283561536879028,-0.6,0.0,1.0,404.0,916.0,1.0,0,180.0,1
96,96,0.7185509908171236,0.7,0.0,0.0,455.0,925.0,0.0,1,30.0,1
97,97,-0.7331539002715022,-0.7,1.0,0.0,492.0,910.0,0.0,0,178.0,1
98,98,-0.41124728072012007,-0.4,0.0,1.0,483.0,740.0,1.0,0,217.0,1
99,99,0.6686543129524983,0.7,1.0,1.0,373.0,839.0,1.0,1,318.0,1
100,100,0.7772949263581178,0.8,0.0,0.0,266.0,974.0,0.0,1,50.0,1
101,101,0.12548567874690553,0.1,1.0,1.0,397.0,549.0,1.0,1,474.0,1
102,102,0.14586885769672342,0.1,0.0,0.0,466.0,845.0,0.0,1,79.0,1
103,103,0.5383900325353109,0.5,0.0,0.0,368.0,937.0,0.0,1,55.0,1
104,104,0.20270452312351284,0.2,0.0,0.0,344.0,579.0,0.0,1,407.0,1
105,105,-0.5710606614489693,-0.6,0.0,1.0,329.0,778.0,1.0,0,243.0,1
106,106,0.6560353871288261,0.7,1.0,1.0,336.0,957.0,1.0,1,97.0,1
107,107,0.10516534909283759,0.1,0.0,0.0,348.0,883.0,0.0,1,439.0,1
108,108,0.7748972596019518,0.8,1.0,1.0,422.0,542.0,1.0,1,206.0,1
109,109,0.8831875170422642,0.9,1.0,1.0,387.0,854.0,1.0,1,169.0,1
110,110,-0.21568934259929884,-0.2,1.0,0.0,269.0,673.0,0.0,0,228.0,1
111,111,0.18820049073414136,0.2,0.0,0.0,271.0,693.0,0.0,1,336.0,1
112,112,0.5131396263597118,0.5,0.0,0.0,330.0,838.0,0.0,1,92.0,1
113,113,-0.6802749897049039,-0.7,0.0,1.0,444.0,663.0,1.0,0,353.0,1
114,114,-0.26970945442939265,-0.3,0.0,1.0,468.0,674.0,1.0,0,358.0,1
115,115,-0.4525980434170816,-0.5,0.0,1.0,424.0,808.0,1.0,0,158.0,1
116,116,-0.7783665866844429,-0.8,1.0,0.0,452.0,800.0,0.0,0,178.0,1
117,117,0.16651570799937365,0.2,0.0,0.0,384.0,763.0,0.0,1,333.0,1
118,118,0.0945288525917326,0.1,1.0,1.0,459.0,982.0,1.0,1,659.0,1
119,119,-0.26271728268969075,-0.3,1.0,0.0,405.0,788.0,0.0,0,207.0,1
120,120,0.079113766597256,0.1,0.0,0.0,424.0,571.0,0.0,1,625.0,1
121,121,-0.41729656884620114,-0.4,0.0,1.0,443.0,805.0,1.0,0,122.0,1
122,122,-0.7799649187512273,-0.8,0.0,1.0,452.0,910.0,1.0,0,178.0,1
123,123,0.09470308751938428,0.1,1.0,1.0,305.0,593.0,1.0,1,582.0,1
124,124,0.5628040235733535,0.6,1.0,1.0,373.0,665.0,1.0,1,152.0,1
125,125,0.2308420587355161,0.2,1.0,1.0,407.0,558.0,1.0,1,485.0,1
126,126,0.5979649160040653,0.6,0.0,0.0,457.0,908.0,0.0,1,115.0,1
127,127,-0.5255544838801403,-0.5,1.0,0.0,481.0,637.0,0.0,0,352.0,1
128,128,-0.6894901916820763,-0.7,1.0,0.0,338.0,771.0,0.0,0,141.0,1
129,129,0.62378081144058,0.6,1.0,1.0,252.0,633.0,1.0,1,315.0,1
130,130,-0.1756910165368618,-0.2,0.0,1.0,358.0,800.0,1.0,0,332.0,1
131,131,-0.5913644366538997,-0.6,0.0,1.0,372.0,669.0,1.0,0,359.0,1
132,132,0.4968103509771783,0.5,1.0,1.0,461.0,648.0,1.0,1,161.0,1
133,133,0.17380044955218066,0.2,1.0,1.0,390.0,761.0,1.0,1,409.0,1
134,134,0.21374652569215502,0.2,0.0,0.0,256.0,724.0,0.0,1,380.0,1
135,135,0.6286270498907619,0.6,0.0,0.0,267.0,801.0,0.0,1,252.0,1
136,136,0.067837399674602,0.1,1.0,1.0,337.0,842.0,1.0,1,321.0,1
137,137,-0.21872621864699615,-0.2,0.0,1.0,341.0,693.0,1.0,0,486.0,1
138,138,0.003618355986580335,0.0,1.0,1.0,276.0,835.0,1.0,1,1169.0,1
139,139,0.3906918817703272,0.4,0.0,0.0,307.0,745.0,0.0,1,128.0,1
140,140,-0.47452003087661926,-0.5,0.0,1.0,254.0,930.0,1.0,0,126.0,1
141,141,-0.8908788139750374,-0.9,1.0,0.0,393.0,531.0,0.0,0,246.0,1
142,142,0.11792063602411174,0.1,1.0,1.0,336.0,890.0,1.0,1,94.0,1
143,143,-0.8973396289551272,-0.9,1.0,0.0,433.0,876.0,0.0,0,211.0,1
144,144,0.7165772171737396,0.7,0.0,0.0,340.0,948.0,0.0,1,192.0,1
145,145,0.12345906039704102,0.1,0.0,0.0,325.0,615.0,0.0,1,470.0,1
146,146,0.10951320633455264,0.1,1.0,1.0,288.0,641.0,1.0,1,391.0,1
147,147,-0.45819025233991706,-0.5,1.0,0.0,331.0,708.0,0.0,0,381.0,1
148,148,0.003495505984871916,0.0,1.0,1.0,329.0,966.0,1.0,1,995.0,1
149,149,-0.6729045466802168,-0.7,1.0,0.0,319.0,797.0,0.0,0,144.0,1
150,150,0.5281306293901952,0.5,0.0,0.0,420.0,728.0,0.0,1,492.0,1
151,151,0.1717490769750637,0.2,0.0,0.0,397.0,645.0,0.0,1,528.0,1
152,152,-0.6365158335718886,-0.6,0.0,1.0,356.0,716.0,1.0,0,238.0,1
153,153,0.6552783499106599,0.7,1.0,1.0,410.0,572.0,1.0,1,228.0,1
154,154,0.3734600357771235,0.4,1.0,1.0,264.0,852.0,1.0,1,184.0,1
155,155,-0.6254126287010646,-0.6,1.0,0.0,408.0,707.0,0.0,0,515.0,1
156,156,0.6768105955162046,0.7,1.0,1.0,375.0,857.0,1.0,1,188.0,1
157,157,-0.2940232579885039,-0.3,0.0,1.0,380.0,662.0,1.0,0,268.0,1
158,158,-0.6034220114783759,-0.6,1.0,0.0,347.0,982.0,0.0,0,121.0,1
159,159,0.5997816690100907,0.6,0.0,0.0,358.0,598.0,0.0,1,264.0,1
160,160,-0.33998295429055825,-0.3,0.0,1.0,369.0,738.0,1.0,0,713.0,1
161,161,-0.8223226506229341,-0.8,1.0,0.0,406.0,564.0,0.0,0,250.0,1
162,162,0.07440487065562362,0.1,0.0,0.0,478.0,696.0,0.0,1,1026.0,1
163,163,0.6397447513873783,0.6,1.0,1.0,279.0,925.0,1.0,1,156.0,1
164,164,0.4252855858546215,0.4,0.0,0.0,414.0,685.0,0.0,1,211.0,1
165,165,0.2807828633505395,0.3,1.0,1.0,276.0,965.0,1.0,1,99.0,1
166,166,0.848713980624516,0.8,1.0,1.0,301.0,553.0,1.0,1,226.0,1
167,167,0.2478677023831023,0.2,1.0,1.0,330.0,778.0,1.0,1,282.0,1
168,168,-0.8791414707183094,-0.9,1.0,0.0,476.0,783.0,0.0,0,221.0,1
169,169,0.45704762704082047,0.5,1.0,1.0,470.0,999.0,1.0,1,231.0,1
170,170,0.17470668977148296,0.2,1.0,1.0,444.0,968.0,1.0,1,258.0,1
171,171,0.1882584789252576,0.2,0.0,0.0,427.0,878.0,0.0,1,515.0,1
172,172,0.20713169577202295,0.2,1.0,1.0,370.0,818.0,1.0,1,282.0,1
173,173,0.7987954302081791,0.8,0.0,0.0,467.0,749.0,0.0,1,254.0,1
174,174,0.8767724174993569,0.9,0.0,0.0,264.0,832.0,0.0,1,54.0,1
175,175,-0.042840358319593874,-0.0,0.0,1.0,408.0,929.0,1.0,0,363.0,1
176,176,-0.7251222376009994,-0.7,1.0,0.0,476.0,994.0,0.0,0,50.0,1
177,177,0.8441432244984629,0.8,0.0,0.0,339.0,866.0,0.0,1,195.0,1
178,178,0.35392241895916066,0.4,0.0,0.0,292.0,972.0,0.0,1,306.0,1
179,179,0.8168858284923041,0.8,0.0,0.0,357.0,696.0,0.0,1,157.0,1
180,180,0.5153943589879911,0.5,1.0,1.0,299.0,625.0,1.0,1,196.0,1
181,181,0.42861210903853875,0.4,1.0,1.0,342.0,812.0,1.0,1,306.0,1
182,182,0.07528823743707103,0.1,0.0,0.0,390.0,606.0,0.0,1,764.0,1
183,183,-0.37450385359588756,-0.4,0.0,1.0,422.0,705.0,1.0,0,443.0,1
184,184,0.8829385517584899,0.9,0.0,0.0,298.0,681.0,0.0,1,291.0,1
185,185,0.5428004266219589,0.5,0.0,0.0,338.0,866.0,0.0,1,216.0,1
186,186,0.7021962934713656,0.7,1.0,1.0,356.0,959.0,1.0,1,55.0,1
187,187,0.8449392800192314,0.8,0.0,0.0,476.0,500.0,0.0,1,424.0,1
188,188,-0.057586859339404994,-0.1,1.0,0.0,357.0,888.0,1.0,1,1505.0,0
189,189,0.052178787802428794,0.1,0.0,0.0,428.0,833.0,0.0,1,619.0,1
190,190,-0.38632476139968785,-0.4,1.0,0.0,322.0,639.0,0.0,0,299.0,1
191,191,0.7633777977498012,0.8,1.0,1.0,465.0,926.0,1.0,1,39.0,1
192,192,0.4083373430020337,0.4,0.0,0.0,272.0,510.0,0.0,1,458.0,1
193,193,0.5222565093866068,0.5,0.0,0.0,430.0,840.0,0.0,1,180.0,1
194,194,0.2679466058652836,0.3,0.0,0.0,490.0,839.0,0.0,1,201.0,1
195,195,0.028989653623616496,0.0,0.0,0.0,335.0,838.0,0.0,1,957.0,1
196,196,-0.6586384113771985,-0.7,0.0,1.0,341.0,554.0,1.0,0,205.0,1
197,197,-0.0057722562289689305,-0.0,0.0,1.0,323.0,839.0,1.0,0,1068.0,1
198,198,-0.15068647592560047,-0.2,1.0,0.0,475.0,696.0,0.0,0,419.0,1
199,199,-0.06806118134239858,-0.1,1.0,0.0,291.0,836.0,0.0,0,423.0,1
200,200,-0.6850797944732561,-0.7,0.0,1.0,252.0,751.0,1.0,0,507.0,1
201,201,-0.10376170122037609,-0.1,0.0,1.0,339.0,825.0,1.0,0,576.0,1
202,202,-0.8158077100679756,-0.8,0.0,1.0,468.0,662.0,1.0,0,340.0,1
203,203,0.2918557765366224,0.3,0.0,0.0,296.0,764.0,0.0,1,170.0,1
204,204,0.863847816093373,0.9,0.0,0.0,402.0,530.0,0.0,1,248.0,1
205,205,0.34449129870461637,0.3,1.0,1.0,489.0,794.0,1.0,1,177.0,1
206,206,0.720679931624527,0.7,0.0,0.0,380.0,764.0,0.0,1,136.0,1
207,207,-0.30650506081471207,-0.3,0.0,1.0,372.0,704.0,1.0,0,234.0,1
208,208,0.8971662158097727,0.9,1.0,1.0,254.0,931.0,1.0,1,115.0,1
209,209,-0.4199523218469201,-0.4,1.0,0.0,337.0,778.0,0.0,0,115.0,1
210,210,0.317590331859711,0.3,0.0,0.0,471.0,513.0,0.0,1,266.0,1
211,211,0.4810228919126326,0.5,0.0,0.0,454.0,516.0,0.0,1,360.0,1
212,212,-0.7012241781690872,-0.7,1.0,0.0,404.0,750.0,0.0,0,286.0,1
213,213,-0.5553641361579389,-0.6,1.0,0.0,391.0,835.0,0.0,0,104.0,1
214,214,-0.09708692406507302,-0.1,0.0,1.0,318.0,776.0,1.0,0,496.0,1
215,215,0.11883062987549609,0.1,0.0,0.0,278.0,987.0,0.0,1,445.0,1
216,216,0.3418045454586919,0.3,1.0,1.0,488.0,953.0,1.0,1,139.0,1
217,217,0.8099931874105181,0.8,0.0,0.0,445.0,668.0,0.0,1,167.0,1
218,218,0.3528717349650349,0.4,1.0,1.0,346.0,614.0,1.0,1,210.0,1
219,219,0.8679014651427853,0.9,0.0,0.0,346.0,718.0,0.0,1,136.0,1
220,220,-0.8248350316800733,-0.8,0.0,1.0,351.0,926.0,1.0,0,83.0,1
221,221,0.19001460640131607,0.2,1.0,1.0,262.0,802.0,1.0,1,406.0,1
222,222,-0.42303822947500286,-0.4,1.0,0.0,353.0,709.0,0.0,0,248.0,1
223,223,0.4357864002412234,0.4,0.0,0.0,262.0,673.0,0.0,1,345.0,1
224,224,-0.48462541556560496,-0.5,1.0,0.0,401.0,963.0,0.0,0,126.0,1
225,225,-0.8514362887643261,-0.9,1.0,0.0,426.0,609.0,0.0,0,175.0,1
226,226,-0.5181731589792877,-0.5,0.0,1.0,353.0,733.0,1.0,0,164.0,1
227,227,0.19926211499255742,0.2,0.0,0.0,272.0,935.0,0.0,1,433.0,1
228,228,-0.16390767928962457,-0.2,0.0,1.0,282.0,811.0,1.0,0,527.0,1
229,229,0.12354154580325505,0.1,0.0,0.0,304.0,662.0,0.0,1,314.0,1
230,230,0.6255655870135065,0.6,1.0,1.0,312.0,520.0,1.0,1,328.0,1
231,231,-0.49575806515556836,-0.5,1.0,0.0,472.0,908.0,0.0,0,230.0,1
232,232,-0.8582440176431164,-0.9,1.0,0.0,250.0,813.0,0.0,0,137.0,1
233,233,-0.23974922671187093,-0.2,1.0,0.0,371.0,730.0,0.0,0,509.0,1
234,234,0.34646444734207626,0.3,0.0,0.0,349.0,551.0,0.0,1,460.0,1
235,235,-0.05896088757475404,-0.1,1.0,0.0,467.0,954.0,0.0,0,319.0,1
236,236,-0.08222287631590608,-0.1,1.0,0.0,443.0,844.0,0.0,0,1443.0,1
237,237,-0.20747457814613324,-0.2,1.0,0.0,478.0,586.0,0.0,0,546.0,1
238,238,0.7614086441559006,0.8,1.0,1.0,299.0,684.0,1.0,1,177.0,1
239,239,-0.04525007142716708,-0.0,0.0,1.0,458.0,943.0,1.0,0,1169.0,1
240,240,-0.6806272746284523,-0.7,1.0,0.0,466.0,611.0,0.0,0,313.0,1
241,241,0.8214713748537704,0.8,0.0,0.0,318.0,509.0,0.0,1,343.0,1
242,242,0.4766395548947965,0.5,1.0,1.0,482.0,940.0,1.0,1,128.0,1
243,243,0.777541243217296,0.8,1.0,1.0,264.0,618.0,1.0,1,218.0,1
244,244,-0.5710770024156404,-0.6,0.0,1.0,342.0,978.0,1.0,0,50.0,1
245,245,-0.7693390275825696,-0.8,0.0,1.0,321.0,878.0,1.0,0,121.0,1
246,246,0.815065573445603,0.8,0.0,0.0,445.0,923.0,0.0,1,72.0,1
247,247,-0.6992020989955786,-0.7,0.0,1.0,355.0,653.0,1.0,0,112.0,1
248,248,0.7344032767025709,0.7,1.0,1.0,435.0,521.0,1.0,1,424.0,1
249,249,-0.7055924208727758,-0.7,1.0,0.0,300.0,697.0,0.0,0,293.0,1
250,250,-0.07312820075139237,-0.1,1.0,0.0,477.0,946.0,0.0,0,1457.0,1
251,251,-0.7347583157014542,-0.7,1.0,0.0,430.0,670.0,0.0,0,130.0,1
252,252,0.5614066697646828,0.6,0.0,0.0,489.0,740.0,0.0,1,181.0,1
253,253,-0.6697576434541752,-0.7,1.0,0.0,342.0,503.0,0.0,0,305.0,1
254,254,-0.8860983382294078,-0.9,0.0,1.0,324.0,988.0,1.0,0,108.0,1
255,255,0.7287129791324077,0.7,0.0,0.0,424.0,949.0,0.0,1,147.0,1
256,256,0.2853664954515508,0.3,0.0,0.0,268.0,546.0,0.0,1,506.0,1
257,257,-0.38243449692452536,-0.4,0.0,1.0,294.0,518.0,1.0,0,568.0,1
258,258,-0.3273929236289429,-0.3,0.0,1.0,251.0,763.0,1.0,0,286.0,1
259,259,-0.4786384717400372,-0.5,0.0,1.0,421.0,849.0,1.0,0,200.0,1
260,260,0.06717679406361565,0.1,1.0,1.0,359.0,771.0,1.0,1,580.0,1
261,261,0.7376107157514359,0.7,1.0,1.0,277.0,889.0,1.0,1,54.0,1
262,262,-0.5559301296957406,-0.6,1.0,0.0,459.0,833.0,0.0,0,118.0,1
263,263,-0.8737237352891063,-0.9,1.0,0.0,314.0,809.0,0.0,0,77.0,1
264,264,-0.11510147930039283,-0.1,1.0,0.0,444.0,751.0,0.0,0,355.0,1
265,265,-0.5479137904220404,-0.5,1.0,0.0,422.0,996.0,0.0,0,92.0,1
266,266,-0.6080151897391138,-0.6,0.0,1.0,489.0,795.0,1.0,0,606.0,1
267,267,-0.715813863398342,-0.7,1.0,0.0,394.0,848.0,0.0,0,278.0,1
268,268,0.317637479854857,0.3,0.0,0.0,337.0,710.0,0.0,1,553.0,1
269,269,0.5447467339891864,0.5,1.0,1.0,363.0,666.0,1.0,1,151.0,1
270,270,0.3056637276270192,0.3,0.0,0.0,285.0,573.0,0.0,1,352.0,1
271,271,0.6864545959691198,0.7,0.0,0.0,423.0,757.0,0.0,1,170.0,1
272,272,-0.02114939871367072,-0.0,0.0,1.0,259.0,725.0,0.0,1,2016.0,0
273,273,0.0513572428604101,0.1,0.0,0.0,288.0,507.0,0.0,1,485.0,1
274,274,-0.6613049956895105,-0.7,1.0,0.0,426.0,578.0,0.0,0,126.0,1
275,275,-0.5561412225247726,-0.6,1.0,0.0,344.0,897.0,0.0,0,109.0,1
276,276,0.6918354301751616,0.7,0.0,0.0,447.0,898.0,0.0,1,125.0,1
277,277,0.6835300082896713,0.7,0.0,0.0,402.0,857.0,0.0,1,111.0,1
278,278,0.8853960179902493,0.9,1.0,1.0,330.0,503.0,1.0,1,457.0,1
279,279,-0.02555424967920683,-0.0,0.0,1.0,444.0,931.0,1.0,0,1625.0,1
280,280,-0.09942314999193214,-0.1,1.0,0.0,294.0,745.0,0.0,0,281.0,1
281,281,-0.6664091081187891,-0.7,1.0,0.0,463.0,751.0,0.0,0,226.0,1
282,282,-0.6816599582501505,-0.7,1.0,0.0,383.0,592.0,0.0,0,245.0,1
283,283,0.14164024867552427,0.1,0.0,0.0,253.0,997.0,0.0,1,430.0,1
284,284,0.03453535854090717,0.0,1.0,1.0,411.0,699.0,1.0,1,1560.0,1
285,285,-0.4424478518811597,-0.4,0.0,1.0,488.0,812.0,1.0,0,170.0,1
286,286,0.007459850242216737,0.0,0.0,0.0,410.0,616.0,1.0,0,1974.0,0
287,287,0.2515714277021185,0.3,0.0,0.0,382.0,651.0,0.0,1,377.0,1
288,288,0.3016901656764509,0.3,1.0,1.0,309.0,947.0,1.0,1,-56.0,1
289,289,0.7790530210174235,0.8,0.0,0.0,484.0,676.0,0.0,1,170.0,1
290,290,-0.0801885622689571,-0.1,1.0,0.0,335.0,849.0,0.0,0,546.0,1
291,291,-0.8476098925379967,-0.8,1.0,0.0,295.0,991.0,0.0,0,104.0,1
292,292,-0.16360879123874184,-0.2,0.0,1.0,430.0,614.0,1.0,0,556.0,1
293,293,-0.6196106614902703,-0.6,0.0,1.0,252.0,900.0,1.0,0,108.0,1
294,294,0.15745060700712965,0.2,0.0,0.0,382.0,631.0,0.0,1,387.0,1
295,295,-0.7212441767568794,-0.7,1.0,0.0,411.0,515.0,0.0,0,434.0,1
296,296,-0.5476361645429051,-0.5,1.0,0.0,496.0,667.0,0.0,0,167.0,1
297,297,-0.6213534002315206,-0.6,0.0,1.0,357.0,609.0,1.0,0,434.0,1
298,298,0.17594297925601954,0.2,0.0,0.0,294.0,790.0,0.0,1,226.0,1
299,299,-0.02035220732952936,-0.0,0.0,1.0,312.0,525.0,1.0,0,593.0,1
300,300,0.30196877596898275,0.3,0.0,0.0,497.0,506.0,0.0,1,267.0,1
301,301,0.5323101189943175,0.5,1.0,1.0,473.0,841.0,1.0,1,206.0,1
302,302,-0.8938116496039034,-0.9,1.0,0.0,412.0,679.0,0.0,0,179.0,1
303,303,-0.613032839698805,-0.6,1.0,0.0,307.0,931.0,0.0,0,72.0,1
304,304,0.7063713614351975,0.7,1.0,1.0,281.0,581.0,1.0,1,208.0,1
305,305,-0.854911118594979,-0.9,0.0,1.0,312.0,725.0,1.0,0,523.0,1
306,306,-0.6202003686295994,-0.6,1.0,0.0,362.0,799.0,0.0,0,59.0,1
307,307,0.3431699644254921,0.3,1.0,1.0,467.0,735.0,1.0,1,328.0,1
308,308,-0.5447807581363193,-0.5,1.0,0.0,397.0,950.0,0.0,0,113.0,1
309,309,0.23839080434987647,0.2,0.0,0.0,323.0,528.0,0.0,1,289.0,1
310,310,0.20309151995583086,0.2,0.0,0.0,389.0,926.0,0.0,1,365.0,1
311,311,-0.4816508895245759,-0.5,0.0,1.0,363.0,887.0,1.0,0,270.0,1
312,312,0.14309610679941998,0.1,1.0,1.0,449.0,571.0,1.0,1,310.0,1
313,313,-0.7657950427873585,-0.8,0.0,1.0,257.0,746.0,1.0,0,337.0,1
314,314,-0.7426503927252127,-0.7,1.0,0.0,444.0,910.0,0.0,0,156.0,1
315,315,-0.7273977857402818,-0.7,0.0,1.0,274.0,662.0,1.0,0,214.0,1
316,316,-0.8272767971381115,-0.8,0.0,1.0,254.0,717.0,1.0,0,509.0,1
317,317,-0.16445722431481613,-0.2,1.0,0.0,389.0,891.0,0.0,0,600.0,1
318,318,0.3467004274582809,0.3,1.0,1.0,490.0,838.0,1.0,1,132.0,1
319,319,0.8461377804363964,0.8,0.0,0.0,282.0,583.0,0.0,1,145.0,1
320,320,-0.7853442463904945,-0.8,1.0,0.0,315.0,745.0,0.0,0,80.0,1
321,321,-0.13683832024230946,-0.1,1.0,0.0,385.0,923.0,0.0,0,332.0,1
322,322,0.172029007644115,0.2,1.0,1.0,367.0,881.0,1.0,1,232.0,1
323,323,0.3264841119112757,0.3,0.0,0.0,487.0,674.0,0.0,1,419.0,1
324,324,-0.7104480556491287,-0.7,1.0,0.0,362.0,592.0,0.0,0,136.0,1
325,325,0.6245221135998894,0.6,0.0,0.0,333.0,777.0,0.0,1,110.0,1
326,326,0.811510237363008,0.8,1.0,1.0,264.0,765.0,1.0,1,71.0,1
327,327,0.08613443962687706,0.1,1.0,1.0,273.0,982.0,1.0,1,545.0,1
328,328,0.17452022169187587,0.2,1.0,1.0,316.0,562.0,1.0,1,472.0,1
329,329,-0.2674994311949236,-0.3,0.0,1.0,251.0,653.0,1.0,0,676.0,1
330,330,0.13784126549710496,0.1,0.0,0.0,364.0,792.0,0.0,1,224.0,1
331,331,-0.05818371593468186,-0.1,0.0,1.0,381.0,886.0,1.0,0,1353.0,1
332,332,-0.6191572133426759,-0.6,0.0,1.0,333.0,524.0,1.0,0,313.0,1
333,333,-0.8158219957185795,-0.8,0.0,1.0,252.0,789.0,1.0,0,149.0,1
334,334,-0.664888433052695,-0.7,1.0,0.0,419.0,934.0,0.0,0,197.0,1
335,335,-0.688722651418661,-0.7,0.0,1.0,293.0,975.0,1.0,0,142.0,1
336,336,-0.12351048402352005,-0.1,0.0,1.0,379.0,591.0,1.0,0,710.0,1
337,337,-0.29054737072277803,-0.3,0.0,1.0,336.0,634.0,1.0,0,380.0,1
338,338,0.39229952420216174,0.4,0.0,0.0,358.0,798.0,0.0,1,244.0,1
339,339,-0.809695768818507,-0.8,1.0,0.0,305.0,518.0,0.0,0,267.0,1
340,340,0.6573818498962728,0.7,0.0,0.0,363.0,710.0,0.0,1,147.0,1
341,341,-0.4069466230445053,-0.4,1.0,0.0,340.0,782.0,0.0,0,208.0,1
342,342,-0.6412432608737553,-0.6,0.0,1.0,435.0,930.0,1.0,0,265.0,1
343,343,0.8024594715648877,0.8,1.0,1.0,485.0,687.0,1.0,1,168.0,1
344,344,0.7925311689493663,0.8,1.0,1.0,495.0,624.0,1.0,1,141.0,1
345,345,0.47239619306525904,0.5,0.0,0.0,269.0,657.0,0.0,1,294.0,1
346,346,-0.455314574159041,-0.5,0.0,1.0,304.0,859.0,1.0,0,257.0,1
347,347,0.776441949937594,0.8,0.0,0.0,361.0,750.0,0.0,1,209.0,1
348,348,-0.36588910591789336,-0.4,1.0,0.0,481.0,866.0,0.0,0,423.0,1
349,349,-0.731373949794404,-0.7,1.0,0.0,493.0,864.0,0.0,0,63.0,1
350,350,0.5478993185706463,0.5,1.0,1.0,460.0,607.0,1.0,1,333.0,1
351,351,-0.529957344138339,-0.5,1.0,0.0,411.0,524.0,0.0,0,435.0,1
352,352,-0.021673748278557614,-0.0,0.0,1.0,473.0,532.0,0.0,1,895.0,0
353,353,-0.5795738035988338,-0.6,1.0,0.0,368.0,990.0,0.0,0,142.0,1
354,354,0.8148518565482986,0.8,0.0,0.0,472.0,593.0,0.0,1,275.0,1
355,355,0.6825398958333818,0.7,0.0,0.0,268.0,843.0,0.0,1,159.0,1
356,356,0.27988479260857846,0.3,0.0,0.0,367.0,502.0,0.0,1,311.0,1
357,357,0.34889455426325877,0.3,1.0,1.0,260.0,886.0,1.0,1,294.0,1
358,358,-0.23115789135891784,-0.2,1.0,0.0,281.0,855.0,0.0,0,224.0,1
359,359,-0.29093407924116554,-0.3,1.0,0.0,437.0,589.0,0.0,0,354.0,1
360,360,-0.005588949869313242,-0.0,1.0,0.0,289.0,628.0,1.0,1,1333.0,0
361,361,-0.8759312182006301,-0.9,0.0,1.0,332.0,897.0,1.0,0,191.0,1
362,362,-0.3362211597922611,-0.3,0.0,1.0,400.0,778.0,1.0,0,382.0,1
363,363,-0.4594147205259752,-0.5,1.0,0.0,352.0,615.0,0.0,0,283.0,1
364,364,-0.7823407741341014,-0.8,0.0,1.0,417.0,854.0,1.0,0,129.0,1
365,365,-0.8032536837335273,-0.8,0.0,1.0,346.0,507.0,1.0,0,487.0,1
366,366,-0.08290280780439974,-0.1,0.0,1.0,259.0,610.0,1.0,0,971.0,1
367,367,0.7770637568204749,0.8,1.0,1.0,265.0,807.0,1.0,1,158.0,1
368,368,0.6390813515303878,0.6,0.0,0.0,287.0,878.0,0.0,1,125.0,1
369,369,0.5983920260854397,0.6,1.0,1.0,347.0,904.0,1.0,1,139.0,1
370,370,-0.42560638823942687,-0.4,1.0,0.0,319.0,774.0,0.0,0,137.0,1
371,371,0.8994324533542973,0.9,0.0,0.0,294.0,960.0,0.0,1,116.0,1
372,372,-0.20036755484374746,-0.2,0.0,1.0,401.0,517.0,1.0,0,822.0,1
373,373,0.09014833616297335,0.1,1.0,1.0,332.0,644.0,1.0,1,604.0,1
374,374,0.3162513446055709,0.3,1.0,1.0,449.0,761.0,1.0,1,270.0,1
375,375,0.25633546288754505,0.3,0.0,0.0,332.0,812.0,0.0,1,216.0,1
376,376,-0.5577964659308192,-0.6,0.0,1.0,377.0,625.0,1.0,0,408.0,1
377,377,0.050979956236619106,0.1,1.0,1.0,411.0,958.0,1.0,1,891.0,1
378,378,0.8769543533479062,0.9,1.0,1.0,356.0,571.0,1.0,1,173.0,1
379,379,0.0017237889728219935,0.0,0.0,0.0,350.0,669.0,1.0,0,1981.0,0
380,380,0.24913400824954113,0.2,0.0,0.0,311.0,957.0,0.0,1,212.0,1
381,381,0.6946825532292696,0.7,0.0,0.0,425.0,842.0,0.0,1,123.0,1
382,382,-0.6006306925361217,-0.6,1.0,0.0,304.0,533.0,0.0,0,393.0,1
383,383,-0.4189853093703488,-0.4,1.0,0.0,432.0,801.0,0.0,0,67.0,1
384,384,0.17042301141877958,0.2,1.0,1.0,366.0,581.0,1.0,1,413.0,1
385,385,0.8535231368949926,0.9,0.0,0.0,469.0,822.0,0.0,1,159.0,1
386,386,-0.3950101505994502,-0.4,1.0,0.0,277.0,827.0,0.0,0,216.0,1
387,387,0.8637179440642605,0.9,1.0,1.0,291.0,702.0,1.0,1,227.0,1
388,388,-0.24281023301504545,-0.2,1.0,0.0,311.0,922.0,0.0,0,377.0,1
389,389,0.0921976736753678,0.1,1.0,1.0,306.0,757.0,1.0,1,437.0,1
390,390,0.759564270420879,0.8,1.0,1.0,300.0,738.0,1.0,1,222.0,1
391,391,-0.1659562042847348,-0.2,0.0,1.0,431.0,789.0,1.0,0,370.0,1
392,392,0.6548054820585286,0.7,1.0,1.0,359.0,769.0,1.0,1,202.0,1
393,393,-0.5699300669093454,-0.6,0.0,1.0,348.0,741.0,1.0,0,181.0,1
394,394,-0.4640926583611628,-0.5,0.0,1.0,480.0,813.0,1.0,0,247.0,1
395,395,0.04281314501997169,0.0,0.0,0.0,261.0,820.0,0.0,1,659.0,1
396,396,0.3665023781481488,0.4,0.0,0.0,264.0,655.0,0.0,1,141.0,1
397,397,0.286045859158219,0.3,0.0,0.0,324.0,601.0,0.0,1,475.0,1
398,398,-0.686766073726792,-0.7,1.0,0.0,307.0,542.0,0.0,0,381.0,1
399,399,-0.1943052569524888,-0.2,1.0,0.0,273.0,793.0,0.0,0,424.0,1
400,400,0.21982685642201705,0.2,0.0,0.0,308.0,904.0,0.0,1,328.0,1
401,401,-0.7314539891676913,-0.7,0.0,1.0,401.0,582.0,1.0,0,287.0,1
402,402,-0.2936538512854233,-0.3,1.0,0.0,416.0,780.0,0.0,0,214.0,1
403,403,-0.8171656009444541,-0.8,1.0,0.0,361.0,955.0,0.0,0,164.0,1
404,404,-0.44846678292014425,-0.4,1.0,0.0,406.0,751.0,0.0,0,263.0,1
405,405,0.23472833580154895,0.2,1.0,1.0,483.0,846.0,1.0,1,191.0,1
406,406,-0.6316650096254611,-0.6,1.0,0.0,423.0,762.0,0.0,0,105.0,1
407,407,-0.7535133978330395,-0.8,0.0,1.0,473.0,963.0,1.0,0,174.0,1
408,408,0.40410369919809563,0.4,1.0,1.0,491.0,771.0,1.0,1,288.0,1
409,409,-0.23902024766168628,-0.2,1.0,0.0,280.0,719.0,0.0,0,411.0,1
410,410,-0.3221141366702447,-0.3,0.0,1.0,461.0,575.0,1.0,0,664.0,1
411,411,-0.8440144739472116,-0.8,1.0,0.0,430.0,859.0,0.0,0,-49.0,1
412,412,0.7088629093142792,0.7,1.0,1.0,481.0,990.0,1.0,1,259.0,1
413,413,-0.8921830760827845,-0.9,0.0,1.0,386.0,799.0,1.0,0,175.0,1
414,414,-0.37502783722215105,-0.4,0.0,1.0,405.0,655.0,1.0,0,200.0,1
415,415,-0.873029271387955,-0.9,0.0,1.0,377.0,735.0,1.0,0,248.0,1
416,416,-0.41595496896012335,-0.4,0.0,1.0,367.0,880.0,1.0,0,283.0,1
417,417,0.7875622143015722,0.8,1.0,1.0,339.0,755.0,1.0,1,116.0,1
418,418,0.39635647658943796,0.4,0.0,0.0,396.0,816.0,0.0,1,188.0,1
419,419,-0.762167956992785,-0.8,0.0,1.0,393.0,819.0,1.0,0,388.0,1
420,420,0.04393998452546721,0.0,0.0,0.0,399.0,624.0,0.0,1,837.0,1
421,421,-0.44720299366698374,-0.4,1.0,0.0,489.0,882.0,0.0,0,179.0,1
422,422,0.678758173843722,0.7,0.0,0.0,257.0,919.0,0.0,1,114.0,1
423,423,-0.3501851965369801,-0.4,1.0,0.0,312.0,508.0,0.0,0,350.0,1
424,424,0.3130280204919237,0.3,1.0,1.0,264.0,641.0,1.0,1,675.0,1
425,425,-0.27331262302229875,-0.3,0.0,1.0,306.0,967.0,1.0,0,237.0,1
426,426,0.5931477661891168,0.6,1.0,1.0,441.0,550.0,1.0,1,349.0,1
427,427,-0.6104202619823352,-0.6,1.0,0.0,431.0,565.0,0.0,0,274.0,1
428,428,-0.7693750186078294,-0.8,0.0,1.0,442.0,502.0,1.0,0,266.0,1
429,429,-0.12656278703739343,-0.1,0.0,1.0,441.0,829.0,1.0,0,550.0,1
430,430,0.13403453237444485,0.1,0.0,0.0,304.0,625.0,0.0,1,571.0,1
431,431,-0.6150887661739624,-0.6,0.0,1.0,481.0,720.0,1.0,0,189.0,1
432,432,-0.3602105299903825,-0.4,0.0,1.0,281.0,562.0,1.0,0,607.0,1
433,433,0.4267705233322444,0.4,0.0,0.0,462.0,532.0,0.0,1,246.0,1
434,434,0.023138334758419532,0.0,1.0,1.0,258.0,751.0,1.0,1,1991.0,1
435,435,0.6619473013769471,0.7,1.0,1.0,392.0,947.0,1.0,1,91.0,1
436,436,-0.5573571634031318,-0.6,1.0,0.0,368.0,907.0,0.0,0,225.0,1
437,437,-0.09326190234210452,-0.1,1.0,0.0,391.0,651.0,0.0,0,748.0,1
438,438,0.0797459329836544,0.1,1.0,1.0,424.0,611.0,1.0,1,445.0,1
439,439,0.040681742252392294,0.0,0.0,0.0,465.0,637.0,0.0,1,1898.0,1
440,440,0.6549645170648289,0.7,0.0,0.0,365.0,644.0,0.0,1,151.0,1
441,441,-0.2909158207065826,-0.3,1.0,0.0,322.0,605.0,0.0,0,383.0,1
442,442,0.511713338801305,0.5,0.0,0.0,484.0,809.0,0.0,1,267.0,1
443,443,-0.021893886769690396,-0.0,1.0,0.0,391.0,802.0,0.0,0,1077.0,1
444,444,-0.39587630928320494,-0.4,1.0,0.0,313.0,597.0,0.0,0,560.0,1
445,445,-0.2797932424570495,-0.3,1.0,0.0,304.0,764.0,0.0,0,202.0,1
446,446,-0.664297380007701,-0.7,1.0,0.0,385.0,899.0,0.0,0,276.0,1
447,447,0.5417335131024869,0.5,1.0,1.0,361.0,957.0,1.0,1,142.0,1
448,448,0.37816217591400936,0.4,1.0,1.0,294.0,769.0,1.0,1,217.0,1
449,449,0.5993808526160439,0.6,0.0,0.0,339.0,845.0,0.0,1,116.0,1
450,450,0.648268058545837,0.6,1.0,1.0,485.0,814.0,1.0,1,141.0,1
451,451,-0.007756710259082977,-0.0,1.0,0.0,426.0,676.0,0.0,0,1898.0,1
452,452,-0.6085458300064917,-0.6,1.0,0.0,310.0,837.0,0.0,0,103.0,1
453,453,0.17656320444042473,0.2,1.0,1.0,491.0,872.0,1.0,1,227.0,1
454,454,-0.6374891621453924,-0.6,0.0,1.0,447.0,877.0,1.0,0,176.0,1
455,455,0.19899989072953417,0.2,0.0,0.0,345.0,583.0,0.0,1,322.0,1
456,456,-0.5081134070256255,-0.5,1.0,0.0,436.0,670.0,0.0,0,254.0,1
457,457,-0.1600192621178872,-0.2,1.0,0.0,314.0,966.0,0.0,0,190.0,1
458,458,0.2160170793498074,0.2,0.0,0.0,318.0,997.0,0.0,1,285.0,1
459,459,0.5453103852078215,0.5,0.0,0.0,484.0,529.0,0.0,1,337.0,1
460,460,0.7417270523173344,0.7,0.0,0.0,370.0,663.0,0.0,1,187.0,1
461,461,0.34806038805200246,0.3,0.0,0.0,322.0,822.0,0.0,1,126.0,1
462,462,0.6627026245733038,0.7,1.0,1.0,464.0,835.0,1.0,1,181.0,1
463,463,-0.3926677339237836,-0.4,0.0,1.0,469.0,968.0,1.0,0,263.0,1
464,464,0.3999960308949829,0.4,1.0,1.0,430.0,651.0,1.0,1,259.0,1
465,465,-0.6025736692203607,-0.6,0.0,1.0,479.0,617.0,1.0,0,264.0,1
466,466,-0.37422099597928515,-0.4,1.0,0.0,484.0,990.0,0.0,0,236.0,1
467,467,-0.5859163703339778,-0.6,1.0,0.0,332.0,775.0,0.0,0,123.0,1
468,468,0.1835527671633993,0.2,1.0,1.0,434.0,654.0,1.0,1,492.0,1
469,469,-0.377207849287853,-0.4,1.0,0.0,348.0,586.0,0.0,0,336.0,1
470,470,-0.5780233670999992,-0.6,0.0,1.0,306.0,506.0,1.0,0,718.0,1
471,471,0.31354932899539445,0.3,0.0,0.0,376.0,696.0,0.0,1,228.0,1
472,472,0.1949255539891629,0.2,0.0,0.0,472.0,786.0,0.0,1,262.0,1
473,473,0.4610741754430986,0.5,0.0,0.0,288.0,636.0,0.0,1,176.0,1
474,474,0.25757841783746815,0.3,0.0,0.0,496.0,650.0,0.0,1,354.0,1
475,475,-0.352068758357439,-0.4,1.0,0.0,307.0,823.0,0.0,0,150.0,1
476,476,-0.5263958799335946,-0.5,0.0,1.0,285.0,740.0,1.0,0,285.0,1
477,477,0.5569496004627245,0.6,0.0,0.0,455.0,590.0,0.0,1,205.0,1
478,478,-0.4153184761938288,-0.4,0.0,1.0,302.0,563.0,1.0,0,235.0,1
479,479,0.3397739264969123,0.3,0.0,0.0,442.0,775.0,0.0,1,223.0,1
480,480,0.5662908041307387,0.6,0.0,0.0,250.0,810.0,0.0,1,200.0,1
481,481,-0.8958202113818261,-0.9,1.0,0.0,432.0,880.0,0.0,0,148.0,1
482,482,-0.8721622276763868,-0.9,0.0,1.0,293.0,789.0,1.0,0,188.0,1
483,483,0.2448948523259845,0.2,1.0,1.0,349.0,505.0,1.0,1,346.0,1
484,484,-0.4143064468993609,-0.4,0.0,1.0,296.0,893.0,1.0,0,81.0,1
485,485,0.17365489847348414,0.2,1.0,1.0,465.0,600.0,1.0,1,275.0,1
486,486,-0.8534256469235754,-0.9,1.0,0.0,447.0,983.0,0.0,0,60.0,1
487,487,-0.6507416559761974,-0.7,0.0,1.0,315.0,808.0,1.0,0,467.0,1
488,488,0.8463069743926942,0.8,0.0,0.0,288.0,542.0,0.0,1,340.0,1
489,489,0.021129800164647716,0.0,1.0,1.0,397.0,893.0,1.0,1,310.0,1
490,490,-0.3835487570786307,-0.4,0.0,1.0,417.0,670.0,1.0,0,303.0,1
491,491,-0.8144272110998546,-0.8,0.0,1.0,342.0,622.0,1.0,0,326.0,1
492,492,0.3274952736762565,0.3,0.0,0.0,273.0,643.0,0.0,1,304.0,1
493,493,0.7103753658919308,0.7,0.0,0.0,254.0,901.0,0.0,1,85.0,1
494,494,0.60655603934538,0.6,1.0,1.0,280.0,928.0,1.0,1,72.0,1
495,495,-0.21418063735297987,-0.2,1.0,0.0,388.0,987.0,0.0,0,315.0,1
496,496,0.8530168516004891,0.9,0.0,0.0,477.0,966.0,0.0,1,207.0,1
497,497,0.4545367390711511,0.5,1.0,1.0,465.0,801.0,1.0,1,154.0,1
498,498,0.15765971188936845,0.2,0.0,0.0,412.0,672.0,0.0,1,306.0,1
499,499,-0.5975147913139044,-0.6,0.0,1.0,465.0,759.0,1.0,0,366.0,1
500,500,-0.17796603863363736,-0.2,0.0,1.0,495.0,994.0,1.0,0,381.0,1
501,501,-0.8347287288268459,-0.8,0.0,1.0,262.0,879.0,1.0,0,89.0,1
502,502,0.3334958198849657,0.3,0.0,0.0,347.0,548.0,0.0,1,255.0,1
503,503,-0.77475004484292,-0.8,0.0,1.0,380.0,691.0,1.0,0,209.0,1
504,504,-0.2056696368891181,-0.2,1.0,0.0,264.0,727.0,0.0,0,449.0,1
505,505,0.39836826484450005,0.4,1.0,1.0,345.0,699.0,1.0,1,256.0,1
506,506,-0.3908243119781917,-0.4,1.0,0.0,357.0,574.0,0.0,0,499.0,1
507,507,-0.16690126805381722,-0.2,1.0,0.0,477.0,772.0,0.0,0,411.0,1
508,508,-0.40876841945293907,-0.4,1.0,0.0,274.0,525.0,0.0,0,581.0,1
509,509,-0.24610370418742655,-0.2,1.0,0.0,396.0,640.0,0.0,0,184.0,1
510,510,0.47051953285832415,0.5,1.0,1.0,352.0,766.0,1.0,1,142.0,1
511,511,0.08243888411237243,0.1,0.0,0.0,317.0,677.0,1.0,0,496.0,0
512,512,-0.8938215258680139,-0.9,1.0,0.0,370.0,941.0,0.0,0,119.0,1
513,513,0.3500604455525017,0.4,1.0,1.0,258.0,521.0,1.0,1,741.0,1
514,514,-0.3955947828957147,-0.4,0.0,1.0,304.0,807.0,1.0,0,129.0,1
515,515,-0.8692702531055551,-0.9,1.0,0.0,411.0,553.0,0.0,0,136.0,1
516,516,-0.3900557383495329,-0.4,1.0,0.0,430.0,890.0,0.0,0,130.0,1
517,517,0.4786916098554216,0.5,0.0,0.0,372.0,695.0,0.0,1,173.0,1
518,518,-0.4081253480034775,-0.4,0.0,1.0,417.0,851.0,1.0,0,302.0,1
519,519,0.6875779933501999,0.7,1.0,1.0,350.0,710.0,1.0,1,180.0,1
520,520,0.07667622185890022,0.1,1.0,1.0,356.0,606.0,1.0,1,838.0,1
521,521,0.37615418678757695,0.4,1.0,1.0,307.0,832.0,1.0,1,151.0,1
522,522,0.624758858604311,0.6,1.0,1.0,494.0,598.0,1.0,1,448.0,1
523,523,0.04692748066190078,0.0,1.0,1.0,301.0,635.0,1.0,1,1684.0,1
524,524,0.2731069978179933,0.3,1.0,1.0,394.0,589.0,1.0,1,537.0,1
525,525,-0.5669123896348944,-0.6,1.0,0.0,385.0,818.0,0.0,0,127.0,1
526,526,-0.339080822594756,-0.3,0.0,1.0,388.0,752.0,1.0,0,260.0,1
527,527,-0.7949599375012274,-0.8,0.0,1.0,437.0,887.0,1.0,0,76.0,1
528,528,0.627286893420787,0.6,1.0,1.0,322.0,863.0,1.0,1,105.0,1
529,529,-0.8657530127408595,-0.9,0.0,1.0,377.0,955.0,1.0,0,98.0,1
530,530,-0.1057987291459509,-0.1,0.0,1.0,303.0,926.0,1.0,0,551.0,1
531,531,-0.7348909030051256,-0.7,1.0,0.0,431.0,786.0,0.0,0,163.0,1
532,532,0.06839899186934406,0.1,0.0,0.0,432.0,545.0,1.0,0,1513.0,0
533,533,0.4715762566843308,0.5,1.0,1.0,402.0,896.0,1.0,1,212.0,1
534,534,-0.8838876895646881,-0.9,0.0,1.0,252.0,954.0,1.0,0,134.0,1
535,535,0.7345953318364479,0.7,1.0,1.0,295.0,953.0,1.0,1,82.0,1
536,536,-0.48568506403678846,-0.5,0.0,1.0,434.0,983.0,1.0,0,203.0,1
537,537,0.496398074278669,0.5,1.0,1.0,448.0,658.0,1.0,1,194.0,1
538,538,-0.6097066590005437,-0.6,1.0,0.0,491.0,940.0,0.0,0,189.0,1
539,539,-0.04710239715064157,-0.0,0.0,1.0,375.0,580.0,1.0,0,785.0,1
540,540,-0.14593657389842596,-0.1,1.0,0.0,453.0,714.0,0.0,0,453.0,1
541,541,-0.8384535007469308,-0.8,1.0,0.0,404.0,890.0,0.0,0,76.0,1
542,542,-0.6464281085207657,-0.6,1.0,0.0,353.0,988.0,0.0,0,69.0,1
543,543,-0.6586115504823639,-0.7,0.0,1.0,454.0,797.0,1.0,0,169.0,1
544,544,0.07254930523483571,0.1,1.0,1.0,481.0,952.0,1.0,1,757.0,1
545,545,-0.14153256780019718,-0.1,1.0,0.0,318.0,831.0,0.0,0,751.0,1
546,546,0.5642006146627877,0.6,0.0,0.0,264.0,625.0,0.0,1,111.0,1
547,547,-0.7173904620858347,-0.7,1.0,0.0,262.0,659.0,0.0,0,149.0,1
548,548,-0.313526553655036,-0.3,0.0,1.0,376.0,931.0,1.0,0,83.0,1
549,549,-0.663711578284394,-0.7,1.0,0.0,289.0,963.0,0.0,0,138.0,1
550,550,-0.49016210202015603,-0.5,0.0,1.0,345.0,970.0,1.0,0,165.0,1
551,551,0.036652118498626374,0.0,0.0,0.0,417.0,714.0,0.0,1,1129.0,1
552,552,-0.13178813485890595,-0.1,1.0,0.0,409.0,600.0,0.0,0,551.0,1
553,553,0.8838318984037671,0.9,1.0,1.0,336.0,731.0,1.0,1,433.0,1
554,554,0.3765651117699865,0.4,0.0,0.0,410.0,739.0,0.0,1,141.0,1
555,555,0.8112047039476215,0.8,1.0,1.0,279.0,823.0,1.0,1,78.0,1
556,556,0.6373910541837721,0.6,1.0,1.0,432.0,940.0,1.0,1,118.0,1
557,557,0.18724968853719826,0.2,0.0,0.0,376.0,597.0,0.0,1,607.0,1
558,558,-0.7163212107099963,-0.7,0.0,1.0,322.0,607.0,1.0,0,281.0,1
559,559,0.79263404973704,0.8,1.0,1.0,294.0,613.0,1.0,1,393.0,1
560,560,0.8898379727292204,0.9,1.0,1.0,385.0,770.0,1.0,1,85.0,1
561,561,0.22375294101693266,0.2,1.0,1.0,438.0,624.0,1.0,1,478.0,1
562,562,0.09290645652967444,0.1,0.0,0.0,485.0,501.0,0.0,1,504.0,1
563,563,-0.7019108704444413,-0.7,0.0,1.0,421.0,931.0,1.0,0,108.0,1
564,564,-0.4767071825433969,-0.5,0.0,1.0,322.0,547.0,1.0,0,481.0,1
565,565,0.5097888870767674,0.5,0.0,0.0,306.0,905.0,0.0,1,219.0,1
566,566,0.6769450719884637,0.7,1.0,1.0,376.0,632.0,1.0,1,282.0,1
567,567,0.2531703758561984,0.3,0.0,0.0,477.0,651.0,0.0,1,212.0,1
568,568,-0.48838986818565305,-0.5,0.0,1.0,356.0,689.0,1.0,0,205.0,1
569,569,-0.15228515273346055,-0.2,1.0,0.0,424.0,928.0,0.0,0,158.0,1
570,570,-0.6139998263303454,-0.6,1.0,0.0,359.0,692.0,0.0,0,349.0,1
571,571,0.1401433375190585,0.1,1.0,1.0,336.0,791.0,1.0,1,333.0,1
572,572,-0.8441426165534689,-0.8,1.0,0.0,268.0,728.0,0.0,0,174.0,1
573,573,0.8048661920395782,0.8,1.0,1.0,455.0,552.0,1.0,1,153.0,1
574,574,-0.6320761873966034,-0.6,0.0,1.0,364.0,792.0,1.0,0,244.0,1
575,575,0.42423615706894424,0.4,1.0,1.0,297.0,674.0,1.0,1,259.0,1
576,576,0.8942356963364185,0.9,0.0,0.0,285.0,783.0,0.0,1,112.0,1
577,577,0.7474423617725378,0.7,1.0,1.0,292.0,761.0,1.0,1,117.0,1
578,578,0.39437622275553486,0.4,1.0,1.0,411.0,739.0,1.0,1,280.0,1
579,579,-0.8086607786428439,-0.8,1.0,0.0,312.0,968.0,0.0,0,40.0,1
580,580,0.6818008685477669,0.7,1.0,1.0,328.0,770.0,1.0,1,92.0,1
581,581,-0.04020192520600219,-0.0,1.0,0.0,276.0,745.0,0.0,0,1979.0,1
582,582,-0.5665752937470372,-0.6,0.0,1.0,483.0,996.0,1.0,0,411.0,1
583,583,0.8800874719935469,0.9,0.0,0.0,372.0,763.0,0.0,1,305.0,1
584,584,-0.46407318903223294,-0.5,0.0,1.0,496.0,972.0,1.0,0,192.0,1
585,585,-0.8416631012446026,-0.8,1.0,0.0,455.0,949.0,0.0,0,126.0,1
586,586,0.40448328714376725,0.4,0.0,0.0,363.0,571.0,0.0,1,446.0,1
587,587,-0.10805018804896083,-0.1,1.0,0.0,374.0,880.0,0.0,0,36.0,1
588,588,0.003766900772075976,0.0,1.0,1.0,282.0,628.0,0.0,0,990.0,0
589,589,0.6066187530837451,0.6,1.0,1.0,385.0,792.0,1.0,1,223.0,1
590,590,-0.5950604108698623,-0.6,0.0,1.0,280.0,623.0,1.0,0,237.0,1
591,591,0.26968903349282225,0.3,1.0,1.0,371.0,981.0,1.0,1,408.0,1
592,592,0.5260003326654777,0.5,1.0,1.0,414.0,955.0,1.0,1,121.0,1
593,593,0.4803132205315067,0.5,1.0,1.0,404.0,595.0,1.0,1,441.0,1
594,594,-0.0395209271698268,-0.0,1.0,0.0,356.0,642.0,0.0,0,1992.0,1
595,595,0.07047545345306816,0.1,0.0,0.0,488.0,664.0,0.0,1,728.0,1
596,596,0.3590061253972693,0.4,0.0,0.0,453.0,756.0,0.0,1,201.0,1
597,597,0.7824874821786628,0.8,0.0,0.0,278.0,913.0,0.0,1,109.0,1
598,598,-0.48174207155025883,-0.5,0.0,1.0,283.0,730.0,1.0,0,247.0,1
599,599,-0.6136177166086718,-0.6,1.0,0.0,273.0,883.0,0.0,0,104.0,1
600,600,-0.12128904905306126,-0.1,1.0,0.0,406.0,926.0,0.0,0,418.0,1
601,601,0.6941072947653778,0.7,0.0,0.0,456.0,793.0,0.0,1,151.0,1
602,602,-0.10799442138683468,-0.1,1.0,0.0,404.0,664.0,0.0,0,132.0,1
603,603,0.08679054717986445,0.1,1.0,1.0,477.0,582.0,1.0,1,1031.0,1
604,604,0.22167668657573036,0.2,0.0,0.0,306.0,849.0,0.0,1,265.0,1
605,605,0.8939580160544517,0.9,1.0,1.0,331.0,607.0,1.0,1,232.0,1
606,606,0.5160470384492907,0.5,1.0,1.0,365.0,642.0,1.0,1,273.0,1
607,607,-0.6124066229561693,-0.6,0.0,1.0,481.0,574.0,1.0,0,355.0,1
608,608,-0.28807794092031347,-0.3,1.0,0.0,366.0,988.0,0.0,0,116.0,1
609,609,-0.5056273894056769,-0.5,1.0,0.0,483.0,722.0,0.0,0,215.0,1
610,610,0.8630331781864272,0.9,1.0,1.0,335.0,889.0,1.0,1,236.0,1
611,611,-0.24707666704581333,-0.2,1.0,0.0,273.0,899.0,0.0,0,128.0,1
612,612,0.1529425826811014,0.2,1.0,1.0,440.0,724.0,1.0,1,326.0,1
613,613,-0.21257395438320015,-0.2,0.0,1.0,443.0,942.0,1.0,0,275.0,1
614,614,-0.20710400759529302,-0.2,1.0,0.0,425.0,621.0,0.0,0,244.0,1
615,615,-0.027679875437828683,-0.0,1.0,0.0,259.0,910.0,1.0,1,1621.0,0
616,616,0.4095184162014823,0.4,0.0,0.0,431.0,791.0,0.0,1,298.0,1
617,617,0.2337326614210279,0.2,0.0,0.0,256.0,725.0,0.0,1,359.0,1
618,618,-0.7043291822949569,-0.7,1.0,0.0,462.0,617.0,0.0,0,131.0,1
619,619,0.32663453646453966,0.3,1.0,1.0,439.0,993.0,1.0,1,128.0,1
620,620,0.16616605498967474,0.2,0.0,0.0,443.0,533.0,0.0,1,504.0,1
621,621,0.6278697766922047,0.6,1.0,1.0,367.0,717.0,1.0,1,166.0,1
622,622,0.28151750817335663,0.3,1.0,1.0,464.0,809.0,1.0,1,247.0,1
623,623,-0.27296527568164874,-0.3,1.0,0.0,456.0,519.0,0.0,0,515.0,1
624,624,0.6347330805988461,0.6,1.0,1.0,335.0,974.0,1.0,1,191.0,1
625,625,0.5879178422227772,0.6,1.0,1.0,256.0,563.0,1.0,1,361.0,1
626,626,0.3002884766792727,0.3,1.0,1.0,324.0,762.0,1.0,1,134.0,1
627,627,0.15577786849842667,0.2,0.0,0.0,278.0,836.0,0.0,1,396.0,1
628,628,-0.6219714981279316,-0.6,1.0,0.0,326.0,901.0,0.0,0,143.0,1
629,629,0.6205088224279159,0.6,1.0,1.0,340.0,932.0,1.0,1,148.0,1
630,630,-0.021591006488422715,-0.0,0.0,1.0,446.0,644.0,0.0,1,400.0,0
631,631,-0.10178599806266442,-0.1,0.0,1.0,480.0,748.0,1.0,0,452.0,1
632,632,-0.02932753942894184,-0.0,1.0,0.0,294.0,521.0,0.0,0,1555.0,1
633,633,-0.8350476470165377,-0.8,0.0,1.0,276.0,726.0,1.0,0,378.0,1
634,634,0.23280094828442432,0.2,0.0,0.0,366.0,923.0,0.0,1,251.0,1
635,635,0.01663860959970498,0.0,1.0,1.0,488.0,580.0,1.0,1,1182.0,1
636,636,0.02478340344906005,0.0,0.0,0.0,422.0,982.0,0.0,1,1356.0,1
637,637,-0.12681997893820296,-0.1,1.0,0.0,397.0,723.0,0.0,0,330.0,1
638,638,0.24857161264043326,0.2,1.0,1.0,393.0,602.0,1.0,1,325.0,1
639,639,-0.2785753080226179,-0.3,1.0,0.0,493.0,608.0,0.0,0,289.0,1
640,640,0.48149262624867706,0.5,1.0,1.0,452.0,927.0,1.0,1,221.0,1
641,641,0.008274398187560594,0.0,0.0,0.0,379.0,612.0,0.0,1,2009.0,1
642,642,0.4894228125152066,0.5,1.0,1.0,357.0,826.0,1.0,1,247.0,1
643,643,-0.10604610037037909,-0.1,1.0,0.0,317.0,936.0,0.0,0,727.0,1
644,644,0.5191809143850524,0.5,0.0,0.0,253.0,878.0,0.0,1,159.0,1
645,645,-0.49667318638478664,-0.5,1.0,0.0,294.0,979.0,0.0,0,147.0,1
646,646,0.16838168129585374,0.2,1.0,1.0,375.0,959.0,1.0,1,296.0,1
647,647,0.38130020902256445,0.4,0.0,0.0,363.0,660.0,0.0,1,337.0,1
648,648,-0.7089345596139387,-0.7,1.0,0.0,454.0,866.0,0.0,0,160.0,1
649,649,0.33774432451040337,0.3,0.0,0.0,485.0,523.0,0.0,1,502.0,1
650,650,-0.2622769626459903,-0.3,1.0,0.0,253.0,700.0,0.0,0,437.0,1
651,651,0.031152094035504452,0.0,1.0,1.0,456.0,690.0,0.0,0,234.0,0
652,652,0.20854712397382025,0.2,0.0,0.0,292.0,767.0,0.0,1,291.0,1
653,653,-0.7306099210275329,-0.7,1.0,0.0,307.0,778.0,0.0,0,185.0,1
654,654,0.3111640032960302,0.3,1.0,1.0,413.0,558.0,1.0,1,279.0,1
655,655,-0.5395330939644709,-0.5,1.0,0.0,474.0,806.0,0.0,0,110.0,1
656,656,-0.030731210084502858,-0.0,0.0,1.0,331.0,635.0,1.0,0,1124.0,1
657,657,-0.6584272539863769,-0.7,0.0,1.0,451.0,845.0,1.0,0,304.0,1
658,658,0.5400929325577323,0.5,1.0,1.0,352.0,634.0,1.0,1,354.0,1
659,659,-0.11818446388739179,-0.1,0.0,1.0,387.0,907.0,1.0,0,306.0,1
660,660,-0.005071431337170806,-0.0,1.0,0.0,347.0,530.0,1.0,1,2123.0,0
661,661,-0.2834829640893908,-0.3,1.0,0.0,261.0,661.0,0.0,0,298.0,1
662,662,-0.6970953145988369,-0.7,0.0,1.0,320.0,643.0,1.0,0,387.0,1
663,663,0.6496967469857869,0.6,0.0,0.0,490.0,779.0,0.0,1,221.0,1
664,664,0.7253442317233877,0.7,1.0,1.0,466.0,675.0,1.0,1,269.0,1
665,665,-0.5520801957157497,-0.6,0.0,1.0,430.0,914.0,1.0,0,266.0,1
666,666,0.17224080818211152,0.2,1.0,1.0,372.0,917.0,1.0,1,291.0,1
667,667,-0.4150566055938444,-0.4,1.0,0.0,388.0,511.0,0.0,0,341.0,1
668,668,-0.7962689768079914,-0.8,1.0,0.0,259.0,775.0,0.0,0,116.0,1
669,669,-0.4361901009981733,-0.4,1.0,0.0,370.0,899.0,0.0,0,101.0,1
670,670,0.13787801704581992,0.1,0.0,0.0,399.0,850.0,0.0,1,171.0,1
671,671,-0.08198479315433638,-0.1,0.0,1.0,261.0,553.0,1.0,0,566.0,1
672,672,0.1851750611786095,0.2,1.0,1.0,274.0,528.0,1.0,1,588.0,1
673,673,-0.3948332455135156,-0.4,0.0,1.0,301.0,602.0,1.0,0,347.0,1
674,674,0.05899726449785281,0.1,1.0,1.0,305.0,689.0,1.0,1,536.0,1
675,675,0.05167077387717689,0.1,0.0,0.0,460.0,870.0,1.0,0,760.0,0
676,676,-0.6281840627293649,-0.6,0.0,1.0,467.0,503.0,1.0,0,600.0,1
677,677,0.6706408956274669,0.7,0.0,0.0,336.0,770.0,0.0,1,174.0,1
678,678,-0.2190085252190468,-0.2,1.0,0.0,313.0,960.0,0.0,0,137.0,1
679,679,0.3767667787097978,0.4,0.0,0.0,378.0,810.0,0.0,1,162.0,1
680,680,0.7899133958792174,0.8,0.0,0.0,466.0,805.0,0.0,1,179.0,1
681,681,-0.06306723631596645,-0.1,0.0,1.0,344.0,777.0,1.0,0,719.0,1
682,682,0.5657159996735134,0.6,1.0,1.0,391.0,755.0,1.0,1,244.0,1
683,683,0.857719846119065,0.9,1.0,1.0,304.0,592.0,1.0,1,234.0,1
684,684,-0.6827790751410396,-0.7,1.0,0.0,476.0,753.0,0.0,0,241.0,1
685,685,0.4036825412038517,0.4,0.0,0.0,297.0,669.0,0.0,1,354.0,1
686,686,-0.3667411517112926,-0.4,1.0,0.0,328.0,732.0,0.0,0,310.0,1
687,687,0.805062441902017,0.8,1.0,1.0,386.0,633.0,1.0,1,381.0,1
688,688,-0.2968096129898149,-0.3,0.0,1.0,479.0,875.0,1.0,0,196.0,1
689,689,0.7648094316314443,0.8,1.0,1.0,420.0,591.0,1.0,1,179.0,1
690,690,0.810603472399127,0.8,0.0,0.0,349.0,566.0,0.0,1,305.0,1
691,691,0.6655432367197839,0.7,1.0,1.0,411.0,802.0,1.0,1,227.0,1
692,692,0.734568172546476,0.7,0.0,0.0,330.0,871.0,0.0,1,169.0,1
693,693,0.8963017682273845,0.9,0.0,0.0,390.0,791.0,0.0,1,189.0,1
694,694,0.6090513323064092,0.6,0.0,0.0,345.0,930.0,0.0,1,145.0,1
695,695,0.019679190041542505,0.0,1.0,1.0,264.0,963.0,1.0,1,553.0,1
696,696,-0.16890289644289735,-0.2,0.0,1.0,468.0,523.0,1.0,0,529.0,1
697,697,-0.5447156966837137,-0.5,0.0,1.0,291.0,816.0,1.0,0,223.0,1
698,698,-0.31880861476135003,-0.3,1.0,0.0,331.0,774.0,0.0,0,375.0,1
699,699,-0.3203688661658227,-0.3,0.0,1.0,326.0,562.0,1.0,0,272.0,1
700,700,-0.5788682268247565,-0.6,1.0,0.0,476.0,736.0,0.0,0,338.0,1
701,701,0.4379576488117015,0.4,0.0,0.0,287.0,558.0,0.0,1,345.0,1
702,702,-0.8663871236953387,-0.9,1.0,0.0,490.0,753.0,0.0,0,207.0,1
703,703,0.09304840279831217,0.1,0.0,0.0,386.0,888.0,0.0,1,676.0,1
704,704,-0.3945166488583902,-0.4,1.0,0.0,428.0,669.0,0.0,0,233.0,1
705,705,-0.3350469002466253,-0.3,1.0,0.0,382.0,522.0,0.0,0,166.0,1
706,706,0.33346673704155705,0.3,0.0,0.0,388.0,744.0,0.0,1,558.0,1
707,707,0.40878408844649383,0.4,1.0,1.0,255.0,926.0,1.0,1,69.0,1
708,708,0.2446284243372897,0.2,0.0,0.0,345.0,944.0,0.0,1,191.0,1
709,709,-0.7084076148283499,-0.7,0.0,1.0,294.0,640.0,1.0,0,426.0,1
710,710,-0.4838953460625988,-0.5,1.0,0.0,411.0,574.0,0.0,0,395.0,1
711,711,0.5996941809483413,0.6,1.0,1.0,346.0,620.0,1.0,1,214.0,1
712,712,-0.10115065187553851,-0.1,0.0,1.0,272.0,883.0,1.0,0,235.0,1
713,713,0.3030493867177714,0.3,0.0,0.0,363.0,982.0,0.0,1,175.0,1
714,714,0.1479835601293663,0.1,0.0,0.0,367.0,965.0,0.0,1,358.0,1
715,715,0.3924408956355726,0.4,1.0,1.0,384.0,946.0,1.0,1,30.0,1
716,716,0.6807940200540076,0.7,0.0,0.0,271.0,928.0,0.0,1,81.0,1
717,717,-0.7766823753344196,-0.8,0.0,1.0,430.0,966.0,1.0,0,64.0,1
718,718,0.8851231237217271,0.9,1.0,1.0,295.0,594.0,1.0,1,211.0,1
719,719,0.8075920619940989,0.8,1.0,1.0,297.0,624.0,1.0,1,169.0,1
720,720,0.06526656250463403,0.1,0.0,0.0,412.0,506.0,0.0,1,1082.0,1
721,721,-0.28211568210112925,-0.3,1.0,0.0,491.0,762.0,0.0,0,197.0,1
722,722,0.343899434474901,0.3,1.0,1.0,331.0,942.0,1.0,1,227.0,1
723,723,-0.09316697300770183,-0.1,0.0,1.0,415.0,676.0,1.0,0,839.0,1
724,724,0.1794270196723401,0.2,1.0,1.0,469.0,764.0,1.0,1,497.0,1
725,725,-0.33719118645852997,-0.3,1.0,0.0,352.0,888.0,0.0,0,190.0,1
726,726,0.7028314589410721,0.7,0.0,0.0,471.0,752.0,0.0,1,147.0,1
727,727,0.6443618648751773,0.6,0.0,0.0,438.0,835.0,0.0,1,147.0,1
728,728,-0.04165784307160825,-0.0,1.0,0.0,339.0,691.0,0.0,0,1970.0,1
729,729,-0.5647904830646242,-0.6,0.0,1.0,338.0,959.0,1.0,0,213.0,1
730,730,-0.6589274561114726,-0.7,1.0,0.0,441.0,724.0,0.0,0,115.0,1
731,731,-0.8623800037585363,-0.9,0.0,1.0,329.0,604.0,1.0,0,447.0,1
732,732,-0.4654842254522768,-0.5,1.0,0.0,292.0,560.0,0.0,0,418.0,1
733,733,0.8959725403294586,0.9,1.0,1.0,493.0,710.0,1.0,1,247.0,1
734,734,0.1303939007881395,0.1,1.0,1.0,254.0,618.0,1.0,1,608.0,1
735,735,0.5988277043473759,0.6,0.0,0.0,265.0,963.0,0.0,1,102.0,1
736,736,-0.42146583683660216,-0.4,0.0,1.0,318.0,582.0,1.0,0,650.0,1
737,737,0.05926572392405549,0.1,0.0,0.0,413.0,501.0,0.0,1,1156.0,1
738,738,0.3630001220856304,0.4,1.0,1.0,353.0,928.0,1.0,1,99.0,1
739,739,-0.06124316346997205,-0.1,1.0,0.0,334.0,506.0,0.0,0,630.0,1
740,740,-0.2250906680056981,-0.2,1.0,0.0,472.0,717.0,0.0,0,151.0,1
741,741,-0.8579173721635525,-0.9,0.0,1.0,338.0,723.0,1.0,0,629.0,1
742,742,0.43430582484966573,0.4,1.0,1.0,297.0,684.0,1.0,1,379.0,1
743,743,-0.6405120722695694,-0.6,0.0,1.0,402.0,623.0,1.0,0,185.0,1
744,744,-0.1357784301324687,-0.1,1.0,0.0,305.0,880.0,0.0,0,245.0,1
745,745,-0.4650570750026618,-0.5,0.0,1.0,282.0,855.0,1.0,0,243.0,1
746,746,-0.7015551278904402,-0.7,1.0,0.0,499.0,504.0,0.0,0,497.0,1
747,747,-0.4795791284658039,-0.5,0.0,1.0,356.0,690.0,1.0,0,464.0,1
748,748,0.1718471069396258,0.2,0.0,0.0,445.0,631.0,0.0,1,314.0,1
749,749,-0.7244852294491867,-0.7,0.0,1.0,419.0,663.0,1.0,0,158.0,1
750,750,-0.6539170470897353,-0.7,0.0,1.0,313.0,575.0,1.0,0,242.0,1
751,751,-0.7011527430798513,-0.7,1.0,0.0,434.0,925.0,0.0,0,151.0,1
752,752,0.06731377923242032,0.1,0.0,0.0,399.0,982.0,0.0,1,579.0,1
753,753,0.8989966193958258,0.9,1.0,1.0,289.0,827.0,0.0,0,-66.0,0
754,754,0.6583291295459522,0.7,0.0,0.0,410.0,708.0,0.0,1,192.0,1
755,755,0.36523924062490554,0.4,0.0,0.0,289.0,806.0,0.0,1,205.0,1
756,756,-0.22731972810257628,-0.2,0.0,1.0,424.0,911.0,1.0,0,115.0,1
757,757,0.5256643500479125,0.5,0.0,0.0,424.0,637.0,0.0,1,309.0,1
758,758,0.8134829779301643,0.8,1.0,1.0,262.0,799.0,1.0,1,19.0,1
759,759,-0.37807059132290866,-0.4,1.0,0.0,460.0,533.0,0.0,0,457.0,1
760,760,0.34470089313390295,0.3,1.0,1.0,481.0,947.0,1.0,1,72.0,1
761,761,0.2505694572095548,0.3,1.0,1.0,337.0,998.0,1.0,1,255.0,1
762,762,0.6348353435272099,0.6,1.0,1.0,341.0,593.0,1.0,1,216.0,1
763,763,0.2712583279448443,0.3,1.0,1.0,373.0,717.0,1.0,1,260.0,1
764,764,0.7300993358246685,0.7,1.0,1.0,381.0,671.0,1.0,1,308.0,1
765,765,0.06536414538483637,0.1,0.0,0.0,294.0,663.0,0.0,1,473.0,1
766,766,0.7996451458633557,0.8,0.0,0.0,454.0,880.0,0.0,1,76.0,1
767,767,-0.39581671884346314,-0.4,0.0,1.0,467.0,699.0,1.0,0,234.0,1
768,768,-0.3142570091824928,-0.3,1.0,0.0,328.0,712.0,0.0,0,190.0,1
769,769,0.6764943906251358,0.7,1.0,1.0,383.0,889.0,1.0,1,138.0,1
770,770,-0.6420197709194004,-0.6,1.0,0.0,280.0,742.0,0.0,0,118.0,1
771,771,-0.55736420111637,-0.6,1.0,0.0,429.0,626.0,0.0,0,105.0,1
772,772,0.7854241899182736,0.8,0.0,0.0,372.0,990.0,0.0,1,148.0,1
773,773,-0.20118426998267225,-0.2,0.0,1.0,296.0,921.0,1.0,0,183.0,1
774,774,0.1184716586207607,0.1,1.0,1.0,323.0,829.0,1.0,1,178.0,1
775,775,0.22726935916016944,0.2,0.0,0.0,345.0,703.0,0.0,1,442.0,1
776,776,-0.4518519477123893,-0.5,1.0,0.0,459.0,805.0,0.0,0,96.0,1
777,777,-0.8209949602302178,-0.8,0.0,1.0,391.0,838.0,1.0,0,81.0,1
778,778,-0.6600381527873301,-0.7,0.0,1.0,278.0,596.0,1.0,0,736.0,1
779,779,0.6453088752441706,0.6,0.0,0.0,480.0,552.0,0.0,1,168.0,1
780,780,0.02985359345798233,0.0,1.0,1.0,495.0,817.0,1.0,1,448.0,1
781,781,0.670860816128188,0.7,1.0,1.0,435.0,696.0,1.0,1,129.0,1
782,782,0.6516058062415525,0.7,1.0,1.0,275.0,772.0,1.0,1,153.0,1
783,783,-0.7901253050398875,-0.8,1.0,0.0,465.0,912.0,0.0,0,123.0,1
784,784,0.0039019442660462866,0.0,1.0,1.0,414.0,627.0,0.0,0,609.0,0
785,785,-0.6872287773353325,-0.7,0.0,1.0,467.0,817.0,1.0,0,146.0,1
786,786,0.6610336126060051,0.7,1.0,1.0,473.0,693.0,1.0,1,374.0,1
787,787,0.7220935943686956,0.7,1.0,1.0,486.0,928.0,1.0,1,116.0,1
788,788,-0.8704835346490511,-0.9,0.0,1.0,287.0,999.0,1.0,0,84.0,1
789,789,-0.5110727854938416,-0.5,1.0,0.0,303.0,874.0,0.0,0,73.0,1
790,790,-0.7613807580003399,-0.8,0.0,1.0,298.0,989.0,1.0,0,213.0,1
791,791,-0.10541374833189954,-0.1,1.0,0.0,408.0,780.0,0.0,0,412.0,1
792,792,-0.8260964436010144,-0.8,1.0,0.0,370.0,500.0,0.0,0,340.0,1
793,793,-0.487585465711268,-0.5,1.0,0.0,406.0,558.0,0.0,0,296.0,1
794,794,-0.15828538863156494,-0.2,1.0,0.0,454.0,918.0,0.0,0,238.0,1
795,795,-0.371695043743258,-0.4,0.0,1.0,293.0,806.0,1.0,0,251.0,1
796,796,-0.035583280349003155,-0.0,1.0,0.0,421.0,572.0,0.0,0,667.0,1
797,797,0.5517154894623598,0.6,0.0,0.0,281.0,693.0,0.0,1,156.0,1
798,798,-0.28419168224662983,-0.3,1.0,0.0,487.0,773.0,0.0,0,250.0,1
799,799,-0.8223144252955589,-0.8,0.0,1.0,320.0,949.0,1.0,0,111.0,1
800,800,-0.7830193133358191,-0.8,1.0,0.0,495.0,547.0,0.0,0,298.0,1
801,801,0.009664048817520365,0.0,0.0,0.0,365.0,993.0,1.0,0,462.0,0
802,802,0.12128287842334717,0.1,1.0,1.0,321.0,900.0,1.0,1,309.0,1
803,803,-0.09051331251530126,-0.1,0.0,1.0,281.0,698.0,1.0,0,551.0,1
804,804,0.32811366590644064,0.3,0.0,0.0,265.0,715.0,0.0,1,190.0,1
805,805,0.5464945474615804,0.5,0.0,0.0,437.0,867.0,0.0,1,246.0,1
806,806,0.6838877508547551,0.7,0.0,0.0,274.0,627.0,0.0,1,139.0,1
807,807,-0.299985838175317,-0.3,1.0,0.0,293.0,907.0,0.0,0,240.0,1
808,808,-0.2882678256466267,-0.3,0.0,1.0,291.0,626.0,1.0,0,343.0,1
809,809,0.35432058030982005,0.4,1.0,1.0,253.0,662.0,1.0,1,115.0,1
810,810,0.5088137644034051,0.5,1.0,1.0,385.0,693.0,1.0,1,182.0,1
811,811,0.20417245056914102,0.2,1.0,1.0,296.0,810.0,1.0,1,294.0,1
812,812,-0.4648336469595998,-0.5,0.0,1.0,393.0,972.0,1.0,0,125.0,1
813,813,-0.7890881798254835,-0.8,0.0,1.0,427.0,997.0,1.0,0,136.0,1
814,814,0.32465436486118715,0.3,1.0,1.0,301.0,948.0,1.0,1,221.0,1
815,815,-0.3579953635773142,-0.4,0.0,1.0,385.0,741.0,1.0,0,344.0,1
816,816,0.40840694563608604,0.4,1.0,1.0,440.0,834.0,1.0,1,176.0,1
817,817,0.3839426283242168,0.4,0.0,0.0,321.0,830.0,0.0,1,99.0,1
818,818,-0.5065694811294621,-0.5,0.0,1.0,487.0,594.0,1.0,0,189.0,1
819,819,0.4475328449145969,0.4,0.0,0.0,437.0,957.0,0.0,1,126.0,1
820,820,0.6205467652517217,0.6,0.0,0.0,487.0,716.0,0.0,1,137.0,1
821,821,-0.796699113762283,-0.8,1.0,0.0,425.0,788.0,0.0,0,107.0,1
822,822,-0.6243166584732924,-0.6,1.0,0.0,278.0,849.0,0.0,0,173.0,1
823,823,-0.7682081975985087,-0.8,0.0,1.0,270.0,588.0,1.0,0,212.0,1
824,824,0.006113124376674217,0.0,0.0,0.0,424.0,695.0,1.0,0,1881.0,0
825,825,-0.6353708407334944,-0.6,0.0,1.0,323.0,539.0,1.0,0,268.0,1
826,826,0.34448795816696387,0.3,1.0,1.0,397.0,571.0,1.0,1,372.0,1
827,827,0.21060628017051786,0.2,0.0,0.0,367.0,765.0,0.0,1,168.0,1
828,828,-0.6256442211092439,-0.6,1.0,0.0,415.0,915.0,0.0,0,200.0,1
829,829,-0.3188456839946906,-0.3,0.0,1.0,383.0,509.0,1.0,0,638.0,1
830,830,-0.48570451708991896,-0.5,0.0,1.0,421.0,920.0,1.0,0,209.0,1
831,831,0.22446764522971774,0.2,0.0,0.0,403.0,664.0,0.0,1,253.0,1
832,832,0.6684123849970839,0.7,0.0,0.0,265.0,997.0,0.0,1,178.0,1
833,833,0.14571496069570922,0.1,1.0,1.0,340.0,719.0,1.0,1,351.0,1
834,834,-0.34760391715734895,-0.3,0.0,1.0,331.0,623.0,1.0,0,386.0,1
835,835,0.7139805686148907,0.7,1.0,1.0,385.0,791.0,1.0,1,184.0,1
836,836,-0.5478493472131138,-0.5,0.0,1.0,470.0,821.0,1.0,0,239.0,1
837,837,0.7562704093003095,0.8,0.0,0.0,269.0,933.0,0.0,1,88.0,1
838,838,0.8386246946640116,0.8,1.0,1.0,286.0,777.0,1.0,1,127.0,1
839,839,-0.27835718436644596,-0.3,0.0,1.0,497.0,553.0,1.0,0,660.0,1
840,840,-0.42498650847083347,-0.4,1.0,0.0,352.0,855.0,0.0,0,163.0,1
841,841,0.8141318106769103,0.8,0.0,0.0,340.0,808.0,0.0,1,192.0,1
842,842,0.07132706656380594,0.1,1.0,1.0,306.0,604.0,1.0,1,730.0,1
843,843,0.7235957405478569,0.7,1.0,1.0,306.0,731.0,1.0,1,83.0,1
844,844,0.7599399905242142,0.8,0.0,0.0,286.0,536.0,0.0,1,158.0,1
845,845,-0.007517830597819186,-0.0,0.0,1.0,296.0,631.0,1.0,0,1873.0,1
846,846,-0.4614029558627517,-0.5,0.0,1.0,389.0,808.0,1.0,0,113.0,1
847,847,0.7351948909603357,0.7,1.0,1.0,476.0,729.0,1.0,1,155.0,1
848,848,-0.3340298534194146,-0.3,1.0,0.0,374.0,583.0,0.0,0,363.0,1
849,849,0.3789445257048668,0.4,0.0,0.0,264.0,828.0,0.0,1,238.0,1
850,850,0.13576660699323895,0.1,0.0,0.0,483.0,587.0,0.0,1,540.0,1
851,851,-0.08158551862417973,-0.1,0.0,1.0,363.0,759.0,1.0,0,758.0,1
852,852,0.4777595307249677,0.5,0.0,0.0,393.0,675.0,0.0,1,272.0,1
853,853,-0.7650373774740128,-0.8,1.0,0.0,465.0,535.0,0.0,0,280.0,1
854,854,-0.1849052633147109,-0.2,1.0,0.0,489.0,972.0,0.0,0,319.0,1
855,855,0.8459847954748522,0.8,1.0,1.0,263.0,588.0,1.0,1,239.0,1
856,856,0.7378305371449122,0.7,1.0,1.0,455.0,857.0,1.0,1,128.0,1
857,857,0.23230929269560108,0.2,1.0,1.0,358.0,817.0,1.0,1,135.0,1
858,858,-0.459449940671599,-0.5,1.0,0.0,334.0,957.0,0.0,0,189.0,1
859,859,-0.11441036320915687,-0.1,1.0,0.0,441.0,662.0,0.0,0,607.0,1
860,860,-0.5130392356026929,-0.5,0.0,1.0,467.0,991.0,1.0,0,62.0,1
861,861,0.735531794301948,0.7,0.0,0.0,377.0,646.0,0.0,1,217.0,1
862,862,0.2906831798512709,0.3,0.0,0.0,275.0,821.0,0.0,1,284.0,1
863,863,-0.5883988963989308,-0.6,1.0,0.0,495.0,573.0,0.0,0,492.0,1
864,864,0.4443175482343139,0.4,1.0,1.0,359.0,929.0,1.0,1,162.0,1
865,865,0.7230361672998554,0.7,1.0,1.0,481.0,948.0,1.0,1,121.0,1
866,866,-0.790992587156264,-0.8,0.0,1.0,272.0,776.0,1.0,0,192.0,1
867,867,0.4910944507817766,0.5,0.0,0.0,449.0,535.0,0.0,1,436.0,1
868,868,-0.12824211260465257,-0.1,1.0,0.0,472.0,956.0,0.0,0,332.0,1
869,869,-0.38091830034741336,-0.4,1.0,0.0,335.0,950.0,0.0,0,125.0,1
870,870,0.16530039522086792,0.2,0.0,0.0,421.0,899.0,0.0,1,240.0,1
871,871,0.4069594847790391,0.4,1.0,1.0,418.0,532.0,1.0,1,350.0,1
872,872,-0.30216099150476583,-0.3,1.0,0.0,408.0,677.0,0.0,0,315.0,1
873,873,-0.0514735430227129,-0.1,0.0,1.0,285.0,758.0,1.0,0,1577.0,1
874,874,-0.2344641921998759,-0.2,1.0,0.0,369.0,773.0,0.0,0,228.0,1
875,875,0.514242997397767,0.5,0.0,0.0,270.0,509.0,0.0,1,311.0,1
876,876,-0.283700819068633,-0.3,1.0,0.0,290.0,921.0,0.0,0,299.0,1
877,877,0.44967688482383805,0.4,1.0,1.0,453.0,517.0,1.0,1,290.0,1
878,878,0.24066951093190692,0.2,1.0,1.0,356.0,643.0,1.0,1,201.0,1
879,879,-0.5054253748976205,-0.5,0.0,1.0,323.0,645.0,1.0,0,382.0,1
880,880,-0.6203347198114417,-0.6,1.0,0.0,331.0,978.0,0.0,0,131.0,1
881,881,-0.6440455352949823,-0.6,1.0,0.0,372.0,849.0,0.0,0,189.0,1
882,882,-0.12971577143609725,-0.1,1.0,0.0,430.0,599.0,0.0,0,451.0,1
883,883,0.4019446092989519,0.4,1.0,1.0,273.0,934.0,1.0,1,173.0,1
884,884,0.5942654959846346,0.6,0.0,0.0,311.0,893.0,0.0,1,206.0,1
885,885,0.27987444016691543,0.3,0.0,0.0,443.0,643.0,0.0,1,344.0,1
886,886,0.7967709885114936,0.8,0.0,0.0,492.0,847.0,0.0,1,161.0,1
887,887,-0.31347023726027823,-0.3,1.0,0.0,473.0,982.0,0.0,0,-5.0,1
888,888,0.4424278571456105,0.4,1.0,1.0,250.0,897.0,1.0,1,173.0,1
889,889,0.4972506982055894,0.5,0.0,0.0,495.0,543.0,0.0,1,322.0,1
890,890,-0.8796578759288979,-0.9,1.0,0.0,410.0,868.0,0.0,0,72.0,1
891,891,-0.4510756391265028,-0.5,0.0,1.0,487.0,852.0,1.0,0,301.0,1
892,892,0.3132327821040949,0.3,1.0,1.0,285.0,897.0,1.0,1,298.0,1
893,893,0.05758464002217478,0.1,0.0,0.0,330.0,857.0,0.0,1,853.0,1
894,894,-0.14168143293901814,-0.1,1.0,0.0,334.0,935.0,0.0,0,491.0,1
895,895,-0.2516023841063224,-0.3,1.0,0.0,285.0,788.0,0.0,0,187.0,1
896,896,0.7513762285655238,0.8,0.0,0.0,458.0,577.0,0.0,1,275.0,1
897,897,-0.48718883620662756,-0.5,1.0,0.0,305.0,809.0,0.0,0,106.0,1
898,898,-0.35554495158864574,-0.4,1.0,0.0,495.0,903.0,0.0,0,222.0,1
899,899,0.7582557350510478,0.8,0.0,0.0,446.0,517.0,0.0,1,407.0,1
900,900,0.6626292147197023,0.7,1.0,1.0,360.0,606.0,1.0,1,214.0,1
901,901,0.23705050721957488,0.2,0.0,0.0,386.0,900.0,0.0,1,304.0,1
902,902,-0.2414094987319957,-0.2,1.0,0.0,468.0,632.0,0.0,0,320.0,1
903,903,0.25934448299063606,0.3,1.0,1.0,302.0,966.0,1.0,1,232.0,1
904,904,0.5795994454060182,0.6,1.0,1.0,453.0,761.0,1.0,1,196.0,1
905,905,-0.8023317820979301,-0.8,1.0,0.0,271.0,576.0,0.0,0,183.0,1
906,906,0.6874645983871818,0.7,1.0,1.0,421.0,860.0,1.0,1,149.0,1
907,907,0.3246950071103817,0.3,0.0,0.0,420.0,673.0,0.0,1,327.0,1
908,908,0.6416752084611098,0.6,0.0,0.0,341.0,891.0,0.0,1,158.0,1
909,909,0.19181639631904324,0.2,0.0,0.0,382.0,830.0,0.0,1,308.0,1
910,910,0.7810635723091109,0.8,0.0,0.0,423.0,952.0,0.0,1,165.0,1
911,911,-0.5168960436758201,-0.5,0.0,1.0,486.0,612.0,1.0,0,322.0,1
912,912,-0.11339492144864483,-0.1,1.0,0.0,372.0,977.0,0.0,0,381.0,1
913,913,0.2325761584762659,0.2,1.0,1.0,441.0,685.0,1.0,1,354.0,1
914,914,-0.2991603256687776,-0.3,0.0,1.0,260.0,935.0,1.0,0,115.0,1
915,915,0.6718751166441436,0.7,1.0,1.0,467.0,758.0,1.0,1,265.0,1
916,916,0.6707553148906914,0.7,1.0,1.0,468.0,846.0,1.0,1,126.0,1
917,917,-0.5103099909600297,-0.5,0.0,1.0,397.0,690.0,1.0,0,373.0,1
918,918,-0.22950482908670344,-0.2,0.0,1.0,430.0,710.0,1.0,0,370.0,1
919,919,0.8127680651068526,0.8,0.0,0.0,445.0,991.0,0.0,1,54.0,1
920,920,-0.2434804032592418,-0.2,0.0,1.0,255.0,603.0,1.0,0,632.0,1
921,921,-0.5532993046037737,-0.6,0.0,1.0,273.0,551.0,1.0,0,696.0,1
922,922,0.11193728523140278,0.1,1.0,1.0,451.0,820.0,1.0,1,339.0,1
923,923,0.18723298094042684,0.2,0.0,0.0,443.0,599.0,0.0,1,788.0,1
924,924,-0.771688417428347,-0.8,1.0,0.0,250.0,934.0,0.0,0,156.0,1
925,925,0.694664202068204,0.7,0.0,0.0,395.0,950.0,0.0,1,105.0,1
926,926,0.6549799853990977,0.7,1.0,1.0,277.0,923.0,1.0,1,120.0,1
927,927,0.5068809150653136,0.5,0.0,0.0,427.0,503.0,0.0,1,290.0,1
928,928,-0.7777740342725464,-0.8,0.0,1.0,351.0,559.0,1.0,0,240.0,1
929,929,-0.7389120198988363,-0.7,1.0,0.0,251.0,952.0,0.0,0,77.0,1
930,930,-0.5187796610670938,-0.5,0.0,1.0,417.0,750.0,1.0,0,523.0,1
931,931,0.31607858621505736,0.3,1.0,1.0,324.0,945.0,1.0,1,121.0,1
932,932,-0.742646662667492,-0.7,1.0,0.0,387.0,765.0,0.0,0,178.0,1
933,933,0.3085973712492983,0.3,0.0,0.0,470.0,671.0,0.0,1,159.0,1
934,934,0.2562065402090624,0.3,1.0,1.0,380.0,715.0,1.0,1,525.0,1
935,935,0.10325666723288196,0.1,0.0,0.0,259.0,722.0,0.0,1,379.0,1
936,936,-0.721134414915449,-0.7,1.0,0.0,490.0,909.0,0.0,0,61.0,1
937,937,-0.7932167146504523,-0.8,0.0,1.0,369.0,725.0,1.0,0,566.0,1
938,938,-0.2789280695085119,-0.3,1.0,0.0,274.0,877.0,0.0,0,219.0,1
939,939,-0.3307770028736404,-0.3,0.0,1.0,419.0,996.0,1.0,0,195.0,1
940,940,-0.7132959815300206,-0.7,1.0,0.0,365.0,542.0,0.0,0,173.0,1
941,941,-0.45747093194448096,-0.5,1.0,0.0,484.0,544.0,0.0,0,222.0,1
942,942,0.6402917771206983,0.6,1.0,1.0,332.0,882.0,1.0,1,206.0,1
943,943,-0.36192429229352996,-0.4,1.0,0.0,486.0,645.0,0.0,0,289.0,1
944,944,-0.28135620641919645,-0.3,0.0,1.0,397.0,599.0,1.0,0,654.0,1
945,945,-0.38390452878711534,-0.4,0.0,1.0,316.0,756.0,1.0,0,438.0,1
946,946,0.27640384380318184,0.3,1.0,1.0,460.0,544.0,1.0,1,496.0,1
947,947,-0.4386152895643037,-0.4,0.0,1.0,345.0,853.0,1.0,0,122.0,1
948,948,0.32788647912024727,0.3,0.0,0.0,399.0,767.0,0.0,1,284.0,1
949,949,-0.6962745299976715,-0.7,1.0,0.0,488.0,788.0,0.0,0,204.0,1
950,950,0.8458398738978702,0.8,0.0,0.0,265.0,699.0,0.0,1,216.0,1
951,951,-0.20694960645202287,-0.2,1.0,0.0,352.0,647.0,0.0,0,361.0,1
952,952,-0.23222040882085693,-0.2,0.0,1.0,372.0,780.0,1.0,0,298.0,1
953,953,0.5328047651969184,0.5,0.0,0.0,268.0,629.0,0.0,1,203.0,1
954,954,-0.7098906070802992,-0.7,1.0,0.0,293.0,502.0,0.0,0,215.0,1
955,955,0.19500309456949638,0.2,1.0,1.0,363.0,742.0,1.0,1,255.0,1
956,956,-0.38049837747633186,-0.4,0.0,1.0,266.0,912.0,1.0,0,282.0,1
957,957,-0.27053652526075167,-0.3,1.0,0.0,256.0,540.0,0.0,0,574.0,1
958,958,-0.4990133369388334,-0.5,1.0,0.0,426.0,740.0,0.0,0,254.0,1
959,959,0.8300754467090675,0.8,0.0,0.0,321.0,555.0,0.0,1,294.0,1
960,960,-0.4758476650485261,-0.5,1.0,0.0,336.0,756.0,0.0,0,138.0,1
961,961,0.3260535408948225,0.3,0.0,0.0,335.0,901.0,0.0,1,274.0,1
962,962,-0.7916445378983277,-0.8,0.0,1.0,356.0,813.0,1.0,0,161.0,1
963,963,-0.7088532331213072,-0.7,1.0,0.0,417.0,907.0,0.0,0,186.0,1
964,964,0.25735931699473247,0.3,0.0,0.0,480.0,623.0,0.0,1,267.0,1
965,965,-0.6823298620901317,-0.7,0.0,1.0,474.0,688.0,1.0,0,458.0,1
966,966,-0.5320380056184194,-0.5,0.0,1.0,352.0,523.0,1.0,0,375.0,1
967,967,0.008411267231101638,0.0,0.0,0.0,333.0,928.0,0.0,1,199.0,1
968,968,-0.55951294035288,-0.6,1.0,0.0,354.0,885.0,0.0,0,211.0,1
969,969,-0.21202939629609086,-0.2,0.0,1.0,452.0,567.0,1.0,0,591.0,1
970,970,0.7516504748009282,0.8,0.0,0.0,373.0,587.0,0.0,1,220.0,1
971,971,0.4831340936073686,0.5,0.0,0.0,407.0,512.0,0.0,1,371.0,1
972,972,0.8540611864508337,0.9,0.0,0.0,446.0,996.0,0.0,1,78.0,1
973,973,0.09067538667524011,0.1,0.0,0.0,357.0,731.0,0.0,1,292.0,1
974,974,0.756538786836329,0.8,0.0,0.0,459.0,678.0,0.0,1,203.0,1
975,975,0.41663776062032276,0.4,1.0,1.0,419.0,704.0,1.0,1,287.0,1
976,976,0.202023478925777,0.2,1.0,1.0,388.0,698.0,1.0,1,254.0,1
977,977,-0.04523622872545019,-0.0,1.0,0.0,369.0,719.0,0.0,0,832.0,1
978,978,0.8494873809503539,0.8,1.0,1.0,478.0,746.0,1.0,1,56.0,1
979,979,-0.8039990990580406,-0.8,1.0,0.0,334.0,702.0,0.0,0,244.0,1
980,980,0.1316924827062652,0.1,0.0,0.0,279.0,583.0,0.0,1,398.0,1
981,981,-0.0786763810917338,-0.1,1.0,0.0,381.0,623.0,0.0,0,1076.0,1
982,982,0.4234059139365104,0.4,0.0,0.0,361.0,710.0,0.0,1,119.0,1
983,983,-0.34347479843840856,-0.3,0.0,1.0,458.0,990.0,1.0,0,162.0,1
984,984,0.1247930836717096,0.1,0.0,0.0,290.0,930.0,0.0,1,710.0,1
985,985,-0.4741954784672093,-0.5,0.0,1.0,429.0,787.0,1.0,0,214.0,1
986,986,-0.02282165768732647,-0.0,1.0,0.0,488.0,712.0,0.0,0,260.0,1
987,987,-0.008604997771123557,-0.0,0.0,1.0,265.0,559.0,1.0,0,1216.0,1
988,988,0.46902500092834,0.5,0.0,0.0,418.0,698.0,0.0,1,114.0,1
989,989,0.5362342774715384,0.5,0.0,0.0,425.0,503.0,0.0,1,252.0,1
990,990,0.05375705260790953,0.1,1.0,1.0,428.0,563.0,1.0,1,799.0,1
991,991,0.5708011359115114,0.6,0.0,0.0,266.0,776.0,0.0,1,118.0,1
992,992,-0.8191502872326801,-0.8,1.0,0.0,284.0,917.0,0.0,0,69.0,1
993,993,0.6393869688542039,0.6,1.0,1.0,400.0,907.0,1.0,1,153.0,1
994,994,-0.04989305425430879,-0.0,1.0,0.0,304.0,745.0,0.0,0,511.0,1
995,995,-0.8546280385708362,-0.9,1.0,0.0,364.0,947.0,0.0,0,159.0,1
996,996,-0.5732832772326619,-0.6,1.0,0.0,466.0,563.0,0.0,0,351.0,1
997,997,0.7092840047334467,0.7,1.0,1.0,365.0,627.0,1.0,1,248.0,1
998,998,0.6690939019151002,0.7,0.0,0.0,376.0,815.0,0.0,1,189.0,1
999,999,-0.3852468468312582,-0.4,1.0,0.0,434.0,893.0,0.0,0,13.0,1
1000,1000,0.08043459355315041,0.1,0.0,0.0,470.0,958.0,0.0,1,192.0,1
1001,1001,0.36767336154555175,0.4,1.0,1.0,468.0,537.0,1.0,1,695.0,1
1002,1002,0.002899174692684303,0.0,1.0,1.0,323.0,991.0,1.0,1,236.0,1
1003,1003,-0.0533018278745917,-0.1,1.0,0.0,412.0,979.0,0.0,0,129.0,1
1004,1004,-0.41181487201409056,-0.4,0.0,1.0,479.0,657.0,1.0,0,474.0,1
1005,1005,0.33785015377968997,0.3,1.0,1.0,391.0,695.0,1.0,1,334.0,1
1006,1006,-0.43928894355443715,-0.4,1.0,0.0,293.0,931.0,0.0,0,106.0,1
1007,1007,0.25853849657644845,0.3,0.0,0.0,346.0,519.0,0.0,1,405.0,1
1008,1008,0.38044686694564567,0.4,1.0,1.0,494.0,729.0,1.0,1,197.0,1
1009,1009,0.07427248046947077,0.1,1.0,1.0,421.0,550.0,1.0,1,679.0,1
1010,1010,0.2695780762034924,0.3,1.0,1.0,358.0,943.0,1.0,1,269.0,1
1011,1011,0.15112563342256713,0.2,1.0,1.0,265.0,783.0,1.0,1,372.0,1
1012,1012,0.17532805583451527,0.2,0.0,0.0,382.0,611.0,0.0,1,257.0,1
1013,1013,-0.402065004141061,-0.4,0.0,1.0,469.0,838.0,1.0,0,103.0,1
1014,1014,0.4728821798768773,0.5,0.0,0.0,281.0,931.0,0.0,1,128.0,1
1015,1015,-0.4056652187946867,-0.4,0.0,1.0,409.0,704.0,1.0,0,407.0,1
1016,1016,-0.01049896526088967,-0.0,1.0,0.0,399.0,519.0,1.0,1,762.0,0
1017,1017,-0.02999300453937037,-0.0,0.0,1.0,402.0,726.0,1.0,0,432.0,1
1018,1018,0.8083839353292271,0.8,0.0,0.0,366.0,677.0,0.0,1,167.0,1
1019,1019,-0.25497234881035147,-0.3,0.0,1.0,315.0,571.0,1.0,0,494.0,1
1020,1020,-0.691038403764797,-0.7,0.0,1.0,315.0,579.0,1.0,0,546.0,1
1021,1021,-0.4649673087190307,-0.5,1.0,0.0,294.0,832.0,0.0,0,344.0,1
1022,1022,-0.2426228374193482,-0.2,1.0,0.0,402.0,611.0,0.0,0,307.0,1
1023,1023,-0.2575675526305684,-0.3,0.0,1.0,278.0,783.0,1.0,0,339.0,1
1024,1024,-0.7035773554888647,-0.7,0.0,1.0,431.0,918.0,1.0,0,41.0,1
1025,1025,0.32708605950773395,0.3,0.0,0.0,449.0,766.0,0.0,1,145.0,1
1026,1026,-0.4059660869487581,-0.4,0.0,1.0,477.0,541.0,1.0,0,602.0,1
1027,1027,0.5639763943168893,0.6,0.0,0.0,309.0,957.0,0.0,1,174.0,1
1028,1028,0.15347756343884977,0.2,0.0,0.0,390.0,731.0,0.0,1,469.0,1
1029,1029,0.05278017362863607,0.1,0.0,0.0,352.0,632.0,0.0,1,546.0,1
1030,1030,-0.4874518840280609,-0.5,1.0,0.0,301.0,771.0,0.0,0,78.0,1
1031,1031,0.3781190936675817,0.4,0.0,0.0,251.0,536.0,0.0,1,223.0,1
1032,1032,0.7623251830340857,0.8,1.0,1.0,471.0,902.0,1.0,1,97.0,1
1033,1033,-0.7565938820930262,-0.8,0.0,1.0,493.0,682.0,1.0,0,225.0,1
1034,1034,-0.6298358337273093,-0.6,0.0,1.0,342.0,896.0,1.0,0,162.0,1
1035,1035,0.1284017460718071,0.1,0.0,0.0,416.0,739.0,0.0,1,455.0,1
1036,1036,0.6885196128163938,0.7,0.0,0.0,262.0,999.0,0.0,1,109.0,1
1037,1037,0.703136004924006,0.7,1.0,1.0,276.0,734.0,1.0,1,120.0,1
1038,1038,-0.34649760940977525,-0.3,0.0,1.0,383.0,591.0,1.0,0,606.0,1
1039,1039,-0.6817921652652428,-0.7,0.0,1.0,323.0,791.0,1.0,0,186.0,1
1040,1040,0.44058492372876346,0.4,1.0,1.0,416.0,742.0,1.0,1,152.0,1
1041,1041,0.8456097965407064,0.8,0.0,0.0,357.0,979.0,0.0,1,174.0,1
1042,1042,-0.40605017247576014,-0.4,0.0,1.0,364.0,795.0,1.0,0,221.0,1
1043,1043,0.28339743049442834,0.3,0.0,0.0,251.0,546.0,0.0,1,253.0,1
1044,1044,0.24389616927877722,0.2,1.0,1.0,490.0,564.0,1.0,1,366.0,1
1045,1045,0.7387004268547589,0.7,1.0,1.0,352.0,873.0,1.0,1,125.0,1
1046,1046,0.8715725810457878,0.9,1.0,1.0,493.0,653.0,1.0,1,134.0,1
1047,1047,0.11209715987962132,0.1,1.0,1.0,496.0,839.0,1.0,1,325.0,1
1048,1048,0.6943851713141335,0.7,0.0,0.0,455.0,763.0,0.0,1,122.0,1
1049,1049,-0.8079719278144457,-0.8,0.0,1.0,457.0,978.0,1.0,0,115.0,1
1050,1050,0.264843508233905,0.3,0.0,0.0,463.0,795.0,0.0,1,202.0,1
1051,1051,0.7844054321813373,0.8,1.0,1.0,467.0,813.0,1.0,1,110.0,1
1052,1052,0.15434397017657464,0.2,0.0,0.0,454.0,685.0,0.0,1,661.0,1
1053,1053,0.5629256708420599,0.6,0.0,0.0,470.0,612.0,0.0,1,238.0,1
1054,1054,0.4438913009077753,0.4,0.0,0.0,354.0,914.0,0.0,1,262.0,1
1055,1055,0.8963937041093252,0.9,1.0,1.0,315.0,953.0,1.0,1,202.0,1
1056,1056,0.10916240511732289,0.1,1.0,1.0,426.0,897.0,1.0,1,387.0,1
1057,1057,-0.12618621613597525,-0.1,0.0,1.0,391.0,695.0,1.0,0,314.0,1
1058,1058,0.10234519348075632,0.1,0.0,0.0,473.0,719.0,0.0,1,718.0,1
1059,1059,-0.8815311261144326,-0.9,1.0,0.0,348.0,973.0,0.0,0,179.0,1
1060,1060,0.786629690803523,0.8,0.0,0.0,400.0,512.0,0.0,1,868.0,1
1061,1061,0.07374976495011099,0.1,0.0,0.0,354.0,566.0,0.0,1,440.0,1
1062,1062,0.17389201424519374,0.2,0.0,0.0,342.0,922.0,0.0,1,206.0,1
1063,1063,0.5591300068679163,0.6,0.0,0.0,325.0,856.0,0.0,1,119.0,1
1064,1064,0.7342571449619936,0.7,1.0,1.0,272.0,851.0,1.0,1,147.0,1
1065,1065,0.4561474610070094,0.5,1.0,1.0,448.0,908.0,1.0,1,164.0,1
1066,1066,-0.6914366667874549,-0.7,1.0,0.0,333.0,975.0,0.0,0,102.0,1
1067,1067,-0.17995931655905828,-0.2,0.0,1.0,396.0,563.0,1.0,0,631.0,1
1068,1068,-0.5043495752003759,-0.5,1.0,0.0,320.0,867.0,0.0,0,283.0,1
1069,1069,0.5032307292414927,0.5,1.0,1.0,430.0,935.0,1.0,1,155.0,1
1070,1070,-0.5877062007152625,-0.6,0.0,1.0,386.0,839.0,1.0,0,85.0,1
1071,1071,0.6736294397571035,0.7,1.0,1.0,392.0,801.0,1.0,1,207.0,1
1072,1072,-0.3765090091341957,-0.4,0.0,1.0,290.0,849.0,1.0,0,221.0,1
1073,1073,0.3425551968717263,0.3,0.0,0.0,260.0,844.0,0.0,1,166.0,1
1074,1074,-0.5375774421832672,-0.5,0.0,1.0,300.0,511.0,1.0,0,309.0,1
1075,1075,-0.8706498473935986,-0.9,1.0,0.0,398.0,987.0,0.0,0,145.0,1
1076,1076,0.31027954905695354,0.3,1.0,1.0,461.0,658.0,1.0,1,381.0,1
1077,1077,0.6699156266696097,0.7,1.0,1.0,328.0,617.0,1.0,1,225.0,1
1078,1078,-0.6101059552636721,-0.6,0.0,1.0,378.0,896.0,1.0,0,226.0,1
1079,1079,-0.16703949544943208,-0.2,0.0,1.0,460.0,538.0,1.0,0,482.0,1
1080,1080,0.8231605145946853,0.8,0.0,0.0,349.0,552.0,0.0,1,189.0,1
1081,1081,0.09419425283817517,0.1,0.0,0.0,314.0,565.0,0.0,1,1041.0,1
1082,1082,0.806503442780614,0.8,1.0,1.0,368.0,586.0,1.0,1,176.0,1
1083,1083,0.4838263004880806,0.5,0.0,0.0,462.0,973.0,0.0,1,95.0,1
1084,1084,-0.24841193214418977,-0.2,0.0,1.0,418.0,989.0,1.0,0,143.0,1
1085,1085,0.05184093710153803,0.1,1.0,1.0,353.0,651.0,1.0,1,726.0,1
1086,1086,0.3421277149541214,0.3,0.0,0.0,420.0,553.0,0.0,1,227.0,1
1087,1087,-0.29285661732347745,-0.3,0.0,1.0,448.0,522.0,1.0,0,490.0,1
1088,1088,0.43552505147872045,0.4,1.0,1.0,463.0,741.0,1.0,1,266.0,1
1089,1089,0.6021722945400324,0.6,1.0,1.0,494.0,930.0,1.0,1,96.0,1
1090,1090,0.7158399048346163,0.7,1.0,1.0,344.0,893.0,1.0,1,173.0,1
1091,1091,-0.039246220714066915,-0.0,1.0,0.0,306.0,872.0,1.0,1,222.0,0
1092,1092,0.5074308683252732,0.5,0.0,0.0,458.0,761.0,0.0,1,141.0,1
1093,1093,-0.8939359470623628,-0.9,0.0,1.0,497.0,982.0,1.0,0,221.0,1
1094,1094,-0.06098587842403835,-0.1,0.0,1.0,483.0,521.0,1.0,0,1346.0,1
1095,1095,-0.20049087816932676,-0.2,1.0,0.0,288.0,784.0,0.0,0,208.0,1
1096,1096,0.8701831488045756,0.9,1.0,1.0,350.0,730.0,1.0,1,180.0,1
1097,1097,0.6040270619015627,0.6,0.0,0.0,272.0,600.0,0.0,1,408.0,1
1098,1098,0.2276300846792444,0.2,0.0,0.0,300.0,549.0,0.0,1,421.0,1
1099,1099,-0.1874385101352819,-0.2,1.0,0.0,378.0,867.0,0.0,0,475.0,1
1100,1100,0.5238749171248961,0.5,0.0,0.0,416.0,663.0,0.0,1,211.0,1
1101,1101,-0.3369996228397091,-0.3,1.0,0.0,394.0,904.0,0.0,0,212.0,1
1102,1102,-0.606171584465558,-0.6,0.0,1.0,276.0,736.0,1.0,0,198.0,1
1103,1103,0.12788291921194872,0.1,1.0,1.0,401.0,530.0,1.0,1,359.0,1
1104,1104,-0.72862297822573,-0.7,0.0,1.0,449.0,954.0,1.0,0,47.0,1
1105,1105,0.46433296141336033,0.5,0.0,0.0,298.0,944.0,0.0,1,208.0,1
1106,1106,0.6135912084157616,0.6,0.0,0.0,476.0,803.0,0.0,1,131.0,1
1107,1107,-0.785935914873086,-0.8,1.0,0.0,335.0,597.0,0.0,0,178.0,1
1108,1108,0.5718742844833692,0.6,0.0,0.0,480.0,730.0,0.0,1,200.0,1
1109,1109,-0.7402960598928682,-0.7,0.0,1.0,324.0,914.0,1.0,0,82.0,1
1110,1110,-0.7868816192001086,-0.8,0.0,1.0,297.0,996.0,1.0,0,87.0,1
1111,1111,-0.41376653787103757,-0.4,0.0,1.0,495.0,834.0,1.0,0,251.0,1
1112,1112,0.014312787574672359,0.0,1.0,1.0,314.0,659.0,1.0,1,2027.0,1
1113,1113,-0.24380957246133628,-0.2,1.0,0.0,412.0,783.0,0.0,0,425.0,1
1114,1114,-0.3893008677480023,-0.4,0.0,1.0,368.0,606.0,1.0,0,186.0,1
1115,1115,-0.3377186682586003,-0.3,1.0,0.0,338.0,673.0,0.0,0,109.0,1
1116,1116,-0.25683174351416793,-0.3,0.0,1.0,463.0,890.0,1.0,0,297.0,1
1117,1117,0.6478967260598983,0.6,0.0,0.0,323.0,631.0,0.0,1,386.0,1
1118,1118,0.05004808338198308,0.1,0.0,0.0,411.0,534.0,0.0,1,425.0,1
1119,1119,0.5285782257911521,0.5,0.0,0.0,465.0,875.0,0.0,1,90.0,1
1120,1120,-0.09188908914353966,-0.1,1.0,0.0,298.0,705.0,0.0,0,647.0,1
1121,1121,0.747914142902501,0.7,0.0,0.0,349.0,611.0,0.0,1,180.0,1
1122,1122,0.5497194542958427,0.5,1.0,1.0,284.0,629.0,1.0,1,217.0,1
1123,1123,0.3679384576736656,0.4,1.0,1.0,393.0,670.0,1.0,1,337.0,1
1124,1124,0.34930045762095274,0.3,0.0,0.0,396.0,990.0,0.0,1,94.0,1
1125,1125,-0.34133883009676724,-0.3,1.0,0.0,433.0,984.0,0.0,0,333.0,1
1126,1126,-0.4491277226895531,-0.4,1.0,0.0,492.0,623.0,0.0,0,165.0,1
1127,1127,0.7031109518313633,0.7,1.0,1.0,332.0,827.0,1.0,1,91.0,1
1128,1128,0.22561589401373616,0.2,1.0,1.0,279.0,860.0,1.0,1,301.0,1
1129,1129,0.7023705659764544,0.7,0.0,0.0,432.0,896.0,0.0,1,102.0,1
1130,1130,0.3555493113447,0.4,0.0,0.0,325.0,781.0,0.0,1,334.0,1
1131,1131,-0.6913126423975781,-0.7,0.0,1.0,438.0,674.0,1.0,0,318.0,1
1132,1132,0.5251231455432449,0.5,1.0,1.0,334.0,924.0,1.0,1,82.0,1
1133,1133,0.5543766047952462,0.6,0.0,0.0,385.0,845.0,0.0,1,150.0,1
1134,1134,-0.511374239463952,-0.5,1.0,0.0,259.0,610.0,0.0,0,221.0,1
1135,1135,-0.38253677801698427,-0.4,1.0,0.0,397.0,549.0,0.0,0,484.0,1
1136,1136,-0.7885259800350697,-0.8,0.0,1.0,358.0,573.0,1.0,0,189.0,1
1137,1137,0.1911088672484914,0.2,1.0,1.0,273.0,872.0,1.0,1,255.0,1
1138,1138,0.7364729836442393,0.7,1.0,1.0,284.0,883.0,1.0,1,113.0,1
1139,1139,0.11692545259138087,0.1,1.0,1.0,254.0,875.0,1.0,1,761.0,1
1140,1140,-0.838187783984082,-0.8,1.0,0.0,287.0,940.0,0.0,0,183.0,1
1141,1141,0.742297528164292,0.7,0.0,0.0,425.0,568.0,0.0,1,277.0,1
1142,1142,-0.2257870550540615,-0.2,0.0,1.0,266.0,678.0,1.0,0,416.0,1
1143,1143,0.3276868982774298,0.3,0.0,0.0,269.0,651.0,0.0,1,340.0,1
1144,1144,-0.6185078229162082,-0.6,1.0,0.0,479.0,820.0,0.0,0,101.0,1
1145,1145,0.023524084344802132,0.0,0.0,0.0,301.0,549.0,1.0,0,2150.0,0
1146,1146,0.7321256485855449,0.7,1.0,1.0,413.0,822.0,1.0,1,125.0,1
1147,1147,0.629996431025856,0.6,0.0,0.0,486.0,685.0,0.0,1,179.0,1
1148,1148,0.47808490154514904,0.5,0.0,0.0,425.0,682.0,0.0,1,393.0,1
1149,1149,-0.31488976544149816,-0.3,1.0,0.0,435.0,642.0,0.0,0,493.0,1
1150,1150,0.5845980054269783,0.6,0.0,0.0,402.0,911.0,0.0,1,157.0,1
1151,1151,-0.168744344104808,-0.2,0.0,1.0,489.0,647.0,1.0,0,754.0,1
1152,1152,0.16382605928955674,0.2,0.0,0.0,484.0,730.0,0.0,1,206.0,1
1153,1153,-0.43205238720131794,-0.4,1.0,0.0,354.0,908.0,0.0,0,378.0,1
1154,1154,0.4442165624358262,0.4,1.0,1.0,489.0,561.0,1.0,1,540.0,1
1155,1155,-0.5633746266001209,-0.6,1.0,0.0,424.0,703.0,0.0,0,193.0,1
1156,1156,0.7224048515157845,0.7,1.0,1.0,427.0,828.0,1.0,1,75.0,1
1157,1157,0.7639733459910586,0.8,0.0,0.0,432.0,842.0,0.0,1,136.0,1
1158,1158,0.652069959287697,0.7,0.0,0.0,289.0,803.0,0.0,1,128.0,1
1159,1159,-0.693792901979149,-0.7,1.0,0.0,499.0,528.0,0.0,0,83.0,1
1160,1160,0.2753487834748819,0.3,0.0,0.0,405.0,917.0,0.0,1,248.0,1
1161,1161,-0.2976424872397676,-0.3,0.0,1.0,471.0,528.0,1.0,0,301.0,1
1162,1162,-0.40933843301515593,-0.4,0.0,1.0,303.0,862.0,1.0,0,145.0,1
1163,1163,-0.4460776184264543,-0.4,1.0,0.0,483.0,909.0,0.0,0,198.0,1
1164,1164,0.6783119512898684,0.7,1.0,1.0,292.0,965.0,1.0,1,53.0,1
1165,1165,-0.8441501833012632,-0.8,0.0,1.0,460.0,833.0,1.0,0,107.0,1
1166,1166,-0.7042521982840412,-0.7,1.0,0.0,433.0,605.0,0.0,0,232.0,1
1167,1167,0.049602520537521455,0.0,0.0,0.0,385.0,780.0,0.0,1,455.0,1
1168,1168,-0.8373249738587627,-0.8,1.0,0.0,472.0,533.0,0.0,0,185.0,1
1169,1169,-0.02472380536282448,-0.0,0.0,1.0,317.0,798.0,0.0,1,365.0,0
1170,1170,0.7441258807848635,0.7,1.0,1.0,461.0,843.0,1.0,1,66.0,1
1171,1171,-0.6804117868560648,-0.7,0.0,1.0,295.0,984.0,1.0,0,131.0,1
1172,1172,0.8548163322239798,0.9,0.0,0.0,444.0,841.0,0.0,1,145.0,1
1173,1173,0.47857618714879246,0.5,1.0,1.0,464.0,837.0,1.0,1,169.0,1
1174,1174,0.4296642330734596,0.4,1.0,1.0,264.0,675.0,1.0,1,221.0,1
1175,1175,0.45363914351215195,0.5,1.0,1.0,259.0,634.0,1.0,1,107.0,1
1176,1176,-0.3585784220065086,-0.4,1.0,0.0,435.0,839.0,0.0,0,126.0,1
1177,1177,-0.40583235495304637,-0.4,1.0,0.0,348.0,581.0,0.0,0,231.0,1
1178,1178,0.49569723187307957,0.5,0.0,0.0,292.0,792.0,0.0,1,226.0,1
1179,1179,0.6911281653097455,0.7,0.0,0.0,458.0,661.0,0.0,1,131.0,1
1180,1180,-0.6086360925613908,-0.6,1.0,0.0,403.0,658.0,0.0,0,239.0,1
1181,1181,-0.7359472145551169,-0.7,0.0,1.0,491.0,673.0,1.0,0,196.0,1
1182,1182,-0.4576961756196663,-0.5,0.0,1.0,454.0,705.0,1.0,0,281.0,1
1183,1183,-0.3980985170439202,-0.4,1.0,0.0,302.0,642.0,0.0,0,186.0,1
1184,1184,0.8282795627753105,0.8,1.0,1.0,322.0,970.0,1.0,1,28.0,1
1185,1185,-0.14638614445790799,-0.1,0.0,1.0,391.0,900.0,1.0,0,399.0,1
1186,1186,-0.18668304560566784,-0.2,1.0,0.0,349.0,810.0,0.0,0,221.0,1
1187,1187,-0.24958355373245544,-0.2,1.0,0.0,314.0,729.0,0.0,0,267.0,1
1188,1188,-0.773441197183936,-0.8,0.0,1.0,379.0,606.0,1.0,0,545.0,1
1189,1189,-0.12342459933825922,-0.1,0.0,1.0,336.0,632.0,1.0,0,282.0,1
1190,1190,0.43176677589603074,0.4,1.0,1.0,282.0,808.0,1.0,1,110.0,1
1191,1191,0.3617682252368616,0.4,0.0,0.0,448.0,983.0,0.0,1,159.0,1
1192,1192,0.13324309915451316,0.1,0.0,0.0,481.0,699.0,0.0,1,230.0,1
1193,1193,-0.6116672413259086,-0.6,0.0,1.0,361.0,568.0,1.0,0,341.0,1
1194,1194,0.6886186697789668,0.7,1.0,1.0,253.0,639.0,1.0,1,198.0,1
1195,1195,0.35832621241078744,0.4,0.0,0.0,333.0,523.0,0.0,1,244.0,1
1196,1196,-0.537281160411796,-0.5,1.0,0.0,250.0,663.0,0.0,0,107.0,1
1197,1197,0.40305224525789873,0.4,1.0,1.0,369.0,596.0,1.0,1,245.0,1
1198,1198,-0.3494577139970477,-0.3,0.0,1.0,354.0,580.0,1.0,0,466.0,1
1199,1199,0.8109991627768466,0.8,0.0,0.0,301.0,808.0,0.0,1,91.0,1
1200,1200,-0.6029982186272431,-0.6,0.0,1.0,495.0,525.0,1.0,0,700.0,1
1201,1201,-0.33916430599084013,-0.3,0.0,1.0,264.0,775.0,1.0,0,281.0,1
1202,1202,-0.403002744306384,-0.4,1.0,0.0,499.0,563.0,0.0,0,198.0,1
1203,1203,0.43796717870768564,0.4,1.0,1.0,277.0,998.0,1.0,1,145.0,1
1204,1204,-0.41610497058497137,-0.4,1.0,0.0,453.0,612.0,0.0,0,215.0,1
1205,1205,0.6951142344885094,0.7,0.0,0.0,272.0,648.0,0.0,1,180.0,1
1206,1206,0.1261946058962634,0.1,1.0,1.0,353.0,712.0,1.0,1,365.0,1
1207,1207,-0.6969817513614046,-0.7,0.0,1.0,255.0,511.0,1.0,0,454.0,1
1208,1208,0.1782637513886679,0.2,0.0,0.0,345.0,804.0,0.0,1,531.0,1
1209,1209,0.09211170111800016,0.1,1.0,1.0,310.0,538.0,1.0,1,332.0,1
1210,1210,0.7714974745840532,0.8,1.0,1.0,492.0,981.0,1.0,1,97.0,1
1211,1211,0.00040813740075984484,0.0,0.0,0.0,372.0,702.0,1.0,0,656.0,0
1212,1212,-0.1149969024460934,-0.1,1.0,0.0,482.0,636.0,0.0,0,1172.0,1
1213,1213,0.08750266640373805,0.1,0.0,0.0,437.0,787.0,0.0,1,416.0,1
1214,1214,0.4329051533196254,0.4,1.0,1.0,492.0,679.0,1.0,1,309.0,1
1215,1215,-0.39591793552159416,-0.4,1.0,0.0,476.0,662.0,0.0,0,212.0,1
1216,1216,-0.7719894592364823,-0.8,1.0,0.0,298.0,502.0,0.0,0,360.0,1
1217,1217,0.20176518563192303,0.2,1.0,1.0,415.0,688.0,1.0,1,547.0,1
1218,1218,0.49639954559607646,0.5,0.0,0.0,403.0,526.0,0.0,1,251.0,1
1219,1219,0.562790996518033,0.6,1.0,1.0,335.0,620.0,1.0,1,305.0,1
1220,1220,0.007177702745184145,0.0,1.0,1.0,430.0,941.0,0.0,0,99.0,0
1221,1221,-0.5322495165361997,-0.5,0.0,1.0,442.0,762.0,1.0,0,256.0,1
1222,1222,-0.8227681169506986,-0.8,1.0,0.0,435.0,575.0,0.0,0,300.0,1
1223,1223,0.7427105599953231,0.7,0.0,0.0,471.0,735.0,0.0,1,154.0,1
1224,1224,-0.630603461231375,-0.6,0.0,1.0,286.0,727.0,1.0,0,387.0,1
1225,1225,0.6378194921269128,0.6,1.0,1.0,263.0,845.0,1.0,1,242.0,1
1226,1226,0.8900845124199447,0.9,1.0,1.0,299.0,736.0,1.0,1,35.0,1
1227,1227,-0.041636070443257456,-0.0,0.0,1.0,498.0,618.0,1.0,0,674.0,1
1228,1228,0.05174110818637745,0.1,0.0,0.0,399.0,850.0,0.0,1,411.0,1
1229,1229,-0.04245987407525553,-0.0,1.0,0.0,470.0,741.0,0.0,0,609.0,1
1230,1230,0.2980400864309939,0.3,1.0,1.0,368.0,886.0,1.0,1,336.0,1
1231,1231,0.8550099783669262,0.9,1.0,1.0,353.0,926.0,1.0,1,211.0,1
1232,1232,0.800425707928539,0.8,1.0,1.0,399.0,798.0,1.0,1,63.0,1
1233,1233,-0.01671532829810185,-0.0,1.0,0.0,347.0,611.0,0.0,0,682.0,1
1234,1234,-0.5880759392603607,-0.6,1.0,0.0,286.0,896.0,0.0,0,158.0,1
1235,1235,0.34394735303759905,0.3,1.0,1.0,442.0,982.0,1.0,1,16.0,1
1236,1236,-0.8758271090136023,-0.9,1.0,0.0,431.0,500.0,0.0,0,279.0,1
1237,1237,-0.3590117561365622,-0.4,0.0,1.0,370.0,878.0,1.0,0,212.0,1
1238,1238,0.40779099032127475,0.4,1.0,1.0,470.0,655.0,1.0,1,135.0,1
1239,1239,0.3022359054889995,0.3,0.0,0.0,349.0,598.0,0.0,1,353.0,1
1240,1240,-0.6898565612232989,-0.7,0.0,1.0,273.0,654.0,1.0,0,433.0,1
1241,1241,0.5302027410146578,0.5,1.0,1.0,432.0,992.0,0.0,0,-164.0,0
1242,1242,-0.3636975851931943,-0.4,0.0,1.0,317.0,925.0,1.0,0,78.0,1
1243,1243,0.6378524498923096,0.6,1.0,1.0,341.0,910.0,1.0,1,179.0,1
1244,1244,-0.3016013577202272,-0.3,1.0,0.0,350.0,583.0,0.0,0,607.0,1
1245,1245,-0.41072107142554815,-0.4,1.0,0.0,417.0,693.0,0.0,0,340.0,1
1246,1246,-0.12455238912569067,-0.1,1.0,0.0,462.0,542.0,0.0,0,496.0,1
1247,1247,-0.8242440662900385,-0.8,1.0,0.0,476.0,935.0,0.0,0,149.0,1
1248,1248,0.09422963526568329,0.1,1.0,1.0,349.0,520.0,1.0,1,561.0,1
1249,1249,0.5464559952655653,0.5,1.0,1.0,407.0,877.0,1.0,1,206.0,1
1250,1250,-0.6598996356588561,-0.7,1.0,0.0,288.0,893.0,0.0,0,-61.0,1
1251,1251,0.2744455840154595,0.3,0.0,0.0,424.0,526.0,0.0,1,200.0,1
1252,1252,-0.3301935414224074,-0.3,0.0,1.0,476.0,999.0,1.0,0,175.0,1
1253,1253,-0.16505343017437013,-0.2,1.0,0.0,407.0,571.0,0.0,0,262.0,1
1254,1254,-0.5339002100205557,-0.5,1.0,0.0,268.0,725.0,0.0,0,117.0,1
1255,1255,0.46889601087961175,0.5,0.0,0.0,376.0,614.0,0.0,1,210.0,1
1256,1256,-0.5439667183162407,-0.5,0.0,1.0,372.0,555.0,1.0,0,373.0,1
1257,1257,-0.43867792891271334,-0.4,0.0,1.0,476.0,635.0,1.0,0,279.0,1
1258,1258,-0.7725078358055643,-0.8,0.0,1.0,405.0,927.0,1.0,0,108.0,1
1259,1259,0.6424713764656403,0.6,0.0,0.0,404.0,827.0,0.0,1,159.0,1
1260,1260,0.3967688435632585,0.4,1.0,1.0,441.0,661.0,1.0,1,368.0,1
1261,1261,-0.12033263036907305,-0.1,1.0,0.0,259.0,834.0,0.0,0,177.0,1
1262,1262,-0.16620018897671618,-0.2,1.0,0.0,299.0,818.0,0.0,0,453.0,1
1263,1263,0.02077121599964671,0.0,1.0,1.0,358.0,731.0,1.0,1,951.0,1
1264,1264,0.6849885167486974,0.7,0.0,0.0,348.0,760.0,0.0,1,212.0,1
1265,1265,0.5114662044371828,0.5,0.0,0.0,361.0,980.0,0.0,1,169.0,1
1266,1266,-0.6403047793211258,-0.6,1.0,0.0,421.0,881.0,0.0,0,118.0,1
1267,1267,-0.428264636634519,-0.4,0.0,1.0,458.0,555.0,1.0,0,197.0,1
1268,1268,-0.31954919612161703,-0.3,0.0,1.0,498.0,624.0,1.0,0,268.0,1
1269,1269,-0.5378541012941724,-0.5,1.0,0.0,400.0,741.0,0.0,0,199.0,1
1270,1270,-0.07253964180870698,-0.1,0.0,1.0,261.0,939.0,1.0,0,670.0,1
1271,1271,-0.18627404268440706,-0.2,0.0,1.0,363.0,753.0,1.0,0,384.0,1
1272,1272,0.21529312047810334,0.2,1.0,1.0,281.0,787.0,1.0,1,302.0,1
1273,1273,-0.2911414181843648,-0.3,0.0,1.0,261.0,877.0,1.0,0,152.0,1
1274,1274,0.09094819827383882,0.1,1.0,1.0,475.0,640.0,1.0,1,365.0,1
1275,1275,-0.17566839632159348,-0.2,1.0,0.0,428.0,788.0,0.0,0,164.0,1
1276,1276,0.003205655314628353,0.0,0.0,0.0,397.0,689.0,0.0,1,1184.0,1
1277,1277,0.1497807593308863,0.1,0.0,0.0,362.0,732.0,0.0,1,356.0,1
1278,1278,-0.09926832767559135,-0.1,1.0,0.0,449.0,547.0,0.0,0,284.0,1
1279,1279,0.7334031407497729,0.7,1.0,1.0,386.0,803.0,1.0,1,81.0,1
1280,1280,-0.6295275819378725,-0.6,1.0,0.0,489.0,544.0,0.0,0,187.0,1
1281,1281,-0.4862356330370997,-0.5,1.0,0.0,461.0,928.0,0.0,0,231.0,1
1282,1282,0.22369936612656105,0.2,1.0,1.0,345.0,579.0,1.0,1,436.0,1
1283,1283,-0.7777478979400971,-0.8,0.0,1.0,326.0,544.0,1.0,0,280.0,1
1284,1284,0.6833432106051586,0.7,1.0,1.0,309.0,775.0,1.0,1,206.0,1
1285,1285,0.8186602153114345,0.8,0.0,0.0,320.0,844.0,0.0,1,126.0,1
1286,1286,-0.08310564026063183,-0.1,0.0,1.0,378.0,614.0,1.0,0,638.0,1
1287,1287,-0.13072540090833706,-0.1,0.0,1.0,461.0,764.0,1.0,0,215.0,1
1288,1288,-0.3032238147041152,-0.3,0.0,1.0,469.0,774.0,1.0,0,287.0,1
1289,1289,0.32280453459382985,0.3,0.0,0.0,319.0,527.0,0.0,1,424.0,1
1290,1290,0.7161737777977243,0.7,0.0,0.0,380.0,815.0,0.0,1,315.0,1
1291,1291,-0.8927820982930408,-0.9,0.0,1.0,343.0,530.0,1.0,0,447.0,1
1292,1292,-0.39732478993536835,-0.4,1.0,0.0,361.0,765.0,0.0,0,114.0,1
1293,1293,-0.597941454021677,-0.6,0.0,1.0,445.0,909.0,1.0,0,326.0,1
1294,1294,-0.46873920540862757,-0.5,1.0,0.0,250.0,638.0,0.0,0,312.0,1
1295,1295,-0.41716929758386173,-0.4,0.0,1.0,304.0,935.0,1.0,0,61.0,1
1296,1296,-0.11898454661308211,-0.1,1.0,0.0,329.0,758.0,0.0,0,363.0,1
1297,1297,-0.7676172258975409,-0.8,1.0,0.0,294.0,923.0,0.0,0,163.0,1
1298,1298,0.8859549362626377,0.9,1.0,1.0,409.0,887.0,1.0,1,124.0,1
1299,1299,-0.20023803149286334,-0.2,0.0,1.0,429.0,690.0,1.0,0,421.0,1
1300,1300,-0.8920781566086879,-0.9,1.0,0.0,282.0,763.0,0.0,0,175.0,1
1301,1301,-0.2754432755262082,-0.3,1.0,0.0,412.0,620.0,0.0,0,298.0,1
1302,1302,-0.44177100184531354,-0.4,0.0,1.0,485.0,584.0,1.0,0,481.0,1
1303,1303,-0.6146576970560449,-0.6,1.0,0.0,427.0,883.0,0.0,0,150.0,1
1304,1304,0.4544488310299405,0.5,1.0,1.0,274.0,878.0,1.0,1,198.0,1
1305,1305,0.7513869326756689,0.8,1.0,1.0,443.0,989.0,1.0,1,108.0,1
1306,1306,0.19129787207696303,0.2,0.0,0.0,305.0,905.0,0.0,1,470.0,1
1307,1307,-0.43542984827649694,-0.4,1.0,0.0,416.0,569.0,0.0,0,365.0,1
1308,1308,-0.3775625952657573,-0.4,0.0,1.0,251.0,850.0,1.0,0,229.0,1
1309,1309,-0.6284056856945465,-0.6,1.0,0.0,338.0,853.0,0.0,0,169.0,1
1310,1310,-0.6835562241651761,-0.7,0.0,1.0,369.0,733.0,1.0,0,158.0,1
1311,1311,0.04189598192069921,0.0,1.0,1.0,410.0,749.0,1.0,1,1841.0,1
1312,1312,0.8024028919863974,0.8,0.0,0.0,477.0,963.0,0.0,1,120.0,1
1313,1313,-0.7225949611319606,-0.7,1.0,0.0,487.0,948.0,0.0,0,155.0,1
1314,1314,-0.6486726808913297,-0.6,1.0,0.0,398.0,577.0,0.0,0,315.0,1
1315,1315,-0.39016039878343256,-0.4,1.0,0.0,478.0,975.0,0.0,0,107.0,1
1316,1316,0.5808569478628899,0.6,0.0,0.0,434.0,527.0,0.0,1,279.0,1
1317,1317,0.4116614702748834,0.4,0.0,0.0,497.0,543.0,0.0,1,410.0,1
1318,1318,-0.1001165327290886,-0.1,0.0,1.0,396.0,799.0,1.0,0,265.0,1
1319,1319,-0.4635373034061618,-0.5,0.0,1.0,395.0,506.0,1.0,0,459.0,1
1320,1320,-0.5633249020420139,-0.6,0.0,1.0,391.0,577.0,1.0,0,262.0,1
1321,1321,0.3994180602772127,0.4,0.0,0.0,377.0,862.0,0.0,1,201.0,1
1322,1322,-0.22463767824015668,-0.2,1.0,0.0,410.0,736.0,0.0,0,144.0,1
1323,1323,0.799592572712675,0.8,1.0,1.0,339.0,957.0,1.0,1,144.0,1
1324,1324,0.24892055383441447,0.2,0.0,0.0,460.0,964.0,0.0,1,386.0,1
1325,1325,0.0008399217109157364,0.0,1.0,1.0,373.0,521.0,1.0,1,2106.0,1
1326,1326,-0.001246000105417422,-0.0,0.0,1.0,331.0,976.0,0.0,1,303.0,0
1327,1327,0.15564387487119202,0.2,1.0,1.0,370.0,508.0,1.0,1,432.0,1
1328,1328,-0.8299430304814099,-0.8,0.0,1.0,441.0,961.0,1.0,0,118.0,1
1329,1329,-0.6670611424485793,-0.7,0.0,1.0,491.0,945.0,1.0,0,64.0,1
1330,1330,0.8692054653642426,0.9,1.0,1.0,481.0,864.0,1.0,1,75.0,1
1331,1331,-0.8116119813473095,-0.8,0.0,1.0,289.0,598.0,1.0,0,163.0,1
1332,1332,-0.7895672637280118,-0.8,1.0,0.0,318.0,803.0,0.0,0,179.0,1
1333,1333,0.050153599678161354,0.1,1.0,1.0,317.0,726.0,1.0,1,547.0,1
1334,1334,-0.5444057106007725,-0.5,0.0,1.0,294.0,908.0,1.0,0,168.0,1
1335,1335,0.19180793239022942,0.2,1.0,1.0,328.0,802.0,1.0,1,290.0,1
1336,1336,-0.18324009142740982,-0.2,1.0,0.0,420.0,965.0,0.0,0,85.0,1
1337,1337,-0.3665839185555607,-0.4,1.0,0.0,393.0,656.0,0.0,0,291.0,1
1338,1338,-0.31393768427153657,-0.3,1.0,0.0,261.0,606.0,0.0,0,293.0,1
1339,1339,-0.5880127126701964,-0.6,1.0,0.0,437.0,698.0,0.0,0,285.0,1
1340,1340,0.4768851359858649,0.5,1.0,1.0,277.0,773.0,1.0,1,150.0,1
1341,1341,-0.5361907245295627,-0.5,0.0,1.0,303.0,577.0,1.0,0,210.0,1
1342,1342,0.68669504900387,0.7,1.0,1.0,354.0,582.0,1.0,1,244.0,1
1343,1343,-0.4802835895405843,-0.5,0.0,1.0,360.0,507.0,1.0,0,483.0,1
1344,1344,0.035471332393770094,0.0,1.0,1.0,489.0,622.0,1.0,1,599.0,1
1345,1345,0.7008897109837212,0.7,1.0,1.0,343.0,550.0,1.0,1,157.0,1
1346,1346,0.21978341819626224,0.2,1.0,1.0,349.0,964.0,1.0,1,157.0,1
1347,1347,-0.5839847957394371,-0.6,1.0,0.0,406.0,812.0,0.0,0,102.0,1
1348,1348,-0.4210728212857016,-0.4,0.0,1.0,291.0,951.0,1.0,0,118.0,1
1349,1349,-0.7497305945395534,-0.7,0.0,1.0,382.0,731.0,1.0,0,217.0,1
1350,1350,-0.8253870779379133,-0.8,1.0,0.0,390.0,765.0,0.0,0,135.0,1
1351,1351,0.2672580024103871,0.3,1.0,1.0,499.0,958.0,1.0,1,243.0,1
1352,1352,-0.36833032479546446,-0.4,0.0,1.0,322.0,712.0,1.0,0,246.0,1
1353,1353,-0.3366836414497504,-0.3,0.0,1.0,261.0,517.0,1.0,0,632.0,1
1354,1354,0.8100430899811674,0.8,0.0,0.0,320.0,985.0,0.0,1,175.0,1
1355,1355,-0.8022037683402709,-0.8,0.0,1.0,415.0,549.0,1.0,0,186.0,1
1356,1356,-0.14673146656506741,-0.1,0.0,1.0,274.0,883.0,1.0,0,83.0,1
1357,1357,0.3802180813331303,0.4,0.0,0.0,353.0,726.0,0.0,1,241.0,1
1358,1358,0.7379051263134594,0.7,0.0,0.0,265.0,800.0,0.0,1,125.0,1
1359,1359,-0.5918734435360179,-0.6,1.0,0.0,444.0,541.0,0.0,0,265.0,1
1360,1360,-0.5871165097236364,-0.6,1.0,0.0,312.0,975.0,0.0,0,233.0,1
1361,1361,-0.7077254813399233,-0.7,0.0,1.0,273.0,809.0,1.0,0,198.0,1
1362,1362,0.290639677160191,0.3,1.0,1.0,400.0,549.0,1.0,1,401.0,1
1363,1363,0.3095261781082562,0.3,1.0,1.0,470.0,911.0,1.0,1,519.0,1
1364,1364,-0.5595463648158174,-0.6,1.0,0.0,256.0,503.0,0.0,0,551.0,1
1365,1365,0.01810207721612156,0.0,1.0,1.0,287.0,571.0,1.0,1,462.0,1
1366,1366,0.06950347517122002,0.1,0.0,0.0,420.0,681.0,0.0,1,929.0,1
1367,1367,-0.2981745643057955,-0.3,1.0,0.0,455.0,650.0,0.0,0,385.0,1
1368,1368,-0.30726621340281335,-0.3,0.0,1.0,407.0,511.0,1.0,0,632.0,1
1369,1369,-0.13048440257580096,-0.1,0.0,1.0,473.0,587.0,1.0,0,640.0,1
1370,1370,-0.6899292963238743,-0.7,0.0,1.0,465.0,565.0,1.0,0,220.0,1
1371,1371,0.06011985916753049,0.1,1.0,1.0,442.0,779.0,1.0,1,699.0,1
1372,1372,0.7769851062682714,0.8,0.0,0.0,372.0,844.0,0.0,1,144.0,1
1373,1373,0.3060961642653218,0.3,0.0,0.0,494.0,961.0,0.0,1,145.0,1
1374,1374,0.5278461069409707,0.5,0.0,0.0,257.0,775.0,0.0,1,248.0,1
1375,1375,-0.8980556095229238,-0.9,0.0,1.0,300.0,694.0,1.0,0,516.0,1
1376,1376,-0.5823149788912205,-0.6,0.0,1.0,338.0,652.0,1.0,0,310.0,1
1377,1377,-0.24622330786206115,-0.2,1.0,0.0,273.0,877.0,0.0,0,160.0,1
1378,1378,0.8358402949952298,0.8,0.0,0.0,286.0,939.0,0.0,1,115.0,1
1379,1379,0.47337771648622173,0.5,0.0,0.0,294.0,537.0,0.0,1,359.0,1
1380,1380,0.5898839663698955,0.6,0.0,0.0,360.0,521.0,0.0,1,299.0,1
1381,1381,-0.3365203258351517,-0.3,0.0,1.0,364.0,970.0,1.0,0,156.0,1
1382,1382,0.3094177841888123,0.3,0.0,0.0,433.0,989.0,0.0,1,428.0,1
1383,1383,-0.5115415274924366,-0.5,0.0,1.0,452.0,547.0,1.0,0,421.0,1
1384,1384,0.8219526768804811,0.8,0.0,0.0,324.0,604.0,0.0,1,182.0,1
1385,1385,0.7677267711303742,0.8,0.0,0.0,350.0,738.0,0.0,1,142.0,1
1386,1386,-0.7476168794099608,-0.7,0.0,1.0,285.0,687.0,1.0,0,518.0,1
1387,1387,0.06397101964681595,0.1,1.0,1.0,283.0,532.0,1.0,1,575.0,1
1388,1388,-0.38485317572066746,-0.4,0.0,1.0,408.0,751.0,1.0,0,211.0,1
1389,1389,0.33596325064596655,0.3,0.0,0.0,445.0,945.0,0.0,1,390.0,1
1390,1390,0.8649756924486193,0.9,0.0,0.0,478.0,659.0,0.0,1,233.0,1
1391,1391,-0.5594912948295688,-0.6,1.0,0.0,458.0,609.0,0.0,0,323.0,1
1392,1392,0.12972879271450688,0.1,1.0,1.0,341.0,863.0,1.0,1,466.0,1
1393,1393,0.07960722331348502,0.1,1.0,1.0,252.0,758.0,1.0,1,1740.0,1
1394,1394,0.4458328185938222,0.4,1.0,1.0,363.0,975.0,1.0,1,142.0,1
1395,1395,-0.5377648249567472,-0.5,0.0,1.0,313.0,549.0,1.0,0,288.0,1
1396,1396,-0.7923956888358868,-0.8,1.0,0.0,436.0,789.0,0.0,0,135.0,1
1397,1397,0.2562889550355455,0.3,1.0,1.0,396.0,834.0,1.0,1,240.0,1
1398,1398,-0.27576236078228045,-0.3,1.0,0.0,314.0,959.0,0.0,0,297.0,1
1399,1399,-0.25978545953258003,-0.3,0.0,1.0,459.0,745.0,1.0,0,276.0,1
1400,1400,-0.6735143627580713,-0.7,0.0,1.0,256.0,937.0,1.0,0,97.0,1
1401,1401,-0.5430917866212809,-0.5,1.0,0.0,406.0,951.0,0.0,0,263.0,1
1402,1402,0.38524333862993443,0.4,1.0,1.0,374.0,647.0,1.0,1,349.0,1
1403,1403,0.4632921566122675,0.5,1.0,1.0,418.0,530.0,1.0,1,202.0,1
1404,1404,-0.49378661196037626,-0.5,0.0,1.0,441.0,600.0,1.0,0,339.0,1
1405,1405,0.08149582329044536,0.1,0.0,0.0,403.0,690.0,0.0,1,1267.0,1
1406,1406,-0.6325357939904239,-0.6,1.0,0.0,326.0,721.0,0.0,0,133.0,1
1407,1407,-0.19320387394970417,-0.2,0.0,1.0,322.0,546.0,1.0,0,732.0,1
1408,1408,-0.6713322812129001,-0.7,0.0,1.0,493.0,872.0,1.0,0,175.0,1
1409,1409,-0.14052075121439878,-0.1,1.0,0.0,349.0,594.0,0.0,0,397.0,1
1410,1410,0.2984171597426938,0.3,0.0,0.0,311.0,694.0,0.0,1,455.0,1
1411,1411,0.6967374691982186,0.7,1.0,1.0,490.0,533.0,1.0,1,127.0,1
1412,1412,-0.6832576225934971,-0.7,0.0,1.0,465.0,522.0,1.0,0,293.0,1
1413,1413,-0.42715424030193855,-0.4,0.0,1.0,382.0,558.0,1.0,0,500.0,1
1414,1414,0.05743479876996116,0.1,1.0,1.0,451.0,931.0,1.0,1,598.0,1
1415,1415,0.09487180635033776,0.1,0.0,0.0,408.0,673.0,0.0,1,419.0,1
1416,1416,0.739824986637844,0.7,0.0,0.0,339.0,608.0,0.0,1,363.0,1
1417,1417,-0.3906457120402208,-0.4,1.0,0.0,497.0,621.0,0.0,0,202.0,1
1418,1418,-0.19577478845504126,-0.2,1.0,0.0,308.0,673.0,0.0,0,639.0,1
1419,1419,0.6837936641656278,0.7,0.0,0.0,266.0,575.0,0.0,1,399.0,1
1420,1420,0.15073609075442362,0.2,1.0,1.0,493.0,501.0,1.0,1,376.0,1
1421,1421,-0.05164817121428855,-0.1,0.0,1.0,401.0,643.0,1.0,0,1956.0,1
1422,1422,-0.4925961318951331,-0.5,1.0,0.0,405.0,514.0,0.0,0,161.0,1
1423,1423,0.027655316056483747,0.0,1.0,1.0,485.0,841.0,1.0,1,1594.0,1
1424,1424,-0.03647221156759661,-0.0,0.0,1.0,485.0,895.0,1.0,0,500.0,1
1425,1425,0.4312929625841003,0.4,0.0,0.0,351.0,656.0,0.0,1,263.0,1
1426,1426,-0.3547218759929135,-0.4,1.0,0.0,370.0,959.0,0.0,0,261.0,1
1427,1427,-0.09672083683556454,-0.1,0.0,1.0,332.0,752.0,1.0,0,186.0,1
1428,1428,-0.394377966106936,-0.4,0.0,1.0,266.0,953.0,1.0,0,241.0,1
1429,1429,0.12556724854209056,0.1,0.0,0.0,397.0,985.0,0.0,1,768.0,1
1430,1430,0.4663704466616617,0.5,1.0,1.0,294.0,629.0,1.0,1,507.0,1
1431,1431,-0.8100391391611638,-0.8,0.0,1.0,409.0,980.0,1.0,0,111.0,1
1432,1432,0.0033709195868250053,0.0,1.0,1.0,453.0,843.0,0.0,0,1084.0,0
1433,1433,-0.06577415495560135,-0.1,0.0,1.0,276.0,861.0,1.0,0,1493.0,1
1434,1434,-0.5148031307813806,-0.5,0.0,1.0,251.0,525.0,1.0,0,224.0,1
1435,1435,-0.4432270612747207,-0.4,1.0,0.0,372.0,542.0,0.0,0,426.0,1
1436,1436,0.5531502268163152,0.6,1.0,1.0,306.0,941.0,1.0,1,163.0,1
1437,1437,0.35294403377219574,0.4,1.0,1.0,359.0,550.0,1.0,1,351.0,1
1438,1438,0.23572076462716873,0.2,1.0,1.0,345.0,835.0,1.0,1,560.0,1
1439,1439,-0.7078770672153335,-0.7,1.0,0.0,331.0,811.0,0.0,0,218.0,1
1440,1440,-0.28369521743457193,-0.3,0.0,1.0,276.0,816.0,1.0,0,358.0,1
1441,1441,0.19595578907498779,0.2,1.0,1.0,396.0,974.0,1.0,1,130.0,1
1442,1442,0.40512867591199775,0.4,1.0,1.0,412.0,672.0,1.0,1,266.0,1
1443,1443,0.5012129655041252,0.5,1.0,1.0,306.0,597.0,1.0,1,457.0,1
1444,1444,-0.36072263134345317,-0.4,0.0,1.0,391.0,655.0,1.0,0,464.0,1
1445,1445,0.1901249591901123,0.2,0.0,0.0,462.0,862.0,0.0,1,146.0,1
1446,1446,0.04429745415877184,0.0,0.0,0.0,344.0,500.0,0.0,1,926.0,1
1447,1447,-0.008350056526304606,-0.0,0.0,1.0,437.0,592.0,1.0,0,1161.0,1
1448,1448,0.046421954514339725,0.0,1.0,1.0,312.0,775.0,1.0,1,683.0,1
1449,1449,-0.7446396967952017,-0.7,1.0,0.0,397.0,921.0,0.0,0,62.0,1
1450,1450,-0.38701254686886977,-0.4,1.0,0.0,430.0,864.0,0.0,0,236.0,1
1451,1451,-0.0035121449846426955,-0.0,0.0,1.0,367.0,514.0,1.0,0,2119.0,1
1452,1452,0.6841932663399045,0.7,1.0,1.0,362.0,841.0,1.0,1,147.0,1
1453,1453,-0.02726447304444035,-0.0,0.0,1.0,331.0,509.0,1.0,0,980.0,1
1454,1454,0.5559602447227759,0.6,0.0,0.0,409.0,567.0,0.0,1,434.0,1
1455,1455,-0.3391459736424962,-0.3,0.0,1.0,275.0,508.0,1.0,0,447.0,1
1456,1456,-0.7956737389375955,-0.8,0.0,1.0,408.0,676.0,1.0,0,376.0,1
1457,1457,0.24002313864273173,0.2,1.0,1.0,368.0,522.0,1.0,1,360.0,1
1458,1458,-0.7563285914711217,-0.8,0.0,1.0,260.0,981.0,1.0,0,329.0,1
1459,1459,0.5090039895346249,0.5,0.0,0.0,284.0,794.0,0.0,1,192.0,1
1460,1460,-0.22159227854600194,-0.2,1.0,0.0,309.0,942.0,0.0,0,289.0,1
1461,1461,-0.5966978397142284,-0.6,1.0,0.0,314.0,951.0,0.0,0,135.0,1
1462,1462,0.0494107174663595,0.0,0.0,0.0,251.0,596.0,0.0,1,503.0,1
1463,1463,0.7091492047479772,0.7,1.0,1.0,391.0,909.0,1.0,1,220.0,1
1464,1464,0.16110895834453254,0.2,1.0,1.0,470.0,767.0,1.0,1,553.0,1
1465,1465,-0.3572320806675834,-0.4,1.0,0.0,394.0,978.0,0.0,0,138.0,1
1466,1466,-0.5622568643090928,-0.6,0.0,1.0,391.0,800.0,1.0,0,409.0,1
1467,1467,-0.5557714426071526,-0.6,1.0,0.0,431.0,733.0,0.0,0,116.0,1
1468,1468,0.12094887209756944,0.1,0.0,0.0,462.0,987.0,0.0,1,321.0,1
1469,1469,0.6617870565768756,0.7,1.0,1.0,318.0,899.0,1.0,1,63.0,1
1470,1470,0.15057266022098925,0.2,0.0,0.0,430.0,538.0,0.0,1,582.0,1
1471,1471,-0.7728185115992743,-0.8,0.0,1.0,450.0,689.0,1.0,0,121.0,1
1472,1472,0.34317134282526374,0.3,1.0,1.0,263.0,612.0,1.0,1,365.0,1
1473,1473,-0.7748496193222084,-0.8,0.0,1.0,393.0,920.0,1.0,0,167.0,1
1474,1474,-0.6954586193186473,-0.7,0.0,1.0,354.0,812.0,1.0,0,114.0,1
1475,1475,-0.38123049381673524,-0.4,0.0,1.0,446.0,876.0,1.0,0,158.0,1
1476,1476,-0.14607935874000266,-0.1,0.0,1.0,408.0,659.0,1.0,0,443.0,1
1477,1477,0.36809326445944224,0.4,1.0,1.0,391.0,636.0,1.0,1,313.0,1
1478,1478,0.05127356790888704,0.1,0.0,0.0,366.0,506.0,0.0,1,2128.0,1
1479,1479,0.12525355939275584,0.1,1.0,1.0,381.0,616.0,1.0,1,383.0,1
1480,1480,0.5174333937043271,0.5,1.0,1.0,326.0,882.0,1.0,1,272.0,1
1481,1481,0.8345612191857746,0.8,0.0,0.0,260.0,925.0,0.0,1,25.0,1
1482,1482,0.38794889921989373,0.4,1.0,1.0,282.0,812.0,1.0,1,136.0,1
1483,1483,0.8220691905963727,0.8,0.0,0.0,429.0,692.0,0.0,1,229.0,1
1484,1484,-0.07865210318197047,-0.1,1.0,0.0,252.0,598.0,0.0,0,1790.0,1
1485,1485,-0.827949166745278,-0.8,0.0,1.0,330.0,867.0,1.0,0,173.0,1
1486,1486,-0.32999764536508913,-0.3,0.0,1.0,359.0,552.0,1.0,0,479.0,1
1487,1487,-0.27850576886259204,-0.3,1.0,0.0,341.0,579.0,0.0,0,230.0,1
1488,1488,0.26847743723430073,0.3,1.0,1.0,385.0,677.0,1.0,1,448.0,1
1489,1489,-0.10747746745699882,-0.1,1.0,0.0,265.0,874.0,0.0,0,281.0,1
1490,1490,-0.2970023706126117,-0.3,0.0,1.0,330.0,878.0,1.0,0,92.0,1
1491,1491,0.5227454993677979,0.5,0.0,0.0,315.0,816.0,0.0,1,189.0,1
1492,1492,-0.7539126080921752,-0.8,0.0,1.0,389.0,636.0,1.0,0,195.0,1
1493,1493,-0.7645918354492326,-0.8,1.0,0.0,263.0,861.0,0.0,0,166.0,1
