,trial,coherence,coherence_bin,green_side,correct_side,target_onset,checker_onset,decision,green_decision,decision_time,correct_decision
0,0,0.32397347865513837,0.3,1.0,1.0,318.0,706.0,1.0,1,756.0,1
1,1,-0.869641065840232,-0.9,1.0,0.0,430.0,751.0,0.0,0,179.0,1
2,2,-0.8865227649477092,-0.9,1.0,0.0,282.0,733.0,0.0,0,145.0,1
3,3,-0.5455318338155388,-0.5,1.0,0.0,357.0,736.0,0.0,0,337.0,1
4,4,-0.3267834715174992,-0.3,0.0,1.0,413.0,773.0,1.0,0,494.0,1
5,5,0.8406259291400532,0.8,1.0,1.0,486.0,703.0,1.0,1,71.0,1
6,6,0.47327357281487104,0.5,1.0,1.0,379.0,719.0,1.0,1,152.0,1
7,7,-0.29380466609857625,-0.3,0.0,1.0,305.0,999.0,1.0,0,236.0,1
8,8,-0.08625885200433347,-0.1,1.0,0.0,443.0,977.0,0.0,0,930.0,1
9,9,0.23430870240429147,0.2,0.0,0.0,361.0,888.0,0.0,1,621.0,1
10,10,-0.6023947870315012,-0.6,1.0,0.0,444.0,873.0,0.0,0,133.0,1
11,11,0.5635490560709201,0.6,1.0,1.0,436.0,540.0,1.0,1,334.0,1
12,12,-0.4941107966933677,-0.5,1.0,0.0,491.0,675.0,0.0,0,394.0,1
13,13,0.7782035506920179,0.8,1.0,1.0,384.0,557.0,1.0,1,179.0,1
14,14,0.7400487144256808,0.7,1.0,1.0,364.0,726.0,1.0,1,130.0,1
15,15,0.10985063750507884,0.1,0.0,0.0,462.0,650.0,0.0,1,648.0,1
16,16,0.6354480715430838,0.6,1.0,1.0,310.0,879.0,1.0,1,401.0,1
17,17,0.12483587603928015,0.1,1.0,1.0,301.0,594.0,1.0,1,95.0,1
18,18,-0.17325637385877246,-0.2,0.0,1.0,454.0,582.0,1.0,0,304.0,1
19,19,-0.3247736029162971,-0.3,0.0,1.0,363.0,673.0,1.0,0,164.0,1
20,20,0.8542588427182786,0.9,0.0,0.0,436.0,811.0,0.0,1,143.0,1
21,21,0.1441593884293707,0.1,1.0,1.0,432.0,672.0,1.0,1,376.0,1
22,22,-0.40526556050468715,-0.4,1.0,0.0,335.0,527.0,0.0,0,388.0,1
23,23,-0.813075689095912,-0.8,1.0,0.0,308.0,531.0,0.0,0,81.0,1
24,24,-0.4369644421112306,-0.4,0.0,1.0,293.0,670.0,1.0,0,77.0,1
25,25,-0.2872533433438973,-0.3,1.0,0.0,486.0,590.0,0.0,0,414.0,1
26,26,0.23785309847814384,0.2,1.0,1.0,388.0,802.0,1.0,1,520.0,1
27,27,-0.5355695438855362,-0.5,0.0,1.0,296.0,694.0,1.0,0,80.0,1
28,28,0.4606461121151525,0.5,1.0,1.0,494.0,608.0,1.0,1,458.0,1
29,29,0.10474637535861409,0.1,0.0,0.0,348.0,530.0,0.0,1,2122.0,1
30,30,0.21737610984583655,0.2,1.0,1.0,326.0,513.0,1.0,1,331.0,1
31,31,0.32992059429115705,0.3,0.0,0.0,471.0,942.0,0.0,1,457.0,1
32,32,-0.1700112059308393,-0.2,1.0,0.0,337.0,691.0,0.0,0,522.0,1
33,33,0.2580829633196099,0.3,1.0,1.0,285.0,666.0,1.0,1,519.0,1
34,34,0.6336693260298994,0.6,1.0,1.0,352.0,548.0,1.0,1,150.0,1
35,35,0.5616743133204495,0.6,1.0,1.0,373.0,820.0,1.0,1,247.0,1
36,36,0.025071679395388347,0.0,0.0,0.0,315.0,623.0,1.0,0,1462.0,0
37,37,0.7038860352172284,0.7,0.0,0.0,336.0,885.0,0.0,1,179.0,1
38,38,0.8486715065872376,0.8,0.0,0.0,308.0,616.0,0.0,1,216.0,1
39,39,-0.3368296351180715,-0.3,1.0,0.0,380.0,858.0,0.0,0,452.0,1
40,40,-0.22219450999554857,-0.2,1.0,0.0,321.0,548.0,0.0,0,1111.0,1
41,41,0.562402912026038,0.6,0.0,0.0,304.0,770.0,0.0,1,156.0,1
42,42,0.310143492983339,0.3,1.0,1.0,353.0,534.0,1.0,1,383.0,1
43,43,0.5985412429002529,0.6,0.0,0.0,406.0,591.0,0.0,1,453.0,1
44,44,0.10473018500560227,0.1,0.0,0.0,492.0,802.0,0.0,1,536.0,1
45,45,0.5343318739231816,0.5,0.0,0.0,486.0,510.0,0.0,1,174.0,1
46,46,-0.13078413734618632,-0.1,1.0,0.0,356.0,944.0,1.0,1,0.0,0
47,47,0.4304373257977937,0.4,0.0,0.0,393.0,542.0,0.0,1,275.0,1
48,48,-0.4413714662864237,-0.4,0.0,1.0,457.0,759.0,1.0,0,194.0,1
49,49,0.21677692749779875,0.2,0.0,0.0,497.0,966.0,0.0,1,527.0,1
50,50,-0.5391120267912657,-0.5,1.0,0.0,388.0,809.0,0.0,0,193.0,1
51,51,0.1775415392206453,0.2,1.0,1.0,334.0,774.0,1.0,1,372.0,1
52,52,-0.38332522606132713,-0.4,0.0,1.0,256.0,878.0,1.0,0,296.0,1
53,53,0.8498396967404801,0.8,1.0,1.0,483.0,690.0,1.0,1,207.0,1
54,54,-0.6764392627147027,-0.7,0.0,1.0,408.0,668.0,1.0,0,164.0,1
55,55,-0.2095903950801422,-0.2,0.0,1.0,411.0,982.0,1.0,0,277.0,1
56,56,-0.5348746548161989,-0.5,1.0,0.0,353.0,577.0,0.0,0,120.0,1
57,57,-0.2714125085221619,-0.3,1.0,0.0,468.0,982.0,0.0,0,240.0,1
58,58,-0.19885798646386643,-0.2,1.0,0.0,293.0,508.0,0.0,0,459.0,1
59,59,-0.8284211178164915,-0.8,1.0,0.0,392.0,959.0,0.0,0,149.0,1
60,60,0.6354148499110589,0.6,1.0,1.0,311.0,734.0,1.0,1,175.0,1
61,61,-0.551203622709658,-0.6,1.0,0.0,255.0,907.0,0.0,0,148.0,1
62,62,-0.14394099411784234,-0.1,0.0,1.0,277.0,775.0,1.0,0,778.0,1
63,63,-0.07029420685164811,-0.1,1.0,0.0,345.0,515.0,0.0,0,1890.0,1
64,64,0.07188861652124179,0.1,0.0,0.0,343.0,893.0,0.0,1,554.0,1
65,65,0.7900148323561617,0.8,0.0,0.0,382.0,933.0,0.0,1,195.0,1
66,66,-0.5387305985360988,-0.5,1.0,0.0,402.0,576.0,0.0,0,202.0,1
67,67,-0.0826085774039157,-0.1,0.0,1.0,389.0,713.0,1.0,0,688.0,1
68,68,-0.39930752284267,-0.4,0.0,1.0,345.0,742.0,1.0,0,173.0,1
69,69,-0.8763287235067833,-0.9,0.0,1.0,336.0,643.0,1.0,0,101.0,1
70,70,-0.7622017025272617,-0.8,0.0,1.0,285.0,765.0,1.0,0,110.0,1
71,71,0.4110900706814721,0.4,1.0,1.0,385.0,942.0,1.0,1,203.0,1
72,72,0.42483782165966033,0.4,1.0,1.0,398.0,966.0,1.0,1,286.0,1
73,73,0.1824581873997292,0.2,1.0,1.0,334.0,854.0,1.0,1,242.0,1
74,74,0.20935820747310052,0.2,1.0,1.0,356.0,763.0,1.0,1,741.0,1
75,75,-0.5899422981097586,-0.6,0.0,1.0,393.0,689.0,1.0,0,198.0,1
76,76,0.5243644212707556,0.5,1.0,1.0,462.0,869.0,1.0,1,159.0,1
77,77,0.6940066854062336,0.7,0.0,0.0,405.0,781.0,0.0,1,234.0,1
78,78,-0.7232146824666469,-0.7,1.0,0.0,466.0,818.0,0.0,0,176.0,1
79,79,0.6294898928323788,0.6,0.0,0.0,269.0,861.0,0.0,1,160.0,1
80,80,0.7005524790091254,0.7,0.0,0.0,348.0,593.0,0.0,1,669.0,1
81,81,-0.15703496621991508,-0.2,0.0,1.0,401.0,883.0,1.0,0,86.0,1
82,82,0.10234188373075581,0.1,1.0,1.0,289.0,508.0,1.0,1,1273.0,1
83,83,0.6458586116142949,0.6,0.0,0.0,294.0,552.0,0.0,1,224.0,1
84,84,-0.6219398128778535,-0.6,1.0,0.0,418.0,624.0,0.0,0,188.0,1
85,85,-0.08488022711390142,-0.1,1.0,0.0,490.0,555.0,0.0,0,1325.0,1
86,86,0.4446095661403787,0.4,1.0,1.0,476.0,760.0,1.0,1,314.0,1
87,87,-0.20762106676345637,-0.2,0.0,1.0,422.0,750.0,1.0,0,658.0,1
88,88,0.7854635913196498,0.8,0.0,0.0,259.0,634.0,0.0,1,187.0,1
89,89,-0.09065756356933419,-0.1,1.0,0.0,435.0,702.0,0.0,0,1313.0,1
90,90,0.8080813752693349,0.8,1.0,1.0,484.0,588.0,1.0,1,218.0,1
91,91,0.09995776604649498,0.1,1.0,1.0,478.0,602.0,1.0,1,590.0,1
92,92,-0.31192649911280357,-0.3,1.0,0.0,309.0,561.0,0.0,0,350.0,1
93,93,-0.3355157232396804,-0.3,0.0,1.0,476.0,538.0,1.0,0,156.0,1
94,94,0.6156567493450286,0.6,0.0,0.0,351.0,997.0,0.0,1,232.0,1
95,95,0.7919987455276515,0.8,1.0,1.0,289.0,740.0,1.0,1,241.0,1
96,96,0.04781389805287195,0.0,0.0,0.0,266.0,549.0,1.0,0,2185.0,0
97,97,-0.3224560689764725,-0.3,0.0,1.0,382.0,717.0,1.0,0,241.0,1
98,98,0.4832301883423188,0.5,0.0,0.0,385.0,682.0,0.0,1,293.0,1
99,99,0.6137399132807345,0.6,0.0,0.0,430.0,579.0,0.0,1,361.0,1
100,100,-0.05436753659163995,-0.1,0.0,1.0,424.0,778.0,1.0,0,1798.0,1
101,101,0.16266626737720713,0.2,1.0,1.0,295.0,801.0,1.0,1,234.0,1
102,102,-0.8051543173976963,-0.8,0.0,1.0,338.0,558.0,1.0,0,234.0,1
103,103,-0.7918634851316515,-0.8,0.0,1.0,285.0,741.0,1.0,0,144.0,1
104,104,-0.5062781531003975,-0.5,0.0,1.0,405.0,848.0,1.0,0,167.0,1
105,105,0.015538594198602818,0.0,1.0,1.0,286.0,712.0,1.0,1,1662.0,1
106,106,0.20090081263403559,0.2,1.0,1.0,369.0,539.0,1.0,1,802.0,1
107,107,0.6119148439893601,0.6,1.0,1.0,261.0,992.0,1.0,1,77.0,1
108,108,0.11219711684790912,0.1,0.0,0.0,363.0,590.0,0.0,1,647.0,1
109,109,-0.5260075495144567,-0.5,1.0,0.0,432.0,717.0,0.0,0,181.0,1
110,110,-0.4284021511716838,-0.4,1.0,0.0,313.0,810.0,1.0,1,-63.0,0
111,111,-0.44493373916293244,-0.4,0.0,1.0,432.0,569.0,1.0,0,339.0,1
112,112,0.8260849352792975,0.8,0.0,0.0,391.0,596.0,0.0,1,103.0,1
113,113,-0.6104422256448514,-0.6,1.0,0.0,499.0,786.0,0.0,0,175.0,1
114,114,-0.5025591305508853,-0.5,0.0,1.0,288.0,723.0,1.0,0,129.0,1
115,115,-0.12720031052742875,-0.1,1.0,0.0,266.0,925.0,0.0,0,509.0,1
116,116,-0.5036104191362982,-0.5,1.0,0.0,358.0,663.0,0.0,0,289.0,1
117,117,-0.5270662381094431,-0.5,1.0,0.0,377.0,982.0,0.0,0,191.0,1
118,118,0.2627421467249199,0.3,0.0,0.0,343.0,597.0,0.0,1,620.0,1
119,119,-0.1745824883537329,-0.2,1.0,0.0,263.0,580.0,0.0,0,397.0,1
120,120,-0.6629355939645316,-0.7,1.0,0.0,271.0,675.0,0.0,0,174.0,1
121,121,-0.024183680691087894,-0.0,1.0,0.0,337.0,755.0,1.0,1,118.0,0
122,122,0.46029311646321147,0.5,0.0,0.0,298.0,626.0,0.0,1,186.0,1
123,123,-0.29807422245594795,-0.3,1.0,0.0,375.0,813.0,0.0,0,572.0,1
124,124,0.2866547932773299,0.3,0.0,0.0,486.0,580.0,0.0,1,544.0,1
125,125,0.6873369053376416,0.7,1.0,1.0,251.0,691.0,1.0,1,198.0,1
126,126,-0.6124132225571626,-0.6,0.0,1.0,262.0,517.0,1.0,0,191.0,1
127,127,0.8630547022497362,0.9,0.0,0.0,268.0,673.0,0.0,1,139.0,1
128,128,-0.636773866338896,-0.6,0.0,1.0,467.0,512.0,1.0,0,111.0,1
129,129,-0.5112573607267203,-0.5,1.0,0.0,493.0,541.0,0.0,0,146.0,1
130,130,0.1377559277683954,0.1,1.0,1.0,251.0,891.0,1.0,1,638.0,1
131,131,0.5496906926598047,0.5,0.0,0.0,354.0,586.0,0.0,1,330.0,1
132,132,0.6135087426473144,0.6,0.0,0.0,285.0,527.0,0.0,1,238.0,1
133,133,0.850300081057677,0.9,1.0,1.0,450.0,748.0,1.0,1,142.0,1
134,134,-0.7092457190236174,-0.7,1.0,0.0,475.0,586.0,0.0,0,159.0,1
135,135,-0.2178009295286908,-0.2,1.0,0.0,438.0,991.0,0.0,0,281.0,1
136,136,-0.7246211248164915,-0.7,1.0,0.0,438.0,743.0,0.0,0,299.0,1
137,137,-0.19223304189004964,-0.2,1.0,0.0,282.0,653.0,0.0,0,895.0,1
138,138,-0.2701124821870621,-0.3,0.0,1.0,373.0,924.0,1.0,0,253.0,1
139,139,0.3190026833036116,0.3,1.0,1.0,325.0,948.0,1.0,1,627.0,1
140,140,-0.7702523492371339,-0.8,1.0,0.0,324.0,812.0,0.0,0,284.0,1
141,141,-0.12638070950499491,-0.1,1.0,0.0,486.0,900.0,0.0,0,1324.0,1
142,142,0.33077425770424396,0.3,0.0,0.0,357.0,525.0,0.0,1,318.0,1
143,143,-0.25984203189983024,-0.3,0.0,1.0,479.0,704.0,1.0,0,147.0,1
144,144,0.7499915206565398,0.7,0.0,0.0,392.0,712.0,0.0,1,66.0,1
145,145,0.7611353384827223,0.8,1.0,1.0,385.0,513.0,1.0,1,542.0,1
146,146,0.7908205226807125,0.8,1.0,1.0,431.0,560.0,1.0,1,199.0,1
147,147,-0.7439019265494158,-0.7,1.0,0.0,495.0,682.0,0.0,0,233.0,1
148,148,0.4542278368370928,0.5,1.0,1.0,475.0,684.0,1.0,1,81.0,1
149,149,-0.2388996805307263,-0.2,0.0,1.0,338.0,749.0,1.0,0,1183.0,1
150,150,0.02819844848519526,0.0,0.0,0.0,469.0,729.0,1.0,0,1032.0,0
151,151,0.41642506439786453,0.4,0.0,0.0,297.0,901.0,0.0,1,212.0,1
152,152,0.7745002251430048,0.8,1.0,1.0,372.0,935.0,1.0,1,73.0,1
153,153,-0.14023398375523632,-0.1,0.0,1.0,469.0,679.0,1.0,0,682.0,1
154,154,0.5974790903998063,0.6,0.0,0.0,468.0,925.0,0.0,1,167.0,1
155,155,-0.6385600046069515,-0.6,1.0,0.0,390.0,536.0,0.0,0,214.0,1
156,156,-0.17484357697592956,-0.2,1.0,0.0,277.0,524.0,0.0,0,1229.0,1
157,157,-0.6593768681398382,-0.7,1.0,0.0,252.0,660.0,0.0,0,248.0,1
158,158,0.73815797253078,0.7,0.0,0.0,344.0,945.0,0.0,1,201.0,1
159,159,0.0884260356402008,0.1,0.0,0.0,293.0,841.0,1.0,0,1866.0,0
160,160,-0.11885510172887015,-0.1,0.0,1.0,278.0,858.0,1.0,0,1134.0,1
161,161,-0.8054922804193292,-0.8,0.0,1.0,467.0,999.0,1.0,0,254.0,1
162,162,-0.3328356853777895,-0.3,1.0,0.0,293.0,812.0,0.0,0,445.0,1
163,163,0.4475645350465315,0.4,0.0,0.0,312.0,555.0,0.0,1,263.0,1
164,164,0.0066864067030468766,0.0,0.0,0.0,482.0,538.0,0.0,1,1980.0,1
165,165,-0.37477260893689324,-0.4,0.0,1.0,264.0,521.0,1.0,0,265.0,1
166,166,0.6044287892657448,0.6,0.0,0.0,451.0,520.0,0.0,1,189.0,1
167,167,-0.2430137320997251,-0.2,0.0,1.0,364.0,744.0,1.0,0,352.0,1
168,168,-0.5977658404381305,-0.6,1.0,0.0,497.0,857.0,0.0,0,146.0,1
169,169,-0.6663216767296208,-0.7,1.0,0.0,443.0,869.0,0.0,0,148.0,1
170,170,-0.5416231168318142,-0.5,0.0,1.0,253.0,542.0,1.0,0,145.0,1
171,171,-0.3664767630770933,-0.4,1.0,0.0,328.0,623.0,0.0,0,149.0,1
172,172,0.8622352249533988,0.9,1.0,1.0,336.0,912.0,1.0,1,162.0,1
173,173,-0.7678306229123384,-0.8,0.0,1.0,491.0,689.0,1.0,0,100.0,1
174,174,0.4785796577505351,0.5,0.0,0.0,424.0,588.0,0.0,1,278.0,1
175,175,-0.405922762962503,-0.4,1.0,0.0,285.0,564.0,0.0,0,151.0,1
176,176,-0.7667785510287256,-0.8,1.0,0.0,386.0,994.0,0.0,0,190.0,1
177,177,-0.5673730368124245,-0.6,0.0,1.0,444.0,800.0,1.0,0,146.0,1
178,178,0.5022838727970508,0.5,1.0,1.0,439.0,570.0,1.0,1,171.0,1
179,179,-0.2089421888621742,-0.2,1.0,0.0,459.0,783.0,0.0,0,638.0,1
180,180,0.034084827621629454,0.0,0.0,0.0,311.0,551.0,0.0,1,2138.0,1
181,181,-0.23408012719093507,-0.2,0.0,1.0,358.0,845.0,1.0,0,527.0,1
182,182,-0.08257193622987624,-0.1,0.0,1.0,403.0,992.0,1.0,0,775.0,1
183,183,0.3171213850102478,0.3,1.0,1.0,496.0,611.0,1.0,1,163.0,1
184,184,-0.8937375909427487,-0.9,0.0,1.0,351.0,855.0,1.0,0,164.0,1
185,185,-0.7142930522808167,-0.7,1.0,0.0,456.0,572.0,0.0,0,162.0,1
186,186,0.8488959049272825,0.8,1.0,1.0,339.0,724.0,1.0,1,177.0,1
187,187,-0.39404065174683645,-0.4,1.0,0.0,321.0,912.0,0.0,0,207.0,1
188,188,0.46714967602825286,0.5,0.0,0.0,329.0,902.0,0.0,1,239.0,1
189,189,0.2547268954606009,0.3,1.0,1.0,423.0,574.0,1.0,1,473.0,1
190,190,0.843074593993734,0.8,1.0,1.0,329.0,604.0,1.0,1,257.0,1
191,191,0.45257941864151674,0.5,0.0,0.0,432.0,913.0,0.0,1,225.0,1
192,192,-0.7341201667946348,-0.7,1.0,0.0,269.0,614.0,0.0,0,147.0,1
193,193,0.26567717517238865,0.3,1.0,1.0,349.0,619.0,1.0,1,962.0,1
194,194,-0.8573566435680798,-0.9,0.0,1.0,484.0,943.0,1.0,0,113.0,1
195,195,-0.6560435068887305,-0.7,1.0,0.0,381.0,942.0,0.0,0,147.0,1
196,196,0.21537050484961562,0.2,1.0,1.0,349.0,969.0,1.0,1,422.0,1
197,197,-0.5789625137490768,-0.6,1.0,0.0,434.0,890.0,0.0,0,146.0,1
198,198,0.15237535674565417,0.2,1.0,1.0,392.0,723.0,1.0,1,495.0,1
199,199,0.6051420070030794,0.6,1.0,1.0,497.0,790.0,1.0,1,163.0,1
200,200,-0.49384922929851227,-0.5,1.0,0.0,387.0,750.0,0.0,0,193.0,1
201,201,-0.45866660725224473,-0.5,1.0,0.0,338.0,503.0,0.0,0,269.0,1
202,202,0.18056396366348115,0.2,0.0,0.0,274.0,655.0,0.0,1,901.0,1
203,203,-0.5010987508763378,-0.5,1.0,0.0,442.0,697.0,0.0,0,181.0,1
204,204,0.020677478300580754,0.0,1.0,1.0,478.0,887.0,1.0,1,1595.0,1
205,205,0.15134781334534575,0.2,0.0,0.0,394.0,944.0,0.0,1,1662.0,1
206,206,0.8620416239201155,0.9,0.0,0.0,416.0,615.0,0.0,1,249.0,1
207,207,0.4563986779792967,0.5,1.0,1.0,482.0,804.0,1.0,1,194.0,1
208,208,-0.21618826199845032,-0.2,0.0,1.0,456.0,909.0,1.0,0,335.0,1
209,209,-0.08458430297408714,-0.1,1.0,0.0,465.0,866.0,0.0,0,1369.0,1
210,210,-0.6286714927833777,-0.6,1.0,0.0,366.0,588.0,0.0,0,226.0,1
211,211,-0.12950977235785543,-0.1,1.0,0.0,398.0,551.0,0.0,0,1181.0,1
212,212,0.383527154666612,0.4,1.0,1.0,262.0,619.0,1.0,1,209.0,1
213,213,0.23406289365451471,0.2,1.0,1.0,379.0,503.0,1.0,1,418.0,1
214,214,0.22822503515443537,0.2,1.0,1.0,336.0,622.0,1.0,1,342.0,1
215,215,0.3065318322626326,0.3,1.0,1.0,423.0,960.0,1.0,1,237.0,1
216,216,0.19284856065270184,0.2,0.0,0.0,462.0,864.0,0.0,1,424.0,1
217,217,-0.26162905099008893,-0.3,1.0,0.0,411.0,819.0,0.0,0,460.0,1
218,218,-0.22448605119345055,-0.2,0.0,1.0,366.0,819.0,1.0,0,465.0,1
219,219,-0.15551228690787522,-0.2,0.0,1.0,282.0,975.0,1.0,0,523.0,1
220,220,0.33446749261650977,0.3,0.0,0.0,396.0,816.0,0.0,1,178.0,1
221,221,-0.36052533181823965,-0.4,0.0,1.0,363.0,525.0,1.0,0,432.0,1
222,222,0.427641256543729,0.4,0.0,0.0,392.0,644.0,0.0,1,234.0,1
223,223,0.8006756400962493,0.8,0.0,0.0,404.0,682.0,0.0,1,314.0,1
224,224,-0.07256870276554972,-0.1,1.0,0.0,491.0,679.0,0.0,0,1830.0,1
225,225,-0.8184807722747073,-0.8,0.0,1.0,333.0,814.0,1.0,0,163.0,1
226,226,0.39168495757962696,0.4,0.0,0.0,442.0,987.0,0.0,1,381.0,1
227,227,-0.24917817221982452,-0.2,0.0,1.0,401.0,505.0,1.0,0,274.0,1
228,228,0.7100113752403622,0.7,1.0,1.0,340.0,667.0,1.0,1,193.0,1
229,229,0.7047410964319479,0.7,1.0,1.0,409.0,527.0,1.0,1,124.0,1
230,230,-0.270033319499155,-0.3,0.0,1.0,289.0,959.0,1.0,0,82.0,1
231,231,0.5469177570372953,0.5,0.0,0.0,479.0,635.0,0.0,1,126.0,1
232,232,0.007228810382573059,0.0,1.0,1.0,342.0,696.0,1.0,1,752.0,1
233,233,-0.25362104902787785,-0.3,0.0,1.0,493.0,606.0,1.0,0,181.0,1
234,234,-0.5792565853423817,-0.6,0.0,1.0,415.0,539.0,1.0,0,266.0,1
235,235,0.7519385019884374,0.8,0.0,0.0,368.0,689.0,0.0,1,183.0,1
236,236,-0.09942087724541271,-0.1,0.0,1.0,444.0,688.0,1.0,0,1298.0,1
237,237,0.2969069710113351,0.3,1.0,1.0,479.0,989.0,1.0,1,282.0,1
238,238,-0.7897663243025427,-0.8,0.0,1.0,330.0,585.0,1.0,0,165.0,1
239,239,0.7003915501834944,0.7,1.0,1.0,296.0,606.0,1.0,1,138.0,1
240,240,-0.8945842264361625,-0.9,0.0,1.0,476.0,622.0,1.0,0,422.0,1
241,241,-0.35811450854564475,-0.4,0.0,1.0,269.0,687.0,1.0,0,484.0,1
242,242,0.7894746257129784,0.8,1.0,1.0,497.0,768.0,1.0,1,155.0,1
243,243,-0.8540446183436478,-0.9,0.0,1.0,387.0,804.0,1.0,0,169.0,1
244,244,-0.8377228868693595,-0.8,1.0,0.0,471.0,794.0,0.0,0,465.0,1
245,245,-0.40505869135806233,-0.4,1.0,0.0,421.0,550.0,0.0,0,269.0,1
246,246,0.30588235656155904,0.3,1.0,1.0,371.0,894.0,1.0,1,375.0,1
247,247,0.5849643569518067,0.6,0.0,0.0,482.0,763.0,0.0,1,215.0,1
248,248,0.5700967024965681,0.6,1.0,1.0,440.0,807.0,1.0,1,183.0,1
249,249,-0.8470864127187648,-0.8,1.0,0.0,255.0,856.0,0.0,0,109.0,1
250,250,-0.06806879960479062,-0.1,1.0,0.0,258.0,873.0,1.0,1,1869.0,0
251,251,-0.7098359882473364,-0.7,1.0,0.0,296.0,995.0,0.0,0,-161.0,1
252,252,0.27353493909705884,0.3,1.0,1.0,328.0,888.0,1.0,1,504.0,1
253,253,-0.7982686232021958,-0.8,0.0,1.0,281.0,600.0,1.0,0,199.0,1
254,254,0.4391915733022459,0.4,1.0,1.0,440.0,756.0,1.0,1,204.0,1
255,255,0.3964522346778435,0.4,1.0,1.0,368.0,583.0,1.0,1,259.0,1
256,256,-0.1645273816000753,-0.2,1.0,0.0,406.0,998.0,0.0,0,856.0,1
257,257,-0.780894067334149,-0.8,1.0,0.0,424.0,978.0,0.0,0,98.0,1
258,258,0.38401304997753904,0.4,1.0,1.0,454.0,838.0,1.0,1,558.0,1
259,259,0.3765778150793774,0.4,1.0,1.0,419.0,585.0,1.0,1,416.0,1
260,260,0.2304199592133841,0.2,1.0,1.0,342.0,565.0,1.0,1,583.0,1
261,261,0.38923921037549525,0.4,0.0,0.0,275.0,946.0,0.0,1,359.0,1
262,262,0.4572720346441489,0.5,1.0,1.0,319.0,581.0,1.0,1,830.0,1
263,263,-0.3104408317188746,-0.3,1.0,0.0,390.0,504.0,0.0,0,596.0,1
264,264,-0.42146577804460766,-0.4,1.0,0.0,400.0,549.0,0.0,0,271.0,1
265,265,0.6734017770522985,0.7,1.0,1.0,460.0,862.0,1.0,1,178.0,1
266,266,0.8311294161577932,0.8,0.0,0.0,322.0,801.0,0.0,1,187.0,1
267,267,0.5981014504060435,0.6,1.0,1.0,264.0,999.0,1.0,1,107.0,1
268,268,-0.36016347624681677,-0.4,1.0,0.0,287.0,627.0,0.0,0,326.0,1
269,269,0.31469260865938165,0.3,1.0,1.0,347.0,644.0,1.0,1,219.0,1
270,270,-0.8423347278807133,-0.8,1.0,0.0,285.0,842.0,0.0,0,283.0,1
271,271,-0.7162746927545843,-0.7,0.0,1.0,268.0,837.0,1.0,0,115.0,1
272,272,-0.4730614648664126,-0.5,1.0,0.0,337.0,726.0,1.0,1,-93.0,0
273,273,0.8907043282660981,0.9,0.0,0.0,352.0,918.0,0.0,1,170.0,1
274,274,-0.5293780792351197,-0.5,1.0,0.0,453.0,591.0,0.0,0,156.0,1
275,275,-0.44404898463117437,-0.4,0.0,1.0,456.0,594.0,1.0,0,170.0,1
276,276,0.41605048555296553,0.4,0.0,0.0,284.0,509.0,0.0,1,637.0,1
277,277,0.7091866618949348,0.7,0.0,0.0,250.0,559.0,0.0,1,181.0,1
278,278,-0.41922130541706487,-0.4,1.0,0.0,429.0,953.0,0.0,0,238.0,1
279,279,0.3114930071442571,0.3,1.0,1.0,259.0,676.0,1.0,1,245.0,1
280,280,0.09834833702831547,0.1,0.0,0.0,467.0,889.0,0.0,1,814.0,1
281,281,-0.6364681130055729,-0.6,1.0,0.0,265.0,759.0,0.0,0,386.0,1
282,282,-0.5014187704560384,-0.5,0.0,1.0,288.0,961.0,1.0,0,391.0,1
283,283,0.42569242398127327,0.4,0.0,0.0,273.0,582.0,0.0,1,745.0,1
284,284,-0.7537421987294534,-0.8,0.0,1.0,337.0,770.0,1.0,0,163.0,1
285,285,0.7845660191950715,0.8,0.0,0.0,486.0,870.0,0.0,1,74.0,1
286,286,0.5610330518128145,0.6,0.0,0.0,391.0,890.0,0.0,1,189.0,1
287,287,-0.2874852144028378,-0.3,1.0,0.0,374.0,778.0,0.0,0,348.0,1
288,288,-0.5085414492735232,-0.5,0.0,1.0,462.0,731.0,1.0,0,467.0,1
289,289,0.3878337737896501,0.4,1.0,1.0,300.0,610.0,1.0,1,540.0,1
290,290,0.3564994647645702,0.4,0.0,0.0,297.0,778.0,0.0,1,535.0,1
291,291,-0.3828057134674505,-0.4,0.0,1.0,409.0,573.0,1.0,0,678.0,1
292,292,-0.388814960016694,-0.4,0.0,1.0,487.0,671.0,1.0,0,282.0,1
293,293,-0.664321175961145,-0.7,1.0,0.0,423.0,996.0,0.0,0,411.0,1
294,294,-0.07610527946918433,-0.1,1.0,0.0,298.0,732.0,0.0,0,1010.0,1
295,295,-0.27679134320833076,-0.3,1.0,0.0,265.0,543.0,0.0,0,592.0,1
296,296,0.0369470470312645,0.0,0.0,0.0,268.0,778.0,0.0,1,644.0,1
297,297,0.6250798266461935,0.6,1.0,1.0,461.0,514.0,1.0,1,195.0,1
298,298,0.08952321541358876,0.1,0.0,0.0,431.0,765.0,0.0,1,1804.0,1
299,299,-0.5528879206578714,-0.6,0.0,1.0,491.0,827.0,1.0,0,212.0,1
300,300,-0.8555420339632464,-0.9,1.0,0.0,355.0,895.0,0.0,0,190.0,1
301,301,-0.5113114576431983,-0.5,1.0,0.0,393.0,505.0,0.0,0,192.0,1
302,302,0.7205565029943156,0.7,0.0,0.0,497.0,948.0,0.0,1,95.0,1
303,303,0.7450644625827078,0.7,0.0,0.0,352.0,950.0,0.0,1,138.0,1
304,304,-0.7835756641883512,-0.8,0.0,1.0,398.0,939.0,1.0,0,53.0,1
305,305,-0.1662364164798955,-0.2,1.0,0.0,382.0,565.0,0.0,0,393.0,1
306,306,-0.4720659019253375,-0.5,0.0,1.0,292.0,658.0,1.0,0,370.0,1
307,307,-0.5454878631118191,-0.5,0.0,1.0,327.0,523.0,1.0,0,250.0,1
308,308,-0.7539930683388539,-0.8,1.0,0.0,298.0,645.0,0.0,0,267.0,1
309,309,-0.11380476155696839,-0.1,1.0,0.0,323.0,996.0,0.0,0,1281.0,1
310,310,-0.6095944768883415,-0.6,1.0,0.0,250.0,627.0,0.0,0,443.0,1
311,311,0.3128773243026318,0.3,0.0,0.0,444.0,713.0,0.0,1,673.0,1
312,312,0.22986436446186131,0.2,1.0,1.0,435.0,884.0,1.0,1,951.0,1
313,313,0.20495092654588876,0.2,0.0,0.0,427.0,567.0,0.0,1,1236.0,1
314,314,-0.3000260007827925,-0.3,0.0,1.0,367.0,735.0,1.0,0,288.0,1
315,315,0.1361258911751232,0.1,0.0,0.0,279.0,582.0,0.0,1,659.0,1
316,316,-0.14676759603417266,-0.1,1.0,0.0,347.0,664.0,0.0,0,969.0,1
317,317,0.29216753706385024,0.3,0.0,0.0,372.0,921.0,0.0,1,497.0,1
318,318,-0.8068576173906405,-0.8,1.0,0.0,470.0,672.0,0.0,0,228.0,1
319,319,-0.6344639719892988,-0.6,0.0,1.0,379.0,647.0,1.0,0,214.0,1
320,320,-0.5674101336344823,-0.6,1.0,0.0,297.0,558.0,0.0,0,245.0,1
321,321,0.3894517867724486,0.4,1.0,1.0,371.0,768.0,1.0,1,151.0,1
322,322,-0.6259059057654108,-0.6,0.0,1.0,261.0,911.0,1.0,0,198.0,1
323,323,-0.3472773531866007,-0.3,1.0,0.0,495.0,510.0,0.0,0,655.0,1
324,324,0.8864998144206874,0.9,0.0,0.0,283.0,934.0,0.0,1,123.0,1
325,325,-0.18253297909038058,-0.2,0.0,1.0,304.0,560.0,1.0,0,616.0,1
326,326,0.19629734137075305,0.2,0.0,0.0,279.0,679.0,0.0,1,652.0,1
327,327,-0.12371961981536794,-0.1,1.0,0.0,302.0,842.0,0.0,0,756.0,1
328,328,0.10727083365906209,0.1,1.0,1.0,458.0,742.0,1.0,1,1800.0,1
329,329,-0.5650461576529404,-0.6,1.0,0.0,436.0,701.0,0.0,0,343.0,1
330,330,-0.3724677164480925,-0.4,1.0,0.0,374.0,661.0,0.0,0,375.0,1
331,331,-0.5711533678090766,-0.6,1.0,0.0,397.0,859.0,0.0,0,184.0,1
332,332,-0.8181132547678818,-0.8,0.0,1.0,427.0,721.0,1.0,0,62.0,1
333,333,-0.37563100539969607,-0.4,0.0,1.0,322.0,958.0,1.0,0,360.0,1
334,334,-0.3266378699642024,-0.3,1.0,0.0,276.0,590.0,0.0,0,544.0,1
335,335,-0.821257126413781,-0.8,0.0,1.0,388.0,957.0,1.0,0,195.0,1
336,336,0.32645552627304764,0.3,0.0,0.0,395.0,711.0,0.0,1,644.0,1
337,337,-0.6026903817797318,-0.6,0.0,1.0,375.0,789.0,1.0,0,116.0,1
338,338,0.6708402214065406,0.7,1.0,1.0,308.0,933.0,1.0,1,99.0,1
339,339,-0.43115953197963824,-0.4,1.0,0.0,328.0,881.0,0.0,0,331.0,1
340,340,0.8340717024645808,0.8,1.0,1.0,322.0,933.0,1.0,1,105.0,1
341,341,-0.6960839384628339,-0.7,0.0,1.0,443.0,644.0,1.0,0,153.0,1
342,342,-0.6828927331159906,-0.7,1.0,0.0,447.0,753.0,0.0,0,190.0,1
343,343,0.44113418277600613,0.4,1.0,1.0,461.0,653.0,1.0,1,166.0,1
344,344,0.0893941863815847,0.1,1.0,1.0,353.0,948.0,1.0,1,229.0,1
345,345,0.14084922384543097,0.1,0.0,0.0,417.0,977.0,0.0,1,766.0,1
346,346,0.26123913093488327,0.3,0.0,0.0,352.0,823.0,0.0,1,475.0,1
347,347,-0.6046683782947451,-0.6,0.0,1.0,475.0,529.0,1.0,0,156.0,1
348,348,-0.23876742594831513,-0.2,0.0,1.0,470.0,615.0,1.0,0,295.0,1
349,349,0.3527318807087444,0.4,0.0,0.0,347.0,989.0,0.0,1,524.0,1
350,350,0.6960791352292216,0.7,0.0,0.0,348.0,888.0,0.0,1,54.0,1
351,351,0.3000982319669524,0.3,0.0,0.0,391.0,707.0,0.0,1,522.0,1
352,352,0.38967319575668,0.4,0.0,0.0,398.0,940.0,0.0,1,252.0,1
353,353,-0.7315969919881937,-0.7,0.0,1.0,382.0,889.0,1.0,0,89.0,1
354,354,-0.30761611504011865,-0.3,0.0,1.0,492.0,719.0,1.0,0,369.0,1
355,355,-0.13760062136816986,-0.1,1.0,0.0,277.0,924.0,0.0,0,539.0,1
356,356,0.4984975569331035,0.5,0.0,0.0,495.0,629.0,0.0,1,436.0,1
357,357,0.7386584464155471,0.7,1.0,1.0,374.0,960.0,1.0,1,76.0,1
358,358,-0.6288609700018069,-0.6,1.0,0.0,433.0,541.0,0.0,0,356.0,1
359,359,-0.015696740323131286,-0.0,0.0,1.0,454.0,821.0,1.0,0,1725.0,1
360,360,0.5471879951609578,0.5,0.0,0.0,330.0,923.0,0.0,1,177.0,1
361,361,0.5372486415877972,0.5,0.0,0.0,422.0,832.0,0.0,1,186.0,1
362,362,-0.004971099889177877,-0.0,1.0,0.0,276.0,732.0,1.0,1,1212.0,0
363,363,-0.47482389821351795,-0.5,0.0,1.0,302.0,819.0,1.0,0,179.0,1
364,364,0.7302109421503179,0.7,0.0,0.0,427.0,588.0,0.0,1,465.0,1
365,365,-0.6560827504907819,-0.7,0.0,1.0,474.0,738.0,1.0,0,328.0,1
366,366,-0.512286290794625,-0.5,0.0,1.0,449.0,911.0,1.0,0,230.0,1
367,367,0.07103748502866558,0.1,1.0,1.0,315.0,725.0,1.0,1,950.0,1
368,368,-0.0010209971868320178,-0.0,0.0,1.0,278.0,841.0,0.0,1,1881.0,0
369,369,0.18806753220834238,0.2,1.0,1.0,381.0,580.0,1.0,1,379.0,1
370,370,-0.26325855950771637,-0.3,0.0,1.0,372.0,899.0,1.0,0,799.0,1
371,371,0.264406880407701,0.3,1.0,1.0,385.0,592.0,1.0,1,233.0,1
372,372,-0.31848986998228634,-0.3,0.0,1.0,423.0,970.0,1.0,0,307.0,1
373,373,-0.22469939373690007,-0.2,0.0,1.0,487.0,830.0,1.0,0,643.0,1
374,374,0.789759133659195,0.8,1.0,1.0,270.0,749.0,1.0,1,111.0,1
375,375,0.32127844250961635,0.3,0.0,0.0,355.0,937.0,0.0,1,338.0,1
376,376,-0.5328998355728553,-0.5,0.0,1.0,433.0,663.0,1.0,0,114.0,1
377,377,-0.7509021048803565,-0.8,1.0,0.0,495.0,522.0,0.0,0,163.0,1
378,378,0.8628394775915117,0.9,1.0,1.0,370.0,809.0,1.0,1,121.0,1
379,379,-0.36423428763535537,-0.4,1.0,0.0,352.0,852.0,0.0,0,516.0,1
380,380,0.5175268554507854,0.5,0.0,0.0,355.0,693.0,0.0,1,242.0,1
381,381,-0.5517694953647128,-0.6,1.0,0.0,323.0,784.0,0.0,0,253.0,1
382,382,0.5580495316287623,0.6,1.0,1.0,385.0,557.0,1.0,1,198.0,1
383,383,-0.6485292889221717,-0.6,1.0,0.0,295.0,890.0,0.0,0,185.0,1
384,384,-0.6727103989677621,-0.7,1.0,0.0,278.0,997.0,0.0,0,455.0,1
385,385,0.09713240083497887,0.1,0.0,0.0,316.0,827.0,0.0,1,447.0,1
386,386,0.7527444172217338,0.8,1.0,1.0,264.0,777.0,1.0,1,369.0,1
387,387,-0.06658632534045172,-0.1,0.0,1.0,313.0,685.0,1.0,0,972.0,1
388,388,-0.5446502329969962,-0.5,0.0,1.0,496.0,575.0,1.0,0,139.0,1
389,389,-0.39352675019716754,-0.4,1.0,0.0,424.0,759.0,0.0,0,357.0,1
390,390,-0.5793253899569963,-0.6,1.0,0.0,273.0,831.0,0.0,0,226.0,1
391,391,-0.6340758271118913,-0.6,0.0,1.0,308.0,752.0,1.0,0,100.0,1
392,392,-0.2200622898385738,-0.2,1.0,0.0,418.0,598.0,0.0,0,714.0,1
393,393,0.27519373873579733,0.3,1.0,1.0,430.0,770.0,1.0,1,280.0,1
394,394,-0.8003861986897511,-0.8,1.0,0.0,414.0,993.0,0.0,0,63.0,1
395,395,-0.29955200202856036,-0.3,0.0,1.0,496.0,669.0,1.0,0,435.0,1
396,396,0.7501197208617493,0.8,0.0,0.0,401.0,850.0,0.0,1,259.0,1
397,397,-0.030091771515971755,-0.0,1.0,0.0,308.0,591.0,0.0,0,731.0,1
398,398,0.68522689353245,0.7,1.0,1.0,395.0,508.0,1.0,1,227.0,1
399,399,0.5108720621384587,0.5,1.0,1.0,393.0,650.0,1.0,1,137.0,1
400,400,-0.5199176019829519,-0.5,1.0,0.0,266.0,590.0,0.0,0,244.0,1
401,401,-0.8590066058338477,-0.9,1.0,0.0,315.0,831.0,0.0,0,134.0,1
402,402,-0.2499390519838961,-0.2,0.0,1.0,353.0,654.0,1.0,0,323.0,1
403,403,-0.051847052066228305,-0.1,0.0,1.0,397.0,610.0,1.0,0,1993.0,1
404,404,0.5023557660438941,0.5,1.0,1.0,337.0,776.0,1.0,1,307.0,1
405,405,-0.5804639617638634,-0.6,0.0,1.0,440.0,826.0,1.0,0,164.0,1
406,406,0.05176420970213902,0.1,0.0,0.0,398.0,808.0,1.0,0,1794.0,0
407,407,-0.1942946871956257,-0.2,0.0,1.0,446.0,668.0,1.0,0,-14.0,1
408,408,0.15339413929672585,0.2,1.0,1.0,387.0,662.0,1.0,1,521.0,1
409,409,0.14650690363464614,0.1,0.0,0.0,446.0,853.0,0.0,1,831.0,1
410,410,0.8544021079095524,0.9,1.0,1.0,309.0,945.0,1.0,1,166.0,1
411,411,0.24398671340899447,0.2,0.0,0.0,484.0,656.0,0.0,1,410.0,1
412,412,0.7412011097046663,0.7,1.0,1.0,382.0,981.0,1.0,1,277.0,1
413,413,0.04759209373921858,0.0,0.0,0.0,438.0,558.0,1.0,0,2004.0,0
414,414,-0.2214827096622981,-0.2,0.0,1.0,384.0,543.0,1.0,0,293.0,1
415,415,0.7624010771149835,0.8,1.0,1.0,310.0,891.0,1.0,1,239.0,1
416,416,0.7538804364254931,0.8,1.0,1.0,306.0,734.0,1.0,1,200.0,1
417,417,-0.7034021615835307,-0.7,0.0,1.0,474.0,912.0,1.0,0,174.0,1
418,418,-0.14391926052721837,-0.1,0.0,1.0,496.0,714.0,1.0,0,770.0,1
419,419,0.3233162538927815,0.3,1.0,1.0,466.0,839.0,1.0,1,725.0,1
420,420,0.8556716436893327,0.9,1.0,1.0,384.0,822.0,0.0,0,-56.0,0
421,421,-0.33914370777711333,-0.3,1.0,0.0,492.0,635.0,0.0,0,543.0,1
422,422,-0.480433514438155,-0.5,1.0,0.0,439.0,520.0,0.0,0,191.0,1
423,423,0.784587818120304,0.8,0.0,0.0,278.0,767.0,0.0,1,145.0,1
424,424,0.3230270387976143,0.3,1.0,1.0,400.0,854.0,1.0,1,226.0,1
425,425,0.33518057535635826,0.3,1.0,1.0,399.0,529.0,1.0,1,142.0,1
426,426,0.39112746961302547,0.4,0.0,0.0,362.0,840.0,0.0,1,168.0,1
427,427,0.3129013006792464,0.3,0.0,0.0,288.0,949.0,0.0,1,263.0,1
428,428,0.10795886260222598,0.1,1.0,1.0,356.0,828.0,1.0,1,826.0,1
429,429,-0.13629148877709474,-0.1,0.0,1.0,397.0,544.0,1.0,0,809.0,1
430,430,0.14784815059841427,0.1,1.0,1.0,372.0,882.0,1.0,1,266.0,1
431,431,-0.5761835211495636,-0.6,1.0,0.0,400.0,717.0,0.0,0,283.0,1
432,432,0.6688973652799749,0.7,1.0,1.0,457.0,781.0,1.0,1,112.0,1
433,433,0.13743143234515742,0.1,1.0,1.0,436.0,981.0,1.0,1,443.0,1
434,434,-0.08302475813961241,-0.1,1.0,0.0,263.0,657.0,0.0,0,910.0,1
435,435,-0.0192047517641738,-0.0,0.0,1.0,325.0,821.0,0.0,1,1854.0,0
436,436,-0.3568710739010764,-0.4,0.0,1.0,488.0,802.0,1.0,0,200.0,1
437,437,-0.6555452962635597,-0.7,1.0,0.0,417.0,926.0,0.0,0,197.0,1
438,438,0.2861295606816815,0.3,0.0,0.0,325.0,517.0,0.0,1,828.0,1
439,439,-0.1945283205257653,-0.2,0.0,1.0,406.0,992.0,1.0,0,262.0,1
440,440,-0.4260043566491215,-0.4,1.0,0.0,317.0,890.0,0.0,0,193.0,1
441,441,0.2230473332191737,0.2,0.0,0.0,308.0,769.0,0.0,1,1133.0,1
442,442,0.4840697625738891,0.5,0.0,0.0,488.0,794.0,0.0,1,208.0,1
443,443,-0.6961380335188351,-0.7,0.0,1.0,422.0,848.0,1.0,0,180.0,1
444,444,0.18232553719837707,0.2,1.0,1.0,469.0,736.0,1.0,1,305.0,1
445,445,-0.035651199723822025,-0.0,1.0,0.0,334.0,808.0,1.0,1,458.0,0
446,446,0.5248469671357271,0.5,0.0,0.0,417.0,954.0,0.0,1,319.0,1
447,447,-0.4657185218124919,-0.5,0.0,1.0,283.0,549.0,1.0,0,158.0,1
448,448,0.07312390318510409,0.1,0.0,0.0,286.0,845.0,1.0,0,1869.0,0
449,449,-0.5619536379767598,-0.6,0.0,1.0,494.0,524.0,1.0,0,322.0,1
450,450,0.4276906177149645,0.4,1.0,1.0,482.0,659.0,1.0,1,239.0,1
451,451,-0.45315698487136696,-0.5,0.0,1.0,463.0,966.0,1.0,0,241.0,1
452,452,0.8167756140752499,0.8,1.0,1.0,287.0,526.0,1.0,1,107.0,1
453,453,-0.06688022135641292,-0.1,0.0,1.0,401.0,519.0,1.0,0,360.0,1
454,454,0.24919059102028573,0.2,1.0,1.0,285.0,982.0,1.0,1,333.0,1
455,455,-0.745835027496941,-0.7,1.0,0.0,341.0,689.0,0.0,0,170.0,1
456,456,-0.6286502268964442,-0.6,0.0,1.0,455.0,589.0,1.0,0,236.0,1
457,457,0.3096902952322117,0.3,1.0,1.0,337.0,605.0,1.0,1,368.0,1
458,458,0.8643603853772382,0.9,0.0,0.0,308.0,791.0,0.0,1,201.0,1
459,459,-0.7665661544271211,-0.8,0.0,1.0,295.0,789.0,1.0,0,196.0,1
460,460,0.735814876796889,0.7,0.0,0.0,365.0,987.0,0.0,1,178.0,1
461,461,-0.5993961944699973,-0.6,0.0,1.0,250.0,685.0,1.0,0,165.0,1
462,462,0.6015728286235237,0.6,1.0,1.0,441.0,644.0,1.0,1,205.0,1
463,463,-0.15359449011647086,-0.2,1.0,0.0,300.0,739.0,0.0,0,1121.0,1
464,464,-0.49548481985679266,-0.5,1.0,0.0,301.0,507.0,0.0,0,292.0,1
465,465,0.59167241100633,0.6,0.0,0.0,463.0,538.0,0.0,1,379.0,1
466,466,-0.4316004686863705,-0.4,0.0,1.0,271.0,820.0,1.0,0,109.0,1
467,467,-0.23969711472571864,-0.2,0.0,1.0,487.0,515.0,1.0,0,648.0,1
468,468,0.27755974187619936,0.3,1.0,1.0,403.0,746.0,1.0,1,311.0,1
469,469,0.4600202620973849,0.5,1.0,1.0,362.0,646.0,1.0,1,502.0,1
470,470,-0.18486134191127868,-0.2,0.0,1.0,418.0,843.0,1.0,0,509.0,1
471,471,-0.3122293866170477,-0.3,1.0,0.0,331.0,847.0,0.0,0,472.0,1
472,472,0.817183234456568,0.8,0.0,0.0,336.0,639.0,0.0,1,175.0,1
473,473,0.6243421434379329,0.6,1.0,1.0,461.0,769.0,1.0,1,300.0,1
474,474,-0.17480342908705881,-0.2,1.0,0.0,430.0,901.0,0.0,0,669.0,1
475,475,-0.8760449158308798,-0.9,1.0,0.0,386.0,636.0,0.0,0,128.0,1
476,476,-0.7591376829641745,-0.8,0.0,1.0,469.0,583.0,1.0,0,208.0,1
477,477,-0.13879148365740512,-0.1,1.0,0.0,360.0,738.0,0.0,0,1902.0,1
478,478,-0.26476410393553584,-0.3,1.0,0.0,275.0,888.0,0.0,0,777.0,1
479,479,0.7197555464026643,0.7,0.0,0.0,365.0,843.0,0.0,1,142.0,1
480,480,0.7906875072840512,0.8,1.0,1.0,448.0,560.0,1.0,1,262.0,1
481,481,0.13288406674858433,0.1,1.0,1.0,292.0,645.0,1.0,1,1363.0,1
482,482,0.8199322338158527,0.8,0.0,0.0,385.0,959.0,0.0,1,176.0,1
483,483,0.35819881082386107,0.4,1.0,1.0,445.0,953.0,1.0,1,442.0,1
484,484,-0.13783236380715425,-0.1,0.0,1.0,291.0,695.0,1.0,0,364.0,1
485,485,-0.8751945798253827,-0.9,0.0,1.0,487.0,729.0,1.0,0,114.0,1
486,486,-0.6042620440130724,-0.6,0.0,1.0,292.0,800.0,1.0,0,88.0,1
487,487,0.8920940149132414,0.9,0.0,0.0,309.0,912.0,0.0,1,79.0,1
488,488,-0.647958572064054,-0.6,0.0,1.0,446.0,690.0,1.0,0,94.0,1
489,489,0.6779471883948215,0.7,1.0,1.0,481.0,954.0,1.0,1,225.0,1
490,490,0.37854606596700846,0.4,1.0,1.0,297.0,646.0,1.0,1,-243.0,1
491,491,0.650662967012892,0.7,0.0,0.0,359.0,895.0,0.0,1,256.0,1
492,492,-0.1699060358552661,-0.2,0.0,1.0,476.0,853.0,1.0,0,401.0,1
493,493,0.0340295612003817,0.0,0.0,0.0,415.0,669.0,1.0,0,1916.0,0
494,494,-0.3063109961119582,-0.3,0.0,1.0,457.0,656.0,1.0,0,247.0,1
495,495,-0.04808791263980117,-0.0,0.0,1.0,362.0,544.0,1.0,0,964.0,1
496,496,-0.6033520330466295,-0.6,0.0,1.0,288.0,931.0,1.0,0,41.0,1
497,497,-0.7197315228124175,-0.7,1.0,0.0,363.0,954.0,0.0,0,153.0,1
498,498,0.6328179617876718,0.6,0.0,0.0,465.0,835.0,0.0,1,300.0,1
499,499,-0.38171736143463253,-0.4,0.0,1.0,320.0,526.0,1.0,0,404.0,1
500,500,-0.5436515931578081,-0.5,1.0,0.0,484.0,599.0,0.0,0,277.0,1
501,501,0.7656812954854023,0.8,1.0,1.0,337.0,751.0,1.0,1,172.0,1
502,502,0.36151362642192686,0.4,0.0,0.0,280.0,777.0,0.0,1,423.0,1
503,503,0.18041659694545842,0.2,1.0,1.0,424.0,762.0,1.0,1,144.0,1
504,504,0.08520226107738094,0.1,0.0,0.0,423.0,507.0,0.0,1,890.0,1
505,505,0.4648692485623659,0.5,0.0,0.0,353.0,539.0,0.0,1,208.0,1
506,506,0.25285024575262816,0.3,0.0,0.0,484.0,550.0,0.0,1,496.0,1
507,507,0.8996490231832254,0.9,0.0,0.0,359.0,810.0,0.0,1,111.0,1
508,508,-0.30326921401599694,-0.3,1.0,0.0,322.0,663.0,0.0,0,255.0,1
509,509,-0.2079030117953542,-0.2,0.0,1.0,294.0,799.0,1.0,0,377.0,1
510,510,0.4213571747011534,0.4,1.0,1.0,412.0,773.0,1.0,1,155.0,1
511,511,0.3169720550103511,0.3,1.0,1.0,310.0,557.0,1.0,1,383.0,1
512,512,0.2480697614043731,0.2,0.0,0.0,476.0,631.0,0.0,1,493.0,1
513,513,0.1476235131428213,0.1,0.0,0.0,282.0,988.0,0.0,1,440.0,1
514,514,-0.7667163255023595,-0.8,0.0,1.0,329.0,958.0,1.0,0,213.0,1
515,515,0.8227603643002409,0.8,0.0,0.0,351.0,837.0,0.0,1,182.0,1
516,516,-0.2795896740060888,-0.3,1.0,0.0,307.0,546.0,0.0,0,377.0,1
517,517,0.3493014226799157,0.3,0.0,0.0,275.0,583.0,0.0,1,382.0,1
518,518,0.2689047566226318,0.3,1.0,1.0,351.0,909.0,1.0,1,190.0,1
519,519,-0.8078702845210012,-0.8,1.0,0.0,294.0,836.0,0.0,0,200.0,1
520,520,0.33326865473437073,0.3,1.0,1.0,458.0,594.0,1.0,1,418.0,1
521,521,0.1708423830353688,0.2,0.0,0.0,362.0,923.0,0.0,1,145.0,1
522,522,-0.49341261973599854,-0.5,1.0,0.0,274.0,842.0,0.0,0,224.0,1
523,523,0.036923918735697,0.0,1.0,1.0,373.0,919.0,1.0,1,518.0,1
524,524,-0.14855618771140522,-0.1,1.0,0.0,337.0,856.0,1.0,1,-83.0,0
525,525,-0.034660687088273745,-0.0,0.0,1.0,479.0,736.0,1.0,0,1315.0,1
526,526,-0.6381520774368161,-0.6,0.0,1.0,366.0,945.0,1.0,0,109.0,1
527,527,-0.4339106938506944,-0.4,1.0,0.0,408.0,781.0,0.0,0,171.0,1
528,528,0.7666988621192764,0.8,0.0,0.0,358.0,939.0,0.0,1,233.0,1
529,529,0.5762610177308053,0.6,0.0,0.0,411.0,639.0,0.0,1,210.0,1
530,530,0.6163751247997057,0.6,1.0,1.0,336.0,580.0,1.0,1,154.0,1
531,531,-0.25411127724838234,-0.3,0.0,1.0,367.0,816.0,1.0,0,377.0,1
532,532,-0.37737853623522866,-0.4,0.0,1.0,448.0,723.0,1.0,0,339.0,1
533,533,0.7420572738959953,0.7,0.0,0.0,415.0,713.0,0.0,1,162.0,1
534,534,-0.21111450706668222,-0.2,1.0,0.0,356.0,536.0,0.0,0,828.0,1
535,535,-0.2727866793833369,-0.3,0.0,1.0,427.0,812.0,1.0,0,281.0,1
536,536,0.21030643316743947,0.2,1.0,1.0,416.0,873.0,1.0,1,1.0,1
537,537,0.3102257247812691,0.3,1.0,1.0,449.0,928.0,1.0,1,443.0,1
538,538,0.07537583750439825,0.1,1.0,1.0,306.0,775.0,1.0,1,1179.0,1
539,539,-0.5358521041447066,-0.5,0.0,1.0,448.0,883.0,1.0,0,159.0,1
540,540,0.33505744221074163,0.3,1.0,1.0,365.0,994.0,1.0,1,101.0,1
541,541,-0.0028638216569916164,-0.0,0.0,1.0,294.0,918.0,1.0,0,1788.0,1
542,542,-0.25780552126515477,-0.3,1.0,0.0,305.0,941.0,0.0,0,294.0,1
543,543,0.6353094740886679,0.6,0.0,0.0,475.0,804.0,0.0,1,131.0,1
544,544,-0.3538234103438357,-0.4,0.0,1.0,324.0,739.0,1.0,0,377.0,1
545,545,0.8311640973187401,0.8,1.0,1.0,395.0,653.0,1.0,1,222.0,1
546,546,0.16635283406019086,0.2,1.0,1.0,252.0,712.0,1.0,1,556.0,1
547,547,-0.18576272189304388,-0.2,0.0,1.0,301.0,511.0,1.0,0,378.0,1
548,548,-0.7791820525506141,-0.8,1.0,0.0,401.0,549.0,0.0,0,230.0,1
549,549,0.015874061503256764,0.0,1.0,1.0,335.0,553.0,1.0,1,1562.0,1
550,550,-0.600867300735811,-0.6,0.0,1.0,404.0,609.0,1.0,0,327.0,1
551,551,0.3280569791358313,0.3,0.0,0.0,371.0,740.0,0.0,1,419.0,1
552,552,-0.35782207830146073,-0.4,1.0,0.0,370.0,804.0,0.0,0,346.0,1
553,553,0.6055717895682672,0.6,0.0,0.0,400.0,680.0,0.0,1,240.0,1
554,554,0.032871302157724935,0.0,0.0,0.0,362.0,676.0,0.0,1,1962.0,1
555,555,0.371485761582777,0.4,0.0,0.0,295.0,948.0,0.0,1,547.0,1
556,556,-0.3232866540710503,-0.3,0.0,1.0,391.0,640.0,1.0,0,209.0,1
557,557,0.3301994514792167,0.3,0.0,0.0,369.0,796.0,0.0,1,245.0,1
558,558,0.35133440628460566,0.4,1.0,1.0,462.0,887.0,1.0,1,311.0,1
559,559,-0.11876355253416393,-0.1,0.0,1.0,375.0,750.0,1.0,0,605.0,1
560,560,-0.6773157522164553,-0.7,1.0,0.0,374.0,680.0,0.0,0,206.0,1
561,561,-0.6733862074705843,-0.7,0.0,1.0,467.0,618.0,1.0,0,115.0,1
562,562,-0.8790835521421628,-0.9,1.0,0.0,427.0,685.0,0.0,0,128.0,1
563,563,-0.3180945250154914,-0.3,1.0,0.0,373.0,614.0,0.0,0,323.0,1
564,564,0.714550935815124,0.7,1.0,1.0,295.0,895.0,1.0,1,180.0,1
565,565,-0.3230973127797796,-0.3,1.0,0.0,267.0,633.0,0.0,0,500.0,1
566,566,0.09933268200389878,0.1,0.0,0.0,427.0,746.0,0.0,1,407.0,1
567,567,0.6579048093664509,0.7,1.0,1.0,428.0,825.0,1.0,1,657.0,1
568,568,-0.5153203794688,-0.5,1.0,0.0,499.0,999.0,1.0,1,-248.0,0
569,569,0.28477640826214834,0.3,0.0,0.0,328.0,956.0,0.0,1,336.0,1
570,570,0.6783896034817415,0.7,0.0,0.0,266.0,955.0,0.0,1,129.0,1
571,571,0.49827307133424437,0.5,0.0,0.0,352.0,845.0,0.0,1,183.0,1
572,572,-0.4383043214620865,-0.4,0.0,1.0,457.0,543.0,1.0,0,190.0,1
573,573,0.7654777196515469,0.8,1.0,1.0,340.0,898.0,1.0,1,192.0,1
574,574,0.3770141160590096,0.4,1.0,1.0,343.0,980.0,1.0,1,47.0,1
575,575,-0.7233424045199379,-0.7,1.0,0.0,372.0,938.0,0.0,0,190.0,1
576,576,-0.5574113772533612,-0.6,1.0,0.0,252.0,517.0,0.0,0,311.0,1
577,577,0.18598869337235346,0.2,0.0,0.0,463.0,530.0,0.0,1,1307.0,1
578,578,-0.8289250144449368,-0.8,1.0,0.0,254.0,532.0,0.0,0,134.0,1
579,579,-0.6198643869983571,-0.6,1.0,0.0,329.0,668.0,0.0,0,273.0,1
580,580,-0.1736791779881517,-0.2,0.0,1.0,337.0,692.0,1.0,0,721.0,1
581,581,-0.8076128932081199,-0.8,0.0,1.0,425.0,652.0,1.0,0,43.0,1
582,582,-0.8633450308506397,-0.9,0.0,1.0,393.0,723.0,1.0,0,234.0,1
583,583,0.029371426823444513,0.0,0.0,0.0,427.0,645.0,0.0,1,1928.0,1
584,584,0.4806212625342504,0.5,0.0,0.0,403.0,515.0,0.0,1,302.0,1
585,585,-0.563643810939886,-0.6,0.0,1.0,481.0,620.0,1.0,0,249.0,1
586,586,0.11293740813962871,0.1,0.0,0.0,411.0,979.0,0.0,1,1610.0,1
587,587,-0.19072326171154785,-0.2,0.0,1.0,357.0,549.0,1.0,0,284.0,1
588,588,0.512870115806961,0.5,1.0,1.0,302.0,737.0,1.0,1,221.0,1
589,589,0.5775639380383121,0.6,1.0,1.0,307.0,743.0,1.0,1,220.0,1
590,590,-0.7547526626935557,-0.8,0.0,1.0,472.0,877.0,1.0,0,211.0,1
591,591,-0.033951594854467304,-0.0,0.0,1.0,404.0,660.0,1.0,0,1476.0,1
592,592,0.7457607015382411,0.7,0.0,0.0,421.0,704.0,0.0,1,135.0,1
593,593,0.28502704196386086,0.3,1.0,1.0,451.0,786.0,1.0,1,243.0,1
594,594,0.8251312718572749,0.8,1.0,1.0,499.0,605.0,1.0,1,176.0,1
595,595,0.12379092096876188,0.1,1.0,1.0,331.0,561.0,1.0,1,2108.0,1
596,596,0.05211126940746802,0.1,1.0,1.0,486.0,729.0,1.0,1,-445.0,1
597,597,0.24418723640934015,0.2,1.0,1.0,285.0,627.0,1.0,1,178.0,1
598,598,-0.44683566815327097,-0.4,0.0,1.0,440.0,963.0,1.0,0,397.0,1
599,599,-0.7928976409844345,-0.8,1.0,0.0,328.0,888.0,0.0,0,344.0,1
600,600,-0.23361345653447485,-0.2,1.0,0.0,378.0,687.0,0.0,0,1065.0,1
601,601,0.0024142792365664523,0.0,1.0,1.0,323.0,763.0,1.0,1,884.0,1
602,602,0.1295951383026449,0.1,1.0,1.0,257.0,909.0,1.0,1,454.0,1
603,603,-0.8766518045271432,-0.9,1.0,0.0,273.0,861.0,0.0,0,146.0,1
604,604,-0.2304494783570996,-0.2,1.0,0.0,330.0,931.0,0.0,0,299.0,1
605,605,0.4188309144528456,0.4,1.0,1.0,420.0,766.0,1.0,1,324.0,1
606,606,-0.1338524567619349,-0.1,1.0,0.0,476.0,675.0,0.0,0,1849.0,1
607,607,-0.02013105711280927,-0.0,1.0,0.0,325.0,591.0,0.0,0,2084.0,1
608,608,0.6135647813406567,0.6,0.0,0.0,448.0,526.0,0.0,1,166.0,1
609,609,-0.8974027506926404,-0.9,0.0,1.0,379.0,541.0,1.0,0,130.0,1
610,610,-0.01764939530435472,-0.0,1.0,0.0,442.0,776.0,1.0,1,252.0,0
611,611,-0.7717361877764904,-0.8,0.0,1.0,302.0,763.0,1.0,0,175.0,1
612,612,0.2122626954104182,0.2,0.0,0.0,473.0,654.0,0.0,1,1383.0,1
613,613,-0.22928179581723118,-0.2,1.0,0.0,252.0,959.0,0.0,0,439.0,1
614,614,0.5281582420921419,0.5,0.0,0.0,281.0,685.0,0.0,1,184.0,1
615,615,-0.27835867281675775,-0.3,1.0,0.0,413.0,771.0,0.0,0,266.0,1
616,616,-0.2051912674213,-0.2,0.0,1.0,433.0,604.0,1.0,0,1023.0,1
617,617,-0.8381030025514982,-0.8,0.0,1.0,498.0,565.0,1.0,0,197.0,1
618,618,0.03937956946059551,0.0,0.0,0.0,255.0,745.0,0.0,1,2000.0,1
619,619,-0.14115684110784088,-0.1,0.0,1.0,362.0,742.0,1.0,0,1366.0,1
620,620,0.120553437025951,0.1,1.0,1.0,404.0,889.0,1.0,1,257.0,1
621,621,0.062383750186625786,0.1,1.0,1.0,372.0,942.0,1.0,1,1356.0,1
622,622,0.6325424658467517,0.6,0.0,0.0,270.0,708.0,0.0,1,292.0,1
623,623,-0.32062412395890105,-0.3,1.0,0.0,343.0,649.0,0.0,0,428.0,1
624,624,0.7254170190337431,0.7,0.0,0.0,387.0,860.0,0.0,1,103.0,1
625,625,-0.23445576221464481,-0.2,1.0,0.0,342.0,616.0,0.0,0,202.0,1
626,626,-0.87605947460244,-0.9,1.0,0.0,318.0,699.0,0.0,0,53.0,1
627,627,-0.7464423701479583,-0.7,1.0,0.0,447.0,949.0,0.0,0,364.0,1
628,628,0.5510285599973691,0.6,1.0,1.0,485.0,544.0,1.0,1,261.0,1
629,629,0.38078899036214986,0.4,0.0,0.0,281.0,805.0,0.0,1,454.0,1
630,630,0.1952450139877121,0.2,0.0,0.0,372.0,627.0,0.0,1,911.0,1
631,631,0.7524178839456489,0.8,1.0,1.0,397.0,841.0,1.0,1,122.0,1
632,632,0.25424857926930244,0.3,0.0,0.0,361.0,796.0,0.0,1,563.0,1
633,633,-0.14873930303559757,-0.1,1.0,0.0,444.0,887.0,0.0,0,1239.0,1
634,634,-0.6566505510024687,-0.7,0.0,1.0,382.0,950.0,1.0,0,248.0,1
635,635,-0.02637445001151395,-0.0,1.0,0.0,458.0,905.0,1.0,1,1637.0,0
636,636,0.04031045623628149,0.0,0.0,0.0,390.0,743.0,1.0,0,1867.0,0
637,637,0.048779855890000445,0.0,1.0,1.0,394.0,684.0,1.0,1,422.0,1
638,638,0.46681387507357475,0.5,0.0,0.0,314.0,652.0,0.0,1,324.0,1
639,639,-0.47545797775230064,-0.5,0.0,1.0,265.0,827.0,1.0,0,198.0,1
640,640,0.8329419642947656,0.8,1.0,1.0,497.0,928.0,1.0,1,245.0,1
641,641,-0.8864494726622922,-0.9,1.0,0.0,435.0,593.0,0.0,0,182.0,1
642,642,0.8133151327212259,0.8,1.0,1.0,457.0,574.0,1.0,1,59.0,1
643,643,0.19094470422057108,0.2,0.0,0.0,323.0,648.0,0.0,1,509.0,1
644,644,-0.3610450037534423,-0.4,1.0,0.0,406.0,683.0,0.0,0,451.0,1
645,645,0.7673947867054228,0.8,1.0,1.0,257.0,932.0,1.0,1,221.0,1
646,646,0.5577803515089658,0.6,0.0,0.0,419.0,939.0,0.0,1,202.0,1
647,647,-0.630837653124279,-0.6,1.0,0.0,373.0,887.0,0.0,0,230.0,1
648,648,0.7777506352308733,0.8,1.0,1.0,280.0,744.0,1.0,1,106.0,1
649,649,-0.6159790874244557,-0.6,0.0,1.0,350.0,619.0,1.0,0,181.0,1
650,650,0.31549787348093583,0.3,1.0,1.0,287.0,553.0,1.0,1,120.0,1
651,651,-0.4630886744546737,-0.5,1.0,0.0,425.0,952.0,1.0,1,-127.0,0
652,652,0.3164523918970815,0.3,1.0,1.0,329.0,796.0,1.0,1,115.0,1
653,653,0.20729380165760436,0.2,0.0,0.0,271.0,848.0,0.0,1,521.0,1
654,654,-0.7132795532362816,-0.7,0.0,1.0,480.0,744.0,1.0,0,186.0,1
655,655,-0.7201980481717267,-0.7,1.0,0.0,401.0,531.0,0.0,0,178.0,1
656,656,-0.5105417715825848,-0.5,0.0,1.0,324.0,791.0,1.0,0,185.0,1
657,657,0.28346290367864124,0.3,0.0,0.0,434.0,953.0,0.0,1,1163.0,1
658,658,-0.20119869365930898,-0.2,0.0,1.0,264.0,691.0,1.0,0,415.0,1
659,659,-0.03696095372141839,-0.0,1.0,0.0,496.0,739.0,0.0,0,585.0,1
660,660,0.054706901687854415,0.1,1.0,1.0,468.0,772.0,1.0,1,920.0,1
661,661,0.4317957767063164,0.4,1.0,1.0,362.0,736.0,1.0,1,652.0,1
662,662,0.22177526245202406,0.2,1.0,1.0,277.0,849.0,1.0,1,624.0,1
663,663,0.8993748536470086,0.9,1.0,1.0,459.0,632.0,1.0,1,149.0,1
664,664,0.5420409364607658,0.5,0.0,0.0,363.0,795.0,0.0,1,232.0,1
665,665,0.8818924839708892,0.9,0.0,0.0,332.0,537.0,0.0,1,151.0,1
666,666,0.7146567164789667,0.7,0.0,0.0,267.0,760.0,0.0,1,243.0,1
667,667,0.09265301688331307,0.1,1.0,1.0,363.0,546.0,1.0,1,861.0,1
668,668,-0.015482964761722617,-0.0,1.0,0.0,430.0,942.0,1.0,1,828.0,0
669,669,-0.5934639959674929,-0.6,1.0,0.0,385.0,960.0,1.0,1,25.0,0
670,670,-0.7812747416881821,-0.8,1.0,0.0,303.0,835.0,0.0,0,162.0,1
671,671,-0.08670249923686835,-0.1,1.0,0.0,497.0,611.0,1.0,1,1892.0,0
672,672,-0.7703089542224646,-0.8,0.0,1.0,294.0,631.0,1.0,0,545.0,1
673,673,-0.47606253761381273,-0.5,1.0,0.0,330.0,854.0,0.0,0,356.0,1
674,674,-0.51304210978559,-0.5,1.0,0.0,372.0,753.0,0.0,0,225.0,1
675,675,0.5008111655753159,0.5,0.0,0.0,345.0,633.0,0.0,1,482.0,1
676,676,-0.2561703341989323,-0.3,1.0,0.0,371.0,626.0,0.0,0,613.0,1
677,677,0.3151428397121502,0.3,0.0,0.0,437.0,537.0,0.0,1,496.0,1
678,678,-0.6394346386843839,-0.6,1.0,0.0,462.0,515.0,0.0,0,203.0,1
679,679,0.45889509165515363,0.5,0.0,0.0,382.0,874.0,0.0,1,84.0,1
680,680,0.6112550950459171,0.6,0.0,0.0,344.0,960.0,0.0,1,156.0,1
681,681,-0.7445292020232483,-0.7,0.0,1.0,443.0,922.0,1.0,0,145.0,1
682,682,0.04975139070623236,0.0,1.0,1.0,314.0,637.0,1.0,1,2049.0,1
683,683,-0.7698910719545751,-0.8,1.0,0.0,325.0,712.0,0.0,0,463.0,1
684,684,0.526853667761027,0.5,1.0,1.0,431.0,562.0,1.0,1,147.0,1
685,685,-0.5589110592074482,-0.6,0.0,1.0,372.0,579.0,1.0,0,319.0,1
686,686,0.6355013473671144,0.6,0.0,0.0,323.0,748.0,0.0,1,99.0,1
687,687,0.8827677259647947,0.9,0.0,0.0,394.0,634.0,0.0,1,222.0,1
688,688,0.5194992526661814,0.5,0.0,0.0,299.0,508.0,0.0,1,193.0,1
689,689,0.11460287896611565,0.1,1.0,1.0,449.0,595.0,1.0,1,376.0,1
690,690,-0.045683602974897486,-0.0,0.0,1.0,413.0,646.0,1.0,0,1941.0,1
691,691,0.4581760427956595,0.5,1.0,1.0,472.0,595.0,1.0,1,133.0,1
692,692,0.516373089525001,0.5,0.0,0.0,343.0,541.0,0.0,1,266.0,1
693,693,-0.05736148120861029,-0.1,0.0,1.0,362.0,642.0,1.0,0,1996.0,1
694,694,-0.06632113828714759,-0.1,1.0,0.0,466.0,770.0,1.0,1,294.0,0
695,695,0.48000826438417865,0.5,0.0,0.0,261.0,573.0,0.0,1,216.0,1
696,696,-0.7999755132645279,-0.8,0.0,1.0,299.0,972.0,1.0,0,99.0,1
697,697,0.24101986513561224,0.2,0.0,0.0,477.0,836.0,0.0,1,387.0,1
698,698,-0.4940126785941143,-0.5,1.0,0.0,259.0,923.0,0.0,0,378.0,1
699,699,-0.38263689897011033,-0.4,0.0,1.0,342.0,683.0,1.0,0,405.0,1
700,700,0.17696233804852468,0.2,1.0,1.0,252.0,758.0,1.0,1,380.0,1
701,701,0.00661289184455871,0.0,0.0,0.0,451.0,767.0,0.0,1,1782.0,1
702,702,-0.3224289853346308,-0.3,0.0,1.0,428.0,880.0,1.0,0,292.0,1
703,703,0.013638103636548382,0.0,0.0,0.0,439.0,604.0,0.0,1,1957.0,1
704,704,0.6576267012373703,0.7,0.0,0.0,427.0,591.0,0.0,1,82.0,1
705,705,-0.11063664739752632,-0.1,0.0,1.0,372.0,850.0,1.0,0,788.0,1
706,706,0.723916438105359,0.7,0.0,0.0,376.0,504.0,0.0,1,220.0,1
707,707,0.6020993756998344,0.6,0.0,0.0,477.0,578.0,0.0,1,205.0,1
708,708,0.2910279077464183,0.3,1.0,1.0,459.0,801.0,1.0,1,180.0,1
709,709,-0.6902542444749273,-0.7,1.0,0.0,309.0,864.0,0.0,0,267.0,1
710,710,-0.5439963446160991,-0.5,0.0,1.0,404.0,879.0,1.0,0,147.0,1
711,711,0.31266320416129767,0.3,0.0,0.0,350.0,627.0,0.0,1,493.0,1
712,712,0.7182373563129879,0.7,1.0,1.0,484.0,725.0,1.0,1,671.0,1
713,713,-0.34421804771808173,-0.3,1.0,0.0,493.0,960.0,0.0,0,347.0,1
714,714,-0.3799721472657899,-0.4,1.0,0.0,431.0,712.0,0.0,0,477.0,1
715,715,0.7765619066824395,0.8,0.0,0.0,475.0,807.0,0.0,1,158.0,1
716,716,0.39487429662199836,0.4,0.0,0.0,459.0,561.0,0.0,1,320.0,1
717,717,-0.4618154666512785,-0.5,1.0,0.0,408.0,983.0,0.0,0,229.0,1
718,718,-0.3946308645581664,-0.4,1.0,0.0,282.0,699.0,0.0,0,329.0,1
719,719,0.8154640651490909,0.8,1.0,1.0,308.0,601.0,1.0,1,171.0,1
720,720,0.047129284005980376,0.0,0.0,0.0,372.0,881.0,0.0,1,1457.0,1
721,721,-0.4266801441600444,-0.4,0.0,1.0,469.0,799.0,1.0,0,202.0,1
722,722,0.7102320272690078,0.7,0.0,0.0,487.0,725.0,0.0,1,208.0,1
723,723,-0.053081882865831265,-0.1,0.0,1.0,469.0,928.0,1.0,0,1603.0,1
724,724,0.5193094301311648,0.5,0.0,0.0,286.0,866.0,0.0,1,138.0,1
725,725,0.5911565532693869,0.6,1.0,1.0,387.0,572.0,1.0,1,181.0,1
726,726,-0.3691523715635594,-0.4,0.0,1.0,340.0,877.0,1.0,0,153.0,1
727,727,0.17887507556430904,0.2,0.0,0.0,462.0,690.0,0.0,1,488.0,1
728,728,0.8787607383725388,0.9,0.0,0.0,480.0,861.0,0.0,1,159.0,1
729,729,-0.8519915547173476,-0.9,0.0,1.0,324.0,713.0,1.0,0,143.0,1
730,730,0.13503760939842835,0.1,1.0,1.0,362.0,924.0,1.0,1,144.0,1
731,731,0.10060493130441961,0.1,0.0,0.0,293.0,655.0,0.0,1,2052.0,1
732,732,0.6487545619701854,0.6,0.0,0.0,262.0,607.0,0.0,1,91.0,1
733,733,0.08515144897855598,0.1,0.0,0.0,466.0,814.0,1.0,0,1720.0,0
734,734,0.1607292508784438,0.2,0.0,0.0,378.0,654.0,0.0,1,418.0,1
735,735,-0.3857426679798367,-0.4,0.0,1.0,375.0,826.0,1.0,0,249.0,1
736,736,-0.3782341037836392,-0.4,0.0,1.0,311.0,756.0,1.0,0,263.0,1
737,737,-0.2337051509709568,-0.2,1.0,0.0,260.0,820.0,0.0,0,460.0,1
738,738,-0.29145244447676333,-0.3,1.0,0.0,400.0,892.0,0.0,0,478.0,1
739,739,0.6978447702466376,0.7,1.0,1.0,399.0,579.0,1.0,1,142.0,1
740,740,0.5664401188004317,0.6,1.0,1.0,435.0,751.0,1.0,1,454.0,1
741,741,-0.006438773067364512,-0.0,1.0,0.0,326.0,694.0,0.0,0,1980.0,1
742,742,0.10271538091826271,0.1,0.0,0.0,483.0,599.0,0.0,1,1598.0,1
743,743,0.2751711612089668,0.3,0.0,0.0,482.0,770.0,0.0,1,198.0,1
744,744,0.7763707035233277,0.8,0.0,0.0,494.0,915.0,0.0,1,261.0,1
745,745,0.11346796937813608,0.1,0.0,0.0,460.0,963.0,1.0,0,-133.0,0
746,746,-0.27170670178159784,-0.3,0.0,1.0,278.0,746.0,1.0,0,436.0,1
747,747,0.8892801339508652,0.9,0.0,0.0,360.0,777.0,0.0,1,213.0,1
748,748,0.6579751648873827,0.7,0.0,0.0,280.0,508.0,0.0,1,182.0,1
749,749,-0.03780717633118458,-0.0,1.0,0.0,431.0,590.0,1.0,1,1979.0,0
750,750,-0.08801294214591993,-0.1,0.0,1.0,368.0,835.0,1.0,0,1607.0,1
751,751,-0.6378355800650288,-0.6,1.0,0.0,377.0,971.0,0.0,0,242.0,1
752,752,-0.2071282972620988,-0.2,1.0,0.0,383.0,995.0,0.0,0,592.0,1
753,753,-0.27627021659674045,-0.3,0.0,1.0,290.0,706.0,1.0,0,264.0,1
754,754,-0.2177521784507097,-0.2,1.0,0.0,334.0,680.0,0.0,0,966.0,1
755,755,0.3346260313796018,0.3,1.0,1.0,290.0,889.0,1.0,1,191.0,1
756,756,0.31533190538688827,0.3,1.0,1.0,289.0,577.0,1.0,1,224.0,1
757,757,0.25760187859493755,0.3,0.0,0.0,380.0,752.0,0.0,1,598.0,1
758,758,-0.09612881854257638,-0.1,1.0,0.0,255.0,961.0,0.0,0,674.0,1
759,759,0.7897538375918701,0.8,1.0,1.0,476.0,621.0,1.0,1,333.0,1
760,760,-0.10683552373415028,-0.1,1.0,0.0,412.0,853.0,0.0,0,1035.0,1
761,761,0.3956884008275031,0.4,1.0,1.0,385.0,756.0,1.0,1,119.0,1
762,762,-0.1871393759918878,-0.2,0.0,1.0,302.0,907.0,1.0,0,331.0,1
763,763,-0.24068536294035703,-0.2,1.0,0.0,315.0,602.0,0.0,0,853.0,1
764,764,0.46047865640521934,0.5,1.0,1.0,425.0,542.0,1.0,1,163.0,1
765,765,-0.5724810261963651,-0.6,0.0,1.0,496.0,558.0,1.0,0,116.0,1
766,766,-0.2411720329627869,-0.2,0.0,1.0,393.0,716.0,1.0,0,1051.0,1
767,767,-0.4129672736373508,-0.4,0.0,1.0,285.0,697.0,1.0,0,318.0,1
768,768,0.34807391232717,0.3,0.0,0.0,329.0,869.0,0.0,1,362.0,1
769,769,0.8442368255439793,0.8,1.0,1.0,451.0,644.0,1.0,1,105.0,1
770,770,-0.8544791936574714,-0.9,0.0,1.0,399.0,899.0,1.0,0,112.0,1
771,771,-0.5220528883140201,-0.5,0.0,1.0,464.0,931.0,1.0,0,85.0,1
772,772,-0.30761797276691105,-0.3,0.0,1.0,288.0,602.0,1.0,0,380.0,1
773,773,0.5574373882731082,0.6,1.0,1.0,491.0,667.0,1.0,1,152.0,1
774,774,0.7301196874068007,0.7,0.0,0.0,339.0,808.0,0.0,1,173.0,1
775,775,-0.5103108214129659,-0.5,1.0,0.0,299.0,582.0,0.0,0,249.0,1
776,776,0.3472100769782772,0.3,1.0,1.0,395.0,670.0,1.0,1,295.0,1
777,777,-0.5100899455502916,-0.5,1.0,0.0,297.0,800.0,0.0,0,233.0,1
778,778,0.8604264702122958,0.9,1.0,1.0,406.0,638.0,1.0,1,166.0,1
779,779,0.7255956187747558,0.7,0.0,0.0,432.0,740.0,0.0,1,118.0,1
780,780,0.2452539905335528,0.2,0.0,0.0,376.0,693.0,0.0,1,1031.0,1
781,781,-0.34205316155770027,-0.3,1.0,0.0,310.0,631.0,0.0,0,359.0,1
782,782,-0.4619522168476348,-0.5,0.0,1.0,432.0,811.0,1.0,0,187.0,1
783,783,0.7186147059894116,0.7,0.0,0.0,316.0,665.0,0.0,1,219.0,1
784,784,-0.8684236180446698,-0.9,0.0,1.0,309.0,629.0,1.0,0,162.0,1
785,785,-0.1796518907792446,-0.2,1.0,0.0,345.0,800.0,0.0,0,625.0,1
786,786,0.6338031464576993,0.6,1.0,1.0,344.0,764.0,1.0,1,262.0,1
787,787,-0.8923420332417316,-0.9,0.0,1.0,402.0,594.0,1.0,0,114.0,1
788,788,-0.7685437620243297,-0.8,1.0,0.0,361.0,648.0,0.0,0,341.0,1
789,789,-0.6662313720493529,-0.7,0.0,1.0,369.0,802.0,1.0,0,179.0,1
790,790,-0.2217086720526933,-0.2,0.0,1.0,332.0,610.0,1.0,0,518.0,1
791,791,0.3154546863968849,0.3,1.0,1.0,366.0,690.0,1.0,1,264.0,1
792,792,0.8289984480774989,0.8,1.0,1.0,374.0,747.0,1.0,1,149.0,1
793,793,0.5125309506384886,0.5,0.0,0.0,338.0,794.0,0.0,1,198.0,1
794,794,0.8587715424152328,0.9,0.0,0.0,484.0,900.0,0.0,1,176.0,1
795,795,-0.5314093978402858,-0.5,1.0,0.0,496.0,586.0,0.0,0,148.0,1
796,796,-0.89997676517076,-0.9,0.0,1.0,288.0,558.0,1.0,0,104.0,1
797,797,-0.8877779969849776,-0.9,0.0,1.0,439.0,950.0,1.0,0,51.0,1
798,798,-0.05911374353897336,-0.1,1.0,0.0,433.0,536.0,0.0,0,1211.0,1
799,799,0.44110744641878685,0.4,1.0,1.0,453.0,548.0,1.0,1,959.0,1
800,800,0.06898154300495052,0.1,0.0,0.0,255.0,652.0,0.0,1,2093.0,1
801,801,0.41922492921408117,0.4,1.0,1.0,475.0,695.0,1.0,1,830.0,1
802,802,-0.5925515695774444,-0.6,0.0,1.0,302.0,553.0,1.0,0,135.0,1
803,803,-0.6557831156842724,-0.7,1.0,0.0,363.0,572.0,0.0,0,235.0,1
804,804,0.4131637125103841,0.4,0.0,0.0,471.0,998.0,0.0,1,481.0,1
805,805,0.3573995078712916,0.4,1.0,1.0,354.0,969.0,1.0,1,-243.0,1
806,806,0.10862057617705945,0.1,1.0,1.0,283.0,569.0,1.0,1,268.0,1
807,807,0.27516735412577764,0.3,1.0,1.0,369.0,626.0,1.0,1,195.0,1
808,808,-0.027528699942185653,-0.0,0.0,1.0,458.0,801.0,1.0,0,1371.0,1
809,809,0.699211111000846,0.7,1.0,1.0,400.0,855.0,1.0,1,115.0,1
810,810,0.028162604583038098,0.0,0.0,0.0,454.0,614.0,0.0,1,1562.0,1
811,811,-0.8000268912517323,-0.8,1.0,0.0,464.0,650.0,0.0,0,116.0,1
812,812,-0.01854284115294269,-0.0,0.0,1.0,478.0,538.0,1.0,0,1984.0,1
813,813,0.22465829746860455,0.2,0.0,0.0,254.0,646.0,0.0,1,950.0,1
814,814,0.18323928855333793,0.2,0.0,0.0,487.0,776.0,0.0,1,847.0,1
815,815,-0.42482824739324987,-0.4,0.0,1.0,450.0,500.0,1.0,0,320.0,1
816,816,-0.7733961056354925,-0.8,1.0,0.0,330.0,623.0,0.0,0,357.0,1
817,817,-0.3939497358782569,-0.4,0.0,1.0,462.0,533.0,1.0,0,455.0,1
818,818,-0.4746145342218861,-0.5,1.0,0.0,357.0,970.0,0.0,0,183.0,1
819,819,0.029668229684993386,0.0,1.0,1.0,274.0,995.0,1.0,1,1731.0,1
820,820,0.5377467745055876,0.5,1.0,1.0,330.0,732.0,1.0,1,478.0,1
821,821,-0.3465067659641585,-0.3,0.0,1.0,377.0,572.0,1.0,0,271.0,1
822,822,0.8531384024913028,0.9,1.0,1.0,377.0,751.0,1.0,1,62.0,1
823,823,0.48011649165155335,0.5,1.0,1.0,448.0,802.0,1.0,1,150.0,1
824,824,0.849123948340368,0.8,0.0,0.0,277.0,911.0,0.0,1,122.0,1
825,825,-0.8646341950609552,-0.9,1.0,0.0,396.0,846.0,0.0,0,228.0,1
826,826,-0.4420389189195403,-0.4,0.0,1.0,339.0,609.0,1.0,0,182.0,1
827,827,-0.5490696084589988,-0.5,1.0,0.0,275.0,788.0,0.0,0,407.0,1
828,828,-0.31361058117366014,-0.3,0.0,1.0,262.0,956.0,1.0,0,182.0,1
829,829,0.13000157927517553,0.1,1.0,1.0,326.0,724.0,1.0,1,850.0,1
830,830,0.8643292800757515,0.9,0.0,0.0,256.0,591.0,0.0,1,163.0,1
831,831,-0.39579320804301943,-0.4,1.0,0.0,363.0,572.0,0.0,0,205.0,1
832,832,-0.7038655500372084,-0.7,0.0,1.0,342.0,603.0,1.0,0,115.0,1
833,833,0.7191973410748654,0.7,1.0,1.0,328.0,928.0,1.0,1,204.0,1
834,834,-0.7836584504409656,-0.8,0.0,1.0,261.0,995.0,1.0,0,104.0,1
835,835,0.8652384981110489,0.9,0.0,0.0,275.0,725.0,0.0,1,230.0,1
836,836,-0.46920288226647716,-0.5,1.0,0.0,371.0,527.0,0.0,0,152.0,1
837,837,-0.7105026549979294,-0.7,1.0,0.0,373.0,991.0,0.0,0,116.0,1
838,838,-0.4803105286460331,-0.5,1.0,0.0,257.0,569.0,0.0,0,274.0,1
839,839,0.6203602876130948,0.6,0.0,0.0,495.0,889.0,0.0,1,206.0,1
840,840,0.5931029778463665,0.6,0.0,0.0,458.0,687.0,0.0,1,215.0,1
841,841,0.16680437116938907,0.2,1.0,1.0,291.0,674.0,1.0,1,915.0,1
842,842,-0.2984584777318785,-0.3,0.0,1.0,264.0,629.0,1.0,0,397.0,1
843,843,-0.6545820994408247,-0.7,1.0,0.0,378.0,868.0,0.0,0,184.0,1
844,844,-0.5199458853508443,-0.5,1.0,0.0,337.0,599.0,0.0,0,304.0,1
845,845,-0.6378068379962047,-0.6,0.0,1.0,466.0,680.0,1.0,0,554.0,1
846,846,0.6402940161532665,0.6,0.0,0.0,410.0,580.0,0.0,1,290.0,1
847,847,-0.0975250664095747,-0.1,0.0,1.0,406.0,802.0,1.0,0,252.0,1
848,848,0.3619257485464592,0.4,1.0,1.0,448.0,958.0,1.0,1,214.0,1
849,849,0.587119189385629,0.6,1.0,1.0,412.0,547.0,1.0,1,201.0,1
850,850,-0.1377746722317622,-0.1,1.0,0.0,468.0,541.0,0.0,0,1161.0,1
851,851,-0.5449784158491239,-0.5,1.0,0.0,316.0,579.0,0.0,0,415.0,1
852,852,0.37202784305583136,0.4,1.0,1.0,291.0,861.0,1.0,1,368.0,1
853,853,-0.29290279344173287,-0.3,1.0,0.0,260.0,543.0,0.0,0,367.0,1
854,854,-0.8545510760488495,-0.9,1.0,0.0,406.0,582.0,0.0,0,312.0,1
855,855,0.5496859194663463,0.5,1.0,1.0,346.0,579.0,1.0,1,345.0,1
856,856,0.27295049091609946,0.3,1.0,1.0,485.0,930.0,1.0,1,635.0,1
857,857,-0.6564008197297672,-0.7,0.0,1.0,430.0,940.0,1.0,0,80.0,1
858,858,0.31762459760880335,0.3,1.0,1.0,462.0,822.0,1.0,1,216.0,1
859,859,0.8644271358239092,0.9,1.0,1.0,274.0,631.0,1.0,1,155.0,1
860,860,-0.15502411450422227,-0.2,0.0,1.0,335.0,646.0,1.0,0,749.0,1
861,861,0.4406080515242322,0.4,0.0,0.0,418.0,678.0,0.0,1,154.0,1
862,862,-0.3756689543242475,-0.4,0.0,1.0,328.0,877.0,1.0,0,355.0,1
863,863,0.6537172437693052,0.7,0.0,0.0,290.0,968.0,0.0,1,172.0,1
864,864,0.33519807192805373,0.3,1.0,1.0,439.0,578.0,1.0,1,803.0,1
865,865,-0.04812643866294353,-0.0,1.0,0.0,413.0,795.0,1.0,1,1792.0,0
866,866,-0.8151791696666434,-0.8,1.0,0.0,307.0,881.0,1.0,1,-228.0,0
867,867,0.2812174849013386,0.3,1.0,1.0,487.0,587.0,1.0,1,686.0,1
868,868,-0.12276492980341291,-0.1,0.0,1.0,355.0,552.0,1.0,0,113.0,1
869,869,-0.35290538459971166,-0.4,1.0,0.0,358.0,635.0,0.0,0,187.0,1
870,870,-0.22838698188791362,-0.2,1.0,0.0,450.0,809.0,0.0,0,1161.0,1
871,871,0.39998955004966896,0.4,0.0,0.0,487.0,550.0,0.0,1,263.0,1
872,872,-0.8037257651483987,-0.8,1.0,0.0,304.0,610.0,0.0,0,176.0,1
873,873,0.5545541898902567,0.6,1.0,1.0,452.0,893.0,1.0,1,55.0,1
874,874,-0.8822881283099492,-0.9,0.0,1.0,421.0,980.0,1.0,0,29.0,1
875,875,0.039081803554175454,0.0,1.0,1.0,262.0,863.0,1.0,1,-125.0,1
876,876,0.10256918805396509,0.1,1.0,1.0,279.0,847.0,1.0,1,394.0,1
877,877,-0.742841636735553,-0.7,0.0,1.0,408.0,929.0,1.0,0,113.0,1
878,878,-0.3998141224753736,-0.4,0.0,1.0,436.0,572.0,1.0,0,252.0,1
879,879,-0.1207109214073373,-0.1,0.0,1.0,320.0,513.0,1.0,0,787.0,1
880,880,-0.7785270964930523,-0.8,1.0,0.0,481.0,632.0,0.0,0,137.0,1
881,881,0.4834609739896406,0.5,0.0,0.0,367.0,792.0,0.0,1,271.0,1
882,882,-0.12505425757905542,-0.1,1.0,0.0,422.0,827.0,0.0,0,1751.0,1
883,883,-0.30461275818130196,-0.3,0.0,1.0,468.0,769.0,1.0,0,183.0,1
884,884,0.885171551842758,0.9,0.0,0.0,398.0,995.0,0.0,1,167.0,1
885,885,0.3883898587749305,0.4,1.0,1.0,496.0,720.0,1.0,1,434.0,1
886,886,0.11362169820199008,0.1,1.0,1.0,397.0,724.0,1.0,1,989.0,1
887,887,0.43963281091053596,0.4,1.0,1.0,427.0,627.0,1.0,1,246.0,1
888,888,-0.673434389916055,-0.7,1.0,0.0,305.0,626.0,0.0,0,119.0,1
889,889,0.24729214080906503,0.2,0.0,0.0,395.0,761.0,0.0,1,1204.0,1
890,890,-0.1216230069193105,-0.1,1.0,0.0,278.0,940.0,0.0,0,472.0,1
891,891,0.7734883222166266,0.8,0.0,0.0,423.0,835.0,0.0,1,162.0,1
892,892,-0.12890404971591995,-0.1,0.0,1.0,497.0,918.0,1.0,0,685.0,1
893,893,0.019050707803564104,0.0,0.0,0.0,458.0,819.0,0.0,1,1723.0,1
894,894,0.8382316705018463,0.8,1.0,1.0,326.0,606.0,1.0,1,238.0,1
895,895,0.5327973943223517,0.5,0.0,0.0,276.0,615.0,0.0,1,149.0,1
896,896,0.15343975814309918,0.2,0.0,0.0,430.0,698.0,0.0,1,1442.0,1
897,897,0.09973631414763384,0.1,1.0,1.0,498.0,555.0,1.0,1,1947.0,1
898,898,0.8948674969722367,0.9,0.0,0.0,312.0,691.0,0.0,1,87.0,1
899,899,0.009258504091085529,0.0,0.0,0.0,462.0,588.0,0.0,1,1950.0,1
900,900,0.3282958737577887,0.3,0.0,0.0,331.0,571.0,0.0,1,-162.0,1
901,901,0.6125248430245714,0.6,0.0,0.0,256.0,551.0,0.0,1,303.0,1
902,902,0.11066038648405174,0.1,0.0,0.0,468.0,819.0,0.0,1,1113.0,1
903,903,-0.24798114882795885,-0.2,1.0,0.0,284.0,933.0,0.0,0,103.0,1
904,904,0.4316736024859883,0.4,1.0,1.0,349.0,909.0,1.0,1,242.0,1
905,905,0.5521842136607501,0.6,0.0,0.0,320.0,641.0,0.0,1,219.0,1
906,906,0.7357531358170456,0.7,0.0,0.0,250.0,558.0,0.0,1,272.0,1
907,907,0.26322940889519175,0.3,1.0,1.0,423.0,603.0,1.0,1,504.0,1
908,908,-0.888877145235677,-0.9,1.0,0.0,403.0,977.0,0.0,0,310.0,1
909,909,-0.35339648167520255,-0.4,1.0,0.0,394.0,667.0,0.0,0,549.0,1
910,910,0.5241802966785755,0.5,1.0,1.0,400.0,719.0,1.0,1,621.0,1
911,911,-0.5059217078893377,-0.5,0.0,1.0,258.0,545.0,1.0,0,397.0,1
912,912,-0.42096124841055754,-0.4,1.0,0.0,404.0,558.0,0.0,0,618.0,1
913,913,-0.25758430566591206,-0.3,0.0,1.0,460.0,570.0,1.0,0,250.0,1
914,914,-0.557298525500951,-0.6,1.0,0.0,453.0,548.0,0.0,0,99.0,1
915,915,0.8728115067390033,0.9,1.0,1.0,312.0,755.0,1.0,1,113.0,1
916,916,0.37468700587355197,0.4,1.0,1.0,388.0,697.0,1.0,1,195.0,1
917,917,-0.2268479272608075,-0.2,0.0,1.0,250.0,749.0,1.0,0,251.0,1
918,918,0.810419154215175,0.8,0.0,0.0,418.0,585.0,0.0,1,147.0,1
919,919,0.4485065784087995,0.4,0.0,0.0,332.0,585.0,0.0,1,303.0,1
920,920,-0.3467365777327718,-0.3,0.0,1.0,497.0,528.0,1.0,0,195.0,1
921,921,0.7908013732413411,0.8,0.0,0.0,338.0,549.0,0.0,1,313.0,1
922,922,0.14765912426438665,0.1,0.0,0.0,396.0,828.0,0.0,1,1446.0,1
923,923,-0.27252021353310774,-0.3,1.0,0.0,326.0,607.0,0.0,0,437.0,1
924,924,-0.8359128016997336,-0.8,0.0,1.0,469.0,514.0,1.0,0,177.0,1
925,925,-0.586815079915761,-0.6,1.0,0.0,387.0,764.0,0.0,0,359.0,1
926,926,0.40632413790607147,0.4,0.0,0.0,493.0,569.0,0.0,1,218.0,1
927,927,0.46253320936333775,0.5,1.0,1.0,346.0,545.0,1.0,1,309.0,1
928,928,-0.04441877724381493,-0.0,0.0,1.0,284.0,836.0,1.0,0,1880.0,1
929,929,-0.2887247171513483,-0.3,0.0,1.0,435.0,789.0,1.0,0,136.0,1
930,930,-0.5266525387639123,-0.5,1.0,0.0,323.0,809.0,0.0,0,308.0,1
931,931,0.16123192389595087,0.2,1.0,1.0,365.0,526.0,1.0,1,219.0,1
932,932,0.3168713279576615,0.3,0.0,0.0,489.0,822.0,0.0,1,429.0,1
933,933,0.304516594723235,0.3,1.0,1.0,349.0,737.0,1.0,1,234.0,1
934,934,0.45661294696460886,0.5,1.0,1.0,371.0,540.0,1.0,1,229.0,1
935,935,0.33009274376926145,0.3,0.0,0.0,381.0,991.0,0.0,1,368.0,1
936,936,-0.12499095885851452,-0.1,1.0,0.0,419.0,787.0,0.0,0,1794.0,1
937,937,0.164222128994287,0.2,0.0,0.0,337.0,520.0,0.0,1,933.0,1
938,938,0.6166275704168839,0.6,1.0,1.0,288.0,921.0,1.0,1,491.0,1
939,939,0.6039876730812194,0.6,0.0,0.0,372.0,684.0,0.0,1,304.0,1
940,940,0.03008526213104057,0.0,0.0,0.0,374.0,850.0,1.0,0,1776.0,0
941,941,-0.05794807488645892,-0.1,0.0,1.0,282.0,874.0,1.0,0,424.0,1
942,942,-0.8044091816575233,-0.8,0.0,1.0,440.0,537.0,1.0,0,103.0,1
943,943,-0.004132428294124857,-0.0,1.0,0.0,495.0,577.0,1.0,1,1928.0,0
944,944,0.7768504984518297,0.8,0.0,0.0,406.0,671.0,0.0,1,193.0,1
945,945,-0.3212915614238675,-0.3,0.0,1.0,277.0,637.0,1.0,0,86.0,1
946,946,0.44094604668347415,0.4,0.0,0.0,448.0,835.0,0.0,1,507.0,1
947,947,-0.503184049643824,-0.5,1.0,0.0,371.0,647.0,0.0,0,232.0,1
948,948,0.6202890076262692,0.6,0.0,0.0,455.0,743.0,0.0,1,242.0,1
949,949,-0.04075371111034021,-0.0,1.0,0.0,437.0,505.0,0.0,0,2058.0,1
950,950,-0.723605509524298,-0.7,1.0,0.0,344.0,750.0,0.0,0,166.0,1
951,951,0.38188166466586015,0.4,0.0,0.0,359.0,931.0,0.0,1,500.0,1
952,952,-0.25982522331013236,-0.3,0.0,1.0,352.0,720.0,1.0,0,168.0,1
953,953,0.44613937499409395,0.4,0.0,0.0,340.0,905.0,0.0,1,295.0,1
954,954,-0.425091220492469,-0.4,0.0,1.0,265.0,836.0,1.0,0,249.0,1
955,955,0.05423297612197886,0.1,1.0,1.0,328.0,544.0,1.0,1,1218.0,1
956,956,-0.5410235474651932,-0.5,0.0,1.0,298.0,633.0,1.0,0,279.0,1
957,957,-0.14958515105223724,-0.1,0.0,1.0,291.0,771.0,1.0,0,458.0,1
958,958,-0.25176888184379465,-0.3,1.0,0.0,355.0,916.0,0.0,0,819.0,1
959,959,-0.12384925913194467,-0.1,0.0,1.0,333.0,586.0,1.0,0,511.0,1
960,960,-0.44599420389770067,-0.4,1.0,0.0,451.0,562.0,0.0,0,237.0,1
961,961,-0.6783673833052712,-0.7,1.0,0.0,287.0,709.0,0.0,0,254.0,1
962,962,-0.8130385726714691,-0.8,0.0,1.0,374.0,505.0,1.0,0,121.0,1
963,963,-0.6632505287658357,-0.7,0.0,1.0,283.0,628.0,1.0,0,159.0,1
964,964,0.7246338752589724,0.7,0.0,0.0,323.0,821.0,0.0,1,136.0,1
965,965,-0.8070525818756729,-0.8,0.0,1.0,360.0,992.0,1.0,0,208.0,1
966,966,0.8474839255677923,0.8,1.0,1.0,254.0,859.0,1.0,1,107.0,1
967,967,0.4713614326771357,0.5,0.0,0.0,479.0,741.0,0.0,1,230.0,1
968,968,-0.3254525897296413,-0.3,1.0,0.0,459.0,794.0,0.0,0,237.0,1
969,969,-0.24046387173719863,-0.2,1.0,0.0,439.0,585.0,0.0,0,426.0,1
970,970,0.8446535257460869,0.8,0.0,0.0,434.0,955.0,0.0,1,251.0,1
971,971,0.7754081676439105,0.8,0.0,0.0,380.0,538.0,0.0,1,212.0,1
972,972,-0.10424343737322495,-0.1,0.0,1.0,434.0,748.0,1.0,0,58.0,1
973,973,-0.10800886126845854,-0.1,0.0,1.0,358.0,683.0,1.0,0,1019.0,1
974,974,-0.6900483306446961,-0.7,0.0,1.0,414.0,845.0,1.0,0,291.0,1
975,975,0.4891012805400409,0.5,0.0,0.0,315.0,810.0,0.0,1,555.0,1
976,976,0.233761544436616,0.2,0.0,0.0,438.0,531.0,0.0,1,1011.0,1
977,977,0.3310675455261326,0.3,0.0,0.0,432.0,915.0,0.0,1,393.0,1
978,978,0.42981887111722894,0.4,0.0,0.0,463.0,712.0,0.0,1,215.0,1
979,979,0.5247789652354388,0.5,1.0,1.0,495.0,795.0,1.0,1,30.0,1
980,980,-0.2079861520793873,-0.2,0.0,1.0,329.0,667.0,1.0,0,274.0,1
981,981,-0.589925078186375,-0.6,0.0,1.0,397.0,556.0,1.0,0,237.0,1
982,982,-0.34533078358624203,-0.3,1.0,0.0,272.0,902.0,0.0,0,526.0,1
983,983,-0.5271914058854775,-0.5,1.0,0.0,259.0,506.0,0.0,0,195.0,1
984,984,-0.3636053598138491,-0.4,0.0,1.0,410.0,998.0,1.0,0,352.0,1
985,985,-0.24447508241320892,-0.2,0.0,1.0,396.0,842.0,1.0,0,1062.0,1
986,986,0.44198646349963233,0.4,0.0,0.0,499.0,965.0,0.0,1,226.0,1
987,987,-0.6552490878196155,-0.7,1.0,0.0,461.0,723.0,0.0,0,306.0,1
988,988,0.15370932479909583,0.2,0.0,0.0,364.0,630.0,0.0,1,1126.0,1
989,989,0.2929133892893597,0.3,0.0,0.0,443.0,512.0,0.0,1,475.0,1
990,990,-0.87012385201918,-0.9,0.0,1.0,445.0,708.0,1.0,0,97.0,1
991,991,0.09185564027649507,0.1,1.0,1.0,290.0,599.0,1.0,1,311.0,1
992,992,0.5203799634685183,0.5,1.0,1.0,427.0,903.0,1.0,1,410.0,1
993,993,-0.5764870212305448,-0.6,0.0,1.0,481.0,958.0,1.0,0,321.0,1
994,994,-0.7054850007231108,-0.7,0.0,1.0,317.0,983.0,1.0,0,310.0,1
995,995,-0.32890319631503884,-0.3,0.0,1.0,470.0,903.0,1.0,0,347.0,1
996,996,0.5248898443008064,0.5,1.0,1.0,438.0,591.0,1.0,1,391.0,1
997,997,0.5103658508057488,0.5,1.0,1.0,279.0,843.0,1.0,1,-22.0,1
998,998,-0.2318049943920052,-0.2,0.0,1.0,436.0,762.0,1.0,0,182.0,1
999,999,0.045863896908096446,0.0,1.0,1.0,481.0,919.0,1.0,1,-90.0,1
1000,1000,0.8517620605152331,0.9,1.0,1.0,351.0,609.0,1.0,1,100.0,1
1001,1001,-0.8257296946261247,-0.8,1.0,0.0,497.0,556.0,0.0,0,247.0,1
1002,1002,-0.2212009406385823,-0.2,1.0,0.0,310.0,631.0,0.0,0,409.0,1
1003,1003,-0.19795073803690366,-0.2,1.0,0.0,337.0,503.0,0.0,0,820.0,1
1004,1004,0.6653257837020475,0.7,0.0,0.0,312.0,882.0,0.0,1,176.0,1
1005,1005,0.14598543693205246,0.1,0.0,0.0,389.0,510.0,0.0,1,2101.0,1
1006,1006,0.12565589975678526,0.1,0.0,0.0,268.0,746.0,0.0,1,1236.0,1
1007,1007,-0.6279995739208175,-0.6,1.0,0.0,423.0,981.0,0.0,0,356.0,1
1008,1008,0.6595338235554754,0.7,1.0,1.0,480.0,805.0,1.0,1,205.0,1
1009,1009,-0.21119466197141956,-0.2,1.0,0.0,396.0,509.0,0.0,0,505.0,1
1010,1010,0.49782308583976,0.5,1.0,1.0,359.0,713.0,1.0,1,98.0,1
1011,1011,0.6690084340855812,0.7,0.0,0.0,473.0,992.0,0.0,1,155.0,1
1012,1012,0.11279850108712586,0.1,0.0,0.0,361.0,987.0,0.0,1,1242.0,1
1013,1013,0.3543242998045514,0.4,0.0,0.0,306.0,786.0,0.0,1,268.0,1
1014,1014,0.8546751066267456,0.9,1.0,1.0,426.0,657.0,1.0,1,417.0,1
1015,1015,-0.46203012729057996,-0.5,1.0,0.0,267.0,946.0,0.0,0,497.0,1
1016,1016,0.15040884295298007,0.2,0.0,0.0,271.0,647.0,0.0,1,1952.0,1
1017,1017,-0.6648738289577141,-0.7,1.0,0.0,481.0,520.0,0.0,0,219.0,1
1018,1018,-0.18417056903094708,-0.2,1.0,0.0,447.0,830.0,0.0,0,293.0,1
1019,1019,-0.6859702749707344,-0.7,1.0,0.0,462.0,854.0,0.0,0,214.0,1
1020,1020,0.1477711008850383,0.1,0.0,0.0,403.0,666.0,0.0,1,641.0,1
1021,1021,-0.6567595080913247,-0.7,1.0,0.0,312.0,956.0,0.0,0,262.0,1
1022,1022,-0.4527465122500728,-0.5,0.0,1.0,295.0,924.0,1.0,0,261.0,1
1023,1023,0.04989032586580244,0.0,1.0,1.0,322.0,529.0,1.0,1,1869.0,1
1024,1024,0.015236271454694417,0.0,0.0,0.0,300.0,622.0,1.0,0,2078.0,0
1025,1025,0.6797227093003625,0.7,0.0,0.0,328.0,812.0,0.0,1,180.0,1
1026,1026,-0.17211848491885118,-0.2,0.0,1.0,417.0,900.0,1.0,0,373.0,1
1027,1027,-0.03896367893014896,-0.0,0.0,1.0,279.0,705.0,1.0,0,2016.0,1
1028,1028,0.19800653480332187,0.2,1.0,1.0,420.0,713.0,1.0,1,607.0,1
1029,1029,-0.7175356145004006,-0.7,0.0,1.0,446.0,838.0,1.0,0,216.0,1
1030,1030,0.3399869560650538,0.3,0.0,0.0,481.0,596.0,0.0,1,523.0,1
1031,1031,-0.014347284331181265,-0.0,1.0,0.0,489.0,836.0,1.0,1,855.0,0
1032,1032,0.7337115574929086,0.7,0.0,0.0,373.0,901.0,1.0,0,-34.0,0
1033,1033,-0.42281847164245967,-0.4,0.0,1.0,380.0,553.0,1.0,0,397.0,1
1034,1034,-0.04156468920411971,-0.0,0.0,1.0,494.0,879.0,0.0,1,1627.0,0
1035,1035,-0.030128420866879835,-0.0,1.0,0.0,382.0,597.0,0.0,0,2021.0,1
1036,1036,0.7374091626502729,0.7,0.0,0.0,368.0,855.0,0.0,1,117.0,1
1037,1037,-0.32100076595285,-0.3,0.0,1.0,315.0,886.0,1.0,0,169.0,1
1038,1038,0.18496410327783008,0.2,0.0,0.0,277.0,792.0,0.0,1,571.0,1
1039,1039,0.24337166588823467,0.2,0.0,0.0,346.0,589.0,0.0,1,665.0,1
1040,1040,-0.8265437626464134,-0.8,0.0,1.0,331.0,703.0,1.0,0,116.0,1
1041,1041,-0.4474803274788797,-0.4,0.0,1.0,343.0,764.0,1.0,0,153.0,1
1042,1042,-0.7696282518586851,-0.8,0.0,1.0,346.0,898.0,1.0,0,66.0,1
1043,1043,0.21229866517879314,0.2,0.0,0.0,276.0,993.0,0.0,1,401.0,1
1044,1044,0.1939528405860812,0.2,1.0,1.0,438.0,765.0,1.0,1,227.0,1
1045,1045,-0.8127524368791165,-0.8,1.0,0.0,279.0,557.0,0.0,0,244.0,1
1046,1046,0.8222358657728165,0.8,0.0,0.0,327.0,540.0,0.0,1,243.0,1
1047,1047,0.35292226119121073,0.4,1.0,1.0,388.0,905.0,1.0,1,467.0,1
1048,1048,0.5516680807544293,0.6,0.0,0.0,480.0,989.0,0.0,1,221.0,1
1049,1049,-0.2992397523218022,-0.3,0.0,1.0,393.0,743.0,1.0,0,114.0,1
1050,1050,0.23189177230433822,0.2,1.0,1.0,300.0,745.0,1.0,1,705.0,1
1051,1051,0.17513762264449795,0.2,1.0,1.0,427.0,985.0,1.0,1,268.0,1
1052,1052,0.5255011053094075,0.5,1.0,1.0,457.0,636.0,1.0,1,107.0,1
1053,1053,-0.7335495250223927,-0.7,0.0,1.0,362.0,592.0,1.0,0,86.0,1
1054,1054,0.8856833682399693,0.9,1.0,1.0,279.0,840.0,1.0,1,201.0,1
1055,1055,-0.5713590978818563,-0.6,0.0,1.0,446.0,700.0,1.0,0,154.0,1
1056,1056,0.8432790639214663,0.8,0.0,0.0,431.0,692.0,0.0,1,237.0,1
1057,1057,0.039676818530334,0.0,0.0,0.0,447.0,938.0,0.0,1,1615.0,1
1058,1058,0.6390755483460479,0.6,0.0,0.0,497.0,872.0,0.0,1,211.0,1
1059,1059,-0.34465285586809047,-0.3,0.0,1.0,341.0,548.0,1.0,0,661.0,1
1060,1060,0.5665119174329561,0.6,0.0,0.0,427.0,698.0,0.0,1,175.0,1
1061,1061,-0.3586169701873373,-0.4,1.0,0.0,446.0,626.0,0.0,0,228.0,1
1062,1062,-0.6706316675540446,-0.7,1.0,0.0,488.0,980.0,0.0,0,102.0,1
1063,1063,-0.2126759187457693,-0.2,0.0,1.0,446.0,729.0,1.0,0,225.0,1
1064,1064,0.8876140620755607,0.9,0.0,0.0,376.0,555.0,0.0,1,129.0,1
1065,1065,-0.16008112620419968,-0.2,1.0,0.0,296.0,560.0,0.0,0,984.0,1
1066,1066,0.5122328223737059,0.5,0.0,0.0,323.0,621.0,0.0,1,376.0,1
1067,1067,-0.5391233372089426,-0.5,0.0,1.0,298.0,500.0,1.0,0,192.0,1
1068,1068,0.4051359683730239,0.4,1.0,1.0,475.0,998.0,1.0,1,157.0,1
1069,1069,-0.011050100680971564,-0.0,0.0,1.0,253.0,625.0,1.0,0,1232.0,1
1070,1070,0.5087348550970595,0.5,1.0,1.0,430.0,823.0,1.0,1,547.0,1
1071,1071,0.8678962195630672,0.9,0.0,0.0,368.0,980.0,0.0,1,162.0,1
1072,1072,-0.673787382034603,-0.7,1.0,0.0,489.0,937.0,0.0,0,304.0,1
1073,1073,0.009669176146259173,0.0,1.0,1.0,345.0,797.0,1.0,1,988.0,1
1074,1074,-0.265796267555221,-0.3,0.0,1.0,486.0,842.0,1.0,0,462.0,1
1075,1075,-0.37900901367631623,-0.4,1.0,0.0,443.0,860.0,0.0,0,287.0,1
1076,1076,-0.28039514010529676,-0.3,0.0,1.0,458.0,760.0,1.0,0,502.0,1
1077,1077,0.8770001918705338,0.9,0.0,0.0,491.0,803.0,0.0,1,136.0,1
1078,1078,0.5356516065733748,0.5,0.0,0.0,308.0,555.0,0.0,1,287.0,1
1079,1079,-0.6804208964155685,-0.7,1.0,0.0,275.0,933.0,0.0,0,92.0,1
1080,1080,-0.07119975064878092,-0.1,0.0,1.0,294.0,786.0,1.0,0,1060.0,1
1081,1081,0.14130207115973692,0.1,1.0,1.0,474.0,767.0,1.0,1,489.0,1
1082,1082,-0.3332045394233204,-0.3,1.0,0.0,356.0,531.0,0.0,0,593.0,1
1083,1083,-0.3547284207808339,-0.4,1.0,0.0,405.0,816.0,0.0,0,559.0,1
1084,1084,0.23334370781361968,0.2,0.0,0.0,428.0,528.0,0.0,1,1344.0,1
1085,1085,0.7233508100507163,0.7,1.0,1.0,328.0,826.0,1.0,1,136.0,1
1086,1086,0.158724645880976,0.2,1.0,1.0,257.0,942.0,1.0,1,891.0,1
1087,1087,-0.13822206201648435,-0.1,0.0,1.0,430.0,916.0,1.0,0,1154.0,1
1088,1088,0.8559943368021409,0.9,1.0,1.0,298.0,895.0,1.0,1,137.0,1
1089,1089,-0.8660335868865906,-0.9,0.0,1.0,405.0,546.0,1.0,0,149.0,1
1090,1090,0.0443523233108335,0.0,1.0,1.0,320.0,523.0,1.0,1,1347.0,1
1091,1091,0.012084487983144765,0.0,1.0,1.0,291.0,841.0,1.0,1,508.0,1
1092,1092,-0.856070748704061,-0.9,1.0,0.0,420.0,512.0,0.0,0,178.0,1
1093,1093,0.792488210430193,0.8,1.0,1.0,304.0,663.0,1.0,1,303.0,1
1094,1094,0.54861095189619,0.5,1.0,1.0,388.0,731.0,1.0,1,141.0,1
1095,1095,0.8422199121195036,0.8,1.0,1.0,492.0,991.0,1.0,1,187.0,1
1096,1096,-0.22398069749206784,-0.2,1.0,0.0,454.0,729.0,0.0,0,297.0,1
1097,1097,0.3535746837283814,0.4,0.0,0.0,278.0,943.0,0.0,1,299.0,1
1098,1098,0.8021302190187448,0.8,1.0,1.0,442.0,639.0,1.0,1,179.0,1
1099,1099,-0.3143895148209811,-0.3,0.0,1.0,257.0,800.0,1.0,0,403.0,1
1100,1100,0.20754034728591797,0.2,0.0,0.0,480.0,825.0,0.0,1,1065.0,1
1101,1101,-0.30014858944832823,-0.3,1.0,0.0,373.0,734.0,1.0,1,-7.0,0
1102,1102,-0.794028208875537,-0.8,0.0,1.0,279.0,574.0,1.0,0,157.0,1
1103,1103,-0.26100049386982604,-0.3,0.0,1.0,348.0,697.0,1.0,0,65.0,1
1104,1104,-0.6823542517439789,-0.7,1.0,0.0,454.0,513.0,0.0,0,153.0,1
1105,1105,-0.004043248585131942,-0.0,0.0,1.0,256.0,599.0,1.0,0,2145.0,1
1106,1106,0.21496569929007536,0.2,0.0,0.0,264.0,651.0,0.0,1,635.0,1
1107,1107,0.19712361003288825,0.2,0.0,0.0,321.0,808.0,0.0,1,761.0,1
1108,1108,0.544160710100461,0.5,1.0,1.0,440.0,565.0,1.0,1,185.0,1
1109,1109,0.3428256001259967,0.3,0.0,0.0,478.0,856.0,0.0,1,296.0,1
1110,1110,-0.6212616168276426,-0.6,0.0,1.0,451.0,885.0,1.0,0,104.0,1
1111,1111,0.4453324642705253,0.4,1.0,1.0,293.0,811.0,1.0,1,176.0,1
1112,1112,0.18232798449705812,0.2,0.0,0.0,386.0,570.0,0.0,1,524.0,1
1113,1113,0.6066158465834813,0.6,1.0,1.0,457.0,674.0,1.0,1,309.0,1
1114,1114,0.7492603088908313,0.7,0.0,0.0,283.0,939.0,0.0,1,208.0,1
1115,1115,0.4774472743986692,0.5,1.0,1.0,468.0,831.0,1.0,1,181.0,1
1116,1116,-0.26558071901259994,-0.3,1.0,0.0,455.0,863.0,0.0,0,382.0,1
1117,1117,-0.34337359900149533,-0.3,1.0,0.0,296.0,811.0,0.0,0,83.0,1
1118,1118,0.5637466692075798,0.6,1.0,1.0,360.0,865.0,1.0,1,485.0,1
1119,1119,-0.5140531123242276,-0.5,0.0,1.0,290.0,654.0,1.0,0,256.0,1
1120,1120,0.13603172109755024,0.1,1.0,1.0,465.0,508.0,1.0,1,687.0,1
1121,1121,0.8479937235316205,0.8,0.0,0.0,363.0,598.0,0.0,1,169.0,1
1122,1122,0.42391944925396985,0.4,1.0,1.0,452.0,533.0,1.0,1,465.0,1
1123,1123,-0.5552056192849262,-0.6,1.0,0.0,333.0,870.0,0.0,0,537.0,1
1124,1124,-0.29168042044450404,-0.3,0.0,1.0,382.0,845.0,1.0,0,413.0,1
1125,1125,0.5375945801590291,0.5,0.0,0.0,400.0,821.0,0.0,1,199.0,1
1126,1126,0.007109940398090209,0.0,0.0,0.0,252.0,627.0,0.0,1,2121.0,1
1127,1127,0.027941270720776012,0.0,1.0,1.0,308.0,854.0,1.0,1,668.0,1
1128,1128,-0.5012010189061293,-0.5,0.0,1.0,454.0,564.0,1.0,0,442.0,1
1129,1129,0.5569951277520678,0.6,1.0,1.0,457.0,859.0,1.0,1,134.0,1
1130,1130,-0.5327440959422898,-0.5,0.0,1.0,359.0,533.0,1.0,0,218.0,1
1131,1131,-0.3934867583128082,-0.4,1.0,0.0,461.0,730.0,0.0,0,389.0,1
1132,1132,-0.016040904682596557,-0.0,0.0,1.0,427.0,688.0,1.0,0,1145.0,1
1133,1133,-0.3910913967969565,-0.4,0.0,1.0,412.0,635.0,1.0,0,313.0,1
1134,1134,0.07403373994251827,0.1,0.0,0.0,405.0,961.0,1.0,0,1634.0,0
1135,1135,0.3327874448595035,0.3,1.0,1.0,352.0,980.0,1.0,1,98.0,1
1136,1136,-0.6569668781725299,-0.7,1.0,0.0,423.0,861.0,0.0,0,156.0,1
1137,1137,0.23676157506928386,0.2,1.0,1.0,497.0,508.0,1.0,1,775.0,1
1138,1138,0.2507257678820759,0.3,1.0,1.0,451.0,667.0,1.0,1,182.0,1
1139,1139,-0.19937688594628256,-0.2,0.0,1.0,452.0,847.0,1.0,0,621.0,1
1140,1140,0.4904967201137641,0.5,0.0,0.0,378.0,931.0,0.0,1,71.0,1
1141,1141,0.6805214691665803,0.7,0.0,0.0,377.0,721.0,0.0,1,42.0,1
1142,1142,-0.8194014435493419,-0.8,0.0,1.0,326.0,953.0,1.0,0,221.0,1
1143,1143,0.6512761490908513,0.7,1.0,1.0,275.0,863.0,1.0,1,162.0,1
1144,1144,0.447340667350956,0.4,0.0,0.0,370.0,981.0,0.0,1,299.0,1
1145,1145,-0.46552395098531507,-0.5,0.0,1.0,335.0,579.0,1.0,0,156.0,1
1146,1146,-0.29329562498672956,-0.3,1.0,0.0,376.0,782.0,0.0,0,332.0,1
1147,1147,0.010679027823590093,0.0,1.0,1.0,322.0,723.0,0.0,0,655.0,0
1148,1148,-0.46020168955113466,-0.5,0.0,1.0,327.0,668.0,1.0,0,95.0,1
1149,1149,0.20873616908145476,0.2,1.0,1.0,409.0,708.0,1.0,1,443.0,1
1150,1150,-0.32339511748199623,-0.3,1.0,0.0,255.0,837.0,0.0,0,308.0,1
1151,1151,-0.09100263468869163,-0.1,0.0,1.0,313.0,810.0,1.0,0,827.0,1
1152,1152,-0.14163068771531906,-0.1,0.0,1.0,464.0,729.0,1.0,0,427.0,1
1153,1153,0.8538054879092593,0.9,1.0,1.0,350.0,567.0,1.0,1,163.0,1
1154,1154,0.02509876217840834,0.0,0.0,0.0,339.0,937.0,0.0,1,1724.0,1
1155,1155,0.6328386588020728,0.6,0.0,0.0,330.0,862.0,0.0,1,168.0,1
1156,1156,-0.06743486402781906,-0.1,0.0,1.0,364.0,906.0,1.0,0,1730.0,1
1157,1157,-0.40961583316508154,-0.4,1.0,0.0,355.0,901.0,0.0,0,444.0,1
1158,1158,-0.42668880525799646,-0.4,1.0,0.0,262.0,868.0,0.0,0,510.0,1
1159,1159,0.4031369934822703,0.4,1.0,1.0,390.0,909.0,1.0,1,81.0,1
1160,1160,0.4825475043297388,0.5,1.0,1.0,313.0,520.0,1.0,1,617.0,1
1161,1161,-0.6119578763786387,-0.6,0.0,1.0,326.0,587.0,1.0,0,227.0,1
1162,1162,0.7058506503848919,0.7,1.0,1.0,393.0,647.0,1.0,1,550.0,1
1163,1163,0.7540219830137863,0.8,0.0,0.0,272.0,563.0,0.0,1,225.0,1
1164,1164,0.11003341538484979,0.1,0.0,0.0,468.0,734.0,0.0,1,1798.0,1
1165,1165,0.05500555450084943,0.1,1.0,1.0,367.0,562.0,1.0,1,631.0,1
1166,1166,-0.5495239692936417,-0.5,1.0,0.0,277.0,533.0,0.0,0,410.0,1
1167,1167,-0.6944499090062274,-0.7,1.0,0.0,481.0,561.0,0.0,0,178.0,1
1168,1168,0.7942096939925517,0.8,0.0,0.0,399.0,902.0,0.0,1,109.0,1
1169,1169,0.8190653902250916,0.8,1.0,1.0,360.0,527.0,1.0,1,213.0,1
1170,1170,-0.3101623117492498,-0.3,1.0,0.0,258.0,862.0,0.0,0,360.0,1
1171,1171,-0.326487032511696,-0.3,1.0,0.0,499.0,506.0,0.0,0,435.0,1
1172,1172,0.8658354066431463,0.9,0.0,0.0,461.0,542.0,0.0,1,217.0,1
1173,1173,0.5315338506064243,0.5,0.0,0.0,276.0,689.0,0.0,1,315.0,1
1174,1174,-0.5307394464480892,-0.5,0.0,1.0,363.0,840.0,1.0,0,197.0,1
1175,1175,-0.7788982852202376,-0.8,0.0,1.0,447.0,617.0,1.0,0,296.0,1
1176,1176,-0.45460924230218114,-0.5,0.0,1.0,381.0,548.0,1.0,0,331.0,1
1177,1177,-0.3896942266672664,-0.4,1.0,0.0,421.0,863.0,0.0,0,366.0,1
1178,1178,-0.41368544849774685,-0.4,0.0,1.0,293.0,890.0,1.0,0,557.0,1
1179,1179,-0.8901385410479334,-0.9,0.0,1.0,257.0,828.0,1.0,0,85.0,1
1180,1180,0.12931189115715214,0.1,1.0,1.0,365.0,922.0,1.0,1,433.0,1
1181,1181,-0.0085219034064421,-0.0,1.0,0.0,334.0,741.0,1.0,1,1155.0,0
1182,1182,0.13025430646706948,0.1,1.0,1.0,495.0,630.0,1.0,1,385.0,1
1183,1183,0.013866888085757867,0.0,0.0,0.0,435.0,534.0,1.0,0,1291.0,0
1184,1184,-0.5189415190908913,-0.5,0.0,1.0,405.0,611.0,1.0,0,314.0,1
1185,1185,0.056832277612389515,0.1,1.0,1.0,495.0,913.0,1.0,1,1032.0,1
1186,1186,0.09611427935214223,0.1,1.0,1.0,297.0,972.0,1.0,1,751.0,1
1187,1187,-0.2094047025639092,-0.2,1.0,0.0,395.0,940.0,0.0,0,365.0,1
1188,1188,0.6237459595392113,0.6,0.0,0.0,412.0,619.0,0.0,1,409.0,1
1189,1189,0.7584951952043478,0.8,0.0,0.0,438.0,705.0,0.0,1,217.0,1
1190,1190,0.8813126633448619,0.9,1.0,1.0,338.0,740.0,1.0,1,292.0,1
1191,1191,-0.2387789229323487,-0.2,0.0,1.0,430.0,759.0,1.0,0,241.0,1
1192,1192,-0.8307791051835338,-0.8,1.0,0.0,326.0,659.0,0.0,0,305.0,1
1193,1193,0.4081632165040171,0.4,1.0,1.0,280.0,542.0,1.0,1,328.0,1
1194,1194,0.7561083942212569,0.8,1.0,1.0,438.0,598.0,1.0,1,244.0,1
1195,1195,0.8152508315387136,0.8,1.0,1.0,467.0,500.0,1.0,1,283.0,1
1196,1196,0.6455725051868465,0.6,1.0,1.0,482.0,837.0,1.0,1,151.0,1
1197,1197,0.8467872128631083,0.8,1.0,1.0,362.0,961.0,1.0,1,257.0,1
1198,1198,0.6185682429519798,0.6,1.0,1.0,466.0,932.0,1.0,1,302.0,1
1199,1199,-0.18941813128403318,-0.2,1.0,0.0,431.0,996.0,1.0,1,-367.0,0
1200,1200,-0.39997283889446744,-0.4,1.0,0.0,329.0,739.0,0.0,0,432.0,1
1201,1201,0.2409041556194974,0.2,0.0,0.0,302.0,785.0,0.0,1,243.0,1
1202,1202,0.561439068248052,0.6,0.0,0.0,287.0,832.0,0.0,1,241.0,1
1203,1203,-0.6717348593535843,-0.7,0.0,1.0,342.0,773.0,1.0,0,105.0,1
1204,1204,-0.11148223858198048,-0.1,1.0,0.0,336.0,697.0,0.0,0,1477.0,1
1205,1205,0.5781964097550351,0.6,1.0,1.0,350.0,952.0,1.0,1,198.0,1
1206,1206,0.6849546124514151,0.7,1.0,1.0,400.0,841.0,1.0,1,389.0,1
1207,1207,-0.560346168859548,-0.6,1.0,0.0,456.0,998.0,0.0,0,336.0,1
1208,1208,-0.21995867831716098,-0.2,0.0,1.0,329.0,683.0,1.0,0,888.0,1
1209,1209,-0.8910395850613194,-0.9,0.0,1.0,490.0,504.0,1.0,0,86.0,1
1210,1210,0.016844227405064194,0.0,1.0,1.0,438.0,939.0,1.0,1,143.0,1
1211,1211,-0.723325085131891,-0.7,1.0,0.0,451.0,612.0,0.0,0,137.0,1
1212,1212,-0.5460906203689206,-0.5,0.0,1.0,460.0,801.0,1.0,0,279.0,1
1213,1213,-0.5658229234747916,-0.6,1.0,0.0,403.0,934.0,0.0,0,273.0,1
1214,1214,0.6125796679672652,0.6,1.0,1.0,393.0,652.0,1.0,1,165.0,1
1215,1215,0.8278434065053751,0.8,1.0,1.0,387.0,800.0,1.0,1,73.0,1
1216,1216,-0.6486804649007842,-0.6,1.0,0.0,263.0,605.0,0.0,0,112.0,1
1217,1217,0.4053515030788063,0.4,0.0,0.0,489.0,542.0,0.0,1,239.0,1
1218,1218,-0.7139032811496079,-0.7,0.0,1.0,266.0,727.0,1.0,0,47.0,1
1219,1219,0.2178779357443391,0.2,0.0,0.0,399.0,741.0,0.0,1,250.0,1
1220,1220,0.4717087741950051,0.5,0.0,0.0,275.0,787.0,0.0,1,258.0,1
1221,1221,-0.6952466902470774,-0.7,1.0,0.0,320.0,650.0,0.0,0,170.0,1
1222,1222,-0.6983017955949915,-0.7,0.0,1.0,254.0,653.0,1.0,0,213.0,1
1223,1223,-0.30827224799687336,-0.3,0.0,1.0,432.0,539.0,1.0,0,559.0,1
1224,1224,0.0982557967564508,0.1,1.0,1.0,287.0,800.0,1.0,1,1033.0,1
1225,1225,-0.06353104098531004,-0.1,0.0,1.0,424.0,569.0,1.0,0,1047.0,1
1226,1226,-0.8340714294711722,-0.8,0.0,1.0,300.0,672.0,1.0,0,78.0,1
1227,1227,0.12382713539586343,0.1,1.0,1.0,385.0,959.0,1.0,1,1656.0,1
1228,1228,-0.11305806887902192,-0.1,1.0,0.0,461.0,898.0,0.0,0,1641.0,1
1229,1229,0.8317387799456225,0.8,0.0,0.0,306.0,971.0,0.0,1,213.0,1
1230,1230,-0.8698234460052011,-0.9,0.0,1.0,288.0,754.0,1.0,0,148.0,1
1231,1231,-0.5456038498997546,-0.5,1.0,0.0,451.0,679.0,0.0,0,300.0,1
1232,1232,0.7278048424417759,0.7,1.0,1.0,325.0,837.0,1.0,1,8.0,1
1233,1233,-0.38915520319589936,-0.4,0.0,1.0,349.0,758.0,1.0,0,233.0,1
1234,1234,0.8817113116663172,0.9,0.0,0.0,286.0,950.0,0.0,1,104.0,1
1235,1235,0.42217133004397367,0.4,1.0,1.0,261.0,972.0,1.0,1,-263.0,1
1236,1236,-0.7363014566456944,-0.7,0.0,1.0,402.0,594.0,1.0,0,264.0,1
1237,1237,0.041643276359026093,0.0,1.0,1.0,481.0,572.0,1.0,1,857.0,1
1238,1238,-0.04542706374815464,-0.0,0.0,1.0,405.0,806.0,1.0,0,999.0,1
1239,1239,0.2322560626129958,0.2,0.0,0.0,278.0,616.0,0.0,1,356.0,1
1240,1240,0.7105509358103085,0.7,0.0,0.0,484.0,989.0,1.0,0,-23.0,0
1241,1241,-0.4025057914447018,-0.4,0.0,1.0,408.0,711.0,1.0,0,301.0,1
1242,1242,-0.7973216152712261,-0.8,1.0,0.0,496.0,569.0,0.0,0,165.0,1
1243,1243,0.5480334523117804,0.5,1.0,1.0,310.0,978.0,1.0,1,122.0,1
1244,1244,0.07194948311789162,0.1,1.0,1.0,442.0,811.0,1.0,1,657.0,1
1245,1245,0.10742534393520808,0.1,1.0,1.0,349.0,589.0,1.0,1,292.0,1
1246,1246,-0.7235285310070769,-0.7,1.0,0.0,456.0,756.0,0.0,0,268.0,1
1247,1247,-0.137345447873217,-0.1,1.0,0.0,443.0,825.0,0.0,0,482.0,1
1248,1248,0.4941541527380807,0.5,1.0,1.0,267.0,722.0,1.0,1,151.0,1
1249,1249,-0.01582622724963445,-0.0,1.0,0.0,349.0,515.0,1.0,1,2026.0,0
1250,1250,0.7845876279276124,0.8,0.0,0.0,480.0,933.0,0.0,1,227.0,1
1251,1251,0.4060930798937187,0.4,0.0,0.0,273.0,800.0,0.0,1,237.0,1
1252,1252,0.03711877926274654,0.0,1.0,1.0,328.0,936.0,1.0,1,666.0,1
1253,1253,0.5205375669859543,0.5,0.0,0.0,428.0,636.0,0.0,1,296.0,1
1254,1254,0.0713254261472861,0.1,1.0,1.0,363.0,722.0,1.0,1,965.0,1
1255,1255,-0.22237428530541548,-0.2,0.0,1.0,475.0,599.0,1.0,0,516.0,1
1256,1256,-0.22961643176145907,-0.2,0.0,1.0,412.0,578.0,1.0,0,230.0,1
1257,1257,-0.20124572920744788,-0.2,0.0,1.0,459.0,762.0,1.0,0,439.0,1
1258,1258,-0.5809933767863635,-0.6,0.0,1.0,400.0,642.0,1.0,0,258.0,1
1259,1259,-0.7121832268555106,-0.7,1.0,0.0,255.0,873.0,0.0,0,212.0,1
1260,1260,0.2040141242078054,0.2,0.0,0.0,309.0,754.0,0.0,1,477.0,1
1261,1261,-0.6142891352663626,-0.6,0.0,1.0,458.0,624.0,1.0,0,268.0,1
1262,1262,-0.7002291710583621,-0.7,1.0,0.0,433.0,900.0,0.0,0,127.0,1
1263,1263,0.3931045911902752,0.4,1.0,1.0,356.0,811.0,1.0,1,163.0,1
1264,1264,0.764400821183964,0.8,0.0,0.0,367.0,978.0,0.0,1,185.0,1
1265,1265,-0.3925239010857867,-0.4,1.0,0.0,268.0,772.0,0.0,0,400.0,1
1266,1266,0.7240443952222314,0.7,1.0,1.0,292.0,504.0,1.0,1,194.0,1
1267,1267,0.8737363994377964,0.9,0.0,0.0,444.0,913.0,0.0,1,113.0,1
1268,1268,0.4821810421150611,0.5,1.0,1.0,345.0,511.0,1.0,1,304.0,1
1269,1269,-0.3085507904663236,-0.3,0.0,1.0,420.0,794.0,1.0,0,386.0,1
1270,1270,-0.3122955849195541,-0.3,0.0,1.0,327.0,504.0,1.0,0,439.0,1
1271,1271,0.22174151017688393,0.2,0.0,0.0,318.0,830.0,0.0,1,342.0,1
1272,1272,0.673715885668147,0.7,1.0,1.0,435.0,752.0,1.0,1,193.0,1
1273,1273,-0.33781064314856624,-0.3,0.0,1.0,369.0,940.0,1.0,0,321.0,1
1274,1274,0.352755162986489,0.4,0.0,0.0,340.0,813.0,0.0,1,227.0,1
1275,1275,-0.2951412200978718,-0.3,1.0,0.0,294.0,672.0,0.0,0,444.0,1
1276,1276,0.852769473989066,0.9,1.0,1.0,372.0,819.0,1.0,1,279.0,1
1277,1277,-0.3271721885487503,-0.3,0.0,1.0,434.0,571.0,1.0,0,225.0,1
1278,1278,-0.6014844362361704,-0.6,0.0,1.0,388.0,733.0,1.0,0,109.0,1
1279,1279,0.25164908521929685,0.3,1.0,1.0,493.0,957.0,1.0,1,80.0,1
1280,1280,0.6156783885333011,0.6,0.0,0.0,451.0,638.0,0.0,1,281.0,1
1281,1281,0.2418535237749121,0.2,0.0,0.0,311.0,570.0,0.0,1,1019.0,1
1282,1282,-0.6840563413688274,-0.7,0.0,1.0,288.0,927.0,1.0,0,85.0,1
1283,1283,-0.005707704047359652,-0.0,0.0,1.0,464.0,954.0,1.0,0,1582.0,1
1284,1284,-0.6917871963502767,-0.7,0.0,1.0,276.0,889.0,1.0,0,265.0,1
1285,1285,0.8954375040545232,0.9,1.0,1.0,426.0,811.0,1.0,1,23.0,1
1286,1286,-0.4076299191436642,-0.4,0.0,1.0,368.0,985.0,1.0,0,297.0,1
1287,1287,-0.6896919447176538,-0.7,1.0,0.0,376.0,538.0,0.0,0,316.0,1
1288,1288,0.13546316021870142,0.1,1.0,1.0,313.0,816.0,1.0,1,161.0,1
1289,1289,0.31685581481161706,0.3,1.0,1.0,346.0,723.0,1.0,1,281.0,1
1290,1290,-0.5226182617838925,-0.5,0.0,1.0,401.0,804.0,1.0,0,135.0,1
1291,1291,0.07936616214469683,0.1,1.0,1.0,328.0,852.0,1.0,1,1310.0,1
1292,1292,0.6867411089243122,0.7,0.0,0.0,311.0,835.0,0.0,1,64.0,1
1293,1293,0.4838857057755027,0.5,0.0,0.0,342.0,931.0,0.0,1,307.0,1
1294,1294,0.6560521069331203,0.7,1.0,1.0,483.0,874.0,1.0,1,163.0,1
1295,1295,0.706580008647678,0.7,1.0,1.0,305.0,838.0,1.0,1,137.0,1
1296,1296,-0.7332137649648853,-0.7,0.0,1.0,278.0,945.0,1.0,0,57.0,1
1297,1297,-0.8707307492380312,-0.9,1.0,0.0,460.0,679.0,0.0,0,211.0,1
1298,1298,0.24977200612796369,0.2,1.0,1.0,457.0,867.0,1.0,1,306.0,1
1299,1299,0.18273314751580083,0.2,0.0,0.0,273.0,888.0,0.0,1,839.0,1
1300,1300,0.3125759118131647,0.3,1.0,1.0,413.0,894.0,1.0,1,373.0,1
1301,1301,-0.7123358125686365,-0.7,1.0,0.0,294.0,860.0,0.0,0,266.0,1
1302,1302,-0.30478480388347273,-0.3,0.0,1.0,436.0,828.0,1.0,0,336.0,1
1303,1303,-0.16594767761435225,-0.2,1.0,0.0,389.0,915.0,0.0,0,556.0,1
1304,1304,0.5687995328714671,0.6,0.0,0.0,431.0,964.0,0.0,1,245.0,1
1305,1305,-0.6279573945931172,-0.6,0.0,1.0,486.0,589.0,1.0,0,115.0,1
1306,1306,-0.5031029135344958,-0.5,0.0,1.0,439.0,585.0,1.0,0,196.0,1
1307,1307,0.23720892224491175,0.2,0.0,0.0,397.0,900.0,0.0,1,383.0,1
1308,1308,-0.28147595911504786,-0.3,1.0,0.0,349.0,636.0,0.0,0,725.0,1
1309,1309,0.4137855098369517,0.4,1.0,1.0,382.0,793.0,1.0,1,215.0,1
1310,1310,0.7529937421021954,0.8,1.0,1.0,465.0,538.0,1.0,1,167.0,1
1311,1311,0.24980119604713036,0.2,1.0,1.0,340.0,552.0,1.0,1,418.0,1
1312,1312,0.2809431935699441,0.3,1.0,1.0,445.0,675.0,1.0,1,620.0,1
1313,1313,-0.39559916975045506,-0.4,0.0,1.0,285.0,947.0,1.0,0,278.0,1
1314,1314,-0.1368555828687228,-0.1,0.0,1.0,417.0,637.0,1.0,0,1696.0,1
1315,1315,0.8001207775253295,0.8,0.0,0.0,381.0,533.0,0.0,1,206.0,1
1316,1316,-0.39387016698034494,-0.4,1.0,0.0,351.0,978.0,0.0,0,181.0,1
1317,1317,-0.30639013938483206,-0.3,0.0,1.0,399.0,850.0,1.0,0,201.0,1
1318,1318,-0.2710590454718099,-0.3,0.0,1.0,282.0,710.0,1.0,0,1018.0,1
1319,1319,0.8450276826908344,0.8,0.0,0.0,427.0,707.0,0.0,1,226.0,1
1320,1320,-0.019116678754655836,-0.0,0.0,1.0,261.0,923.0,1.0,0,696.0,1
1321,1321,-0.05830194628647123,-0.1,0.0,1.0,375.0,886.0,1.0,0,1049.0,1
1322,1322,0.5608087751648733,0.6,0.0,0.0,365.0,975.0,0.0,1,190.0,1
1323,1323,0.4745471098535977,0.5,0.0,0.0,462.0,635.0,0.0,1,263.0,1
1324,1324,-0.6285660693972845,-0.6,1.0,0.0,401.0,975.0,0.0,0,204.0,1
1325,1325,-0.6987575828475522,-0.7,1.0,0.0,404.0,882.0,0.0,0,264.0,1
1326,1326,-0.34304767894371946,-0.3,1.0,0.0,337.0,568.0,0.0,0,305.0,1
1327,1327,0.3629764903918479,0.4,0.0,0.0,342.0,899.0,0.0,1,199.0,1
1328,1328,-0.2590853769058332,-0.3,1.0,0.0,493.0,957.0,0.0,0,710.0,1
1329,1329,0.4547752820582073,0.5,1.0,1.0,448.0,684.0,1.0,1,278.0,1
1330,1330,0.4162183221439163,0.4,1.0,1.0,315.0,566.0,1.0,1,169.0,1
1331,1331,-0.2123148211527155,-0.2,0.0,1.0,475.0,939.0,1.0,0,256.0,1
1332,1332,-0.5541260760465156,-0.6,0.0,1.0,373.0,700.0,1.0,0,187.0,1
1333,1333,-0.5407735871434174,-0.5,0.0,1.0,277.0,629.0,1.0,0,94.0,1
1334,1334,-0.8041460573029972,-0.8,1.0,0.0,450.0,523.0,0.0,0,57.0,1
1335,1335,-0.01718941965918086,-0.0,0.0,1.0,436.0,600.0,1.0,0,1414.0,1
1336,1336,-0.07911786658501907,-0.1,1.0,0.0,312.0,953.0,1.0,1,25.0,0
1337,1337,-0.2635923027985906,-0.3,1.0,0.0,484.0,783.0,0.0,0,773.0,1
1338,1338,-0.44287720868432034,-0.4,0.0,1.0,309.0,694.0,1.0,0,277.0,1
1339,1339,-0.7358078508489418,-0.7,0.0,1.0,323.0,702.0,1.0,0,475.0,1
1340,1340,-0.25682421633781116,-0.3,0.0,1.0,440.0,760.0,1.0,0,640.0,1
1341,1341,-0.6316387108134758,-0.6,1.0,0.0,489.0,988.0,0.0,0,93.0,1
1342,1342,0.06707264113815892,0.1,1.0,1.0,437.0,916.0,1.0,1,537.0,1
1343,1343,0.06895095997671763,0.1,1.0,1.0,340.0,815.0,1.0,1,155.0,1
1344,1344,-0.7659593415176289,-0.8,0.0,1.0,442.0,694.0,1.0,0,54.0,1
1345,1345,0.4894555388756897,0.5,1.0,1.0,415.0,564.0,1.0,1,201.0,1
1346,1346,0.3274011396652109,0.3,1.0,1.0,283.0,759.0,1.0,1,248.0,1
1347,1347,-0.7838946433543702,-0.8,1.0,0.0,260.0,745.0,0.0,0,165.0,1
1348,1348,-0.6391749772580714,-0.6,0.0,1.0,432.0,706.0,1.0,0,202.0,1
1349,1349,0.31262837246520736,0.3,0.0,0.0,388.0,771.0,0.0,1,431.0,1
1350,1350,-0.776391130321732,-0.8,1.0,0.0,340.0,754.0,0.0,0,256.0,1
1351,1351,-0.02803209112077054,-0.0,1.0,0.0,294.0,659.0,0.0,0,1197.0,1
1352,1352,-0.6828945810685456,-0.7,0.0,1.0,350.0,529.0,1.0,0,81.0,1
1353,1353,-0.014110494965322018,-0.0,0.0,1.0,375.0,567.0,1.0,0,2058.0,1
1354,1354,-0.32726286743050825,-0.3,1.0,0.0,466.0,802.0,0.0,0,212.0,1
1355,1355,0.14238663022445353,0.1,0.0,0.0,314.0,877.0,0.0,1,1559.0,1
1356,1356,-0.36260131463520284,-0.4,1.0,0.0,341.0,788.0,0.0,0,381.0,1
1357,1357,-0.6242419765607023,-0.6,0.0,1.0,308.0,668.0,1.0,0,284.0,1
1358,1358,-0.018104683849095027,-0.0,0.0,1.0,416.0,714.0,1.0,0,1870.0,1
1359,1359,0.1378617314570162,0.1,0.0,0.0,274.0,518.0,0.0,1,1028.0,1
1360,1360,0.6826872883554801,0.7,1.0,1.0,325.0,749.0,1.0,1,416.0,1
1361,1361,-0.4525570720114042,-0.5,1.0,0.0,479.0,824.0,0.0,0,247.0,1
1362,1362,0.884622025905809,0.9,1.0,1.0,478.0,777.0,1.0,1,225.0,1
1363,1363,0.19107041691739213,0.2,1.0,1.0,448.0,950.0,1.0,1,382.0,1
1364,1364,0.31907751551507235,0.3,1.0,1.0,331.0,583.0,1.0,1,1026.0,1
1365,1365,-0.49039981490905754,-0.5,1.0,0.0,343.0,949.0,0.0,0,278.0,1
1366,1366,0.210255642009891,0.2,1.0,1.0,397.0,801.0,1.0,1,402.0,1
1367,1367,0.88296511134004,0.9,1.0,1.0,348.0,602.0,1.0,1,190.0,1
1368,1368,0.7706036430945166,0.8,1.0,1.0,250.0,717.0,1.0,1,143.0,1
1369,1369,0.7145240834732761,0.7,1.0,1.0,375.0,923.0,1.0,1,152.0,1
1370,1370,-0.3251153332714076,-0.3,0.0,1.0,476.0,855.0,1.0,0,359.0,1
1371,1371,-0.5171590898437797,-0.5,1.0,0.0,359.0,708.0,0.0,0,363.0,1
1372,1372,-0.17653392354916697,-0.2,0.0,1.0,257.0,891.0,1.0,0,272.0,1
1373,1373,-0.46077537791534107,-0.5,1.0,0.0,258.0,641.0,0.0,0,261.0,1
1374,1374,-0.8739569049967466,-0.9,1.0,0.0,286.0,788.0,0.0,0,186.0,1
1375,1375,0.8372567654027333,0.8,1.0,1.0,492.0,690.0,1.0,1,58.0,1
1376,1376,0.7534129702615845,0.8,0.0,0.0,285.0,685.0,0.0,1,240.0,1
1377,1377,0.34509544383912905,0.3,1.0,1.0,295.0,910.0,1.0,1,195.0,1
1378,1378,-0.573765453176325,-0.6,1.0,0.0,319.0,721.0,0.0,0,140.0,1
1379,1379,0.37528528315266596,0.4,1.0,1.0,379.0,698.0,1.0,1,113.0,1
1380,1380,0.4624968842707792,0.5,1.0,1.0,481.0,601.0,1.0,1,98.0,1
1381,1381,-0.1198306931193931,-0.1,1.0,0.0,308.0,766.0,0.0,0,316.0,1
1382,1382,0.596031847331192,0.6,1.0,1.0,275.0,675.0,1.0,1,160.0,1
1383,1383,0.5638961182248384,0.6,1.0,1.0,267.0,504.0,1.0,1,359.0,1
1384,1384,-0.4483447611226445,-0.4,1.0,0.0,414.0,559.0,0.0,0,317.0,1
1385,1385,0.5095435756161201,0.5,1.0,1.0,320.0,591.0,1.0,1,259.0,1
1386,1386,-0.09306102079156542,-0.1,0.0,1.0,318.0,611.0,1.0,0,851.0,1
1387,1387,-0.38889988827764,-0.4,1.0,0.0,399.0,505.0,0.0,0,686.0,1
1388,1388,0.33757061454652415,0.3,0.0,0.0,257.0,936.0,0.0,1,497.0,1
1389,1389,-0.22209565213442317,-0.2,0.0,1.0,286.0,984.0,1.0,0,320.0,1
1390,1390,0.2493816409733024,0.2,1.0,1.0,335.0,757.0,1.0,1,158.0,1
1391,1391,-0.47737170958789693,-0.5,1.0,0.0,294.0,769.0,0.0,0,237.0,1
1392,1392,0.26783059915420726,0.3,1.0,1.0,264.0,876.0,1.0,1,470.0,1
1393,1393,-0.5815361948329851,-0.6,1.0,0.0,359.0,942.0,0.0,0,-11.0,1
1394,1394,0.35424163501910366,0.4,1.0,1.0,408.0,924.0,1.0,1,338.0,1
1395,1395,0.6206643193787676,0.6,0.0,0.0,253.0,770.0,0.0,1,267.0,1
1396,1396,0.6381750020720319,0.6,1.0,1.0,378.0,531.0,1.0,1,301.0,1
1397,1397,0.40651038433323416,0.4,0.0,0.0,459.0,854.0,0.0,1,297.0,1
1398,1398,0.27184231031184225,0.3,1.0,1.0,464.0,697.0,1.0,1,299.0,1
1399,1399,0.5592919323812041,0.6,0.0,0.0,477.0,685.0,0.0,1,358.0,1
1400,1400,-0.2643062849060095,-0.3,0.0,1.0,328.0,732.0,1.0,0,190.0,1
1401,1401,-0.6352419385881651,-0.6,0.0,1.0,389.0,568.0,1.0,0,113.0,1
1402,1402,-0.5500135696922193,-0.6,1.0,0.0,419.0,503.0,0.0,0,298.0,1
1403,1403,-0.47000962001602853,-0.5,0.0,1.0,357.0,591.0,1.0,0,212.0,1
1404,1404,-0.14932767304826777,-0.1,1.0,0.0,438.0,955.0,0.0,0,537.0,1
1405,1405,-0.01907199519277525,-0.0,0.0,1.0,454.0,730.0,1.0,0,426.0,1
1406,1406,-0.48368388742345575,-0.5,1.0,0.0,442.0,720.0,0.0,0,218.0,1
1407,1407,0.5956152056561762,0.6,0.0,0.0,381.0,865.0,0.0,1,224.0,1
1408,1408,-0.4662718977487548,-0.5,1.0,0.0,411.0,717.0,0.0,0,232.0,1
1409,1409,0.1151761405042181,0.1,0.0,0.0,353.0,530.0,0.0,1,547.0,1
1410,1410,0.19742569043167213,0.2,0.0,0.0,368.0,675.0,0.0,1,467.0,1
1411,1411,0.5544124028836336,0.6,1.0,1.0,291.0,658.0,1.0,1,121.0,1
1412,1412,-0.03767252837161861,-0.0,1.0,0.0,294.0,862.0,1.0,1,874.0,0
1413,1413,-0.1918428867159725,-0.2,0.0,1.0,459.0,830.0,1.0,0,391.0,1
1414,1414,0.36773957407472324,0.4,0.0,0.0,397.0,605.0,0.0,1,248.0,1
1415,1415,-0.49152130492482504,-0.5,0.0,1.0,458.0,584.0,1.0,0,308.0,1
1416,1416,-0.7454619941049799,-0.7,1.0,0.0,355.0,869.0,0.0,0,316.0,1
1417,1417,-0.14994771632885517,-0.1,1.0,0.0,307.0,747.0,0.0,0,1336.0,1
1418,1418,0.6801282047420124,0.7,1.0,1.0,464.0,807.0,1.0,1,79.0,1
1419,1419,0.7258768542572346,0.7,1.0,1.0,497.0,873.0,1.0,1,130.0,1
1420,1420,0.3890143203734727,0.4,1.0,1.0,327.0,781.0,1.0,1,112.0,1
1421,1421,0.6384377630534727,0.6,0.0,0.0,261.0,921.0,0.0,1,158.0,1
1422,1422,0.6635617600093641,0.7,1.0,1.0,258.0,981.0,1.0,1,191.0,1
1423,1423,0.2877442622896885,0.3,1.0,1.0,424.0,620.0,1.0,1,536.0,1
1424,1424,0.7834775547296603,0.8,1.0,1.0,403.0,668.0,1.0,1,89.0,1
1425,1425,0.8063877947978303,0.8,0.0,0.0,351.0,665.0,0.0,1,204.0,1
1426,1426,0.6950924436993077,0.7,1.0,1.0,460.0,791.0,1.0,1,119.0,1
1427,1427,-0.5003509270016484,-0.5,1.0,0.0,441.0,933.0,0.0,0,336.0,1
1428,1428,-0.5082713058097208,-0.5,0.0,1.0,259.0,511.0,1.0,0,150.0,1
1429,1429,0.8653740172329557,0.9,1.0,1.0,381.0,820.0,1.0,1,129.0,1
1430,1430,-0.7594335299274673,-0.8,1.0,0.0,473.0,707.0,0.0,0,100.0,1
1431,1431,0.41532417491722706,0.4,0.0,0.0,409.0,927.0,0.0,1,394.0,1
1432,1432,-0.5583943817253363,-0.6,0.0,1.0,272.0,949.0,1.0,0,179.0,1
1433,1433,0.7286419105828866,0.7,0.0,0.0,261.0,643.0,0.0,1,216.0,1
1434,1434,-0.40852046898291955,-0.4,0.0,1.0,293.0,927.0,1.0,0,370.0,1
1435,1435,0.37074955634498663,0.4,1.0,1.0,291.0,924.0,1.0,1,85.0,1
1436,1436,0.5960953205362688,0.6,1.0,1.0,429.0,519.0,1.0,1,142.0,1
1437,1437,0.23314409047054097,0.2,1.0,1.0,262.0,846.0,1.0,1,102.0,1
1438,1438,0.23611324571024384,0.2,0.0,0.0,291.0,752.0,0.0,1,517.0,1
1439,1439,0.6004721572857209,0.6,0.0,0.0,280.0,515.0,0.0,1,275.0,1
1440,1440,-0.30684101497249583,-0.3,1.0,0.0,333.0,590.0,0.0,0,287.0,1
1441,1441,-0.7081557001037597,-0.7,0.0,1.0,389.0,731.0,1.0,0,60.0,1
1442,1442,-0.23668875091699026,-0.2,1.0,0.0,463.0,646.0,0.0,0,741.0,1
1443,1443,-0.2451837097801398,-0.2,1.0,0.0,308.0,977.0,0.0,0,175.0,1
1444,1444,0.49063025394246795,0.5,1.0,1.0,355.0,711.0,1.0,1,214.0,1
1445,1445,-0.8944184687024263,-0.9,1.0,0.0,408.0,915.0,0.0,0,137.0,1
1446,1446,0.48952503733290864,0.5,1.0,1.0,331.0,697.0,1.0,1,162.0,1
1447,1447,-0.29811417625840186,-0.3,0.0,1.0,396.0,578.0,1.0,0,206.0,1
1448,1448,0.053360123069563614,0.1,0.0,0.0,318.0,667.0,0.0,1,2015.0,1
1449,1449,0.8066707496069984,0.8,0.0,0.0,360.0,801.0,0.0,1,259.0,1
1450,1450,0.7810630607335466,0.8,1.0,1.0,410.0,936.0,1.0,1,454.0,1
1451,1451,0.33072410034106803,0.3,0.0,0.0,264.0,973.0,0.0,1,413.0,1
1452,1452,-0.6491770457153566,-0.6,0.0,1.0,376.0,692.0,1.0,0,212.0,1
1453,1453,0.06769394260028483,0.1,0.0,0.0,401.0,818.0,1.0,0,1781.0,0
1454,1454,-0.21247596708393257,-0.2,1.0,0.0,401.0,928.0,0.0,0,241.0,1
1455,1455,0.4973385027836167,0.5,1.0,1.0,470.0,901.0,1.0,1,369.0,1
1456,1456,0.012238151614219817,0.0,0.0,0.0,318.0,739.0,1.0,0,1943.0,0
1457,1457,0.8699677507808848,0.9,0.0,0.0,428.0,752.0,0.0,1,130.0,1
1458,1458,-0.08107005190913752,-0.1,1.0,0.0,337.0,794.0,1.0,1,1439.0,0
1459,1459,-0.392834380553187,-0.4,0.0,1.0,441.0,918.0,1.0,0,271.0,1
1460,1460,0.2916571268089482,0.3,1.0,1.0,392.0,675.0,1.0,1,433.0,1
1461,1461,-0.43892154291959884,-0.4,1.0,0.0,306.0,769.0,0.0,0,215.0,1
1462,1462,0.21422913626012707,0.2,1.0,1.0,443.0,627.0,1.0,1,380.0,1
1463,1463,-0.7096756177697441,-0.7,0.0,1.0,357.0,588.0,1.0,0,325.0,1
1464,1464,0.2687611983979322,0.3,1.0,1.0,360.0,881.0,1.0,1,269.0,1
1465,1465,-0.8562179511835585,-0.9,1.0,0.0,388.0,921.0,0.0,0,121.0,1
1466,1466,0.7503581421638673,0.8,1.0,1.0,323.0,887.0,1.0,1,170.0,1
1467,1467,0.6016315682572496,0.6,1.0,1.0,464.0,913.0,1.0,1,73.0,1
1468,1468,-0.7215461850060838,-0.7,0.0,1.0,350.0,541.0,1.0,0,319.0,1
1469,1469,-0.23095978060993538,-0.2,1.0,0.0,351.0,794.0,0.0,0,395.0,1
1470,1470,-0.4926304374489092,-0.5,1.0,0.0,364.0,841.0,0.0,0,375.0,1
1471,1471,0.1447522775576905,0.1,0.0,0.0,322.0,572.0,0.0,1,266.0,1
1472,1472,-0.3228826453033068,-0.3,1.0,0.0,408.0,850.0,0.0,0,412.0,1
1473,1473,-0.026689170905550452,-0.0,0.0,1.0,373.0,789.0,1.0,0,1738.0,1
1474,1474,-0.3805786401129365,-0.4,1.0,0.0,396.0,920.0,0.0,0,274.0,1
1475,1475,-0.6228263053589105,-0.6,0.0,1.0,477.0,898.0,1.0,0,125.0,1
1476,1476,-0.7402816599021923,-0.7,0.0,1.0,445.0,791.0,1.0,0,114.0,1
1477,1477,-0.42312866010891176,-0.4,1.0,0.0,315.0,544.0,0.0,0,331.0,1
1478,1478,0.08359487895159678,0.1,1.0,1.0,440.0,797.0,1.0,1,533.0,1
1479,1479,0.05322135253944538,0.1,0.0,0.0,452.0,948.0,1.0,0,1600.0,0
1480,1480,0.4129201627715081,0.4,0.0,0.0,466.0,763.0,0.0,1,231.0,1
1481,1481,-0.16603113715219553,-0.2,0.0,1.0,259.0,777.0,1.0,0,334.0,1
1482,1482,-0.25333042334483413,-0.3,0.0,1.0,260.0,718.0,1.0,0,452.0,1
1483,1483,0.48827841527294613,0.5,0.0,0.0,426.0,634.0,0.0,1,320.0,1
1484,1484,0.5528162175504349,0.6,1.0,1.0,355.0,835.0,1.0,1,150.0,1
1485,1485,-0.26503867557946026,-0.3,1.0,0.0,348.0,915.0,0.0,0,407.0,1
1486,1486,-0.36593893587702897,-0.4,1.0,0.0,403.0,900.0,0.0,0,77.0,1
1487,1487,0.46263400331857907,0.5,1.0,1.0,478.0,970.0,1.0,1,322.0,1
1488,1488,0.07452291396484456,0.1,0.0,0.0,431.0,911.0,0.0,1,308.0,1
1489,1489,-0.46488370540052376,-0.5,0.0,1.0,356.0,690.0,1.0,0,304.0,1
1490,1490,0.6450457020475274,0.6,1.0,1.0,281.0,779.0,1.0,1,280.0,1
1491,1491,-0.24227621401934674,-0.2,0.0,1.0,268.0,589.0,1.0,0,493.0,1
