,trial,coherence,coherence_bin,green_side,correct_side,target_onset,checker_onset,decision,green_decision,decision_time,correct_decision
0,0,-0.33589313550818056,-0.3,1.0,0.0,272.0,889.0,0.0,0,149.0,1
1,1,-0.3571736073447225,-0.4,0.0,1.0,482.0,770.0,1.0,0,188.0,1
2,2,0.667355333039359,0.7,1.0,1.0,400.0,654.0,1.0,1,166.0,1
3,3,0.23693787451790083,0.2,1.0,1.0,324.0,563.0,1.0,1,4113.0,1
4,4,0.7425415794827542,0.7,0.0,0.0,400.0,647.0,0.0,1,223.0,1
5,5,-0.08360002134945554,-0.1,0.0,1.0,480.0,929.0,1.0,0,391.0,1
6,6,0.6097272634529428,0.6,0.0,0.0,291.0,593.0,0.0,1,406.0,1
7,7,0.21352449549895336,0.2,1.0,1.0,264.0,539.0,1.0,1,297.0,1
8,8,0.44460280302622246,0.4,1.0,1.0,421.0,541.0,1.0,1,4038.0,1
9,9,-0.6173039151954507,-0.6,1.0,0.0,483.0,542.0,0.0,0,195.0,1
10,10,0.43636771753999504,0.4,0.0,0.0,340.0,871.0,0.0,1,259.0,1
11,11,-0.3268112083735095,-0.3,0.0,1.0,485.0,765.0,1.0,0,220.0,1
12,12,0.7273193144157656,0.7,1.0,1.0,476.0,540.0,1.0,1,3984.0,1
13,13,-0.41002944683085185,-0.4,1.0,0.0,392.0,868.0,0.0,0,200.0,1
14,14,0.43532282667949496,0.4,1.0,1.0,347.0,789.0,1.0,1,174.0,1
15,15,-0.759047817178055,-0.8,0.0,1.0,306.0,651.0,1.0,0,263.0,1
16,16,0.0962167522467321,0.1,1.0,1.0,354.0,794.0,1.0,1,3852.0,1
17,17,-0.16576654167526073,-0.2,1.0,0.0,351.0,522.0,0.0,0,367.0,1
18,18,0.24336956825535927,0.2,1.0,1.0,344.0,621.0,1.0,1,285.0,1
19,19,-0.5006952851581474,-0.5,1.0,0.0,303.0,897.0,0.0,0,150.0,1
20,20,0.4905249619343143,0.5,1.0,1.0,308.0,878.0,1.0,1,114.0,1
21,21,-0.05622024897347189,-0.1,1.0,0.0,262.0,722.0,0.0,0,676.0,1
22,22,-0.7620158082871771,-0.8,1.0,0.0,347.0,876.0,0.0,0,147.0,1
23,23,-0.28171064637647814,-0.3,0.0,1.0,362.0,656.0,1.0,0,282.0,1
24,24,0.8881953349331496,0.9,0.0,0.0,352.0,554.0,0.0,1,494.0,1
25,25,-0.269096501476484,-0.3,0.0,1.0,489.0,602.0,1.0,0,499.0,1
26,26,-0.5213718389735318,-0.5,1.0,0.0,321.0,954.0,0.0,0,135.0,1
27,27,-0.6029720503502262,-0.6,1.0,0.0,399.0,615.0,0.0,0,146.0,1
28,28,0.04647330446121711,0.0,1.0,1.0,447.0,809.0,1.0,1,3744.0,1
29,29,0.7424333504089039,0.7,1.0,1.0,376.0,544.0,1.0,1,170.0,1
30,30,0.31470067872649177,0.3,0.0,0.0,376.0,674.0,0.0,1,470.0,1
31,31,-0.5644420146743574,-0.6,0.0,1.0,457.0,859.0,1.0,0,154.0,1
32,32,0.8892746263073129,0.9,0.0,0.0,383.0,614.0,0.0,1,243.0,1
33,33,-0.06993205299758287,-0.1,0.0,1.0,307.0,956.0,1.0,0,3737.0,1
34,34,0.2573716333664654,0.3,1.0,1.0,453.0,562.0,1.0,1,3985.0,1
35,35,-0.7739106123568248,-0.8,0.0,1.0,424.0,989.0,1.0,0,187.0,1
36,36,0.8232995868191572,0.8,1.0,1.0,480.0,821.0,1.0,1,119.0,1
37,37,-0.5829617474588751,-0.6,1.0,0.0,297.0,722.0,0.0,0,161.0,1
38,38,0.6963976472992187,0.7,1.0,1.0,393.0,780.0,1.0,1,137.0,1
39,39,-0.07734250891028616,-0.1,0.0,1.0,302.0,954.0,1.0,0,3744.0,1
40,40,0.25674922340955086,0.3,0.0,0.0,444.0,797.0,0.0,1,409.0,1
41,41,0.4388828136286377,0.4,1.0,1.0,437.0,891.0,1.0,1,152.0,1
42,42,-0.4175260789336063,-0.4,1.0,0.0,326.0,575.0,0.0,0,229.0,1
43,43,0.8621591585008753,0.9,1.0,1.0,457.0,608.0,1.0,1,175.0,1
44,44,0.48478645569759904,0.5,1.0,1.0,402.0,729.0,1.0,1,169.0,1
45,45,0.15111845956560666,0.2,1.0,1.0,284.0,877.0,1.0,1,3839.0,1
46,46,-0.08662780559419636,-0.1,0.0,1.0,273.0,724.0,1.0,0,4003.0,1
47,47,-0.22905880502784415,-0.2,1.0,0.0,356.0,766.0,0.0,0,248.0,1
48,48,0.7556631937909043,0.8,1.0,1.0,287.0,599.0,1.0,1,264.0,1
49,49,0.7528749972357102,0.8,0.0,0.0,476.0,561.0,0.0,1,493.0,1
50,50,0.7885776360729696,0.8,1.0,1.0,374.0,662.0,1.0,1,134.0,1
51,51,0.7231786592594086,0.7,1.0,1.0,361.0,699.0,1.0,1,120.0,1
52,52,-0.4078172394078682,-0.4,1.0,0.0,296.0,995.0,0.0,0,99.0,1
53,53,-0.29986545244375773,-0.3,0.0,1.0,297.0,831.0,1.0,0,192.0,1
54,54,-0.5386527247715918,-0.5,0.0,1.0,320.0,710.0,1.0,0,240.0,1
55,55,-0.13392757389347265,-0.1,1.0,0.0,390.0,893.0,0.0,0,277.0,1
56,56,-0.4142200952062803,-0.4,1.0,0.0,336.0,724.0,0.0,0,180.0,1
57,57,-0.10593316781779105,-0.1,0.0,1.0,302.0,711.0,1.0,0,477.0,1
58,58,0.23877469254456163,0.2,0.0,0.0,331.0,972.0,0.0,1,287.0,1
59,59,0.29975307140321694,0.3,0.0,0.0,436.0,560.0,0.0,1,774.0,1
60,60,0.23246181084458073,0.2,1.0,1.0,363.0,552.0,1.0,1,505.0,1
61,61,0.7319987832942473,0.7,0.0,0.0,277.0,745.0,0.0,1,268.0,1
62,62,0.031616540175897656,0.0,0.0,0.0,340.0,789.0,0.0,1,3871.0,1
63,63,0.13829000131385183,0.1,1.0,1.0,425.0,520.0,1.0,1,325.0,1
64,64,-0.15084099909478565,-0.2,1.0,0.0,417.0,824.0,0.0,0,309.0,1
65,65,0.8153662006714203,0.8,1.0,1.0,437.0,771.0,1.0,1,102.0,1
66,66,-0.7917364234223812,-0.8,0.0,1.0,293.0,576.0,1.0,0,271.0,1
67,67,-0.6641763539076097,-0.7,0.0,1.0,459.0,908.0,1.0,0,123.0,1
68,68,0.3901850589738397,0.4,1.0,1.0,399.0,563.0,1.0,1,4038.0,1
69,69,0.5466281843127972,0.5,1.0,1.0,258.0,958.0,1.0,1,94.0,1
70,70,-0.5587437838272431,-0.6,0.0,1.0,325.0,793.0,1.0,0,212.0,1
71,71,-0.3138492494321117,-0.3,1.0,0.0,332.0,767.0,0.0,0,261.0,1
72,72,0.8633244861874475,0.9,1.0,1.0,483.0,617.0,1.0,1,200.0,1
73,73,-0.6583253755139997,-0.7,0.0,1.0,386.0,914.0,1.0,0,160.0,1
74,74,-0.45243030743591006,-0.5,1.0,0.0,402.0,798.0,0.0,0,230.0,1
75,75,0.17194901735995705,0.2,1.0,1.0,264.0,550.0,1.0,1,426.0,1
76,76,-0.18019711413001105,-0.2,1.0,0.0,340.0,999.0,0.0,0,281.0,1
77,77,-0.8636873187337754,-0.9,1.0,0.0,336.0,745.0,0.0,0,139.0,1
78,78,0.3364259662306456,0.3,0.0,0.0,263.0,581.0,0.0,1,556.0,1
79,79,0.504428843805781,0.5,0.0,0.0,450.0,830.0,0.0,1,220.0,1
80,80,0.5307209520555524,0.5,0.0,0.0,393.0,874.0,0.0,1,173.0,1
81,81,0.40662157395323784,0.4,1.0,1.0,257.0,531.0,1.0,1,212.0,1
82,82,-0.5109677555035468,-0.5,1.0,0.0,428.0,987.0,0.0,0,135.0,1
83,83,-0.21520366235612132,-0.2,1.0,0.0,423.0,878.0,0.0,0,189.0,1
84,84,0.5771236132531273,0.6,1.0,1.0,402.0,684.0,1.0,1,164.0,1
85,85,0.183539450734575,0.2,0.0,0.0,485.0,568.0,0.0,1,497.0,1
86,86,-0.3744314350890485,-0.4,0.0,1.0,443.0,891.0,1.0,0,236.0,1
87,87,0.672951872269543,0.7,0.0,0.0,374.0,977.0,0.0,1,139.0,1
88,88,0.22246610049429238,0.2,1.0,1.0,367.0,845.0,1.0,1,208.0,1
89,89,0.8409094492637411,0.8,0.0,0.0,426.0,815.0,0.0,1,149.0,1
90,90,0.03819352462705705,0.0,0.0,0.0,395.0,670.0,0.0,1,675.0,1
91,91,0.08421991692067421,0.1,0.0,0.0,424.0,556.0,0.0,1,730.0,1
92,92,0.46912231578331787,0.5,0.0,0.0,405.0,942.0,0.0,1,183.0,1
93,93,0.18685376583277502,0.2,0.0,0.0,280.0,973.0,0.0,1,287.0,1
94,94,0.16405155811028205,0.2,1.0,1.0,473.0,790.0,1.0,1,477.0,1
95,95,0.19002877570048826,0.2,1.0,1.0,261.0,510.0,1.0,1,439.0,1
96,96,0.10745649518881673,0.1,1.0,1.0,322.0,858.0,1.0,1,520.0,1
97,97,-0.7107544178370804,-0.7,0.0,1.0,344.0,860.0,1.0,0,166.0,1
98,98,0.7621741550774411,0.8,1.0,1.0,497.0,555.0,1.0,1,168.0,1
99,99,-0.6461201951769613,-0.6,1.0,0.0,451.0,861.0,0.0,0,88.0,1
100,100,-0.4409430937312558,-0.4,0.0,1.0,431.0,613.0,1.0,0,426.0,1
101,101,-0.8018341064119884,-0.8,1.0,0.0,395.0,771.0,0.0,0,94.0,1
102,102,-0.4576616699872455,-0.5,1.0,0.0,281.0,832.0,0.0,0,77.0,1
103,103,-0.3407796839362579,-0.3,0.0,1.0,425.0,730.0,1.0,0,255.0,1
104,104,0.5563349293973002,0.6,1.0,1.0,329.0,663.0,1.0,1,198.0,1
105,105,-0.44606880841437746,-0.4,0.0,1.0,333.0,532.0,1.0,0,485.0,1
106,106,-0.4931372248009107,-0.5,0.0,1.0,418.0,740.0,1.0,0,212.0,1
107,107,-0.2999618912337767,-0.3,0.0,1.0,420.0,993.0,1.0,0,137.0,1
108,108,-0.734747584189438,-0.7,0.0,1.0,377.0,877.0,1.0,0,146.0,1
109,109,-0.1755455271723615,-0.2,0.0,1.0,252.0,650.0,1.0,0,538.0,1
110,110,-0.0037680679926064276,-0.0,1.0,0.0,476.0,669.0,1.0,1,3855.0,0
111,111,0.13217433609937623,0.1,1.0,1.0,262.0,511.0,1.0,1,587.0,1
112,112,-0.2686976273400382,-0.3,1.0,0.0,357.0,628.0,0.0,0,165.0,1
113,113,-0.12328649025108429,-0.1,0.0,1.0,389.0,528.0,1.0,0,583.0,1
114,114,0.267842883982902,0.3,0.0,0.0,347.0,939.0,0.0,1,334.0,1
115,115,-0.15308511552695014,-0.2,1.0,0.0,403.0,574.0,0.0,0,463.0,1
116,116,-0.5790961037980598,-0.6,0.0,1.0,311.0,675.0,1.0,0,204.0,1
117,117,0.04429651630263787,0.0,0.0,0.0,477.0,760.0,0.0,1,603.0,1
118,118,0.1520946383319831,0.2,1.0,1.0,321.0,809.0,1.0,1,320.0,1
119,119,0.5555035005430481,0.6,0.0,0.0,365.0,640.0,0.0,1,445.0,1
120,120,-0.6291219355294647,-0.6,0.0,1.0,432.0,953.0,1.0,0,135.0,1
121,121,0.1962838921798301,0.2,1.0,1.0,270.0,564.0,1.0,1,316.0,1
122,122,0.19352516715290025,0.2,0.0,0.0,402.0,559.0,0.0,1,559.0,1
123,123,-0.5291831543098608,-0.5,1.0,0.0,325.0,826.0,0.0,0,159.0,1
124,124,-0.7477274962052382,-0.7,1.0,0.0,464.0,699.0,0.0,0,97.0,1
125,125,-0.7338542651823945,-0.7,1.0,0.0,469.0,975.0,0.0,0,56.0,1
126,126,-0.40318770369516904,-0.4,1.0,0.0,274.0,797.0,0.0,0,149.0,1
127,127,0.391050779420712,0.4,0.0,0.0,381.0,590.0,0.0,1,579.0,1
128,128,-0.7232920006142081,-0.7,1.0,0.0,416.0,710.0,0.0,0,134.0,1
129,129,-0.280274178892682,-0.3,0.0,1.0,317.0,557.0,1.0,0,306.0,1
130,130,0.3482741461035054,0.3,0.0,0.0,493.0,745.0,0.0,1,642.0,1
131,131,-0.18575092232591472,-0.2,1.0,0.0,313.0,596.0,0.0,0,321.0,1
132,132,-0.5098378098646579,-0.5,0.0,1.0,361.0,605.0,1.0,0,244.0,1
133,133,0.2768268383711482,0.3,1.0,1.0,281.0,993.0,1.0,1,176.0,1
134,134,-0.6938561192891188,-0.7,1.0,0.0,472.0,530.0,0.0,0,178.0,1
135,135,0.26128478617999396,0.3,0.0,0.0,412.0,553.0,0.0,1,495.0,1
136,136,0.18803514051451897,0.2,1.0,1.0,376.0,753.0,1.0,1,311.0,1
137,137,-0.3218316136635553,-0.3,1.0,0.0,390.0,678.0,0.0,0,272.0,1
138,138,-0.36267007623649694,-0.4,0.0,1.0,336.0,674.0,1.0,0,330.0,1
139,139,0.42001691996214385,0.4,1.0,1.0,278.0,508.0,1.0,1,4214.0,1
140,140,0.8122448527483997,0.8,0.0,0.0,464.0,833.0,0.0,1,183.0,1
141,141,-0.7195298907392529,-0.7,0.0,1.0,446.0,728.0,1.0,0,236.0,1
142,142,-0.4291319206842644,-0.4,1.0,0.0,290.0,947.0,0.0,0,133.0,1
143,143,-0.7555894243234124,-0.8,1.0,0.0,392.0,801.0,0.0,0,97.0,1
144,144,0.6515400884754089,0.7,1.0,1.0,456.0,775.0,1.0,1,159.0,1
145,145,-0.20942662719026206,-0.2,1.0,0.0,414.0,806.0,0.0,0,220.0,1
146,146,0.7431227726843815,0.7,1.0,1.0,371.0,682.0,1.0,1,137.0,1
147,147,-0.26461319691090146,-0.3,1.0,0.0,335.0,987.0,0.0,0,168.0,1
148,148,-0.8156554363262294,-0.8,0.0,1.0,326.0,908.0,1.0,0,136.0,1
149,149,0.19693512655103984,0.2,0.0,0.0,357.0,815.0,0.0,1,468.0,1
150,150,-0.13740257955673785,-0.1,0.0,1.0,316.0,732.0,1.0,0,452.0,1
151,151,-0.7685677558271611,-0.8,1.0,0.0,289.0,971.0,0.0,0,70.0,1
152,152,0.07931754493749676,0.1,1.0,1.0,315.0,954.0,1.0,1,1871.0,1
153,153,-0.3684831127249887,-0.4,1.0,0.0,449.0,566.0,0.0,0,255.0,1
154,154,-0.6987832315120575,-0.7,0.0,1.0,280.0,844.0,1.0,0,176.0,1
155,155,-0.4548699784910267,-0.5,1.0,0.0,357.0,818.0,0.0,0,165.0,1
156,156,0.16211492999227073,0.2,0.0,0.0,342.0,571.0,0.0,1,727.0,1
157,157,0.7028571584450075,0.7,0.0,0.0,467.0,822.0,0.0,1,161.0,1
158,158,0.32059306230687434,0.3,0.0,0.0,364.0,527.0,0.0,1,599.0,1
159,159,0.6105733515968453,0.6,1.0,1.0,266.0,581.0,1.0,1,4153.0,1
160,160,0.6233054213902652,0.6,0.0,0.0,399.0,517.0,0.0,1,594.0,1
161,161,0.31625369018394245,0.3,1.0,1.0,342.0,748.0,1.0,1,220.0,1
162,162,0.15554309901035068,0.2,1.0,1.0,406.0,665.0,1.0,1,509.0,1
163,163,0.6682068678720262,0.7,0.0,0.0,356.0,610.0,0.0,1,484.0,1
164,164,-0.8193218356828867,-0.8,0.0,1.0,282.0,912.0,1.0,0,176.0,1
165,165,-0.18907493515734286,-0.2,0.0,1.0,352.0,990.0,1.0,0,228.0,1
166,166,0.226486049404946,0.2,1.0,1.0,293.0,915.0,1.0,1,172.0,1
167,167,-0.8109444838483469,-0.8,1.0,0.0,485.0,545.0,0.0,0,180.0,1
168,168,0.3510620424315404,0.4,1.0,1.0,363.0,968.0,1.0,1,169.0,1
169,169,-0.48627575134491574,-0.5,1.0,0.0,271.0,689.0,0.0,0,190.0,1
170,170,0.11701915130917373,0.1,1.0,1.0,413.0,510.0,1.0,1,687.0,1
171,171,0.5997466265255936,0.6,1.0,1.0,429.0,842.0,1.0,1,119.0,1
172,172,-0.0278010589591714,-0.0,1.0,0.0,257.0,934.0,0.0,0,339.0,1
173,173,0.6510697669468509,0.7,0.0,0.0,345.0,660.0,0.0,1,3995.0,1
174,174,-0.6753837216727231,-0.7,1.0,0.0,331.0,842.0,0.0,0,127.0,1
175,175,0.7783200108247793,0.8,1.0,1.0,264.0,513.0,1.0,1,203.0,1
176,176,0.6573364398308038,0.7,1.0,1.0,297.0,923.0,1.0,1,140.0,1
177,177,0.41424959449777166,0.4,0.0,0.0,477.0,862.0,0.0,1,241.0,1
178,178,0.16113129487470157,0.2,1.0,1.0,354.0,883.0,1.0,1,313.0,1
179,179,0.8675147531267552,0.9,0.0,0.0,497.0,775.0,0.0,1,208.0,1
180,180,0.341358324383673,0.3,0.0,0.0,318.0,902.0,0.0,1,520.0,1
181,181,0.37876670227671216,0.4,0.0,0.0,413.0,867.0,0.0,1,230.0,1
182,182,0.2951886899522661,0.3,1.0,1.0,406.0,841.0,1.0,1,193.0,1
183,183,-0.8221652774230085,-0.8,0.0,1.0,453.0,544.0,1.0,0,203.0,1
184,184,-0.42011970970325085,-0.4,1.0,0.0,329.0,523.0,0.0,0,238.0,1
185,185,-0.306910218446692,-0.3,1.0,0.0,345.0,669.0,0.0,0,186.0,1
186,186,0.4426599867162754,0.4,1.0,1.0,333.0,990.0,1.0,1,147.0,1
187,187,0.5449144767267301,0.5,0.0,0.0,486.0,695.0,0.0,1,369.0,1
188,188,0.10385525000089058,0.1,1.0,1.0,473.0,764.0,1.0,1,3763.0,1
189,189,-0.5588478410220954,-0.6,1.0,0.0,414.0,870.0,0.0,0,126.0,1
190,190,-0.7403127330663605,-0.7,0.0,1.0,372.0,803.0,1.0,0,145.0,1
191,191,0.5630256454582124,0.6,1.0,1.0,401.0,626.0,1.0,1,223.0,1
192,192,-0.5199368600983385,-0.5,1.0,0.0,459.0,888.0,0.0,0,153.0,1
193,193,0.15634752134572383,0.2,1.0,1.0,400.0,915.0,1.0,1,245.0,1
194,194,0.3978434016594886,0.4,1.0,1.0,327.0,651.0,1.0,1,452.0,1
195,195,-0.7516984400757375,-0.8,0.0,1.0,351.0,865.0,1.0,0,144.0,1
196,196,-0.04332452885365856,-0.0,0.0,1.0,351.0,569.0,1.0,0,4080.0,1
197,197,0.08486614176683649,0.1,1.0,1.0,437.0,588.0,1.0,1,1925.0,1
198,198,-0.7125016162794477,-0.7,0.0,1.0,441.0,909.0,1.0,0,170.0,1
199,199,0.09421785278247619,0.1,0.0,0.0,333.0,853.0,0.0,1,454.0,1
200,200,0.04683359927045194,0.0,1.0,1.0,473.0,640.0,1.0,1,3887.0,1
201,201,0.29903393150010993,0.3,0.0,0.0,316.0,689.0,0.0,1,455.0,1
202,202,-0.5569189220385151,-0.6,1.0,0.0,454.0,517.0,0.0,0,189.0,1
203,203,-0.29194460645372433,-0.3,0.0,1.0,412.0,738.0,1.0,0,240.0,1
204,204,0.26922559410629676,0.3,0.0,0.0,261.0,810.0,0.0,1,429.0,1
205,205,-0.8765855951896203,-0.9,0.0,1.0,427.0,971.0,1.0,0,122.0,1
206,206,-0.6911730432537633,-0.7,0.0,1.0,418.0,847.0,1.0,0,165.0,1
207,207,-0.4685510603220056,-0.5,0.0,1.0,470.0,877.0,1.0,0,143.0,1
208,208,-0.4631597621455364,-0.5,1.0,0.0,280.0,539.0,0.0,0,221.0,1
209,209,0.6876226726362161,0.7,1.0,1.0,383.0,770.0,1.0,1,147.0,1
210,210,0.8843567408611376,0.9,0.0,0.0,364.0,930.0,0.0,1,156.0,1
211,211,0.5205282728379844,0.5,0.0,0.0,460.0,813.0,0.0,1,607.0,1
212,212,0.2990309826403753,0.3,0.0,0.0,279.0,570.0,0.0,1,571.0,1
213,213,0.46518634865752306,0.5,1.0,1.0,337.0,654.0,1.0,1,229.0,1
214,214,0.4292393137976228,0.4,0.0,0.0,423.0,691.0,0.0,1,536.0,1
215,215,0.03680141753749311,0.0,1.0,1.0,372.0,919.0,1.0,1,3709.0,1
216,216,0.872245862869201,0.9,0.0,0.0,360.0,581.0,0.0,1,289.0,1
217,217,-0.528331134022271,-0.5,1.0,0.0,362.0,874.0,0.0,0,164.0,1
218,218,-0.07016241561762337,-0.1,1.0,0.0,386.0,501.0,0.0,0,603.0,1
219,219,0.5932039613989885,0.6,0.0,0.0,381.0,803.0,0.0,1,386.0,1
220,220,-0.49412111084930743,-0.5,0.0,1.0,285.0,563.0,1.0,0,502.0,1
221,221,0.3276547895402594,0.3,0.0,0.0,361.0,654.0,0.0,1,645.0,1
222,222,-0.16373682323837224,-0.2,0.0,1.0,293.0,734.0,1.0,0,363.0,1
223,223,-0.269655731373725,-0.3,1.0,0.0,439.0,819.0,0.0,0,162.0,1
224,224,-0.12267700988092878,-0.1,0.0,1.0,282.0,765.0,1.0,0,313.0,1
225,225,0.5136445399000412,0.5,1.0,1.0,389.0,913.0,1.0,1,128.0,1
226,226,0.4343917949709578,0.4,1.0,1.0,457.0,679.0,1.0,1,194.0,1
227,227,0.5297789145730828,0.5,0.0,0.0,492.0,785.0,0.0,1,283.0,1
228,228,0.022575753224408857,0.0,0.0,0.0,284.0,570.0,0.0,1,4146.0,1
229,229,-0.1974929648733461,-0.2,0.0,1.0,308.0,974.0,1.0,0,278.0,1
230,230,0.5310840727478031,0.5,1.0,1.0,333.0,944.0,1.0,1,133.0,1
231,231,0.5488482285114468,0.5,0.0,0.0,291.0,929.0,0.0,1,130.0,1
232,232,0.003159978452593637,0.0,1.0,1.0,449.0,556.0,1.0,1,3995.0,1
233,233,0.6426793612094445,0.6,1.0,1.0,435.0,642.0,1.0,1,193.0,1
234,234,-0.6897859252034602,-0.7,1.0,0.0,475.0,884.0,0.0,0,21.0,1
235,235,0.22142404001076932,0.2,1.0,1.0,448.0,714.0,1.0,1,348.0,1
236,236,-0.2985511604410235,-0.3,1.0,0.0,277.0,501.0,0.0,0,272.0,1
237,237,0.6883998796154062,0.7,1.0,1.0,394.0,978.0,1.0,1,108.0,1
238,238,-0.5088365420362566,-0.5,1.0,0.0,308.0,563.0,0.0,0,189.0,1
239,239,-0.15084910069908253,-0.2,0.0,1.0,254.0,956.0,1.0,0,370.0,1
240,240,0.6541523798901802,0.7,1.0,1.0,260.0,988.0,1.0,1,122.0,1
241,241,0.06918702946302546,0.1,0.0,0.0,475.0,733.0,0.0,1,552.0,1
242,242,-0.7415758144658618,-0.7,0.0,1.0,284.0,936.0,1.0,0,220.0,1
243,243,0.5866342080441659,0.6,0.0,0.0,264.0,825.0,0.0,1,201.0,1
244,244,0.8233090634861558,0.8,0.0,0.0,456.0,617.0,0.0,1,367.0,1
245,245,-0.8491936425073434,-0.8,0.0,1.0,372.0,586.0,1.0,0,192.0,1
246,246,-0.2267154215870909,-0.2,0.0,1.0,256.0,698.0,1.0,0,396.0,1
247,247,-0.18831441806366434,-0.2,1.0,0.0,443.0,658.0,0.0,0,359.0,1
248,248,-0.46015135438019156,-0.5,1.0,0.0,312.0,730.0,0.0,0,218.0,1
249,249,-0.6086467330169691,-0.6,1.0,0.0,466.0,924.0,0.0,0,120.0,1
250,250,0.48789013198392517,0.5,0.0,0.0,322.0,676.0,0.0,1,532.0,1
251,251,0.06308218256988485,0.1,0.0,0.0,461.0,845.0,0.0,1,484.0,1
252,252,0.8392489488949478,0.8,1.0,1.0,460.0,889.0,1.0,1,101.0,1
253,253,0.5936151279308802,0.6,0.0,0.0,440.0,651.0,0.0,1,409.0,1
254,254,0.7935645554068244,0.8,0.0,0.0,464.0,541.0,0.0,1,505.0,1
255,255,-0.8956733431482656,-0.9,1.0,0.0,287.0,636.0,0.0,0,137.0,1
256,256,-0.28740982031611906,-0.3,0.0,1.0,349.0,571.0,1.0,0,330.0,1
257,257,0.3975787658505182,0.4,1.0,1.0,329.0,726.0,1.0,1,225.0,1
258,258,0.19633398324127593,0.2,0.0,0.0,456.0,577.0,0.0,1,517.0,1
259,259,-0.31091085910271865,-0.3,0.0,1.0,285.0,871.0,1.0,0,194.0,1
260,260,-0.6124413794201318,-0.6,0.0,1.0,303.0,730.0,1.0,0,247.0,1
261,261,-0.3841478455799521,-0.4,0.0,1.0,411.0,558.0,1.0,0,391.0,1
262,262,-0.5449913557149872,-0.5,0.0,1.0,251.0,954.0,1.0,0,95.0,1
263,263,0.07464053779532442,0.1,0.0,0.0,376.0,954.0,0.0,1,600.0,1
264,264,-0.30179639626631727,-0.3,1.0,0.0,278.0,983.0,0.0,0,199.0,1
265,265,0.4973613755707197,0.5,1.0,1.0,365.0,605.0,1.0,1,230.0,1
266,266,0.6708887887960987,0.7,1.0,1.0,312.0,734.0,1.0,1,124.0,1
267,267,0.11373045546543448,0.1,1.0,1.0,286.0,694.0,1.0,1,4020.0,1
268,268,-0.12190121093959083,-0.1,0.0,1.0,439.0,612.0,1.0,0,369.0,1
269,269,0.28568359157919276,0.3,0.0,0.0,398.0,918.0,0.0,1,214.0,1
270,270,-0.6512505911016665,-0.7,0.0,1.0,267.0,863.0,1.0,0,160.0,1
271,271,0.687987678528552,0.7,0.0,0.0,443.0,756.0,0.0,1,481.0,1
272,272,0.1632842168261489,0.2,0.0,0.0,491.0,823.0,0.0,1,336.0,1
273,273,-0.7599552397967733,-0.8,1.0,0.0,482.0,900.0,0.0,0,118.0,1
274,274,-0.48408116281172275,-0.5,0.0,1.0,290.0,583.0,1.0,0,507.0,1
275,275,0.6131384878678102,0.6,0.0,0.0,488.0,657.0,0.0,1,555.0,1
276,276,0.012495596304725298,0.0,1.0,1.0,354.0,623.0,1.0,1,4023.0,1
277,277,0.783134578576581,0.8,0.0,0.0,439.0,815.0,0.0,1,156.0,1
278,278,0.7625064329773682,0.8,1.0,1.0,460.0,946.0,1.0,1,104.0,1
279,279,0.5142879033894766,0.5,1.0,1.0,319.0,619.0,1.0,1,182.0,1
280,280,-0.877658902632405,-0.9,1.0,0.0,424.0,868.0,0.0,0,68.0,1
281,281,-0.16155796843403658,-0.2,0.0,1.0,437.0,965.0,1.0,0,578.0,1
282,282,-0.42005758191354386,-0.4,1.0,0.0,418.0,982.0,0.0,0,90.0,1
283,283,-0.07087663043289893,-0.1,0.0,1.0,448.0,541.0,1.0,0,4011.0,1
284,284,-0.6646212732406711,-0.7,0.0,1.0,253.0,692.0,1.0,0,245.0,1
285,285,0.8976766511728874,0.9,0.0,0.0,440.0,906.0,0.0,1,174.0,1
286,286,0.6659224928415989,0.7,1.0,1.0,357.0,832.0,1.0,1,141.0,1
287,287,-0.6461096825612707,-0.6,1.0,0.0,435.0,606.0,0.0,0,209.0,1
288,288,0.27354263828522674,0.3,0.0,0.0,341.0,598.0,0.0,1,571.0,1
289,289,0.3125229245355793,0.3,0.0,0.0,422.0,576.0,0.0,1,772.0,1
290,290,0.6457974610163325,0.6,1.0,1.0,267.0,633.0,1.0,1,150.0,1
291,291,-0.132474722257928,-0.1,0.0,1.0,491.0,896.0,1.0,0,213.0,1
292,292,0.10059316786854688,0.1,0.0,0.0,345.0,720.0,0.0,1,505.0,1
293,293,-0.5752478815320066,-0.6,0.0,1.0,484.0,702.0,1.0,0,204.0,1
294,294,-0.6154212854367049,-0.6,1.0,0.0,271.0,882.0,0.0,0,107.0,1
295,295,0.021569218825186365,0.0,0.0,0.0,441.0,819.0,0.0,1,3740.0,1
296,296,-0.5847418997147047,-0.6,0.0,1.0,464.0,848.0,1.0,0,158.0,1
297,297,0.17576723238240521,0.2,0.0,0.0,448.0,993.0,0.0,1,379.0,1
298,298,0.28855887872527475,0.3,1.0,1.0,363.0,920.0,1.0,1,167.0,1
299,299,-0.5178272606350918,-0.5,1.0,0.0,399.0,534.0,0.0,0,227.0,1
300,300,0.4240670501089282,0.4,1.0,1.0,396.0,711.0,1.0,1,143.0,1
301,301,0.010364418108352647,0.0,0.0,0.0,364.0,578.0,0.0,1,4058.0,1
302,302,0.08350384123403176,0.1,0.0,0.0,284.0,887.0,0.0,1,729.0,1
303,303,0.7232734753744899,0.7,0.0,0.0,410.0,709.0,0.0,1,311.0,1
304,304,0.651687589909952,0.7,1.0,1.0,345.0,598.0,1.0,1,197.0,1
305,305,0.8143979136409102,0.8,0.0,0.0,396.0,803.0,0.0,1,211.0,1
306,306,-0.2445354293289307,-0.2,0.0,1.0,252.0,689.0,1.0,0,409.0,1
307,307,-0.3728193138677951,-0.4,0.0,1.0,309.0,990.0,1.0,0,121.0,1
308,308,0.06308441147980659,0.1,0.0,0.0,405.0,693.0,0.0,1,782.0,1
309,309,0.3055977582561532,0.3,0.0,0.0,296.0,534.0,0.0,1,490.0,1
310,310,0.19640289273274292,0.2,0.0,0.0,434.0,965.0,0.0,1,281.0,1
311,311,0.31689960062540334,0.3,0.0,0.0,303.0,703.0,0.0,1,484.0,1
312,312,0.30008365190296316,0.3,1.0,1.0,482.0,575.0,1.0,1,273.0,1
313,313,-0.12271607039699717,-0.1,0.0,1.0,283.0,963.0,1.0,0,3754.0,1
314,314,-0.5333062082147628,-0.5,1.0,0.0,358.0,516.0,0.0,0,216.0,1
315,315,0.40077987360016964,0.4,0.0,0.0,491.0,653.0,0.0,1,556.0,1
316,316,-0.3459824883106911,-0.3,1.0,0.0,398.0,955.0,0.0,0,117.0,1
317,317,-0.5237639260721384,-0.5,1.0,0.0,448.0,626.0,0.0,0,196.0,1
318,318,0.3938538478104613,0.4,1.0,1.0,428.0,859.0,1.0,1,143.0,1
319,319,0.35053216295817513,0.4,1.0,1.0,280.0,786.0,1.0,1,204.0,1
320,320,-0.0007422810827043547,-0.0,0.0,1.0,347.0,972.0,0.0,1,3681.0,0
321,321,-0.36032289905265136,-0.4,0.0,1.0,325.0,578.0,1.0,0,587.0,1
322,322,0.09042957009846952,0.1,0.0,0.0,274.0,944.0,0.0,1,542.0,1
323,323,0.629021405938413,0.6,0.0,0.0,265.0,877.0,0.0,1,198.0,1
324,324,0.8080442844627534,0.8,1.0,1.0,478.0,719.0,1.0,1,193.0,1
325,325,-0.03450085572844208,-0.0,0.0,1.0,350.0,553.0,1.0,0,4097.0,1
326,326,0.7137329548805803,0.7,0.0,0.0,382.0,515.0,0.0,1,4103.0,1
327,327,0.25371012256728165,0.3,0.0,0.0,482.0,640.0,0.0,1,628.0,1
328,328,-0.3772473159200137,-0.4,0.0,1.0,472.0,679.0,1.0,0,389.0,1
329,329,0.7386194862646503,0.7,1.0,1.0,482.0,956.0,1.0,1,142.0,1
330,330,0.8050571594186088,0.8,1.0,1.0,455.0,812.0,1.0,1,113.0,1
331,331,-0.09395951132874603,-0.1,1.0,0.0,412.0,509.0,0.0,0,389.0,1
332,332,-0.22206774408230812,-0.2,0.0,1.0,466.0,903.0,1.0,0,261.0,1
333,333,-0.6703366809340274,-0.7,1.0,0.0,282.0,649.0,0.0,0,169.0,1
334,334,0.4040884934831447,0.4,0.0,0.0,487.0,816.0,0.0,1,217.0,1
335,335,-0.09974337552888657,-0.1,1.0,0.0,431.0,850.0,0.0,0,549.0,1
336,336,-0.8810071107201611,-0.9,1.0,0.0,445.0,512.0,0.0,0,153.0,1
337,337,0.8874269946331191,0.9,0.0,0.0,303.0,960.0,0.0,1,157.0,1
338,338,0.7822075256927888,0.8,1.0,1.0,398.0,923.0,1.0,1,159.0,1
339,339,-0.8272928665769299,-0.8,0.0,1.0,312.0,877.0,1.0,0,221.0,1
340,340,-0.8202854974552074,-0.8,1.0,0.0,435.0,925.0,0.0,0,90.0,1
341,341,0.03188600930505736,0.0,1.0,1.0,273.0,856.0,1.0,1,3871.0,1
342,342,0.8919135857288282,0.9,0.0,0.0,322.0,581.0,0.0,1,267.0,1
343,343,-0.8587592080593074,-0.9,1.0,0.0,269.0,974.0,0.0,0,77.0,1
344,344,-0.13523556082857902,-0.1,1.0,0.0,348.0,893.0,0.0,0,229.0,1
345,345,0.04100477567848493,0.0,0.0,0.0,357.0,632.0,0.0,1,1421.0,1
346,346,-0.4493953067391759,-0.4,0.0,1.0,332.0,793.0,1.0,0,185.0,1
347,347,0.5891580246913043,0.6,0.0,0.0,281.0,650.0,0.0,1,509.0,1
348,348,0.8022942427034628,0.8,0.0,0.0,489.0,624.0,0.0,1,217.0,1
349,349,-0.8435661908103154,-0.8,0.0,1.0,376.0,922.0,1.0,0,152.0,1
350,350,-0.24834204305302998,-0.2,0.0,1.0,253.0,894.0,1.0,0,343.0,1
351,351,-0.2628466789359558,-0.3,0.0,1.0,474.0,960.0,1.0,0,3566.0,1
352,352,-0.15410044219620944,-0.2,0.0,1.0,481.0,585.0,1.0,0,624.0,1
353,353,-0.6989154352272369,-0.7,1.0,0.0,499.0,901.0,0.0,0,110.0,1
354,354,0.44979237090855373,0.4,0.0,0.0,302.0,921.0,0.0,1,247.0,1
355,355,-0.8704918948608775,-0.9,0.0,1.0,370.0,901.0,1.0,0,109.0,1
356,356,-0.6700263722154258,-0.7,0.0,1.0,468.0,501.0,1.0,0,261.0,1
357,357,0.03559168530878187,0.0,0.0,0.0,327.0,611.0,0.0,1,4062.0,1
358,358,0.6280191753610075,0.6,0.0,0.0,347.0,731.0,0.0,1,402.0,1
359,359,-0.8116819249952527,-0.8,1.0,0.0,289.0,768.0,0.0,0,143.0,1
360,360,-0.3648357458032754,-0.4,0.0,1.0,400.0,761.0,1.0,0,239.0,1
361,361,-0.3245204343016539,-0.3,1.0,0.0,485.0,508.0,0.0,0,347.0,1
362,362,-0.5556592452626061,-0.6,1.0,0.0,366.0,949.0,0.0,0,105.0,1
363,363,0.3735833823807878,0.4,1.0,1.0,495.0,579.0,1.0,1,226.0,1
364,364,0.2935592817905509,0.3,1.0,1.0,475.0,753.0,1.0,1,242.0,1
365,365,0.5161761904826568,0.5,1.0,1.0,428.0,521.0,1.0,1,4051.0,1
366,366,-0.8533777256728665,-0.9,0.0,1.0,325.0,678.0,1.0,0,267.0,1
367,367,0.1898219560327744,0.2,1.0,1.0,262.0,670.0,1.0,1,328.0,1
368,368,0.6265641595045252,0.6,0.0,0.0,455.0,845.0,0.0,1,250.0,1
369,369,-0.716780384118956,-0.7,0.0,1.0,295.0,713.0,1.0,0,162.0,1
370,370,-0.1718386109059734,-0.2,1.0,0.0,374.0,945.0,0.0,0,191.0,1
371,371,-0.8425869815926293,-0.8,1.0,0.0,264.0,658.0,0.0,0,158.0,1
372,372,0.3535854291821038,0.4,0.0,0.0,473.0,803.0,0.0,1,294.0,1
373,373,0.3177764124823116,0.3,0.0,0.0,441.0,758.0,0.0,1,511.0,1
374,374,-0.5742544221559037,-0.6,0.0,1.0,447.0,732.0,1.0,0,271.0,1
375,375,-0.5965879214364744,-0.6,1.0,0.0,342.0,787.0,0.0,0,171.0,1
376,376,0.2124463730315188,0.2,1.0,1.0,356.0,838.0,1.0,1,256.0,1
377,377,0.1498354518735311,0.1,0.0,0.0,367.0,778.0,0.0,1,345.0,1
378,378,-0.509147058354376,-0.5,0.0,1.0,331.0,824.0,1.0,0,175.0,1
379,379,0.5322436564394554,0.5,1.0,1.0,346.0,547.0,1.0,1,4107.0,1
380,380,0.8479134672464829,0.8,1.0,1.0,290.0,743.0,1.0,1,127.0,1
381,381,0.7336640248486682,0.7,1.0,1.0,252.0,531.0,1.0,1,4217.0,1
382,382,-0.4250561370240124,-0.4,1.0,0.0,366.0,593.0,0.0,0,221.0,1
383,383,-0.19376912667981472,-0.2,0.0,1.0,340.0,974.0,1.0,0,226.0,1
384,384,-0.6559281950887776,-0.7,1.0,0.0,380.0,894.0,0.0,0,66.0,1
385,385,-0.8555873960074285,-0.9,1.0,0.0,265.0,938.0,0.0,0,87.0,1
386,386,0.8648033498534428,0.9,1.0,1.0,443.0,759.0,1.0,1,118.0,1
387,387,-0.04043066924058225,-0.0,0.0,1.0,445.0,942.0,1.0,0,3613.0,1
388,388,-0.8765046289026394,-0.9,0.0,1.0,326.0,695.0,1.0,0,179.0,1
389,389,0.5240510731632021,0.5,1.0,1.0,371.0,791.0,1.0,1,148.0,1
390,390,0.5137933161044711,0.5,1.0,1.0,298.0,794.0,1.0,1,158.0,1
391,391,0.5066209145084791,0.5,0.0,0.0,496.0,540.0,0.0,1,354.0,1
392,392,0.5226205165931636,0.5,0.0,0.0,347.0,856.0,0.0,1,347.0,1
393,393,0.16719835027315233,0.2,1.0,1.0,456.0,761.0,1.0,1,233.0,1
394,394,0.62534288032887,0.6,1.0,1.0,478.0,925.0,1.0,1,97.0,1
395,395,-0.6671784647198649,-0.7,1.0,0.0,277.0,997.0,0.0,0,66.0,1
396,396,0.19237245287576388,0.2,1.0,1.0,433.0,964.0,1.0,1,203.0,1
397,397,-0.5702354611213525,-0.6,1.0,0.0,477.0,986.0,0.0,0,97.0,1
398,398,-0.7253256223281773,-0.7,1.0,0.0,387.0,526.0,0.0,0,117.0,1
399,399,0.8971418516530519,0.9,0.0,0.0,432.0,765.0,0.0,1,173.0,1
400,400,-0.7970066296803778,-0.8,1.0,0.0,357.0,620.0,0.0,0,173.0,1
401,401,-0.31636612848464696,-0.3,0.0,1.0,298.0,913.0,1.0,0,229.0,1
402,402,0.7905720707813518,0.8,0.0,0.0,377.0,958.0,0.0,1,145.0,1
403,403,0.004158381464813954,0.0,0.0,0.0,411.0,827.0,0.0,1,3762.0,1
404,404,-0.03473456010703613,-0.0,0.0,1.0,412.0,752.0,1.0,0,3836.0,1
405,405,0.593511070996455,0.6,1.0,1.0,461.0,585.0,1.0,1,3954.0,1
406,406,0.07000952739147148,0.1,1.0,1.0,443.0,503.0,1.0,1,4054.0,1
407,407,-0.09783745736426697,-0.1,0.0,1.0,478.0,931.0,1.0,0,3591.0,1
408,408,0.1319425719632471,0.1,0.0,0.0,448.0,815.0,0.0,1,437.0,1
409,409,0.20959390503804742,0.2,0.0,0.0,392.0,873.0,0.0,1,265.0,1
410,410,-0.6592557484747333,-0.7,1.0,0.0,462.0,638.0,0.0,0,160.0,1
411,411,0.765380373647338,0.8,1.0,1.0,391.0,930.0,1.0,1,119.0,1
412,412,0.15779731895742433,0.2,1.0,1.0,438.0,866.0,1.0,1,226.0,1
413,413,0.7824235683216979,0.8,1.0,1.0,480.0,795.0,1.0,1,135.0,1
414,414,0.5620395342105301,0.6,0.0,0.0,497.0,851.0,0.0,1,182.0,1
415,415,-0.02522992034979854,-0.0,0.0,1.0,461.0,519.0,1.0,0,790.0,1
416,416,0.388831661870655,0.4,1.0,1.0,439.0,828.0,1.0,1,163.0,1
417,417,0.3825481728785224,0.4,1.0,1.0,385.0,641.0,1.0,1,184.0,1
418,418,0.15862936809037154,0.2,1.0,1.0,451.0,644.0,1.0,1,425.0,1
419,419,0.7244508575907344,0.7,1.0,1.0,321.0,542.0,1.0,1,157.0,1
420,420,-0.16607176263236245,-0.2,1.0,0.0,307.0,953.0,0.0,0,230.0,1
421,421,-0.8301021847635993,-0.8,1.0,0.0,455.0,689.0,0.0,0,146.0,1
422,422,-0.5980389404582107,-0.6,0.0,1.0,368.0,565.0,1.0,0,257.0,1
423,423,-0.7537818839207453,-0.8,0.0,1.0,424.0,587.0,1.0,0,199.0,1
424,424,0.8832963354891078,0.9,0.0,0.0,424.0,830.0,0.0,1,166.0,1
425,425,0.5973111981474734,0.6,0.0,0.0,335.0,712.0,0.0,1,223.0,1
426,426,-0.09798405829843626,-0.1,1.0,0.0,403.0,800.0,0.0,0,297.0,1
427,427,0.668185074497775,0.7,0.0,0.0,250.0,625.0,0.0,1,255.0,1
428,428,-0.6230685184136965,-0.6,0.0,1.0,485.0,660.0,1.0,0,235.0,1
429,429,0.7651816218888409,0.8,0.0,0.0,360.0,701.0,0.0,1,199.0,1
430,430,0.12191756417599098,0.1,0.0,0.0,290.0,598.0,0.0,1,732.0,1
431,431,0.31578672682586906,0.3,0.0,0.0,356.0,644.0,0.0,1,610.0,1
432,432,0.7225602941176451,0.7,1.0,1.0,370.0,678.0,1.0,1,152.0,1
433,433,-0.4473813529284797,-0.4,0.0,1.0,457.0,648.0,1.0,0,255.0,1
434,434,0.35435695995321626,0.4,0.0,0.0,315.0,553.0,0.0,1,492.0,1
435,435,0.08693813138164375,0.1,1.0,1.0,494.0,923.0,1.0,1,323.0,1
436,436,-0.8585126403706379,-0.9,1.0,0.0,263.0,992.0,0.0,0,75.0,1
437,437,-0.4993613536007094,-0.5,0.0,1.0,281.0,672.0,1.0,0,287.0,1
438,438,0.3768370911497291,0.4,1.0,1.0,421.0,957.0,1.0,1,142.0,1
439,439,0.6745791156950217,0.7,0.0,0.0,303.0,965.0,0.0,1,162.0,1
440,440,-0.5707604832069636,-0.6,0.0,1.0,307.0,629.0,1.0,0,424.0,1
441,441,-0.5153588930626621,-0.5,1.0,0.0,331.0,831.0,0.0,0,158.0,1
442,442,0.7910810980936808,0.8,1.0,1.0,448.0,773.0,1.0,1,139.0,1
443,443,0.3735564883667125,0.4,1.0,1.0,450.0,516.0,1.0,1,274.0,1
444,444,0.7582275692077748,0.8,0.0,0.0,359.0,847.0,0.0,1,154.0,1
445,445,0.7586561419635761,0.8,1.0,1.0,363.0,929.0,1.0,1,108.0,1
446,446,0.23888854654942226,0.2,1.0,1.0,282.0,710.0,1.0,1,188.0,1
447,447,0.42528935717427274,0.4,1.0,1.0,345.0,968.0,1.0,1,137.0,1
448,448,-0.8047696839554513,-0.8,1.0,0.0,276.0,994.0,0.0,0,90.0,1
449,449,-0.21780968451052551,-0.2,0.0,1.0,392.0,887.0,1.0,0,691.0,1
450,450,-0.8452714673955645,-0.8,0.0,1.0,257.0,800.0,1.0,0,153.0,1
451,451,-0.2696485073278765,-0.3,0.0,1.0,402.0,808.0,1.0,0,280.0,1
452,452,-0.4493498838548966,-0.4,0.0,1.0,411.0,578.0,1.0,0,501.0,1
453,453,0.6002760286695453,0.6,0.0,0.0,416.0,846.0,0.0,1,218.0,1
454,454,0.3310709769902077,0.3,0.0,0.0,436.0,744.0,0.0,1,480.0,1
455,455,-0.6100717782026882,-0.6,1.0,0.0,354.0,760.0,0.0,0,176.0,1
456,456,-0.5620247446079232,-0.6,0.0,1.0,456.0,759.0,1.0,0,235.0,1
457,457,0.5094477338001452,0.5,0.0,0.0,265.0,593.0,0.0,1,682.0,1
458,458,-0.7138585547565159,-0.7,1.0,0.0,284.0,540.0,0.0,0,156.0,1
459,459,0.28070382298441043,0.3,0.0,0.0,315.0,535.0,0.0,1,550.0,1
460,460,-0.2902448306855103,-0.3,0.0,1.0,397.0,722.0,1.0,0,311.0,1
461,461,-0.008483590144140574,-0.0,0.0,1.0,315.0,851.0,1.0,0,3834.0,1
462,462,-0.7319511660570727,-0.7,1.0,0.0,385.0,830.0,0.0,0,95.0,1
463,463,-0.1973895108734659,-0.2,1.0,0.0,286.0,550.0,0.0,0,314.0,1
464,464,0.4187148290870174,0.4,1.0,1.0,310.0,553.0,1.0,1,247.0,1
465,465,0.6940331592260408,0.7,0.0,0.0,440.0,756.0,0.0,1,164.0,1
466,466,-0.21580766002359553,-0.2,1.0,0.0,483.0,701.0,0.0,0,306.0,1
467,467,-0.47301295775673163,-0.5,1.0,0.0,321.0,643.0,0.0,0,306.0,1
468,468,-0.8612099434053869,-0.9,1.0,0.0,361.0,809.0,0.0,0,120.0,1
469,469,-0.03901010125636584,-0.0,1.0,0.0,383.0,805.0,0.0,0,322.0,1
470,470,0.720520597155872,0.7,1.0,1.0,347.0,749.0,1.0,1,194.0,1
471,471,0.5322466800491176,0.5,0.0,0.0,320.0,643.0,0.0,1,367.0,1
472,472,-0.5340437198101086,-0.5,0.0,1.0,354.0,683.0,1.0,0,293.0,1
473,473,-0.34459348036300186,-0.3,0.0,1.0,435.0,657.0,1.0,0,478.0,1
474,474,0.40065416294876466,0.4,0.0,0.0,484.0,689.0,0.0,1,467.0,1
475,475,0.7332135134914687,0.7,1.0,1.0,495.0,925.0,1.0,1,120.0,1
476,476,-0.08408147325370174,-0.1,1.0,0.0,436.0,779.0,0.0,0,315.0,1
477,477,0.154060071353887,0.2,1.0,1.0,485.0,777.0,1.0,1,218.0,1
478,478,0.32699354990764895,0.3,1.0,1.0,355.0,516.0,1.0,1,319.0,1
479,479,-0.30460060883653806,-0.3,0.0,1.0,404.0,512.0,1.0,0,474.0,1
480,480,-0.1301662759745532,-0.1,0.0,1.0,264.0,773.0,1.0,0,473.0,1
481,481,0.31370165179912346,0.3,0.0,0.0,366.0,577.0,0.0,1,697.0,1
482,482,0.7612664189296819,0.8,1.0,1.0,421.0,533.0,1.0,1,4046.0,1
483,483,-0.13119887089154725,-0.1,0.0,1.0,413.0,558.0,1.0,0,519.0,1
484,484,0.78414000459902,0.8,0.0,0.0,330.0,552.0,0.0,1,498.0,1
485,485,-0.24151028932705731,-0.2,0.0,1.0,293.0,614.0,1.0,0,423.0,1
486,486,-0.39959475995569993,-0.4,1.0,0.0,433.0,921.0,0.0,0,176.0,1
487,487,-0.30684943742415716,-0.3,0.0,1.0,433.0,965.0,1.0,0,252.0,1
488,488,0.32593745156601706,0.3,0.0,0.0,318.0,697.0,0.0,1,405.0,1
489,489,0.4777077416911445,0.5,1.0,1.0,427.0,820.0,1.0,1,113.0,1
490,490,0.21208556878419305,0.2,0.0,0.0,338.0,635.0,0.0,1,517.0,1
491,491,0.712277573360946,0.7,0.0,0.0,332.0,699.0,0.0,1,3969.0,1
492,492,0.06182785928545598,0.1,1.0,1.0,463.0,525.0,1.0,1,4012.0,1
493,493,-0.6152716886232452,-0.6,0.0,1.0,469.0,815.0,1.0,0,156.0,1
494,494,-0.8142267945009437,-0.8,0.0,1.0,421.0,802.0,1.0,0,137.0,1
495,495,-0.274245666396256,-0.3,1.0,0.0,331.0,647.0,0.0,0,322.0,1
496,496,-0.04483186627590552,-0.0,1.0,0.0,378.0,864.0,0.0,0,588.0,1
497,497,0.49067959742829526,0.5,0.0,0.0,479.0,934.0,0.0,1,187.0,1
498,498,-0.8673230185085207,-0.9,0.0,1.0,315.0,571.0,1.0,0,304.0,1
499,499,0.5630949219317581,0.6,0.0,0.0,391.0,908.0,0.0,1,171.0,1
500,500,-0.23697376335876053,-0.2,1.0,0.0,474.0,659.0,0.0,0,277.0,1
501,501,-0.7832452962027531,-0.8,1.0,0.0,459.0,689.0,0.0,0,112.0,1
502,502,0.47632190192857415,0.5,0.0,0.0,491.0,856.0,0.0,1,203.0,1
503,503,0.7969498603029329,0.8,1.0,1.0,454.0,708.0,1.0,1,138.0,1
504,504,0.7107619613235733,0.7,1.0,1.0,486.0,780.0,1.0,1,134.0,1
505,505,0.729255283003634,0.7,1.0,1.0,398.0,523.0,1.0,1,199.0,1
506,506,0.8195693471781408,0.8,1.0,1.0,290.0,971.0,1.0,1,109.0,1
507,507,0.6387987206161586,0.6,1.0,1.0,312.0,702.0,1.0,1,126.0,1
508,508,0.7342564555202665,0.7,1.0,1.0,456.0,782.0,1.0,1,132.0,1
509,509,0.5286509793397919,0.5,1.0,1.0,428.0,978.0,1.0,1,104.0,1
510,510,0.41335603038727775,0.4,0.0,0.0,294.0,820.0,0.0,1,196.0,1
511,511,-0.540184375036478,-0.5,1.0,0.0,486.0,527.0,0.0,0,247.0,1
512,512,-0.1679630545915075,-0.2,1.0,0.0,296.0,826.0,0.0,0,228.0,1
513,513,-0.0895900919285254,-0.1,1.0,0.0,423.0,940.0,0.0,0,377.0,1
514,514,-0.09532009400985231,-0.1,1.0,0.0,266.0,606.0,0.0,0,448.0,1
515,515,-0.14175086981963714,-0.1,1.0,0.0,415.0,742.0,0.0,0,253.0,1
516,516,0.3678651111909862,0.4,0.0,0.0,417.0,637.0,0.0,1,776.0,1
517,517,0.20427300384608038,0.2,0.0,0.0,496.0,964.0,0.0,1,300.0,1
518,518,0.7280854770019413,0.7,1.0,1.0,367.0,690.0,1.0,1,153.0,1
519,519,-0.1226398960889089,-0.1,1.0,0.0,433.0,793.0,0.0,0,284.0,1
520,520,0.05049440016288931,0.1,1.0,1.0,354.0,577.0,1.0,1,4069.0,1
521,521,-0.17493002063813867,-0.2,1.0,0.0,278.0,601.0,0.0,0,321.0,1
522,522,0.1201663717382816,0.1,1.0,1.0,430.0,988.0,1.0,1,3582.0,1
523,523,-0.08726711651537689,-0.1,1.0,0.0,278.0,850.0,0.0,0,262.0,1
524,524,-0.7428147897899339,-0.7,1.0,0.0,458.0,872.0,0.0,0,90.0,1
525,525,0.31962716270523484,0.3,1.0,1.0,386.0,801.0,1.0,1,183.0,1
526,526,-0.5339743497218445,-0.5,1.0,0.0,494.0,610.0,0.0,0,186.0,1
527,527,0.2701401205099204,0.3,0.0,0.0,321.0,728.0,0.0,1,731.0,1
528,528,-0.5335680174480847,-0.5,1.0,0.0,495.0,728.0,0.0,0,227.0,1
529,529,0.8639471103926922,0.9,1.0,1.0,304.0,917.0,1.0,1,109.0,1
530,530,-0.8739650465306424,-0.9,0.0,1.0,295.0,939.0,1.0,0,116.0,1
531,531,-0.1586085662783785,-0.2,0.0,1.0,431.0,886.0,1.0,0,383.0,1
532,532,0.3389659937987769,0.3,0.0,0.0,454.0,572.0,0.0,1,524.0,1
533,533,-0.8539413742176675,-0.9,0.0,1.0,396.0,794.0,1.0,0,140.0,1
534,534,0.7753016787523362,0.8,1.0,1.0,276.0,690.0,1.0,1,144.0,1
535,535,-0.020215745472146773,-0.0,0.0,1.0,342.0,587.0,0.0,1,4071.0,0
536,536,-0.09248052766685255,-0.1,1.0,0.0,372.0,998.0,0.0,0,330.0,1
537,537,0.6164331554775216,0.6,0.0,0.0,348.0,912.0,0.0,1,150.0,1
538,538,0.13074638275267525,0.1,1.0,1.0,303.0,647.0,1.0,1,410.0,1
539,539,0.5007038653798302,0.5,0.0,0.0,273.0,608.0,0.0,1,569.0,1
540,540,0.007297427143530988,0.0,0.0,0.0,259.0,628.0,0.0,1,4113.0,1
541,541,-0.007185918493999521,-0.0,0.0,1.0,447.0,586.0,1.0,0,3967.0,1
542,542,0.3531414731710115,0.4,1.0,1.0,376.0,888.0,1.0,1,166.0,1
543,543,-0.06782891668372759,-0.1,1.0,0.0,250.0,545.0,0.0,0,385.0,1
544,544,0.16544797340924233,0.2,1.0,1.0,495.0,775.0,1.0,1,430.0,1
545,545,0.3790101591029448,0.4,0.0,0.0,251.0,681.0,0.0,1,548.0,1
546,546,0.3021376099076817,0.3,1.0,1.0,263.0,700.0,1.0,1,4037.0,1
547,547,0.037618398025264566,0.0,1.0,1.0,378.0,740.0,1.0,1,3882.0,1
548,548,-0.2500103270680548,-0.3,0.0,1.0,318.0,638.0,1.0,0,614.0,1
549,549,-0.7867557054337995,-0.8,1.0,0.0,361.0,665.0,0.0,0,114.0,1
550,550,0.147828193131342,0.1,0.0,0.0,411.0,540.0,0.0,1,529.0,1
551,551,0.27459847848584296,0.3,0.0,0.0,290.0,996.0,0.0,1,314.0,1
552,552,-0.4872954329387394,-0.5,1.0,0.0,275.0,973.0,0.0,0,122.0,1
553,553,0.4633023886882045,0.5,0.0,0.0,358.0,617.0,0.0,1,555.0,1
554,554,-0.19213841408572108,-0.2,1.0,0.0,485.0,845.0,0.0,0,210.0,1
555,555,0.8873225689760637,0.9,0.0,0.0,382.0,847.0,0.0,1,191.0,1
556,556,0.7975620732389225,0.8,1.0,1.0,392.0,910.0,1.0,1,108.0,1
557,557,0.019204901041150024,0.0,1.0,1.0,402.0,874.0,1.0,1,3724.0,1
558,558,-0.11376409599075687,-0.1,1.0,0.0,423.0,986.0,0.0,0,351.0,1
559,559,-0.3121814940537537,-0.3,1.0,0.0,475.0,641.0,0.0,0,274.0,1
560,560,0.599747672921796,0.6,1.0,1.0,277.0,536.0,1.0,1,4187.0,1
561,561,-0.497184258889019,-0.5,0.0,1.0,265.0,935.0,1.0,0,100.0,1
562,562,0.6348759081814855,0.6,0.0,0.0,353.0,754.0,0.0,1,693.0,1
563,563,-0.4177333999853201,-0.4,0.0,1.0,310.0,935.0,1.0,0,125.0,1
564,564,-0.7360279544979694,-0.7,0.0,1.0,457.0,544.0,1.0,0,329.0,1
565,565,0.49315713611928447,0.5,0.0,0.0,346.0,709.0,0.0,1,475.0,1
566,566,0.8679605799776368,0.9,0.0,0.0,431.0,916.0,0.0,1,123.0,1
567,567,-0.6799742655158078,-0.7,0.0,1.0,416.0,934.0,1.0,0,150.0,1
568,568,-0.4929512542768676,-0.5,0.0,1.0,436.0,852.0,1.0,0,142.0,1
569,569,0.495320073265786,0.5,0.0,0.0,406.0,541.0,0.0,1,4053.0,1
570,570,-0.37110759747006694,-0.4,1.0,0.0,485.0,845.0,0.0,0,180.0,1
571,571,-0.2968743951873599,-0.3,1.0,0.0,420.0,760.0,0.0,0,280.0,1
572,572,-0.10157644994130555,-0.1,1.0,0.0,356.0,897.0,0.0,0,377.0,1
573,573,0.7331032650502053,0.7,0.0,0.0,453.0,978.0,0.0,1,139.0,1
574,574,-0.08472470279139022,-0.1,1.0,0.0,326.0,700.0,0.0,0,394.0,1
575,575,0.41425264427931674,0.4,0.0,0.0,268.0,753.0,0.0,1,539.0,1
576,576,-0.04996640201530045,-0.0,1.0,0.0,271.0,531.0,0.0,0,538.0,1
577,577,0.6849686694127551,0.7,1.0,1.0,256.0,983.0,1.0,1,31.0,1
578,578,-0.49576858153582176,-0.5,1.0,0.0,405.0,786.0,0.0,0,189.0,1
579,579,-0.2919066677638269,-0.3,1.0,0.0,385.0,871.0,0.0,0,244.0,1
580,580,-0.7033239102390956,-0.7,0.0,1.0,279.0,540.0,1.0,0,251.0,1
581,581,0.8043206474770151,0.8,1.0,1.0,332.0,969.0,1.0,1,99.0,1
582,582,-0.7924314321516415,-0.8,1.0,0.0,428.0,849.0,0.0,0,123.0,1
583,583,-0.011173607359175608,-0.0,1.0,0.0,272.0,828.0,0.0,0,3900.0,1
584,584,-0.4581185226494771,-0.5,0.0,1.0,359.0,743.0,1.0,0,238.0,1
585,585,-0.41983205260739387,-0.4,0.0,1.0,325.0,539.0,1.0,0,516.0,1
586,586,0.213373114904729,0.2,0.0,0.0,406.0,712.0,0.0,1,722.0,1
587,587,-0.029903951238864912,-0.0,1.0,0.0,404.0,781.0,0.0,0,1565.0,1
588,588,-0.5542002317840173,-0.6,0.0,1.0,423.0,518.0,1.0,0,459.0,1
589,589,0.8782141985553115,0.9,0.0,0.0,493.0,896.0,0.0,1,151.0,1
590,590,-0.14928086388933082,-0.1,0.0,1.0,403.0,821.0,1.0,0,436.0,1
591,591,0.8212529019611018,0.8,1.0,1.0,277.0,873.0,1.0,1,120.0,1
592,592,0.09545912772119491,0.1,0.0,0.0,424.0,688.0,0.0,1,678.0,1
593,593,0.43437948929773273,0.4,1.0,1.0,388.0,889.0,1.0,1,153.0,1
594,594,0.32932996935829617,0.3,1.0,1.0,375.0,935.0,1.0,1,180.0,1
595,595,0.20821215508748903,0.2,1.0,1.0,395.0,764.0,1.0,1,291.0,1
596,596,-0.7658591818668525,-0.8,0.0,1.0,474.0,720.0,1.0,0,246.0,1
597,597,-0.7770826064900627,-0.8,1.0,0.0,267.0,779.0,0.0,0,84.0,1
598,598,0.39108628369175,0.4,0.0,0.0,490.0,587.0,0.0,1,893.0,1
599,599,0.4483702258620469,0.4,0.0,0.0,351.0,536.0,0.0,1,513.0,1
600,600,-0.7186365335420782,-0.7,1.0,0.0,487.0,693.0,0.0,0,170.0,1
601,601,0.5283894355969266,0.5,1.0,1.0,484.0,955.0,1.0,1,151.0,1
602,602,0.058548671153838217,0.1,1.0,1.0,414.0,802.0,1.0,1,3784.0,1
603,603,-0.07433491883723942,-0.1,1.0,0.0,482.0,605.0,0.0,0,453.0,1
604,604,0.2766561851877344,0.3,0.0,0.0,343.0,697.0,0.0,1,460.0,1
605,605,-0.3757183190518881,-0.4,0.0,1.0,426.0,599.0,1.0,0,445.0,1
606,606,0.5888514558442671,0.6,1.0,1.0,382.0,761.0,1.0,1,157.0,1
607,607,0.2375267252280121,0.2,1.0,1.0,385.0,864.0,1.0,1,171.0,1
608,608,-0.7621150827771024,-0.8,0.0,1.0,292.0,853.0,1.0,0,135.0,1
609,609,0.8741668444441454,0.9,0.0,0.0,278.0,862.0,0.0,1,170.0,1
610,610,0.8946096071715343,0.9,0.0,0.0,465.0,754.0,0.0,1,171.0,1
611,611,0.2469354145065531,0.2,1.0,1.0,417.0,736.0,1.0,1,217.0,1
612,612,0.33091529579729795,0.3,0.0,0.0,385.0,791.0,0.0,1,604.0,1
613,613,0.36566999276415857,0.4,1.0,1.0,435.0,831.0,1.0,1,234.0,1
614,614,0.5416448282548673,0.5,0.0,0.0,348.0,531.0,0.0,1,551.0,1
615,615,0.7483554789991237,0.7,0.0,0.0,489.0,727.0,0.0,1,214.0,1
616,616,-0.534337508068703,-0.5,0.0,1.0,342.0,575.0,1.0,0,293.0,1
617,617,-0.7163369739678312,-0.7,1.0,0.0,346.0,806.0,0.0,0,128.0,1
618,618,0.09124222671390902,0.1,0.0,0.0,281.0,553.0,0.0,1,736.0,1
619,619,-0.2044360957385295,-0.2,0.0,1.0,449.0,576.0,1.0,0,535.0,1
620,620,0.40676500647905434,0.4,0.0,0.0,392.0,815.0,0.0,1,583.0,1
621,621,0.6516609520773976,0.7,0.0,0.0,297.0,858.0,0.0,1,195.0,1
622,622,0.28606240163408614,0.3,0.0,0.0,464.0,603.0,0.0,1,423.0,1
623,623,0.8219991149293383,0.8,1.0,1.0,326.0,879.0,1.0,1,135.0,1
624,624,-0.011835286031370629,-0.0,1.0,0.0,254.0,503.0,0.0,0,1093.0,1
625,625,-0.19063428209516176,-0.2,1.0,0.0,274.0,638.0,0.0,0,278.0,1
626,626,-0.2869050294994582,-0.3,1.0,0.0,267.0,923.0,0.0,0,140.0,1
627,627,0.7329578364038175,0.7,0.0,0.0,360.0,829.0,0.0,1,161.0,1
628,628,-0.45618801687262567,-0.5,1.0,0.0,439.0,956.0,0.0,0,125.0,1
629,629,0.7143506676596784,0.7,0.0,0.0,368.0,735.0,0.0,1,267.0,1
630,630,-0.032696795086506025,-0.0,0.0,1.0,447.0,663.0,1.0,0,3890.0,1
631,631,0.7582596577310624,0.8,0.0,0.0,433.0,811.0,0.0,1,146.0,1
632,632,0.43566863789711807,0.4,1.0,1.0,414.0,650.0,1.0,1,186.0,1
633,633,-0.607543496935534,-0.6,0.0,1.0,261.0,964.0,1.0,0,125.0,1
634,634,0.11423687927436454,0.1,0.0,0.0,418.0,612.0,0.0,1,680.0,1
635,635,-0.5690511357556458,-0.6,1.0,0.0,463.0,856.0,0.0,0,81.0,1
636,636,-0.11080011524025224,-0.1,1.0,0.0,309.0,690.0,0.0,0,311.0,1
637,637,-0.33923580139854925,-0.3,1.0,0.0,380.0,536.0,0.0,0,304.0,1
638,638,0.8080194514586999,0.8,0.0,0.0,290.0,886.0,0.0,1,144.0,1
639,639,0.10242896266440826,0.1,1.0,1.0,472.0,879.0,1.0,1,2309.0,1
640,640,0.27695519844251393,0.3,0.0,0.0,474.0,907.0,0.0,1,239.0,1
641,641,-0.5891359922420079,-0.6,0.0,1.0,347.0,937.0,1.0,0,136.0,1
642,642,-0.2591193424900716,-0.3,0.0,1.0,305.0,612.0,1.0,0,393.0,1
643,643,-0.7468079467729748,-0.7,0.0,1.0,398.0,721.0,1.0,0,221.0,1
644,644,0.7005597425432456,0.7,1.0,1.0,338.0,779.0,1.0,1,133.0,1
645,645,0.1836597951041622,0.2,1.0,1.0,257.0,597.0,1.0,1,316.0,1
646,646,-0.8793034904547925,-0.9,0.0,1.0,444.0,889.0,1.0,0,137.0,1
647,647,-0.19422099586554942,-0.2,0.0,1.0,311.0,854.0,1.0,0,315.0,1
648,648,0.3440899735135753,0.3,1.0,1.0,303.0,815.0,1.0,1,122.0,1
649,649,-0.40022126356413734,-0.4,1.0,0.0,399.0,568.0,0.0,0,313.0,1
650,650,0.05079794691716133,0.1,1.0,1.0,375.0,734.0,1.0,1,3891.0,1
651,651,-0.5098215656328869,-0.5,0.0,1.0,290.0,800.0,1.0,0,220.0,1
652,652,0.6494691169742904,0.6,1.0,1.0,270.0,692.0,1.0,1,158.0,1
653,653,-0.8695787184596455,-0.9,1.0,0.0,334.0,699.0,0.0,0,97.0,1
654,654,-0.4038671827164903,-0.4,0.0,1.0,274.0,812.0,1.0,0,244.0,1
655,655,0.8955749822827032,0.9,0.0,0.0,374.0,507.0,0.0,1,509.0,1
656,656,0.7194317822251174,0.7,1.0,1.0,343.0,739.0,1.0,1,118.0,1
657,657,0.37493161007084075,0.4,0.0,0.0,396.0,502.0,0.0,1,1792.0,1
658,658,-0.5664050159009009,-0.6,0.0,1.0,296.0,671.0,1.0,0,423.0,1
659,659,-0.7793316331176497,-0.8,1.0,0.0,279.0,530.0,0.0,0,201.0,1
660,660,0.7843197929334677,0.8,0.0,0.0,305.0,623.0,0.0,1,472.0,1
661,661,0.13285990542936654,0.1,0.0,0.0,362.0,667.0,0.0,1,511.0,1
662,662,0.0760325822993414,0.1,1.0,1.0,280.0,909.0,1.0,1,1811.0,1
663,663,0.7815001790040915,0.8,0.0,0.0,315.0,668.0,0.0,1,4017.0,1
664,664,0.13003790158752138,0.1,0.0,0.0,498.0,655.0,0.0,1,687.0,1
665,665,0.2363775900071451,0.2,0.0,0.0,354.0,829.0,0.0,1,547.0,1
666,666,-0.582930288598321,-0.6,1.0,0.0,309.0,833.0,0.0,0,168.0,1
667,667,-0.34478223616688075,-0.3,1.0,0.0,485.0,737.0,0.0,0,218.0,1
668,668,0.7402344823922807,0.7,1.0,1.0,393.0,718.0,1.0,1,129.0,1
669,669,-0.13789162496061913,-0.1,0.0,1.0,393.0,975.0,1.0,0,3632.0,1
670,670,0.8693854933962181,0.9,0.0,0.0,352.0,741.0,0.0,1,187.0,1
671,671,0.5076790452355545,0.5,1.0,1.0,398.0,674.0,1.0,1,168.0,1
672,672,0.8931280878813105,0.9,1.0,1.0,273.0,507.0,1.0,1,160.0,1
673,673,-0.46439476807541985,-0.5,0.0,1.0,306.0,553.0,1.0,0,371.0,1
674,674,0.5464195376315036,0.5,1.0,1.0,370.0,509.0,1.0,1,4121.0,1
675,675,0.009868793335550796,0.0,0.0,0.0,318.0,559.0,0.0,1,4123.0,1
676,676,-0.78496688801291,-0.8,1.0,0.0,445.0,677.0,0.0,0,138.0,1
677,677,-0.7928748479584629,-0.8,0.0,1.0,452.0,613.0,1.0,0,285.0,1
678,678,-0.48089674136778493,-0.5,0.0,1.0,318.0,520.0,1.0,0,632.0,1
679,679,-0.07000365438639966,-0.1,1.0,0.0,460.0,833.0,0.0,0,627.0,1
680,680,-0.3367211508840465,-0.3,0.0,1.0,289.0,507.0,1.0,0,544.0,1
681,681,0.15120710277783178,0.2,0.0,0.0,345.0,755.0,0.0,1,640.0,1
682,682,-0.6142197654084078,-0.6,1.0,0.0,470.0,858.0,0.0,0,92.0,1
683,683,0.3216973845493093,0.3,0.0,0.0,291.0,914.0,0.0,1,255.0,1
684,684,-0.008641543210728297,-0.0,0.0,1.0,351.0,689.0,1.0,0,3960.0,1
685,685,-0.6896781510925647,-0.7,1.0,0.0,355.0,540.0,0.0,0,165.0,1
686,686,0.38254333230343207,0.4,1.0,1.0,256.0,929.0,1.0,1,125.0,1
687,687,0.18196768066045188,0.2,1.0,1.0,317.0,631.0,1.0,1,342.0,1
688,688,0.009949293632745548,0.0,1.0,1.0,271.0,672.0,0.0,0,4057.0,0
689,689,0.232705865074592,0.2,1.0,1.0,367.0,615.0,1.0,1,258.0,1
690,690,-0.4834388589261788,-0.5,1.0,0.0,450.0,668.0,0.0,0,202.0,1
691,691,-0.4731107825430469,-0.5,0.0,1.0,487.0,533.0,1.0,0,430.0,1
692,692,-0.7857303468789761,-0.8,0.0,1.0,332.0,624.0,1.0,0,274.0,1
693,693,-0.47817663384502923,-0.5,1.0,0.0,430.0,969.0,0.0,0,121.0,1
694,694,-0.8078754062923128,-0.8,1.0,0.0,263.0,532.0,0.0,0,135.0,1
695,695,-0.8119775000543562,-0.8,1.0,0.0,340.0,517.0,0.0,0,133.0,1
696,696,-0.007842377166238257,-0.0,0.0,1.0,447.0,903.0,1.0,0,3650.0,1
697,697,-0.3516151429291281,-0.4,1.0,0.0,471.0,858.0,0.0,0,141.0,1
698,698,-0.508430529014167,-0.5,1.0,0.0,372.0,571.0,0.0,0,197.0,1
699,699,0.8758810436273506,0.9,0.0,0.0,392.0,563.0,0.0,1,555.0,1
700,700,-0.7799369222312525,-0.8,1.0,0.0,345.0,614.0,0.0,0,161.0,1
701,701,0.412990252440801,0.4,1.0,1.0,314.0,867.0,1.0,1,139.0,1
702,702,-0.14062787280529065,-0.1,1.0,0.0,363.0,916.0,0.0,0,191.0,1
703,703,-0.2345359670593551,-0.2,0.0,1.0,436.0,691.0,1.0,0,633.0,1
704,704,0.47415850638086854,0.5,0.0,0.0,379.0,848.0,0.0,1,233.0,1
705,705,0.6470651916097995,0.6,0.0,0.0,273.0,526.0,0.0,1,351.0,1
706,706,-0.5120486579055489,-0.5,1.0,0.0,272.0,992.0,0.0,0,116.0,1
707,707,-0.3139533508078546,-0.3,1.0,0.0,329.0,660.0,0.0,0,261.0,1
708,708,0.200530159653744,0.2,1.0,1.0,264.0,719.0,1.0,1,317.0,1
709,709,0.4040728564528141,0.4,1.0,1.0,334.0,685.0,1.0,1,171.0,1
710,710,-0.713207801058799,-0.7,0.0,1.0,447.0,649.0,1.0,0,284.0,1
711,711,0.6165987318123799,0.6,0.0,0.0,268.0,899.0,0.0,1,163.0,1
712,712,-0.43174759672794777,-0.4,0.0,1.0,258.0,760.0,1.0,0,252.0,1
713,713,0.6090186680569244,0.6,0.0,0.0,348.0,866.0,0.0,1,256.0,1
714,714,-0.22232805006618284,-0.2,0.0,1.0,396.0,924.0,1.0,0,230.0,1
715,715,0.07309976582625344,0.1,0.0,0.0,356.0,929.0,0.0,1,665.0,1
716,716,0.7777862781500152,0.8,0.0,0.0,274.0,828.0,0.0,1,138.0,1
717,717,-0.18326829933770616,-0.2,1.0,0.0,434.0,900.0,0.0,0,226.0,1
718,718,-0.8253899709236275,-0.8,0.0,1.0,392.0,757.0,1.0,0,161.0,1
719,719,0.8795418395772571,0.9,0.0,0.0,340.0,967.0,0.0,1,143.0,1
720,720,0.2120073807288133,0.2,1.0,1.0,284.0,588.0,1.0,1,278.0,1
721,721,0.4885708538089649,0.5,0.0,0.0,342.0,733.0,0.0,1,415.0,1
722,722,0.6267421627845308,0.6,1.0,1.0,284.0,632.0,1.0,1,134.0,1
723,723,0.5788383548426749,0.6,0.0,0.0,343.0,624.0,0.0,1,4033.0,1
724,724,0.6694232105032892,0.7,1.0,1.0,398.0,755.0,1.0,1,117.0,1
725,725,-0.8206031498419855,-0.8,0.0,1.0,319.0,793.0,1.0,0,158.0,1
726,726,-0.8370074221935835,-0.8,1.0,0.0,387.0,638.0,0.0,0,175.0,1
727,727,-0.4266640977511102,-0.4,0.0,1.0,437.0,728.0,1.0,0,255.0,1
728,728,0.7837442784218956,0.8,0.0,0.0,404.0,945.0,0.0,1,161.0,1
729,729,0.15698454619117286,0.2,0.0,0.0,453.0,935.0,0.0,1,232.0,1
730,730,0.2525547981511588,0.3,0.0,0.0,385.0,951.0,0.0,1,284.0,1
731,731,0.5135258465613085,0.5,1.0,1.0,383.0,962.0,1.0,1,85.0,1
732,732,-0.2673964618280026,-0.3,1.0,0.0,334.0,510.0,0.0,0,286.0,1
733,733,-0.8890878719258831,-0.9,0.0,1.0,394.0,730.0,1.0,0,196.0,1
734,734,0.33623684611160776,0.3,0.0,0.0,483.0,805.0,0.0,1,422.0,1
735,735,-0.814177549347735,-0.8,1.0,0.0,465.0,846.0,0.0,0,79.0,1
736,736,0.2815157121219757,0.3,1.0,1.0,405.0,536.0,1.0,1,629.0,1
737,737,0.09129893382919274,0.1,0.0,0.0,495.0,764.0,0.0,1,581.0,1
738,738,-0.7311838400742076,-0.7,1.0,0.0,459.0,922.0,0.0,0,109.0,1
739,739,-0.36235127395850764,-0.4,1.0,0.0,495.0,629.0,0.0,0,226.0,1
740,740,0.6605494776963613,0.7,0.0,0.0,434.0,571.0,0.0,1,3995.0,1
741,741,0.8701161804126184,0.9,0.0,0.0,429.0,770.0,0.0,1,521.0,1
742,742,0.29900110109252365,0.3,0.0,0.0,467.0,749.0,0.0,1,494.0,1
743,743,0.14578925143794652,0.1,0.0,0.0,335.0,554.0,0.0,1,781.0,1
744,744,0.6287257483706922,0.6,0.0,0.0,350.0,739.0,0.0,1,251.0,1
745,745,-0.5534263564362216,-0.6,0.0,1.0,324.0,902.0,1.0,0,214.0,1
746,746,-0.2944829108752871,-0.3,1.0,0.0,356.0,982.0,0.0,0,112.0,1
747,747,0.0008816801708096955,0.0,1.0,1.0,366.0,830.0,0.0,0,3804.0,0
748,748,0.06888441934909684,0.1,1.0,1.0,316.0,863.0,1.0,1,821.0,1
749,749,0.6543644521467701,0.7,0.0,0.0,426.0,675.0,0.0,1,3899.0,1
750,750,0.8555309817719959,0.9,0.0,0.0,251.0,965.0,0.0,1,144.0,1
751,751,0.48005182231660515,0.5,0.0,0.0,449.0,501.0,0.0,1,1240.0,1
752,752,0.8197217943371401,0.8,1.0,1.0,283.0,698.0,1.0,1,159.0,1
753,753,-0.8477644446903885,-0.8,0.0,1.0,306.0,744.0,1.0,0,150.0,1
754,754,-0.38459608676793566,-0.4,0.0,1.0,261.0,535.0,1.0,0,494.0,1
755,755,-0.49084685841043035,-0.5,1.0,0.0,430.0,765.0,0.0,0,135.0,1
756,756,0.660404859444831,0.7,0.0,0.0,380.0,896.0,0.0,1,144.0,1
757,757,-0.05947881550709577,-0.1,1.0,0.0,425.0,507.0,0.0,0,1098.0,1
758,758,0.30815324080428874,0.3,1.0,1.0,303.0,739.0,1.0,1,208.0,1
759,759,-0.36029333646594497,-0.4,0.0,1.0,266.0,980.0,1.0,0,234.0,1
760,760,0.5983429472250968,0.6,0.0,0.0,381.0,856.0,0.0,1,453.0,1
761,761,0.8565897708958093,0.9,0.0,0.0,293.0,716.0,0.0,1,331.0,1
762,762,0.8546676567688004,0.9,1.0,1.0,443.0,927.0,1.0,1,140.0,1
763,763,-0.14143716463982214,-0.1,0.0,1.0,364.0,754.0,1.0,0,362.0,1
764,764,0.17674925057122526,0.2,0.0,0.0,276.0,781.0,0.0,1,343.0,1
765,765,-0.7486437485562016,-0.7,1.0,0.0,355.0,687.0,0.0,0,148.0,1
766,766,-0.6554927621035064,-0.7,1.0,0.0,327.0,676.0,0.0,0,167.0,1
767,767,-0.25266003191267283,-0.3,0.0,1.0,262.0,591.0,1.0,0,367.0,1
768,768,-0.6576123386906569,-0.7,0.0,1.0,474.0,600.0,1.0,0,236.0,1
769,769,-0.8427531047559907,-0.8,0.0,1.0,337.0,581.0,1.0,0,312.0,1
770,770,-0.7144027844809613,-0.7,1.0,0.0,379.0,605.0,0.0,0,176.0,1
771,771,0.5282423319360751,0.5,1.0,1.0,297.0,938.0,1.0,1,125.0,1
772,772,-0.36512190715603654,-0.4,0.0,1.0,478.0,506.0,1.0,0,466.0,1
773,773,0.25974325538822984,0.3,1.0,1.0,295.0,841.0,1.0,1,154.0,1
774,774,-0.18399233537967397,-0.2,0.0,1.0,440.0,833.0,1.0,0,387.0,1
775,775,0.5209394946167324,0.5,0.0,0.0,294.0,810.0,0.0,1,256.0,1
776,776,-0.16279254461916315,-0.2,1.0,0.0,411.0,923.0,0.0,0,226.0,1
777,777,0.7237326794252837,0.7,0.0,0.0,336.0,548.0,0.0,1,4116.0,1
778,778,-0.3479351473829265,-0.3,0.0,1.0,309.0,972.0,1.0,0,299.0,1
779,779,-0.5865311743292074,-0.6,0.0,1.0,492.0,923.0,1.0,0,155.0,1
780,780,0.19357164579842945,0.2,1.0,1.0,480.0,980.0,1.0,1,140.0,1
781,781,0.7023395930431858,0.7,1.0,1.0,277.0,588.0,1.0,1,195.0,1
782,782,-0.5499884045225768,-0.5,0.0,1.0,360.0,527.0,1.0,0,533.0,1
783,783,-0.27857516619784395,-0.3,0.0,1.0,256.0,831.0,1.0,0,233.0,1
784,784,0.3701814177008439,0.4,0.0,0.0,434.0,502.0,0.0,1,544.0,1
785,785,0.791326468511142,0.8,0.0,0.0,494.0,844.0,0.0,1,152.0,1
786,786,0.353742281672513,0.4,1.0,1.0,454.0,789.0,1.0,1,217.0,1
787,787,0.6170453584851746,0.6,0.0,0.0,450.0,950.0,0.0,1,150.0,1
788,788,-0.6227661190206286,-0.6,1.0,0.0,347.0,889.0,0.0,0,124.0,1
789,789,0.2789288451779969,0.3,0.0,0.0,317.0,740.0,0.0,1,333.0,1
790,790,0.4493486065334712,0.4,1.0,1.0,257.0,614.0,1.0,1,209.0,1
791,791,-0.2825107569868207,-0.3,1.0,0.0,330.0,754.0,0.0,0,246.0,1
792,792,0.2279998099428685,0.2,0.0,0.0,373.0,606.0,0.0,1,541.0,1
793,793,-0.47677602389687623,-0.5,1.0,0.0,331.0,554.0,0.0,0,215.0,1
794,794,-0.054780712037404755,-0.1,0.0,1.0,492.0,592.0,1.0,0,3916.0,1
795,795,-0.11003057343782463,-0.1,1.0,0.0,264.0,953.0,0.0,0,253.0,1
796,796,0.5953370142230862,0.6,0.0,0.0,354.0,574.0,0.0,1,582.0,1
797,797,-0.509084741127983,-0.5,0.0,1.0,429.0,694.0,1.0,0,257.0,1
798,798,0.5075474314323173,0.5,1.0,1.0,391.0,564.0,1.0,1,265.0,1
799,799,-0.11362407097995564,-0.1,1.0,0.0,346.0,520.0,0.0,0,434.0,1
800,800,0.4853205083118023,0.5,1.0,1.0,272.0,746.0,1.0,1,152.0,1
801,801,-0.09991286357893858,-0.1,1.0,0.0,401.0,662.0,0.0,0,447.0,1
802,802,0.7166844575311654,0.7,1.0,1.0,352.0,657.0,1.0,1,181.0,1
803,803,0.06977107491956103,0.1,1.0,1.0,499.0,807.0,1.0,1,354.0,1
804,804,0.17565371993852696,0.2,1.0,1.0,425.0,881.0,1.0,1,174.0,1
805,805,-0.18477242896145385,-0.2,0.0,1.0,319.0,647.0,1.0,0,314.0,1
806,806,-0.8669025296824281,-0.9,1.0,0.0,424.0,591.0,0.0,0,125.0,1
807,807,0.5058066470018813,0.5,1.0,1.0,312.0,659.0,1.0,1,179.0,1
808,808,-0.5715818388063023,-0.6,0.0,1.0,327.0,963.0,1.0,0,130.0,1
809,809,-0.731588979785968,-0.7,1.0,0.0,304.0,678.0,0.0,0,138.0,1
810,810,0.06274210681999082,0.1,1.0,1.0,400.0,971.0,1.0,1,3629.0,1
811,811,0.6895288976778634,0.7,0.0,0.0,482.0,936.0,0.0,1,182.0,1
812,812,0.6794866728500494,0.7,0.0,0.0,443.0,613.0,0.0,1,464.0,1
813,813,0.7285573298568288,0.7,1.0,1.0,488.0,924.0,1.0,1,108.0,1
814,814,0.3296567693151137,0.3,0.0,0.0,361.0,614.0,0.0,1,765.0,1
815,815,0.2533220963490691,0.3,1.0,1.0,411.0,841.0,1.0,1,158.0,1
816,816,0.5035697819726398,0.5,1.0,1.0,379.0,560.0,1.0,1,251.0,1
817,817,-0.45793938852287414,-0.5,1.0,0.0,482.0,807.0,0.0,0,151.0,1
818,818,0.6878782349541729,0.7,0.0,0.0,350.0,917.0,0.0,1,143.0,1
819,819,0.3453865050738777,0.3,1.0,1.0,289.0,978.0,1.0,1,193.0,1
820,820,0.5347712823629985,0.5,1.0,1.0,455.0,632.0,1.0,1,163.0,1
821,821,0.6606841066685619,0.7,1.0,1.0,408.0,596.0,1.0,1,156.0,1
822,822,-0.4860418809925574,-0.5,1.0,0.0,299.0,678.0,0.0,0,163.0,1
823,823,-0.09838454266473262,-0.1,0.0,1.0,494.0,534.0,1.0,0,602.0,1
824,824,0.006954788667754674,0.0,0.0,0.0,423.0,934.0,0.0,1,3643.0,1
825,825,-0.5821675746821494,-0.6,0.0,1.0,404.0,500.0,1.0,0,476.0,1
826,826,0.18278125297279402,0.2,1.0,1.0,328.0,500.0,1.0,1,612.0,1
827,827,0.03854112914204355,0.0,1.0,1.0,349.0,646.0,1.0,1,4005.0,1
828,828,0.7440517974442368,0.7,0.0,0.0,348.0,818.0,0.0,1,194.0,1
829,829,0.8460177064598698,0.8,1.0,1.0,389.0,772.0,1.0,1,149.0,1
830,830,0.33778301006684164,0.3,1.0,1.0,254.0,918.0,1.0,1,188.0,1
831,831,-0.4568956414629602,-0.5,0.0,1.0,409.0,910.0,1.0,0,151.0,1
832,832,0.20177615268785665,0.2,1.0,1.0,360.0,720.0,1.0,1,400.0,1
833,833,0.8818967959547414,0.9,1.0,1.0,443.0,582.0,1.0,1,3975.0,1
834,834,0.3433657305932035,0.3,1.0,1.0,398.0,572.0,1.0,1,240.0,1
835,835,0.040231143063306773,0.0,1.0,1.0,431.0,981.0,1.0,1,3588.0,1
836,836,0.6479098364209755,0.6,1.0,1.0,283.0,584.0,1.0,1,163.0,1
837,837,-0.33376155523577844,-0.3,1.0,0.0,306.0,594.0,0.0,0,220.0,1
838,838,-0.04931746111890145,-0.0,0.0,1.0,265.0,744.0,1.0,0,3991.0,1
839,839,-0.597059978499644,-0.6,0.0,1.0,347.0,664.0,1.0,0,449.0,1
840,840,-0.5003722393176689,-0.5,0.0,1.0,288.0,510.0,1.0,0,612.0,1
841,841,0.3088767606286168,0.3,0.0,0.0,347.0,695.0,0.0,1,728.0,1
842,842,-0.3221251479273326,-0.3,0.0,1.0,347.0,704.0,1.0,0,319.0,1
843,843,-0.2198809462748621,-0.2,0.0,1.0,336.0,550.0,1.0,0,544.0,1
844,844,-0.1971959390280762,-0.2,0.0,1.0,442.0,859.0,1.0,0,319.0,1
845,845,0.8427116360751911,0.8,0.0,0.0,395.0,836.0,0.0,1,159.0,1
846,846,0.7723403800306229,0.8,0.0,0.0,382.0,695.0,0.0,1,293.0,1
847,847,-0.6946984937187337,-0.7,0.0,1.0,463.0,744.0,1.0,0,183.0,1
848,848,-0.41419594318090525,-0.4,0.0,1.0,448.0,897.0,1.0,0,205.0,1
849,849,0.055720955350012424,0.1,0.0,0.0,371.0,584.0,0.0,1,4045.0,1
850,850,-0.4996124644635695,-0.5,0.0,1.0,478.0,880.0,1.0,0,162.0,1
851,851,0.5322350611704157,0.5,0.0,0.0,338.0,510.0,0.0,1,572.0,1
852,852,-0.42090829952504005,-0.4,0.0,1.0,364.0,890.0,1.0,0,236.0,1
853,853,0.45925640805354495,0.5,0.0,0.0,329.0,738.0,0.0,1,283.0,1
854,854,-0.8333823380763472,-0.8,1.0,0.0,290.0,532.0,0.0,0,168.0,1
855,855,-0.292028161124274,-0.3,0.0,1.0,343.0,921.0,1.0,0,276.0,1
856,856,0.38749484876964113,0.4,0.0,0.0,449.0,909.0,0.0,1,262.0,1
857,857,-0.27417101583140935,-0.3,0.0,1.0,433.0,977.0,1.0,0,170.0,1
858,858,0.8678608422244757,0.9,1.0,1.0,402.0,678.0,1.0,1,140.0,1
859,859,0.880027679321893,0.9,0.0,0.0,316.0,977.0,0.0,1,127.0,1
860,860,-0.8279080701450171,-0.8,1.0,0.0,343.0,744.0,0.0,0,103.0,1
861,861,-0.18697796994497307,-0.2,1.0,0.0,345.0,553.0,0.0,0,342.0,1
862,862,0.360851807875343,0.4,1.0,1.0,461.0,920.0,1.0,1,159.0,1
863,863,-0.4057637794914042,-0.4,0.0,1.0,321.0,695.0,1.0,0,254.0,1
864,864,0.6367003471986764,0.6,1.0,1.0,289.0,669.0,1.0,1,142.0,1
865,865,0.5452745110749101,0.5,1.0,1.0,499.0,836.0,1.0,1,155.0,1
866,866,-0.18793762844697304,-0.2,1.0,0.0,325.0,530.0,0.0,0,255.0,1
867,867,-0.8123408087940674,-0.8,0.0,1.0,318.0,581.0,1.0,0,241.0,1
868,868,-0.2931197015419226,-0.3,1.0,0.0,262.0,587.0,0.0,0,271.0,1
869,869,0.21926712140940252,0.2,1.0,1.0,358.0,768.0,1.0,1,374.0,1
870,870,-0.7533869929433634,-0.8,0.0,1.0,426.0,551.0,1.0,0,273.0,1
871,871,0.32402710047410566,0.3,1.0,1.0,270.0,963.0,1.0,1,127.0,1
872,872,0.13302937256036473,0.1,1.0,1.0,475.0,872.0,1.0,1,223.0,1
873,873,-0.8170475564727049,-0.8,0.0,1.0,261.0,773.0,1.0,0,136.0,1
874,874,0.04602265629282343,0.0,1.0,1.0,352.0,567.0,1.0,1,4081.0,1
875,875,-0.7783567296817615,-0.8,0.0,1.0,346.0,827.0,1.0,0,127.0,1
876,876,0.781431490085419,0.8,1.0,1.0,309.0,723.0,1.0,1,128.0,1
877,877,0.2438018177853748,0.2,0.0,0.0,308.0,933.0,0.0,1,349.0,1
878,878,-0.22030982517072561,-0.2,0.0,1.0,279.0,608.0,1.0,0,383.0,1
879,879,-0.5898278719232397,-0.6,1.0,0.0,425.0,586.0,0.0,0,129.0,1
880,880,-0.6709213492086643,-0.7,1.0,0.0,432.0,617.0,0.0,0,201.0,1
881,881,0.5984659943034135,0.6,1.0,1.0,482.0,531.0,1.0,1,187.0,1
882,882,0.3018386529556313,0.3,0.0,0.0,302.0,825.0,0.0,1,423.0,1
883,883,0.7270590689516668,0.7,0.0,0.0,412.0,768.0,0.0,1,610.0,1
884,884,0.003990218248544841,0.0,1.0,1.0,419.0,746.0,0.0,0,3835.0,0
885,885,-0.21193456480891393,-0.2,0.0,1.0,286.0,933.0,1.0,0,251.0,1
886,886,-0.325100144210277,-0.3,0.0,1.0,308.0,883.0,1.0,0,209.0,1
887,887,-0.43448400360804074,-0.4,0.0,1.0,401.0,971.0,1.0,0,128.0,1
888,888,-0.7752579869183532,-0.8,0.0,1.0,494.0,974.0,1.0,0,132.0,1
889,889,0.17561222477062743,0.2,1.0,1.0,463.0,791.0,1.0,1,416.0,1
890,890,0.7836559433355746,0.8,1.0,1.0,395.0,774.0,1.0,1,111.0,1
891,891,-0.5146607058856061,-0.5,0.0,1.0,409.0,924.0,1.0,0,167.0,1
892,892,-0.3410082042011682,-0.3,0.0,1.0,479.0,689.0,1.0,0,242.0,1
893,893,-0.347897754453229,-0.3,1.0,0.0,331.0,885.0,0.0,0,204.0,1
894,894,-0.5056224167228391,-0.5,0.0,1.0,411.0,646.0,1.0,0,263.0,1
895,895,-0.4460418011145428,-0.4,1.0,0.0,470.0,733.0,0.0,0,207.0,1
896,896,-0.43541332306446395,-0.4,1.0,0.0,315.0,787.0,0.0,0,208.0,1
897,897,-0.03911831318136216,-0.0,0.0,1.0,418.0,782.0,1.0,0,3800.0,1
898,898,-0.5155413008493354,-0.5,1.0,0.0,274.0,550.0,0.0,0,166.0,1
899,899,-0.04137456864784228,-0.0,0.0,1.0,335.0,851.0,1.0,0,3814.0,1
900,900,0.8672328556247818,0.9,0.0,0.0,383.0,879.0,0.0,1,198.0,1
901,901,0.3004303753788876,0.3,0.0,0.0,452.0,535.0,0.0,1,583.0,1
902,902,-0.8936476895728935,-0.9,1.0,0.0,460.0,734.0,0.0,0,126.0,1
903,903,0.4005420238207892,0.4,1.0,1.0,400.0,894.0,1.0,1,216.0,1
904,904,0.7794556302964438,0.8,1.0,1.0,421.0,591.0,1.0,1,178.0,1
905,905,0.5616793658660505,0.6,1.0,1.0,283.0,698.0,1.0,1,179.0,1
906,906,-0.7618311024915294,-0.8,0.0,1.0,304.0,658.0,1.0,0,288.0,1
907,907,-0.42056552354764604,-0.4,1.0,0.0,352.0,857.0,0.0,0,121.0,1
908,908,0.8594828944450722,0.9,0.0,0.0,303.0,745.0,0.0,1,172.0,1
909,909,-0.5232882259545857,-0.5,1.0,0.0,334.0,530.0,0.0,0,206.0,1
910,910,0.7780807438453555,0.8,1.0,1.0,396.0,582.0,1.0,1,162.0,1
911,911,-0.28384218095865366,-0.3,1.0,0.0,278.0,737.0,0.0,0,255.0,1
912,912,-0.5710396172942451,-0.6,1.0,0.0,454.0,540.0,0.0,0,266.0,1
913,913,0.12476163992793332,0.1,1.0,1.0,385.0,603.0,1.0,1,4012.0,1
914,914,-0.5483250556658059,-0.5,1.0,0.0,402.0,524.0,0.0,0,234.0,1
915,915,0.5986137383907452,0.6,1.0,1.0,372.0,509.0,1.0,1,4119.0,1
916,916,0.7283437232550461,0.7,0.0,0.0,336.0,661.0,0.0,1,363.0,1
917,917,-0.10138710228390668,-0.1,1.0,0.0,376.0,964.0,0.0,0,410.0,1
918,918,0.6238574835510292,0.6,0.0,0.0,315.0,826.0,0.0,1,169.0,1
919,919,0.6526905893022591,0.7,1.0,1.0,296.0,833.0,1.0,1,111.0,1
920,920,0.8060841795679657,0.8,1.0,1.0,396.0,801.0,1.0,1,123.0,1
921,921,0.8540823256007141,0.9,1.0,1.0,404.0,891.0,1.0,1,115.0,1
922,922,0.7805744043969957,0.8,1.0,1.0,317.0,511.0,1.0,1,142.0,1
923,923,-0.1773001719153019,-0.2,1.0,0.0,296.0,849.0,0.0,0,225.0,1
924,924,0.44200797915826706,0.4,0.0,0.0,421.0,796.0,0.0,1,243.0,1
925,925,0.032250698215049,0.0,0.0,0.0,335.0,804.0,0.0,1,2711.0,1
926,926,0.8808167356062279,0.9,1.0,1.0,358.0,798.0,1.0,1,94.0,1
927,927,-0.42117189203434396,-0.4,0.0,1.0,472.0,970.0,1.0,0,148.0,1
928,928,0.13539969905965765,0.1,1.0,1.0,285.0,984.0,1.0,1,221.0,1
929,929,-0.20178565428950612,-0.2,0.0,1.0,342.0,929.0,1.0,0,249.0,1
930,930,-0.3619806329445606,-0.4,1.0,0.0,250.0,790.0,0.0,0,160.0,1
931,931,0.3465985490817366,0.3,0.0,0.0,383.0,793.0,0.0,1,334.0,1
932,932,0.8147089834690772,0.8,0.0,0.0,355.0,536.0,0.0,1,329.0,1
933,933,-0.36036058873530374,-0.4,0.0,1.0,460.0,703.0,1.0,0,267.0,1
934,934,0.548196799409412,0.5,1.0,1.0,329.0,813.0,1.0,1,148.0,1
935,935,-0.03650733238625503,-0.0,1.0,0.0,367.0,532.0,0.0,0,821.0,1
936,936,0.5686244679918216,0.6,0.0,0.0,336.0,841.0,0.0,1,203.0,1
937,937,-0.02578652270427695,-0.0,1.0,0.0,368.0,898.0,0.0,0,1144.0,1
938,938,-0.2485630468721447,-0.2,0.0,1.0,461.0,811.0,1.0,0,178.0,1
939,939,0.027445939727557933,0.0,0.0,0.0,266.0,832.0,0.0,1,3902.0,1
940,940,-0.13566010507113024,-0.1,1.0,0.0,287.0,954.0,0.0,0,179.0,1
941,941,-0.764336974462208,-0.8,0.0,1.0,314.0,881.0,1.0,0,145.0,1
942,942,-0.4131971946248168,-0.4,0.0,1.0,422.0,846.0,1.0,0,182.0,1
943,943,-0.69346113529891,-0.7,1.0,0.0,371.0,579.0,0.0,0,130.0,1
944,944,-0.3471497622245949,-0.3,1.0,0.0,497.0,750.0,0.0,0,283.0,1
945,945,-0.23592327776116906,-0.2,1.0,0.0,423.0,662.0,0.0,0,315.0,1
946,946,0.18530174462493598,0.2,0.0,0.0,274.0,808.0,0.0,1,348.0,1
947,947,0.8085033103924845,0.8,1.0,1.0,413.0,718.0,1.0,1,149.0,1
948,948,0.8526489032386199,0.9,1.0,1.0,463.0,828.0,1.0,1,119.0,1
949,949,-0.8253794972994134,-0.8,1.0,0.0,499.0,553.0,0.0,0,178.0,1
950,950,-0.0401390487119091,-0.0,1.0,0.0,308.0,766.0,0.0,0,1926.0,1
951,951,-0.1658779795510097,-0.2,0.0,1.0,399.0,856.0,1.0,0,265.0,1
952,952,0.31554867226730055,0.3,0.0,0.0,252.0,599.0,0.0,1,669.0,1
953,953,0.3481284545344018,0.3,0.0,0.0,406.0,998.0,0.0,1,236.0,1
954,954,-0.46156886418262033,-0.5,0.0,1.0,418.0,688.0,1.0,0,314.0,1
955,955,-0.39200336882955544,-0.4,0.0,1.0,291.0,534.0,1.0,0,585.0,1
956,956,-0.8047127987504944,-0.8,0.0,1.0,312.0,872.0,1.0,0,126.0,1
957,957,-0.03980457969108486,-0.0,1.0,0.0,276.0,588.0,0.0,0,876.0,1
958,958,-0.7359288906445328,-0.7,0.0,1.0,319.0,705.0,1.0,0,166.0,1
959,959,-0.17021084413827825,-0.2,0.0,1.0,281.0,510.0,1.0,0,669.0,1
960,960,-0.2895173762290757,-0.3,0.0,1.0,454.0,765.0,1.0,0,271.0,1
961,961,0.16340853121493037,0.2,0.0,0.0,384.0,616.0,0.0,1,770.0,1
962,962,-0.4092087078734552,-0.4,0.0,1.0,420.0,749.0,1.0,0,321.0,1
963,963,0.2228150483507746,0.2,1.0,1.0,416.0,548.0,1.0,1,396.0,1
964,964,-0.4413567120343716,-0.4,0.0,1.0,470.0,867.0,1.0,0,163.0,1
965,965,0.7906437739675806,0.8,0.0,0.0,322.0,836.0,0.0,1,182.0,1
966,966,-0.6485954975647716,-0.6,1.0,0.0,469.0,627.0,0.0,0,124.0,1
967,967,0.1560566564185114,0.2,1.0,1.0,325.0,990.0,1.0,1,235.0,1
968,968,0.6818871138798769,0.7,0.0,0.0,422.0,978.0,0.0,1,130.0,1
969,969,0.2365083556522415,0.2,0.0,0.0,300.0,967.0,0.0,1,263.0,1
970,970,-0.47091803864736026,-0.5,1.0,0.0,342.0,614.0,0.0,0,174.0,1
971,971,-0.7553628816789855,-0.8,0.0,1.0,393.0,563.0,1.0,0,284.0,1
972,972,0.23264247855112152,0.2,0.0,0.0,409.0,614.0,0.0,1,607.0,1
973,973,-0.7403186135743628,-0.7,0.0,1.0,495.0,960.0,1.0,0,125.0,1
974,974,-0.7120443886697715,-0.7,1.0,0.0,312.0,563.0,0.0,0,135.0,1
975,975,-0.292905564052935,-0.3,1.0,0.0,265.0,915.0,0.0,0,150.0,1
976,976,0.09679643260931525,0.1,1.0,1.0,406.0,882.0,1.0,1,352.0,1
977,977,-0.8172781609259302,-0.8,0.0,1.0,339.0,546.0,1.0,0,405.0,1
978,978,0.5003363272556928,0.5,1.0,1.0,417.0,539.0,1.0,1,214.0,1
979,979,0.5547826820012386,0.6,1.0,1.0,396.0,635.0,1.0,1,199.0,1
980,980,0.7092118192037996,0.7,1.0,1.0,357.0,609.0,1.0,1,154.0,1
981,981,-0.7525574517203526,-0.8,1.0,0.0,368.0,699.0,0.0,0,123.0,1
982,982,-0.13322516221763936,-0.1,1.0,0.0,413.0,807.0,0.0,0,350.0,1
983,983,0.6202808391759863,0.6,0.0,0.0,281.0,578.0,0.0,1,4141.0,1
984,984,0.3917229758339881,0.4,0.0,0.0,461.0,665.0,0.0,1,954.0,1
985,985,-0.35041281718945816,-0.4,1.0,0.0,449.0,743.0,0.0,0,198.0,1
986,986,0.6646337250178541,0.7,0.0,0.0,304.0,504.0,0.0,1,372.0,1
987,987,-0.11612482698121762,-0.1,0.0,1.0,466.0,875.0,1.0,0,599.0,1
988,988,0.38263161349338015,0.4,0.0,0.0,360.0,791.0,0.0,1,329.0,1
989,989,-0.19003425806354823,-0.2,0.0,1.0,288.0,584.0,1.0,0,678.0,1
990,990,0.7384272217699553,0.7,0.0,0.0,405.0,900.0,0.0,1,135.0,1
991,991,-0.6912849399836337,-0.7,0.0,1.0,385.0,982.0,1.0,0,93.0,1
992,992,0.5329422455160099,0.5,1.0,1.0,471.0,687.0,1.0,1,272.0,1
993,993,-0.3226914551840374,-0.3,1.0,0.0,396.0,847.0,0.0,0,167.0,1
994,994,-0.00791888048907241,-0.0,1.0,0.0,356.0,603.0,0.0,0,1671.0,1
995,995,0.644952465095402,0.6,0.0,0.0,260.0,645.0,0.0,1,235.0,1
996,996,-0.4428458812981432,-0.4,0.0,1.0,416.0,768.0,1.0,0,216.0,1
997,997,-0.32758768660060256,-0.3,1.0,0.0,434.0,546.0,0.0,0,290.0,1
998,998,0.12287291657787425,0.1,0.0,0.0,373.0,897.0,0.0,1,290.0,1
999,999,0.754710810632853,0.8,1.0,1.0,486.0,544.0,1.0,1,200.0,1
1000,1000,0.25307702929720566,0.3,1.0,1.0,470.0,816.0,1.0,1,154.0,1
1001,1001,-0.7203453354001508,-0.7,0.0,1.0,405.0,943.0,1.0,0,112.0,1
1002,1002,-0.15885172182907736,-0.2,1.0,0.0,399.0,872.0,0.0,0,219.0,1
1003,1003,0.4654895576447816,0.5,1.0,1.0,469.0,991.0,1.0,1,70.0,1
1004,1004,0.12429809959616855,0.1,1.0,1.0,479.0,558.0,1.0,1,473.0,1
1005,1005,-0.09921036209438672,-0.1,1.0,0.0,285.0,927.0,0.0,0,248.0,1
1006,1006,0.4778085966527953,0.5,1.0,1.0,341.0,728.0,1.0,1,181.0,1
1007,1007,-0.6603778796236707,-0.7,1.0,0.0,273.0,592.0,0.0,0,155.0,1
1008,1008,-0.6324673347619975,-0.6,1.0,0.0,431.0,568.0,0.0,0,171.0,1
1009,1009,-0.3844754983087695,-0.4,1.0,0.0,332.0,841.0,0.0,0,77.0,1
1010,1010,-0.42979334678581477,-0.4,0.0,1.0,365.0,830.0,1.0,0,225.0,1
1011,1011,-0.14147613457930308,-0.1,0.0,1.0,365.0,650.0,1.0,0,485.0,1
1012,1012,0.7763186996876937,0.8,0.0,0.0,369.0,531.0,0.0,1,490.0,1
1013,1013,0.2693208302866593,0.3,1.0,1.0,418.0,931.0,1.0,1,171.0,1
1014,1014,-0.341251406468845,-0.3,0.0,1.0,479.0,652.0,1.0,0,379.0,1
1015,1015,-0.31192996009063834,-0.3,0.0,1.0,376.0,865.0,1.0,0,229.0,1
1016,1016,-0.6626837513707369,-0.7,0.0,1.0,392.0,770.0,1.0,0,248.0,1
1017,1017,-0.7965178753305534,-0.8,0.0,1.0,287.0,530.0,1.0,0,223.0,1
1018,1018,0.16853019150009485,0.2,0.0,0.0,372.0,880.0,0.0,1,488.0,1
1019,1019,0.8085772754264909,0.8,0.0,0.0,396.0,945.0,0.0,1,149.0,1
1020,1020,-0.48562810939977286,-0.5,1.0,0.0,343.0,908.0,0.0,0,129.0,1
1021,1021,-0.1370088428319577,-0.1,1.0,0.0,446.0,752.0,0.0,0,322.0,1
1022,1022,0.3592186852407785,0.4,0.0,0.0,356.0,746.0,0.0,1,378.0,1
1023,1023,0.15222082936757897,0.2,1.0,1.0,287.0,642.0,1.0,1,4071.0,1
1024,1024,-0.3600058790506282,-0.4,0.0,1.0,273.0,517.0,1.0,0,480.0,1
1025,1025,-0.15004400899404524,-0.2,0.0,1.0,256.0,912.0,1.0,0,222.0,1
1026,1026,0.13284139534363948,0.1,0.0,0.0,406.0,837.0,0.0,1,447.0,1
1027,1027,-0.7357532292925045,-0.7,0.0,1.0,262.0,584.0,1.0,0,334.0,1
1028,1028,0.03822669920011401,0.0,1.0,1.0,476.0,703.0,1.0,1,1831.0,1
1029,1029,-0.02333383968054925,-0.0,1.0,0.0,293.0,567.0,0.0,0,720.0,1
1030,1030,-0.6274054173189382,-0.6,1.0,0.0,382.0,842.0,0.0,0,126.0,1
1031,1031,-0.069866024539322,-0.1,0.0,1.0,400.0,673.0,1.0,0,3927.0,1
1032,1032,0.2006318418588574,0.2,1.0,1.0,368.0,929.0,1.0,1,293.0,1
1033,1033,0.6970554268180894,0.7,0.0,0.0,397.0,695.0,0.0,1,228.0,1
1034,1034,-0.5301642078053479,-0.5,1.0,0.0,423.0,559.0,0.0,0,248.0,1
1035,1035,0.5213019848420809,0.5,1.0,1.0,462.0,780.0,1.0,1,278.0,1
1036,1036,0.22439710754255915,0.2,0.0,0.0,252.0,918.0,0.0,1,270.0,1
1037,1037,0.3445848641343149,0.3,1.0,1.0,308.0,945.0,1.0,1,117.0,1
1038,1038,-0.4894722317863143,-0.5,1.0,0.0,272.0,877.0,0.0,0,151.0,1
1039,1039,-0.09772368087432026,-0.1,0.0,1.0,469.0,765.0,1.0,0,2156.0,1
1040,1040,0.5763341414295365,0.6,1.0,1.0,396.0,699.0,1.0,1,185.0,1
1041,1041,0.21417710937282564,0.2,0.0,0.0,365.0,654.0,0.0,1,971.0,1
1042,1042,0.5814943356934171,0.6,0.0,0.0,408.0,599.0,0.0,1,513.0,1
1043,1043,-0.27307878496730476,-0.3,1.0,0.0,314.0,805.0,0.0,0,211.0,1
1044,1044,-0.7360189236304486,-0.7,1.0,0.0,271.0,734.0,0.0,0,95.0,1
1045,1045,0.10421229555886125,0.1,0.0,0.0,328.0,583.0,0.0,1,699.0,1
1046,1046,0.608430247732623,0.6,1.0,1.0,338.0,804.0,1.0,1,148.0,1
1047,1047,-0.2307099755070957,-0.2,0.0,1.0,314.0,776.0,1.0,0,210.0,1
1048,1048,-0.28556177281509776,-0.3,0.0,1.0,333.0,905.0,1.0,0,252.0,1
1049,1049,0.4561261285711268,0.5,1.0,1.0,258.0,762.0,1.0,1,200.0,1
1050,1050,0.0785934331350947,0.1,0.0,0.0,488.0,652.0,0.0,1,580.0,1
1051,1051,0.7657871707310616,0.8,1.0,1.0,480.0,639.0,1.0,1,3881.0,1
1052,1052,0.6921177807345903,0.7,0.0,0.0,378.0,962.0,0.0,1,140.0,1
1053,1053,0.2622597277063624,0.3,0.0,0.0,433.0,991.0,0.0,1,356.0,1
1054,1054,-0.49987249632551406,-0.5,0.0,1.0,467.0,814.0,1.0,0,179.0,1
1055,1055,-0.34945945265218115,-0.3,1.0,0.0,382.0,854.0,0.0,0,214.0,1
1056,1056,0.5941044417693019,0.6,1.0,1.0,450.0,986.0,1.0,1,134.0,1
1057,1057,0.8566631791292786,0.9,1.0,1.0,419.0,965.0,1.0,1,86.0,1
1058,1058,0.05881673142341848,0.1,0.0,0.0,252.0,603.0,0.0,1,745.0,1
1059,1059,0.6613591016526777,0.7,1.0,1.0,385.0,985.0,1.0,1,140.0,1
1060,1060,-0.15528546294235934,-0.2,1.0,0.0,263.0,603.0,0.0,0,314.0,1
1061,1061,-0.18419255020597125,-0.2,0.0,1.0,432.0,573.0,1.0,0,425.0,1
1062,1062,-0.5139760498444814,-0.5,1.0,0.0,335.0,531.0,0.0,0,254.0,1
1063,1063,-0.28259856002853023,-0.3,0.0,1.0,442.0,559.0,1.0,0,529.0,1
1064,1064,-0.601552702861295,-0.6,1.0,0.0,460.0,887.0,0.0,0,153.0,1
1065,1065,-0.4211944391310962,-0.4,0.0,1.0,494.0,578.0,1.0,0,288.0,1
1066,1066,-0.48362383692184846,-0.5,1.0,0.0,443.0,758.0,0.0,0,139.0,1
1067,1067,0.11961663585446403,0.1,1.0,1.0,391.0,899.0,1.0,1,330.0,1
1068,1068,0.3709687218313674,0.4,0.0,0.0,292.0,832.0,0.0,1,346.0,1
1069,1069,-0.7205870392255741,-0.7,0.0,1.0,295.0,823.0,1.0,0,152.0,1
1070,1070,-0.23244268653092848,-0.2,1.0,0.0,369.0,614.0,0.0,0,267.0,1
1071,1071,0.5417955074214947,0.5,1.0,1.0,363.0,649.0,1.0,1,168.0,1
1072,1072,-0.7764582144709706,-0.8,0.0,1.0,461.0,783.0,1.0,0,136.0,1
1073,1073,-0.4255548301884337,-0.4,1.0,0.0,497.0,750.0,0.0,0,183.0,1
1074,1074,0.3315650377025471,0.3,1.0,1.0,426.0,568.0,1.0,1,4006.0,1
1075,1075,-0.17968616658559322,-0.2,1.0,0.0,277.0,898.0,0.0,0,175.0,1
1076,1076,-0.15637741766186897,-0.2,0.0,1.0,352.0,532.0,1.0,0,636.0,1
1077,1077,0.8525542675522281,0.9,1.0,1.0,397.0,621.0,1.0,1,3982.0,1
1078,1078,-0.08230771178215146,-0.1,0.0,1.0,303.0,536.0,1.0,0,691.0,1
1079,1079,0.1759013387307501,0.2,0.0,0.0,420.0,521.0,0.0,1,579.0,1
1080,1080,-0.3639006579168099,-0.4,1.0,0.0,382.0,947.0,0.0,0,171.0,1
1081,1081,-0.11082783074485836,-0.1,0.0,1.0,441.0,791.0,1.0,0,2188.0,1
1082,1082,-0.7877020018526054,-0.8,1.0,0.0,376.0,969.0,0.0,0,105.0,1
1083,1083,0.4445657971149678,0.4,1.0,1.0,409.0,824.0,1.0,1,137.0,1
1084,1084,-0.31678603621060686,-0.3,0.0,1.0,301.0,604.0,1.0,0,655.0,1
1085,1085,0.2700164839370588,0.3,1.0,1.0,368.0,871.0,1.0,1,201.0,1
1086,1086,-0.4270980308763885,-0.4,0.0,1.0,291.0,639.0,1.0,0,270.0,1
1087,1087,-0.3647811372014611,-0.4,1.0,0.0,421.0,794.0,0.0,0,235.0,1
1088,1088,0.6912301780504125,0.7,0.0,0.0,486.0,943.0,0.0,1,181.0,1
1089,1089,-0.56376181408461,-0.6,0.0,1.0,391.0,502.0,1.0,0,317.0,1
1090,1090,-0.264027013781594,-0.3,1.0,0.0,290.0,892.0,0.0,0,288.0,1
1091,1091,-0.21557811893143908,-0.2,0.0,1.0,443.0,625.0,1.0,0,572.0,1
1092,1092,-0.14881969010987772,-0.1,0.0,1.0,475.0,941.0,1.0,0,364.0,1
1093,1093,-0.49279268857651537,-0.5,0.0,1.0,495.0,851.0,1.0,0,154.0,1
1094,1094,0.551577275309232,0.6,1.0,1.0,311.0,647.0,1.0,1,172.0,1
1095,1095,0.1468062919742118,0.1,1.0,1.0,428.0,585.0,1.0,1,3987.0,1
1096,1096,-0.04617174072503083,-0.0,0.0,1.0,311.0,750.0,1.0,0,3939.0,1
1097,1097,0.5277631626006821,0.5,1.0,1.0,256.0,742.0,1.0,1,172.0,1
1098,1098,0.0035728122056669642,0.0,1.0,1.0,335.0,503.0,0.0,0,4162.0,0
1099,1099,-0.6629143033918906,-0.7,1.0,0.0,362.0,833.0,0.0,0,95.0,1
1100,1100,0.5696366082228478,0.6,0.0,0.0,456.0,588.0,0.0,1,486.0,1
1101,1101,0.8172368609475483,0.8,1.0,1.0,454.0,888.0,1.0,1,118.0,1
1102,1102,0.840576783005469,0.8,0.0,0.0,296.0,509.0,0.0,1,375.0,1
1103,1103,0.7524800216137727,0.8,1.0,1.0,346.0,859.0,1.0,1,95.0,1
1104,1104,0.33646470839184406,0.3,0.0,0.0,277.0,607.0,0.0,1,1066.0,1
1105,1105,-0.002055828554820782,-0.0,0.0,1.0,469.0,910.0,0.0,1,3621.0,0
1106,1106,-0.6908827929855343,-0.7,1.0,0.0,308.0,753.0,0.0,0,139.0,1
1107,1107,-0.6448671801936243,-0.6,1.0,0.0,319.0,959.0,0.0,0,102.0,1
1108,1108,0.5100110575561124,0.5,0.0,0.0,259.0,977.0,0.0,1,304.0,1
1109,1109,-0.43045712487584137,-0.4,0.0,1.0,410.0,994.0,1.0,0,166.0,1
1110,1110,0.8738069284038613,0.9,1.0,1.0,355.0,518.0,1.0,1,4127.0,1
1111,1111,-0.48690113040322475,-0.5,1.0,0.0,317.0,892.0,0.0,0,131.0,1
1112,1112,0.08694271281227284,0.1,0.0,0.0,473.0,961.0,0.0,1,756.0,1
1113,1113,0.859402759592837,0.9,0.0,0.0,356.0,801.0,0.0,1,223.0,1
1114,1114,-0.10721410298951628,-0.1,0.0,1.0,493.0,632.0,1.0,0,445.0,1
1115,1115,0.827549710791975,0.8,1.0,1.0,399.0,949.0,1.0,1,112.0,1
1116,1116,-0.7141893629649321,-0.7,0.0,1.0,457.0,621.0,1.0,0,382.0,1
1117,1117,0.5331949555677175,0.5,0.0,0.0,392.0,835.0,0.0,1,293.0,1
1118,1118,0.01076560712830743,0.0,1.0,1.0,324.0,999.0,0.0,0,3677.0,0
1119,1119,-0.7239658299303058,-0.7,1.0,0.0,311.0,917.0,0.0,0,82.0,1
1120,1120,-0.6704097192428807,-0.7,0.0,1.0,352.0,821.0,1.0,0,187.0,1
1121,1121,-0.5719761021296706,-0.6,0.0,1.0,428.0,692.0,1.0,0,250.0,1
1122,1122,-0.48356912839645716,-0.5,0.0,1.0,415.0,573.0,1.0,0,642.0,1
1123,1123,-0.6099356527332914,-0.6,0.0,1.0,437.0,676.0,1.0,0,237.0,1
1124,1124,-0.5852869646545434,-0.6,1.0,0.0,483.0,701.0,0.0,0,176.0,1
1125,1125,-0.5344054256675203,-0.5,0.0,1.0,393.0,524.0,1.0,0,573.0,1
1126,1126,0.8180467430883792,0.8,0.0,0.0,326.0,965.0,0.0,1,139.0,1
1127,1127,-0.5297458144795637,-0.5,0.0,1.0,322.0,607.0,1.0,0,421.0,1
1128,1128,-0.39279928041297396,-0.4,1.0,0.0,425.0,512.0,0.0,0,283.0,1
1129,1129,-0.2431668441526309,-0.2,1.0,0.0,417.0,679.0,0.0,0,294.0,1
1130,1130,-0.3305333855399797,-0.3,0.0,1.0,379.0,901.0,1.0,0,160.0,1
1131,1131,-0.8790122748880933,-0.9,0.0,1.0,435.0,627.0,1.0,0,228.0,1
1132,1132,0.45835490432206394,0.5,0.0,0.0,276.0,683.0,0.0,1,3641.0,1
1133,1133,0.18635102331327624,0.2,0.0,0.0,286.0,524.0,0.0,1,860.0,1
1134,1134,0.5890206360262734,0.6,0.0,0.0,408.0,746.0,0.0,1,196.0,1
1135,1135,0.10068437908793937,0.1,0.0,0.0,339.0,813.0,0.0,1,898.0,1
1136,1136,0.39839209570170897,0.4,0.0,0.0,304.0,691.0,0.0,1,275.0,1
1137,1137,0.4704639557207869,0.5,0.0,0.0,417.0,871.0,0.0,1,192.0,1
1138,1138,-0.8010515682793312,-0.8,0.0,1.0,457.0,667.0,1.0,0,266.0,1
1139,1139,-0.7019454227239885,-0.7,0.0,1.0,298.0,619.0,1.0,0,253.0,1
1140,1140,-0.28541495886039914,-0.3,1.0,0.0,473.0,953.0,0.0,0,174.0,1
1141,1141,0.736580473375397,0.7,0.0,0.0,467.0,765.0,0.0,1,278.0,1
1142,1142,0.29197983582328757,0.3,0.0,0.0,291.0,646.0,0.0,1,603.0,1
1143,1143,-0.7918230718315686,-0.8,0.0,1.0,346.0,876.0,1.0,0,148.0,1
1144,1144,-0.5096197431839179,-0.5,0.0,1.0,340.0,943.0,1.0,0,137.0,1
1145,1145,-0.44447155902050944,-0.4,1.0,0.0,488.0,767.0,0.0,0,225.0,1
1146,1146,0.2604785832495814,0.3,1.0,1.0,408.0,800.0,1.0,1,212.0,1
1147,1147,-0.2533203721228764,-0.3,0.0,1.0,490.0,738.0,1.0,0,302.0,1
1148,1148,-0.7954231255146377,-0.8,1.0,0.0,381.0,773.0,0.0,0,136.0,1
1149,1149,0.01617707517415312,0.0,1.0,1.0,297.0,752.0,0.0,0,3951.0,0
1150,1150,0.4263645386235676,0.4,0.0,0.0,263.0,606.0,0.0,1,1241.0,1
1151,1151,0.8154226542230859,0.8,0.0,0.0,427.0,830.0,0.0,1,183.0,1
1152,1152,0.13185743077120493,0.1,0.0,0.0,290.0,910.0,0.0,1,350.0,1
1153,1153,-0.45954977222950316,-0.5,0.0,1.0,437.0,727.0,1.0,0,386.0,1
1154,1154,0.6163463750417976,0.6,1.0,1.0,496.0,821.0,1.0,1,133.0,1
1155,1155,-0.807164132093383,-0.8,0.0,1.0,394.0,562.0,1.0,0,224.0,1
1156,1156,0.4829195057232095,0.5,0.0,0.0,329.0,814.0,0.0,1,257.0,1
1157,1157,-0.2602772520806137,-0.3,1.0,0.0,327.0,842.0,0.0,0,171.0,1
1158,1158,-0.4718229824439189,-0.5,1.0,0.0,483.0,596.0,0.0,0,171.0,1
1159,1159,0.3490026829203977,0.3,1.0,1.0,371.0,899.0,1.0,1,180.0,1
1160,1160,0.6458838307898688,0.6,0.0,0.0,387.0,755.0,0.0,1,218.0,1
1161,1161,-0.1273252109512798,-0.1,0.0,1.0,298.0,651.0,1.0,0,531.0,1
1162,1162,-0.13560411181128895,-0.1,0.0,1.0,486.0,724.0,1.0,0,470.0,1
1163,1163,-0.08424925061225397,-0.1,1.0,0.0,252.0,520.0,0.0,0,538.0,1
1164,1164,0.039807941642855504,0.0,0.0,0.0,471.0,955.0,0.0,1,2254.0,1
1165,1165,0.025263036032420638,0.0,1.0,1.0,380.0,769.0,1.0,1,3851.0,1
1166,1166,0.7244557166573081,0.7,0.0,0.0,291.0,947.0,0.0,1,132.0,1
1167,1167,0.5594927648282019,0.6,0.0,0.0,489.0,596.0,0.0,1,545.0,1
1168,1168,0.5351337754545339,0.5,0.0,0.0,467.0,646.0,0.0,1,487.0,1
1169,1169,-0.30820361276127806,-0.3,1.0,0.0,348.0,823.0,0.0,0,189.0,1
1170,1170,0.504682394653902,0.5,1.0,1.0,451.0,577.0,1.0,1,3972.0,1
1171,1171,-0.41847734273603626,-0.4,0.0,1.0,403.0,666.0,1.0,0,291.0,1
1172,1172,0.8369617440753717,0.8,0.0,0.0,300.0,985.0,0.0,1,145.0,1
1173,1173,0.7001495729174624,0.7,0.0,0.0,406.0,996.0,0.0,1,128.0,1
1174,1174,0.21974088115485302,0.2,0.0,0.0,379.0,694.0,0.0,1,437.0,1
1175,1175,0.5362752665190246,0.5,0.0,0.0,332.0,860.0,0.0,1,398.0,1
1176,1176,-0.7666356681852811,-0.8,1.0,0.0,488.0,804.0,0.0,0,128.0,1
1177,1177,-0.5150286767944119,-0.5,1.0,0.0,256.0,540.0,0.0,0,244.0,1
1178,1178,-0.6728832447528057,-0.7,0.0,1.0,252.0,553.0,1.0,0,295.0,1
1179,1179,-0.333158806324382,-0.3,0.0,1.0,364.0,748.0,1.0,0,218.0,1
1180,1180,0.877975857669462,0.9,1.0,1.0,279.0,719.0,1.0,1,132.0,1
1181,1181,0.4334074282674515,0.4,0.0,0.0,364.0,991.0,0.0,1,155.0,1
1182,1182,0.23611501857395434,0.2,1.0,1.0,282.0,982.0,1.0,1,156.0,1
1183,1183,0.10133449824750296,0.1,0.0,0.0,474.0,973.0,0.0,1,583.0,1
1184,1184,0.24858724099260543,0.2,0.0,0.0,490.0,688.0,0.0,1,542.0,1
1185,1185,-0.303641136359593,-0.3,0.0,1.0,250.0,780.0,1.0,0,270.0,1
1186,1186,-0.8900374260901457,-0.9,0.0,1.0,321.0,964.0,1.0,0,125.0,1
1187,1187,-0.02385944705900145,-0.0,0.0,1.0,264.0,922.0,1.0,0,3814.0,1
1188,1188,0.10853475946558155,0.1,1.0,1.0,339.0,846.0,1.0,1,285.0,1
1189,1189,0.09828741389134943,0.1,1.0,1.0,399.0,962.0,1.0,1,3329.0,1
1190,1190,-0.1517369488407112,-0.2,0.0,1.0,406.0,549.0,1.0,0,685.0,1
1191,1191,-0.5767196917560731,-0.6,1.0,0.0,307.0,719.0,0.0,0,174.0,1
1192,1192,0.8229801996342351,0.8,1.0,1.0,367.0,722.0,1.0,1,121.0,1
1193,1193,-0.7428381500267776,-0.7,0.0,1.0,366.0,793.0,1.0,0,151.0,1
1194,1194,-0.6843319629589791,-0.7,0.0,1.0,349.0,996.0,1.0,0,155.0,1
1195,1195,0.23833366860253513,0.2,1.0,1.0,282.0,997.0,1.0,1,131.0,1
1196,1196,-0.6688929109404098,-0.7,0.0,1.0,459.0,944.0,1.0,0,127.0,1
1197,1197,-0.3142544628901178,-0.3,1.0,0.0,424.0,922.0,0.0,0,164.0,1
1198,1198,-0.04695970088871715,-0.0,0.0,1.0,284.0,967.0,1.0,0,3749.0,1
1199,1199,0.7448886475636193,0.7,1.0,1.0,361.0,794.0,1.0,1,115.0,1
1200,1200,-0.4172590555825679,-0.4,0.0,1.0,448.0,510.0,1.0,0,482.0,1
1201,1201,0.48813481928214075,0.5,1.0,1.0,441.0,628.0,1.0,1,251.0,1
1202,1202,0.041055552025354825,0.0,1.0,1.0,315.0,733.0,1.0,1,3952.0,1
1203,1203,0.3221570557738348,0.3,0.0,0.0,301.0,730.0,0.0,1,729.0,1
1204,1204,0.27672683232134043,0.3,1.0,1.0,411.0,718.0,1.0,1,341.0,1
1205,1205,0.3009861919761644,0.3,0.0,0.0,252.0,797.0,0.0,1,501.0,1
1206,1206,-0.283863887220538,-0.3,1.0,0.0,436.0,839.0,0.0,0,175.0,1
1207,1207,0.605812858991902,0.6,1.0,1.0,400.0,560.0,1.0,1,4040.0,1
1208,1208,0.41651015226164734,0.4,1.0,1.0,477.0,577.0,1.0,1,356.0,1
1209,1209,-0.8695052089661007,-0.9,1.0,0.0,401.0,914.0,0.0,0,75.0,1
1210,1210,-0.14985160791831953,-0.1,0.0,1.0,431.0,807.0,1.0,0,272.0,1
1211,1211,-0.3872711084926048,-0.4,0.0,1.0,472.0,944.0,1.0,0,164.0,1
1212,1212,-0.3577988860064575,-0.4,0.0,1.0,366.0,746.0,1.0,0,228.0,1
1213,1213,0.8791380649638555,0.9,1.0,1.0,478.0,700.0,1.0,1,152.0,1
1214,1214,-0.7033845759511387,-0.7,1.0,0.0,407.0,807.0,0.0,0,86.0,1
1215,1215,-0.3195956797608175,-0.3,0.0,1.0,323.0,942.0,1.0,0,105.0,1
1216,1216,-0.3597184662999118,-0.4,1.0,0.0,361.0,729.0,0.0,0,140.0,1
1217,1217,0.8161481974328669,0.8,1.0,1.0,421.0,774.0,1.0,1,115.0,1
1218,1218,0.15913353000362063,0.2,0.0,0.0,499.0,623.0,0.0,1,558.0,1
1219,1219,-0.07382119172024948,-0.1,1.0,0.0,315.0,802.0,0.0,0,393.0,1
1220,1220,0.33509886695752045,0.3,0.0,0.0,446.0,835.0,0.0,1,369.0,1
1221,1221,0.30500234800421067,0.3,0.0,0.0,428.0,511.0,0.0,1,631.0,1
1222,1222,0.790758859404013,0.8,0.0,0.0,376.0,610.0,0.0,1,204.0,1
1223,1223,-0.7565271877615576,-0.8,1.0,0.0,399.0,989.0,0.0,0,72.0,1
1224,1224,-0.38576432986057874,-0.4,1.0,0.0,334.0,945.0,0.0,0,171.0,1
1225,1225,-0.8567680183951708,-0.9,0.0,1.0,484.0,511.0,1.0,0,285.0,1
1226,1226,-0.16896752267566695,-0.2,0.0,1.0,470.0,862.0,1.0,0,288.0,1
1227,1227,-0.6354330909597276,-0.6,0.0,1.0,273.0,914.0,1.0,0,123.0,1
1228,1228,-0.3854671713124571,-0.4,0.0,1.0,367.0,831.0,1.0,0,192.0,1
1229,1229,0.8348874799851932,0.8,1.0,1.0,261.0,840.0,1.0,1,129.0,1
1230,1230,-0.5867625169379181,-0.6,0.0,1.0,462.0,528.0,1.0,0,440.0,1
1231,1231,-0.8142322865810526,-0.8,1.0,0.0,413.0,532.0,0.0,0,205.0,1
1232,1232,-0.48785395897766326,-0.5,0.0,1.0,323.0,944.0,1.0,0,113.0,1
1233,1233,0.7682196309933397,0.8,0.0,0.0,492.0,523.0,0.0,1,545.0,1
1234,1234,-0.004724292160018351,-0.0,1.0,0.0,284.0,641.0,1.0,1,4075.0,0
1235,1235,0.36236428544017774,0.4,1.0,1.0,291.0,946.0,1.0,1,203.0,1
1236,1236,0.7803390373096472,0.8,0.0,0.0,465.0,628.0,0.0,1,3907.0,1
1237,1237,-0.670159045184471,-0.7,0.0,1.0,451.0,884.0,1.0,0,145.0,1
1238,1238,0.11807286185983557,0.1,0.0,0.0,406.0,556.0,0.0,1,708.0,1
1239,1239,0.7498706147498905,0.7,0.0,0.0,344.0,684.0,0.0,1,242.0,1
1240,1240,0.6998160625237474,0.7,1.0,1.0,464.0,674.0,1.0,1,102.0,1
1241,1241,0.2559755888490681,0.3,1.0,1.0,333.0,504.0,1.0,1,4163.0,1
1242,1242,0.1411454840904106,0.1,0.0,0.0,308.0,600.0,0.0,1,732.0,1
1243,1243,0.6685461950031054,0.7,0.0,0.0,443.0,999.0,0.0,1,148.0,1
1244,1244,-0.856098941649467,-0.9,1.0,0.0,332.0,967.0,0.0,0,91.0,1
1245,1245,-0.6163897717052962,-0.6,1.0,0.0,283.0,606.0,0.0,0,221.0,1
1246,1246,0.4042868576994828,0.4,1.0,1.0,369.0,509.0,1.0,1,4122.0,1
1247,1247,-0.08127384093746448,-0.1,0.0,1.0,402.0,657.0,1.0,0,601.0,1
1248,1248,0.056841907125447455,0.1,0.0,0.0,460.0,963.0,0.0,1,627.0,1
1249,1249,0.30119734565972733,0.3,0.0,0.0,297.0,871.0,0.0,1,292.0,1
1250,1250,0.37490454138410423,0.4,0.0,0.0,328.0,996.0,0.0,1,176.0,1
1251,1251,-0.05388543336606988,-0.1,1.0,0.0,393.0,544.0,0.0,0,603.0,1
1252,1252,0.7969647813307342,0.8,1.0,1.0,477.0,816.0,1.0,1,127.0,1
1253,1253,-0.45806687217443776,-0.5,1.0,0.0,375.0,851.0,0.0,0,124.0,1
1254,1254,-0.4957076102515722,-0.5,1.0,0.0,336.0,719.0,0.0,0,215.0,1
1255,1255,0.8622946014869003,0.9,1.0,1.0,446.0,904.0,1.0,1,110.0,1
1256,1256,0.6730822878164712,0.7,1.0,1.0,311.0,631.0,1.0,1,158.0,1
1257,1257,0.26465336162100084,0.3,1.0,1.0,257.0,998.0,1.0,1,135.0,1
1258,1258,-0.5085792274589302,-0.5,1.0,0.0,263.0,829.0,0.0,0,138.0,1
1259,1259,0.3923917812958858,0.4,1.0,1.0,274.0,788.0,1.0,1,208.0,1
1260,1260,0.013580227879036233,0.0,0.0,0.0,295.0,807.0,0.0,1,3898.0,1
1261,1261,-0.4366405501657198,-0.4,0.0,1.0,455.0,971.0,1.0,0,94.0,1
1262,1262,-0.41128552737138196,-0.4,1.0,0.0,409.0,620.0,0.0,0,221.0,1
1263,1263,0.2559690049026838,0.3,0.0,0.0,298.0,648.0,0.0,1,484.0,1
1264,1264,-0.009610709525352479,-0.0,0.0,1.0,318.0,910.0,1.0,0,3772.0,1
1265,1265,0.29533518587225205,0.3,0.0,0.0,275.0,929.0,0.0,1,286.0,1
1266,1266,0.6667842047805238,0.7,0.0,0.0,330.0,820.0,0.0,1,170.0,1
1267,1267,0.6710863621071711,0.7,1.0,1.0,298.0,636.0,1.0,1,186.0,1
1268,1268,0.31859848001445734,0.3,1.0,1.0,403.0,554.0,1.0,1,4043.0,1
1269,1269,0.25909407863188927,0.3,1.0,1.0,279.0,894.0,1.0,1,197.0,1
1270,1270,0.8843141838785747,0.9,0.0,0.0,354.0,749.0,0.0,1,167.0,1
1271,1271,0.7376245772181523,0.7,1.0,1.0,291.0,520.0,1.0,1,4189.0,1
1272,1272,-0.25026083841078106,-0.3,1.0,0.0,406.0,957.0,0.0,0,187.0,1
1273,1273,-0.2523694372117109,-0.3,1.0,0.0,471.0,878.0,0.0,0,261.0,1
1274,1274,0.4428365516414622,0.4,1.0,1.0,336.0,565.0,1.0,1,219.0,1
1275,1275,-0.6509845259224816,-0.7,1.0,0.0,372.0,833.0,0.0,0,115.0,1
1276,1276,-0.7562698152804396,-0.8,1.0,0.0,253.0,733.0,0.0,0,114.0,1
1277,1277,0.799536528855353,0.8,1.0,1.0,262.0,863.0,1.0,1,95.0,1
1278,1278,-0.27404722843531404,-0.3,1.0,0.0,388.0,931.0,0.0,0,231.0,1
1279,1279,0.5405770787202512,0.5,1.0,1.0,285.0,805.0,1.0,1,150.0,1
1280,1280,0.7642964332734027,0.8,1.0,1.0,409.0,936.0,1.0,1,95.0,1
1281,1281,0.5330208851631778,0.5,0.0,0.0,266.0,964.0,0.0,1,210.0,1
1282,1282,0.32889746594157543,0.3,1.0,1.0,276.0,509.0,1.0,1,245.0,1
1283,1283,-0.19114442644245977,-0.2,0.0,1.0,460.0,828.0,1.0,0,302.0,1
1284,1284,0.8287586514006716,0.8,0.0,0.0,482.0,780.0,0.0,1,198.0,1
1285,1285,-0.8719083424044253,-0.9,0.0,1.0,423.0,685.0,1.0,0,232.0,1
1286,1286,-0.13502727863318986,-0.1,0.0,1.0,449.0,638.0,1.0,0,423.0,1
1287,1287,-0.6515402913969998,-0.7,1.0,0.0,493.0,517.0,0.0,0,160.0,1
1288,1288,0.4580455016793318,0.5,0.0,0.0,290.0,542.0,0.0,1,508.0,1
1289,1289,-0.3054793195616138,-0.3,0.0,1.0,424.0,994.0,1.0,0,132.0,1
1290,1290,0.5312076738249544,0.5,1.0,1.0,487.0,822.0,1.0,1,121.0,1
1291,1291,0.7471923935676726,0.7,1.0,1.0,253.0,697.0,1.0,1,150.0,1
1292,1292,0.799317623396076,0.8,0.0,0.0,443.0,824.0,0.0,1,173.0,1
1293,1293,-0.3416805412916343,-0.3,1.0,0.0,292.0,757.0,0.0,0,141.0,1
1294,1294,0.8829036506191738,0.9,0.0,0.0,300.0,886.0,0.0,1,204.0,1
1295,1295,0.15788148445189953,0.2,1.0,1.0,449.0,885.0,1.0,1,3666.0,1
1296,1296,-0.7890478195226247,-0.8,1.0,0.0,254.0,814.0,0.0,0,102.0,1
1297,1297,-0.6923022018403371,-0.7,0.0,1.0,272.0,924.0,1.0,0,164.0,1
1298,1298,0.8001288463247594,0.8,1.0,1.0,313.0,570.0,1.0,1,227.0,1
1299,1299,-0.12729074537713014,-0.1,1.0,0.0,390.0,831.0,0.0,0,349.0,1
1300,1300,0.29444750665216046,0.3,0.0,0.0,328.0,889.0,0.0,1,183.0,1
1301,1301,0.39031656021112615,0.4,0.0,0.0,267.0,557.0,0.0,1,676.0,1
1302,1302,-0.5259234759588401,-0.5,0.0,1.0,270.0,819.0,1.0,0,181.0,1
1303,1303,-0.8182964874953842,-0.8,1.0,0.0,449.0,542.0,0.0,0,119.0,1
1304,1304,-0.2548594498749439,-0.3,0.0,1.0,296.0,873.0,1.0,0,181.0,1
1305,1305,-0.13307492188326164,-0.1,1.0,0.0,344.0,771.0,0.0,0,305.0,1
1306,1306,-0.4650494155873638,-0.5,1.0,0.0,422.0,571.0,0.0,0,267.0,1
1307,1307,0.6376092923933502,0.6,1.0,1.0,347.0,785.0,1.0,1,128.0,1
1308,1308,0.31196729725272,0.3,0.0,0.0,486.0,733.0,0.0,1,591.0,1
1309,1309,0.7115959546060665,0.7,0.0,0.0,264.0,591.0,0.0,1,235.0,1
1310,1310,0.27613818404228374,0.3,0.0,0.0,447.0,515.0,0.0,1,598.0,1
1311,1311,0.28152670969799043,0.3,1.0,1.0,441.0,883.0,1.0,1,206.0,1
1312,1312,-0.5405858308976602,-0.5,1.0,0.0,495.0,951.0,0.0,0,104.0,1
1313,1313,-0.13134436335429123,-0.1,1.0,0.0,279.0,541.0,0.0,0,370.0,1
1314,1314,0.2942467462971222,0.3,1.0,1.0,388.0,773.0,1.0,1,259.0,1
1315,1315,0.10716390881533944,0.1,0.0,0.0,322.0,551.0,0.0,1,737.0,1
1316,1316,-0.32573777587974173,-0.3,0.0,1.0,255.0,519.0,1.0,0,546.0,1
1317,1317,-0.8349734059200269,-0.8,0.0,1.0,335.0,591.0,1.0,0,414.0,1
1318,1318,0.607872000269749,0.6,1.0,1.0,311.0,621.0,1.0,1,188.0,1
1319,1319,-0.39388086807220835,-0.4,1.0,0.0,386.0,721.0,0.0,0,253.0,1
1320,1320,0.30543065573999917,0.3,0.0,0.0,346.0,625.0,0.0,1,509.0,1
1321,1321,-0.7312224582084564,-0.7,0.0,1.0,452.0,553.0,1.0,0,355.0,1
1322,1322,-0.28424801362576213,-0.3,1.0,0.0,367.0,514.0,0.0,0,309.0,1
1323,1323,0.044045915343817965,0.0,1.0,1.0,297.0,687.0,1.0,1,4016.0,1
1324,1324,0.7190033496382077,0.7,1.0,1.0,319.0,585.0,1.0,1,136.0,1
1325,1325,-0.26961641401361314,-0.3,0.0,1.0,301.0,560.0,1.0,0,419.0,1
1326,1326,-0.597640285375252,-0.6,1.0,0.0,386.0,880.0,0.0,0,114.0,1
1327,1327,-0.4766463038684513,-0.5,0.0,1.0,447.0,640.0,1.0,0,283.0,1
1328,1328,0.3662798140695799,0.4,0.0,0.0,365.0,961.0,0.0,1,274.0,1
1329,1329,-0.2961657044200683,-0.3,0.0,1.0,391.0,759.0,1.0,0,250.0,1
1330,1330,-0.8615052712036839,-0.9,0.0,1.0,444.0,935.0,1.0,0,141.0,1
1331,1331,0.4750773231406954,0.5,1.0,1.0,300.0,550.0,1.0,1,4150.0,1
1332,1332,-0.2686240366503516,-0.3,0.0,1.0,456.0,809.0,1.0,0,225.0,1
1333,1333,0.526480896556614,0.5,1.0,1.0,439.0,702.0,1.0,1,179.0,1
1334,1334,0.8373185315098207,0.8,1.0,1.0,495.0,515.0,1.0,1,180.0,1
1335,1335,0.8583387100557737,0.9,0.0,0.0,337.0,974.0,0.0,1,129.0,1
1336,1336,-0.14814140593076885,-0.1,0.0,1.0,287.0,600.0,1.0,0,483.0,1
1337,1337,0.8859774921198048,0.9,0.0,0.0,408.0,825.0,0.0,1,167.0,1
1338,1338,-0.4513271677176049,-0.5,1.0,0.0,362.0,796.0,0.0,0,152.0,1
1339,1339,-0.004191936589077017,-0.0,1.0,0.0,412.0,972.0,0.0,0,3616.0,1
1340,1340,0.515746287410593,0.5,1.0,1.0,381.0,776.0,1.0,1,143.0,1
1341,1341,0.6418154530133956,0.6,0.0,0.0,400.0,672.0,0.0,1,3928.0,1
1342,1342,0.06925197950695094,0.1,1.0,1.0,407.0,900.0,1.0,1,3693.0,1
1343,1343,0.0021226197694946825,0.0,1.0,1.0,355.0,583.0,1.0,1,4062.0,1
1344,1344,-0.27322441568627354,-0.3,0.0,1.0,342.0,606.0,1.0,0,462.0,1
1345,1345,0.19119565541621097,0.2,1.0,1.0,387.0,837.0,1.0,1,276.0,1
1346,1346,0.3747690991051965,0.4,0.0,0.0,342.0,523.0,0.0,1,615.0,1
1347,1347,0.1477875239986287,0.1,0.0,0.0,268.0,680.0,0.0,1,572.0,1
1348,1348,0.11917390320010013,0.1,0.0,0.0,380.0,509.0,0.0,1,611.0,1
1349,1349,-0.8610681986249437,-0.9,0.0,1.0,260.0,654.0,1.0,0,286.0,1
1350,1350,0.06425509694740184,0.1,1.0,1.0,450.0,709.0,1.0,1,611.0,1
1351,1351,0.7480860255528438,0.7,0.0,0.0,356.0,587.0,0.0,1,547.0,1
1352,1352,0.8530346512785404,0.9,1.0,1.0,395.0,647.0,1.0,1,148.0,1
1353,1353,0.6814631825677532,0.7,0.0,0.0,425.0,823.0,0.0,1,172.0,1
1354,1354,-0.25960339193789106,-0.3,1.0,0.0,324.0,853.0,0.0,0,203.0,1
1355,1355,0.5309096786514139,0.5,1.0,1.0,415.0,730.0,1.0,1,155.0,1
1356,1356,-0.14665160213426354,-0.1,1.0,0.0,402.0,704.0,0.0,0,314.0,1
1357,1357,0.29411406514480476,0.3,0.0,0.0,461.0,867.0,0.0,1,532.0,1
1358,1358,0.24917000956941504,0.2,1.0,1.0,304.0,943.0,1.0,1,173.0,1
1359,1359,-0.436626662500754,-0.4,1.0,0.0,418.0,996.0,0.0,0,176.0,1
1360,1360,0.2447298806073609,0.2,0.0,0.0,365.0,796.0,0.0,1,539.0,1
1361,1361,0.6021515231380087,0.6,0.0,0.0,332.0,905.0,0.0,1,173.0,1
1362,1362,0.17418666824858742,0.2,1.0,1.0,330.0,532.0,1.0,1,618.0,1
1363,1363,-0.8481499308754784,-0.8,1.0,0.0,255.0,951.0,0.0,0,74.0,1
1364,1364,0.6661072068235993,0.7,1.0,1.0,446.0,725.0,1.0,1,119.0,1
1365,1365,-0.02483577932859704,-0.0,1.0,0.0,252.0,691.0,0.0,0,787.0,1
1366,1366,-0.2525351602719157,-0.3,0.0,1.0,480.0,743.0,1.0,0,437.0,1
1367,1367,0.6895850457466551,0.7,0.0,0.0,461.0,715.0,0.0,1,294.0,1
1368,1368,0.4706262687100967,0.5,0.0,0.0,368.0,570.0,0.0,1,1152.0,1
1369,1369,0.3827250955100122,0.4,1.0,1.0,294.0,545.0,1.0,1,271.0,1
1370,1370,-0.14848509267465204,-0.1,0.0,1.0,268.0,606.0,1.0,0,496.0,1
1371,1371,-0.5259947562630036,-0.5,1.0,0.0,419.0,890.0,0.0,0,81.0,1
1372,1372,-0.36008492697965266,-0.4,0.0,1.0,253.0,898.0,1.0,0,159.0,1
1373,1373,-0.3228445844117205,-0.3,1.0,0.0,341.0,897.0,0.0,0,102.0,1
1374,1374,-0.6035359100114919,-0.6,1.0,0.0,417.0,630.0,0.0,0,183.0,1
1375,1375,0.7301809584959206,0.7,1.0,1.0,475.0,776.0,1.0,1,139.0,1
1376,1376,0.20667303816608118,0.2,0.0,0.0,438.0,510.0,0.0,1,672.0,1
1377,1377,-0.01680073556881856,-0.0,0.0,1.0,461.0,894.0,1.0,0,3645.0,1
1378,1378,-0.5605428581981666,-0.6,1.0,0.0,302.0,985.0,0.0,0,163.0,1
1379,1379,0.07078822954163477,0.1,0.0,0.0,377.0,897.0,0.0,1,1136.0,1
1380,1380,0.0062552877459088885,0.0,1.0,1.0,301.0,648.0,1.0,1,4051.0,1
1381,1381,-0.2638958184473357,-0.3,1.0,0.0,456.0,560.0,0.0,0,284.0,1
1382,1382,0.6289433802584684,0.6,1.0,1.0,358.0,650.0,1.0,1,192.0,1
1383,1383,0.7700687019379951,0.8,1.0,1.0,486.0,811.0,1.0,1,133.0,1
1384,1384,-0.6388634239763806,-0.6,1.0,0.0,399.0,972.0,0.0,0,109.0,1
1385,1385,-0.6392748792912766,-0.6,1.0,0.0,330.0,564.0,0.0,0,176.0,1
1386,1386,-0.1724781247139694,-0.2,0.0,1.0,277.0,905.0,1.0,0,268.0,1
1387,1387,0.5356267204679283,0.5,0.0,0.0,347.0,967.0,0.0,1,176.0,1
1388,1388,0.2613863580430319,0.3,0.0,0.0,490.0,622.0,0.0,1,498.0,1
1389,1389,0.6924879055937622,0.7,1.0,1.0,471.0,581.0,1.0,1,178.0,1
1390,1390,0.5152275375126633,0.5,0.0,0.0,344.0,861.0,0.0,1,565.0,1
1391,1391,-0.8501551394019697,-0.9,1.0,0.0,432.0,562.0,0.0,0,136.0,1
1392,1392,0.3907934480669303,0.4,0.0,0.0,324.0,881.0,0.0,1,325.0,1
1393,1393,-0.35298505240390055,-0.4,0.0,1.0,429.0,673.0,1.0,0,238.0,1
1394,1394,0.4778098970067871,0.5,1.0,1.0,439.0,743.0,1.0,1,178.0,1
1395,1395,0.2918333960307028,0.3,0.0,0.0,445.0,770.0,0.0,1,575.0,1
1396,1396,0.5464233327786557,0.5,0.0,0.0,310.0,840.0,0.0,1,170.0,1
1397,1397,0.6562023563594949,0.7,0.0,0.0,325.0,540.0,0.0,1,555.0,1
1398,1398,0.2631233039902846,0.3,1.0,1.0,382.0,679.0,1.0,1,239.0,1
1399,1399,-0.759095000863155,-0.8,0.0,1.0,496.0,740.0,1.0,0,174.0,1
1400,1400,0.24884223774341507,0.2,1.0,1.0,286.0,785.0,1.0,1,269.0,1
1401,1401,0.6638616381256816,0.7,1.0,1.0,368.0,777.0,1.0,1,135.0,1
1402,1402,0.45117812519593137,0.5,0.0,0.0,413.0,586.0,0.0,1,621.0,1
1403,1403,-0.8884330492402729,-0.9,0.0,1.0,396.0,910.0,1.0,0,134.0,1
1404,1404,-0.527857802539013,-0.5,1.0,0.0,378.0,738.0,0.0,0,194.0,1
1405,1405,-0.6823893285433132,-0.7,1.0,0.0,346.0,793.0,0.0,0,101.0,1
1406,1406,0.3672799619714878,0.4,0.0,0.0,431.0,687.0,0.0,1,862.0,1
1407,1407,-0.5994549764116339,-0.6,0.0,1.0,488.0,635.0,1.0,0,287.0,1
1408,1408,-0.1545774610577878,-0.2,0.0,1.0,420.0,892.0,1.0,0,258.0,1
1409,1409,0.7229756044216532,0.7,1.0,1.0,328.0,688.0,1.0,1,134.0,1
1410,1410,0.24153304585995194,0.2,0.0,0.0,392.0,597.0,0.0,1,461.0,1
1411,1411,-0.0076302263243200885,-0.0,1.0,0.0,449.0,752.0,0.0,0,459.0,1
1412,1412,-0.3411251699719773,-0.3,0.0,1.0,288.0,974.0,1.0,0,218.0,1
1413,1413,-0.5915760162358813,-0.6,1.0,0.0,322.0,781.0,0.0,0,127.0,1
1414,1414,-0.7572422476516076,-0.8,1.0,0.0,250.0,724.0,0.0,0,106.0,1
1415,1415,0.22646120824109162,0.2,1.0,1.0,398.0,591.0,1.0,1,331.0,1
1416,1416,-0.4822171195105087,-0.5,1.0,0.0,482.0,836.0,0.0,0,122.0,1
1417,1417,-0.008613448109115684,-0.0,0.0,1.0,425.0,815.0,0.0,1,3760.0,0
1418,1418,-0.5929430674955904,-0.6,0.0,1.0,475.0,560.0,1.0,0,505.0,1
1419,1419,0.8405488916440925,0.8,1.0,1.0,263.0,854.0,1.0,1,123.0,1
1420,1420,-0.5464624568274505,-0.5,0.0,1.0,330.0,727.0,1.0,0,203.0,1
1421,1421,-0.1935730244761361,-0.2,1.0,0.0,460.0,784.0,0.0,0,376.0,1
1422,1422,0.2402336792960008,0.2,1.0,1.0,353.0,740.0,1.0,1,247.0,1
1423,1423,0.5732475254760309,0.6,0.0,0.0,380.0,979.0,0.0,1,171.0,1
1424,1424,-0.22346945715027522,-0.2,0.0,1.0,483.0,765.0,1.0,0,282.0,1
1425,1425,-0.7642119291083783,-0.8,0.0,1.0,469.0,922.0,1.0,0,129.0,1
1426,1426,0.7931717194321387,0.8,1.0,1.0,394.0,967.0,1.0,1,119.0,1
1427,1427,-0.02027246668320104,-0.0,0.0,1.0,255.0,870.0,1.0,0,3875.0,1
1428,1428,-0.33562401158334276,-0.3,1.0,0.0,415.0,590.0,0.0,0,265.0,1
1429,1429,0.5838923100193961,0.6,1.0,1.0,428.0,870.0,1.0,1,122.0,1
1430,1430,0.8189318251178109,0.8,1.0,1.0,312.0,610.0,1.0,1,138.0,1
1431,1431,-0.4667206168997757,-0.5,0.0,1.0,325.0,688.0,1.0,0,257.0,1
1432,1432,0.12463060785452884,0.1,0.0,0.0,255.0,886.0,0.0,1,519.0,1
1433,1433,-0.3696299330912869,-0.4,0.0,1.0,250.0,538.0,1.0,0,572.0,1
1434,1434,-0.16668356878054436,-0.2,0.0,1.0,326.0,806.0,1.0,0,218.0,1
1435,1435,-0.7069645517077525,-0.7,1.0,0.0,402.0,835.0,0.0,0,133.0,1
1436,1436,-0.4789907459411413,-0.5,1.0,0.0,260.0,913.0,0.0,0,107.0,1
1437,1437,-0.463948958825578,-0.5,0.0,1.0,339.0,694.0,1.0,0,257.0,1
1438,1438,-0.13612878379154336,-0.1,0.0,1.0,453.0,598.0,1.0,0,499.0,1
1439,1439,0.245337613620345,0.2,1.0,1.0,465.0,848.0,1.0,1,187.0,1
1440,1440,0.7468687534900774,0.7,0.0,0.0,377.0,676.0,0.0,1,237.0,1
1441,1441,0.696162417290597,0.7,0.0,0.0,386.0,810.0,0.0,1,174.0,1
1442,1442,-0.775717359440342,-0.8,0.0,1.0,365.0,858.0,1.0,0,147.0,1
1443,1443,0.10140882606162693,0.1,0.0,0.0,294.0,757.0,0.0,1,429.0,1
1444,1444,-0.02413821739883304,-0.0,0.0,1.0,263.0,513.0,1.0,0,4224.0,1
1445,1445,-0.20168515063672388,-0.2,1.0,0.0,321.0,953.0,0.0,0,186.0,1
1446,1446,-0.4333289777064631,-0.4,0.0,1.0,418.0,871.0,1.0,0,221.0,1
1447,1447,-0.6557705012703817,-0.7,0.0,1.0,263.0,630.0,1.0,0,297.0,1
1448,1448,-0.45593962828249557,-0.5,1.0,0.0,407.0,888.0,0.0,0,185.0,1
1449,1449,0.4313592531052942,0.4,0.0,0.0,348.0,799.0,0.0,1,353.0,1
1450,1450,0.7271369579088384,0.7,1.0,1.0,372.0,620.0,1.0,1,4008.0,1
1451,1451,0.15858378097405879,0.2,1.0,1.0,331.0,752.0,1.0,1,257.0,1
1452,1452,0.49391624712416127,0.5,0.0,0.0,283.0,907.0,0.0,1,180.0,1
1453,1453,-0.20708762420502547,-0.2,1.0,0.0,415.0,788.0,0.0,0,227.0,1
1454,1454,0.7558421576485245,0.8,1.0,1.0,414.0,862.0,1.0,1,114.0,1
1455,1455,-0.1585143292495591,-0.2,1.0,0.0,420.0,944.0,0.0,0,226.0,1
1456,1456,0.8724491625708996,0.9,1.0,1.0,476.0,959.0,1.0,1,75.0,1
1457,1457,-0.8841201538501293,-0.9,0.0,1.0,352.0,916.0,1.0,0,102.0,1
1458,1458,0.7162747192029147,0.7,0.0,0.0,345.0,612.0,0.0,1,4043.0,1
1459,1459,0.8488150380936194,0.8,0.0,0.0,257.0,762.0,0.0,1,151.0,1
1460,1460,-0.09572527610196768,-0.1,1.0,0.0,269.0,711.0,0.0,0,350.0,1
1461,1461,-0.07263436246958221,-0.1,0.0,1.0,404.0,536.0,1.0,0,760.0,1
1462,1462,0.3335722172333445,0.3,0.0,0.0,480.0,572.0,0.0,1,618.0,1
1463,1463,0.4531270144474139,0.5,1.0,1.0,359.0,719.0,1.0,1,162.0,1
1464,1464,-0.37139681344172026,-0.4,1.0,0.0,495.0,625.0,0.0,0,280.0,1
1465,1465,-0.4488279395222951,-0.4,0.0,1.0,291.0,675.0,1.0,0,354.0,1
1466,1466,0.3664355787282517,0.4,1.0,1.0,321.0,505.0,1.0,1,4174.0,1
1467,1467,0.2065538139218276,0.2,0.0,0.0,297.0,641.0,0.0,1,452.0,1
1468,1468,-0.1015644212465463,-0.1,1.0,0.0,307.0,813.0,0.0,0,350.0,1
1469,1469,-0.6415842828016882,-0.6,1.0,0.0,314.0,859.0,0.0,0,117.0,1
1470,1470,-0.5502779201733006,-0.6,0.0,1.0,394.0,521.0,1.0,0,355.0,1
1471,1471,-0.4249619334149907,-0.4,0.0,1.0,257.0,513.0,1.0,0,550.0,1
1472,1472,0.8669017063187622,0.9,1.0,1.0,487.0,591.0,1.0,1,162.0,1
1473,1473,0.42675417273309424,0.4,1.0,1.0,283.0,664.0,1.0,1,193.0,1
1474,1474,-0.5636032463283258,-0.6,1.0,0.0,307.0,892.0,0.0,0,121.0,1
1475,1475,-0.6949497676763599,-0.7,1.0,0.0,356.0,690.0,0.0,0,124.0,1
1476,1476,-0.7737697663338715,-0.8,1.0,0.0,313.0,667.0,0.0,0,140.0,1
1477,1477,-0.7211010709640899,-0.7,0.0,1.0,326.0,736.0,1.0,0,188.0,1
1478,1478,0.7272074086707402,0.7,0.0,0.0,376.0,957.0,0.0,1,127.0,1
1479,1479,0.07211093434335147,0.1,0.0,0.0,370.0,866.0,0.0,1,594.0,1
1480,1480,-0.6403015719838582,-0.6,0.0,1.0,494.0,877.0,1.0,0,129.0,1
1481,1481,0.6126779409658746,0.6,0.0,0.0,274.0,583.0,0.0,1,483.0,1
1482,1482,0.8907887868724517,0.9,1.0,1.0,444.0,620.0,1.0,1,176.0,1
1483,1483,0.6987830496563107,0.7,0.0,0.0,465.0,683.0,0.0,1,252.0,1
1484,1484,-0.2579075651105909,-0.3,1.0,0.0,365.0,727.0,0.0,0,298.0,1
1485,1485,0.5293309644792122,0.5,0.0,0.0,337.0,724.0,0.0,1,259.0,1
1486,1486,-0.8471928733020735,-0.8,0.0,1.0,369.0,596.0,1.0,0,225.0,1
1487,1487,-0.10314633352130742,-0.1,1.0,0.0,361.0,949.0,0.0,0,480.0,1
1488,1488,0.8681326257296146,0.9,1.0,1.0,261.0,592.0,1.0,1,157.0,1
1489,1489,0.39473231887595894,0.4,0.0,0.0,473.0,726.0,0.0,1,541.0,1
1490,1490,0.7993732606595795,0.8,1.0,1.0,327.0,727.0,1.0,1,3946.0,1
1491,1491,-0.76630120213821,-0.8,1.0,0.0,366.0,836.0,0.0,0,108.0,1
1492,1492,0.8295775670862052,0.8,0.0,0.0,480.0,609.0,0.0,1,501.0,1
