,trial,coherence,coherence_bin,green_side,correct_side,target_onset,checker_onset,decision,green_decision,decision_time,correct_decision
0,0,-0.2725335317173222,-0.3,0.0,1.0,403.0,864.0,1.0,0,1063.0,1
1,1,-0.3928347372028508,-0.4,0.0,1.0,482.0,585.0,1.0,0,473.0,1
2,2,0.18160402130972042,0.2,0.0,0.0,391.0,757.0,0.0,1,1722.0,1
3,3,0.334379186912272,0.3,0.0,0.0,313.0,939.0,0.0,1,488.0,1
4,4,0.740479652749591,0.7,1.0,1.0,418.0,844.0,1.0,1,488.0,1
5,5,0.050693427910009636,0.1,1.0,1.0,364.0,721.0,1.0,1,975.0,1
6,6,-0.6064488705092688,-0.6,0.0,1.0,429.0,762.0,1.0,0,469.0,1
7,7,0.10924769273593993,0.1,1.0,1.0,299.0,898.0,0.0,0,-227.0,0
8,8,0.18027865968970647,0.2,1.0,1.0,473.0,991.0,1.0,1,576.0,1
9,9,-0.290402492824263,-0.3,1.0,0.0,454.0,628.0,0.0,0,688.0,1
10,10,-0.3960352924216599,-0.4,0.0,1.0,376.0,701.0,1.0,0,1063.0,1
11,11,-0.09633866545632486,-0.1,1.0,0.0,291.0,743.0,0.0,0,276.0,1
12,12,0.7310165311238775,0.7,1.0,1.0,394.0,874.0,0.0,0,-108.0,0
13,13,0.681128518229796,0.7,0.0,0.0,457.0,811.0,0.0,1,202.0,1
14,14,0.5484969601239745,0.5,0.0,0.0,253.0,786.0,0.0,1,-9.0,1
15,15,-0.06589569134354722,-0.1,0.0,1.0,486.0,554.0,1.0,0,2170.0,1
16,16,-0.4288487263299873,-0.4,0.0,1.0,304.0,624.0,1.0,0,782.0,1
17,17,-0.6000666397047787,-0.6,0.0,1.0,457.0,734.0,1.0,0,389.0,1
18,18,-0.5046019592671821,-0.5,0.0,1.0,298.0,542.0,1.0,0,230.0,1
19,19,0.27590794575909083,0.3,0.0,0.0,392.0,625.0,0.0,1,493.0,1
20,20,-0.19473168430886056,-0.2,0.0,1.0,387.0,853.0,1.0,0,820.0,1
21,21,0.10083695243533886,0.1,1.0,1.0,303.0,983.0,1.0,1,994.0,1
22,22,0.6624194168792613,0.7,1.0,1.0,389.0,591.0,1.0,1,390.0,1
23,23,0.7306843481186965,0.7,1.0,1.0,456.0,852.0,1.0,1,432.0,1
24,24,-0.09579526032424479,-0.1,0.0,1.0,334.0,980.0,1.0,0,756.0,1
25,25,0.4693699385740496,0.5,0.0,0.0,403.0,864.0,0.0,1,223.0,1
26,26,0.6887625236347513,0.7,1.0,1.0,340.0,764.0,1.0,1,436.0,1
27,27,0.15064161336941162,0.2,0.0,0.0,438.0,901.0,0.0,1,1191.0,1
28,28,0.46609941148014633,0.5,1.0,1.0,257.0,834.0,1.0,1,149.0,1
29,29,0.5280114430690285,0.5,0.0,0.0,335.0,771.0,0.0,1,124.0,1
30,30,0.20797173356770615,0.2,1.0,1.0,426.0,585.0,1.0,1,1189.0,1
31,31,0.07183433432209596,0.1,1.0,1.0,468.0,960.0,0.0,0,3572.0,0
32,32,0.4921122651347828,0.5,0.0,0.0,476.0,861.0,0.0,1,573.0,1
33,33,0.5836406562217543,0.6,0.0,0.0,374.0,538.0,0.0,1,578.0,1
34,34,-0.07582617199345343,-0.1,0.0,1.0,254.0,549.0,1.0,0,3677.0,1
35,35,-0.5423828765780229,-0.5,0.0,1.0,390.0,547.0,1.0,0,773.0,1
36,36,0.13950755815151428,0.1,0.0,0.0,252.0,529.0,0.0,1,1139.0,1
37,37,0.8738365377182625,0.9,0.0,0.0,478.0,751.0,0.0,1,91.0,1
38,38,0.2947974563601722,0.3,1.0,1.0,336.0,829.0,1.0,1,365.0,1
39,39,0.43091789930950075,0.4,0.0,0.0,490.0,889.0,0.0,1,251.0,1
40,40,-0.23878588272975487,-0.2,1.0,0.0,309.0,547.0,0.0,0,144.0,1
41,41,0.04889169348642963,0.0,0.0,0.0,319.0,599.0,0.0,1,2122.0,1
42,42,-0.17042994811088719,-0.2,1.0,0.0,397.0,840.0,1.0,1,-227.0,0
43,43,0.5598744743949876,0.6,0.0,0.0,261.0,702.0,0.0,1,317.0,1
44,44,-0.6774752494635996,-0.7,0.0,1.0,473.0,822.0,1.0,0,245.0,1
45,45,0.40477179971553856,0.4,0.0,0.0,348.0,817.0,0.0,1,405.0,1
46,46,-0.6654501362525524,-0.7,1.0,0.0,437.0,600.0,0.0,0,233.0,1
47,47,0.40048974829387307,0.4,1.0,1.0,348.0,763.0,1.0,1,479.0,1
48,48,-0.8094556623820172,-0.8,1.0,0.0,330.0,665.0,0.0,0,165.0,1
49,49,0.004249942685700003,0.0,0.0,0.0,312.0,807.0,1.0,0,221.0,0
50,50,-0.08907298448380752,-0.1,1.0,0.0,357.0,842.0,0.0,0,111.0,1
51,51,-0.04929858575417323,-0.0,0.0,1.0,395.0,646.0,1.0,0,3959.0,1
52,52,-0.41905484507344776,-0.4,0.0,1.0,271.0,693.0,1.0,0,66.0,1
53,53,0.6177489328551774,0.6,0.0,0.0,296.0,504.0,0.0,1,270.0,1
54,54,-0.10006662817542833,-0.1,1.0,0.0,280.0,911.0,0.0,0,909.0,1
55,55,0.6878975996312139,0.7,1.0,1.0,400.0,756.0,1.0,1,274.0,1
56,56,-0.8519589180812817,-0.9,0.0,1.0,414.0,701.0,1.0,0,115.0,1
57,57,-0.3600469420041097,-0.4,0.0,1.0,282.0,596.0,1.0,0,782.0,1
58,58,0.8442695104060572,0.8,1.0,1.0,287.0,596.0,1.0,1,207.0,1
59,59,0.79241547305845,0.8,1.0,1.0,386.0,697.0,1.0,1,257.0,1
60,60,0.6623494430639117,0.7,0.0,0.0,433.0,783.0,0.0,1,114.0,1
61,61,0.43215091997676447,0.4,0.0,0.0,494.0,692.0,0.0,1,-166.0,1
62,62,0.2362310453527362,0.2,1.0,1.0,413.0,535.0,1.0,1,1402.0,1
63,63,-0.6420730148463478,-0.6,0.0,1.0,414.0,862.0,0.0,1,-96.0,0
64,64,0.6348338665728713,0.6,1.0,1.0,261.0,554.0,1.0,1,315.0,1
65,65,-0.2915396999637092,-0.3,1.0,0.0,353.0,650.0,0.0,0,427.0,1
66,66,0.4001713987520553,0.4,1.0,1.0,452.0,896.0,1.0,1,752.0,1
67,67,-0.7005670238115802,-0.7,1.0,0.0,300.0,879.0,0.0,0,251.0,1
68,68,0.09440821641467056,0.1,0.0,0.0,261.0,842.0,0.0,1,2047.0,1
69,69,-0.34528392896458326,-0.3,1.0,0.0,335.0,944.0,0.0,0,521.0,1
70,70,-0.8258410930522131,-0.8,1.0,0.0,438.0,586.0,0.0,0,216.0,1
71,71,-0.33051358637505146,-0.3,0.0,1.0,342.0,517.0,1.0,0,881.0,1
72,72,0.1894438390907368,0.2,0.0,0.0,437.0,952.0,0.0,1,1131.0,1
73,73,0.4859014234667315,0.5,1.0,1.0,429.0,849.0,0.0,0,-338.0,0
74,74,-0.08618673836913293,-0.1,1.0,0.0,268.0,555.0,0.0,0,957.0,1
75,75,0.24021500602724355,0.2,0.0,0.0,426.0,912.0,0.0,1,1932.0,1
76,76,-0.04490419821550018,-0.0,0.0,1.0,475.0,670.0,1.0,0,825.0,1
77,77,-0.7070490759494321,-0.7,1.0,0.0,263.0,846.0,0.0,0,91.0,1
78,78,-0.7685325973465189,-0.8,1.0,0.0,342.0,966.0,0.0,0,132.0,1
79,79,0.12411116423666091,0.1,1.0,1.0,407.0,582.0,1.0,1,2601.0,1
80,80,-0.43859150487994647,-0.4,0.0,1.0,499.0,958.0,1.0,0,333.0,1
81,81,-0.7043579830333351,-0.7,1.0,0.0,300.0,928.0,0.0,0,132.0,1
82,82,-0.8873709144257698,-0.9,1.0,0.0,319.0,781.0,0.0,0,150.0,1
83,83,0.3064007428377028,0.3,0.0,0.0,299.0,600.0,0.0,1,721.0,1
84,84,0.31118818787614255,0.3,1.0,1.0,426.0,950.0,1.0,1,1054.0,1
85,85,-0.2083170324007163,-0.2,0.0,1.0,462.0,579.0,1.0,0,1249.0,1
86,86,-0.10441088871205007,-0.1,0.0,1.0,429.0,766.0,1.0,0,665.0,1
87,87,-0.32676309799432,-0.3,0.0,1.0,325.0,601.0,1.0,0,304.0,1
88,88,-0.11602513709289353,-0.1,1.0,0.0,443.0,822.0,0.0,0,-35.0,1
89,89,0.8385565701540926,0.8,1.0,1.0,255.0,695.0,1.0,1,140.0,1
90,90,-0.030151690797454722,-0.0,0.0,1.0,250.0,869.0,1.0,0,3881.0,1
91,91,-0.34619972745345595,-0.3,0.0,1.0,443.0,853.0,1.0,0,2114.0,1
92,92,0.08393994683178607,0.1,0.0,0.0,449.0,546.0,0.0,1,285.0,1
93,93,-0.675206714790263,-0.7,1.0,0.0,388.0,930.0,0.0,0,182.0,1
94,94,-0.07293494647319498,-0.1,1.0,0.0,408.0,955.0,0.0,0,447.0,1
95,95,0.11293207299170083,0.1,0.0,0.0,497.0,731.0,0.0,1,1462.0,1
96,96,-0.881562635196006,-0.9,1.0,0.0,271.0,659.0,0.0,0,130.0,1
97,97,-0.6612404228746587,-0.7,1.0,0.0,479.0,687.0,0.0,0,-56.0,1
98,98,0.4777932416714826,0.5,0.0,0.0,336.0,607.0,0.0,1,427.0,1
99,99,0.7567511321480213,0.8,0.0,0.0,357.0,806.0,0.0,1,257.0,1
100,100,-0.14091353828123687,-0.1,1.0,0.0,421.0,807.0,0.0,0,2002.0,1
101,101,0.45597353387611717,0.5,0.0,0.0,477.0,666.0,0.0,1,-13.0,1
102,102,-0.09545166258239801,-0.1,1.0,0.0,350.0,779.0,0.0,0,-159.0,1
103,103,0.6034393445494352,0.6,0.0,0.0,263.0,533.0,0.0,1,54.0,1
104,104,-0.23796720809577,-0.2,1.0,0.0,436.0,715.0,0.0,0,559.0,1
105,105,0.41047373121442965,0.4,0.0,0.0,473.0,713.0,1.0,0,-46.0,0
106,106,-0.19894529040615028,-0.2,1.0,0.0,468.0,967.0,0.0,0,465.0,1
107,107,0.8621142017263,0.9,1.0,1.0,265.0,859.0,1.0,1,166.0,1
108,108,0.5826829310827805,0.6,1.0,1.0,418.0,501.0,1.0,1,421.0,1
109,109,0.10742353844871888,0.1,1.0,1.0,452.0,888.0,0.0,0,-430.0,0
110,110,0.5373264626513096,0.5,1.0,1.0,429.0,954.0,1.0,1,267.0,1
111,111,0.22105759384044432,0.2,0.0,0.0,474.0,851.0,0.0,1,375.0,1
112,112,0.31885126606088054,0.3,0.0,0.0,440.0,641.0,0.0,1,689.0,1
113,113,-0.52392174360757,-0.5,1.0,0.0,392.0,767.0,0.0,0,351.0,1
114,114,0.5187230141383045,0.5,0.0,0.0,310.0,964.0,0.0,1,146.0,1
115,115,0.060688424376980854,0.1,0.0,0.0,310.0,967.0,0.0,1,1663.0,1
116,116,-0.45110976253359997,-0.5,0.0,1.0,255.0,514.0,1.0,0,381.0,1
117,117,-0.7344728623303097,-0.7,1.0,0.0,281.0,599.0,0.0,0,-90.0,1
118,118,0.22776579145265352,0.2,0.0,0.0,348.0,989.0,0.0,1,-327.0,1
119,119,-0.656571011438363,-0.7,0.0,1.0,279.0,719.0,1.0,0,602.0,1
120,120,-0.7742560228499107,-0.8,0.0,1.0,415.0,540.0,1.0,0,225.0,1
121,121,-0.43337971030462874,-0.4,0.0,1.0,481.0,559.0,1.0,0,290.0,1
122,122,0.4036661737387853,0.4,1.0,1.0,284.0,683.0,1.0,1,643.0,1
123,123,0.7515996260380885,0.8,1.0,1.0,474.0,896.0,1.0,1,260.0,1
124,124,0.5253364721739872,0.5,1.0,1.0,346.0,720.0,1.0,1,754.0,1
125,125,-0.12493400054004311,-0.1,0.0,1.0,447.0,752.0,1.0,0,2001.0,1
126,126,-0.861725465857032,-0.9,1.0,0.0,424.0,875.0,0.0,0,191.0,1
127,127,0.23589435952928894,0.2,0.0,0.0,427.0,617.0,0.0,1,746.0,1
128,128,-0.8553418943917901,-0.9,0.0,1.0,283.0,750.0,1.0,0,187.0,1
129,129,0.21310243482861135,0.2,1.0,1.0,426.0,664.0,1.0,1,740.0,1
130,130,0.5556837644034304,0.6,1.0,1.0,474.0,880.0,1.0,1,226.0,1
131,131,0.8350119988165502,0.8,0.0,0.0,351.0,659.0,0.0,1,350.0,1
132,132,-0.7756145887718515,-0.8,0.0,1.0,480.0,563.0,1.0,0,237.0,1
133,133,0.208786214278751,0.2,1.0,1.0,451.0,872.0,1.0,1,487.0,1
134,134,0.5675164423960465,0.6,0.0,0.0,414.0,969.0,0.0,1,227.0,1
135,135,0.02936783136377419,0.0,1.0,1.0,483.0,705.0,0.0,0,42.0,0
136,136,-0.3939912969735233,-0.4,0.0,1.0,431.0,912.0,1.0,0,577.0,1
137,137,0.8095118810816625,0.8,1.0,1.0,337.0,888.0,1.0,1,545.0,1
138,138,-0.86541662846767,-0.9,1.0,0.0,428.0,947.0,0.0,0,115.0,1
139,139,0.10285225633426986,0.1,1.0,1.0,275.0,797.0,1.0,1,3928.0,1
140,140,-0.5977639732346997,-0.6,0.0,1.0,444.0,598.0,1.0,0,358.0,1
141,141,-0.4596239812772622,-0.5,1.0,0.0,426.0,654.0,0.0,0,580.0,1
142,142,0.4048471828771366,0.4,0.0,0.0,433.0,600.0,0.0,1,607.0,1
143,143,-0.12280600059860991,-0.1,0.0,1.0,301.0,512.0,1.0,0,4187.0,1
144,144,0.830474264382088,0.8,0.0,0.0,365.0,729.0,0.0,1,116.0,1
145,145,0.41756008613662987,0.4,1.0,1.0,274.0,749.0,1.0,1,417.0,1
146,146,-0.5188147628055695,-0.5,0.0,1.0,408.0,964.0,1.0,0,448.0,1
147,147,-0.46894911784691967,-0.5,0.0,1.0,322.0,743.0,1.0,0,715.0,1
148,148,-0.7801382544851447,-0.8,1.0,0.0,351.0,833.0,0.0,0,76.0,1
149,149,0.09170720682791844,0.1,0.0,0.0,415.0,639.0,0.0,1,446.0,1
150,150,0.05147474363145532,0.1,1.0,1.0,391.0,868.0,0.0,0,2041.0,0
151,151,-0.7776396543039548,-0.8,1.0,0.0,493.0,766.0,0.0,0,121.0,1
152,152,0.0987735067189004,0.1,1.0,1.0,341.0,520.0,1.0,1,3549.0,1
153,153,-0.64872134008726,-0.6,0.0,1.0,293.0,803.0,1.0,0,574.0,1
154,154,-0.7527946240354049,-0.8,1.0,0.0,370.0,733.0,0.0,0,317.0,1
155,155,-0.1387331530718412,-0.1,1.0,0.0,309.0,903.0,0.0,0,528.0,1
156,156,-0.8624485926590236,-0.9,1.0,0.0,303.0,782.0,0.0,0,345.0,1
157,157,-0.26518190417740184,-0.3,1.0,0.0,462.0,611.0,0.0,0,847.0,1
158,158,0.5172446142999106,0.5,1.0,1.0,435.0,555.0,1.0,1,850.0,1
159,159,0.33959028639834854,0.3,0.0,0.0,498.0,651.0,0.0,1,151.0,1
160,160,0.8954513237482934,0.9,0.0,0.0,392.0,508.0,0.0,1,130.0,1
161,161,-0.60434664623949,-0.6,0.0,1.0,441.0,786.0,1.0,0,403.0,1
162,162,-0.03605955941572381,-0.0,0.0,1.0,274.0,628.0,0.0,1,-62.0,0
163,163,-0.42110812713731044,-0.4,1.0,0.0,381.0,799.0,0.0,0,630.0,1
164,164,0.2315333790509052,0.2,0.0,0.0,474.0,989.0,0.0,1,317.0,1
165,165,-0.8725266230174141,-0.9,1.0,0.0,463.0,793.0,0.0,0,184.0,1
166,166,0.635931573785283,0.6,0.0,0.0,481.0,542.0,0.0,1,407.0,1
167,167,-0.2016451079563767,-0.2,0.0,1.0,310.0,553.0,1.0,0,377.0,1
168,168,0.8135324898297384,0.8,0.0,0.0,410.0,887.0,0.0,1,213.0,1
169,169,0.7162744279753687,0.7,1.0,1.0,481.0,676.0,1.0,1,313.0,1
170,170,0.863096031287148,0.9,1.0,1.0,406.0,793.0,1.0,1,171.0,1
171,171,0.31844482675399244,0.3,1.0,1.0,421.0,596.0,1.0,1,1163.0,1
172,172,0.4046187377850238,0.4,0.0,0.0,403.0,590.0,0.0,1,107.0,1
173,173,-0.45950855731596135,-0.5,0.0,1.0,357.0,858.0,1.0,0,135.0,1
174,174,0.1788599011977966,0.2,1.0,1.0,282.0,776.0,1.0,1,782.0,1
175,175,-0.42234568540441814,-0.4,0.0,1.0,484.0,965.0,1.0,0,341.0,1
176,176,-0.3587165255723256,-0.4,0.0,1.0,442.0,531.0,1.0,0,1217.0,1
177,177,-0.7074810923582988,-0.7,1.0,0.0,267.0,611.0,0.0,0,192.0,1
178,178,-0.12424799405156506,-0.1,0.0,1.0,412.0,646.0,1.0,0,412.0,1
179,179,0.296981565156064,0.3,0.0,0.0,278.0,664.0,0.0,1,588.0,1
180,180,-0.12596679643050224,-0.1,1.0,0.0,308.0,683.0,0.0,0,1429.0,1
181,181,0.040652827440664674,0.0,0.0,0.0,295.0,578.0,0.0,1,467.0,1
182,182,-0.3852343108529801,-0.4,1.0,0.0,444.0,801.0,0.0,0,55.0,1
183,183,-0.3704939653797481,-0.4,0.0,1.0,333.0,731.0,1.0,0,856.0,1
184,184,0.18830125701929046,0.2,0.0,0.0,494.0,989.0,0.0,1,997.0,1
185,185,0.8913865874737369,0.9,1.0,1.0,339.0,769.0,1.0,1,192.0,1
186,186,0.5229181567857889,0.5,0.0,0.0,257.0,877.0,0.0,1,446.0,1
187,187,-0.009316175655044945,-0.0,0.0,1.0,330.0,577.0,0.0,1,1633.0,0
188,188,-0.49784783047719056,-0.5,0.0,1.0,318.0,674.0,1.0,0,148.0,1
189,189,-0.4417282179649099,-0.4,1.0,0.0,394.0,800.0,0.0,0,426.0,1
190,190,-0.003473695548139699,-0.0,1.0,0.0,397.0,728.0,0.0,0,3875.0,1
191,191,-0.2707992797039255,-0.3,0.0,1.0,384.0,799.0,1.0,0,1117.0,1
192,192,-0.3595259878329936,-0.4,1.0,0.0,313.0,856.0,0.0,0,-489.0,1
193,193,0.7802210043632035,0.8,0.0,0.0,311.0,753.0,0.0,1,306.0,1
194,194,0.6510547435394601,0.7,0.0,0.0,497.0,726.0,0.0,1,157.0,1
195,195,0.6299758026034344,0.6,0.0,0.0,312.0,811.0,0.0,1,297.0,1
196,196,0.13464801018650052,0.1,0.0,0.0,253.0,545.0,0.0,1,522.0,1
197,197,0.4430850998306074,0.4,1.0,1.0,381.0,660.0,1.0,1,599.0,1
198,198,0.12884204356740903,0.1,0.0,0.0,302.0,872.0,0.0,1,2646.0,1
199,199,0.2920753211975139,0.3,1.0,1.0,377.0,941.0,1.0,1,262.0,1
200,200,-0.15915237944484284,-0.2,0.0,1.0,434.0,574.0,1.0,0,1402.0,1
201,201,-0.2839350907947096,-0.3,1.0,0.0,269.0,668.0,0.0,0,-87.0,1
202,202,0.4861521996733077,0.5,0.0,0.0,459.0,913.0,0.0,1,488.0,1
203,203,0.4752591721284932,0.5,0.0,0.0,368.0,864.0,0.0,1,208.0,1
204,204,0.18098722763055208,0.2,0.0,0.0,330.0,704.0,0.0,1,2526.0,1
205,205,0.5489459088997409,0.5,0.0,0.0,491.0,694.0,0.0,1,335.0,1
206,206,-0.039913681745525564,-0.0,1.0,0.0,409.0,704.0,0.0,0,2057.0,1
207,207,0.5386260168483891,0.5,1.0,1.0,492.0,502.0,1.0,1,296.0,1
208,208,0.4987565751796429,0.5,0.0,0.0,474.0,796.0,0.0,1,430.0,1
209,209,-0.2052838363560423,-0.2,1.0,0.0,442.0,685.0,0.0,0,393.0,1
210,210,0.2083102581611852,0.2,1.0,1.0,372.0,500.0,1.0,1,2228.0,1
211,211,-0.8276257798780361,-0.8,0.0,1.0,298.0,625.0,1.0,0,507.0,1
212,212,-0.666369229178625,-0.7,0.0,1.0,471.0,737.0,1.0,0,252.0,1
213,213,0.31290272603080094,0.3,0.0,0.0,349.0,829.0,0.0,1,722.0,1
214,214,0.6258693342669087,0.6,0.0,0.0,415.0,847.0,0.0,1,218.0,1
215,215,-0.42858195817749334,-0.4,1.0,0.0,286.0,912.0,0.0,0,62.0,1
216,216,0.7587873067186665,0.8,0.0,0.0,304.0,701.0,0.0,1,235.0,1
217,217,-0.5776336115843878,-0.6,0.0,1.0,404.0,636.0,1.0,0,340.0,1
218,218,0.41161148598624264,0.4,0.0,0.0,261.0,790.0,0.0,1,359.0,1
219,219,-0.31052763916409265,-0.3,1.0,0.0,496.0,741.0,0.0,0,383.0,1
220,220,-0.37074977608051063,-0.4,1.0,0.0,294.0,601.0,0.0,0,285.0,1
221,221,0.6788491098949364,0.7,0.0,0.0,491.0,811.0,0.0,1,658.0,1
222,222,0.24851069837635376,0.2,0.0,0.0,317.0,526.0,0.0,1,617.0,1
223,223,0.18346473566272492,0.2,0.0,0.0,390.0,960.0,0.0,1,750.0,1
224,224,0.749210077192734,0.7,1.0,1.0,428.0,988.0,1.0,1,384.0,1
225,225,0.44043674895844187,0.4,0.0,0.0,270.0,893.0,0.0,1,567.0,1
226,226,0.8165132937330547,0.8,1.0,1.0,321.0,655.0,1.0,1,724.0,1
227,227,0.7260974515453432,0.7,1.0,1.0,350.0,800.0,1.0,1,190.0,1
228,228,0.1765150348678154,0.2,0.0,0.0,276.0,935.0,0.0,1,-401.0,1
229,229,-0.7341101955561211,-0.7,0.0,1.0,352.0,988.0,0.0,1,-270.0,0
230,230,0.4733319270879003,0.5,1.0,1.0,376.0,585.0,0.0,0,-101.0,0
231,231,-0.06906947698223576,-0.1,1.0,0.0,474.0,676.0,0.0,0,1300.0,1
232,232,-0.613315131843922,-0.6,0.0,1.0,445.0,858.0,1.0,0,557.0,1
233,233,0.15758633847443215,0.2,0.0,0.0,292.0,668.0,0.0,1,1900.0,1
234,234,0.6540317093504872,0.7,1.0,1.0,399.0,966.0,1.0,1,225.0,1
235,235,0.3072954362505217,0.3,1.0,1.0,489.0,675.0,1.0,1,466.0,1
236,236,-0.47091858741985154,-0.5,1.0,0.0,306.0,673.0,0.0,0,481.0,1
237,237,-0.3512616712371729,-0.4,1.0,0.0,425.0,804.0,0.0,0,721.0,1
238,238,0.8823643187885374,0.9,1.0,1.0,431.0,643.0,1.0,1,396.0,1
239,239,-0.20654781358424235,-0.2,0.0,1.0,448.0,647.0,1.0,0,1975.0,1
240,240,0.7105293093069821,0.7,0.0,0.0,474.0,757.0,0.0,1,329.0,1
241,241,-0.6706848948754737,-0.7,1.0,0.0,336.0,977.0,0.0,0,317.0,1
242,242,0.01256084711195593,0.0,0.0,0.0,315.0,592.0,0.0,1,193.0,1
243,243,-0.49157787861715585,-0.5,0.0,1.0,260.0,964.0,1.0,0,566.0,1
244,244,-0.7206108933014507,-0.7,0.0,1.0,272.0,551.0,1.0,0,1007.0,1
245,245,-0.8287621790424416,-0.8,0.0,1.0,254.0,789.0,1.0,0,117.0,1
246,246,-0.8021557527082058,-0.8,0.0,1.0,415.0,585.0,1.0,0,360.0,1
247,247,-0.8505916373030707,-0.9,1.0,0.0,313.0,842.0,0.0,0,195.0,1
248,248,-0.33406705819533666,-0.3,0.0,1.0,251.0,890.0,1.0,0,-51.0,1
249,249,0.6871010517061388,0.7,1.0,1.0,315.0,940.0,0.0,0,-155.0,0
250,250,0.11005372327224217,0.1,1.0,1.0,441.0,770.0,1.0,1,319.0,1
251,251,-0.21666878271272838,-0.2,1.0,0.0,450.0,619.0,0.0,0,491.0,1
252,252,-0.516317554154621,-0.5,1.0,0.0,393.0,584.0,0.0,0,373.0,1
253,253,0.16503992954299618,0.2,0.0,0.0,493.0,775.0,0.0,1,692.0,1
254,254,0.8789688608457297,0.9,0.0,0.0,427.0,878.0,0.0,1,185.0,1
255,255,-0.500203725976949,-0.5,1.0,0.0,355.0,808.0,0.0,0,247.0,1
256,256,0.025311419810812086,0.0,1.0,1.0,251.0,687.0,0.0,0,4062.0,0
257,257,-0.6550782594078101,-0.7,0.0,1.0,283.0,771.0,0.0,1,-24.0,0
258,258,-0.21236446650749574,-0.2,1.0,0.0,460.0,933.0,0.0,0,467.0,1
259,259,-0.5414859730638567,-0.5,0.0,1.0,275.0,779.0,1.0,0,86.0,1
260,260,-0.08628612063542873,-0.1,1.0,0.0,300.0,877.0,0.0,0,1033.0,1
261,261,-0.11472029396979211,-0.1,1.0,0.0,462.0,709.0,0.0,0,459.0,1
262,262,-0.7872172601462697,-0.8,1.0,0.0,379.0,819.0,0.0,0,272.0,1
263,263,0.12792975130969897,0.1,1.0,1.0,390.0,945.0,1.0,1,985.0,1
264,264,0.5474347440367812,0.5,1.0,1.0,442.0,538.0,1.0,1,400.0,1
265,265,-0.2940187933469188,-0.3,1.0,0.0,457.0,831.0,0.0,0,22.0,1
266,266,-0.4695008901575961,-0.5,1.0,0.0,400.0,901.0,0.0,0,239.0,1
267,267,-0.6868219102766817,-0.7,1.0,0.0,314.0,802.0,0.0,0,194.0,1
268,268,-0.8564575320450416,-0.9,0.0,1.0,432.0,626.0,1.0,0,262.0,1
269,269,0.6288369591286086,0.6,0.0,0.0,499.0,778.0,0.0,1,303.0,1
270,270,-0.2691275740919119,-0.3,1.0,0.0,412.0,594.0,0.0,0,264.0,1
271,271,-0.21913013783444257,-0.2,0.0,1.0,327.0,770.0,0.0,1,-177.0,0
272,272,-0.6251966013501802,-0.6,0.0,1.0,367.0,691.0,1.0,0,332.0,1
273,273,-0.3489372904538044,-0.3,1.0,0.0,298.0,921.0,0.0,0,1091.0,1
274,274,-0.4378527356592069,-0.4,0.0,1.0,343.0,798.0,1.0,0,159.0,1
275,275,0.5959159679960703,0.6,1.0,1.0,284.0,698.0,1.0,1,318.0,1
276,276,0.26526917761419766,0.3,0.0,0.0,338.0,585.0,0.0,1,617.0,1
277,277,0.30443002694047216,0.3,0.0,0.0,270.0,724.0,0.0,1,-54.0,1
278,278,0.7526786146999077,0.8,1.0,1.0,280.0,790.0,1.0,1,300.0,1
279,279,0.8901032368294087,0.9,0.0,0.0,250.0,910.0,0.0,1,140.0,1
280,280,-0.8762057236031167,-0.9,1.0,0.0,342.0,615.0,0.0,0,263.0,1
281,281,0.48769732802265187,0.5,0.0,0.0,258.0,697.0,0.0,1,555.0,1
282,282,0.4478925276328639,0.4,0.0,0.0,425.0,927.0,0.0,1,118.0,1
283,283,0.4445557861352657,0.4,1.0,1.0,264.0,851.0,1.0,1,485.0,1
284,284,-0.4638484735528048,-0.5,0.0,1.0,298.0,659.0,1.0,0,813.0,1
285,285,-0.49048688031745097,-0.5,1.0,0.0,304.0,838.0,0.0,0,198.0,1
286,286,0.8609823975854941,0.9,1.0,1.0,396.0,893.0,1.0,1,91.0,1
287,287,-0.5238425315564366,-0.5,0.0,1.0,363.0,909.0,1.0,0,218.0,1
288,288,0.3129179152419269,0.3,0.0,0.0,472.0,795.0,0.0,1,393.0,1
289,289,-0.8870853519961474,-0.9,1.0,0.0,331.0,530.0,0.0,0,129.0,1
290,290,-0.3371492736420575,-0.3,0.0,1.0,460.0,927.0,1.0,0,603.0,1
291,291,-0.23510867674637903,-0.2,0.0,1.0,372.0,917.0,1.0,0,941.0,1
292,292,0.4584665096553887,0.5,1.0,1.0,373.0,965.0,1.0,1,262.0,1
293,293,0.7860967736639345,0.8,1.0,1.0,468.0,639.0,1.0,1,413.0,1
294,294,0.7680325969556941,0.8,0.0,0.0,373.0,837.0,0.0,1,360.0,1
295,295,-0.569512452597876,-0.6,0.0,1.0,483.0,622.0,1.0,0,165.0,1
296,296,0.15964081046780387,0.2,0.0,0.0,291.0,968.0,0.0,1,1931.0,1
297,297,-0.05660179661655118,-0.1,0.0,1.0,474.0,758.0,1.0,0,-502.0,1
298,298,0.541421010480288,0.5,1.0,1.0,375.0,996.0,1.0,1,99.0,1
299,299,-0.6930334347469393,-0.7,1.0,0.0,405.0,891.0,0.0,0,334.0,1
300,300,0.7312090093893387,0.7,1.0,1.0,408.0,788.0,1.0,1,384.0,1
301,301,-0.4769221059864515,-0.5,1.0,0.0,329.0,508.0,0.0,0,243.0,1
302,302,-0.8827535777500016,-0.9,1.0,0.0,466.0,798.0,0.0,0,106.0,1
303,303,0.02975017852378259,0.0,0.0,0.0,472.0,608.0,0.0,1,-210.0,1
304,304,-0.38414109703827526,-0.4,1.0,0.0,263.0,775.0,0.0,0,412.0,1
305,305,0.5733765293346772,0.6,1.0,1.0,256.0,557.0,1.0,1,307.0,1
306,306,0.14091231005647342,0.1,1.0,1.0,274.0,646.0,1.0,1,640.0,1
307,307,-0.8102442117041315,-0.8,1.0,0.0,473.0,501.0,0.0,0,86.0,1
308,308,0.21138495697540816,0.2,0.0,0.0,497.0,714.0,0.0,1,149.0,1
309,309,0.5301473104422377,0.5,1.0,1.0,315.0,500.0,1.0,1,455.0,1
310,310,-0.7314092857671108,-0.7,0.0,1.0,274.0,512.0,1.0,0,594.0,1
311,311,-0.5319801011824696,-0.5,0.0,1.0,390.0,798.0,1.0,0,232.0,1
312,312,0.8654008660735723,0.9,0.0,0.0,464.0,568.0,0.0,1,-132.0,1
313,313,-0.1131439144260743,-0.1,1.0,0.0,453.0,772.0,0.0,0,385.0,1
314,314,0.8693372716445716,0.9,1.0,1.0,265.0,752.0,1.0,1,233.0,1
315,315,0.5718971482868672,0.6,1.0,1.0,480.0,527.0,1.0,1,153.0,1
316,316,0.14918763488333375,0.1,1.0,1.0,265.0,520.0,1.0,1,425.0,1
317,317,-0.8434145627350106,-0.8,1.0,0.0,497.0,809.0,0.0,0,114.0,1
318,318,0.2089400943049925,0.2,1.0,1.0,491.0,682.0,1.0,1,547.0,1
319,319,0.8349153514914666,0.8,0.0,0.0,344.0,966.0,0.0,1,230.0,1
320,320,-0.3686064724931484,-0.4,1.0,0.0,346.0,566.0,0.0,0,578.0,1
321,321,0.02954751306731873,0.0,1.0,1.0,315.0,542.0,1.0,1,4143.0,1
322,322,0.6913139520524919,0.7,1.0,1.0,394.0,573.0,1.0,1,313.0,1
323,323,-0.6871721126664699,-0.7,0.0,1.0,499.0,713.0,1.0,0,458.0,1
324,324,-0.5091084227772864,-0.5,0.0,1.0,411.0,738.0,1.0,0,501.0,1
325,325,0.056120916303528,0.1,1.0,1.0,340.0,993.0,0.0,0,1277.0,0
326,326,-0.185473228301124,-0.2,1.0,0.0,388.0,801.0,0.0,0,481.0,1
327,327,0.5699115236965556,0.6,1.0,1.0,307.0,627.0,1.0,1,216.0,1
328,328,0.5673742110286119,0.6,1.0,1.0,474.0,690.0,1.0,1,396.0,1
329,329,0.5210424503195633,0.5,1.0,1.0,273.0,675.0,1.0,1,522.0,1
330,330,-0.06003871709579256,-0.1,0.0,1.0,397.0,983.0,0.0,1,880.0,0
331,331,0.6907629807980599,0.7,0.0,0.0,416.0,508.0,0.0,1,166.0,1
332,332,-0.343580573509663,-0.3,1.0,0.0,315.0,737.0,0.0,0,388.0,1
333,333,0.05999788387827354,0.1,0.0,0.0,459.0,792.0,0.0,1,1979.0,1
334,334,0.6839955659963578,0.7,1.0,1.0,480.0,597.0,1.0,1,243.0,1
335,335,0.6776380705704667,0.7,1.0,1.0,288.0,574.0,0.0,0,-52.0,0
336,336,-0.23996586427984878,-0.2,0.0,1.0,386.0,659.0,1.0,0,455.0,1
337,337,-0.8803870664006023,-0.9,1.0,0.0,262.0,808.0,0.0,0,310.0,1
338,338,-0.7034820339211263,-0.7,0.0,1.0,430.0,906.0,1.0,0,344.0,1
339,339,0.7912591230204086,0.8,0.0,0.0,257.0,875.0,0.0,1,58.0,1
340,340,-0.2273558906288321,-0.2,0.0,1.0,498.0,892.0,1.0,0,2300.0,1
341,341,-0.09091117064277254,-0.1,0.0,1.0,440.0,589.0,1.0,0,3971.0,1
342,342,-0.21714585416377197,-0.2,0.0,1.0,294.0,971.0,1.0,0,55.0,1
343,343,-0.15645102926150878,-0.2,0.0,1.0,311.0,527.0,1.0,0,2412.0,1
344,344,-0.7455087069215363,-0.7,1.0,0.0,308.0,901.0,0.0,0,211.0,1
345,345,0.7838814394524468,0.8,1.0,1.0,355.0,588.0,1.0,1,267.0,1
346,346,-0.05622017059849971,-0.1,0.0,1.0,473.0,667.0,1.0,0,560.0,1
347,347,-0.6121640832254314,-0.6,0.0,1.0,257.0,916.0,1.0,0,137.0,1
348,348,0.8259608523219165,0.8,1.0,1.0,261.0,548.0,1.0,1,181.0,1
349,349,0.27572102309948965,0.3,1.0,1.0,474.0,518.0,1.0,1,-72.0,1
350,350,-0.34304903621305693,-0.3,0.0,1.0,495.0,811.0,1.0,0,334.0,1
351,351,0.32623945577338775,0.3,1.0,1.0,381.0,872.0,1.0,1,997.0,1
352,352,-0.6459694442656545,-0.6,1.0,0.0,365.0,757.0,0.0,0,-12.0,1
353,353,-0.5408515264634892,-0.5,1.0,0.0,323.0,925.0,0.0,0,622.0,1
354,354,0.4750096935070226,0.5,1.0,1.0,377.0,846.0,1.0,1,497.0,1
355,355,0.17300793324847474,0.2,1.0,1.0,392.0,589.0,1.0,1,2569.0,1
356,356,-0.723314904276116,-0.7,1.0,0.0,443.0,513.0,0.0,0,134.0,1
357,357,0.06167786684469123,0.1,1.0,1.0,385.0,512.0,0.0,0,333.0,0
358,358,-0.3906541629332436,-0.4,0.0,1.0,480.0,878.0,1.0,0,322.0,1
359,359,-0.4564230809841611,-0.5,0.0,1.0,272.0,775.0,1.0,0,673.0,1
360,360,-0.8939884030478406,-0.9,1.0,0.0,444.0,897.0,0.0,0,-271.0,1
361,361,-0.6190127705193584,-0.6,0.0,1.0,467.0,867.0,1.0,0,146.0,1
362,362,0.42742986790679527,0.4,1.0,1.0,300.0,949.0,0.0,0,-589.0,0
363,363,-0.5948374179676665,-0.6,1.0,0.0,468.0,546.0,0.0,0,336.0,1
364,364,-0.29876271624654793,-0.3,1.0,0.0,492.0,929.0,0.0,0,139.0,1
365,365,0.2023206463947328,0.2,0.0,0.0,262.0,977.0,0.0,1,201.0,1
366,366,-0.534731077683047,-0.5,0.0,1.0,418.0,970.0,1.0,0,522.0,1
367,367,0.2614546308766902,0.3,1.0,1.0,492.0,964.0,1.0,1,1624.0,1
368,368,-0.49438032194939613,-0.5,0.0,1.0,258.0,676.0,1.0,0,686.0,1
369,369,0.8924845225106773,0.9,0.0,0.0,250.0,817.0,0.0,1,173.0,1
370,370,-0.18009810497765721,-0.2,0.0,1.0,421.0,968.0,1.0,0,591.0,1
371,371,-0.4163732062307896,-0.4,1.0,0.0,422.0,759.0,0.0,0,409.0,1
372,372,0.48876948791453134,0.5,0.0,0.0,344.0,754.0,0.0,1,192.0,1
373,373,-0.44741823637104783,-0.4,0.0,1.0,392.0,939.0,1.0,0,549.0,1
374,374,0.6000727371966889,0.6,1.0,1.0,418.0,599.0,1.0,1,303.0,1
375,375,-0.3606900699916529,-0.4,0.0,1.0,282.0,722.0,1.0,0,616.0,1
376,376,0.06580463716362706,0.1,1.0,1.0,350.0,611.0,1.0,1,459.0,1
377,377,-0.8223226542633363,-0.8,0.0,1.0,490.0,693.0,0.0,1,57.0,0
378,378,0.6243410177160159,0.6,0.0,0.0,496.0,981.0,0.0,1,303.0,1
379,379,0.495992553500615,0.5,0.0,0.0,423.0,799.0,0.0,1,288.0,1
380,380,0.7588671621820816,0.8,1.0,1.0,262.0,724.0,1.0,1,534.0,1
381,381,0.19259580192432535,0.2,1.0,1.0,356.0,868.0,1.0,1,306.0,1
382,382,-0.15712835945546155,-0.2,0.0,1.0,274.0,666.0,1.0,0,370.0,1
383,383,-0.6376175629766727,-0.6,1.0,0.0,280.0,773.0,0.0,0,127.0,1
384,384,0.6058634673333946,0.6,0.0,0.0,355.0,500.0,0.0,1,265.0,1
385,385,0.6799828837694118,0.7,1.0,1.0,346.0,528.0,1.0,1,156.0,1
386,386,-0.4660382255314311,-0.5,0.0,1.0,482.0,699.0,1.0,0,369.0,1
387,387,-0.07875324418120377,-0.1,0.0,1.0,459.0,830.0,0.0,1,3711.0,0
388,388,-0.09650529338803737,-0.1,1.0,0.0,459.0,751.0,0.0,0,3130.0,1
389,389,-0.18581213291281162,-0.2,0.0,1.0,437.0,983.0,1.0,0,1340.0,1
390,390,-0.8085101761924356,-0.8,1.0,0.0,383.0,702.0,0.0,0,605.0,1
391,391,-0.5065182348343705,-0.5,0.0,1.0,262.0,696.0,1.0,0,992.0,1
392,392,-0.2984231233019691,-0.3,1.0,0.0,370.0,585.0,0.0,0,115.0,1
393,393,0.05114376425584077,0.1,1.0,1.0,315.0,869.0,1.0,1,3816.0,1
394,394,-0.525966778522195,-0.5,1.0,0.0,428.0,646.0,0.0,0,306.0,1
395,395,0.5892545743309069,0.6,1.0,1.0,331.0,901.0,1.0,1,328.0,1
396,396,0.7104028476155569,0.7,0.0,0.0,256.0,981.0,0.0,1,323.0,1
397,397,0.24924968877518305,0.2,1.0,1.0,403.0,875.0,1.0,1,2322.0,1
398,398,0.23710486560136157,0.2,1.0,1.0,340.0,925.0,1.0,1,865.0,1
399,399,-0.719418418301602,-0.7,1.0,0.0,480.0,695.0,0.0,0,395.0,1
400,400,-0.5056344096747749,-0.5,0.0,1.0,250.0,650.0,0.0,1,20.0,0
401,401,0.019096473801079372,0.0,0.0,0.0,494.0,619.0,0.0,1,1457.0,1
402,402,0.1869626573655393,0.2,0.0,0.0,323.0,799.0,0.0,1,1838.0,1
403,403,0.34730740221948964,0.3,1.0,1.0,493.0,537.0,1.0,1,1460.0,1
404,404,0.5042469249976794,0.5,0.0,0.0,357.0,651.0,0.0,1,392.0,1
405,405,0.11689533120907003,0.1,0.0,0.0,387.0,520.0,0.0,1,3603.0,1
406,406,0.39525887470039567,0.4,1.0,1.0,394.0,762.0,1.0,1,504.0,1
407,407,0.763443135979515,0.8,1.0,1.0,260.0,525.0,1.0,1,205.0,1
408,408,-0.12055895537686945,-0.1,0.0,1.0,331.0,700.0,0.0,1,-181.0,0
409,409,0.3507625691099948,0.4,1.0,1.0,401.0,917.0,1.0,1,2.0,1
410,410,0.7472968674646486,0.7,0.0,0.0,414.0,558.0,0.0,1,428.0,1
411,411,0.5147713610895058,0.5,1.0,1.0,485.0,866.0,1.0,1,99.0,1
412,412,-0.1452755387447897,-0.1,1.0,0.0,267.0,775.0,0.0,0,318.0,1
413,413,0.3371239176717017,0.3,1.0,1.0,278.0,879.0,1.0,1,283.0,1
414,414,0.43773795298119966,0.4,0.0,0.0,287.0,538.0,0.0,1,505.0,1
415,415,0.7352783452458168,0.7,0.0,0.0,470.0,505.0,0.0,1,265.0,1
416,416,-0.6213634502317038,-0.6,0.0,1.0,447.0,590.0,0.0,1,-57.0,0
417,417,-0.020216658509248697,-0.0,0.0,1.0,395.0,517.0,1.0,0,1238.0,1
418,418,0.8579223074407526,0.9,1.0,1.0,336.0,661.0,1.0,1,213.0,1
419,419,-0.5153341021348865,-0.5,1.0,0.0,444.0,716.0,0.0,0,90.0,1
420,420,0.04882669856220201,0.0,1.0,1.0,371.0,537.0,0.0,0,632.0,0
421,421,-0.015940270300919157,-0.0,0.0,1.0,463.0,879.0,0.0,1,2188.0,0
422,422,0.21169387753855806,0.2,1.0,1.0,465.0,914.0,1.0,1,641.0,1
423,423,0.2727541856287975,0.3,1.0,1.0,423.0,761.0,1.0,1,606.0,1
424,424,0.5657653060773838,0.6,0.0,0.0,410.0,659.0,0.0,1,401.0,1
425,425,0.6892484587434687,0.7,0.0,0.0,479.0,667.0,0.0,1,444.0,1
426,426,0.2534713348073848,0.3,0.0,0.0,448.0,564.0,0.0,1,908.0,1
427,427,0.20033267439294444,0.2,1.0,1.0,487.0,833.0,1.0,1,1700.0,1
428,428,0.1257847648298437,0.1,0.0,0.0,350.0,560.0,0.0,1,640.0,1
429,429,0.7610125866655543,0.8,0.0,0.0,316.0,798.0,0.0,1,206.0,1
430,430,0.338454463021992,0.3,1.0,1.0,410.0,753.0,1.0,1,457.0,1
431,431,-0.2988298323148353,-0.3,1.0,0.0,280.0,703.0,0.0,0,117.0,1
432,432,-0.2663252104854017,-0.3,1.0,0.0,318.0,535.0,0.0,0,157.0,1
433,433,0.5054246787612043,0.5,0.0,0.0,389.0,995.0,0.0,1,-194.0,1
434,434,0.31309782295178346,0.3,1.0,1.0,354.0,509.0,1.0,1,1157.0,1
435,435,-0.10670007972746098,-0.1,1.0,0.0,282.0,732.0,0.0,0,216.0,1
436,436,-0.017310682994878923,-0.0,1.0,0.0,397.0,795.0,0.0,0,188.0,1
437,437,0.4736067845324913,0.5,0.0,0.0,484.0,603.0,0.0,1,573.0,1
438,438,-0.5765221514589274,-0.6,0.0,1.0,313.0,613.0,1.0,0,164.0,1
439,439,0.6147958771970566,0.6,1.0,1.0,407.0,933.0,1.0,1,560.0,1
440,440,0.10054512804717819,0.1,0.0,0.0,410.0,794.0,0.0,1,1086.0,1
441,441,0.5721105505913021,0.6,0.0,0.0,409.0,774.0,0.0,1,207.0,1
442,442,-0.3089441745295751,-0.3,1.0,0.0,419.0,554.0,0.0,0,47.0,1
443,443,-0.5853316067283361,-0.6,0.0,1.0,340.0,558.0,1.0,0,322.0,1
444,444,-0.2436073557152113,-0.2,1.0,0.0,284.0,655.0,0.0,0,821.0,1
445,445,0.041417612285255645,0.0,0.0,0.0,452.0,781.0,0.0,1,-253.0,1
446,446,0.3763811094357078,0.4,0.0,0.0,263.0,798.0,0.0,1,239.0,1
447,447,0.31439429562202126,0.3,1.0,1.0,427.0,852.0,1.0,1,371.0,1
448,448,-0.42014751800831573,-0.4,1.0,0.0,386.0,681.0,0.0,0,213.0,1
449,449,-0.30632191960637,-0.3,1.0,0.0,288.0,835.0,0.0,0,1057.0,1
450,450,-0.5577387284867388,-0.6,0.0,1.0,414.0,694.0,1.0,0,1232.0,1
451,451,0.7696716952249182,0.8,1.0,1.0,273.0,653.0,1.0,1,34.0,1
452,452,-0.3925996350459875,-0.4,0.0,1.0,439.0,639.0,1.0,0,892.0,1
453,453,0.796395142161216,0.8,0.0,0.0,267.0,600.0,0.0,1,323.0,1
454,454,-0.7426553498862134,-0.7,1.0,0.0,473.0,788.0,0.0,0,159.0,1
455,455,0.38387962977844425,0.4,1.0,1.0,421.0,667.0,1.0,1,202.0,1
456,456,-0.23845437053607388,-0.2,1.0,0.0,384.0,942.0,0.0,0,254.0,1
457,457,-0.6679223156968223,-0.7,0.0,1.0,399.0,848.0,0.0,1,-197.0,0
458,458,0.09220201568114872,0.1,1.0,1.0,479.0,648.0,1.0,1,853.0,1
459,459,-0.8293900629625433,-0.8,1.0,0.0,263.0,852.0,0.0,0,-335.0,1
460,460,-0.3814668223372726,-0.4,1.0,0.0,392.0,662.0,0.0,0,266.0,1
461,461,-0.40141359775464364,-0.4,0.0,1.0,314.0,508.0,1.0,0,988.0,1
462,462,0.6212657345726681,0.6,0.0,0.0,456.0,913.0,1.0,0,1.0,0
463,463,0.430062632543888,0.4,0.0,0.0,495.0,998.0,0.0,1,387.0,1
464,464,-0.09197509244052982,-0.1,0.0,1.0,437.0,512.0,1.0,0,1631.0,1
465,465,0.3561705630935149,0.4,1.0,1.0,336.0,566.0,1.0,1,718.0,1
466,466,-0.1712796167899615,-0.2,1.0,0.0,394.0,859.0,0.0,0,537.0,1
467,467,-0.871981425482425,-0.9,1.0,0.0,430.0,553.0,0.0,0,217.0,1
468,468,-0.7138869846981853,-0.7,1.0,0.0,414.0,628.0,0.0,0,378.0,1
469,469,0.1427099006814484,0.1,1.0,1.0,400.0,508.0,1.0,1,432.0,1
470,470,0.6276103159637411,0.6,1.0,1.0,385.0,528.0,1.0,1,727.0,1
471,471,-0.8281035968106931,-0.8,1.0,0.0,410.0,868.0,0.0,0,182.0,1
472,472,0.7163121634671271,0.7,0.0,0.0,441.0,903.0,0.0,1,276.0,1
473,473,-0.6068548828962377,-0.6,1.0,0.0,447.0,766.0,0.0,0,317.0,1
474,474,0.3303017584484734,0.3,1.0,1.0,397.0,895.0,1.0,1,458.0,1
475,475,0.5599775551366003,0.6,1.0,1.0,491.0,824.0,1.0,1,265.0,1
476,476,0.07096372463384959,0.1,0.0,0.0,449.0,527.0,1.0,0,554.0,0
477,477,-0.7193040103923845,-0.7,0.0,1.0,361.0,641.0,1.0,0,308.0,1
478,478,0.7918652990855647,0.8,0.0,0.0,393.0,770.0,0.0,1,267.0,1
479,479,0.29242053603969886,0.3,1.0,1.0,354.0,502.0,1.0,1,794.0,1
480,480,0.6473604684332289,0.6,0.0,0.0,462.0,965.0,0.0,1,443.0,1
481,481,-0.4745558852356208,-0.5,1.0,0.0,410.0,891.0,0.0,0,259.0,1
482,482,-0.5356178357079932,-0.5,1.0,0.0,369.0,971.0,0.0,0,120.0,1
483,483,-0.2986786752859514,-0.3,1.0,0.0,278.0,678.0,0.0,0,214.0,1
484,484,0.44288941601021314,0.4,0.0,0.0,415.0,992.0,0.0,1,353.0,1
485,485,0.2670859901722761,0.3,0.0,0.0,456.0,547.0,0.0,1,1047.0,1
486,486,0.4097143452014963,0.4,1.0,1.0,486.0,688.0,0.0,0,66.0,0
487,487,-0.8346519306469634,-0.8,1.0,0.0,398.0,766.0,0.0,0,446.0,1
488,488,0.28317251155678036,0.3,1.0,1.0,354.0,668.0,1.0,1,548.0,1
489,489,0.6364475875235597,0.6,1.0,1.0,376.0,663.0,1.0,1,171.0,1
490,490,-0.8750093683056526,-0.9,0.0,1.0,408.0,578.0,1.0,0,324.0,1
491,491,-0.1300458080545479,-0.1,0.0,1.0,450.0,810.0,1.0,0,3740.0,1
492,492,0.5682661346377581,0.6,0.0,0.0,489.0,929.0,0.0,1,72.0,1
493,493,-0.3470083108385352,-0.3,1.0,0.0,290.0,840.0,0.0,0,350.0,1
494,494,0.5839653404197517,0.6,0.0,0.0,398.0,582.0,0.0,1,270.0,1
495,495,0.2036369811293487,0.2,0.0,0.0,345.0,726.0,0.0,1,269.0,1
496,496,0.19009769230481266,0.2,0.0,0.0,360.0,976.0,0.0,1,1024.0,1
497,497,-0.24975890508329224,-0.2,1.0,0.0,346.0,502.0,0.0,0,182.0,1
498,498,-0.721510883241522,-0.7,1.0,0.0,412.0,761.0,0.0,0,227.0,1
499,499,0.3504198137559572,0.4,0.0,0.0,329.0,795.0,0.0,1,396.0,1
500,500,-0.10593145120651948,-0.1,1.0,0.0,419.0,882.0,0.0,0,1949.0,1
501,501,-0.08576731472712673,-0.1,0.0,1.0,374.0,656.0,1.0,0,3580.0,1
502,502,0.6387450229670296,0.6,1.0,1.0,413.0,811.0,1.0,1,256.0,1
503,503,-0.558403604846065,-0.6,0.0,1.0,408.0,760.0,1.0,0,362.0,1
504,504,0.6369495233967689,0.6,1.0,1.0,403.0,780.0,1.0,1,627.0,1
505,505,0.45059279486147885,0.5,1.0,1.0,378.0,885.0,1.0,1,367.0,1
506,506,-0.49045643482000306,-0.5,0.0,1.0,398.0,531.0,1.0,0,461.0,1
507,507,-0.6431248269381096,-0.6,1.0,0.0,365.0,607.0,0.0,0,258.0,1
508,508,-0.4098249477256715,-0.4,0.0,1.0,409.0,637.0,1.0,0,984.0,1
509,509,0.24538833769283264,0.2,0.0,0.0,461.0,618.0,0.0,1,391.0,1
510,510,-0.35776970736739955,-0.4,1.0,0.0,384.0,739.0,0.0,0,467.0,1
511,511,0.496426710605005,0.5,1.0,1.0,312.0,698.0,1.0,1,280.0,1
512,512,0.1339769414494857,0.1,0.0,0.0,266.0,598.0,0.0,1,1206.0,1
513,513,-0.5587827595511804,-0.6,1.0,0.0,383.0,564.0,0.0,0,333.0,1
514,514,-0.43053539747835884,-0.4,0.0,1.0,442.0,965.0,1.0,0,663.0,1
515,515,-0.4359479781504653,-0.4,0.0,1.0,265.0,694.0,1.0,0,471.0,1
516,516,0.2770520078764621,0.3,1.0,1.0,322.0,981.0,1.0,1,897.0,1
517,517,-0.2565706553339755,-0.3,1.0,0.0,326.0,580.0,0.0,0,704.0,1
518,518,0.5246523621166505,0.5,1.0,1.0,424.0,977.0,0.0,0,-701.0,0
519,519,0.8651038053588608,0.9,1.0,1.0,366.0,963.0,1.0,1,211.0,1
520,520,-0.4862774267145304,-0.5,1.0,0.0,387.0,617.0,0.0,0,416.0,1
521,521,0.404456982183239,0.4,1.0,1.0,444.0,699.0,1.0,1,157.0,1
522,522,0.0011748099147259605,0.0,0.0,0.0,480.0,830.0,1.0,0,2570.0,0
523,523,0.2084918675009283,0.2,0.0,0.0,318.0,827.0,0.0,1,945.0,1
524,524,-0.4869742716450301,-0.5,1.0,0.0,339.0,718.0,0.0,0,213.0,1
525,525,-0.41750626289486803,-0.4,1.0,0.0,323.0,572.0,0.0,0,325.0,1
526,526,-0.7310362954499008,-0.7,1.0,0.0,271.0,793.0,0.0,0,-294.0,1
527,527,-0.5763386364214003,-0.6,0.0,1.0,488.0,865.0,1.0,0,367.0,1
528,528,0.13593116447730502,0.1,1.0,1.0,417.0,589.0,1.0,1,494.0,1
529,529,0.3391079369100979,0.3,1.0,1.0,495.0,894.0,1.0,1,1141.0,1
530,530,-0.4659680415682793,-0.5,1.0,0.0,425.0,649.0,0.0,0,316.0,1
531,531,-0.2855227296664751,-0.3,0.0,1.0,369.0,896.0,1.0,0,885.0,1
532,532,-0.36360538435893464,-0.4,0.0,1.0,294.0,631.0,1.0,0,515.0,1
533,533,-0.6423406588536229,-0.6,1.0,0.0,284.0,817.0,0.0,0,289.0,1
534,534,0.38454737976106024,0.4,1.0,1.0,411.0,952.0,1.0,1,417.0,1
535,535,-0.2108972527203734,-0.2,0.0,1.0,344.0,919.0,1.0,0,1117.0,1
536,536,0.5950044104145525,0.6,0.0,0.0,452.0,598.0,0.0,1,310.0,1
537,537,-0.3825742149342274,-0.4,0.0,1.0,428.0,767.0,1.0,0,535.0,1
538,538,-0.5425833067095645,-0.5,0.0,1.0,291.0,631.0,1.0,0,678.0,1
539,539,-0.7599018436154875,-0.8,0.0,1.0,307.0,864.0,1.0,0,479.0,1
540,540,-0.582265732193982,-0.6,0.0,1.0,443.0,893.0,1.0,0,534.0,1
541,541,-0.10130172353841338,-0.1,0.0,1.0,318.0,790.0,1.0,0,612.0,1
542,542,-0.39345964812735446,-0.4,0.0,1.0,497.0,800.0,1.0,0,383.0,1
543,543,0.27291260138117013,0.3,0.0,0.0,426.0,773.0,0.0,1,601.0,1
544,544,0.7796637559793017,0.8,1.0,1.0,470.0,864.0,1.0,1,316.0,1
545,545,0.7912421855350823,0.8,0.0,0.0,284.0,775.0,0.0,1,131.0,1
546,546,0.023330957533575947,0.0,0.0,0.0,253.0,776.0,0.0,1,1291.0,1
547,547,0.5180154110584377,0.5,1.0,1.0,379.0,660.0,1.0,1,371.0,1
548,548,0.2784844653835329,0.3,1.0,1.0,284.0,899.0,1.0,1,337.0,1
549,549,-0.5596669829422688,-0.6,0.0,1.0,267.0,977.0,1.0,0,426.0,1
550,550,0.04705467141190578,0.0,1.0,1.0,431.0,771.0,0.0,0,1778.0,0
551,551,0.5780025802964127,0.6,1.0,1.0,369.0,773.0,1.0,1,948.0,1
552,552,-0.8048222216404306,-0.8,1.0,0.0,347.0,840.0,0.0,0,113.0,1
553,553,0.533070546900475,0.5,1.0,1.0,431.0,627.0,1.0,1,432.0,1
554,554,-0.12494822122173999,-0.1,1.0,0.0,469.0,809.0,0.0,0,1792.0,1
555,555,-0.19005531139999543,-0.2,0.0,1.0,267.0,668.0,1.0,0,465.0,1
556,556,-0.49417522041202305,-0.5,0.0,1.0,416.0,531.0,1.0,0,313.0,1
557,557,-0.523028041267257,-0.5,1.0,0.0,388.0,861.0,0.0,0,-129.0,1
558,558,0.37350345927834405,0.4,0.0,0.0,483.0,597.0,0.0,1,-70.0,1
559,559,0.5041198017037932,0.5,0.0,0.0,418.0,967.0,0.0,1,135.0,1
560,560,0.4103586101434141,0.4,0.0,0.0,375.0,715.0,0.0,1,150.0,1
561,561,-0.2937648071935215,-0.3,1.0,0.0,283.0,567.0,0.0,0,810.0,1
562,562,0.8861685797689772,0.9,0.0,0.0,356.0,648.0,0.0,1,346.0,1
563,563,0.26462886469634916,0.3,1.0,1.0,310.0,899.0,1.0,1,641.0,1
564,564,-0.4163868815462794,-0.4,1.0,0.0,425.0,743.0,0.0,0,432.0,1
565,565,0.659402948332244,0.7,1.0,1.0,362.0,930.0,1.0,1,288.0,1
566,566,-0.25568285398794577,-0.3,0.0,1.0,349.0,898.0,1.0,0,293.0,1
567,567,0.6238922689073542,0.6,0.0,0.0,292.0,724.0,0.0,1,244.0,1
568,568,-0.8956627067024915,-0.9,1.0,0.0,449.0,565.0,0.0,0,66.0,1
569,569,0.6786686347510532,0.7,1.0,1.0,432.0,773.0,1.0,1,1005.0,1
570,570,-0.8518369083726312,-0.9,1.0,0.0,267.0,745.0,0.0,0,428.0,1
571,571,-0.6927894430925507,-0.7,0.0,1.0,355.0,913.0,1.0,0,662.0,1
572,572,0.41734111725146794,0.4,1.0,1.0,269.0,868.0,1.0,1,593.0,1
573,573,0.43506033047324333,0.4,0.0,0.0,360.0,794.0,0.0,1,436.0,1
574,574,0.7471567540351199,0.7,1.0,1.0,365.0,870.0,0.0,0,-65.0,0
575,575,-0.06030227318124359,-0.1,1.0,0.0,383.0,739.0,0.0,0,1948.0,1
576,576,-0.4036369392131677,-0.4,0.0,1.0,442.0,678.0,1.0,0,760.0,1
577,577,0.24124095232408005,0.2,0.0,0.0,469.0,706.0,0.0,1,535.0,1
578,578,-0.761056196665868,-0.8,1.0,0.0,456.0,789.0,0.0,0,175.0,1
579,579,-0.6514460665668727,-0.7,1.0,0.0,363.0,594.0,0.0,0,-297.0,1
580,580,0.8967519490181267,0.9,0.0,0.0,332.0,738.0,0.0,1,170.0,1
581,581,-0.42641344297837935,-0.4,1.0,0.0,374.0,546.0,0.0,0,130.0,1
582,582,0.7848996569678209,0.8,0.0,0.0,372.0,756.0,0.0,1,302.0,1
583,583,-0.32989110526864596,-0.3,1.0,0.0,307.0,900.0,0.0,0,433.0,1
584,584,0.681845476264146,0.7,0.0,0.0,341.0,509.0,0.0,1,410.0,1
585,585,-0.32087933935014146,-0.3,0.0,1.0,456.0,722.0,1.0,0,912.0,1
586,586,-0.490263896591283,-0.5,0.0,1.0,350.0,962.0,1.0,0,248.0,1
587,587,-0.2084629296421211,-0.2,0.0,1.0,360.0,916.0,1.0,0,1164.0,1
588,588,-0.7142475422242495,-0.7,1.0,0.0,413.0,747.0,0.0,0,340.0,1
589,589,0.22721809127785686,0.2,1.0,1.0,260.0,802.0,0.0,0,-32.0,0
590,590,0.5030539774110933,0.5,1.0,1.0,444.0,789.0,1.0,1,327.0,1
591,591,-0.33028799989020796,-0.3,1.0,0.0,397.0,823.0,0.0,0,530.0,1
592,592,0.5873303455047737,0.6,1.0,1.0,358.0,741.0,1.0,1,411.0,1
593,593,0.5986498828935073,0.6,0.0,0.0,322.0,704.0,0.0,1,244.0,1
594,594,0.11389427218861237,0.1,1.0,1.0,293.0,864.0,1.0,1,1683.0,1
595,595,-0.19431631812770944,-0.2,0.0,1.0,420.0,643.0,1.0,0,827.0,1
596,596,-0.4942313024655208,-0.5,0.0,1.0,276.0,930.0,1.0,0,544.0,1
597,597,0.19010590799408245,0.2,1.0,1.0,260.0,549.0,1.0,1,571.0,1
598,598,0.850967996822244,0.9,1.0,1.0,397.0,886.0,1.0,1,1017.0,1
599,599,0.2719016232478081,0.3,0.0,0.0,358.0,907.0,0.0,1,205.0,1
600,600,0.3257267959180633,0.3,0.0,0.0,260.0,593.0,0.0,1,867.0,1
601,601,0.5314888528446967,0.5,1.0,1.0,490.0,949.0,0.0,0,-159.0,0
602,602,0.31291409746168786,0.3,1.0,1.0,280.0,860.0,1.0,1,400.0,1
603,603,-0.5173953350023566,-0.5,0.0,1.0,282.0,941.0,1.0,0,97.0,1
604,604,0.06994936834689436,0.1,1.0,1.0,380.0,807.0,1.0,1,1763.0,1
605,605,-0.8010547260107418,-0.8,0.0,1.0,368.0,808.0,1.0,0,354.0,1
606,606,-0.818877747022989,-0.8,0.0,1.0,255.0,822.0,1.0,0,673.0,1
607,607,0.5013197395851733,0.5,1.0,1.0,371.0,640.0,1.0,1,939.0,1
608,608,-0.30784448751263827,-0.3,1.0,0.0,449.0,591.0,0.0,0,820.0,1
609,609,0.08857250785844983,0.1,1.0,1.0,463.0,505.0,1.0,1,4032.0,1
610,610,0.7871981563810132,0.8,1.0,1.0,275.0,934.0,0.0,0,1.0,0
611,611,-0.5819298021026901,-0.6,1.0,0.0,482.0,625.0,0.0,0,183.0,1
612,612,-0.3742521537058634,-0.4,0.0,1.0,262.0,518.0,1.0,0,360.0,1
613,613,0.35600114145140804,0.4,1.0,1.0,499.0,540.0,1.0,1,371.0,1
614,614,-0.5298529009910826,-0.5,0.0,1.0,284.0,952.0,1.0,0,144.0,1
615,615,-0.5157890947168495,-0.5,1.0,0.0,406.0,948.0,0.0,0,286.0,1
616,616,-0.21846482824527746,-0.2,0.0,1.0,419.0,568.0,1.0,0,853.0,1
617,617,0.32142066785209045,0.3,1.0,1.0,440.0,668.0,1.0,1,252.0,1
618,618,-0.8329299608753772,-0.8,1.0,0.0,287.0,953.0,0.0,0,270.0,1
619,619,-0.08103786923657208,-0.1,1.0,0.0,452.0,685.0,0.0,0,753.0,1
620,620,-0.19015215662063856,-0.2,1.0,0.0,481.0,834.0,0.0,0,955.0,1
621,621,-0.05401265797551624,-0.1,1.0,0.0,309.0,713.0,0.0,0,2968.0,1
622,622,0.6362877212232659,0.6,0.0,0.0,369.0,866.0,0.0,1,225.0,1
623,623,-0.34124057538165786,-0.3,1.0,0.0,488.0,746.0,0.0,0,696.0,1
624,624,-0.3340970261643018,-0.3,1.0,0.0,316.0,984.0,0.0,0,390.0,1
625,625,-0.2701057652568306,-0.3,0.0,1.0,305.0,578.0,1.0,0,257.0,1
626,626,0.7389278603686374,0.7,1.0,1.0,292.0,557.0,1.0,1,371.0,1
627,627,0.48660174814169344,0.5,1.0,1.0,473.0,740.0,1.0,1,237.0,1
628,628,0.5274252347794773,0.5,1.0,1.0,326.0,889.0,1.0,1,545.0,1
629,629,0.38192371408104664,0.4,0.0,0.0,373.0,739.0,0.0,1,468.0,1
630,630,-0.19592481449198107,-0.2,1.0,0.0,453.0,573.0,0.0,0,664.0,1
631,631,-0.316184310608034,-0.3,0.0,1.0,253.0,541.0,1.0,0,266.0,1
632,632,0.23323359716230574,0.2,0.0,0.0,477.0,739.0,0.0,1,814.0,1
633,633,-0.7378634341955485,-0.7,0.0,1.0,442.0,680.0,1.0,0,278.0,1
634,634,-0.37641946656518543,-0.4,1.0,0.0,308.0,826.0,0.0,0,-404.0,1
635,635,-0.20504480922480317,-0.2,0.0,1.0,493.0,862.0,1.0,0,445.0,1
636,636,-0.8094337503922789,-0.8,1.0,0.0,476.0,871.0,0.0,0,123.0,1
637,637,-0.6984169660426692,-0.7,1.0,0.0,293.0,714.0,0.0,0,173.0,1
638,638,-0.4927735783000409,-0.5,1.0,0.0,280.0,727.0,0.0,0,-177.0,1
639,639,-0.3138208236782416,-0.3,1.0,0.0,349.0,592.0,0.0,0,769.0,1
640,640,0.5415373337796267,0.5,1.0,1.0,272.0,745.0,1.0,1,153.0,1
641,641,0.5498334974316951,0.5,1.0,1.0,483.0,832.0,1.0,1,475.0,1
642,642,-0.8649307168246302,-0.9,0.0,1.0,491.0,773.0,1.0,0,206.0,1
643,643,0.4164057818671655,0.4,1.0,1.0,366.0,772.0,1.0,1,252.0,1
644,644,-0.27451177301844965,-0.3,0.0,1.0,473.0,531.0,1.0,0,1556.0,1
645,645,-0.6552460784298645,-0.7,0.0,1.0,371.0,768.0,1.0,0,261.0,1
646,646,-0.1603450273487863,-0.2,1.0,0.0,315.0,974.0,0.0,0,-389.0,1
647,647,-0.37999835692021344,-0.4,0.0,1.0,257.0,885.0,0.0,1,48.0,0
648,648,-0.30966508723561603,-0.3,1.0,0.0,443.0,506.0,0.0,0,321.0,1
649,649,-0.25143435910857637,-0.3,1.0,0.0,460.0,539.0,0.0,0,401.0,1
650,650,-0.16864132330895454,-0.2,1.0,0.0,252.0,942.0,0.0,0,696.0,1
651,651,-0.5763483250019967,-0.6,0.0,1.0,377.0,608.0,1.0,0,295.0,1
652,652,-0.001414337850659364,-0.0,1.0,0.0,301.0,616.0,0.0,0,1173.0,1
653,653,0.08525806905893196,0.1,1.0,1.0,389.0,847.0,1.0,1,3764.0,1
654,654,-0.4239280408674289,-0.4,0.0,1.0,302.0,935.0,1.0,0,393.0,1
655,655,0.8202392969024855,0.8,1.0,1.0,396.0,738.0,1.0,1,306.0,1
656,656,0.8100919143342357,0.8,0.0,0.0,395.0,603.0,0.0,1,362.0,1
657,657,0.05666095450444675,0.1,0.0,0.0,260.0,676.0,0.0,1,2274.0,1
658,658,-0.003954789839827222,-0.0,1.0,0.0,409.0,851.0,0.0,0,-20.0,1
659,659,0.8490355939306572,0.8,0.0,0.0,423.0,958.0,0.0,1,329.0,1
660,660,-0.45373790049202267,-0.5,1.0,0.0,259.0,777.0,0.0,0,414.0,1
661,661,0.4606527273019637,0.5,1.0,1.0,282.0,653.0,1.0,1,125.0,1
662,662,0.042420102184561936,0.0,0.0,0.0,494.0,876.0,1.0,0,3630.0,0
663,663,-0.7796379163258329,-0.8,1.0,0.0,482.0,697.0,0.0,0,511.0,1
664,664,-0.8669899626683294,-0.9,1.0,0.0,363.0,899.0,0.0,0,188.0,1
665,665,0.8293527510529312,0.8,1.0,1.0,482.0,595.0,1.0,1,163.0,1
666,666,0.1841755625824032,0.2,1.0,1.0,351.0,681.0,1.0,1,1238.0,1
667,667,0.7641445299975275,0.8,0.0,0.0,446.0,716.0,0.0,1,-32.0,1
668,668,0.7945373035078668,0.8,1.0,1.0,330.0,526.0,1.0,1,274.0,1
669,669,0.422442660109961,0.4,0.0,0.0,358.0,813.0,0.0,1,239.0,1
670,670,0.4847792256468074,0.5,0.0,0.0,499.0,951.0,0.0,1,320.0,1
671,671,0.7658791364361307,0.8,0.0,0.0,470.0,877.0,0.0,1,-237.0,1
672,672,-0.04026718827663012,-0.0,1.0,0.0,317.0,812.0,0.0,0,721.0,1
673,673,0.28433923590175014,0.3,1.0,1.0,409.0,962.0,1.0,1,1069.0,1
674,674,0.039732440308996586,0.0,1.0,1.0,291.0,899.0,1.0,1,-210.0,1
675,675,0.37320089497482944,0.4,1.0,1.0,407.0,910.0,1.0,1,423.0,1
676,676,-0.22537271971178063,-0.2,0.0,1.0,413.0,843.0,1.0,0,514.0,1
677,677,-0.3013490350491206,-0.3,1.0,0.0,347.0,762.0,0.0,0,611.0,1
678,678,-0.28783017914186104,-0.3,0.0,1.0,492.0,592.0,1.0,0,996.0,1
679,679,0.6254679903004522,0.6,1.0,1.0,405.0,868.0,1.0,1,337.0,1
680,680,-0.17605116298384071,-0.2,1.0,0.0,281.0,906.0,0.0,0,3.0,1
681,681,0.7229844606685151,0.7,0.0,0.0,262.0,851.0,0.0,1,267.0,1
682,682,0.37898304344877787,0.4,1.0,1.0,451.0,863.0,1.0,1,376.0,1
683,683,0.029783569969989432,0.0,1.0,1.0,487.0,903.0,0.0,0,3610.0,0
684,684,0.5686099470605867,0.6,1.0,1.0,263.0,719.0,0.0,0,38.0,0
685,685,0.5180712602894876,0.5,1.0,1.0,458.0,585.0,1.0,1,417.0,1
686,686,0.42590940432063806,0.4,1.0,1.0,463.0,784.0,1.0,1,163.0,1
687,687,-0.8935240229165639,-0.9,0.0,1.0,453.0,662.0,1.0,0,235.0,1
688,688,-0.10904494868028047,-0.1,0.0,1.0,387.0,628.0,1.0,0,1475.0,1
689,689,0.346018230841019,0.3,0.0,0.0,414.0,719.0,0.0,1,1127.0,1
690,690,-0.8639334393940333,-0.9,0.0,1.0,259.0,564.0,1.0,0,437.0,1
691,691,0.808140930224741,0.8,0.0,0.0,336.0,975.0,0.0,1,69.0,1
692,692,0.2247971247544528,0.2,1.0,1.0,325.0,796.0,1.0,1,649.0,1
693,693,0.62098886212788,0.6,1.0,1.0,484.0,699.0,1.0,1,367.0,1
694,694,0.31101784912071906,0.3,0.0,0.0,360.0,504.0,0.0,1,396.0,1
695,695,0.2647015899702446,0.3,1.0,1.0,302.0,663.0,1.0,1,835.0,1
696,696,0.29334731533565417,0.3,0.0,0.0,412.0,695.0,0.0,1,643.0,1
697,697,0.72934813155943,0.7,1.0,1.0,263.0,994.0,1.0,1,93.0,1
698,698,-0.1456555897801759,-0.1,0.0,1.0,281.0,660.0,0.0,1,169.0,0
699,699,0.5517214841964587,0.6,0.0,0.0,302.0,641.0,0.0,1,397.0,1
700,700,-0.7515437391495182,-0.8,0.0,1.0,444.0,643.0,1.0,0,333.0,1
701,701,-0.7366681331775208,-0.7,1.0,0.0,344.0,561.0,0.0,0,75.0,1
702,702,-0.1696137516465227,-0.2,1.0,0.0,460.0,977.0,0.0,0,973.0,1
703,703,-0.027146216149075864,-0.0,1.0,0.0,475.0,789.0,1.0,1,3736.0,0
704,704,0.602751834927406,0.6,1.0,1.0,477.0,865.0,1.0,1,308.0,1
705,705,0.11618305431351816,0.1,0.0,0.0,443.0,563.0,0.0,1,3994.0,1
706,706,0.4732406529211465,0.5,0.0,0.0,279.0,536.0,0.0,1,515.0,1
707,707,0.6177409149823471,0.6,1.0,1.0,319.0,707.0,1.0,1,214.0,1
708,708,0.7203518137867936,0.7,1.0,1.0,350.0,564.0,1.0,1,446.0,1
709,709,0.749685688642982,0.7,0.0,0.0,267.0,552.0,0.0,1,81.0,1
710,710,0.054221963623599434,0.1,0.0,0.0,346.0,704.0,0.0,1,-120.0,1
711,711,-0.18542626349057667,-0.2,0.0,1.0,289.0,917.0,1.0,0,514.0,1
712,712,0.2480100848385035,0.2,0.0,0.0,469.0,959.0,0.0,1,-238.0,1
713,713,0.6419542322197923,0.6,0.0,0.0,291.0,713.0,0.0,1,136.0,1
714,714,0.8537751837919788,0.9,0.0,0.0,436.0,882.0,0.0,1,262.0,1
715,715,-0.4846151681946134,-0.5,1.0,0.0,487.0,538.0,0.0,0,245.0,1
716,716,0.6395903427719597,0.6,1.0,1.0,345.0,731.0,1.0,1,294.0,1
717,717,-0.4072381201703553,-0.4,1.0,0.0,320.0,651.0,0.0,0,-61.0,1
718,718,0.5669142838182114,0.6,1.0,1.0,358.0,765.0,1.0,1,317.0,1
719,719,0.8979833487664658,0.9,1.0,1.0,315.0,737.0,1.0,1,198.0,1
720,720,0.0707964799041838,0.1,0.0,0.0,432.0,751.0,0.0,1,1957.0,1
721,721,-0.5343892855142763,-0.5,1.0,0.0,338.0,558.0,0.0,0,224.0,1
722,722,0.3569565320381748,0.4,0.0,0.0,432.0,528.0,0.0,1,750.0,1
723,723,-0.47167268110867855,-0.5,0.0,1.0,477.0,922.0,1.0,0,31.0,1
724,724,-0.4613173824949409,-0.5,0.0,1.0,461.0,804.0,1.0,0,765.0,1
725,725,-0.6321942464959288,-0.6,0.0,1.0,377.0,847.0,1.0,0,66.0,1
726,726,-0.36209510161205605,-0.4,1.0,0.0,454.0,745.0,0.0,0,221.0,1
727,727,-0.47882128526767026,-0.5,0.0,1.0,468.0,634.0,1.0,0,688.0,1
728,728,-0.6617381498117287,-0.7,1.0,0.0,317.0,993.0,0.0,0,230.0,1
729,729,-0.12565618089570307,-0.1,0.0,1.0,337.0,722.0,0.0,1,-229.0,0
730,730,-0.039187531398322095,-0.0,0.0,1.0,388.0,937.0,1.0,0,1535.0,1
731,731,-0.15336613819560307,-0.2,1.0,0.0,312.0,845.0,0.0,0,173.0,1
732,732,0.14099827108007135,0.1,0.0,0.0,444.0,702.0,0.0,1,1384.0,1
733,733,-0.48109451570165024,-0.5,0.0,1.0,329.0,907.0,1.0,0,224.0,1
734,734,0.7836209131695776,0.8,0.0,0.0,428.0,849.0,0.0,1,293.0,1
735,735,-0.5749851718803638,-0.6,0.0,1.0,393.0,912.0,1.0,0,315.0,1
736,736,0.4481616722474969,0.4,1.0,1.0,424.0,762.0,1.0,1,404.0,1
737,737,0.17785939745982893,0.2,0.0,0.0,458.0,514.0,0.0,1,418.0,1
738,738,-0.5644713198146685,-0.6,1.0,0.0,399.0,651.0,0.0,0,310.0,1
739,739,-0.7595328445503751,-0.8,1.0,0.0,334.0,583.0,0.0,0,133.0,1
740,740,0.1687257050102685,0.2,0.0,0.0,469.0,567.0,0.0,1,474.0,1
741,741,-0.7642148647167127,-0.8,1.0,0.0,421.0,575.0,0.0,0,134.0,1
742,742,-0.5447162713455616,-0.5,1.0,0.0,358.0,803.0,0.0,0,279.0,1
743,743,0.7120954118226274,0.7,0.0,0.0,485.0,625.0,1.0,0,-40.0,0
744,744,0.08944758194511737,0.1,1.0,1.0,465.0,967.0,1.0,1,2958.0,1
745,745,0.6008870663025226,0.6,1.0,1.0,469.0,501.0,1.0,1,340.0,1
746,746,-0.5613107883585386,-0.6,0.0,1.0,304.0,947.0,1.0,0,329.0,1
747,747,-0.6155292924205769,-0.6,0.0,1.0,459.0,532.0,1.0,0,329.0,1
748,748,0.09162003238026739,0.1,0.0,0.0,361.0,564.0,0.0,1,355.0,1
749,749,-0.8624173643394121,-0.9,0.0,1.0,335.0,601.0,1.0,0,304.0,1
750,750,-0.5751300348769611,-0.6,1.0,0.0,486.0,839.0,0.0,0,365.0,1
751,751,0.7533799117335375,0.8,0.0,0.0,488.0,839.0,0.0,1,243.0,1
752,752,-0.8791499906146748,-0.9,0.0,1.0,350.0,549.0,1.0,0,81.0,1
753,753,-0.13308898779010447,-0.1,1.0,0.0,252.0,605.0,0.0,0,463.0,1
754,754,0.5314280840626361,0.5,0.0,0.0,452.0,710.0,1.0,0,-12.0,0
755,755,0.30213607047706803,0.3,0.0,0.0,463.0,834.0,0.0,1,493.0,1
756,756,0.851177665129745,0.9,1.0,1.0,417.0,777.0,1.0,1,66.0,1
757,757,-0.8708071109655432,-0.9,0.0,1.0,446.0,742.0,1.0,0,302.0,1
758,758,-0.20973671362226542,-0.2,1.0,0.0,397.0,802.0,0.0,0,261.0,1
759,759,0.838343664191766,0.8,0.0,0.0,336.0,574.0,0.0,1,260.0,1
760,760,-0.07278252716328404,-0.1,1.0,0.0,262.0,746.0,0.0,0,2102.0,1
761,761,-0.660855843725252,-0.7,1.0,0.0,495.0,765.0,0.0,0,220.0,1
762,762,-0.0838356360313458,-0.1,1.0,0.0,464.0,677.0,0.0,0,1689.0,1
763,763,0.7834101249989741,0.8,0.0,0.0,374.0,555.0,0.0,1,321.0,1
764,764,0.31279101676813326,0.3,1.0,1.0,482.0,900.0,1.0,1,358.0,1
765,765,0.7773145381541336,0.8,1.0,1.0,333.0,973.0,1.0,1,284.0,1
766,766,-0.865613888255433,-0.9,0.0,1.0,280.0,968.0,1.0,0,162.0,1
767,767,-0.8115428976588811,-0.8,1.0,0.0,324.0,679.0,0.0,0,237.0,1
768,768,-0.3470143177231664,-0.3,1.0,0.0,303.0,747.0,0.0,0,380.0,1
769,769,-0.5407600685839413,-0.5,1.0,0.0,376.0,876.0,0.0,0,348.0,1
770,770,-0.25176296798735154,-0.3,0.0,1.0,349.0,994.0,1.0,0,867.0,1
771,771,0.10122684510207824,0.1,0.0,0.0,375.0,645.0,0.0,1,-270.0,1
772,772,0.7253132344556817,0.7,1.0,1.0,340.0,931.0,1.0,1,209.0,1
773,773,-0.072123303462721,-0.1,1.0,0.0,435.0,801.0,0.0,0,1814.0,1
774,774,0.33585948943069555,0.3,1.0,1.0,451.0,808.0,1.0,1,421.0,1
775,775,-0.6923189308691925,-0.7,1.0,0.0,465.0,810.0,0.0,0,-245.0,1
776,776,0.6683854203103282,0.7,1.0,1.0,367.0,712.0,1.0,1,251.0,1
777,777,-0.2848929206322681,-0.3,1.0,0.0,317.0,896.0,0.0,0,-203.0,1
778,778,0.5364119148672365,0.5,1.0,1.0,383.0,718.0,1.0,1,159.0,1
779,779,-0.0736401376941429,-0.1,1.0,0.0,309.0,933.0,0.0,0,-352.0,1
780,780,-0.4428953494200647,-0.4,0.0,1.0,463.0,921.0,1.0,0,606.0,1
781,781,-0.0775966694273923,-0.1,0.0,1.0,405.0,795.0,1.0,0,2250.0,1
782,782,0.061605260274897766,0.1,0.0,0.0,295.0,602.0,0.0,1,2613.0,1
783,783,-0.07026570872424276,-0.1,1.0,0.0,311.0,517.0,0.0,0,1232.0,1
784,784,-0.15297246598495018,-0.2,0.0,1.0,313.0,600.0,1.0,0,437.0,1
785,785,-0.6318642414500851,-0.6,1.0,0.0,333.0,905.0,0.0,0,412.0,1
786,786,-0.518308056690943,-0.5,1.0,0.0,484.0,624.0,0.0,0,332.0,1
787,787,-0.4778614181535225,-0.5,1.0,0.0,399.0,862.0,0.0,0,179.0,1
788,788,-0.684347552024566,-0.7,1.0,0.0,403.0,870.0,0.0,0,147.0,1
789,789,-0.6733960210933854,-0.7,0.0,1.0,383.0,767.0,1.0,0,230.0,1
790,790,-0.42112845433410184,-0.4,1.0,0.0,444.0,926.0,0.0,0,630.0,1
791,791,-0.21834424293801502,-0.2,1.0,0.0,458.0,991.0,0.0,0,261.0,1
792,792,-0.20567779649198048,-0.2,1.0,0.0,260.0,870.0,0.0,0,250.0,1
793,793,-0.6696585422002077,-0.7,1.0,0.0,281.0,758.0,0.0,0,261.0,1
794,794,-0.5001386518942593,-0.5,1.0,0.0,402.0,771.0,0.0,0,217.0,1
795,795,0.48036570186938954,0.5,1.0,1.0,250.0,899.0,1.0,1,-459.0,1
796,796,-0.6775042417851519,-0.7,1.0,0.0,264.0,914.0,0.0,0,232.0,1
797,797,0.4629757026554505,0.5,0.0,0.0,482.0,759.0,0.0,1,309.0,1
798,798,0.07037157925557191,0.1,1.0,1.0,271.0,691.0,1.0,1,2728.0,1
799,799,0.28556108736917796,0.3,1.0,1.0,313.0,965.0,1.0,1,-288.0,1
800,800,0.08505427383454167,0.1,0.0,0.0,329.0,527.0,0.0,1,564.0,1
801,801,0.8314978574700541,0.8,0.0,0.0,251.0,707.0,0.0,1,352.0,1
802,802,-0.1576051637895628,-0.2,0.0,1.0,260.0,758.0,1.0,0,3552.0,1
803,803,-0.5495072853038858,-0.5,1.0,0.0,327.0,565.0,0.0,0,208.0,1
804,804,0.07563239623052043,0.1,0.0,0.0,437.0,528.0,0.0,1,3285.0,1
805,805,-0.5592276372063603,-0.6,0.0,1.0,427.0,519.0,1.0,0,684.0,1
806,806,-0.8180632413827276,-0.8,1.0,0.0,436.0,645.0,0.0,0,359.0,1
807,807,0.13935483675510396,0.1,0.0,0.0,434.0,659.0,0.0,1,1307.0,1
808,808,-0.8560092026449211,-0.9,1.0,0.0,371.0,939.0,0.0,0,150.0,1
809,809,-0.8232545190419457,-0.8,0.0,1.0,276.0,858.0,1.0,0,556.0,1
810,810,0.28967758016841627,0.3,0.0,0.0,448.0,735.0,0.0,1,347.0,1
811,811,0.4485110232260171,0.4,0.0,0.0,434.0,592.0,0.0,1,234.0,1
812,812,0.807100529327582,0.8,1.0,1.0,401.0,807.0,1.0,1,202.0,1
813,813,0.7600236133238151,0.8,0.0,0.0,386.0,817.0,0.0,1,307.0,1
814,814,0.5638957029531443,0.6,1.0,1.0,283.0,517.0,1.0,1,450.0,1
815,815,0.3735849871849485,0.4,0.0,0.0,320.0,975.0,0.0,1,365.0,1
816,816,-0.8353378865929567,-0.8,0.0,1.0,397.0,711.0,1.0,0,452.0,1
817,817,0.08482867808450556,0.1,1.0,1.0,367.0,788.0,1.0,1,3845.0,1
818,818,-0.8252039552676574,-0.8,0.0,1.0,455.0,664.0,1.0,0,431.0,1
819,819,0.7372615383831419,0.7,1.0,1.0,454.0,538.0,1.0,1,458.0,1
820,820,0.44236763254358824,0.4,1.0,1.0,402.0,607.0,1.0,1,591.0,1
821,821,-0.11972193745712167,-0.1,0.0,1.0,486.0,546.0,1.0,0,-182.0,1
822,822,-0.8042700995802564,-0.8,0.0,1.0,273.0,744.0,1.0,0,873.0,1
823,823,0.5894893540436187,0.6,1.0,1.0,345.0,699.0,1.0,1,256.0,1
824,824,0.5254776666821993,0.5,1.0,1.0,369.0,934.0,1.0,1,297.0,1
825,825,0.8486745578078118,0.8,1.0,1.0,409.0,992.0,1.0,1,159.0,1
826,826,-0.008430246978617606,-0.0,0.0,1.0,268.0,860.0,1.0,0,3852.0,1
827,827,-0.47569309677681265,-0.5,0.0,1.0,330.0,992.0,1.0,0,-122.0,1
828,828,0.6967642808639497,0.7,1.0,1.0,490.0,969.0,1.0,1,211.0,1
829,829,-0.6078188621704018,-0.6,0.0,1.0,464.0,603.0,1.0,0,543.0,1
830,830,-0.6010414103214152,-0.6,0.0,1.0,383.0,645.0,1.0,0,432.0,1
831,831,-0.751168847152463,-0.8,0.0,1.0,494.0,922.0,1.0,0,104.0,1
832,832,-0.45871180770909775,-0.5,0.0,1.0,442.0,920.0,1.0,0,208.0,1
833,833,-0.08994290306950303,-0.1,0.0,1.0,338.0,783.0,1.0,0,3109.0,1
834,834,0.7378344224522869,0.7,1.0,1.0,292.0,894.0,1.0,1,244.0,1
835,835,-0.12152360752743896,-0.1,0.0,1.0,485.0,991.0,1.0,0,1644.0,1
836,836,0.3927544349486457,0.4,0.0,0.0,273.0,830.0,0.0,1,267.0,1
837,837,-0.6515999941571697,-0.7,1.0,0.0,476.0,638.0,0.0,0,146.0,1
838,838,0.8506860083281805,0.9,0.0,0.0,463.0,970.0,0.0,1,207.0,1
839,839,0.7040110253940496,0.7,1.0,1.0,269.0,556.0,1.0,1,65.0,1
840,840,-0.5032177877868187,-0.5,1.0,0.0,276.0,540.0,0.0,0,324.0,1
841,841,0.26698387939768564,0.3,0.0,0.0,288.0,762.0,0.0,1,370.0,1
842,842,0.8771561121843133,0.9,0.0,0.0,389.0,858.0,0.0,1,-17.0,1
843,843,0.08388905753539488,0.1,0.0,0.0,391.0,527.0,0.0,1,1732.0,1
844,844,-0.2808498129938438,-0.3,1.0,0.0,287.0,654.0,0.0,0,409.0,1
845,845,0.0630011170485072,0.1,1.0,1.0,378.0,509.0,1.0,1,1113.0,1
846,846,-0.21181744466717,-0.2,0.0,1.0,383.0,551.0,1.0,0,716.0,1
847,847,0.4829133159474833,0.5,1.0,1.0,294.0,994.0,1.0,1,392.0,1
848,848,0.18879695419471043,0.2,1.0,1.0,377.0,739.0,1.0,1,1214.0,1
849,849,-0.11669691074302369,-0.1,0.0,1.0,252.0,741.0,1.0,0,937.0,1
850,850,-0.6082966381758352,-0.6,1.0,0.0,285.0,976.0,0.0,0,139.0,1
851,851,0.16134195154077535,0.2,1.0,1.0,267.0,717.0,1.0,1,446.0,1
852,852,0.47145426878960806,0.5,0.0,0.0,397.0,963.0,0.0,1,360.0,1
853,853,0.6894684465300084,0.7,0.0,0.0,367.0,894.0,0.0,1,239.0,1
854,854,0.6689273910680885,0.7,0.0,0.0,279.0,765.0,0.0,1,286.0,1
855,855,0.7491778773971739,0.7,0.0,0.0,297.0,743.0,0.0,1,180.0,1
856,856,0.0952533296191147,0.1,1.0,1.0,331.0,535.0,1.0,1,1254.0,1
857,857,0.6612087985378735,0.7,0.0,0.0,431.0,579.0,0.0,1,410.0,1
858,858,-0.3076416304074291,-0.3,1.0,0.0,288.0,905.0,0.0,0,667.0,1
859,859,0.049989953435527035,0.0,1.0,1.0,460.0,717.0,0.0,0,1453.0,0
860,860,0.701756533304981,0.7,1.0,1.0,472.0,925.0,1.0,1,533.0,1
861,861,0.07142276704483896,0.1,0.0,0.0,269.0,522.0,1.0,0,2869.0,0
862,862,-0.4466153391702893,-0.4,1.0,0.0,290.0,940.0,0.0,0,410.0,1
863,863,-0.5530672018289923,-0.6,1.0,0.0,396.0,711.0,0.0,0,223.0,1
864,864,-0.4053460715454792,-0.4,0.0,1.0,390.0,807.0,1.0,0,663.0,1
865,865,0.5858155004776909,0.6,1.0,1.0,370.0,763.0,1.0,1,287.0,1
866,866,-0.05125766190029124,-0.1,1.0,0.0,429.0,856.0,0.0,0,-95.0,1
867,867,-0.5036313046590344,-0.5,1.0,0.0,372.0,595.0,0.0,0,83.0,1
868,868,-0.005766119016465732,-0.0,1.0,0.0,441.0,694.0,0.0,0,3775.0,1
869,869,-0.42434201002780936,-0.4,1.0,0.0,277.0,767.0,0.0,0,-4.0,1
870,870,0.26395686882717795,0.3,0.0,0.0,373.0,562.0,0.0,1,905.0,1
871,871,-0.5956702458146999,-0.6,0.0,1.0,477.0,805.0,1.0,0,78.0,1
872,872,0.1197451177181924,0.1,0.0,0.0,412.0,780.0,0.0,1,168.0,1
873,873,-0.7306627770120686,-0.7,0.0,1.0,463.0,679.0,1.0,0,358.0,1
874,874,0.46983630486059613,0.5,0.0,0.0,374.0,944.0,0.0,1,432.0,1
875,875,0.41562264106990854,0.4,0.0,0.0,262.0,920.0,0.0,1,298.0,1
876,876,0.3116874306061209,0.3,1.0,1.0,324.0,886.0,1.0,1,730.0,1
877,877,0.7942902528511767,0.8,0.0,0.0,257.0,964.0,0.0,1,259.0,1
878,878,-0.3393633596405098,-0.3,1.0,0.0,421.0,645.0,0.0,0,364.0,1
879,879,0.35368064622805806,0.4,0.0,0.0,457.0,944.0,0.0,1,149.0,1
880,880,0.6112509936213707,0.6,0.0,0.0,365.0,607.0,0.0,1,268.0,1
881,881,-0.06582088851635604,-0.1,0.0,1.0,425.0,818.0,1.0,0,3757.0,1
882,882,-0.12007715270838937,-0.1,1.0,0.0,374.0,584.0,0.0,0,82.0,1
883,883,-0.6329950481015274,-0.6,1.0,0.0,283.0,743.0,0.0,0,334.0,1
884,884,-0.6519564916425198,-0.7,0.0,1.0,265.0,681.0,1.0,0,264.0,1
885,885,0.21155552510142617,0.2,1.0,1.0,402.0,580.0,1.0,1,578.0,1
886,886,-0.028600836233075744,-0.0,1.0,0.0,365.0,739.0,1.0,1,26.0,0
887,887,0.0067243150438180965,0.0,0.0,0.0,456.0,619.0,0.0,1,3925.0,1
888,888,0.03809600481641362,0.0,0.0,0.0,459.0,611.0,0.0,1,3930.0,1
889,889,0.7132129465886999,0.7,0.0,0.0,394.0,669.0,0.0,1,177.0,1
890,890,-0.666711788814484,-0.7,1.0,0.0,363.0,932.0,0.0,0,335.0,1
891,891,-0.3840449484222693,-0.4,0.0,1.0,389.0,832.0,1.0,0,309.0,1
892,892,-0.2388650556261558,-0.2,1.0,0.0,442.0,850.0,0.0,0,508.0,1
893,893,-0.6788975131469229,-0.7,1.0,0.0,366.0,561.0,0.0,0,293.0,1
894,894,-0.6213615423692469,-0.6,0.0,1.0,367.0,877.0,0.0,1,-384.0,0
895,895,0.8307138397211525,0.8,1.0,1.0,433.0,735.0,1.0,1,272.0,1
896,896,-0.4940512725592312,-0.5,1.0,0.0,398.0,702.0,0.0,0,370.0,1
897,897,-0.21864575076136605,-0.2,1.0,0.0,394.0,966.0,0.0,0,580.0,1
898,898,0.16489275230546985,0.2,0.0,0.0,452.0,947.0,0.0,1,891.0,1
899,899,-0.476735158556497,-0.5,1.0,0.0,331.0,894.0,0.0,0,475.0,1
900,900,0.695988837723616,0.7,1.0,1.0,455.0,898.0,0.0,0,-203.0,0
901,901,-0.07437741080689897,-0.1,0.0,1.0,353.0,762.0,1.0,0,3885.0,1
902,902,0.03135050669915096,0.0,0.0,0.0,464.0,831.0,0.0,1,2975.0,1
903,903,-0.6532843921895077,-0.7,0.0,1.0,324.0,655.0,1.0,0,531.0,1
904,904,0.025396827980299075,0.0,0.0,0.0,469.0,644.0,1.0,0,3887.0,0
905,905,-0.24799919045440144,-0.2,1.0,0.0,407.0,809.0,0.0,0,234.0,1
906,906,-0.8329517263591258,-0.8,1.0,0.0,391.0,693.0,0.0,0,46.0,1
907,907,-0.03425725424835402,-0.0,0.0,1.0,477.0,593.0,1.0,0,3500.0,1
908,908,-0.21169044642717494,-0.2,0.0,1.0,341.0,504.0,1.0,0,795.0,1
909,909,-0.36392536566192535,-0.4,0.0,1.0,337.0,769.0,1.0,0,394.0,1
910,910,-0.18989728585899857,-0.2,0.0,1.0,260.0,581.0,1.0,0,899.0,1
911,911,-0.7111648935818174,-0.7,0.0,1.0,484.0,794.0,1.0,0,172.0,1
912,912,0.08771113541259301,0.1,1.0,1.0,444.0,946.0,1.0,1,2030.0,1
913,913,0.2504237106381261,0.3,1.0,1.0,407.0,911.0,1.0,1,842.0,1
914,914,-0.4100129288103527,-0.4,1.0,0.0,301.0,670.0,0.0,0,379.0,1
915,915,0.49448980055737046,0.5,1.0,1.0,264.0,744.0,1.0,1,192.0,1
916,916,-0.011952902315536695,-0.0,1.0,0.0,333.0,549.0,0.0,0,3918.0,1
917,917,0.4129350195497924,0.4,1.0,1.0,347.0,576.0,1.0,1,347.0,1
918,918,0.6627071497418832,0.7,0.0,0.0,297.0,513.0,0.0,1,160.0,1
919,919,0.2440864025533872,0.2,0.0,0.0,494.0,896.0,0.0,1,540.0,1
920,920,0.3483724183199738,0.3,1.0,1.0,442.0,672.0,1.0,1,246.0,1
921,921,0.5806900111674936,0.6,0.0,0.0,387.0,615.0,0.0,1,248.0,1
922,922,-0.7533055162672619,-0.8,0.0,1.0,370.0,715.0,1.0,0,405.0,1
923,923,-0.8504691026324915,-0.9,1.0,0.0,460.0,762.0,0.0,0,368.0,1
924,924,0.3002201030731363,0.3,0.0,0.0,358.0,866.0,0.0,1,556.0,1
925,925,0.5106174729813696,0.5,0.0,0.0,432.0,652.0,0.0,1,-34.0,1
926,926,-0.1824414630097635,-0.2,1.0,0.0,316.0,885.0,0.0,0,-171.0,1
927,927,-0.8146439736768147,-0.8,1.0,0.0,333.0,529.0,0.0,0,158.0,1
928,928,-0.6032134563029892,-0.6,1.0,0.0,308.0,944.0,0.0,0,198.0,1
929,929,-0.1517669332455831,-0.2,0.0,1.0,375.0,668.0,1.0,0,2087.0,1
930,930,0.7372688140495917,0.7,1.0,1.0,294.0,691.0,1.0,1,255.0,1
931,931,0.09390703658217503,0.1,0.0,0.0,417.0,697.0,0.0,1,1596.0,1
932,932,0.5660229863909437,0.6,0.0,0.0,425.0,951.0,0.0,1,244.0,1
933,933,0.6541115712473727,0.7,0.0,0.0,302.0,824.0,0.0,1,384.0,1
934,934,-0.26952086074536585,-0.3,0.0,1.0,377.0,522.0,1.0,0,711.0,1
935,935,-0.011319093560191784,-0.0,0.0,1.0,264.0,646.0,1.0,0,2190.0,1
936,936,0.7009612866737979,0.7,1.0,1.0,374.0,694.0,1.0,1,462.0,1
937,937,-0.838973081089981,-0.8,1.0,0.0,270.0,934.0,0.0,0,126.0,1
938,938,0.5116893726465451,0.5,0.0,0.0,420.0,501.0,0.0,1,129.0,1
939,939,0.09903253952923463,0.1,1.0,1.0,488.0,906.0,0.0,0,1016.0,0
940,940,0.46144589981197137,0.5,1.0,1.0,291.0,554.0,1.0,1,1265.0,1
941,941,0.05665176105587799,0.1,1.0,1.0,377.0,797.0,1.0,1,3396.0,1
942,942,0.7863480711250724,0.8,1.0,1.0,368.0,831.0,1.0,1,241.0,1
943,943,0.44750572615972384,0.4,0.0,0.0,473.0,599.0,0.0,1,548.0,1
944,944,0.20564628299159293,0.2,1.0,1.0,273.0,614.0,1.0,1,493.0,1
945,945,0.12938662854853844,0.1,0.0,0.0,407.0,838.0,0.0,1,275.0,1
946,946,-0.575232235685478,-0.6,0.0,1.0,446.0,820.0,1.0,0,164.0,1
947,947,-0.24585075451535554,-0.2,1.0,0.0,466.0,556.0,0.0,0,858.0,1
948,948,0.030367783727068498,0.0,0.0,0.0,266.0,592.0,0.0,1,4142.0,1
949,949,-0.7638517656175026,-0.8,0.0,1.0,465.0,603.0,1.0,0,592.0,1
950,950,-0.6000554108595606,-0.6,1.0,0.0,423.0,803.0,0.0,0,214.0,1
951,951,0.44356188301125454,0.4,1.0,1.0,342.0,602.0,1.0,1,546.0,1
952,952,-0.33405540221202545,-0.3,0.0,1.0,434.0,985.0,0.0,1,-539.0,0
953,953,-0.757947305988013,-0.8,1.0,0.0,386.0,804.0,0.0,0,290.0,1
954,954,-0.1412762787471632,-0.1,0.0,1.0,488.0,888.0,1.0,0,1584.0,1
955,955,-0.2139274787966473,-0.2,1.0,0.0,463.0,627.0,0.0,0,1680.0,1
956,956,0.5789742060623048,0.6,1.0,1.0,373.0,726.0,1.0,1,371.0,1
957,957,-0.5778406912405846,-0.6,1.0,0.0,424.0,730.0,0.0,0,386.0,1
958,958,-0.4267246013688663,-0.4,1.0,0.0,309.0,586.0,0.0,0,195.0,1
959,959,0.5753432713970136,0.6,0.0,0.0,348.0,994.0,0.0,1,258.0,1
960,960,0.2425568527016878,0.2,0.0,0.0,400.0,589.0,0.0,1,331.0,1
961,961,0.7393004558468937,0.7,1.0,1.0,303.0,913.0,1.0,1,124.0,1
962,962,-0.04212360751681843,-0.0,1.0,0.0,408.0,861.0,0.0,0,1621.0,1
963,963,-0.6142104301797924,-0.6,0.0,1.0,298.0,985.0,1.0,0,237.0,1
964,964,0.6295137624617247,0.6,1.0,1.0,331.0,641.0,1.0,1,158.0,1
965,965,0.32632597342847414,0.3,0.0,0.0,314.0,587.0,0.0,1,619.0,1
966,966,0.812757946142736,0.8,0.0,0.0,263.0,529.0,0.0,1,188.0,1
967,967,-0.785823227539589,-0.8,0.0,1.0,340.0,784.0,1.0,0,236.0,1
968,968,-0.11010985140675578,-0.1,0.0,1.0,282.0,955.0,0.0,1,-217.0,0
969,969,0.3221406778868162,0.3,1.0,1.0,310.0,890.0,1.0,1,680.0,1
970,970,-0.018261698244142588,-0.0,1.0,0.0,361.0,610.0,0.0,0,449.0,1
971,971,-0.5855546948613233,-0.6,0.0,1.0,305.0,740.0,1.0,0,355.0,1
972,972,-0.4205758774630121,-0.4,0.0,1.0,283.0,688.0,1.0,0,279.0,1
973,973,-0.4483489942291692,-0.4,1.0,0.0,298.0,887.0,0.0,0,275.0,1
974,974,-0.1844790521123102,-0.2,1.0,0.0,376.0,621.0,0.0,0,1013.0,1
975,975,0.8039681660781796,0.8,1.0,1.0,445.0,757.0,1.0,1,188.0,1
976,976,-0.28003140953704686,-0.3,1.0,0.0,408.0,604.0,0.0,0,168.0,1
977,977,0.7787354419108231,0.8,0.0,0.0,464.0,793.0,0.0,1,83.0,1
978,978,-0.6329729260688857,-0.6,1.0,0.0,401.0,868.0,0.0,0,521.0,1
979,979,-0.03590122798753803,-0.0,0.0,1.0,434.0,756.0,0.0,1,3400.0,0
980,980,0.015379167156339357,0.0,0.0,0.0,474.0,957.0,1.0,0,1929.0,0
981,981,-0.41695873494448965,-0.4,1.0,0.0,490.0,587.0,0.0,0,503.0,1
982,982,0.10552635032503044,0.1,0.0,0.0,459.0,822.0,0.0,1,349.0,1
983,983,-0.18968251588187568,-0.2,1.0,0.0,429.0,882.0,0.0,0,1109.0,1
984,984,0.29937856471666147,0.3,1.0,1.0,409.0,587.0,1.0,1,204.0,1
985,985,-0.10781444756764902,-0.1,0.0,1.0,418.0,896.0,0.0,1,-14.0,0
986,986,0.23703980836674055,0.2,0.0,0.0,334.0,949.0,0.0,1,517.0,1
987,987,0.6389971240434097,0.6,0.0,0.0,495.0,647.0,0.0,1,168.0,1
988,988,0.03479806991516077,0.0,1.0,1.0,477.0,629.0,0.0,0,3154.0,0
989,989,0.4049008636332071,0.4,0.0,0.0,286.0,892.0,0.0,1,232.0,1
990,990,-0.372334733965184,-0.4,1.0,0.0,366.0,660.0,0.0,0,324.0,1
991,991,-0.7374220645797738,-0.7,0.0,1.0,303.0,598.0,1.0,0,389.0,1
992,992,-0.5243784549156842,-0.5,1.0,0.0,448.0,561.0,0.0,0,461.0,1
993,993,0.2157054299552429,0.2,1.0,1.0,319.0,510.0,1.0,1,591.0,1
994,994,0.620627760631323,0.6,0.0,0.0,463.0,731.0,0.0,1,126.0,1
995,995,0.8913869487832201,0.9,0.0,0.0,413.0,574.0,0.0,1,173.0,1
996,996,-0.13713105525579805,-0.1,0.0,1.0,465.0,854.0,1.0,0,3681.0,1
997,997,-0.10594366238359976,-0.1,1.0,0.0,362.0,523.0,0.0,0,965.0,1
998,998,-0.19776355619858277,-0.2,0.0,1.0,391.0,987.0,1.0,0,732.0,1
999,999,-0.04409632714439349,-0.0,0.0,1.0,280.0,820.0,1.0,0,720.0,1
1000,1000,-0.6683171824972489,-0.7,1.0,0.0,262.0,854.0,0.0,0,224.0,1
1001,1001,0.3854462180522954,0.4,0.0,0.0,297.0,729.0,0.0,1,264.0,1
1002,1002,0.6704636769168731,0.7,1.0,1.0,423.0,791.0,1.0,1,106.0,1
1003,1003,0.20075084984944247,0.2,0.0,0.0,332.0,837.0,0.0,1,761.0,1
1004,1004,-0.7745449810513592,-0.8,0.0,1.0,259.0,767.0,1.0,0,554.0,1
1005,1005,-0.19406716300840476,-0.2,1.0,0.0,454.0,610.0,0.0,0,1456.0,1
1006,1006,0.30932316958221284,0.3,0.0,0.0,323.0,802.0,0.0,1,345.0,1
1007,1007,-0.5398914482521284,-0.5,0.0,1.0,341.0,828.0,0.0,1,-159.0,0
1008,1008,-0.7917022228299345,-0.8,1.0,0.0,479.0,948.0,0.0,0,323.0,1
1009,1009,-0.24893360976950896,-0.2,1.0,0.0,408.0,928.0,0.0,0,784.0,1
1010,1010,0.058096784809209545,0.1,0.0,0.0,427.0,903.0,0.0,1,3670.0,1
1011,1011,-0.804385846545308,-0.8,0.0,1.0,299.0,556.0,1.0,0,385.0,1
1012,1012,0.8900062169277315,0.9,0.0,0.0,475.0,508.0,0.0,1,187.0,1
1013,1013,-0.2925539108714116,-0.3,1.0,0.0,396.0,985.0,0.0,0,289.0,1
1014,1014,0.10799452759886996,0.1,1.0,1.0,336.0,960.0,1.0,1,3704.0,1
1015,1015,0.5920852953235277,0.6,1.0,1.0,364.0,952.0,1.0,1,154.0,1
1016,1016,-0.011604793542028147,-0.0,1.0,0.0,371.0,847.0,0.0,0,3782.0,1
1017,1017,0.6145168038270242,0.6,1.0,1.0,399.0,577.0,1.0,1,214.0,1
1018,1018,-0.4967656087780344,-0.5,1.0,0.0,311.0,784.0,0.0,0,305.0,1
1019,1019,-0.35652784245225333,-0.4,0.0,1.0,293.0,986.0,1.0,0,681.0,1
1020,1020,0.6475409155648045,0.6,0.0,0.0,450.0,765.0,1.0,0,-375.0,0
1021,1021,0.8060514790336014,0.8,1.0,1.0,460.0,504.0,0.0,0,-94.0,0
1022,1022,0.3202575468100458,0.3,1.0,1.0,449.0,540.0,1.0,1,541.0,1
1023,1023,-0.2734144249424515,-0.3,0.0,1.0,299.0,932.0,1.0,0,1089.0,1
1024,1024,0.058731467455276354,0.1,1.0,1.0,359.0,830.0,0.0,0,3811.0,0
1025,1025,0.7341420924128351,0.7,1.0,1.0,446.0,818.0,1.0,1,156.0,1
1026,1026,0.8337637215895751,0.8,1.0,1.0,328.0,601.0,1.0,1,491.0,1
1027,1027,-0.7866598942999262,-0.8,1.0,0.0,330.0,701.0,0.0,0,249.0,1
1028,1028,0.5916164471891819,0.6,0.0,0.0,453.0,890.0,0.0,1,227.0,1
1029,1029,-0.16062540720054297,-0.2,0.0,1.0,352.0,669.0,1.0,0,849.0,1
1030,1030,-0.15286918073047806,-0.2,1.0,0.0,253.0,916.0,0.0,0,671.0,1
1031,1031,0.2914270466972234,0.3,0.0,0.0,481.0,855.0,0.0,1,824.0,1
1032,1032,-0.8609736428790455,-0.9,1.0,0.0,407.0,560.0,0.0,0,83.0,1
1033,1033,0.2682476428160204,0.3,0.0,0.0,379.0,580.0,0.0,1,851.0,1
1034,1034,-0.0048831141353641305,-0.0,0.0,1.0,363.0,939.0,0.0,1,98.0,0
1035,1035,0.3377623262534236,0.3,0.0,0.0,410.0,535.0,0.0,1,315.0,1
1036,1036,-0.08087526415311408,-0.1,0.0,1.0,396.0,747.0,0.0,1,517.0,0
1037,1037,-0.6415291382825674,-0.6,0.0,1.0,357.0,662.0,1.0,0,31.0,1
1038,1038,0.8373453444604232,0.8,1.0,1.0,332.0,585.0,1.0,1,413.0,1
1039,1039,-0.8320449223269115,-0.8,1.0,0.0,359.0,934.0,0.0,0,197.0,1
1040,1040,-0.766287706000187,-0.8,0.0,1.0,401.0,559.0,1.0,0,140.0,1
1041,1041,-0.30511862891701313,-0.3,1.0,0.0,283.0,686.0,0.0,0,331.0,1
1042,1042,-0.3834857771682578,-0.4,0.0,1.0,280.0,793.0,1.0,0,867.0,1
1043,1043,0.5048403358960359,0.5,1.0,1.0,326.0,768.0,1.0,1,116.0,1
1044,1044,0.2662490211932641,0.3,0.0,0.0,462.0,605.0,0.0,1,693.0,1
1045,1045,-0.6424808475383008,-0.6,0.0,1.0,496.0,624.0,1.0,0,320.0,1
1046,1046,-0.888924158385318,-0.9,0.0,1.0,280.0,922.0,1.0,0,248.0,1
1047,1047,-0.7362959833454901,-0.7,0.0,1.0,362.0,740.0,1.0,0,568.0,1
1048,1048,-0.1978265362862115,-0.2,1.0,0.0,314.0,614.0,0.0,0,692.0,1
1049,1049,-0.8802825785834545,-0.9,0.0,1.0,455.0,649.0,0.0,1,-334.0,0
1050,1050,-0.07212928537324215,-0.1,0.0,1.0,453.0,752.0,1.0,0,3795.0,1
1051,1051,-0.8286624250908134,-0.8,1.0,0.0,442.0,939.0,0.0,0,179.0,1
1052,1052,-0.6638357869054428,-0.7,1.0,0.0,314.0,595.0,0.0,0,291.0,1
1053,1053,0.06261362449525665,0.1,0.0,0.0,412.0,708.0,0.0,1,360.0,1
1054,1054,0.3108877390158261,0.3,1.0,1.0,270.0,720.0,1.0,1,890.0,1
1055,1055,-0.17632406790156763,-0.2,0.0,1.0,339.0,761.0,1.0,0,1040.0,1
1056,1056,-0.8848357916320897,-0.9,0.0,1.0,494.0,628.0,1.0,0,188.0,1
1057,1057,0.5433263354093566,0.5,0.0,0.0,325.0,944.0,0.0,1,121.0,1
1058,1058,-0.1041393973875071,-0.1,1.0,0.0,489.0,977.0,0.0,0,754.0,1
1059,1059,-0.8828727869263356,-0.9,1.0,0.0,367.0,515.0,0.0,0,428.0,1
1060,1060,-0.642842672235283,-0.6,1.0,0.0,358.0,644.0,0.0,0,88.0,1
1061,1061,-0.3306027497493206,-0.3,1.0,0.0,261.0,852.0,0.0,0,257.0,1
1062,1062,0.4736398049578917,0.5,0.0,0.0,475.0,772.0,0.0,1,153.0,1
1063,1063,-0.42792465745672575,-0.4,1.0,0.0,362.0,797.0,0.0,0,181.0,1
1064,1064,-0.12671943646837847,-0.1,1.0,0.0,394.0,529.0,0.0,0,87.0,1
1065,1065,-0.04657082161169945,-0.0,0.0,1.0,443.0,748.0,1.0,0,919.0,1
1066,1066,-0.4768363653305308,-0.5,1.0,0.0,499.0,727.0,1.0,1,-176.0,0
1067,1067,-0.33366963000140015,-0.3,1.0,0.0,424.0,679.0,0.0,0,607.0,1
1068,1068,0.14333384300674867,0.1,0.0,0.0,262.0,693.0,0.0,1,415.0,1
1069,1069,0.5952175744455587,0.6,0.0,0.0,438.0,903.0,0.0,1,329.0,1
1070,1070,0.7417216538941854,0.7,1.0,1.0,292.0,698.0,1.0,1,190.0,1
1071,1071,0.7947030519457831,0.8,0.0,0.0,283.0,908.0,0.0,1,319.0,1
1072,1072,-0.574605492127521,-0.6,1.0,0.0,363.0,520.0,0.0,0,97.0,1
1073,1073,-0.2835924529879207,-0.3,1.0,0.0,384.0,867.0,0.0,0,779.0,1
1074,1074,0.08259510651196522,0.1,1.0,1.0,394.0,863.0,1.0,1,1483.0,1
1075,1075,0.6226908688383038,0.6,1.0,1.0,417.0,959.0,1.0,1,124.0,1
1076,1076,-0.1661861432194659,-0.2,0.0,1.0,397.0,560.0,1.0,0,1173.0,1
1077,1077,-0.5174626895698031,-0.5,0.0,1.0,451.0,513.0,1.0,0,436.0,1
1078,1078,0.29370355264066983,0.3,0.0,0.0,418.0,904.0,0.0,1,978.0,1
1079,1079,0.466080040277011,0.5,1.0,1.0,460.0,594.0,1.0,1,476.0,1
1080,1080,0.4684132686723609,0.5,1.0,1.0,458.0,600.0,1.0,1,512.0,1
1081,1081,-0.3335229665618573,-0.3,1.0,0.0,325.0,867.0,1.0,1,-122.0,0
1082,1082,0.229162217923765,0.2,1.0,1.0,260.0,899.0,1.0,1,651.0,1
1083,1083,0.3016911096793856,0.3,1.0,1.0,371.0,812.0,1.0,1,917.0,1
1084,1084,-0.7257300828930453,-0.7,1.0,0.0,283.0,717.0,0.0,0,350.0,1
1085,1085,-0.8221372986822758,-0.8,0.0,1.0,452.0,588.0,1.0,0,130.0,1
1086,1086,0.6966501004705034,0.7,1.0,1.0,269.0,742.0,1.0,1,329.0,1
1087,1087,0.8828294414621741,0.9,1.0,1.0,462.0,632.0,1.0,1,236.0,1
1088,1088,-0.8756046328524605,-0.9,1.0,0.0,402.0,755.0,0.0,0,243.0,1
1089,1089,0.5774226260198295,0.6,0.0,0.0,254.0,810.0,0.0,1,286.0,1
1090,1090,-0.6982715582573528,-0.7,0.0,1.0,440.0,589.0,1.0,0,411.0,1
1091,1091,-0.4363062663597033,-0.4,0.0,1.0,481.0,559.0,1.0,0,350.0,1
1092,1092,-0.6287630268820894,-0.6,0.0,1.0,416.0,644.0,0.0,1,70.0,0
1093,1093,-0.672253419362128,-0.7,0.0,1.0,323.0,583.0,1.0,0,194.0,1
1094,1094,0.11672453698335639,0.1,0.0,0.0,340.0,813.0,0.0,1,1447.0,1
1095,1095,-0.6731176909955392,-0.7,0.0,1.0,271.0,531.0,1.0,0,98.0,1
1096,1096,0.5196962095028416,0.5,1.0,1.0,429.0,681.0,1.0,1,180.0,1
1097,1097,0.22625814902017172,0.2,1.0,1.0,288.0,639.0,1.0,1,313.0,1
1098,1098,-0.737385958916225,-0.7,0.0,1.0,428.0,980.0,1.0,0,572.0,1
1099,1099,-0.7799766520529663,-0.8,0.0,1.0,461.0,812.0,1.0,0,97.0,1
1100,1100,0.8213308382683234,0.8,0.0,0.0,320.0,738.0,0.0,1,272.0,1
1101,1101,0.48690408740466273,0.5,1.0,1.0,336.0,620.0,1.0,1,184.0,1
1102,1102,0.6859505515853735,0.7,0.0,0.0,332.0,731.0,0.0,1,207.0,1
1103,1103,0.48813193095992047,0.5,1.0,1.0,287.0,639.0,1.0,1,304.0,1
1104,1104,-0.6001800998630917,-0.6,0.0,1.0,321.0,773.0,1.0,0,-34.0,1
1105,1105,-0.3259126168887403,-0.3,1.0,0.0,308.0,545.0,0.0,0,627.0,1
1106,1106,0.11135502349704673,0.1,1.0,1.0,395.0,836.0,1.0,1,1149.0,1
1107,1107,0.4735971396193289,0.5,0.0,0.0,365.0,726.0,0.0,1,369.0,1
1108,1108,0.3803462183544525,0.4,1.0,1.0,391.0,688.0,1.0,1,501.0,1
1109,1109,0.5481168934997706,0.5,0.0,0.0,267.0,965.0,0.0,1,198.0,1
1110,1110,-0.21623347068966992,-0.2,0.0,1.0,342.0,576.0,1.0,0,482.0,1
1111,1111,-0.7711422307484059,-0.8,1.0,0.0,484.0,867.0,0.0,0,229.0,1
1112,1112,-0.10191846118740389,-0.1,1.0,0.0,290.0,856.0,0.0,0,1044.0,1
1113,1113,0.5540274126737647,0.6,0.0,0.0,286.0,991.0,0.0,1,283.0,1
1114,1114,-0.042800927314081694,-0.0,0.0,1.0,423.0,667.0,1.0,0,2320.0,1
1115,1115,-0.0673389924038652,-0.1,1.0,0.0,301.0,815.0,0.0,0,284.0,1
1116,1116,-0.22842345978962342,-0.2,0.0,1.0,419.0,787.0,1.0,0,534.0,1
1117,1117,0.6067748348020966,0.6,0.0,0.0,348.0,640.0,0.0,1,352.0,1
1118,1118,0.11504854547335108,0.1,1.0,1.0,316.0,561.0,1.0,1,1733.0,1
1119,1119,0.15198997162877814,0.2,1.0,1.0,286.0,761.0,1.0,1,793.0,1
1120,1120,-0.8069541846416062,-0.8,0.0,1.0,482.0,798.0,1.0,0,-160.0,1
1121,1121,-0.5426091335294967,-0.5,1.0,0.0,291.0,993.0,0.0,0,-324.0,1
1122,1122,-0.2301091860954937,-0.2,0.0,1.0,358.0,805.0,1.0,0,447.0,1
1123,1123,-0.15236271277711966,-0.2,1.0,0.0,279.0,936.0,0.0,0,1455.0,1
1124,1124,0.4211603794651847,0.4,0.0,0.0,282.0,869.0,0.0,1,339.0,1
1125,1125,-0.41618300930175667,-0.4,0.0,1.0,258.0,953.0,1.0,0,1079.0,1
1126,1126,0.8170964135138993,0.8,0.0,0.0,447.0,539.0,0.0,1,224.0,1
1127,1127,0.7279248414896705,0.7,0.0,0.0,256.0,917.0,0.0,1,317.0,1
1128,1128,0.6357542768432508,0.6,0.0,0.0,263.0,626.0,0.0,1,-359.0,1
1129,1129,0.40792582110284814,0.4,0.0,0.0,487.0,508.0,0.0,1,605.0,1
1130,1130,-0.2881253017295212,-0.3,0.0,1.0,371.0,653.0,1.0,0,1216.0,1
1131,1131,0.1606922548178512,0.2,1.0,1.0,376.0,892.0,1.0,1,1082.0,1
1132,1132,-0.8741687848324375,-0.9,1.0,0.0,498.0,893.0,0.0,0,119.0,1
1133,1133,0.2401547126174336,0.2,0.0,0.0,469.0,833.0,0.0,1,648.0,1
1134,1134,0.20928769216689436,0.2,0.0,0.0,408.0,641.0,0.0,1,551.0,1
1135,1135,0.4554629169445591,0.5,1.0,1.0,465.0,754.0,1.0,1,511.0,1
1136,1136,-0.31533117290228496,-0.3,0.0,1.0,448.0,789.0,1.0,0,493.0,1
1137,1137,-0.827414479760265,-0.8,1.0,0.0,291.0,502.0,0.0,0,217.0,1
1138,1138,0.27836805146317334,0.3,0.0,0.0,474.0,535.0,0.0,1,481.0,1
1139,1139,-0.3439703531426369,-0.3,1.0,0.0,331.0,851.0,0.0,0,268.0,1
1140,1140,-0.46090100047466237,-0.5,1.0,0.0,335.0,519.0,0.0,0,336.0,1
1141,1141,0.6566424591559198,0.7,1.0,1.0,419.0,588.0,1.0,1,293.0,1
1142,1142,0.32051333264643234,0.3,1.0,1.0,439.0,511.0,1.0,1,550.0,1
1143,1143,-0.19642788528967658,-0.2,1.0,0.0,359.0,616.0,0.0,0,435.0,1
1144,1144,0.5178474378880108,0.5,0.0,0.0,433.0,997.0,0.0,1,10.0,1
1145,1145,-0.5239458911130659,-0.5,0.0,1.0,403.0,524.0,1.0,0,863.0,1
1146,1146,0.3475921723249492,0.3,1.0,1.0,447.0,900.0,0.0,0,-337.0,0
1147,1147,-0.18078493792289307,-0.2,0.0,1.0,477.0,965.0,1.0,0,478.0,1
1148,1148,0.18870421925113268,0.2,0.0,0.0,438.0,882.0,0.0,1,-70.0,1
1149,1149,0.30536255949617896,0.3,0.0,0.0,360.0,655.0,1.0,0,-65.0,0
1150,1150,-0.7876086350574327,-0.8,0.0,1.0,412.0,778.0,1.0,0,700.0,1
1151,1151,-0.4974829974665113,-0.5,0.0,1.0,463.0,575.0,1.0,0,402.0,1
1152,1152,-0.7720482963758796,-0.8,1.0,0.0,277.0,874.0,0.0,0,479.0,1
1153,1153,0.05732489813928143,0.1,0.0,0.0,269.0,512.0,0.0,1,239.0,1
1154,1154,0.49093322573138154,0.5,1.0,1.0,363.0,507.0,1.0,1,440.0,1
1155,1155,-0.5272873064753194,-0.5,1.0,0.0,299.0,966.0,0.0,0,185.0,1
1156,1156,-0.6925870809781561,-0.7,1.0,0.0,312.0,807.0,0.0,0,141.0,1
1157,1157,0.0802283101185185,0.1,0.0,0.0,406.0,861.0,0.0,1,153.0,1
1158,1158,-0.14612122495442847,-0.1,1.0,0.0,468.0,624.0,0.0,0,1928.0,1
1159,1159,0.2705656705775389,0.3,1.0,1.0,291.0,668.0,1.0,1,591.0,1
1160,1160,0.41132132421021594,0.4,0.0,0.0,259.0,582.0,0.0,1,759.0,1
1161,1161,0.7948565664978283,0.8,1.0,1.0,278.0,883.0,1.0,1,379.0,1
1162,1162,-0.7417944797800882,-0.7,1.0,0.0,431.0,904.0,0.0,0,645.0,1
1163,1163,0.4451482427283634,0.4,0.0,0.0,289.0,722.0,0.0,1,399.0,1
1164,1164,0.5138634711046907,0.5,0.0,0.0,426.0,800.0,0.0,1,234.0,1
1165,1165,-0.7341074060666443,-0.7,1.0,0.0,494.0,934.0,0.0,0,242.0,1
1166,1166,0.005456583823574501,0.0,1.0,1.0,309.0,501.0,0.0,0,1640.0,0
1167,1167,0.845839563387199,0.8,1.0,1.0,396.0,988.0,1.0,1,196.0,1
1168,1168,-0.8805273902993384,-0.9,0.0,1.0,344.0,642.0,1.0,0,374.0,1
1169,1169,-0.7976950671693941,-0.8,1.0,0.0,306.0,658.0,0.0,0,326.0,1
1170,1170,-0.5786366780862422,-0.6,0.0,1.0,290.0,706.0,1.0,0,244.0,1
1171,1171,-0.09039805957950064,-0.1,0.0,1.0,317.0,836.0,1.0,0,597.0,1
1172,1172,-0.33121254002681166,-0.3,0.0,1.0,368.0,502.0,1.0,0,980.0,1
1173,1173,-0.21856202751490972,-0.2,1.0,0.0,466.0,635.0,0.0,0,499.0,1
1174,1174,-0.45770244295832574,-0.5,1.0,0.0,398.0,868.0,0.0,0,414.0,1
1175,1175,-0.4241834667510024,-0.4,1.0,0.0,264.0,600.0,0.0,0,176.0,1
1176,1176,0.30042034728804523,0.3,1.0,1.0,370.0,618.0,1.0,1,1172.0,1
1177,1177,-0.1543747720447355,-0.2,1.0,0.0,315.0,815.0,0.0,0,870.0,1
1178,1178,0.4634951648461242,0.5,1.0,1.0,365.0,689.0,1.0,1,356.0,1
1179,1179,-0.5003104287430671,-0.5,1.0,0.0,472.0,955.0,0.0,0,203.0,1
1180,1180,0.3770175256918923,0.4,0.0,0.0,368.0,542.0,0.0,1,220.0,1
1181,1181,-0.21975630034552762,-0.2,0.0,1.0,344.0,592.0,1.0,0,2584.0,1
1182,1182,0.7346217817660149,0.7,0.0,0.0,262.0,942.0,0.0,1,216.0,1
1183,1183,-0.3777848549166938,-0.4,1.0,0.0,278.0,746.0,0.0,0,206.0,1
1184,1184,0.03492924837215905,0.0,1.0,1.0,366.0,790.0,1.0,1,-56.0,1
1185,1185,-0.6921500611305574,-0.7,1.0,0.0,394.0,914.0,0.0,0,132.0,1
1186,1186,0.5615413457553561,0.6,0.0,0.0,305.0,500.0,0.0,1,35.0,1
1187,1187,0.1185866380363233,0.1,1.0,1.0,372.0,583.0,1.0,1,1175.0,1
1188,1188,0.5173903559973297,0.5,1.0,1.0,309.0,926.0,1.0,1,105.0,1
1189,1189,-0.38791432182268903,-0.4,1.0,0.0,305.0,527.0,0.0,0,408.0,1
1190,1190,0.8920264241291457,0.9,1.0,1.0,489.0,925.0,1.0,1,116.0,1
1191,1191,0.043909440094841656,0.0,1.0,1.0,467.0,908.0,1.0,1,1605.0,1
1192,1192,-0.7756157081508884,-0.8,0.0,1.0,335.0,933.0,1.0,0,352.0,1
1193,1193,-0.6448437148720528,-0.6,1.0,0.0,461.0,897.0,0.0,0,202.0,1
1194,1194,0.48090133287858416,0.5,0.0,0.0,267.0,988.0,0.0,1,245.0,1
1195,1195,-0.46297700152358573,-0.5,1.0,0.0,269.0,529.0,0.0,0,512.0,1
1196,1196,0.2900925045431969,0.3,1.0,1.0,258.0,977.0,0.0,0,-85.0,0
1197,1197,-0.830737645194579,-0.8,1.0,0.0,334.0,890.0,0.0,0,256.0,1
1198,1198,0.8119312129960544,0.8,0.0,0.0,419.0,953.0,0.0,1,208.0,1
1199,1199,-0.41247996030184025,-0.4,0.0,1.0,435.0,651.0,1.0,0,594.0,1
1200,1200,-0.6902312210363473,-0.7,0.0,1.0,358.0,807.0,1.0,0,235.0,1
1201,1201,0.17791648815426642,0.2,1.0,1.0,332.0,651.0,1.0,1,1247.0,1
1202,1202,0.39596805026481585,0.4,1.0,1.0,364.0,568.0,1.0,1,538.0,1
1203,1203,-0.7488930086329515,-0.7,1.0,0.0,291.0,703.0,0.0,0,226.0,1
1204,1204,-0.7718590960014307,-0.8,1.0,0.0,484.0,959.0,0.0,0,267.0,1
1205,1205,-0.7240182084774431,-0.7,0.0,1.0,392.0,721.0,1.0,0,567.0,1
1206,1206,-0.5106744344044425,-0.5,0.0,1.0,490.0,867.0,1.0,0,333.0,1
1207,1207,-0.04290104639567338,-0.0,1.0,0.0,362.0,508.0,0.0,0,130.0,1
1208,1208,-0.1309442730314726,-0.1,1.0,0.0,426.0,681.0,0.0,0,683.0,1
1209,1209,-0.5565681370755609,-0.6,0.0,1.0,327.0,892.0,1.0,0,621.0,1
1210,1210,-0.47102244066322957,-0.5,0.0,1.0,305.0,550.0,1.0,0,935.0,1
1211,1211,-0.15255487577638405,-0.2,1.0,0.0,380.0,579.0,0.0,0,1341.0,1
1212,1212,-0.7348210296412907,-0.7,0.0,1.0,348.0,833.0,1.0,0,359.0,1
1213,1213,-0.5278766651618909,-0.5,0.0,1.0,266.0,564.0,1.0,0,450.0,1
1214,1214,-0.4621399171430431,-0.5,0.0,1.0,265.0,793.0,1.0,0,282.0,1
1215,1215,-0.3069135138022274,-0.3,1.0,0.0,468.0,902.0,0.0,0,110.0,1
1216,1216,0.4824732259531027,0.5,0.0,0.0,388.0,809.0,0.0,1,393.0,1
1217,1217,-0.1710315263290807,-0.2,0.0,1.0,273.0,546.0,1.0,0,1451.0,1
1218,1218,0.6851986174569281,0.7,0.0,0.0,498.0,606.0,0.0,1,136.0,1
1219,1219,-0.014958367316608046,-0.0,0.0,1.0,394.0,711.0,1.0,0,2945.0,1
1220,1220,0.3372942000477762,0.3,1.0,1.0,414.0,878.0,1.0,1,508.0,1
1221,1221,0.32635312547590767,0.3,1.0,1.0,286.0,860.0,1.0,1,1314.0,1
1222,1222,0.8314573629610537,0.8,1.0,1.0,478.0,542.0,1.0,1,180.0,1
1223,1223,-0.6548768369873251,-0.7,0.0,1.0,437.0,652.0,0.0,1,31.0,0
1224,1224,-0.016208221725826366,-0.0,0.0,1.0,278.0,781.0,1.0,0,3941.0,1
1225,1225,-0.12949680031277733,-0.1,0.0,1.0,480.0,734.0,1.0,0,1216.0,1
1226,1226,-0.4245104352666796,-0.4,1.0,0.0,418.0,954.0,0.0,0,728.0,1
1227,1227,0.7236534758963774,0.7,0.0,0.0,285.0,946.0,0.0,1,89.0,1
1228,1228,0.8884308136994029,0.9,0.0,0.0,324.0,506.0,0.0,1,190.0,1
1229,1229,-0.706449047294671,-0.7,0.0,1.0,250.0,657.0,1.0,0,323.0,1
1230,1230,-0.1457894879361783,-0.1,0.0,1.0,252.0,615.0,1.0,0,633.0,1
1231,1231,-0.30243435973373933,-0.3,0.0,1.0,422.0,859.0,0.0,1,-651.0,0
1232,1232,-0.09031216682913978,-0.1,0.0,1.0,398.0,853.0,0.0,1,-231.0,0
1233,1233,-0.5525347396259361,-0.6,1.0,0.0,463.0,774.0,0.0,0,-217.0,1
1234,1234,0.29746073596506484,0.3,1.0,1.0,282.0,572.0,1.0,1,376.0,1
1235,1235,0.842409393038318,0.8,0.0,0.0,456.0,827.0,0.0,1,127.0,1
1236,1236,-0.8354569190484155,-0.8,1.0,0.0,270.0,626.0,0.0,0,164.0,1
1237,1237,0.18315811003649884,0.2,0.0,0.0,493.0,562.0,0.0,1,675.0,1
1238,1238,0.5533425835738036,0.6,1.0,1.0,449.0,631.0,1.0,1,210.0,1
1239,1239,0.04749764701925063,0.0,0.0,0.0,265.0,905.0,0.0,1,-310.0,1
1240,1240,0.418376342799588,0.4,0.0,0.0,328.0,716.0,0.0,1,466.0,1
1241,1241,0.020470739555348394,0.0,0.0,0.0,364.0,625.0,0.0,1,3771.0,1
1242,1242,-0.8636097143545294,-0.9,0.0,1.0,384.0,930.0,1.0,0,196.0,1
1243,1243,-0.38039630595300655,-0.4,0.0,1.0,357.0,997.0,1.0,0,646.0,1
1244,1244,-0.6403429925416764,-0.6,1.0,0.0,434.0,871.0,0.0,0,355.0,1
1245,1245,-0.25806999623959104,-0.3,0.0,1.0,324.0,756.0,0.0,1,-250.0,0
1246,1246,0.290649096667713,0.3,1.0,1.0,462.0,623.0,1.0,1,885.0,1
1247,1247,0.3308129573508466,0.3,1.0,1.0,450.0,648.0,1.0,1,1662.0,1
1248,1248,-0.575093891486909,-0.6,0.0,1.0,409.0,771.0,1.0,0,250.0,1
1249,1249,0.41330651182908873,0.4,0.0,0.0,472.0,935.0,0.0,1,383.0,1
1250,1250,-0.8804567042129164,-0.9,0.0,1.0,400.0,503.0,1.0,0,337.0,1
1251,1251,-0.2019118514202467,-0.2,1.0,0.0,296.0,716.0,0.0,0,508.0,1
1252,1252,-0.06032444736111431,-0.1,1.0,0.0,356.0,505.0,0.0,0,4119.0,1
1253,1253,-0.2823018131913665,-0.3,0.0,1.0,252.0,731.0,1.0,0,347.0,1
1254,1254,-0.7024647186961333,-0.7,1.0,0.0,392.0,657.0,0.0,0,311.0,1
1255,1255,-0.34280038079191255,-0.3,1.0,0.0,280.0,816.0,0.0,0,114.0,1
1256,1256,-0.4599951320011108,-0.5,1.0,0.0,272.0,572.0,0.0,0,206.0,1
1257,1257,-0.3310883278194312,-0.3,0.0,1.0,433.0,821.0,1.0,0,476.0,1
1258,1258,0.7540431240816862,0.8,1.0,1.0,284.0,892.0,1.0,1,164.0,1
1259,1259,-0.3357497511238102,-0.3,1.0,0.0,289.0,976.0,0.0,0,535.0,1
1260,1260,-0.3323498263580352,-0.3,1.0,0.0,354.0,833.0,0.0,0,-97.0,1
1261,1261,-0.6659075938514143,-0.7,1.0,0.0,303.0,903.0,0.0,0,44.0,1
1262,1262,0.8101399197741203,0.8,0.0,0.0,281.0,771.0,0.0,1,198.0,1
1263,1263,-0.3142454843901271,-0.3,0.0,1.0,355.0,611.0,1.0,0,714.0,1
1264,1264,0.31750176186147094,0.3,0.0,0.0,341.0,723.0,0.0,1,456.0,1
1265,1265,0.03580416390697094,0.0,0.0,0.0,380.0,590.0,0.0,1,3360.0,1
1266,1266,-0.6106657317540947,-0.6,0.0,1.0,448.0,539.0,1.0,0,203.0,1
1267,1267,0.3422017553837192,0.3,1.0,1.0,360.0,659.0,1.0,1,501.0,1
1268,1268,-0.2993368901096981,-0.3,0.0,1.0,257.0,663.0,1.0,0,1160.0,1
1269,1269,-0.8118451800353709,-0.8,0.0,1.0,267.0,654.0,1.0,0,409.0,1
1270,1270,-0.11707774987696618,-0.1,1.0,0.0,353.0,898.0,0.0,0,249.0,1
1271,1271,0.32482521416159826,0.3,0.0,0.0,341.0,936.0,0.0,1,343.0,1
1272,1272,-0.15369117452974435,-0.2,1.0,0.0,323.0,995.0,0.0,0,382.0,1
1273,1273,0.6518451003099034,0.7,0.0,0.0,412.0,790.0,0.0,1,278.0,1
1274,1274,0.05074110439626989,0.1,0.0,0.0,483.0,767.0,1.0,0,3750.0,0
1275,1275,-0.2632851364564268,-0.3,1.0,0.0,421.0,923.0,0.0,0,716.0,1
1276,1276,-0.5118886856995569,-0.5,0.0,1.0,382.0,869.0,1.0,0,549.0,1
1277,1277,0.0051920816351938015,0.0,1.0,1.0,336.0,823.0,0.0,0,971.0,0
1278,1278,-0.5461577849336375,-0.5,1.0,0.0,295.0,594.0,0.0,0,481.0,1
1279,1279,-0.08223969767794681,-0.1,1.0,0.0,462.0,549.0,0.0,0,779.0,1
1280,1280,-0.5102215098094329,-0.5,1.0,0.0,325.0,899.0,0.0,0,26.0,1
1281,1281,-0.3656299435308723,-0.4,1.0,0.0,497.0,871.0,1.0,1,-348.0,0
1282,1282,0.0997457186015358,0.1,1.0,1.0,474.0,651.0,1.0,1,575.0,1
1283,1283,0.06501201202382323,0.1,0.0,0.0,337.0,832.0,0.0,1,3831.0,1
1284,1284,-0.8204753638924922,-0.8,0.0,1.0,298.0,960.0,1.0,0,82.0,1
1285,1285,-0.4817943298542298,-0.5,0.0,1.0,295.0,967.0,1.0,0,488.0,1
1286,1286,0.8180599080640677,0.8,0.0,0.0,293.0,867.0,0.0,1,280.0,1
1287,1287,-0.05457227745869797,-0.1,1.0,0.0,350.0,965.0,0.0,0,-485.0,1
1288,1288,-0.7083967733983532,-0.7,1.0,0.0,273.0,890.0,0.0,0,187.0,1
1289,1289,0.22846779896224667,0.2,0.0,0.0,382.0,588.0,0.0,1,660.0,1
1290,1290,-0.06002470646675884,-0.1,1.0,0.0,312.0,841.0,0.0,0,337.0,1
1291,1291,0.694428249959694,0.7,1.0,1.0,306.0,573.0,1.0,1,331.0,1
1292,1292,0.08940941889520371,0.1,1.0,1.0,456.0,773.0,1.0,1,3771.0,1
1293,1293,0.4910268022866032,0.5,0.0,0.0,274.0,789.0,0.0,1,307.0,1
1294,1294,-0.7422828732148146,-0.7,1.0,0.0,477.0,733.0,0.0,0,90.0,1
1295,1295,0.4361915401122066,0.4,0.0,0.0,321.0,636.0,0.0,1,293.0,1
1296,1296,-0.5459093464889229,-0.5,0.0,1.0,340.0,949.0,1.0,0,221.0,1
1297,1297,-0.4228199246270257,-0.4,1.0,0.0,448.0,922.0,0.0,0,400.0,1
1298,1298,-0.6814456523876568,-0.7,0.0,1.0,496.0,743.0,1.0,0,161.0,1
1299,1299,-0.12309069484460566,-0.1,0.0,1.0,370.0,639.0,1.0,0,1591.0,1
1300,1300,0.6924566602661918,0.7,1.0,1.0,373.0,650.0,1.0,1,297.0,1
1301,1301,-0.04911219196990402,-0.0,0.0,1.0,304.0,701.0,1.0,0,785.0,1
1302,1302,0.4969182640602142,0.5,1.0,1.0,448.0,822.0,1.0,1,280.0,1
1303,1303,-0.17328947796869243,-0.2,0.0,1.0,362.0,641.0,1.0,0,887.0,1
1304,1304,0.3287967171089369,0.3,0.0,0.0,438.0,737.0,0.0,1,645.0,1
1305,1305,0.5600511487349732,0.6,1.0,1.0,325.0,924.0,1.0,1,231.0,1
1306,1306,-0.08460657179803044,-0.1,0.0,1.0,360.0,767.0,1.0,0,1213.0,1
1307,1307,-0.53710107490281,-0.5,0.0,1.0,447.0,947.0,1.0,0,486.0,1
1308,1308,0.22441849603140007,0.2,1.0,1.0,307.0,649.0,1.0,1,844.0,1
1309,1309,0.4635784867143241,0.5,1.0,1.0,295.0,828.0,1.0,1,437.0,1
1310,1310,0.06275302035782648,0.1,0.0,0.0,290.0,598.0,0.0,1,1892.0,1
1311,1311,-0.6209382225209019,-0.6,1.0,0.0,337.0,900.0,0.0,0,233.0,1
1312,1312,-0.8009570691123103,-0.8,0.0,1.0,365.0,674.0,1.0,0,191.0,1
1313,1313,-0.41347160210094563,-0.4,0.0,1.0,413.0,548.0,1.0,0,409.0,1
1314,1314,-0.7842285539300022,-0.8,0.0,1.0,385.0,834.0,1.0,0,531.0,1
1315,1315,-0.17870523809416727,-0.2,0.0,1.0,494.0,638.0,1.0,0,798.0,1
1316,1316,0.39819286838497214,0.4,1.0,1.0,374.0,710.0,1.0,1,836.0,1
1317,1317,-0.6171675242216433,-0.6,0.0,1.0,264.0,897.0,1.0,0,559.0,1
1318,1318,0.7759929843401442,0.8,0.0,0.0,436.0,967.0,0.0,1,237.0,1
1319,1319,0.4981705652994871,0.5,1.0,1.0,303.0,889.0,1.0,1,858.0,1
1320,1320,0.39446915827063667,0.4,1.0,1.0,251.0,791.0,1.0,1,308.0,1
1321,1321,0.6005188440650219,0.6,1.0,1.0,383.0,558.0,1.0,1,399.0,1
1322,1322,0.8365184049514071,0.8,0.0,0.0,354.0,669.0,0.0,1,487.0,1
1323,1323,-0.31373036980439406,-0.3,1.0,0.0,495.0,651.0,0.0,0,514.0,1
1324,1324,0.6883029650757239,0.7,1.0,1.0,338.0,597.0,1.0,1,365.0,1
1325,1325,-0.7455697241540966,-0.7,0.0,1.0,393.0,839.0,1.0,0,128.0,1
1326,1326,-0.8078288500293103,-0.8,0.0,1.0,409.0,704.0,1.0,0,197.0,1
1327,1327,0.3556628492415571,0.4,0.0,0.0,433.0,750.0,0.0,1,247.0,1
1328,1328,-0.3660181229004428,-0.4,0.0,1.0,385.0,865.0,1.0,0,1230.0,1
1329,1329,-0.20334450288156658,-0.2,1.0,0.0,342.0,947.0,0.0,0,-249.0,1
1330,1330,-0.29405086433534844,-0.3,1.0,0.0,276.0,685.0,0.0,0,-61.0,1
1331,1331,-0.3377580513850289,-0.3,1.0,0.0,326.0,847.0,0.0,0,57.0,1
1332,1332,0.20420759131303312,0.2,1.0,1.0,255.0,838.0,1.0,1,1047.0,1
1333,1333,-0.2924109700396538,-0.3,0.0,1.0,432.0,695.0,1.0,0,933.0,1
1334,1334,-0.3445368134753952,-0.3,1.0,0.0,335.0,579.0,0.0,0,536.0,1
1335,1335,-0.8673253896012115,-0.9,1.0,0.0,495.0,733.0,0.0,0,242.0,1
1336,1336,-0.5019046014994077,-0.5,1.0,0.0,292.0,867.0,0.0,0,211.0,1
1337,1337,-0.8391997246130544,-0.8,0.0,1.0,478.0,747.0,1.0,0,285.0,1
1338,1338,-0.4390089521124978,-0.4,1.0,0.0,488.0,720.0,0.0,0,272.0,1
1339,1339,0.07677178553403818,0.1,1.0,1.0,466.0,759.0,1.0,1,715.0,1
1340,1340,0.5397429618360342,0.5,1.0,1.0,471.0,993.0,1.0,1,266.0,1
1341,1341,-0.22058911787464053,-0.2,0.0,1.0,274.0,854.0,1.0,0,822.0,1
1342,1342,0.4791977283638341,0.5,0.0,0.0,321.0,522.0,0.0,1,437.0,1
1343,1343,0.5423308664071756,0.5,1.0,1.0,460.0,505.0,1.0,1,545.0,1
1344,1344,0.4690556203677202,0.5,1.0,1.0,433.0,511.0,1.0,1,296.0,1
1345,1345,-0.7287872173297516,-0.7,0.0,1.0,450.0,906.0,1.0,0,284.0,1
1346,1346,-0.4276863250991299,-0.4,0.0,1.0,460.0,533.0,1.0,0,347.0,1
1347,1347,-0.017191604483064116,-0.0,0.0,1.0,409.0,632.0,0.0,1,649.0,0
1348,1348,-0.3396941645429562,-0.3,0.0,1.0,493.0,853.0,1.0,0,-116.0,1
1349,1349,0.681024067218761,0.7,0.0,0.0,448.0,607.0,0.0,1,145.0,1
1350,1350,-0.4368586919323379,-0.4,1.0,0.0,353.0,733.0,0.0,0,494.0,1
1351,1351,-0.5072841385426441,-0.5,1.0,0.0,268.0,872.0,0.0,0,70.0,1
1352,1352,-0.5141640695397627,-0.5,1.0,0.0,317.0,887.0,0.0,0,316.0,1
1353,1353,-0.14349757980978206,-0.1,0.0,1.0,399.0,650.0,1.0,0,1371.0,1
1354,1354,0.6933466736058721,0.7,1.0,1.0,314.0,651.0,0.0,0,-105.0,0
1355,1355,-0.6113094754267204,-0.6,1.0,0.0,303.0,624.0,0.0,0,253.0,1
1356,1356,-0.7661260285911441,-0.8,0.0,1.0,480.0,863.0,1.0,0,177.0,1
1357,1357,-0.8066040959810078,-0.8,0.0,1.0,339.0,923.0,1.0,0,678.0,1
1358,1358,-0.23828817022042004,-0.2,0.0,1.0,383.0,805.0,1.0,0,522.0,1
1359,1359,0.5117939037562645,0.5,0.0,0.0,437.0,832.0,0.0,1,261.0,1
1360,1360,-0.6400019397775814,-0.6,0.0,1.0,319.0,914.0,1.0,0,227.0,1
1361,1361,0.7279828059158345,0.7,0.0,0.0,456.0,638.0,0.0,1,126.0,1
1362,1362,-0.8893992506968802,-0.9,1.0,0.0,262.0,997.0,0.0,0,301.0,1
1363,1363,-0.6270530541715125,-0.6,1.0,0.0,285.0,714.0,0.0,0,211.0,1
1364,1364,-0.15313298769357997,-0.2,0.0,1.0,427.0,759.0,1.0,0,524.0,1
1365,1365,0.015646729515158664,0.0,0.0,0.0,488.0,619.0,0.0,1,2873.0,1
1366,1366,-0.7796072053898819,-0.8,1.0,0.0,386.0,583.0,0.0,0,361.0,1
1367,1367,-0.17173076683344424,-0.2,0.0,1.0,322.0,974.0,1.0,0,874.0,1
1368,1368,0.8587420148613726,0.9,0.0,0.0,438.0,632.0,0.0,1,270.0,1
1369,1369,0.8051739416049118,0.8,0.0,0.0,411.0,718.0,0.0,1,181.0,1
1370,1370,0.4046446455462934,0.4,0.0,0.0,462.0,547.0,0.0,1,381.0,1
1371,1371,-0.29984872483235847,-0.3,0.0,1.0,482.0,682.0,1.0,0,546.0,1
1372,1372,0.3391671931315371,0.3,1.0,1.0,405.0,625.0,1.0,1,280.0,1
1373,1373,-0.8118131310354078,-0.8,0.0,1.0,279.0,540.0,1.0,0,341.0,1
1374,1374,-0.6344713256189531,-0.6,1.0,0.0,423.0,742.0,0.0,0,185.0,1
1375,1375,-0.31482015098240246,-0.3,1.0,0.0,499.0,932.0,0.0,0,249.0,1
1376,1376,0.8098999703275297,0.8,0.0,0.0,326.0,512.0,0.0,1,152.0,1
1377,1377,-0.5307133025661723,-0.5,1.0,0.0,352.0,890.0,0.0,0,-222.0,1
1378,1378,0.5494506328864378,0.5,1.0,1.0,385.0,613.0,1.0,1,492.0,1
1379,1379,-0.5292518497552414,-0.5,1.0,0.0,454.0,557.0,0.0,0,309.0,1
1380,1380,-0.6276253711198754,-0.6,0.0,1.0,375.0,768.0,1.0,0,277.0,1
1381,1381,-0.13993915945638224,-0.1,1.0,0.0,336.0,732.0,0.0,0,892.0,1
1382,1382,-0.002247039193001954,-0.0,1.0,0.0,445.0,600.0,0.0,0,1285.0,1
1383,1383,0.13964366266429484,0.1,0.0,0.0,270.0,936.0,0.0,1,-516.0,1
1384,1384,0.5398084775912236,0.5,0.0,0.0,389.0,668.0,0.0,1,553.0,1
1385,1385,0.621736604755806,0.6,0.0,0.0,313.0,918.0,0.0,1,129.0,1
1386,1386,0.5794229399512422,0.6,1.0,1.0,403.0,970.0,0.0,0,-173.0,0
1387,1387,-0.16759438845093644,-0.2,1.0,0.0,291.0,593.0,0.0,0,1276.0,1
1388,1388,-0.30942325441238383,-0.3,1.0,0.0,283.0,809.0,0.0,0,578.0,1
1389,1389,-0.609712010461302,-0.6,0.0,1.0,305.0,956.0,0.0,1,-521.0,0
1390,1390,-0.5654616886509557,-0.6,1.0,0.0,483.0,864.0,0.0,0,183.0,1
1391,1391,-0.12192159148710346,-0.1,1.0,0.0,367.0,727.0,0.0,0,426.0,1
1392,1392,0.16323550726032876,0.2,1.0,1.0,329.0,923.0,0.0,0,-532.0,0
1393,1393,-0.38468392374315574,-0.4,0.0,1.0,345.0,899.0,1.0,0,1186.0,1
1394,1394,-0.031347498760937675,-0.0,1.0,0.0,347.0,535.0,0.0,0,1408.0,1
1395,1395,-0.43347879779524057,-0.4,0.0,1.0,380.0,928.0,1.0,0,752.0,1
1396,1396,0.01199932958948835,0.0,1.0,1.0,419.0,685.0,0.0,0,-144.0,0
1397,1397,0.016142546138805614,0.0,1.0,1.0,395.0,837.0,0.0,0,1458.0,0
1398,1398,-0.6688757956178297,-0.7,1.0,0.0,338.0,759.0,0.0,0,183.0,1
1399,1399,0.1398092842752724,0.1,1.0,1.0,435.0,534.0,1.0,1,1531.0,1
1400,1400,-0.25771864356748986,-0.3,0.0,1.0,381.0,690.0,1.0,0,719.0,1
1401,1401,-0.4006638001521339,-0.4,0.0,1.0,386.0,726.0,1.0,0,438.0,1
1402,1402,0.8825600079046584,0.9,0.0,0.0,306.0,830.0,0.0,1,114.0,1
1403,1403,0.2473818342462183,0.2,0.0,0.0,278.0,912.0,0.0,1,280.0,1
1404,1404,-0.08423695206970594,-0.1,0.0,1.0,343.0,909.0,0.0,1,528.0,0
1405,1405,-0.11984365159416077,-0.1,1.0,0.0,301.0,660.0,0.0,0,809.0,1
1406,1406,-0.8377296702090626,-0.8,1.0,0.0,371.0,557.0,0.0,0,312.0,1
1407,1407,0.006870905369541935,0.0,0.0,0.0,310.0,784.0,0.0,1,3906.0,1
1408,1408,0.5960336783542562,0.6,0.0,0.0,485.0,691.0,0.0,1,-86.0,1
1409,1409,-0.003967618862470879,-0.0,0.0,1.0,451.0,624.0,1.0,0,1375.0,1
1410,1410,0.6416604514393386,0.6,1.0,1.0,388.0,945.0,0.0,0,7.0,0
1411,1411,0.45205838353116035,0.5,0.0,0.0,253.0,780.0,0.0,1,307.0,1
1412,1412,-0.46979687708385615,-0.5,1.0,0.0,415.0,647.0,0.0,0,248.0,1
1413,1413,-0.8630522901860124,-0.9,1.0,0.0,270.0,774.0,0.0,0,306.0,1
1414,1414,-0.03282407116591035,-0.0,0.0,1.0,388.0,884.0,0.0,1,3728.0,0
1415,1415,0.18776680695502568,0.2,1.0,1.0,472.0,898.0,0.0,0,260.0,0
1416,1416,0.5592124407648528,0.6,0.0,0.0,311.0,736.0,0.0,1,373.0,1
1417,1417,0.26586911324363494,0.3,0.0,0.0,436.0,947.0,0.0,1,967.0,1
1418,1418,-0.07725883341230133,-0.1,1.0,0.0,446.0,663.0,0.0,0,3131.0,1
1419,1419,0.6838731912030557,0.7,1.0,1.0,424.0,564.0,1.0,1,282.0,1
1420,1420,-0.8123081869315847,-0.8,1.0,0.0,464.0,671.0,0.0,0,225.0,1
1421,1421,0.5694186020309849,0.6,0.0,0.0,257.0,719.0,0.0,1,204.0,1
1422,1422,0.1353033605830226,0.1,0.0,0.0,427.0,878.0,0.0,1,1455.0,1
1423,1423,-0.11618171901674668,-0.1,0.0,1.0,333.0,801.0,1.0,0,476.0,1
1424,1424,0.23931449225885804,0.2,0.0,0.0,463.0,996.0,0.0,1,281.0,1
1425,1425,-0.38963590831073525,-0.4,1.0,0.0,358.0,959.0,0.0,0,193.0,1
1426,1426,0.8516451696464272,0.9,1.0,1.0,332.0,586.0,1.0,1,432.0,1
1427,1427,-0.17324450370551236,-0.2,1.0,0.0,388.0,833.0,0.0,0,539.0,1
1428,1428,-0.8421513417784596,-0.8,1.0,0.0,414.0,772.0,0.0,0,154.0,1
1429,1429,0.7856560929013446,0.8,0.0,0.0,256.0,933.0,0.0,1,91.0,1
1430,1430,0.3405684494839768,0.3,0.0,0.0,399.0,634.0,0.0,1,337.0,1
1431,1431,-0.7251090012374894,-0.7,1.0,0.0,250.0,933.0,0.0,0,237.0,1
1432,1432,0.5047380627375729,0.5,0.0,0.0,391.0,698.0,0.0,1,421.0,1
1433,1433,0.7489980123439796,0.7,0.0,0.0,276.0,822.0,0.0,1,482.0,1
1434,1434,-0.6652342503961948,-0.7,0.0,1.0,335.0,751.0,1.0,0,484.0,1
1435,1435,-0.8805665985643223,-0.9,0.0,1.0,370.0,817.0,1.0,0,133.0,1
1436,1436,0.6250431220340854,0.6,0.0,0.0,451.0,630.0,0.0,1,119.0,1
1437,1437,-0.8474428717553157,-0.8,1.0,0.0,485.0,602.0,0.0,0,-7.0,1
1438,1438,-0.8566619426839945,-0.9,1.0,0.0,379.0,655.0,0.0,0,156.0,1
1439,1439,0.47668879074951176,0.5,0.0,0.0,469.0,542.0,0.0,1,129.0,1
1440,1440,-0.20529526067314952,-0.2,1.0,0.0,357.0,998.0,0.0,0,605.0,1
1441,1441,0.6641513253730992,0.7,1.0,1.0,485.0,858.0,1.0,1,507.0,1
1442,1442,-0.7554200940078164,-0.8,1.0,0.0,408.0,903.0,1.0,1,-101.0,0
1443,1443,-0.16360667767722759,-0.2,1.0,0.0,393.0,879.0,0.0,0,718.0,1
1444,1444,0.5033829463093701,0.5,1.0,1.0,437.0,645.0,1.0,1,218.0,1
1445,1445,0.3088088334718945,0.3,1.0,1.0,488.0,573.0,1.0,1,869.0,1
1446,1446,-0.04475319040211867,-0.0,0.0,1.0,275.0,660.0,1.0,0,2305.0,1
1447,1447,0.38067024677609684,0.4,0.0,0.0,436.0,711.0,0.0,1,473.0,1
1448,1448,-0.37106459850618867,-0.4,0.0,1.0,311.0,928.0,1.0,0,1071.0,1
1449,1449,0.29937805514091453,0.3,1.0,1.0,477.0,779.0,1.0,1,264.0,1
1450,1450,-0.14423164634446162,-0.1,1.0,0.0,470.0,974.0,0.0,0,1606.0,1
1451,1451,0.12827715077896207,0.1,0.0,0.0,343.0,555.0,0.0,1,3542.0,1
1452,1452,-0.7370162001506683,-0.7,0.0,1.0,280.0,971.0,1.0,0,139.0,1
1453,1453,0.07597252804599941,0.1,1.0,1.0,308.0,765.0,1.0,1,527.0,1
1454,1454,0.6817294985193546,0.7,1.0,1.0,329.0,617.0,1.0,1,474.0,1
1455,1455,-0.6862252749349148,-0.7,1.0,0.0,266.0,829.0,0.0,0,425.0,1
1456,1456,-0.42699941222670856,-0.4,1.0,0.0,304.0,658.0,0.0,0,298.0,1
1457,1457,-0.6601996337913092,-0.7,1.0,0.0,311.0,639.0,0.0,0,380.0,1
1458,1458,-0.43420329606116603,-0.4,0.0,1.0,301.0,614.0,1.0,0,285.0,1
1459,1459,-0.8701691893196191,-0.9,1.0,0.0,430.0,674.0,0.0,0,186.0,1
1460,1460,0.4647169566767596,0.5,1.0,1.0,441.0,635.0,1.0,1,294.0,1
1461,1461,-0.746802191651581,-0.7,0.0,1.0,306.0,954.0,1.0,0,180.0,1
1462,1462,-0.7738402437209126,-0.8,0.0,1.0,284.0,942.0,1.0,0,314.0,1
1463,1463,0.49628461657632783,0.5,0.0,0.0,392.0,744.0,0.0,1,644.0,1
1464,1464,0.7087784789210397,0.7,0.0,0.0,275.0,717.0,0.0,1,338.0,1
1465,1465,-0.5928412633175109,-0.6,0.0,1.0,294.0,712.0,1.0,0,454.0,1
1466,1466,0.1708906206958528,0.2,1.0,1.0,483.0,601.0,1.0,1,1096.0,1
1467,1467,-0.800528117312482,-0.8,0.0,1.0,317.0,547.0,1.0,0,226.0,1
1468,1468,-0.700497218614841,-0.7,0.0,1.0,463.0,928.0,1.0,0,659.0,1
1469,1469,0.4465652047933467,0.4,0.0,0.0,492.0,617.0,0.0,1,251.0,1
1470,1470,-0.8942440625863408,-0.9,1.0,0.0,496.0,518.0,0.0,0,166.0,1
1471,1471,0.043241884035158384,0.0,0.0,0.0,325.0,659.0,0.0,1,1056.0,1
1472,1472,-0.6508371790668891,-0.7,0.0,1.0,426.0,546.0,1.0,0,418.0,1
1473,1473,0.12103960103810063,0.1,0.0,0.0,428.0,977.0,0.0,1,955.0,1
1474,1474,-0.20691666106812545,-0.2,0.0,1.0,373.0,608.0,1.0,0,1219.0,1
1475,1475,0.23785136229410064,0.2,1.0,1.0,390.0,593.0,1.0,1,627.0,1
1476,1476,-0.1630376286438,-0.2,0.0,1.0,356.0,734.0,1.0,0,3910.0,1
1477,1477,0.7749657030680289,0.8,0.0,0.0,278.0,775.0,0.0,1,367.0,1
1478,1478,0.09891505869605377,0.1,1.0,1.0,317.0,750.0,0.0,0,423.0,0
1479,1479,-0.5566536088659677,-0.6,0.0,1.0,423.0,740.0,1.0,0,417.0,1
1480,1480,0.3449517464822477,0.3,0.0,0.0,347.0,679.0,0.0,1,294.0,1
1481,1481,0.6265643344336896,0.6,1.0,1.0,457.0,661.0,1.0,1,72.0,1
1482,1482,0.7148464558834194,0.7,0.0,0.0,332.0,682.0,0.0,1,396.0,1
1483,1483,-0.7328752546493524,-0.7,0.0,1.0,495.0,711.0,1.0,0,184.0,1
1484,1484,0.7517376443440414,0.8,0.0,0.0,293.0,858.0,0.0,1,499.0,1
1485,1485,0.016913228880871545,0.0,1.0,1.0,406.0,614.0,0.0,0,3700.0,0
1486,1486,-0.7613992539906698,-0.8,1.0,0.0,363.0,982.0,0.0,0,305.0,1
1487,1487,0.04649004276662083,0.0,0.0,0.0,494.0,823.0,0.0,1,3683.0,1
1488,1488,-0.2268167166235806,-0.2,0.0,1.0,342.0,647.0,1.0,0,791.0,1
1489,1489,-0.2396609846973422,-0.2,0.0,1.0,403.0,939.0,1.0,0,2468.0,1
