,trial,coherence,coherence_bin,green_side,correct_side,target_onset,checker_onset,decision,green_decision,decision_time,correct_decision
0,0,-0.09180835997658665,-0.1,0.0,1.0,488.0,502.0,1.0,0,1860.0,1
1,1,-0.6758380930506936,-0.7,1.0,0.0,387.0,676.0,0.0,0,247.0,1
2,2,-0.005689867500749735,-0.0,1.0,0.0,337.0,954.0,1.0,1,629.0,0
3,3,-0.09011426872194228,-0.1,1.0,0.0,268.0,845.0,1.0,1,-353.0,0
4,4,-0.6634146384384597,-0.7,0.0,1.0,363.0,510.0,1.0,0,167.0,1
5,5,-0.7050224225527942,-0.7,0.0,1.0,436.0,635.0,1.0,0,329.0,1
6,6,-0.7750963031387046,-0.8,1.0,0.0,261.0,981.0,0.0,0,228.0,1
7,7,0.3828132324092469,0.4,1.0,1.0,369.0,621.0,1.0,1,220.0,1
8,8,0.2192088783658498,0.2,0.0,0.0,271.0,640.0,0.0,1,1649.0,1
9,9,-0.8087849016382452,-0.8,0.0,1.0,296.0,504.0,1.0,0,240.0,1
10,10,0.4476234783286194,0.4,0.0,0.0,305.0,971.0,0.0,1,334.0,1
11,11,0.19755712443941176,0.2,1.0,1.0,310.0,916.0,1.0,1,154.0,1
12,12,-0.27777834465906215,-0.3,1.0,0.0,376.0,774.0,0.0,0,200.0,1
13,13,0.5020110588204113,0.5,1.0,1.0,381.0,999.0,1.0,1,120.0,1
14,14,0.10644156652177761,0.1,1.0,1.0,494.0,780.0,1.0,1,346.0,1
15,15,0.34945084633385715,0.3,1.0,1.0,268.0,543.0,1.0,1,319.0,1
16,16,-0.08314783092530975,-0.1,1.0,0.0,302.0,931.0,1.0,1,1107.0,0
17,17,-0.5929427053515688,-0.6,0.0,1.0,437.0,552.0,1.0,0,421.0,1
18,18,0.8036574288888975,0.8,1.0,1.0,444.0,574.0,1.0,1,142.0,1
19,19,-0.43041499636102726,-0.4,1.0,0.0,393.0,949.0,1.0,1,-342.0,0
20,20,-0.7168827171128019,-0.7,0.0,1.0,293.0,771.0,1.0,0,136.0,1
21,21,0.21448033942238587,0.2,1.0,1.0,283.0,926.0,1.0,1,791.0,1
22,22,0.6518164077981498,0.7,0.0,0.0,281.0,838.0,0.0,1,1651.0,1
23,23,0.23325625551463636,0.2,0.0,0.0,306.0,899.0,0.0,1,485.0,1
24,24,-0.4660045001423549,-0.5,1.0,0.0,329.0,986.0,0.0,0,155.0,1
25,25,0.6701693535874104,0.7,1.0,1.0,370.0,580.0,1.0,1,200.0,1
26,26,-0.840766841139841,-0.8,0.0,1.0,406.0,916.0,1.0,0,128.0,1
27,27,-0.40879454391658004,-0.4,1.0,0.0,487.0,837.0,0.0,0,546.0,1
28,28,0.12595420093252863,0.1,1.0,1.0,495.0,770.0,1.0,1,1415.0,1
29,29,0.4638544480214647,0.5,0.0,0.0,496.0,907.0,0.0,1,607.0,1
30,30,-0.42664826079879226,-0.4,1.0,0.0,498.0,924.0,0.0,0,368.0,1
31,31,-0.640656348799507,-0.6,0.0,1.0,288.0,528.0,1.0,0,314.0,1
32,32,0.1324387529303913,0.1,1.0,1.0,284.0,571.0,1.0,1,925.0,1
33,33,-0.2750780242450429,-0.3,1.0,0.0,445.0,958.0,0.0,0,707.0,1
34,34,0.8026184936220252,0.8,1.0,1.0,279.0,854.0,1.0,1,117.0,1
35,35,-0.40235590207484023,-0.4,0.0,1.0,394.0,905.0,1.0,0,411.0,1
36,36,0.4128605342151138,0.4,0.0,0.0,354.0,662.0,0.0,1,374.0,1
37,37,0.18095897627481594,0.2,0.0,0.0,475.0,894.0,0.0,1,1461.0,1
38,38,0.8011485424790245,0.8,0.0,0.0,486.0,731.0,0.0,1,193.0,1
39,39,0.7589076264247775,0.8,0.0,0.0,373.0,623.0,0.0,1,234.0,1
40,40,0.11726849608023049,0.1,1.0,1.0,410.0,644.0,1.0,1,406.0,1
41,41,0.06180175664348764,0.1,0.0,0.0,436.0,864.0,1.0,0,1700.0,0
42,42,-0.7546794726260275,-0.8,1.0,0.0,256.0,704.0,0.0,0,300.0,1
43,43,0.08166394757399265,0.1,1.0,1.0,257.0,766.0,1.0,1,897.0,1
44,44,0.17532455797887192,0.2,1.0,1.0,344.0,851.0,1.0,1,245.0,1
45,45,0.8720280559645902,0.9,0.0,0.0,395.0,540.0,0.0,1,225.0,1
46,46,0.8717778842678657,0.9,0.0,0.0,370.0,764.0,0.0,1,336.0,1
47,47,-0.16678763301970678,-0.2,0.0,1.0,355.0,500.0,1.0,0,415.0,1
48,48,0.4388913794885231,0.4,0.0,0.0,472.0,970.0,0.0,1,548.0,1
49,49,0.6170341904209103,0.6,1.0,1.0,324.0,861.0,1.0,1,125.0,1
50,50,0.42357391651323695,0.4,0.0,0.0,373.0,820.0,0.0,1,347.0,1
51,51,-0.2553610452826889,-0.3,0.0,1.0,343.0,642.0,1.0,0,495.0,1
52,52,0.14233961713917964,0.1,1.0,1.0,472.0,927.0,1.0,1,631.0,1
53,53,0.6702923930261991,0.7,0.0,0.0,421.0,612.0,0.0,1,167.0,1
54,54,0.8709404492346703,0.9,1.0,1.0,485.0,876.0,1.0,1,129.0,1
55,55,-0.7923231913106256,-0.8,0.0,1.0,439.0,602.0,1.0,0,209.0,1
56,56,-0.16867615209365194,-0.2,0.0,1.0,373.0,675.0,1.0,0,1602.0,1
57,57,-0.8048681319565234,-0.8,1.0,0.0,348.0,946.0,0.0,0,236.0,1
58,58,-0.8031086469111016,-0.8,0.0,1.0,392.0,826.0,1.0,0,82.0,1
59,59,0.015494980926716417,0.0,0.0,0.0,366.0,954.0,0.0,1,1680.0,1
60,60,0.07002103134636395,0.1,0.0,0.0,375.0,920.0,0.0,1,1705.0,1
61,61,-0.8339197902775106,-0.8,0.0,1.0,343.0,778.0,1.0,0,269.0,1
62,62,0.3257517602254473,0.3,0.0,0.0,480.0,558.0,0.0,1,312.0,1
63,63,-0.5870245614069479,-0.6,0.0,1.0,311.0,882.0,1.0,0,397.0,1
64,64,-0.6497284628487616,-0.6,1.0,0.0,322.0,845.0,0.0,0,213.0,1
65,65,-0.001683441727791779,-0.0,1.0,0.0,251.0,735.0,1.0,1,2014.0,0
66,66,0.5575815785417274,0.6,0.0,0.0,340.0,698.0,0.0,1,382.0,1
67,67,0.5819695228298859,0.6,1.0,1.0,473.0,797.0,1.0,1,240.0,1
68,68,-0.2473281817410634,-0.2,1.0,0.0,384.0,529.0,0.0,0,857.0,1
69,69,-0.8226039518325875,-0.8,0.0,1.0,476.0,835.0,1.0,0,279.0,1
70,70,0.1531146038625365,0.2,1.0,1.0,294.0,962.0,1.0,1,944.0,1
71,71,-0.5762985119584655,-0.6,1.0,0.0,322.0,790.0,0.0,0,188.0,1
72,72,-0.11125752831590385,-0.1,1.0,0.0,349.0,978.0,1.0,1,493.0,0
73,73,-0.12122347435746395,-0.1,1.0,0.0,426.0,884.0,1.0,1,390.0,0
74,74,0.7817175768162509,0.8,1.0,1.0,483.0,958.0,1.0,1,199.0,1
75,75,0.5491411040994255,0.5,0.0,0.0,467.0,522.0,0.0,1,291.0,1
76,76,-0.35602882708977257,-0.4,0.0,1.0,470.0,792.0,1.0,0,318.0,1
77,77,-0.24719607789827713,-0.2,0.0,1.0,471.0,869.0,1.0,0,240.0,1
78,78,0.3895729280391901,0.4,0.0,0.0,412.0,790.0,0.0,1,738.0,1
79,79,-0.018786565017187562,-0.0,1.0,0.0,322.0,955.0,1.0,1,1723.0,0
80,80,0.36860583140379066,0.4,0.0,0.0,385.0,824.0,0.0,1,1791.0,1
81,81,-0.5102780723913614,-0.5,0.0,1.0,325.0,655.0,1.0,0,240.0,1
82,82,0.5007174095337087,0.5,0.0,0.0,343.0,550.0,0.0,1,627.0,1
83,83,0.4512318904357303,0.5,1.0,1.0,326.0,665.0,1.0,1,239.0,1
84,84,0.03850035518671169,0.0,1.0,1.0,322.0,756.0,1.0,1,-8.0,1
85,85,0.05936793632959814,0.1,1.0,1.0,442.0,710.0,1.0,1,1018.0,1
86,86,-0.5536586725919554,-0.6,0.0,1.0,426.0,816.0,1.0,0,418.0,1
87,87,-0.6359041789881954,-0.6,1.0,0.0,294.0,610.0,0.0,0,246.0,1
88,88,0.5166831673406841,0.5,1.0,1.0,400.0,909.0,1.0,1,191.0,1
89,89,0.269676035207297,0.3,0.0,0.0,309.0,811.0,0.0,1,470.0,1
90,90,-0.7106304661168313,-0.7,1.0,0.0,291.0,813.0,0.0,0,316.0,1
91,91,0.758222929168468,0.8,0.0,0.0,426.0,509.0,0.0,1,205.0,1
92,92,-0.5230979221790644,-0.5,1.0,0.0,479.0,542.0,0.0,0,359.0,1
93,93,0.8455307713976611,0.8,0.0,0.0,432.0,656.0,0.0,1,262.0,1
94,94,0.3189099238972276,0.3,1.0,1.0,288.0,761.0,1.0,1,281.0,1
95,95,0.12747442789261998,0.1,0.0,0.0,381.0,991.0,0.0,1,1628.0,1
96,96,-0.46796408838596276,-0.5,0.0,1.0,311.0,803.0,1.0,0,456.0,1
97,97,-0.04981403047767996,-0.0,0.0,1.0,429.0,755.0,1.0,0,1656.0,1
98,98,0.6478307524638703,0.6,0.0,0.0,415.0,560.0,0.0,1,265.0,1
99,99,0.8568251852606147,0.9,1.0,1.0,254.0,636.0,1.0,1,410.0,1
100,100,0.16067095454673275,0.2,0.0,0.0,333.0,947.0,0.0,1,1720.0,1
101,101,0.18742923623840368,0.2,1.0,1.0,338.0,847.0,1.0,1,45.0,1
102,102,-0.7849605970085379,-0.8,0.0,1.0,297.0,846.0,1.0,0,117.0,1
103,103,-0.8709709771400648,-0.9,0.0,1.0,332.0,788.0,1.0,0,120.0,1
104,104,-0.7046064723222403,-0.7,0.0,1.0,390.0,737.0,1.0,0,263.0,1
105,105,0.8706655716851587,0.9,1.0,1.0,417.0,844.0,1.0,1,89.0,1
106,106,-0.7091249009549666,-0.7,0.0,1.0,310.0,538.0,1.0,0,192.0,1
107,107,0.22192953327261422,0.2,0.0,0.0,277.0,897.0,0.0,1,896.0,1
108,108,0.6267581943645663,0.6,1.0,1.0,331.0,686.0,1.0,1,113.0,1
109,109,0.07892702384125583,0.1,1.0,1.0,407.0,641.0,1.0,1,852.0,1
110,110,-0.10762265311798191,-0.1,0.0,1.0,483.0,672.0,1.0,0,725.0,1
111,111,0.6865949012757954,0.7,1.0,1.0,473.0,717.0,1.0,1,190.0,1
112,112,-0.16152173625307686,-0.2,1.0,0.0,395.0,961.0,1.0,1,1644.0,0
113,113,0.8055167360231975,0.8,0.0,0.0,494.0,749.0,0.0,1,217.0,1
114,114,-0.202605316481411,-0.2,0.0,1.0,460.0,638.0,1.0,0,692.0,1
115,115,0.06568093276267872,0.1,1.0,1.0,464.0,756.0,1.0,1,1060.0,1
116,116,-0.40520127473694467,-0.4,0.0,1.0,367.0,947.0,1.0,0,176.0,1
117,117,0.6328879503990666,0.6,1.0,1.0,462.0,912.0,1.0,1,166.0,1
118,118,0.893443656570012,0.9,0.0,0.0,352.0,824.0,0.0,1,164.0,1
119,119,-0.6388914991917628,-0.6,1.0,0.0,418.0,996.0,0.0,0,6.0,1
120,120,-0.31126691395907247,-0.3,1.0,0.0,364.0,861.0,1.0,1,-65.0,0
121,121,-0.6038544079881069,-0.6,0.0,1.0,474.0,987.0,1.0,0,199.0,1
122,122,0.8753290248048228,0.9,1.0,1.0,401.0,820.0,1.0,1,89.0,1
123,123,0.5852882173838571,0.6,0.0,0.0,311.0,897.0,0.0,1,612.0,1
124,124,-0.15729941885551124,-0.2,0.0,1.0,495.0,992.0,1.0,0,673.0,1
125,125,0.18388129519401708,0.2,0.0,0.0,470.0,750.0,0.0,1,1780.0,1
126,126,0.7508662531859053,0.8,0.0,0.0,309.0,999.0,0.0,1,562.0,1
127,127,0.75048829767773,0.8,1.0,1.0,299.0,759.0,1.0,1,72.0,1
128,128,0.4989976236871282,0.5,1.0,1.0,470.0,571.0,1.0,1,239.0,1
129,129,0.2682408947788685,0.3,0.0,0.0,459.0,747.0,0.0,1,1464.0,1
130,130,-0.6590234888079449,-0.7,0.0,1.0,364.0,809.0,1.0,0,187.0,1
131,131,-0.23277525863488713,-0.2,1.0,0.0,419.0,599.0,0.0,0,1082.0,1
132,132,-0.11323984748164229,-0.1,0.0,1.0,464.0,892.0,1.0,0,1014.0,1
133,133,-0.6992605772857449,-0.7,0.0,1.0,392.0,754.0,1.0,0,124.0,1
134,134,-0.05187584869024664,-0.1,0.0,1.0,314.0,928.0,1.0,0,728.0,1
135,135,-0.11180352540806093,-0.1,1.0,0.0,293.0,797.0,0.0,0,870.0,1
136,136,0.047377865915387396,0.0,1.0,1.0,284.0,919.0,1.0,1,947.0,1
137,137,-0.8526876472340997,-0.9,1.0,0.0,325.0,856.0,0.0,0,119.0,1
138,138,0.834060708973679,0.8,1.0,1.0,410.0,772.0,1.0,1,208.0,1
139,139,-0.428545672710345,-0.4,1.0,0.0,318.0,659.0,0.0,0,393.0,1
140,140,0.7783482116978705,0.8,1.0,1.0,489.0,827.0,1.0,1,-456.0,1
141,141,0.06588502888232173,0.1,0.0,0.0,372.0,687.0,0.0,1,1141.0,1
142,142,-0.3521691411728908,-0.4,1.0,0.0,288.0,784.0,0.0,0,318.0,1
143,143,-0.2752102315691798,-0.3,1.0,0.0,371.0,983.0,1.0,1,-144.0,0
144,144,0.08616471190570707,0.1,1.0,1.0,425.0,601.0,1.0,1,524.0,1
145,145,0.6660887267117043,0.7,0.0,0.0,286.0,881.0,0.0,1,183.0,1
146,146,-0.08359439491782528,-0.1,0.0,1.0,424.0,852.0,1.0,0,724.0,1
147,147,-0.6853867980336347,-0.7,1.0,0.0,253.0,676.0,0.0,0,1841.0,1
148,148,-0.7651764939444066,-0.8,0.0,1.0,364.0,853.0,1.0,0,323.0,1
149,149,-0.5752407488290516,-0.6,1.0,0.0,409.0,753.0,0.0,0,208.0,1
150,150,0.14540474235647693,0.1,0.0,0.0,387.0,658.0,0.0,1,1045.0,1
151,151,-0.3634658424678181,-0.4,0.0,1.0,298.0,567.0,1.0,0,265.0,1
152,152,-0.35896601121876226,-0.4,1.0,0.0,451.0,772.0,0.0,0,587.0,1
153,153,-0.14088769130604173,-0.1,1.0,0.0,317.0,513.0,0.0,0,1290.0,1
154,154,-0.598580136067911,-0.6,1.0,0.0,477.0,684.0,0.0,0,1089.0,1
155,155,-0.3873735717470841,-0.4,0.0,1.0,323.0,816.0,1.0,0,401.0,1
156,156,0.4386331230590502,0.4,1.0,1.0,335.0,592.0,1.0,1,113.0,1
157,157,-0.802563580763642,-0.8,0.0,1.0,322.0,649.0,1.0,0,169.0,1
158,158,0.3472607156174904,0.3,0.0,0.0,406.0,526.0,0.0,1,538.0,1
159,159,0.5087558278878476,0.5,0.0,0.0,308.0,934.0,0.0,1,178.0,1
160,160,-0.3782406218244334,-0.4,0.0,1.0,499.0,600.0,1.0,0,411.0,1
161,161,-0.08443904823852577,-0.1,1.0,0.0,386.0,755.0,1.0,1,1859.0,0
162,162,-0.48699143905269077,-0.5,0.0,1.0,384.0,529.0,1.0,0,347.0,1
163,163,0.27011683904298966,0.3,1.0,1.0,384.0,984.0,1.0,1,462.0,1
164,164,-0.47546733200052926,-0.5,0.0,1.0,496.0,988.0,1.0,0,336.0,1
165,165,0.4907071140499438,0.5,0.0,0.0,333.0,987.0,0.0,1,380.0,1
166,166,-0.47776651050361163,-0.5,1.0,0.0,348.0,843.0,0.0,0,739.0,1
167,167,-0.7405278525511183,-0.7,0.0,1.0,261.0,913.0,1.0,0,146.0,1
168,168,0.22088462292478106,0.2,1.0,1.0,429.0,736.0,1.0,1,425.0,1
169,169,0.2631934333513527,0.3,1.0,1.0,347.0,803.0,1.0,1,190.0,1
170,170,0.5808239273198236,0.6,1.0,1.0,277.0,955.0,1.0,1,108.0,1
171,171,-0.046012882901795504,-0.0,0.0,1.0,325.0,989.0,1.0,0,1686.0,1
172,172,0.2220642654484054,0.2,0.0,0.0,440.0,569.0,0.0,1,551.0,1
173,173,0.011584750341162353,0.0,0.0,0.0,494.0,888.0,1.0,0,1618.0,0
174,174,-0.5635673107234973,-0.6,0.0,1.0,313.0,668.0,1.0,0,199.0,1
175,175,0.7278507601970962,0.7,1.0,1.0,424.0,985.0,1.0,1,61.0,1
176,176,-0.6407798706735326,-0.6,0.0,1.0,336.0,518.0,1.0,0,256.0,1
177,177,-0.5167100164190761,-0.5,0.0,1.0,397.0,873.0,1.0,0,110.0,1
178,178,-0.7897948491746153,-0.8,0.0,1.0,350.0,848.0,1.0,0,292.0,1
179,179,0.1823110284063657,0.2,1.0,1.0,391.0,677.0,1.0,1,-78.0,1
180,180,0.3989720380149663,0.4,1.0,1.0,422.0,842.0,1.0,1,246.0,1
181,181,-0.4578146781466523,-0.5,1.0,0.0,471.0,661.0,0.0,0,668.0,1
182,182,0.16469333758586224,0.2,0.0,0.0,315.0,644.0,0.0,1,2041.0,1
183,183,0.41492786453100894,0.4,1.0,1.0,449.0,541.0,1.0,1,140.0,1
184,184,-0.8164210368829323,-0.8,1.0,0.0,408.0,597.0,0.0,0,155.0,1
185,185,0.8062557688837128,0.8,0.0,0.0,388.0,704.0,0.0,1,108.0,1
186,186,0.6779427773181764,0.7,0.0,0.0,494.0,835.0,0.0,1,591.0,1
187,187,-0.5089155566227326,-0.5,0.0,1.0,386.0,852.0,1.0,0,272.0,1
188,188,0.8386373780558635,0.8,0.0,0.0,254.0,979.0,0.0,1,677.0,1
189,189,-0.22196500909996264,-0.2,1.0,0.0,375.0,987.0,0.0,0,1398.0,1
190,190,0.7306866982826489,0.7,1.0,1.0,274.0,576.0,1.0,1,200.0,1
191,191,0.2706784742498066,0.3,1.0,1.0,270.0,847.0,1.0,1,413.0,1
192,192,-0.8924947844521904,-0.9,0.0,1.0,321.0,763.0,1.0,0,156.0,1
193,193,0.3239789996304149,0.3,1.0,1.0,364.0,867.0,1.0,1,99.0,1
194,194,-0.420237343923984,-0.4,1.0,0.0,275.0,988.0,0.0,0,737.0,1
195,195,0.47025987003427916,0.5,1.0,1.0,271.0,521.0,1.0,1,248.0,1
196,196,-0.8761180699197453,-0.9,0.0,1.0,324.0,867.0,1.0,0,239.0,1
197,197,0.5080189480807776,0.5,0.0,0.0,257.0,583.0,0.0,1,320.0,1
198,198,0.08456436262120925,0.1,0.0,0.0,418.0,867.0,0.0,1,1715.0,1
199,199,0.8188063632121158,0.8,0.0,0.0,381.0,905.0,0.0,1,184.0,1
200,200,0.42523139604562366,0.4,1.0,1.0,392.0,542.0,1.0,1,36.0,1
201,201,-0.040047643586216264,-0.0,0.0,1.0,257.0,807.0,1.0,0,576.0,1
202,202,-0.6471733302725766,-0.6,0.0,1.0,492.0,675.0,1.0,0,173.0,1
203,203,0.8056233349180358,0.8,1.0,1.0,455.0,744.0,1.0,1,181.0,1
204,204,0.8688290038718808,0.9,1.0,1.0,344.0,803.0,1.0,1,63.0,1
205,205,-0.033586318027036266,-0.0,0.0,1.0,338.0,544.0,0.0,1,2118.0,0
206,206,0.7770034435374408,0.8,1.0,1.0,317.0,764.0,1.0,1,179.0,1
207,207,0.4063206676456369,0.4,0.0,0.0,455.0,906.0,0.0,1,419.0,1
208,208,-0.6227426484727133,-0.6,1.0,0.0,450.0,528.0,0.0,0,732.0,1
209,209,-0.6520297068124155,-0.7,0.0,1.0,283.0,802.0,1.0,0,135.0,1
210,210,-0.5692977443398392,-0.6,0.0,1.0,496.0,845.0,1.0,0,169.0,1
211,211,0.16833066831909893,0.2,1.0,1.0,254.0,625.0,1.0,1,71.0,1
212,212,-0.733254325731604,-0.7,0.0,1.0,291.0,697.0,1.0,0,122.0,1
213,213,0.6388327509963198,0.6,0.0,0.0,273.0,580.0,0.0,1,1067.0,1
214,214,0.8980958047847628,0.9,1.0,1.0,478.0,734.0,1.0,1,138.0,1
215,215,0.6953127083470082,0.7,0.0,0.0,413.0,595.0,0.0,1,342.0,1
216,216,0.1618637949139773,0.2,0.0,0.0,346.0,986.0,0.0,1,1668.0,1
217,217,-0.7463933941540105,-0.7,0.0,1.0,326.0,513.0,1.0,0,241.0,1
218,218,-0.8488850975589726,-0.8,1.0,0.0,289.0,797.0,0.0,0,194.0,1
219,219,0.3096688828395121,0.3,0.0,0.0,365.0,674.0,0.0,1,941.0,1
220,220,-0.25856743580012287,-0.3,1.0,0.0,420.0,935.0,1.0,1,-555.0,0
221,221,0.2115791956885441,0.2,0.0,0.0,381.0,828.0,0.0,1,561.0,1
222,222,0.06029847484729478,0.1,1.0,1.0,443.0,998.0,1.0,1,1119.0,1
223,223,0.8668377109517565,0.9,1.0,1.0,434.0,633.0,1.0,1,133.0,1
224,224,-0.2479246603812778,-0.2,0.0,1.0,264.0,679.0,1.0,0,277.0,1
225,225,-0.8527419981518414,-0.9,0.0,1.0,479.0,798.0,1.0,0,-277.0,1
226,226,-0.14870000747341383,-0.1,0.0,1.0,286.0,548.0,1.0,0,686.0,1
227,227,0.17347063715512723,0.2,0.0,0.0,424.0,769.0,0.0,1,1807.0,1
228,228,0.7933584941380144,0.8,1.0,1.0,309.0,533.0,1.0,1,158.0,1
229,229,0.3759582347702014,0.4,0.0,0.0,429.0,583.0,0.0,1,1258.0,1
230,230,-0.6904073519500905,-0.7,1.0,0.0,453.0,550.0,0.0,0,377.0,1
231,231,-0.1494073846552546,-0.1,0.0,1.0,328.0,708.0,1.0,0,1174.0,1
232,232,-0.4275153741822474,-0.4,1.0,0.0,463.0,533.0,0.0,0,584.0,1
233,233,0.30005222319691016,0.3,1.0,1.0,486.0,629.0,1.0,1,715.0,1
234,234,-0.24931957711228026,-0.2,1.0,0.0,255.0,571.0,0.0,0,104.0,1
235,235,0.2848318489656544,0.3,0.0,0.0,379.0,793.0,0.0,1,1268.0,1
236,236,-0.40131823131395644,-0.4,1.0,0.0,279.0,714.0,0.0,0,967.0,1
237,237,0.707436090954166,0.7,1.0,1.0,471.0,566.0,1.0,1,113.0,1
238,238,0.14757208362617014,0.1,0.0,0.0,286.0,881.0,0.0,1,1833.0,1
239,239,-0.10537434341548291,-0.1,0.0,1.0,314.0,932.0,0.0,1,1754.0,0
240,240,0.14321689972973084,0.1,1.0,1.0,383.0,506.0,1.0,1,401.0,1
241,241,-0.2840431166800528,-0.3,1.0,0.0,499.0,594.0,0.0,0,757.0,1
242,242,0.5839840651187101,0.6,0.0,0.0,282.0,731.0,0.0,1,347.0,1
243,243,0.32017042442610355,0.3,1.0,1.0,439.0,613.0,1.0,1,198.0,1
244,244,0.0026291759295049566,0.0,0.0,0.0,341.0,568.0,0.0,1,2091.0,1
245,245,-0.5495705638052564,-0.5,0.0,1.0,343.0,625.0,1.0,0,162.0,1
246,246,-0.893723558475631,-0.9,0.0,1.0,361.0,704.0,1.0,0,135.0,1
247,247,0.2611888630776179,0.3,1.0,1.0,291.0,930.0,1.0,1,259.0,1
248,248,0.5891955279636399,0.6,0.0,0.0,310.0,502.0,0.0,1,748.0,1
249,249,-0.8394196547857586,-0.8,1.0,0.0,302.0,873.0,0.0,0,355.0,1
250,250,-0.5969397209815561,-0.6,0.0,1.0,380.0,622.0,1.0,0,208.0,1
251,251,0.8118394011009186,0.8,1.0,1.0,309.0,562.0,1.0,1,99.0,1
252,252,-0.20910584248389819,-0.2,0.0,1.0,291.0,827.0,1.0,0,572.0,1
253,253,-0.3743295677114793,-0.4,0.0,1.0,443.0,732.0,1.0,0,-5.0,1
254,254,-0.22869903652071066,-0.2,1.0,0.0,457.0,504.0,0.0,0,489.0,1
255,255,-0.2823861292339762,-0.3,1.0,0.0,447.0,859.0,0.0,0,954.0,1
256,256,-0.04962648024991956,-0.0,1.0,0.0,448.0,988.0,1.0,1,184.0,0
257,257,0.7818068091147549,0.8,1.0,1.0,403.0,518.0,1.0,1,179.0,1
258,258,-0.11150020075394274,-0.1,0.0,1.0,482.0,682.0,1.0,0,526.0,1
259,259,-0.708619685741002,-0.7,1.0,0.0,409.0,561.0,0.0,0,260.0,1
260,260,0.7562328605509384,0.8,0.0,0.0,406.0,934.0,0.0,1,160.0,1
261,261,0.3060825319453163,0.3,1.0,1.0,278.0,830.0,1.0,1,122.0,1
262,262,-0.7948907831392381,-0.8,1.0,0.0,256.0,885.0,0.0,0,169.0,1
263,263,0.1284949676120103,0.1,1.0,1.0,449.0,949.0,1.0,1,222.0,1
264,264,-0.19602999068744031,-0.2,0.0,1.0,468.0,925.0,1.0,0,697.0,1
265,265,0.8660201988806177,0.9,0.0,0.0,425.0,736.0,0.0,1,359.0,1
266,266,0.7126785313660816,0.7,1.0,1.0,370.0,856.0,1.0,1,174.0,1
267,267,0.5822662884339082,0.6,1.0,1.0,363.0,773.0,1.0,1,184.0,1
268,268,-0.04676959471659403,-0.0,0.0,1.0,454.0,515.0,1.0,0,1101.0,1
269,269,-0.7503592850942671,-0.8,0.0,1.0,443.0,556.0,1.0,0,141.0,1
270,270,-0.5188577725780863,-0.5,0.0,1.0,377.0,698.0,1.0,0,325.0,1
271,271,-0.5499496932053071,-0.5,1.0,0.0,497.0,724.0,0.0,0,299.0,1
272,272,-0.024946726329013513,-0.0,1.0,0.0,267.0,662.0,1.0,1,1911.0,0
273,273,0.4400679133647655,0.4,1.0,1.0,278.0,558.0,1.0,1,124.0,1
274,274,0.2146831455506063,0.2,1.0,1.0,294.0,772.0,1.0,1,344.0,1
275,275,-0.5485031962259251,-0.5,0.0,1.0,279.0,880.0,1.0,0,431.0,1
276,276,-0.17599758258530407,-0.2,1.0,0.0,259.0,933.0,0.0,0,1748.0,1
277,277,-0.8850367388484879,-0.9,0.0,1.0,298.0,819.0,1.0,0,233.0,1
278,278,-0.07273070112769697,-0.1,1.0,0.0,349.0,947.0,0.0,0,914.0,1
279,279,-0.8098264613451565,-0.8,0.0,1.0,301.0,970.0,1.0,0,109.0,1
280,280,-0.5943349625281021,-0.6,1.0,0.0,436.0,870.0,0.0,0,74.0,1
281,281,-0.6943509123266657,-0.7,1.0,0.0,362.0,788.0,0.0,0,150.0,1
282,282,-0.09898634498136105,-0.1,0.0,1.0,317.0,944.0,0.0,1,1739.0,0
283,283,-0.0201648761291916,-0.0,0.0,1.0,367.0,683.0,0.0,1,1950.0,0
284,284,-0.822883056644968,-0.8,0.0,1.0,345.0,991.0,1.0,0,224.0,1
285,285,0.8172785733706905,0.8,1.0,1.0,252.0,794.0,1.0,1,84.0,1
286,286,-0.21472294059967134,-0.2,0.0,1.0,365.0,665.0,1.0,0,830.0,1
287,287,0.18268592525889937,0.2,1.0,1.0,457.0,563.0,1.0,1,90.0,1
288,288,-0.10087048876132021,-0.1,1.0,0.0,331.0,979.0,1.0,1,-20.0,0
289,289,0.1742974142419983,0.2,0.0,0.0,286.0,553.0,0.0,1,2161.0,1
290,290,0.19702732580162674,0.2,1.0,1.0,465.0,856.0,1.0,1,19.0,1
291,291,0.18635384746443984,0.2,0.0,0.0,445.0,540.0,0.0,1,385.0,1
292,292,-0.41788574670901885,-0.4,1.0,0.0,250.0,831.0,0.0,0,279.0,1
293,293,0.7249154288918679,0.7,0.0,0.0,296.0,646.0,0.0,1,2058.0,1
294,294,0.4629554173862366,0.5,0.0,0.0,345.0,791.0,0.0,1,374.0,1
295,295,-0.5588356004345207,-0.6,1.0,0.0,476.0,515.0,0.0,0,289.0,1
296,296,0.5540863923485514,0.6,1.0,1.0,347.0,901.0,1.0,1,152.0,1
297,297,-0.19052210411030512,-0.2,1.0,0.0,411.0,990.0,0.0,0,619.0,1
298,298,-0.30891327437259586,-0.3,0.0,1.0,393.0,694.0,1.0,0,83.0,1
299,299,-0.5088183390006813,-0.5,0.0,1.0,310.0,751.0,1.0,0,349.0,1
300,300,-0.5365523400783669,-0.5,1.0,0.0,369.0,950.0,0.0,0,341.0,1
301,301,-0.677063276469007,-0.7,0.0,1.0,441.0,852.0,1.0,0,437.0,1
302,302,-0.30007460223631166,-0.3,0.0,1.0,366.0,751.0,1.0,0,303.0,1
303,303,-0.8370528391796814,-0.8,1.0,0.0,441.0,873.0,0.0,0,276.0,1
304,304,0.6338228213567757,0.6,0.0,0.0,423.0,753.0,0.0,1,324.0,1
305,305,-0.6247852363370683,-0.6,0.0,1.0,321.0,616.0,1.0,0,153.0,1
306,306,0.7143853170796169,0.7,0.0,0.0,374.0,948.0,0.0,1,308.0,1
307,307,0.6783672452660615,0.7,1.0,1.0,422.0,647.0,1.0,1,61.0,1
308,308,-0.39826492113846146,-0.4,1.0,0.0,380.0,978.0,0.0,0,732.0,1
309,309,-0.22242678861197485,-0.2,1.0,0.0,415.0,847.0,0.0,0,668.0,1
310,310,0.8072551433156036,0.8,0.0,0.0,424.0,927.0,0.0,1,309.0,1
311,311,0.022614104775206423,0.0,0.0,0.0,302.0,571.0,0.0,1,2127.0,1
312,312,0.6547619734853175,0.7,0.0,0.0,421.0,754.0,0.0,1,385.0,1
313,313,0.2377183777910411,0.2,1.0,1.0,284.0,793.0,1.0,1,153.0,1
314,314,0.18028038450222283,0.2,1.0,1.0,261.0,741.0,1.0,1,458.0,1
315,315,0.879424458026497,0.9,0.0,0.0,349.0,604.0,0.0,1,277.0,1
316,316,-0.21829617649133215,-0.2,0.0,1.0,259.0,778.0,1.0,0,723.0,1
317,317,0.4026154303310686,0.4,1.0,1.0,384.0,689.0,1.0,1,267.0,1
318,318,-0.4999682364167722,-0.5,1.0,0.0,331.0,559.0,0.0,0,560.0,1
319,319,-0.18113397671718312,-0.2,1.0,0.0,332.0,528.0,0.0,0,1340.0,1
320,320,-0.8781833507275923,-0.9,0.0,1.0,444.0,709.0,1.0,0,137.0,1
321,321,0.18544982498945306,0.2,0.0,0.0,313.0,800.0,0.0,1,1787.0,1
322,322,-0.42940842123067796,-0.4,1.0,0.0,479.0,851.0,0.0,0,530.0,1
323,323,-0.5023685734870365,-0.5,1.0,0.0,300.0,944.0,0.0,0,316.0,1
324,324,0.1305588285528444,0.1,0.0,0.0,463.0,681.0,0.0,1,1856.0,1
325,325,-0.8754334231288851,-0.9,0.0,1.0,381.0,650.0,1.0,0,169.0,1
326,326,0.5535543749730726,0.6,1.0,1.0,475.0,938.0,1.0,1,77.0,1
327,327,0.21587655913294623,0.2,0.0,0.0,447.0,913.0,0.0,1,1640.0,1
328,328,-0.35290037162275134,-0.4,0.0,1.0,294.0,885.0,1.0,0,341.0,1
329,329,0.023916039949484103,0.0,0.0,0.0,487.0,578.0,1.0,0,1105.0,0
330,330,-0.43289885741155043,-0.4,1.0,0.0,468.0,879.0,0.0,0,233.0,1
331,331,0.7799834952657408,0.8,0.0,0.0,414.0,810.0,0.0,1,256.0,1
332,332,0.8550579464835159,0.9,1.0,1.0,277.0,924.0,1.0,1,209.0,1
333,333,-0.19823733919428643,-0.2,1.0,0.0,450.0,718.0,0.0,0,862.0,1
334,334,0.07563299359582354,0.1,0.0,0.0,486.0,999.0,1.0,0,1515.0,0
335,335,-0.2705030069570873,-0.3,0.0,1.0,444.0,955.0,1.0,0,561.0,1
336,336,-0.553920333380712,-0.6,1.0,0.0,278.0,649.0,0.0,0,383.0,1
337,337,-0.821890064158696,-0.8,0.0,1.0,417.0,611.0,1.0,0,152.0,1
338,338,0.1309421807522363,0.1,1.0,1.0,489.0,811.0,1.0,1,1000.0,1
339,339,-0.6607900684298798,-0.7,0.0,1.0,416.0,838.0,1.0,0,226.0,1
340,340,-0.5293996290011063,-0.5,1.0,0.0,281.0,701.0,0.0,0,298.0,1
341,341,0.2459532466895885,0.2,0.0,0.0,427.0,977.0,0.0,1,666.0,1
342,342,-0.554099640848674,-0.6,1.0,0.0,468.0,813.0,0.0,0,839.0,1
343,343,0.10947851619850935,0.1,1.0,1.0,481.0,599.0,1.0,1,750.0,1
344,344,0.8807865139321666,0.9,1.0,1.0,271.0,578.0,1.0,1,121.0,1
345,345,0.38273054317142596,0.4,1.0,1.0,392.0,840.0,1.0,1,338.0,1
346,346,-0.0057759356938786865,-0.0,1.0,0.0,422.0,531.0,1.0,1,1687.0,0
347,347,-0.5527916697488435,-0.6,1.0,0.0,317.0,694.0,0.0,0,779.0,1
348,348,0.8639226192860568,0.9,0.0,0.0,379.0,676.0,0.0,1,225.0,1
349,349,-0.616320464034583,-0.6,0.0,1.0,343.0,585.0,1.0,0,332.0,1
350,350,-0.41853094843395944,-0.4,0.0,1.0,308.0,571.0,1.0,0,221.0,1
351,351,-0.3197141488242825,-0.3,1.0,0.0,472.0,533.0,0.0,0,405.0,1
352,352,0.4248237049347966,0.4,1.0,1.0,297.0,963.0,1.0,1,420.0,1
353,353,0.3950074316531139,0.4,1.0,1.0,364.0,669.0,1.0,1,207.0,1
354,354,0.7452047977690553,0.7,0.0,0.0,389.0,983.0,0.0,1,248.0,1
355,355,-0.6594010920651884,-0.7,1.0,0.0,412.0,759.0,1.0,1,-21.0,0
356,356,-0.7728333640500675,-0.8,1.0,0.0,404.0,533.0,0.0,0,283.0,1
357,357,-0.7979735416379692,-0.8,1.0,0.0,429.0,771.0,0.0,0,360.0,1
358,358,0.018080556267509595,0.0,0.0,0.0,376.0,514.0,0.0,1,2110.0,1
359,359,0.8426624351732018,0.8,1.0,1.0,267.0,580.0,1.0,1,123.0,1
360,360,-0.23778307130689558,-0.2,0.0,1.0,400.0,641.0,1.0,0,569.0,1
361,361,0.8897941214749138,0.9,1.0,1.0,252.0,616.0,1.0,1,132.0,1
362,362,-0.46645944501891784,-0.5,0.0,1.0,482.0,643.0,1.0,0,195.0,1
363,363,-0.10097766587747958,-0.1,0.0,1.0,384.0,830.0,1.0,0,546.0,1
364,364,0.3546869667189775,0.4,0.0,0.0,273.0,530.0,0.0,1,217.0,1
365,365,0.12258064659648615,0.1,1.0,1.0,376.0,681.0,1.0,1,103.0,1
366,366,0.022563780427296343,0.0,1.0,1.0,467.0,588.0,1.0,1,1685.0,1
367,367,-0.0851344597287369,-0.1,0.0,1.0,269.0,803.0,1.0,0,1928.0,1
368,368,-0.23794913787297056,-0.2,0.0,1.0,410.0,793.0,1.0,0,427.0,1
369,369,-0.29355712485577556,-0.3,0.0,1.0,437.0,826.0,1.0,0,697.0,1
370,370,0.29513634400419375,0.3,1.0,1.0,409.0,573.0,1.0,1,258.0,1
371,371,0.5719338830984985,0.6,0.0,0.0,357.0,504.0,0.0,1,739.0,1
372,372,-0.21761824430809518,-0.2,0.0,1.0,304.0,898.0,1.0,0,348.0,1
373,373,0.7878134844128132,0.8,0.0,0.0,257.0,632.0,0.0,1,291.0,1
374,374,0.01422234688282531,0.0,0.0,0.0,391.0,781.0,0.0,1,1828.0,1
375,375,-0.7709657487318893,-0.8,1.0,0.0,329.0,991.0,0.0,0,190.0,1
376,376,0.7242985703160295,0.7,1.0,1.0,454.0,507.0,1.0,1,169.0,1
377,377,0.5507604542190127,0.6,0.0,0.0,414.0,981.0,0.0,1,455.0,1
378,378,0.15773573906998262,0.2,0.0,0.0,272.0,914.0,0.0,1,1814.0,1
379,379,-0.5774530534921621,-0.6,0.0,1.0,492.0,841.0,1.0,0,37.0,1
380,380,-0.4991947484344144,-0.5,0.0,1.0,329.0,721.0,1.0,0,270.0,1
381,381,-0.41472396189025357,-0.4,1.0,0.0,251.0,797.0,0.0,0,292.0,1
382,382,-0.16417610336558386,-0.2,0.0,1.0,349.0,811.0,1.0,0,470.0,1
383,383,-0.030685262752200182,-0.0,0.0,1.0,273.0,678.0,1.0,0,2049.0,1
384,384,-0.21199123732402292,-0.2,1.0,0.0,399.0,862.0,0.0,0,209.0,1
385,385,0.7022791426393805,0.7,1.0,1.0,264.0,962.0,1.0,1,164.0,1
386,386,0.8046299825745314,0.8,0.0,0.0,252.0,887.0,0.0,1,211.0,1
387,387,-0.386172041989421,-0.4,0.0,1.0,258.0,605.0,1.0,0,557.0,1
388,388,-0.4327500773364062,-0.4,0.0,1.0,459.0,918.0,1.0,0,373.0,1
389,389,0.6553120082237035,0.7,1.0,1.0,282.0,956.0,1.0,1,92.0,1
390,390,-0.7021590636052875,-0.7,1.0,0.0,363.0,696.0,0.0,0,391.0,1
391,391,0.7341400832285959,0.7,1.0,1.0,290.0,872.0,1.0,1,78.0,1
392,392,0.6412848018378071,0.6,1.0,1.0,489.0,916.0,1.0,1,105.0,1
393,393,-0.16991161361240315,-0.2,0.0,1.0,280.0,549.0,1.0,0,1661.0,1
394,394,-0.5371082377236964,-0.5,0.0,1.0,396.0,867.0,1.0,0,227.0,1
395,395,0.652019319429831,0.7,0.0,0.0,484.0,707.0,0.0,1,619.0,1
396,396,0.054019830861391616,0.1,1.0,1.0,409.0,715.0,1.0,1,426.0,1
397,397,-0.3337814269350705,-0.3,0.0,1.0,288.0,530.0,1.0,0,322.0,1
398,398,0.8584426663897192,0.9,0.0,0.0,412.0,980.0,0.0,1,358.0,1
399,399,-0.8555153362247386,-0.9,1.0,0.0,392.0,791.0,0.0,0,307.0,1
400,400,-0.6830991459638799,-0.7,1.0,0.0,272.0,637.0,0.0,0,331.0,1
401,401,0.8066984946549712,0.8,1.0,1.0,279.0,716.0,1.0,1,125.0,1
402,402,-0.6601149658875446,-0.7,0.0,1.0,271.0,542.0,1.0,0,237.0,1
403,403,-0.49165378201131044,-0.5,1.0,0.0,410.0,627.0,0.0,0,803.0,1
404,404,-0.4293185770142152,-0.4,0.0,1.0,484.0,583.0,1.0,0,443.0,1
405,405,0.18324871845227741,0.2,0.0,0.0,318.0,699.0,0.0,1,1983.0,1
406,406,0.11175640340150206,0.1,0.0,0.0,386.0,798.0,0.0,1,936.0,1
407,407,0.07650405989106168,0.1,0.0,0.0,463.0,514.0,1.0,0,2023.0,0
408,408,-0.6748702872654114,-0.7,0.0,1.0,338.0,547.0,1.0,0,235.0,1
409,409,-0.6188640332071078,-0.6,1.0,0.0,340.0,585.0,0.0,0,305.0,1
410,410,0.8680559482447042,0.9,0.0,0.0,329.0,601.0,0.0,1,250.0,1
411,411,-0.2757564641586495,-0.3,1.0,0.0,263.0,956.0,0.0,0,851.0,1
412,412,0.5968612923863065,0.6,0.0,0.0,432.0,839.0,0.0,1,329.0,1
413,413,-0.8126801321560064,-0.8,1.0,0.0,442.0,989.0,0.0,0,419.0,1
414,414,0.6240630256954384,0.6,1.0,1.0,348.0,840.0,1.0,1,122.0,1
415,415,0.5957808567492021,0.6,0.0,0.0,274.0,837.0,0.0,1,299.0,1
416,416,0.5172710396813621,0.5,1.0,1.0,376.0,930.0,1.0,1,-386.0,1
417,417,0.02894674670617292,0.0,0.0,0.0,478.0,718.0,1.0,0,1804.0,0
418,418,0.23828951211621774,0.2,1.0,1.0,331.0,565.0,1.0,1,244.0,1
419,419,0.04799709925621609,0.0,1.0,1.0,393.0,965.0,1.0,1,702.0,1
420,420,-0.6167689021588303,-0.6,1.0,0.0,418.0,737.0,0.0,0,195.0,1
421,421,0.3010191021605776,0.3,1.0,1.0,398.0,843.0,1.0,1,169.0,1
422,422,0.89649197884245,0.9,0.0,0.0,325.0,594.0,0.0,1,141.0,1
423,423,-0.40163250999068556,-0.4,0.0,1.0,416.0,660.0,1.0,0,214.0,1
424,424,0.6575267062692317,0.7,0.0,0.0,330.0,840.0,0.0,1,640.0,1
425,425,0.7335200024930041,0.7,1.0,1.0,336.0,506.0,1.0,1,68.0,1
426,426,0.3589801843427213,0.4,0.0,0.0,336.0,714.0,0.0,1,440.0,1
427,427,0.32060464478567197,0.3,1.0,1.0,471.0,950.0,1.0,1,-151.0,1
428,428,-0.5925498106244328,-0.6,0.0,1.0,425.0,593.0,1.0,0,152.0,1
429,429,0.2743810614299377,0.3,1.0,1.0,369.0,894.0,1.0,1,447.0,1
430,430,-0.4165560761010048,-0.4,1.0,0.0,389.0,805.0,0.0,0,606.0,1
431,431,0.12092876674615438,0.1,0.0,0.0,304.0,683.0,0.0,1,623.0,1
432,432,-0.11511985769306776,-0.1,0.0,1.0,276.0,538.0,1.0,0,1456.0,1
433,433,0.05264257199496236,0.1,1.0,1.0,493.0,881.0,1.0,1,1626.0,1
434,434,-0.07010548571827746,-0.1,0.0,1.0,430.0,880.0,1.0,0,1690.0,1
435,435,-0.00709346115953946,-0.0,0.0,1.0,263.0,631.0,1.0,0,2106.0,1
436,436,0.8735034851243214,0.9,0.0,0.0,252.0,732.0,0.0,1,546.0,1
437,437,0.056007125003513125,0.1,0.0,0.0,298.0,606.0,1.0,0,2096.0,0
438,438,-0.8418113951641115,-0.8,0.0,1.0,485.0,819.0,1.0,0,96.0,1
439,439,-0.271441669527116,-0.3,1.0,0.0,488.0,553.0,0.0,0,559.0,1
440,440,-0.2856207772440068,-0.3,0.0,1.0,419.0,548.0,1.0,0,453.0,1
441,441,-0.02801581653120333,-0.0,0.0,1.0,272.0,987.0,0.0,1,1741.0,0
442,442,-0.6464202083563353,-0.6,0.0,1.0,355.0,819.0,1.0,0,576.0,1
443,443,-0.20788657581808778,-0.2,0.0,1.0,450.0,956.0,1.0,0,1184.0,1
444,444,0.5632641850021359,0.6,0.0,0.0,483.0,929.0,0.0,1,218.0,1
445,445,-0.21121221423169878,-0.2,1.0,0.0,494.0,879.0,0.0,0,1627.0,1
446,446,-0.30202505783539946,-0.3,0.0,1.0,459.0,611.0,1.0,0,350.0,1
447,447,-0.4394835771616577,-0.4,0.0,1.0,301.0,617.0,1.0,0,172.0,1
448,448,0.6126452164622952,0.6,0.0,0.0,386.0,812.0,0.0,1,262.0,1
449,449,-0.09761195482960072,-0.1,0.0,1.0,494.0,624.0,1.0,0,1882.0,1
450,450,-0.1215951813676791,-0.1,0.0,1.0,296.0,583.0,1.0,0,991.0,1
451,451,0.006957402322674944,0.0,0.0,0.0,466.0,968.0,1.0,0,1566.0,0
452,452,-0.8322142568133758,-0.8,0.0,1.0,261.0,835.0,1.0,0,434.0,1
453,453,-0.24626329786044376,-0.2,1.0,0.0,292.0,809.0,0.0,0,749.0,1
454,454,-0.22689235301318966,-0.2,1.0,0.0,407.0,765.0,0.0,0,1828.0,1
455,455,-0.29627221948126925,-0.3,0.0,1.0,389.0,738.0,1.0,0,1093.0,1
456,456,0.3509241160429929,0.4,1.0,1.0,435.0,772.0,1.0,1,-77.0,1
457,457,0.7646249220443174,0.8,0.0,0.0,289.0,690.0,0.0,1,181.0,1
458,458,0.502916831280067,0.5,0.0,0.0,295.0,630.0,0.0,1,1335.0,1
459,459,0.47573460094929876,0.5,0.0,0.0,454.0,924.0,0.0,1,652.0,1
460,460,-0.2848772022869708,-0.3,0.0,1.0,289.0,789.0,1.0,0,372.0,1
461,461,-0.017360348455066177,-0.0,1.0,0.0,464.0,770.0,1.0,1,776.0,0
462,462,-0.8854630505305087,-0.9,1.0,0.0,443.0,736.0,0.0,0,241.0,1
463,463,-0.4741313498158411,-0.5,0.0,1.0,378.0,883.0,1.0,0,199.0,1
464,464,-0.05140460590674045,-0.1,1.0,0.0,379.0,514.0,1.0,1,1767.0,0
465,465,0.46843795580310943,0.5,0.0,0.0,445.0,925.0,0.0,1,390.0,1
466,466,0.8983068635645347,0.9,1.0,1.0,261.0,948.0,1.0,1,-549.0,1
467,467,0.7653624429867777,0.8,1.0,1.0,454.0,698.0,1.0,1,218.0,1
468,468,-0.8763470999819898,-0.9,0.0,1.0,321.0,625.0,1.0,0,124.0,1
469,469,0.1737797694519857,0.2,1.0,1.0,370.0,655.0,1.0,1,865.0,1
470,470,0.4282336897961426,0.4,0.0,0.0,296.0,745.0,0.0,1,499.0,1
471,471,-0.806149452706212,-0.8,1.0,0.0,349.0,699.0,0.0,0,312.0,1
472,472,0.09475757254396533,0.1,0.0,0.0,344.0,961.0,0.0,1,1695.0,1
473,473,-0.8898575195827869,-0.9,0.0,1.0,458.0,750.0,1.0,0,142.0,1
474,474,0.45374702504978603,0.5,0.0,0.0,445.0,951.0,0.0,1,1344.0,1
475,475,0.8684612463371054,0.9,1.0,1.0,257.0,512.0,1.0,1,51.0,1
476,476,-0.3479564199946208,-0.3,1.0,0.0,289.0,713.0,1.0,1,-92.0,0
477,477,-0.04352671854981338,-0.0,1.0,0.0,451.0,844.0,1.0,1,1705.0,0
478,478,-0.0950507243100609,-0.1,0.0,1.0,394.0,560.0,1.0,0,866.0,1
479,479,-0.6332385502346513,-0.6,0.0,1.0,285.0,730.0,1.0,0,235.0,1
480,480,-0.7125883218927797,-0.7,0.0,1.0,418.0,901.0,1.0,0,181.0,1
481,481,0.6369684996481407,0.6,1.0,1.0,367.0,597.0,1.0,1,176.0,1
482,482,-0.29727804349314735,-0.3,1.0,0.0,325.0,868.0,0.0,0,337.0,1
483,483,-0.7724414965955634,-0.8,0.0,1.0,374.0,709.0,1.0,0,227.0,1
484,484,-0.029121878421875746,-0.0,0.0,1.0,340.0,628.0,1.0,0,1922.0,1
485,485,-0.3011293115846716,-0.3,1.0,0.0,273.0,763.0,0.0,0,184.0,1
486,486,0.16300383017779885,0.2,0.0,0.0,292.0,653.0,0.0,1,605.0,1
487,487,-0.6365541696754471,-0.6,1.0,0.0,375.0,843.0,0.0,0,342.0,1
488,488,-0.37979024964445574,-0.4,0.0,1.0,391.0,994.0,1.0,0,265.0,1
489,489,0.7487349548780996,0.7,1.0,1.0,415.0,660.0,1.0,1,75.0,1
490,490,-0.5460170832354294,-0.5,0.0,1.0,421.0,753.0,1.0,0,116.0,1
491,491,-0.8813207972391213,-0.9,1.0,0.0,489.0,756.0,0.0,0,275.0,1
492,492,-0.3522605319419656,-0.4,1.0,0.0,332.0,946.0,0.0,0,372.0,1
493,493,-0.7637452753030753,-0.8,0.0,1.0,495.0,976.0,1.0,0,249.0,1
494,494,0.18312176363705934,0.2,0.0,0.0,277.0,655.0,0.0,1,1098.0,1
495,495,0.7898997563322877,0.8,0.0,0.0,315.0,657.0,0.0,1,208.0,1
496,496,0.13499506716107945,0.1,0.0,0.0,386.0,635.0,0.0,1,1979.0,1
497,497,0.3735291508051034,0.4,1.0,1.0,444.0,755.0,1.0,1,-89.0,1
498,498,0.018182931590117635,0.0,0.0,0.0,439.0,652.0,0.0,1,1909.0,1
499,499,-0.29180309071341093,-0.3,1.0,0.0,352.0,659.0,0.0,0,1739.0,1
500,500,0.6670665163456978,0.7,1.0,1.0,371.0,601.0,1.0,1,238.0,1
501,501,-0.13635777585772013,-0.1,1.0,0.0,455.0,718.0,1.0,1,1417.0,0
502,502,-0.6810210340082469,-0.7,1.0,0.0,268.0,930.0,1.0,1,-58.0,0
503,503,-0.036369010627521736,-0.0,1.0,0.0,354.0,717.0,1.0,1,1929.0,0
504,504,-0.7736974369857019,-0.8,0.0,1.0,438.0,923.0,1.0,0,339.0,1
505,505,0.8326464540744772,0.8,1.0,1.0,250.0,831.0,1.0,1,259.0,1
506,506,0.16879555671356006,0.2,1.0,1.0,454.0,916.0,1.0,1,20.0,1
507,507,0.1349050898415608,0.1,1.0,1.0,420.0,548.0,1.0,1,112.0,1
508,508,0.42984583490562944,0.4,1.0,1.0,381.0,874.0,1.0,1,255.0,1
509,509,-0.5589309501767206,-0.6,0.0,1.0,366.0,954.0,1.0,0,300.0,1
510,510,0.7665156733778352,0.8,1.0,1.0,380.0,833.0,1.0,1,227.0,1
511,511,-0.6616589937205906,-0.7,1.0,0.0,369.0,858.0,0.0,0,323.0,1
512,512,-0.7578500043053995,-0.8,0.0,1.0,499.0,678.0,1.0,0,383.0,1
513,513,0.5041423297267887,0.5,0.0,0.0,411.0,755.0,1.0,0,-246.0,0
514,514,0.13667187355259525,0.1,0.0,0.0,297.0,750.0,0.0,1,1083.0,1
515,515,-0.5747720206512033,-0.6,0.0,1.0,442.0,707.0,1.0,0,321.0,1
516,516,0.04290146566160058,0.0,0.0,0.0,362.0,819.0,1.0,0,1819.0,0
517,517,0.4344011894234011,0.4,1.0,1.0,386.0,820.0,1.0,1,284.0,1
518,518,-0.6052088286379177,-0.6,1.0,0.0,409.0,720.0,0.0,0,211.0,1
519,519,-0.7781177958944071,-0.8,1.0,0.0,352.0,547.0,0.0,0,301.0,1
520,520,-0.41104943240821884,-0.4,0.0,1.0,391.0,714.0,1.0,0,285.0,1
521,521,0.18973512805566928,0.2,0.0,0.0,391.0,797.0,0.0,1,862.0,1
522,522,0.7448110659403454,0.7,0.0,0.0,389.0,599.0,0.0,1,112.0,1
523,523,0.7706550936055919,0.8,0.0,0.0,344.0,696.0,0.0,1,170.0,1
524,524,0.6544299697688672,0.7,1.0,1.0,375.0,778.0,1.0,1,197.0,1
525,525,0.0004781986428946672,0.0,1.0,1.0,286.0,627.0,1.0,1,457.0,1
526,526,0.06702786309767661,0.1,0.0,0.0,350.0,847.0,0.0,1,1803.0,1
527,527,-0.5805713387197955,-0.6,1.0,0.0,368.0,544.0,0.0,0,778.0,1
528,528,-0.6895215901950394,-0.7,0.0,1.0,401.0,684.0,1.0,0,205.0,1
529,529,0.3667858402385892,0.4,1.0,1.0,412.0,975.0,1.0,1,173.0,1
530,530,-0.6386352841185868,-0.6,0.0,1.0,419.0,565.0,1.0,0,246.0,1
531,531,-0.21813335863615357,-0.2,1.0,0.0,277.0,613.0,0.0,0,2110.0,1
532,532,-0.41241580663967586,-0.4,1.0,0.0,444.0,877.0,0.0,0,439.0,1
533,533,0.622985088027889,0.6,0.0,0.0,368.0,628.0,0.0,1,344.0,1
534,534,-0.7799035333978664,-0.8,0.0,1.0,414.0,518.0,1.0,0,228.0,1
535,535,0.12311933372468331,0.1,1.0,1.0,318.0,831.0,1.0,1,431.0,1
536,536,-0.2088018612223994,-0.2,1.0,0.0,364.0,651.0,0.0,0,1985.0,1
537,537,0.6513915028541274,0.7,0.0,0.0,314.0,515.0,0.0,1,521.0,1
538,538,0.8316566221203777,0.8,1.0,1.0,340.0,568.0,1.0,1,212.0,1
539,539,-0.018138019468854072,-0.0,1.0,0.0,254.0,594.0,1.0,1,502.0,0
540,540,-0.28971974969181535,-0.3,0.0,1.0,387.0,641.0,1.0,0,672.0,1
541,541,0.6305792429363585,0.6,1.0,1.0,359.0,654.0,1.0,1,157.0,1
542,542,0.35935856489444007,0.4,1.0,1.0,378.0,998.0,1.0,1,254.0,1
543,543,-0.09014100638048372,-0.1,1.0,0.0,421.0,731.0,1.0,1,1848.0,0
544,544,0.13395995280003958,0.1,1.0,1.0,419.0,656.0,1.0,1,325.0,1
545,545,0.16842275725608158,0.2,1.0,1.0,435.0,623.0,1.0,1,512.0,1
546,546,0.5698403652033698,0.6,0.0,0.0,260.0,594.0,0.0,1,206.0,1
547,547,0.600847114102896,0.6,1.0,1.0,447.0,567.0,1.0,1,356.0,1
548,548,-0.369095299146181,-0.4,1.0,0.0,252.0,630.0,0.0,0,1188.0,1
549,549,-0.8954063788754912,-0.9,0.0,1.0,385.0,722.0,1.0,0,43.0,1
550,550,-0.26167667122191407,-0.3,0.0,1.0,461.0,504.0,1.0,0,555.0,1
551,551,-0.5855426644594635,-0.6,0.0,1.0,331.0,521.0,1.0,0,228.0,1
552,552,0.017734213073408167,0.0,0.0,0.0,308.0,517.0,1.0,0,2175.0,0
553,553,0.7653998498236488,0.8,1.0,1.0,394.0,560.0,1.0,1,106.0,1
554,554,-0.795831994548695,-0.8,0.0,1.0,291.0,601.0,1.0,0,248.0,1
555,555,-0.04368863636600495,-0.0,0.0,1.0,339.0,624.0,1.0,0,2037.0,1
556,556,0.12009631619693939,0.1,1.0,1.0,485.0,722.0,1.0,1,363.0,1
557,557,0.4335979282718069,0.4,1.0,1.0,359.0,853.0,1.0,1,68.0,1
558,558,-0.16372060476122996,-0.2,1.0,0.0,479.0,988.0,0.0,0,1533.0,1
559,559,0.6262023299740397,0.6,1.0,1.0,475.0,754.0,1.0,1,181.0,1
560,560,0.04474781666217631,0.0,1.0,1.0,349.0,575.0,1.0,1,-104.0,1
561,561,0.7720760400750902,0.8,1.0,1.0,298.0,924.0,1.0,1,88.0,1
562,562,-0.3592077672659295,-0.4,0.0,1.0,448.0,935.0,1.0,0,617.0,1
563,563,-0.1181395248972047,-0.1,1.0,0.0,392.0,783.0,0.0,0,1145.0,1
564,564,-0.10413056469974713,-0.1,1.0,0.0,287.0,811.0,0.0,0,1902.0,1
565,565,0.04745804834027356,0.0,0.0,0.0,451.0,756.0,1.0,0,1793.0,0
566,566,-0.3916809861407893,-0.4,0.0,1.0,434.0,689.0,1.0,0,237.0,1
567,567,-0.531756048878554,-0.5,0.0,1.0,466.0,890.0,1.0,0,34.0,1
568,568,0.11615865989852991,0.1,1.0,1.0,392.0,628.0,1.0,1,550.0,1
569,569,-0.7757283440806226,-0.8,0.0,1.0,387.0,856.0,1.0,0,157.0,1
570,570,-0.6935358800688144,-0.7,1.0,0.0,263.0,901.0,0.0,0,256.0,1
571,571,0.36540548878636814,0.4,1.0,1.0,348.0,849.0,1.0,1,-87.0,1
572,572,0.7993608994173972,0.8,0.0,0.0,264.0,764.0,0.0,1,282.0,1
573,573,0.8241100651840346,0.8,1.0,1.0,494.0,951.0,1.0,1,-205.0,1
574,574,0.6978331057170907,0.7,0.0,0.0,499.0,717.0,0.0,1,224.0,1
575,575,0.4758094820494415,0.5,1.0,1.0,318.0,769.0,1.0,1,233.0,1
576,576,0.6445957318116321,0.6,1.0,1.0,332.0,588.0,1.0,1,210.0,1
577,577,0.7805626822632604,0.8,0.0,0.0,263.0,781.0,0.0,1,166.0,1
578,578,0.5220039923156926,0.5,0.0,0.0,383.0,940.0,0.0,1,297.0,1
579,579,0.5199553238109832,0.5,1.0,1.0,448.0,951.0,1.0,1,181.0,1
580,580,0.6889400643873455,0.7,1.0,1.0,395.0,796.0,1.0,1,159.0,1
581,581,-0.5971202302959602,-0.6,1.0,0.0,325.0,640.0,0.0,0,635.0,1
582,582,0.4386228498824848,0.4,1.0,1.0,493.0,707.0,1.0,1,140.0,1
583,583,0.2331076483642579,0.2,1.0,1.0,324.0,630.0,1.0,1,396.0,1
584,584,0.06992817961835562,0.1,0.0,0.0,261.0,977.0,0.0,1,102.0,1
585,585,0.21489109513255367,0.2,1.0,1.0,376.0,992.0,1.0,1,402.0,1
586,586,-0.45353952763780225,-0.5,1.0,0.0,372.0,877.0,0.0,0,531.0,1
587,587,0.3983024536933023,0.4,0.0,0.0,440.0,615.0,0.0,1,585.0,1
588,588,0.10266312697400493,0.1,0.0,0.0,400.0,800.0,0.0,1,1800.0,1
589,589,0.12801417227603695,0.1,1.0,1.0,263.0,943.0,1.0,1,584.0,1
590,590,-0.6836643199470225,-0.7,1.0,0.0,367.0,690.0,0.0,0,153.0,1
591,591,0.23097250213898335,0.2,1.0,1.0,317.0,917.0,1.0,1,216.0,1
592,592,-0.10753539929202593,-0.1,1.0,0.0,354.0,662.0,1.0,1,1334.0,0
593,593,0.16688812461624314,0.2,0.0,0.0,491.0,966.0,0.0,1,613.0,1
594,594,-0.8671609192789037,-0.9,1.0,0.0,256.0,735.0,0.0,0,379.0,1
595,595,0.04292657921717946,0.0,0.0,0.0,304.0,853.0,0.0,1,1843.0,1
596,596,-0.2294494565527837,-0.2,1.0,0.0,457.0,764.0,0.0,0,719.0,1
597,597,0.5796249616712951,0.6,1.0,1.0,363.0,718.0,1.0,1,89.0,1
598,598,-0.38726201207835353,-0.4,0.0,1.0,352.0,681.0,1.0,0,367.0,1
599,599,-0.219667028785966,-0.2,0.0,1.0,428.0,877.0,1.0,0,1035.0,1
600,600,0.30097360611256396,0.3,0.0,0.0,359.0,633.0,0.0,1,1018.0,1
601,601,0.7846604958053399,0.8,0.0,0.0,375.0,631.0,0.0,1,354.0,1
602,602,0.6063153925711334,0.6,1.0,1.0,315.0,956.0,1.0,1,-221.0,1
603,603,-0.8817701761460373,-0.9,1.0,0.0,468.0,957.0,0.0,0,375.0,1
604,604,0.4385924776851319,0.4,0.0,0.0,340.0,905.0,0.0,1,765.0,1
605,605,0.6538527760562619,0.7,1.0,1.0,408.0,929.0,1.0,1,-237.0,1
606,606,-0.0916581070345498,-0.1,0.0,1.0,444.0,915.0,1.0,0,1541.0,1
607,607,0.16188051521928315,0.2,0.0,0.0,435.0,546.0,0.0,1,339.0,1
608,608,-0.7706744412975256,-0.8,1.0,0.0,255.0,664.0,0.0,0,311.0,1
609,609,-0.21841811393187915,-0.2,0.0,1.0,467.0,950.0,1.0,0,223.0,1
610,610,0.5993076791003503,0.6,1.0,1.0,250.0,502.0,1.0,1,198.0,1
611,611,0.0006168736414318143,0.0,1.0,1.0,373.0,602.0,1.0,1,1015.0,1
612,612,-0.06794327379223875,-0.1,0.0,1.0,479.0,756.0,1.0,0,-35.0,1
613,613,0.7723287560148225,0.8,1.0,1.0,289.0,907.0,1.0,1,-196.0,1
614,614,0.7400393956114019,0.7,1.0,1.0,320.0,749.0,1.0,1,171.0,1
615,615,-0.7586399648136357,-0.8,0.0,1.0,334.0,710.0,1.0,0,126.0,1
616,616,0.7852758038667599,0.8,1.0,1.0,267.0,532.0,1.0,1,311.0,1
617,617,-0.0446751784008228,-0.0,1.0,0.0,475.0,552.0,1.0,1,1653.0,0
618,618,0.4386318217520294,0.4,0.0,0.0,297.0,884.0,0.0,1,449.0,1
619,619,-0.5510873902211468,-0.6,1.0,0.0,425.0,657.0,0.0,0,498.0,1
620,620,0.46305551683249113,0.5,1.0,1.0,340.0,897.0,1.0,1,223.0,1
621,621,0.1363336656225832,0.1,0.0,0.0,450.0,611.0,0.0,1,1939.0,1
622,622,-0.3964747660670517,-0.4,0.0,1.0,398.0,674.0,1.0,0,288.0,1
623,623,0.022861588563086954,0.0,1.0,1.0,334.0,749.0,1.0,1,667.0,1
624,624,-0.18607218138266068,-0.2,1.0,0.0,437.0,553.0,0.0,0,620.0,1
625,625,0.8110747949696092,0.8,1.0,1.0,258.0,979.0,1.0,1,63.0,1
626,626,-0.06610016023923604,-0.1,1.0,0.0,285.0,815.0,0.0,0,1900.0,1
627,627,-0.34060494804424446,-0.3,0.0,1.0,339.0,871.0,1.0,0,510.0,1
628,628,-0.5064990935982644,-0.5,1.0,0.0,441.0,952.0,0.0,0,417.0,1
629,629,0.2322399649800594,0.2,0.0,0.0,295.0,702.0,0.0,1,963.0,1
630,630,-0.7946844361932048,-0.8,1.0,0.0,423.0,737.0,0.0,0,260.0,1
631,631,0.4635915945826209,0.5,1.0,1.0,442.0,968.0,1.0,1,70.0,1
632,632,0.7377860569524582,0.7,0.0,0.0,266.0,503.0,0.0,1,1191.0,1
633,633,-0.687731323128806,-0.7,1.0,0.0,464.0,555.0,0.0,0,351.0,1
634,634,0.25810946474591423,0.3,0.0,0.0,446.0,716.0,0.0,1,968.0,1
635,635,0.24212224906434676,0.2,1.0,1.0,300.0,811.0,1.0,1,239.0,1
636,636,0.24616694111643034,0.2,1.0,1.0,453.0,900.0,1.0,1,187.0,1
637,637,-0.04163937968859577,-0.0,0.0,1.0,305.0,981.0,1.0,0,1714.0,1
638,638,-0.768279475805713,-0.8,0.0,1.0,355.0,606.0,1.0,0,99.0,1
639,639,0.669681423170622,0.7,1.0,1.0,250.0,710.0,1.0,1,50.0,1
640,640,-0.2541591222483548,-0.3,0.0,1.0,423.0,948.0,1.0,0,119.0,1
641,641,-0.31688388770762443,-0.3,1.0,0.0,339.0,708.0,0.0,0,253.0,1
642,642,-0.5829236427489037,-0.6,0.0,1.0,344.0,691.0,1.0,0,225.0,1
643,643,-0.1445102500655745,-0.1,0.0,1.0,388.0,761.0,1.0,0,811.0,1
644,644,-0.09040979325306542,-0.1,1.0,0.0,479.0,603.0,0.0,0,808.0,1
645,645,0.13767825469616113,0.1,1.0,1.0,357.0,829.0,1.0,1,264.0,1
646,646,-0.8115814361220102,-0.8,1.0,0.0,311.0,733.0,0.0,0,196.0,1
647,647,0.032345831328754904,0.0,1.0,1.0,489.0,554.0,1.0,1,447.0,1
648,648,0.6185334791095219,0.6,1.0,1.0,486.0,861.0,1.0,1,333.0,1
649,649,0.3965139537363015,0.4,1.0,1.0,297.0,816.0,1.0,1,457.0,1
650,650,-0.2591793929688082,-0.3,0.0,1.0,310.0,839.0,1.0,0,591.0,1
651,651,-0.05055915591987725,-0.1,1.0,0.0,479.0,611.0,1.0,1,1910.0,0
652,652,-0.5303924233373267,-0.5,1.0,0.0,411.0,850.0,0.0,0,329.0,1
653,653,-0.3398135855796114,-0.3,1.0,0.0,269.0,628.0,0.0,0,543.0,1
654,654,0.22135110793434676,0.2,0.0,0.0,479.0,848.0,0.0,1,1123.0,1
655,655,-0.44121324120261807,-0.4,0.0,1.0,470.0,872.0,1.0,0,278.0,1
656,656,-0.4918087256371175,-0.5,1.0,0.0,454.0,820.0,0.0,0,246.0,1
657,657,-0.6333170512486561,-0.6,1.0,0.0,436.0,741.0,0.0,0,243.0,1
658,658,-0.12670253060568848,-0.1,0.0,1.0,264.0,666.0,1.0,0,2070.0,1
659,659,0.7790958275209899,0.8,1.0,1.0,492.0,559.0,1.0,1,139.0,1
660,660,-0.20996298241777356,-0.2,0.0,1.0,328.0,672.0,1.0,0,500.0,1
661,661,-0.6570484287982402,-0.7,1.0,0.0,409.0,717.0,0.0,0,354.0,1
662,662,-0.42183707536757453,-0.4,1.0,0.0,463.0,722.0,0.0,0,345.0,1
663,663,0.7723417666595412,0.8,1.0,1.0,415.0,817.0,1.0,1,108.0,1
664,664,-0.5935327758855081,-0.6,1.0,0.0,290.0,693.0,0.0,0,647.0,1
665,665,-0.43656730673126615,-0.4,0.0,1.0,392.0,543.0,1.0,0,425.0,1
666,666,-0.89223405359244,-0.9,0.0,1.0,493.0,662.0,1.0,0,385.0,1
667,667,-0.26775293226726604,-0.3,0.0,1.0,408.0,963.0,1.0,0,479.0,1
668,668,0.6496009198932368,0.6,1.0,1.0,392.0,579.0,1.0,1,69.0,1
669,669,-0.000583257090016498,-0.0,0.0,1.0,498.0,659.0,0.0,1,1843.0,0
670,670,-0.267457200884773,-0.3,1.0,0.0,296.0,545.0,0.0,0,2159.0,1
671,671,-0.7759384018443468,-0.8,0.0,1.0,382.0,701.0,1.0,0,227.0,1
672,672,0.03112097137125991,0.0,0.0,0.0,474.0,577.0,0.0,1,1949.0,1
673,673,0.8794528289202262,0.9,1.0,1.0,336.0,574.0,1.0,1,90.0,1
674,674,-0.3794373846749365,-0.4,0.0,1.0,429.0,871.0,1.0,0,170.0,1
675,675,-0.6066831908091843,-0.6,0.0,1.0,488.0,887.0,1.0,0,315.0,1
676,676,0.12565960633753537,0.1,0.0,0.0,291.0,570.0,0.0,1,2139.0,1
677,677,-0.7007472309363878,-0.7,0.0,1.0,372.0,810.0,1.0,0,118.0,1
678,678,-0.7190012807194963,-0.7,0.0,1.0,316.0,837.0,1.0,0,287.0,1
679,679,0.26098449557429604,0.3,0.0,0.0,465.0,688.0,0.0,1,1477.0,1
680,680,0.4644884407744,0.5,1.0,1.0,498.0,745.0,1.0,1,77.0,1
681,681,0.43368696041177157,0.4,0.0,0.0,338.0,961.0,0.0,1,211.0,1
682,682,0.6556897052961478,0.7,1.0,1.0,339.0,757.0,1.0,1,104.0,1
683,683,0.4766162041040761,0.5,1.0,1.0,287.0,654.0,1.0,1,279.0,1
684,684,0.04201362162590161,0.0,0.0,0.0,379.0,910.0,0.0,1,1711.0,1
685,685,0.6075350070044719,0.6,0.0,0.0,473.0,733.0,0.0,1,334.0,1
686,686,-0.8036756883115498,-0.8,0.0,1.0,349.0,616.0,1.0,0,145.0,1
687,687,0.6137229926078919,0.6,1.0,1.0,270.0,830.0,1.0,1,200.0,1
688,688,-0.6899962207583821,-0.7,1.0,0.0,381.0,852.0,0.0,0,177.0,1
689,689,0.7857477975572716,0.8,1.0,1.0,470.0,572.0,1.0,1,58.0,1
690,690,-0.5948062043440878,-0.6,1.0,0.0,436.0,969.0,1.0,1,5.0,0
691,691,0.10922906389368825,0.1,0.0,0.0,342.0,510.0,0.0,1,2148.0,1
692,692,-0.6071103994771787,-0.6,1.0,0.0,464.0,846.0,0.0,0,300.0,1
693,693,-0.7130434854086245,-0.7,1.0,0.0,474.0,994.0,1.0,1,-8.0,0
694,694,0.4471083910909782,0.4,1.0,1.0,328.0,522.0,1.0,1,220.0,1
695,695,0.46398652351740666,0.5,1.0,1.0,471.0,881.0,1.0,1,68.0,1
696,696,0.41115714446146845,0.4,1.0,1.0,495.0,778.0,1.0,1,127.0,1
697,697,0.787548083787455,0.8,0.0,0.0,407.0,586.0,0.0,1,737.0,1
698,698,-0.7648533004054103,-0.8,1.0,0.0,354.0,974.0,0.0,0,252.0,1
699,699,-0.7370568541175851,-0.7,0.0,1.0,382.0,828.0,1.0,0,170.0,1
700,700,-0.25422678638598817,-0.3,0.0,1.0,444.0,995.0,1.0,0,521.0,1
701,701,0.3060753147211298,0.3,0.0,0.0,408.0,740.0,0.0,1,1632.0,1
702,702,-0.7090708126390445,-0.7,1.0,0.0,340.0,926.0,0.0,0,284.0,1
703,703,-0.15417499267689916,-0.2,0.0,1.0,252.0,627.0,1.0,0,1411.0,1
704,704,-0.49939484866733047,-0.5,0.0,1.0,434.0,545.0,1.0,0,601.0,1
705,705,0.22065543338213478,0.2,0.0,0.0,418.0,579.0,0.0,1,1033.0,1
706,706,-0.07370960901723411,-0.1,0.0,1.0,407.0,715.0,1.0,0,1878.0,1
707,707,-0.7739539122470043,-0.8,1.0,0.0,342.0,676.0,0.0,0,612.0,1
708,708,0.7224555343371707,0.7,1.0,1.0,447.0,904.0,1.0,1,89.0,1
709,709,-0.5500000677471713,-0.6,0.0,1.0,445.0,816.0,1.0,0,99.0,1
710,710,-0.3484222760722605,-0.3,1.0,0.0,453.0,953.0,0.0,0,634.0,1
711,711,-0.5995426768699172,-0.6,1.0,0.0,298.0,833.0,0.0,0,779.0,1
712,712,0.3326141288569632,0.3,0.0,0.0,286.0,769.0,0.0,1,475.0,1
713,713,-0.44987074606737365,-0.4,1.0,0.0,439.0,701.0,0.0,0,290.0,1
714,714,-0.8380955363395212,-0.8,1.0,0.0,426.0,947.0,0.0,0,297.0,1
715,715,-0.39894378230910177,-0.4,1.0,0.0,354.0,897.0,0.0,0,939.0,1
716,716,-0.0858393378619634,-0.1,0.0,1.0,300.0,641.0,1.0,0,1829.0,1
717,717,-0.7540301461020117,-0.8,1.0,0.0,385.0,929.0,0.0,0,176.0,1
718,718,-0.8166647802310718,-0.8,1.0,0.0,327.0,912.0,0.0,0,501.0,1
719,719,-0.4184427808798211,-0.4,0.0,1.0,434.0,539.0,1.0,0,427.0,1
720,720,0.38402471707100927,0.4,0.0,0.0,370.0,814.0,0.0,1,656.0,1
721,721,-0.4066129108550088,-0.4,0.0,1.0,301.0,552.0,1.0,0,527.0,1
722,722,0.6482889335812941,0.6,0.0,0.0,313.0,519.0,0.0,1,1118.0,1
723,723,0.8599557440663662,0.9,1.0,1.0,254.0,552.0,1.0,1,94.0,1
724,724,-0.349796475935762,-0.3,0.0,1.0,287.0,716.0,1.0,0,387.0,1
725,725,0.7021079669065747,0.7,1.0,1.0,385.0,925.0,1.0,1,130.0,1
726,726,-0.7094000698558253,-0.7,0.0,1.0,488.0,504.0,1.0,0,148.0,1
727,727,0.12245299758548145,0.1,0.0,0.0,250.0,895.0,0.0,1,835.0,1
728,728,0.6762763566507485,0.7,1.0,1.0,313.0,995.0,1.0,1,162.0,1
729,729,0.6509741855532446,0.7,0.0,0.0,397.0,819.0,0.0,1,264.0,1
730,730,0.6136822688614191,0.6,0.0,0.0,339.0,613.0,0.0,1,428.0,1
731,731,0.13576948115369014,0.1,1.0,1.0,497.0,522.0,1.0,1,101.0,1
732,732,0.3205998555486894,0.3,0.0,0.0,425.0,800.0,0.0,1,615.0,1
733,733,-0.3823933252594035,-0.4,0.0,1.0,381.0,757.0,1.0,0,172.0,1
734,734,-0.27586810229725534,-0.3,1.0,0.0,285.0,597.0,0.0,0,548.0,1
735,735,0.8456489677034608,0.8,1.0,1.0,350.0,694.0,1.0,1,126.0,1
736,736,-0.35631849373657565,-0.4,1.0,0.0,413.0,833.0,0.0,0,314.0,1
737,737,0.7207153603524555,0.7,1.0,1.0,473.0,688.0,1.0,1,139.0,1
738,738,0.566569326462309,0.6,1.0,1.0,332.0,944.0,1.0,1,24.0,1
739,739,0.2199531432221017,0.2,0.0,0.0,301.0,899.0,0.0,1,1170.0,1
740,740,0.02253491834621346,0.0,0.0,0.0,480.0,850.0,0.0,1,1670.0,1
741,741,0.18545480037944617,0.2,1.0,1.0,283.0,945.0,1.0,1,202.0,1
742,742,-0.323063626077308,-0.3,0.0,1.0,474.0,808.0,1.0,0,408.0,1
743,743,-0.4926118235481235,-0.5,0.0,1.0,337.0,904.0,1.0,0,249.0,1
744,744,0.5323060011047681,0.5,0.0,0.0,328.0,959.0,0.0,1,683.0,1
745,745,-0.17954450707266578,-0.2,1.0,0.0,484.0,553.0,0.0,0,553.0,1
746,746,0.06665522997477369,0.1,1.0,1.0,481.0,906.0,1.0,1,323.0,1
747,747,-0.23881313555037464,-0.2,1.0,0.0,429.0,981.0,1.0,1,-290.0,0
748,748,-0.1366527928041299,-0.1,0.0,1.0,353.0,623.0,1.0,0,1424.0,1
749,749,-0.42490402264438426,-0.4,0.0,1.0,315.0,983.0,1.0,0,322.0,1
750,750,0.23477790429684797,0.2,0.0,0.0,496.0,829.0,0.0,1,265.0,1
751,751,0.6346413546470989,0.6,1.0,1.0,394.0,758.0,1.0,1,38.0,1
752,752,-0.47701896269514676,-0.5,1.0,0.0,365.0,613.0,0.0,0,912.0,1
753,753,-0.28550145776555136,-0.3,0.0,1.0,295.0,979.0,1.0,0,-284.0,1
754,754,0.8680592854659482,0.9,0.0,0.0,258.0,636.0,0.0,1,316.0,1
755,755,0.07289998577637169,0.1,1.0,1.0,451.0,971.0,1.0,1,488.0,1
756,756,0.14982286954175017,0.1,1.0,1.0,371.0,984.0,1.0,1,285.0,1
757,757,0.09000262619256949,0.1,0.0,0.0,264.0,743.0,1.0,0,1993.0,0
758,758,-0.1843329287598212,-0.2,1.0,0.0,475.0,999.0,0.0,0,1186.0,1
759,759,0.16994352246680589,0.2,1.0,1.0,442.0,736.0,1.0,1,422.0,1
760,760,-0.26905129736646405,-0.3,0.0,1.0,274.0,685.0,1.0,0,591.0,1
761,761,0.10486240156655768,0.1,1.0,1.0,445.0,794.0,1.0,1,311.0,1
762,762,-0.6428675138106839,-0.6,0.0,1.0,293.0,879.0,1.0,0,258.0,1
763,763,-0.5160394159773827,-0.5,1.0,0.0,437.0,890.0,0.0,0,393.0,1
764,764,-0.422583378550291,-0.4,0.0,1.0,317.0,527.0,1.0,0,216.0,1
765,765,0.5683835769204143,0.6,1.0,1.0,290.0,511.0,1.0,1,89.0,1
766,766,0.43977344667497686,0.4,0.0,0.0,420.0,596.0,0.0,1,1114.0,1
767,767,-0.6926125730691503,-0.7,1.0,0.0,398.0,718.0,1.0,1,-316.0,0
768,768,0.3361675129867364,0.3,0.0,0.0,373.0,990.0,0.0,1,457.0,1
769,769,0.5185754909469532,0.5,0.0,0.0,294.0,794.0,0.0,1,222.0,1
770,770,0.43690290455700975,0.4,1.0,1.0,339.0,569.0,1.0,1,262.0,1
771,771,0.791367530328024,0.8,1.0,1.0,333.0,598.0,1.0,1,169.0,1
772,772,0.7078785235573931,0.7,0.0,0.0,281.0,826.0,0.0,1,203.0,1
773,773,0.8537595337993394,0.9,0.0,0.0,441.0,811.0,0.0,1,338.0,1
774,774,-0.5766102852509671,-0.6,1.0,0.0,388.0,899.0,0.0,0,983.0,1
775,775,-0.5856669909994086,-0.6,0.0,1.0,485.0,654.0,1.0,0,311.0,1
776,776,0.8623078125352107,0.9,0.0,0.0,334.0,882.0,0.0,1,224.0,1
777,777,0.22934111110262767,0.2,0.0,0.0,332.0,813.0,0.0,1,785.0,1
778,778,0.024106340755323252,0.0,0.0,0.0,491.0,790.0,0.0,1,1719.0,1
779,779,-0.5148500414229344,-0.5,1.0,0.0,454.0,671.0,0.0,0,395.0,1
780,780,0.8639630961278254,0.9,1.0,1.0,279.0,698.0,1.0,1,93.0,1
781,781,-0.8544857489036563,-0.9,0.0,1.0,294.0,707.0,1.0,0,179.0,1
782,782,-0.19704836164632744,-0.2,1.0,0.0,461.0,520.0,0.0,0,2019.0,1
783,783,0.5049594705077948,0.5,1.0,1.0,412.0,747.0,1.0,1,241.0,1
784,784,-0.47992947072331116,-0.5,1.0,0.0,275.0,582.0,0.0,0,473.0,1
785,785,-0.7469363971928574,-0.7,1.0,0.0,312.0,815.0,0.0,0,223.0,1
786,786,-0.38301091959643274,-0.4,0.0,1.0,489.0,634.0,1.0,0,337.0,1
787,787,-0.23886278023093233,-0.2,1.0,0.0,291.0,525.0,0.0,0,1104.0,1
788,788,0.2544440658965069,0.3,0.0,0.0,471.0,644.0,0.0,1,1885.0,1
789,789,-0.5604472601580722,-0.6,0.0,1.0,492.0,917.0,1.0,0,221.0,1
790,790,0.6847007638691512,0.7,0.0,0.0,434.0,724.0,0.0,1,262.0,1
791,791,-0.6369459065287422,-0.6,0.0,1.0,461.0,952.0,1.0,0,427.0,1
792,792,0.4013586953198581,0.4,1.0,1.0,472.0,738.0,1.0,1,480.0,1
793,793,-0.04938339138830716,-0.0,1.0,0.0,289.0,783.0,1.0,1,1598.0,0
794,794,0.34965946992817465,0.3,1.0,1.0,465.0,646.0,1.0,1,419.0,1
795,795,-0.7020883541852999,-0.7,1.0,0.0,265.0,945.0,0.0,0,210.0,1
796,796,0.7347087970052276,0.7,1.0,1.0,287.0,643.0,1.0,1,120.0,1
797,797,0.378626190236414,0.4,1.0,1.0,431.0,753.0,1.0,1,336.0,1
798,798,-0.545278481602958,-0.5,1.0,0.0,261.0,921.0,0.0,0,468.0,1
799,799,0.4855917168858209,0.5,1.0,1.0,474.0,919.0,1.0,1,-103.0,1
800,800,-0.8899000724050655,-0.9,1.0,0.0,433.0,807.0,0.0,0,250.0,1
801,801,0.15166749708961913,0.2,1.0,1.0,289.0,961.0,1.0,1,580.0,1
802,802,-0.6350848345890782,-0.6,1.0,0.0,426.0,894.0,0.0,0,460.0,1
803,803,-0.7944710490634355,-0.8,1.0,0.0,491.0,933.0,0.0,0,236.0,1
804,804,-0.13059489445168138,-0.1,1.0,0.0,315.0,806.0,1.0,1,1799.0,0
805,805,0.640375553017409,0.6,0.0,0.0,344.0,553.0,0.0,1,143.0,1
806,806,-0.2645422356165471,-0.3,1.0,0.0,418.0,593.0,0.0,0,1039.0,1
807,807,0.26657660772719416,0.3,1.0,1.0,495.0,994.0,1.0,1,631.0,1
808,808,0.061897273955702325,0.1,1.0,1.0,417.0,725.0,1.0,1,468.0,1
809,809,-0.8203337455371443,-0.8,1.0,0.0,350.0,625.0,0.0,0,275.0,1
810,810,-0.3068027079315737,-0.3,0.0,1.0,258.0,718.0,1.0,0,904.0,1
811,811,0.04846182773455188,0.0,1.0,1.0,261.0,928.0,1.0,1,-329.0,1
812,812,0.028422678311754934,0.0,1.0,1.0,251.0,738.0,1.0,1,2011.0,1
813,813,-0.2307276210964906,-0.2,1.0,0.0,351.0,885.0,0.0,0,364.0,1
814,814,-0.6827234879544699,-0.7,1.0,0.0,353.0,849.0,0.0,0,608.0,1
815,815,-0.47129614377240203,-0.5,0.0,1.0,253.0,617.0,1.0,0,190.0,1
816,816,0.4737835138552885,0.5,1.0,1.0,429.0,506.0,1.0,1,135.0,1
817,817,-0.4588368041147999,-0.5,0.0,1.0,364.0,955.0,1.0,0,531.0,1
818,818,-0.07498694840489228,-0.1,1.0,0.0,278.0,912.0,0.0,0,800.0,1
819,819,-0.11185998029980715,-0.1,1.0,0.0,261.0,501.0,0.0,0,2238.0,1
820,820,0.30477348480903366,0.3,1.0,1.0,401.0,577.0,1.0,1,742.0,1
821,821,0.20835917697732886,0.2,0.0,0.0,395.0,682.0,0.0,1,1003.0,1
822,822,-0.8839018979490864,-0.9,1.0,0.0,402.0,538.0,0.0,0,250.0,1
823,823,0.4781716426597825,0.5,0.0,0.0,475.0,599.0,0.0,1,246.0,1
824,824,0.3793179289034522,0.4,1.0,1.0,322.0,754.0,1.0,1,-236.0,1
825,825,0.5362991751893859,0.5,0.0,0.0,325.0,566.0,0.0,1,869.0,1
826,826,0.48518706516080756,0.5,0.0,0.0,483.0,687.0,0.0,1,340.0,1
827,827,-0.7294714860312514,-0.7,0.0,1.0,412.0,540.0,1.0,0,128.0,1
828,828,-0.8546610361064949,-0.9,1.0,0.0,416.0,555.0,0.0,0,419.0,1
829,829,-0.2257824684282923,-0.2,1.0,0.0,498.0,637.0,0.0,0,1865.0,1
830,830,0.4465640533937997,0.4,0.0,0.0,304.0,835.0,0.0,1,581.0,1
831,831,-0.12819172891790986,-0.1,1.0,0.0,470.0,805.0,0.0,0,1495.0,1
832,832,-0.08040304879571825,-0.1,0.0,1.0,449.0,590.0,1.0,0,1061.0,1
833,833,-0.6799959058157674,-0.7,0.0,1.0,356.0,836.0,1.0,0,308.0,1
834,834,0.22610792299825333,0.2,0.0,0.0,445.0,823.0,0.0,1,592.0,1
835,835,0.4543254894790628,0.5,1.0,1.0,483.0,599.0,1.0,1,88.0,1
836,836,-0.7887077515767386,-0.8,1.0,0.0,378.0,680.0,0.0,0,412.0,1
837,837,-0.09401380462501263,-0.1,0.0,1.0,486.0,697.0,1.0,0,1057.0,1
838,838,0.3532004865092807,0.4,0.0,0.0,362.0,773.0,0.0,1,665.0,1
839,839,-0.4149771398279812,-0.4,1.0,0.0,252.0,736.0,0.0,0,462.0,1
840,840,-0.4909753144551466,-0.5,0.0,1.0,410.0,542.0,1.0,0,378.0,1
841,841,-0.3687551529267208,-0.4,1.0,0.0,284.0,696.0,1.0,1,0.0,0
842,842,0.03352263420206247,0.0,1.0,1.0,456.0,961.0,1.0,1,1583.0,1
843,843,-0.7173759531977552,-0.7,1.0,0.0,263.0,969.0,0.0,0,228.0,1
844,844,0.575919340400722,0.6,1.0,1.0,478.0,583.0,1.0,1,209.0,1
845,845,0.021010604991013815,0.0,0.0,0.0,431.0,867.0,1.0,0,1702.0,0
846,846,-0.021106177618056665,-0.0,1.0,0.0,315.0,703.0,1.0,1,272.0,0
847,847,0.0007311282939296282,0.0,1.0,1.0,258.0,565.0,1.0,1,207.0,1
848,848,-0.4549022449523809,-0.5,0.0,1.0,396.0,620.0,1.0,0,184.0,1
849,849,0.8108222433999982,0.8,0.0,0.0,473.0,672.0,0.0,1,165.0,1
850,850,0.5533204330622578,0.6,1.0,1.0,254.0,528.0,1.0,1,178.0,1
851,851,0.021507921474024916,0.0,1.0,1.0,349.0,826.0,1.0,1,585.0,1
852,852,0.03291638218474646,0.0,0.0,0.0,367.0,935.0,0.0,1,1698.0,1
853,853,-0.4813977116730336,-0.5,1.0,0.0,422.0,654.0,0.0,0,284.0,1
854,854,-0.4616023281429741,-0.5,0.0,1.0,352.0,821.0,1.0,0,267.0,1
855,855,-0.2189990568274086,-0.2,1.0,0.0,429.0,847.0,0.0,0,654.0,1
856,856,0.1115101809186253,0.1,1.0,1.0,452.0,721.0,1.0,1,477.0,1
857,857,0.5837817823813168,0.6,0.0,0.0,420.0,934.0,0.0,1,246.0,1
858,858,0.4752622740533995,0.5,0.0,0.0,403.0,738.0,0.0,1,509.0,1
859,859,0.2118597050712009,0.2,1.0,1.0,465.0,583.0,1.0,1,222.0,1
860,860,-0.8315524000219005,-0.8,0.0,1.0,388.0,822.0,1.0,0,200.0,1
861,861,0.7956995757240349,0.8,1.0,1.0,499.0,539.0,1.0,1,72.0,1
862,862,-0.6695447401978156,-0.7,1.0,0.0,275.0,829.0,0.0,0,656.0,1
863,863,0.8400151855122621,0.8,0.0,0.0,466.0,944.0,0.0,1,340.0,1
864,864,0.7454920592058359,0.7,0.0,0.0,362.0,799.0,0.0,1,319.0,1
865,865,0.07107115254299778,0.1,0.0,0.0,320.0,995.0,0.0,1,1685.0,1
866,866,-0.7833879722961684,-0.8,1.0,0.0,496.0,521.0,0.0,0,293.0,1
867,867,0.1366452454717625,0.1,0.0,0.0,257.0,599.0,0.0,1,2144.0,1
868,868,0.33884557238059354,0.3,1.0,1.0,450.0,662.0,1.0,1,98.0,1
869,869,0.5625060945377905,0.6,0.0,0.0,267.0,634.0,0.0,1,819.0,1
870,870,0.5881611969651738,0.6,0.0,0.0,466.0,630.0,0.0,1,184.0,1
871,871,-0.46191043222639416,-0.5,1.0,0.0,473.0,735.0,0.0,0,532.0,1
872,872,0.6106698060427226,0.6,1.0,1.0,370.0,652.0,1.0,1,118.0,1
873,873,-0.045854420215336145,-0.0,1.0,0.0,270.0,638.0,1.0,1,-88.0,0
874,874,-0.894175417710018,-0.9,0.0,1.0,316.0,581.0,1.0,0,173.0,1
875,875,0.5251585296961029,0.5,0.0,0.0,400.0,531.0,0.0,1,469.0,1
876,876,0.20204493731757556,0.2,1.0,1.0,476.0,692.0,1.0,1,522.0,1
877,877,0.3680222895132431,0.4,0.0,0.0,289.0,902.0,0.0,1,369.0,1
878,878,-0.640039322886701,-0.6,0.0,1.0,422.0,647.0,1.0,0,201.0,1
879,879,0.4293405773331861,0.4,1.0,1.0,432.0,746.0,1.0,1,202.0,1
880,880,-0.21245419791835407,-0.2,1.0,0.0,259.0,542.0,0.0,0,2199.0,1
881,881,0.8309209776504548,0.8,1.0,1.0,368.0,532.0,1.0,1,50.0,1
882,882,-0.31469448875432093,-0.3,1.0,0.0,338.0,832.0,0.0,0,360.0,1
883,883,0.5836001590086838,0.6,1.0,1.0,320.0,870.0,1.0,1,-100.0,1
884,884,-0.3445188254902104,-0.3,0.0,1.0,328.0,858.0,1.0,0,784.0,1
885,885,-0.22654033523141615,-0.2,0.0,1.0,473.0,976.0,1.0,0,281.0,1
886,886,0.7486583821636962,0.7,1.0,1.0,388.0,795.0,1.0,1,107.0,1
887,887,-0.21932673517318368,-0.2,1.0,0.0,250.0,868.0,1.0,1,242.0,0
888,888,0.025323580003547175,0.0,0.0,0.0,375.0,551.0,0.0,1,2074.0,1
889,889,0.6795479133619212,0.7,0.0,0.0,409.0,869.0,0.0,1,152.0,1
890,890,0.4834645632601403,0.5,1.0,1.0,444.0,541.0,1.0,1,235.0,1
891,891,-0.812699451158465,-0.8,1.0,0.0,383.0,763.0,0.0,0,194.0,1
892,892,0.6171403217595138,0.6,1.0,1.0,280.0,941.0,1.0,1,199.0,1
893,893,-0.807865721693349,-0.8,0.0,1.0,428.0,738.0,1.0,0,114.0,1
894,894,-0.8253914718485283,-0.8,0.0,1.0,276.0,633.0,1.0,0,91.0,1
895,895,-0.3470373104752369,-0.3,1.0,0.0,293.0,701.0,0.0,0,516.0,1
896,896,-0.47801409185707483,-0.5,0.0,1.0,289.0,634.0,1.0,0,147.0,1
897,897,0.8597696884113913,0.9,1.0,1.0,490.0,745.0,1.0,1,115.0,1
898,898,-0.23667553970566835,-0.2,1.0,0.0,329.0,671.0,0.0,0,1390.0,1
899,899,-0.4480894624759842,-0.4,1.0,0.0,405.0,709.0,0.0,0,376.0,1
900,900,0.8706615927766742,0.9,0.0,0.0,308.0,669.0,0.0,1,363.0,1
901,901,0.0701136770983739,0.1,1.0,1.0,485.0,860.0,1.0,1,165.0,1
902,902,-0.2912424520843335,-0.3,0.0,1.0,312.0,708.0,1.0,0,740.0,1
903,903,0.8913126676301107,0.9,1.0,1.0,260.0,809.0,1.0,1,151.0,1
904,904,-0.3587845754332488,-0.4,1.0,0.0,299.0,760.0,0.0,0,531.0,1
905,905,0.7808636220524435,0.8,0.0,0.0,275.0,730.0,0.0,1,345.0,1
906,906,-0.7620047207245301,-0.8,0.0,1.0,293.0,860.0,1.0,0,117.0,1
907,907,-0.5030167675393233,-0.5,0.0,1.0,455.0,821.0,1.0,0,404.0,1
908,908,-0.264139689213606,-0.3,1.0,0.0,416.0,687.0,0.0,0,1897.0,1
909,909,0.04873110737737474,0.0,0.0,0.0,285.0,954.0,0.0,1,1761.0,1
910,910,-0.6616178492751743,-0.7,0.0,1.0,446.0,905.0,1.0,0,109.0,1
911,911,-0.023991834591583494,-0.0,0.0,1.0,459.0,571.0,0.0,1,1970.0,0
912,912,-0.365114479631622,-0.4,0.0,1.0,278.0,858.0,1.0,0,334.0,1
913,913,0.892590531402934,0.9,0.0,0.0,496.0,939.0,0.0,1,65.0,1
914,914,-0.5445533004355119,-0.5,1.0,0.0,412.0,939.0,0.0,0,219.0,1
915,915,0.3425208857339924,0.3,0.0,0.0,447.0,681.0,0.0,1,1182.0,1
916,916,-0.398335530933865,-0.4,0.0,1.0,388.0,663.0,1.0,0,389.0,1
917,917,0.4135691413830723,0.4,0.0,0.0,388.0,969.0,0.0,1,833.0,1
918,918,-0.02693508558026092,-0.0,1.0,0.0,302.0,787.0,1.0,1,181.0,0
919,919,0.794999814589152,0.8,1.0,1.0,411.0,546.0,1.0,1,113.0,1
920,920,0.8256416768100364,0.8,0.0,0.0,371.0,835.0,0.0,1,204.0,1
921,921,0.8127047034245606,0.8,0.0,0.0,369.0,669.0,0.0,1,942.0,1
922,922,0.2645005337384302,0.3,0.0,0.0,446.0,707.0,0.0,1,257.0,1
923,923,0.24075193482286694,0.2,1.0,1.0,444.0,807.0,1.0,1,9.0,1
924,924,-0.30871845840846346,-0.3,0.0,1.0,491.0,792.0,1.0,0,-233.0,1
925,925,-0.8722344748015437,-0.9,1.0,0.0,487.0,880.0,1.0,1,-77.0,0
926,926,-0.8529131794202244,-0.9,0.0,1.0,423.0,801.0,1.0,0,116.0,1
927,927,0.6335995314438191,0.6,0.0,0.0,399.0,551.0,0.0,1,710.0,1
928,928,0.12949438683711867,0.1,1.0,1.0,334.0,656.0,1.0,1,370.0,1
929,929,0.8038137340907067,0.8,0.0,0.0,390.0,600.0,0.0,1,380.0,1
930,930,0.878804100392082,0.9,1.0,1.0,497.0,724.0,1.0,1,99.0,1
931,931,0.0958805780888794,0.1,1.0,1.0,448.0,918.0,1.0,1,544.0,1
932,932,0.3883221915121712,0.4,0.0,0.0,499.0,740.0,0.0,1,171.0,1
933,933,-0.3265794787252886,-0.3,1.0,0.0,302.0,981.0,0.0,0,267.0,1
934,934,-0.6386410705280652,-0.6,1.0,0.0,373.0,907.0,0.0,0,280.0,1
935,935,-0.7285876773423225,-0.7,0.0,1.0,418.0,793.0,1.0,0,289.0,1
936,936,0.21710499218081136,0.2,0.0,0.0,349.0,517.0,0.0,1,444.0,1
937,937,0.8389305070746361,0.8,0.0,0.0,382.0,516.0,0.0,1,2102.0,1
938,938,0.6846451950822287,0.7,0.0,0.0,484.0,747.0,0.0,1,139.0,1
939,939,0.28352788735887413,0.3,1.0,1.0,453.0,738.0,1.0,1,59.0,1
940,940,0.23217685393550902,0.2,1.0,1.0,425.0,934.0,1.0,1,61.0,1
941,941,0.10729701899690591,0.1,0.0,0.0,381.0,880.0,0.0,1,1739.0,1
942,942,-0.43164657992727545,-0.4,0.0,1.0,393.0,773.0,1.0,0,214.0,1
943,943,0.47698364314371344,0.5,1.0,1.0,319.0,651.0,1.0,1,-90.0,1
944,944,-0.31108272189200636,-0.3,0.0,1.0,445.0,727.0,1.0,0,348.0,1
945,945,0.3737758801349714,0.4,1.0,1.0,299.0,788.0,1.0,1,-347.0,1
946,946,0.5338200406397239,0.5,1.0,1.0,382.0,888.0,1.0,1,160.0,1
947,947,-0.5804431624729803,-0.6,1.0,0.0,476.0,821.0,0.0,0,283.0,1
948,948,0.5466568276146732,0.5,0.0,0.0,490.0,849.0,0.0,1,311.0,1
949,949,0.4873450182930211,0.5,1.0,1.0,406.0,543.0,1.0,1,51.0,1
950,950,-0.06112946892622839,-0.1,1.0,0.0,299.0,962.0,1.0,1,599.0,0
951,951,0.07691117033949701,0.1,1.0,1.0,274.0,550.0,1.0,1,476.0,1
952,952,-0.7020276440105823,-0.7,0.0,1.0,305.0,652.0,1.0,0,223.0,1
953,953,0.22344231136319304,0.2,0.0,0.0,418.0,917.0,0.0,1,625.0,1
954,954,-0.29221682165672114,-0.3,0.0,1.0,341.0,976.0,1.0,0,213.0,1
955,955,-0.3454155974387386,-0.3,1.0,0.0,476.0,663.0,0.0,0,561.0,1
956,956,0.675179008875073,0.7,1.0,1.0,355.0,747.0,1.0,1,148.0,1
957,957,0.5975826750446759,0.6,0.0,0.0,466.0,984.0,0.0,1,280.0,1
958,958,0.4108571919768721,0.4,1.0,1.0,400.0,520.0,1.0,1,200.0,1
959,959,0.06924423025333937,0.1,0.0,0.0,281.0,783.0,1.0,0,1936.0,0
960,960,-0.3033642695737091,-0.3,1.0,0.0,327.0,998.0,1.0,1,25.0,0
961,961,0.32353158470791576,0.3,1.0,1.0,380.0,668.0,1.0,1,392.0,1
962,962,0.01888828288511979,0.0,1.0,1.0,349.0,744.0,1.0,1,567.0,1
963,963,0.8025323090967086,0.8,1.0,1.0,362.0,620.0,1.0,1,-202.0,1
964,964,0.6364814254149868,0.6,0.0,0.0,314.0,824.0,0.0,1,282.0,1
965,965,-0.7087868330849557,-0.7,1.0,0.0,477.0,764.0,0.0,0,229.0,1
966,966,0.4603987462532074,0.5,0.0,0.0,338.0,825.0,0.0,1,427.0,1
967,967,0.3597231740000194,0.4,0.0,0.0,319.0,988.0,0.0,1,333.0,1
968,968,-0.43884959359272346,-0.4,0.0,1.0,276.0,665.0,1.0,0,709.0,1
969,969,0.44994398548064163,0.4,0.0,0.0,348.0,957.0,0.0,1,605.0,1
970,970,-0.45091484374663415,-0.5,0.0,1.0,387.0,687.0,1.0,0,416.0,1
971,971,0.32685295744001464,0.3,1.0,1.0,447.0,536.0,1.0,1,257.0,1
972,972,0.18350466019095635,0.2,1.0,1.0,422.0,605.0,1.0,1,473.0,1
973,973,0.7911037271238067,0.8,1.0,1.0,412.0,570.0,1.0,1,168.0,1
974,974,0.029395222084293238,0.0,1.0,1.0,483.0,872.0,1.0,1,135.0,1
975,975,0.7069141967173885,0.7,0.0,0.0,255.0,758.0,0.0,1,247.0,1
976,976,-0.8766797532925092,-0.9,0.0,1.0,384.0,776.0,1.0,0,120.0,1
977,977,-0.046374596075816954,-0.0,1.0,0.0,288.0,822.0,0.0,0,1890.0,1
978,978,-0.7830479568130561,-0.8,0.0,1.0,418.0,784.0,1.0,0,158.0,1
979,979,0.09787342897677476,0.1,0.0,0.0,392.0,567.0,0.0,1,2041.0,1
980,980,-0.32520624891424,-0.3,1.0,0.0,426.0,752.0,0.0,0,372.0,1
981,981,0.38991341218908293,0.4,1.0,1.0,423.0,553.0,1.0,1,164.0,1
982,982,-0.0748898291762693,-0.1,1.0,0.0,318.0,671.0,1.0,1,2011.0,0
983,983,0.25177598469920304,0.3,0.0,0.0,451.0,830.0,0.0,1,489.0,1
984,984,-0.5836372524793842,-0.6,1.0,0.0,441.0,903.0,1.0,1,-604.0,0
985,985,0.8257278205555537,0.8,0.0,0.0,320.0,650.0,0.0,1,220.0,1
986,986,0.2888308415239974,0.3,1.0,1.0,299.0,959.0,1.0,1,262.0,1
987,987,-0.8075636638141875,-0.8,1.0,0.0,269.0,545.0,0.0,0,366.0,1
988,988,0.8896004282637114,0.9,1.0,1.0,297.0,992.0,1.0,1,71.0,1
989,989,-0.31030499299438596,-0.3,0.0,1.0,416.0,602.0,1.0,0,322.0,1
990,990,-0.244870176825699,-0.2,1.0,0.0,332.0,825.0,0.0,0,623.0,1
991,991,0.3834320617318904,0.4,1.0,1.0,343.0,672.0,1.0,1,195.0,1
992,992,0.8164028322113407,0.8,0.0,0.0,267.0,581.0,0.0,1,222.0,1
993,993,-0.13454554371423177,-0.1,1.0,0.0,469.0,963.0,1.0,1,278.0,0
994,994,-0.210772260145765,-0.2,1.0,0.0,304.0,809.0,0.0,0,787.0,1
995,995,0.6197088994737395,0.6,1.0,1.0,310.0,634.0,1.0,1,216.0,1
996,996,-0.0441873991987084,-0.0,0.0,1.0,317.0,656.0,1.0,0,127.0,1
997,997,-0.7702787693483667,-0.8,1.0,0.0,282.0,605.0,0.0,0,243.0,1
998,998,-0.11855738988764863,-0.1,0.0,1.0,454.0,711.0,1.0,0,225.0,1
999,999,0.3367259904132863,0.3,0.0,0.0,371.0,855.0,0.0,1,934.0,1
1000,1000,-0.631720534414872,-0.6,0.0,1.0,412.0,950.0,1.0,0,198.0,1
1001,1001,0.6782800015438787,0.7,0.0,0.0,306.0,638.0,0.0,1,436.0,1
1002,1002,-0.48773930449412534,-0.5,0.0,1.0,278.0,749.0,1.0,0,293.0,1
1003,1003,-0.5741701190708441,-0.6,1.0,0.0,367.0,819.0,0.0,0,114.0,1
1004,1004,-0.6153767438562573,-0.6,0.0,1.0,279.0,525.0,1.0,0,256.0,1
1005,1005,-0.12142758449209401,-0.1,0.0,1.0,481.0,877.0,1.0,0,1642.0,1
1006,1006,0.8072622595528055,0.8,1.0,1.0,494.0,992.0,1.0,1,-456.0,1
1007,1007,-0.2765731699486834,-0.3,0.0,1.0,324.0,571.0,1.0,0,405.0,1
1008,1008,-0.07481520974065037,-0.1,1.0,0.0,450.0,708.0,1.0,1,532.0,0
1009,1009,0.29900674544258476,0.3,0.0,0.0,383.0,566.0,0.0,1,401.0,1
1010,1010,0.6737127490391309,0.7,0.0,0.0,441.0,908.0,0.0,1,951.0,1
1011,1011,0.7144766706312428,0.7,1.0,1.0,443.0,634.0,1.0,1,153.0,1
1012,1012,0.18419671645717683,0.2,1.0,1.0,425.0,570.0,1.0,1,355.0,1
1013,1013,0.5638808879737122,0.6,1.0,1.0,320.0,971.0,1.0,1,379.0,1
1014,1014,0.8648089323110736,0.9,0.0,0.0,407.0,574.0,0.0,1,299.0,1
1015,1015,-0.07927703279906029,-0.1,0.0,1.0,406.0,735.0,1.0,0,909.0,1
1016,1016,0.031550776217559307,0.0,0.0,0.0,347.0,622.0,0.0,1,2031.0,1
1017,1017,-0.13079162736553784,-0.1,1.0,0.0,349.0,557.0,0.0,0,564.0,1
1018,1018,-0.5476533416019028,-0.5,0.0,1.0,300.0,539.0,1.0,0,221.0,1
1019,1019,-0.07232205026994276,-0.1,0.0,1.0,385.0,583.0,1.0,0,722.0,1
1020,1020,-0.6960127864050998,-0.7,0.0,1.0,341.0,916.0,1.0,0,143.0,1
1021,1021,-0.7064577297295135,-0.7,1.0,0.0,440.0,938.0,0.0,0,172.0,1
1022,1022,0.12411413160709406,0.1,0.0,0.0,422.0,777.0,0.0,1,1801.0,1
1023,1023,-0.6611645555382067,-0.7,0.0,1.0,333.0,723.0,1.0,0,234.0,1
1024,1024,-0.8529955093277386,-0.9,1.0,0.0,307.0,970.0,0.0,0,193.0,1
1025,1025,0.6073955010262239,0.6,1.0,1.0,462.0,713.0,1.0,1,135.0,1
1026,1026,-0.27181865672238004,-0.3,1.0,0.0,413.0,500.0,0.0,0,917.0,1
1027,1027,-0.022351945043695087,-0.0,1.0,0.0,441.0,665.0,0.0,0,1784.0,1
1028,1028,-0.11868710671658134,-0.1,0.0,1.0,416.0,935.0,1.0,0,679.0,1
1029,1029,-0.6724108882710598,-0.7,1.0,0.0,433.0,533.0,0.0,0,254.0,1
1030,1030,0.6240966716097646,0.6,1.0,1.0,476.0,520.0,1.0,1,164.0,1
1031,1031,0.04920356618179389,0.0,1.0,1.0,466.0,881.0,1.0,1,-147.0,1
1032,1032,-0.2822103418050176,-0.3,1.0,0.0,464.0,892.0,0.0,0,494.0,1
1033,1033,-0.29325705219732723,-0.3,1.0,0.0,392.0,783.0,0.0,0,905.0,1
1034,1034,-0.18700421022551406,-0.2,0.0,1.0,352.0,769.0,1.0,0,889.0,1
1035,1035,0.24645602768551822,0.2,0.0,0.0,486.0,809.0,0.0,1,915.0,1
1036,1036,-0.8579720801724263,-0.9,1.0,0.0,305.0,664.0,0.0,0,361.0,1
1037,1037,-0.472345621436238,-0.5,0.0,1.0,416.0,784.0,1.0,0,390.0,1
1038,1038,0.8467502236495624,0.8,1.0,1.0,443.0,611.0,1.0,1,16.0,1
1039,1039,-0.457631263095049,-0.5,1.0,0.0,478.0,648.0,0.0,0,224.0,1
1040,1040,0.7829147870858338,0.8,1.0,1.0,465.0,809.0,1.0,1,86.0,1
1041,1041,0.6314822902223477,0.6,0.0,0.0,412.0,767.0,0.0,1,371.0,1
1042,1042,0.832023845497838,0.8,0.0,0.0,276.0,987.0,0.0,1,297.0,1
1043,1043,-0.06671188847031806,-0.1,1.0,0.0,410.0,512.0,0.0,0,2078.0,1
1044,1044,0.24335493608461156,0.2,0.0,0.0,468.0,854.0,0.0,1,1608.0,1
1045,1045,0.6506995656612632,0.7,1.0,1.0,473.0,862.0,1.0,1,65.0,1
1046,1046,-0.356347051863132,-0.4,0.0,1.0,491.0,773.0,1.0,0,506.0,1
1047,1047,-0.32757929383802264,-0.3,0.0,1.0,298.0,686.0,1.0,0,586.0,1
1048,1048,-0.6917446595831549,-0.7,1.0,0.0,417.0,808.0,0.0,0,245.0,1
1049,1049,0.7017745842291395,0.7,0.0,0.0,371.0,555.0,0.0,1,104.0,1
1050,1050,0.262343239155474,0.3,0.0,0.0,376.0,698.0,0.0,1,1926.0,1
1051,1051,0.10587023400665208,0.1,0.0,0.0,309.0,751.0,0.0,1,1940.0,1
1052,1052,0.3292064817276382,0.3,0.0,0.0,411.0,995.0,0.0,1,574.0,1
1053,1053,0.5864846281222448,0.6,1.0,1.0,451.0,755.0,1.0,1,164.0,1
1054,1054,0.3588480829663333,0.4,1.0,1.0,251.0,949.0,1.0,1,-210.0,1
1055,1055,0.8624238083834502,0.9,1.0,1.0,251.0,931.0,1.0,1,88.0,1
1056,1056,0.12860186418269814,0.1,1.0,1.0,448.0,503.0,1.0,1,409.0,1
1057,1057,-0.481916819435685,-0.5,0.0,1.0,268.0,675.0,1.0,0,277.0,1
1058,1058,-0.123627448154363,-0.1,0.0,1.0,359.0,665.0,1.0,0,1506.0,1
1059,1059,-0.721728364738787,-0.7,0.0,1.0,371.0,550.0,1.0,0,239.0,1
1060,1060,-0.6930964269363309,-0.7,0.0,1.0,307.0,948.0,1.0,0,125.0,1
1061,1061,-0.725965535576961,-0.7,1.0,0.0,326.0,898.0,0.0,0,96.0,1
1062,1062,-0.42953448079011436,-0.4,0.0,1.0,376.0,755.0,1.0,0,519.0,1
1063,1063,-0.45760075891317314,-0.5,1.0,0.0,389.0,571.0,0.0,0,360.0,1
1064,1064,0.18804883506718306,0.2,0.0,0.0,259.0,861.0,0.0,1,1070.0,1
1065,1065,-0.8014961606963158,-0.8,0.0,1.0,482.0,887.0,1.0,0,181.0,1
1066,1066,-0.14458824409699256,-0.1,0.0,1.0,364.0,676.0,1.0,0,1200.0,1
1067,1067,-0.47454942753603113,-0.5,1.0,0.0,361.0,949.0,0.0,0,290.0,1
1068,1068,0.6144968993104999,0.6,1.0,1.0,383.0,774.0,1.0,1,143.0,1
1069,1069,-0.06057473019440307,-0.1,0.0,1.0,354.0,932.0,1.0,0,1714.0,1
1070,1070,0.34013433467381204,0.3,1.0,1.0,437.0,892.0,1.0,1,151.0,1
1071,1071,0.32881850575065463,0.3,0.0,0.0,383.0,530.0,0.0,1,627.0,1
1072,1072,0.0001545857323268507,0.0,0.0,0.0,272.0,510.0,1.0,0,2218.0,0
1073,1073,0.8582682426687457,0.9,0.0,0.0,475.0,638.0,0.0,1,197.0,1
1074,1074,-0.04192692240264373,-0.0,0.0,1.0,480.0,529.0,1.0,0,1991.0,1
1075,1075,-0.6202770609912174,-0.6,0.0,1.0,467.0,666.0,1.0,0,257.0,1
1076,1076,0.871571459597083,0.9,1.0,1.0,453.0,554.0,1.0,1,113.0,1
1077,1077,-0.5401184830047931,-0.5,1.0,0.0,442.0,851.0,0.0,0,407.0,1
1078,1078,0.7559675390419284,0.8,1.0,1.0,329.0,627.0,1.0,1,204.0,1
1079,1079,0.1636562812306307,0.2,1.0,1.0,367.0,594.0,1.0,1,969.0,1
1080,1080,0.35630748261638445,0.4,1.0,1.0,407.0,927.0,1.0,1,56.0,1
1081,1081,0.6386216203432126,0.6,0.0,0.0,356.0,885.0,0.0,1,209.0,1
1082,1082,-0.8921606864873428,-0.9,0.0,1.0,299.0,869.0,1.0,0,212.0,1
1083,1083,-0.7693464055649692,-0.8,0.0,1.0,396.0,514.0,1.0,0,360.0,1
1084,1084,0.6976980955829345,0.7,0.0,0.0,353.0,913.0,0.0,1,234.0,1
1085,1085,-0.46907448071564356,-0.5,0.0,1.0,289.0,548.0,1.0,0,203.0,1
1086,1086,0.7869619936379743,0.8,1.0,1.0,465.0,838.0,1.0,1,137.0,1
1087,1087,-0.46516741031535597,-0.5,1.0,0.0,256.0,923.0,0.0,0,461.0,1
1088,1088,0.878988753550482,0.9,1.0,1.0,438.0,797.0,1.0,1,125.0,1
1089,1089,-0.829555222043189,-0.8,0.0,1.0,371.0,917.0,1.0,0,32.0,1
1090,1090,-0.7669034024255441,-0.8,1.0,0.0,319.0,539.0,0.0,0,212.0,1
1091,1091,0.26586882209174967,0.3,1.0,1.0,396.0,836.0,1.0,1,238.0,1
1092,1092,-0.8502852140241257,-0.9,1.0,0.0,401.0,861.0,0.0,0,128.0,1
1093,1093,0.8810203481703426,0.9,0.0,0.0,290.0,597.0,0.0,1,743.0,1
1094,1094,-0.5365353049230206,-0.5,1.0,0.0,268.0,958.0,1.0,1,-186.0,0
1095,1095,0.7937438390375796,0.8,1.0,1.0,487.0,969.0,1.0,1,204.0,1
1096,1096,0.6274938079262741,0.6,1.0,1.0,348.0,616.0,1.0,1,-204.0,1
1097,1097,0.3773340717693091,0.4,1.0,1.0,443.0,561.0,1.0,1,136.0,1
1098,1098,-0.7279940274297494,-0.7,1.0,0.0,283.0,843.0,0.0,0,264.0,1
1099,1099,0.22193336377030703,0.2,0.0,0.0,388.0,549.0,0.0,1,1633.0,1
1100,1100,0.8922306717595615,0.9,1.0,1.0,294.0,800.0,1.0,1,156.0,1
1101,1101,-0.11211720266795555,-0.1,1.0,0.0,291.0,706.0,0.0,0,1433.0,1
1102,1102,0.7100736996902689,0.7,1.0,1.0,250.0,923.0,1.0,1,57.0,1
1103,1103,-0.3623504137182372,-0.4,1.0,0.0,338.0,754.0,0.0,0,438.0,1
1104,1104,0.7473602784419279,0.7,1.0,1.0,274.0,563.0,1.0,1,243.0,1
1105,1105,0.06131561463907187,0.1,0.0,0.0,296.0,535.0,0.0,1,2169.0,1
1106,1106,-0.5044535192686177,-0.5,1.0,0.0,350.0,796.0,0.0,0,424.0,1
1107,1107,0.35068153156358683,0.4,1.0,1.0,461.0,928.0,1.0,1,-49.0,1
1108,1108,-0.0012440677318217297,-0.0,0.0,1.0,467.0,918.0,1.0,0,1345.0,1
1109,1109,0.7460247703686403,0.7,1.0,1.0,282.0,797.0,1.0,1,61.0,1
1110,1110,0.49679904974332645,0.5,1.0,1.0,315.0,972.0,1.0,1,-47.0,1
1111,1111,-0.6684326362960887,-0.7,0.0,1.0,448.0,929.0,1.0,0,233.0,1
1112,1112,0.46059532881275345,0.5,1.0,1.0,334.0,772.0,1.0,1,104.0,1
1113,1113,-0.31748378791445386,-0.3,0.0,1.0,417.0,988.0,1.0,0,415.0,1
1114,1114,-0.3576382284797661,-0.4,1.0,0.0,410.0,528.0,0.0,0,532.0,1
1115,1115,-0.47990094427147545,-0.5,1.0,0.0,344.0,538.0,0.0,0,208.0,1
1116,1116,0.8643475739633756,0.9,1.0,1.0,441.0,974.0,1.0,1,235.0,1
1117,1117,0.37704120522721885,0.4,0.0,0.0,293.0,511.0,0.0,1,516.0,1
1118,1118,0.6430743069674635,0.6,0.0,0.0,362.0,770.0,0.0,1,-22.0,1
1119,1119,-0.018880125342518372,-0.0,1.0,0.0,446.0,809.0,1.0,1,115.0,0
1120,1120,0.6795271264420776,0.7,0.0,0.0,344.0,651.0,0.0,1,165.0,1
1121,1121,0.8740060770686239,0.9,0.0,0.0,354.0,652.0,0.0,1,124.0,1
1122,1122,-0.20135702312174053,-0.2,1.0,0.0,255.0,628.0,0.0,0,567.0,1
1123,1123,-0.3848996739464654,-0.4,1.0,0.0,377.0,968.0,0.0,0,505.0,1
1124,1124,-0.6887894899232854,-0.7,1.0,0.0,310.0,506.0,0.0,0,384.0,1
1125,1125,-0.443211233614095,-0.4,0.0,1.0,340.0,758.0,1.0,0,172.0,1
1126,1126,-0.13338400302560927,-0.1,1.0,0.0,298.0,606.0,1.0,1,2096.0,0
1127,1127,0.5009691915307871,0.5,0.0,0.0,474.0,641.0,0.0,1,535.0,1
1128,1128,0.3051107759282917,0.3,1.0,1.0,395.0,560.0,1.0,1,425.0,1
1129,1129,0.16249052791387852,0.2,1.0,1.0,392.0,924.0,1.0,1,224.0,1
1130,1130,0.19115803255192032,0.2,0.0,0.0,409.0,733.0,0.0,1,758.0,1
1131,1131,-0.6138650718148844,-0.6,0.0,1.0,378.0,790.0,1.0,0,182.0,1
1132,1132,-0.6812554814435219,-0.7,0.0,1.0,296.0,831.0,1.0,0,153.0,1
1133,1133,0.3815658793998068,0.4,1.0,1.0,471.0,643.0,1.0,1,346.0,1
1134,1134,-0.38669995643768684,-0.4,1.0,0.0,343.0,658.0,0.0,0,-131.0,1
1135,1135,-0.6979397119721651,-0.7,0.0,1.0,407.0,708.0,1.0,0,365.0,1
1136,1136,-0.6849386783281263,-0.7,1.0,0.0,478.0,845.0,0.0,0,267.0,1
1137,1137,0.04309656547565388,0.0,0.0,0.0,479.0,613.0,0.0,1,1238.0,1
1138,1138,0.05206339225505874,0.1,1.0,1.0,395.0,937.0,1.0,1,958.0,1
1139,1139,0.27874177356939966,0.3,0.0,0.0,425.0,593.0,0.0,1,1412.0,1
1140,1140,-0.25519181039719485,-0.3,1.0,0.0,365.0,622.0,0.0,0,813.0,1
1141,1141,0.2728640837387383,0.3,1.0,1.0,346.0,840.0,1.0,1,264.0,1
1142,1142,-0.7584565328869788,-0.8,1.0,0.0,343.0,791.0,0.0,0,256.0,1
1143,1143,-0.013233416232104167,-0.0,0.0,1.0,274.0,896.0,1.0,0,660.0,1
1144,1144,0.43328502187762863,0.4,1.0,1.0,393.0,670.0,1.0,1,287.0,1
1145,1145,0.29594643184138414,0.3,0.0,0.0,262.0,697.0,0.0,1,811.0,1
1146,1146,0.5793779062535641,0.6,1.0,1.0,378.0,503.0,1.0,1,399.0,1
1147,1147,-0.5418608579856641,-0.5,1.0,0.0,286.0,680.0,0.0,0,304.0,1
1148,1148,0.2410778820905578,0.2,0.0,0.0,420.0,655.0,0.0,1,885.0,1
1149,1149,-0.1378248598980486,-0.1,0.0,1.0,378.0,543.0,1.0,0,1739.0,1
1150,1150,0.49386844585872336,0.5,0.0,0.0,274.0,844.0,0.0,1,782.0,1
1151,1151,-0.03624066402810433,-0.0,1.0,0.0,343.0,931.0,1.0,1,1726.0,0
1152,1152,-0.48432445471479946,-0.5,1.0,0.0,454.0,939.0,0.0,0,307.0,1
1153,1153,-0.4753309270219865,-0.5,1.0,0.0,253.0,836.0,0.0,0,261.0,1
1154,1154,-0.1842606459868965,-0.2,1.0,0.0,277.0,731.0,0.0,0,1012.0,1
1155,1155,-0.7118552362564097,-0.7,0.0,1.0,282.0,904.0,1.0,0,324.0,1
1156,1156,0.6694101994456684,0.7,0.0,0.0,264.0,824.0,0.0,1,162.0,1
1157,1157,-0.17590195706166145,-0.2,1.0,0.0,488.0,893.0,0.0,0,619.0,1
1158,1158,0.6091481026002074,0.6,1.0,1.0,422.0,661.0,1.0,1,127.0,1
1159,1159,0.7875865957558296,0.8,0.0,0.0,318.0,728.0,0.0,1,314.0,1
1160,1160,-0.31255265555392575,-0.3,1.0,0.0,321.0,790.0,1.0,1,-51.0,0
1161,1161,0.24940603955934904,0.2,1.0,1.0,347.0,935.0,1.0,1,268.0,1
1162,1162,0.5034148730825733,0.5,1.0,1.0,327.0,517.0,1.0,1,276.0,1
1163,1163,-0.3143500919022598,-0.3,1.0,0.0,435.0,543.0,0.0,0,502.0,1
1164,1164,0.30736992936400875,0.3,1.0,1.0,262.0,805.0,1.0,1,263.0,1
1165,1165,0.2806284690797457,0.3,0.0,0.0,303.0,602.0,0.0,1,285.0,1
1166,1166,0.07124171080259467,0.1,1.0,1.0,385.0,765.0,1.0,1,40.0,1
1167,1167,0.25369794554394287,0.3,0.0,0.0,307.0,757.0,0.0,1,516.0,1
1168,1168,0.16623243781977404,0.2,0.0,0.0,343.0,617.0,0.0,1,790.0,1
1169,1169,-0.5196322491152989,-0.5,1.0,0.0,408.0,781.0,0.0,0,341.0,1
1170,1170,-0.8526029287017334,-0.9,0.0,1.0,341.0,804.0,1.0,0,185.0,1
1171,1171,-0.5999303045493284,-0.6,1.0,0.0,478.0,987.0,0.0,0,555.0,1
1172,1172,-0.8353193673334043,-0.8,0.0,1.0,474.0,577.0,1.0,0,189.0,1
1173,1173,0.4847004605081443,0.5,0.0,0.0,310.0,900.0,0.0,1,1510.0,1
1174,1174,0.22395947266564165,0.2,0.0,0.0,481.0,550.0,0.0,1,1969.0,1
1175,1175,-0.4680954803267418,-0.5,0.0,1.0,460.0,844.0,1.0,0,746.0,1
1176,1176,0.029930328307571585,0.0,1.0,1.0,460.0,502.0,1.0,1,2038.0,1
1177,1177,0.4900838527485948,0.5,0.0,0.0,393.0,718.0,0.0,1,339.0,1
1178,1178,-0.40410481900196354,-0.4,1.0,0.0,433.0,991.0,1.0,1,-384.0,0
1179,1179,-0.48679544913046346,-0.5,1.0,0.0,370.0,882.0,0.0,0,328.0,1
1180,1180,0.826954351643531,0.8,1.0,1.0,317.0,949.0,1.0,1,194.0,1
1181,1181,-0.10074154116026546,-0.1,1.0,0.0,341.0,540.0,1.0,1,-91.0,0
1182,1182,0.7969594732167168,0.8,1.0,1.0,291.0,786.0,1.0,1,53.0,1
1183,1183,-0.07692985839186017,-0.1,0.0,1.0,261.0,715.0,1.0,0,1394.0,1
1184,1184,-0.8712335395645247,-0.9,1.0,0.0,477.0,617.0,0.0,0,386.0,1
1185,1185,-0.2629269125789726,-0.3,0.0,1.0,425.0,993.0,1.0,0,392.0,1
1186,1186,-0.11800783535253645,-0.1,1.0,0.0,319.0,568.0,0.0,0,683.0,1
1187,1187,0.2753361604284107,0.3,0.0,0.0,401.0,590.0,0.0,1,1019.0,1
1188,1188,0.32385876358769206,0.3,0.0,0.0,379.0,949.0,0.0,1,672.0,1
1189,1189,0.3994724631942087,0.4,1.0,1.0,374.0,954.0,1.0,1,222.0,1
1190,1190,0.6827972462267943,0.7,0.0,0.0,457.0,603.0,0.0,1,390.0,1
1191,1191,-0.8072427755275734,-0.8,1.0,0.0,490.0,745.0,0.0,0,215.0,1
1192,1192,-0.2053147969767284,-0.2,0.0,1.0,265.0,713.0,1.0,0,1072.0,1
1193,1193,0.1695192566013387,0.2,0.0,0.0,347.0,836.0,0.0,1,1817.0,1
1194,1194,0.23305914463533195,0.2,1.0,1.0,480.0,895.0,1.0,1,95.0,1
1195,1195,0.17017243185832764,0.2,0.0,0.0,444.0,505.0,0.0,1,1861.0,1
1196,1196,0.106365075232293,0.1,0.0,0.0,371.0,935.0,0.0,1,1694.0,1
1197,1197,0.4785999074728021,0.5,1.0,1.0,327.0,892.0,1.0,1,401.0,1
1198,1198,-0.24006946448004463,-0.2,0.0,1.0,443.0,892.0,1.0,0,755.0,1
1199,1199,0.7614532752015274,0.8,0.0,0.0,282.0,958.0,0.0,1,270.0,1
1200,1200,-0.11809866069962072,-0.1,0.0,1.0,253.0,870.0,1.0,0,857.0,1
1201,1201,-0.07890912399204175,-0.1,1.0,0.0,438.0,889.0,0.0,0,1673.0,1
1202,1202,0.7531898123383268,0.8,0.0,0.0,252.0,792.0,0.0,1,346.0,1
1203,1203,-0.030624727903237448,-0.0,1.0,0.0,256.0,840.0,1.0,1,224.0,0
1204,1204,-0.06108191547625308,-0.1,0.0,1.0,404.0,542.0,1.0,0,1034.0,1
1205,1205,-0.7793668927566435,-0.8,1.0,0.0,302.0,837.0,0.0,0,231.0,1
1206,1206,-0.4267201706241226,-0.4,1.0,0.0,486.0,682.0,0.0,0,312.0,1
1207,1207,0.353417002352706,0.4,0.0,0.0,335.0,864.0,0.0,1,1231.0,1
1208,1208,-0.10281172764460922,-0.1,1.0,0.0,361.0,878.0,1.0,1,-69.0,0
1209,1209,0.20503501542667835,0.2,1.0,1.0,473.0,982.0,1.0,1,-395.0,1
1210,1210,-0.5954448911993125,-0.6,0.0,1.0,437.0,615.0,1.0,0,238.0,1
1211,1211,0.43443438676030055,0.4,0.0,0.0,283.0,749.0,0.0,1,1058.0,1
1212,1212,-0.267061475155675,-0.3,0.0,1.0,482.0,595.0,1.0,0,313.0,1
1213,1213,-0.48766074974970547,-0.5,0.0,1.0,441.0,710.0,1.0,0,569.0,1
1214,1214,-0.1268121348604596,-0.1,1.0,0.0,288.0,806.0,1.0,1,716.0,0
1215,1215,-0.767388805840905,-0.8,1.0,0.0,366.0,750.0,0.0,0,264.0,1
1216,1216,0.7716075145969693,0.8,0.0,0.0,421.0,689.0,0.0,1,350.0,1
1217,1217,0.8929390086369228,0.9,0.0,0.0,489.0,764.0,0.0,1,157.0,1
1218,1218,0.3080568305160455,0.3,0.0,0.0,292.0,998.0,0.0,1,1280.0,1
1219,1219,0.170240735987789,0.2,1.0,1.0,311.0,899.0,1.0,1,640.0,1
1220,1220,0.2611859764473382,0.3,1.0,1.0,314.0,578.0,1.0,1,228.0,1
1221,1221,-0.7675738250132954,-0.8,1.0,0.0,452.0,562.0,0.0,0,236.0,1
1222,1222,0.3327080506900967,0.3,1.0,1.0,427.0,560.0,1.0,1,393.0,1
1223,1223,-0.6060042919866842,-0.6,1.0,0.0,361.0,552.0,1.0,1,-83.0,0
1224,1224,0.34271030539571445,0.3,0.0,0.0,435.0,536.0,0.0,1,409.0,1
1225,1225,-0.29809013832031817,-0.3,1.0,0.0,265.0,757.0,1.0,1,-112.0,0
1226,1226,0.32793658810100046,0.3,1.0,1.0,408.0,802.0,1.0,1,-290.0,1
1227,1227,0.8588828864537897,0.9,1.0,1.0,491.0,500.0,1.0,1,289.0,1
1228,1228,-0.7308321532049092,-0.7,1.0,0.0,406.0,750.0,0.0,0,184.0,1
1229,1229,-0.8456830710004838,-0.8,0.0,1.0,435.0,814.0,1.0,0,251.0,1
1230,1230,0.6265504426286944,0.6,1.0,1.0,263.0,502.0,1.0,1,195.0,1
1231,1231,0.6123917937592015,0.6,0.0,0.0,382.0,871.0,0.0,1,217.0,1
1232,1232,-0.058578916018815264,-0.1,0.0,1.0,427.0,919.0,1.0,0,1654.0,1
1233,1233,0.6696049138618564,0.7,1.0,1.0,274.0,565.0,1.0,1,291.0,1
1234,1234,-0.8428834540189876,-0.8,0.0,1.0,339.0,637.0,1.0,0,174.0,1
1235,1235,-0.3261111285804227,-0.3,0.0,1.0,444.0,594.0,1.0,0,162.0,1
1236,1236,0.8527143059214098,0.9,1.0,1.0,296.0,852.0,1.0,1,162.0,1
1237,1237,-0.156242622430663,-0.2,1.0,0.0,476.0,930.0,1.0,1,1594.0,0
1238,1238,0.18205815035221418,0.2,0.0,0.0,495.0,748.0,0.0,1,1757.0,1
1239,1239,0.8000929936115234,0.8,1.0,1.0,360.0,685.0,1.0,1,165.0,1
1240,1240,0.18620197426818053,0.2,1.0,1.0,447.0,748.0,1.0,1,25.0,1
1241,1241,-0.13853487282934307,-0.1,0.0,1.0,437.0,518.0,1.0,0,845.0,1
1242,1242,0.29551589799447775,0.3,0.0,0.0,429.0,544.0,0.0,1,1047.0,1
1243,1243,-0.7299747391245828,-0.7,1.0,0.0,264.0,765.0,1.0,1,-279.0,0
1244,1244,-0.6159986910645852,-0.6,0.0,1.0,280.0,655.0,1.0,0,185.0,1
1245,1245,-0.3587694748160174,-0.4,0.0,1.0,319.0,650.0,1.0,0,471.0,1
1246,1246,0.1553820425259177,0.2,0.0,0.0,330.0,653.0,0.0,1,2007.0,1
1247,1247,0.10264549644124721,0.1,0.0,0.0,496.0,668.0,0.0,1,1836.0,1
1248,1248,0.296276361236094,0.3,0.0,0.0,319.0,927.0,0.0,1,1554.0,1
1249,1249,-0.08942912105228318,-0.1,1.0,0.0,321.0,924.0,0.0,0,255.0,1
1250,1250,-0.11600596623068704,-0.1,0.0,1.0,315.0,924.0,1.0,0,721.0,1
1251,1251,0.3139538674998005,0.3,0.0,0.0,358.0,998.0,0.0,1,914.0,1
1252,1252,0.3754799889803647,0.4,1.0,1.0,475.0,720.0,1.0,1,45.0,1
1253,1253,0.29848292601118775,0.3,1.0,1.0,412.0,941.0,1.0,1,-183.0,1
1254,1254,0.8012188906229826,0.8,0.0,0.0,447.0,739.0,0.0,1,124.0,1
1255,1255,0.2263912732397616,0.2,0.0,0.0,487.0,625.0,0.0,1,1768.0,1
1256,1256,-0.07459868058439689,-0.1,1.0,0.0,496.0,912.0,1.0,1,1592.0,0
1257,1257,-0.18225569668653185,-0.2,0.0,1.0,348.0,579.0,1.0,0,643.0,1
1258,1258,-0.7691837427119564,-0.8,0.0,1.0,298.0,861.0,1.0,0,221.0,1
1259,1259,-0.635068587776051,-0.6,1.0,0.0,346.0,706.0,0.0,0,128.0,1
1260,1260,-0.47205218702995033,-0.5,0.0,1.0,256.0,842.0,1.0,0,332.0,1
1261,1261,0.38230959085795735,0.4,0.0,0.0,391.0,600.0,0.0,1,859.0,1
1262,1262,-0.1275060797590314,-0.1,1.0,0.0,475.0,851.0,1.0,1,1674.0,0
1263,1263,-0.804547445267018,-0.8,0.0,1.0,287.0,662.0,1.0,0,361.0,1
1264,1264,0.13596988675347987,0.1,1.0,1.0,423.0,619.0,1.0,1,548.0,1
1265,1265,0.23467312920545969,0.2,1.0,1.0,451.0,766.0,1.0,1,303.0,1
1266,1266,0.7927995453205429,0.8,1.0,1.0,426.0,689.0,1.0,1,305.0,1
1267,1267,0.7437687619463061,0.7,0.0,0.0,448.0,688.0,0.0,1,434.0,1
1268,1268,0.6076901105933624,0.6,0.0,0.0,373.0,870.0,0.0,1,167.0,1
1269,1269,0.1417283061183553,0.1,0.0,0.0,310.0,536.0,0.0,1,2154.0,1
1270,1270,0.46335819171169257,0.5,1.0,1.0,399.0,510.0,1.0,1,251.0,1
1271,1271,0.02352140047214124,0.0,0.0,0.0,326.0,545.0,1.0,0,2129.0,0
1272,1272,0.038320274661204246,0.0,0.0,0.0,251.0,516.0,0.0,1,2233.0,1
1273,1273,0.5068066491211866,0.5,0.0,0.0,268.0,623.0,0.0,1,369.0,1
1274,1274,0.14803481180419775,0.1,1.0,1.0,360.0,868.0,1.0,1,232.0,1
1275,1275,-0.8970564348665878,-0.9,1.0,0.0,488.0,518.0,0.0,0,264.0,1
1276,1276,0.18738637606966113,0.2,1.0,1.0,424.0,612.0,1.0,1,484.0,1
1277,1277,0.1519426929601707,0.2,1.0,1.0,396.0,801.0,1.0,1,453.0,1
1278,1278,-0.03184833813243926,-0.0,0.0,1.0,376.0,841.0,1.0,0,1783.0,1
1279,1279,-0.434134893837458,-0.4,0.0,1.0,499.0,500.0,1.0,0,331.0,1
1280,1280,-0.7018082893446907,-0.7,1.0,0.0,263.0,727.0,1.0,1,-220.0,0
1281,1281,-0.8290672279640467,-0.8,0.0,1.0,376.0,771.0,1.0,0,193.0,1
1282,1282,0.6166714173007223,0.6,0.0,0.0,423.0,865.0,0.0,1,262.0,1
1283,1283,-0.40723542499682636,-0.4,0.0,1.0,355.0,878.0,1.0,0,627.0,1
1284,1284,0.5502034541324899,0.6,0.0,0.0,411.0,529.0,0.0,1,210.0,1
1285,1285,0.7221410169123809,0.7,1.0,1.0,484.0,528.0,1.0,1,138.0,1
1286,1286,0.7823483217781461,0.8,1.0,1.0,272.0,682.0,1.0,1,166.0,1
1287,1287,-0.40686871037923444,-0.4,1.0,0.0,450.0,954.0,0.0,0,376.0,1
1288,1288,-0.12578022692212798,-0.1,1.0,0.0,414.0,805.0,1.0,1,-39.0,0
1289,1289,-0.1348836425606409,-0.1,0.0,1.0,345.0,853.0,1.0,0,302.0,1
1290,1290,-0.5269397370953153,-0.5,1.0,0.0,359.0,749.0,0.0,0,512.0,1
1291,1291,0.8524207158168061,0.9,0.0,0.0,276.0,725.0,0.0,1,239.0,1
1292,1292,-0.5362385558891378,-0.5,0.0,1.0,372.0,812.0,1.0,0,206.0,1
1293,1293,0.5083308470469347,0.5,0.0,0.0,459.0,771.0,0.0,1,1180.0,1
1294,1294,-0.4346350300215723,-0.4,1.0,0.0,270.0,864.0,1.0,1,-44.0,0
1295,1295,0.8126624213520538,0.8,0.0,0.0,254.0,927.0,0.0,1,259.0,1
1296,1296,-0.7320720480776091,-0.7,1.0,0.0,268.0,548.0,0.0,0,524.0,1
1297,1297,0.27125241046765514,0.3,1.0,1.0,426.0,958.0,1.0,1,276.0,1
1298,1298,0.38305099949406063,0.4,1.0,1.0,413.0,597.0,1.0,1,370.0,1
1299,1299,-0.5547592814144426,-0.6,0.0,1.0,353.0,966.0,1.0,0,221.0,1
1300,1300,0.29727109757575343,0.3,1.0,1.0,340.0,752.0,1.0,1,288.0,1
1301,1301,0.3188454301238436,0.3,0.0,0.0,277.0,824.0,0.0,1,869.0,1
1302,1302,-0.8978708111950232,-0.9,0.0,1.0,483.0,632.0,1.0,0,185.0,1
1303,1303,-0.2684198935356388,-0.3,0.0,1.0,296.0,894.0,1.0,0,720.0,1
1304,1304,0.8628216930344986,0.9,0.0,0.0,286.0,509.0,0.0,1,165.0,1
1305,1305,-0.585790055857105,-0.6,0.0,1.0,388.0,677.0,1.0,0,685.0,1
1306,1306,0.5584402260256381,0.6,0.0,0.0,331.0,793.0,0.0,1,446.0,1
1307,1307,0.27875030239085297,0.3,0.0,0.0,411.0,900.0,0.0,1,569.0,1
1308,1308,0.8022125766156106,0.8,1.0,1.0,414.0,765.0,0.0,0,-279.0,0
1309,1309,0.7903183278275813,0.8,0.0,0.0,290.0,564.0,0.0,1,216.0,1
1310,1310,-0.24342663008490184,-0.2,1.0,0.0,442.0,534.0,0.0,0,2024.0,1
1311,1311,0.24189486423004303,0.2,0.0,0.0,276.0,989.0,0.0,1,1285.0,1
1312,1312,0.040881454909848625,0.0,0.0,0.0,325.0,991.0,1.0,0,1574.0,0
1313,1313,0.4804739794266367,0.5,1.0,1.0,371.0,659.0,1.0,1,310.0,1
1314,1314,0.0786686304489318,0.1,1.0,1.0,458.0,649.0,1.0,1,-157.0,1
1315,1315,0.07593273219639751,0.1,1.0,1.0,462.0,977.0,1.0,1,-519.0,1
1316,1316,0.37994297716019754,0.4,0.0,0.0,402.0,954.0,0.0,1,994.0,1
1317,1317,0.8900666381259917,0.9,1.0,1.0,279.0,938.0,1.0,1,-217.0,1
1318,1318,0.8506352648085352,0.9,0.0,0.0,482.0,817.0,0.0,1,211.0,1
1319,1319,-0.24982201533765713,-0.2,1.0,0.0,285.0,517.0,0.0,0,2198.0,1
1320,1320,-0.07413516712111778,-0.1,0.0,1.0,305.0,591.0,1.0,0,1154.0,1
1321,1321,0.8514494414721357,0.9,0.0,0.0,497.0,848.0,0.0,1,215.0,1
1322,1322,-0.15643478561106006,-0.2,1.0,0.0,478.0,751.0,1.0,1,1771.0,0
1323,1323,-0.03955543231279346,-0.0,0.0,1.0,365.0,967.0,1.0,0,1668.0,1
1324,1324,0.5049169632642877,0.5,0.0,0.0,407.0,918.0,0.0,1,295.0,1
1325,1325,-0.4536848278504865,-0.5,0.0,1.0,303.0,573.0,1.0,0,534.0,1
1326,1326,-0.771957205543703,-0.8,1.0,0.0,263.0,954.0,0.0,0,363.0,1
1327,1327,-0.13503166392864396,-0.1,0.0,1.0,423.0,561.0,1.0,0,706.0,1
1328,1328,-0.20448405014434878,-0.2,0.0,1.0,301.0,752.0,1.0,0,97.0,1
1329,1329,-0.6365674033787989,-0.6,1.0,0.0,374.0,676.0,1.0,1,-80.0,0
1330,1330,-0.06566593712859126,-0.1,1.0,0.0,381.0,990.0,0.0,0,1629.0,1
1331,1331,0.5634402320380208,0.6,1.0,1.0,475.0,903.0,1.0,1,222.0,1
1332,1332,-0.005447555568503737,-0.0,1.0,0.0,353.0,944.0,1.0,1,1703.0,0
1333,1333,0.2140924590417158,0.2,0.0,0.0,438.0,673.0,0.0,1,1889.0,1
1334,1334,0.7890011081434464,0.8,0.0,0.0,492.0,865.0,0.0,1,283.0,1
1335,1335,0.506480610428162,0.5,1.0,1.0,268.0,577.0,1.0,1,255.0,1
1336,1336,-0.7216782362793823,-0.7,1.0,0.0,324.0,772.0,0.0,0,124.0,1
1337,1337,-0.03871463870163283,-0.0,1.0,0.0,364.0,947.0,1.0,1,1289.0,0
1338,1338,0.4655288537110188,0.5,0.0,0.0,470.0,632.0,0.0,1,848.0,1
1339,1339,-0.5265665559901002,-0.5,0.0,1.0,368.0,784.0,1.0,0,248.0,1
1340,1340,0.14579152848019572,0.1,0.0,0.0,322.0,723.0,0.0,1,655.0,1
1341,1341,-0.7074619440859576,-0.7,0.0,1.0,317.0,677.0,1.0,0,116.0,1
1342,1342,0.5273997683377912,0.5,0.0,0.0,254.0,959.0,0.0,1,407.0,1
1343,1343,-0.7474905213056033,-0.7,0.0,1.0,412.0,775.0,1.0,0,203.0,1
1344,1344,-0.8092901654367484,-0.8,0.0,1.0,392.0,610.0,1.0,0,228.0,1
1345,1345,0.2072540743609056,0.2,1.0,1.0,361.0,859.0,1.0,1,210.0,1
1346,1346,-0.06382895686441836,-0.1,0.0,1.0,455.0,639.0,1.0,0,1906.0,1
1347,1347,0.011340750884414441,0.0,0.0,0.0,438.0,671.0,1.0,0,811.0,0
1348,1348,0.1921004861864407,0.2,1.0,1.0,382.0,604.0,1.0,1,1044.0,1
1349,1349,-0.8658714602059732,-0.9,1.0,0.0,367.0,553.0,0.0,0,110.0,1
1350,1350,-0.8665576227193744,-0.9,1.0,0.0,499.0,639.0,0.0,0,232.0,1
1351,1351,0.5607159009076518,0.6,1.0,1.0,256.0,754.0,1.0,1,500.0,1
1352,1352,0.5804156756029552,0.6,0.0,0.0,389.0,730.0,0.0,1,401.0,1
1353,1353,0.6056780761854149,0.6,1.0,1.0,477.0,753.0,1.0,1,200.0,1
1354,1354,0.3143932587989876,0.3,0.0,0.0,380.0,636.0,0.0,1,504.0,1
1355,1355,-0.04992004844806941,-0.0,1.0,0.0,417.0,833.0,1.0,1,1350.0,0
1356,1356,0.8061308888527575,0.8,0.0,0.0,432.0,536.0,0.0,1,272.0,1
1357,1357,-0.2383772527106035,-0.2,1.0,0.0,394.0,888.0,0.0,0,588.0,1
1358,1358,0.02162367294962264,0.0,0.0,0.0,396.0,766.0,1.0,0,1838.0,0
1359,1359,-0.22413066693226713,-0.2,0.0,1.0,281.0,643.0,1.0,0,546.0,1
1360,1360,0.6237902984714198,0.6,0.0,0.0,484.0,748.0,0.0,1,558.0,1
1361,1361,0.4853762972792678,0.5,1.0,1.0,373.0,932.0,1.0,1,185.0,1
1362,1362,0.7204986478282419,0.7,1.0,1.0,267.0,997.0,1.0,1,36.0,1
1363,1363,-0.19662979805444447,-0.2,0.0,1.0,338.0,820.0,1.0,0,542.0,1
1364,1364,0.14894099782681625,0.1,1.0,1.0,343.0,960.0,1.0,1,1347.0,1
1365,1365,0.8683438457963718,0.9,1.0,1.0,339.0,836.0,1.0,1,45.0,1
1366,1366,-0.7614060861675243,-0.8,0.0,1.0,399.0,969.0,1.0,0,182.0,1
1367,1367,0.4797006270127687,0.5,0.0,0.0,333.0,862.0,0.0,1,535.0,1
1368,1368,-0.6120383880264408,-0.6,0.0,1.0,448.0,620.0,1.0,0,292.0,1
1369,1369,0.7206818835643486,0.7,1.0,1.0,289.0,522.0,1.0,1,209.0,1
1370,1370,0.4804993030753909,0.5,0.0,0.0,449.0,676.0,0.0,1,195.0,1
1371,1371,-0.7005763313654106,-0.7,1.0,0.0,411.0,529.0,0.0,0,1780.0,1
1372,1372,0.21792053915734344,0.2,0.0,0.0,365.0,791.0,0.0,1,684.0,1
1373,1373,-0.5019026030984305,-0.5,1.0,0.0,327.0,632.0,0.0,0,601.0,1
1374,1374,0.7258170265147074,0.7,0.0,0.0,276.0,652.0,0.0,1,302.0,1
1375,1375,-0.10717735839174136,-0.1,0.0,1.0,453.0,565.0,1.0,0,1042.0,1
1376,1376,0.7416196771024214,0.7,0.0,0.0,300.0,703.0,0.0,1,387.0,1
1377,1377,0.05792260548376027,0.1,0.0,0.0,318.0,631.0,0.0,1,2051.0,1
1378,1378,0.41289742972560195,0.4,0.0,0.0,258.0,943.0,0.0,1,369.0,1
1379,1379,-0.08456497493616966,-0.1,0.0,1.0,362.0,590.0,1.0,0,398.0,1
1380,1380,0.5296790872938187,0.5,1.0,1.0,431.0,591.0,1.0,1,238.0,1
1381,1381,0.008380357150550521,0.0,1.0,1.0,395.0,727.0,1.0,1,1878.0,1
1382,1382,0.7959867741946706,0.8,0.0,0.0,376.0,653.0,0.0,1,181.0,1
1383,1383,-0.0033086747579088582,-0.0,1.0,0.0,296.0,895.0,1.0,1,-1.0,0
1384,1384,0.25103479786239846,0.3,1.0,1.0,486.0,952.0,1.0,1,72.0,1
1385,1385,0.7533354223502037,0.8,0.0,0.0,305.0,785.0,0.0,1,170.0,1
1386,1386,0.8766972981706879,0.9,1.0,1.0,408.0,764.0,1.0,1,88.0,1
1387,1387,-0.043148519325739154,-0.0,1.0,0.0,363.0,822.0,1.0,1,65.0,0
1388,1388,-0.23306730726356584,-0.2,0.0,1.0,305.0,662.0,1.0,0,683.0,1
1389,1389,0.7261741539274295,0.7,1.0,1.0,300.0,696.0,1.0,1,244.0,1
1390,1390,0.3942012527511355,0.4,0.0,0.0,377.0,931.0,0.0,1,342.0,1
1391,1391,-0.552019066424789,-0.6,1.0,0.0,476.0,599.0,0.0,0,795.0,1
1392,1392,0.1622852450974236,0.2,1.0,1.0,346.0,805.0,1.0,1,629.0,1
1393,1393,-0.8681618336987786,-0.9,1.0,0.0,331.0,811.0,0.0,0,638.0,1
1394,1394,0.09976531900253793,0.1,0.0,0.0,369.0,640.0,0.0,1,1991.0,1
1395,1395,-0.061403321252377685,-0.1,1.0,0.0,251.0,850.0,1.0,1,119.0,0
1396,1396,0.08620952482183986,0.1,0.0,0.0,471.0,681.0,0.0,1,1848.0,1
1397,1397,0.2706303444428525,0.3,0.0,0.0,338.0,986.0,0.0,1,1676.0,1
1398,1398,0.532235519537484,0.5,0.0,0.0,295.0,659.0,0.0,1,356.0,1
1399,1399,-0.8344036458385714,-0.8,0.0,1.0,284.0,976.0,1.0,0,150.0,1
1400,1400,-0.83566013436849,-0.8,0.0,1.0,488.0,875.0,1.0,0,147.0,1
1401,1401,-0.8155634823451802,-0.8,0.0,1.0,475.0,780.0,1.0,0,255.0,1
1402,1402,-0.7348183515950388,-0.7,0.0,1.0,355.0,610.0,1.0,0,255.0,1
1403,1403,0.7250645219851871,0.7,0.0,0.0,260.0,953.0,0.0,1,107.0,1
1404,1404,0.6872222807276208,0.7,1.0,1.0,492.0,543.0,1.0,1,165.0,1
1405,1405,-0.04441714004195929,-0.0,0.0,1.0,423.0,692.0,1.0,0,775.0,1
1406,1406,0.6406420350950023,0.6,0.0,0.0,266.0,774.0,0.0,1,220.0,1
1407,1407,-0.4191094483026275,-0.4,1.0,0.0,362.0,771.0,0.0,0,387.0,1
1408,1408,0.8192397659381797,0.8,0.0,0.0,454.0,965.0,0.0,1,151.0,1
1409,1409,-0.501646857652274,-0.5,1.0,0.0,289.0,699.0,0.0,0,722.0,1
1410,1410,0.4461943165580856,0.4,0.0,0.0,285.0,534.0,0.0,1,731.0,1
1411,1411,0.33863089466497664,0.3,0.0,0.0,275.0,682.0,0.0,1,2043.0,1
1412,1412,-0.48282249215435047,-0.5,1.0,0.0,487.0,615.0,0.0,0,568.0,1
1413,1413,0.25710979369013864,0.3,1.0,1.0,311.0,948.0,1.0,1,-219.0,1
1414,1414,0.7158349464246835,0.7,1.0,1.0,322.0,589.0,1.0,1,259.0,1
1415,1415,0.10788011369750261,0.1,0.0,0.0,342.0,578.0,0.0,1,2080.0,1
1416,1416,0.8921461655495636,0.9,0.0,0.0,296.0,972.0,0.0,1,342.0,1
1417,1417,0.7257999295836145,0.7,0.0,0.0,297.0,753.0,0.0,1,200.0,1
1418,1418,-0.7000740563432308,-0.7,0.0,1.0,279.0,618.0,1.0,0,93.0,1
1419,1419,-0.3824090837040869,-0.4,0.0,1.0,321.0,900.0,1.0,0,299.0,1
1420,1420,-0.21909638759617522,-0.2,1.0,0.0,438.0,720.0,0.0,0,1392.0,1
1421,1421,0.6536457320231127,0.7,1.0,1.0,364.0,751.0,1.0,1,-75.0,1
1422,1422,0.4278827936474999,0.4,0.0,0.0,486.0,530.0,0.0,1,864.0,1
1423,1423,0.47074795737492126,0.5,0.0,0.0,346.0,609.0,0.0,1,655.0,1
1424,1424,0.2159077667107009,0.2,1.0,1.0,323.0,747.0,1.0,1,330.0,1
1425,1425,-0.2376900554865462,-0.2,0.0,1.0,298.0,893.0,1.0,0,529.0,1
1426,1426,-0.06036231555366478,-0.1,0.0,1.0,444.0,777.0,1.0,0,1779.0,1
1427,1427,-0.5019145429057735,-0.5,1.0,0.0,483.0,799.0,1.0,1,-2.0,0
1428,1428,-0.051997414031664024,-0.1,1.0,0.0,480.0,640.0,1.0,1,930.0,0
1429,1429,0.2148745985403967,0.2,1.0,1.0,329.0,605.0,1.0,1,316.0,1
1430,1430,0.5587803264195365,0.6,1.0,1.0,294.0,717.0,1.0,1,89.0,1
1431,1431,0.04990504870733592,0.0,1.0,1.0,399.0,880.0,1.0,1,1721.0,1
1432,1432,0.05817919571183583,0.1,0.0,0.0,470.0,964.0,0.0,1,1566.0,1
1433,1433,0.7214551075652967,0.7,1.0,1.0,337.0,830.0,1.0,1,223.0,1
1434,1434,0.44921860163639293,0.4,1.0,1.0,289.0,792.0,1.0,1,-251.0,1
1435,1435,0.694363406004329,0.7,1.0,1.0,458.0,978.0,1.0,1,34.0,1
1436,1436,-0.8637066610037828,-0.9,0.0,1.0,444.0,637.0,1.0,0,109.0,1
1437,1437,0.5911828228229353,0.6,1.0,1.0,268.0,944.0,1.0,1,-382.0,1
1438,1438,0.8317770744792908,0.8,0.0,0.0,488.0,867.0,0.0,1,165.0,1
1439,1439,-0.16236743543622922,-0.2,0.0,1.0,334.0,606.0,1.0,0,460.0,1
1440,1440,-0.28813317200608213,-0.3,0.0,1.0,318.0,763.0,1.0,0,639.0,1
1441,1441,0.08905915340811388,0.1,1.0,1.0,297.0,721.0,1.0,1,432.0,1
1442,1442,-0.15426926383426787,-0.2,0.0,1.0,487.0,830.0,1.0,0,1213.0,1
1443,1443,-0.03864362573667224,-0.0,1.0,0.0,341.0,681.0,1.0,1,-102.0,0
1444,1444,0.5081161124160115,0.5,1.0,1.0,383.0,903.0,1.0,1,-146.0,1
1445,1445,-0.7878192162552337,-0.8,1.0,0.0,483.0,507.0,0.0,0,300.0,1
1446,1446,0.30119287427065944,0.3,1.0,1.0,447.0,574.0,1.0,1,409.0,1
1447,1447,-0.6563731303809783,-0.7,0.0,1.0,460.0,594.0,1.0,0,286.0,1
1448,1448,-0.39153084632298873,-0.4,0.0,1.0,498.0,868.0,1.0,0,-176.0,1
1449,1449,0.8061518307888066,0.8,1.0,1.0,434.0,821.0,1.0,1,105.0,1
1450,1450,0.46836315201168677,0.5,1.0,1.0,487.0,633.0,1.0,1,190.0,1
1451,1451,-0.6077480054727513,-0.6,1.0,0.0,476.0,808.0,0.0,0,226.0,1
1452,1452,0.5484556218131927,0.5,1.0,1.0,336.0,745.0,1.0,1,99.0,1
1453,1453,0.33029456257108925,0.3,1.0,1.0,288.0,511.0,1.0,1,161.0,1
1454,1454,-0.6784844558943032,-0.7,1.0,0.0,345.0,533.0,0.0,0,402.0,1
1455,1455,0.4911021867932951,0.5,0.0,0.0,371.0,551.0,0.0,1,408.0,1
1456,1456,0.26486957446568626,0.3,0.0,0.0,349.0,780.0,0.0,1,501.0,1
1457,1457,-0.11242322845194808,-0.1,1.0,0.0,345.0,642.0,1.0,1,2013.0,0
1458,1458,-0.152538739494661,-0.2,1.0,0.0,385.0,854.0,1.0,1,41.0,0
1459,1459,-0.5511178623757074,-0.6,1.0,0.0,303.0,660.0,0.0,0,157.0,1
1460,1460,-0.8471451788500177,-0.8,0.0,1.0,315.0,679.0,1.0,0,366.0,1
1461,1461,0.16098522183588815,0.2,0.0,0.0,378.0,524.0,0.0,1,548.0,1
1462,1462,0.07565214351646332,0.1,0.0,0.0,313.0,553.0,0.0,1,2134.0,1
1463,1463,-0.8029519840486938,-0.8,0.0,1.0,393.0,912.0,1.0,0,305.0,1
1464,1464,-0.09898758629095783,-0.1,0.0,1.0,271.0,590.0,1.0,0,769.0,1
1465,1465,0.3604950267606194,0.4,0.0,0.0,289.0,992.0,0.0,1,429.0,1
1466,1466,-0.7473013092295462,-0.7,1.0,0.0,423.0,675.0,0.0,0,292.0,1
1467,1467,-0.09143581332855,-0.1,1.0,0.0,485.0,872.0,1.0,1,453.0,0
1468,1468,-0.6198465882977503,-0.6,0.0,1.0,393.0,589.0,1.0,0,318.0,1
1469,1469,0.44073787843145007,0.4,0.0,0.0,399.0,633.0,0.0,1,1968.0,1
1470,1470,-0.7571046096602598,-0.8,1.0,0.0,451.0,900.0,0.0,0,259.0,1
1471,1471,-0.4900663639990118,-0.5,0.0,1.0,401.0,767.0,1.0,0,272.0,1
1472,1472,0.2301546046014712,0.2,1.0,1.0,463.0,715.0,1.0,1,442.0,1
1473,1473,-0.6976932034970772,-0.7,0.0,1.0,276.0,959.0,1.0,0,165.0,1
1474,1474,-0.11079454204413974,-0.1,0.0,1.0,475.0,601.0,1.0,0,384.0,1
1475,1475,-0.45668918228898636,-0.5,0.0,1.0,370.0,581.0,1.0,0,419.0,1
1476,1476,-0.05339572867827003,-0.1,0.0,1.0,497.0,511.0,1.0,0,1992.0,1
1477,1477,-0.21245108801770762,-0.2,1.0,0.0,373.0,603.0,0.0,0,1174.0,1
1478,1478,0.028517813535930414,0.0,0.0,0.0,290.0,769.0,0.0,1,1941.0,1
1479,1479,-0.7292188051203369,-0.7,1.0,0.0,498.0,727.0,0.0,0,255.0,1
1480,1480,0.602244672396019,0.6,1.0,1.0,312.0,513.0,1.0,1,175.0,1
1481,1481,-0.7062748297133539,-0.7,0.0,1.0,289.0,689.0,1.0,0,142.0,1
1482,1482,0.877555049248601,0.9,1.0,1.0,441.0,828.0,1.0,1,141.0,1
1483,1483,-0.31265524019266844,-0.3,1.0,0.0,332.0,839.0,0.0,0,429.0,1
1484,1484,0.20487075926997933,0.2,0.0,0.0,341.0,975.0,0.0,1,1194.0,1
1485,1485,-0.5410259908156869,-0.5,0.0,1.0,497.0,594.0,1.0,0,609.0,1
1486,1486,-0.6968241840268683,-0.7,1.0,0.0,410.0,542.0,1.0,1,-32.0,0
1487,1487,0.6417284595197162,0.6,1.0,1.0,409.0,814.0,1.0,1,77.0,1
1488,1488,-0.2814905011067481,-0.3,0.0,1.0,412.0,863.0,1.0,0,395.0,1
1489,1489,-0.8928106923039325,-0.9,0.0,1.0,372.0,578.0,1.0,0,200.0,1
1490,1490,0.40490543360085895,0.4,1.0,1.0,316.0,969.0,1.0,1,-625.0,1
