,trial,coherence,coherence_bin,green_side,correct_side,target_onset,checker_onset,decision,green_decision,decision_time,correct_decision
0,0,0.6669900053204613,0.7,0.0,0.0,296.0,631.0,0.0,1,-717.0,1
1,1,-0.14166373672843546,-0.1,0.0,1.0,382.0,878.0,0.0,1,-340.0,0
2,2,0.13969233748112198,0.1,0.0,0.0,479.0,585.0,0.0,1,1716.0,1
3,3,-0.5843089925353453,-0.6,0.0,1.0,418.0,618.0,0.0,1,954.0,0
4,4,-0.8682995712838494,-0.9,0.0,1.0,325.0,867.0,0.0,1,1228.0,0
5,5,0.02197297252720365,0.0,0.0,0.0,289.0,816.0,0.0,1,665.0,1
6,6,-0.830110761510408,-0.8,1.0,0.0,382.0,838.0,1.0,1,3780.0,0
7,7,0.4778458836719849,0.5,0.0,0.0,466.0,754.0,0.0,1,10.0,1
8,8,0.5384428615918427,0.5,0.0,0.0,375.0,989.0,0.0,1,1456.0,1
9,9,0.07734241085739457,0.1,0.0,0.0,417.0,519.0,0.0,1,594.0,1
10,10,-0.8301525106202335,-0.8,0.0,1.0,364.0,752.0,0.0,1,1154.0,0
11,11,0.01711671569962403,0.0,0.0,0.0,408.0,533.0,0.0,1,-891.0,1
12,12,-0.8067098898663004,-0.8,0.0,1.0,362.0,934.0,0.0,1,-916.0,0
13,13,0.006856545863304531,0.0,1.0,1.0,319.0,819.0,0.0,0,-648.0,0
14,14,0.6384235309832699,0.6,1.0,1.0,283.0,511.0,0.0,0,556.0,0
15,15,0.4528052881018779,0.5,0.0,0.0,361.0,754.0,0.0,1,-1025.0,1
16,16,0.16230309691518452,0.2,1.0,1.0,373.0,734.0,1.0,1,3893.0,1
17,17,0.8842200926008285,0.9,1.0,1.0,465.0,832.0,0.0,0,-997.0,0
18,18,-0.01516502054426172,-0.0,1.0,0.0,402.0,749.0,0.0,0,1089.0,1
19,19,0.3342427369937587,0.3,0.0,0.0,451.0,716.0,0.0,1,-437.0,1
20,20,0.8857229786215765,0.9,0.0,0.0,378.0,524.0,0.0,1,-672.0,1
21,21,-0.17599810581718078,-0.2,0.0,1.0,314.0,756.0,0.0,1,1040.0,0
22,22,-0.7618726239998478,-0.8,0.0,1.0,445.0,782.0,0.0,1,-997.0,0
23,23,0.7566674733776965,0.8,0.0,0.0,298.0,532.0,0.0,1,1340.0,1
24,24,0.7248463451151278,0.7,0.0,0.0,339.0,716.0,0.0,1,1985.0,1
25,25,0.41914309654521664,0.4,0.0,0.0,435.0,707.0,0.0,1,208.0,1
26,26,0.7604560732155327,0.8,0.0,0.0,410.0,999.0,0.0,1,901.0,1
27,27,-0.21871367451280255,-0.2,1.0,0.0,447.0,525.0,0.0,0,618.0,1
28,28,-0.583642886040632,-0.6,0.0,1.0,290.0,612.0,0.0,1,-2.0,0
29,29,-0.5462888037670315,-0.5,0.0,1.0,472.0,614.0,0.0,1,704.0,0
30,30,0.4543813476404245,0.5,1.0,1.0,326.0,570.0,0.0,0,34.0,0
31,31,0.8382161005193923,0.8,0.0,0.0,406.0,717.0,1.0,0,-913.0,0
32,32,0.07800852440779027,0.1,0.0,0.0,302.0,747.0,0.0,1,2271.0,1
33,33,0.796150178258718,0.8,1.0,1.0,314.0,952.0,0.0,0,2614.0,0
34,34,-0.7267779167586707,-0.7,0.0,1.0,301.0,756.0,1.0,0,3943.0,1
35,35,-0.2379796957129635,-0.2,1.0,0.0,303.0,869.0,0.0,0,-162.0,1
36,36,0.14491198616059153,0.1,0.0,0.0,395.0,660.0,0.0,1,455.0,1
37,37,-0.6165740515535084,-0.6,1.0,0.0,433.0,864.0,0.0,0,-787.0,1
38,38,0.2548969212487914,0.3,0.0,0.0,435.0,613.0,0.0,1,412.0,1
39,39,-0.18204868429848586,-0.2,1.0,0.0,290.0,815.0,0.0,0,2465.0,1
40,40,-0.19986684083808237,-0.2,1.0,0.0,359.0,795.0,0.0,0,-604.0,1
41,41,0.7028380003825395,0.7,0.0,0.0,268.0,652.0,0.0,1,210.0,1
42,42,-0.4408749500842922,-0.4,0.0,1.0,447.0,802.0,1.0,0,3751.0,1
43,43,-0.7447827745849287,-0.7,0.0,1.0,324.0,677.0,0.0,1,3309.0,0
44,44,-0.3210853350337677,-0.3,0.0,1.0,418.0,674.0,0.0,1,-902.0,0
45,45,0.2117563771056029,0.2,0.0,0.0,379.0,882.0,0.0,1,-551.0,1
46,46,0.00915175285213965,0.0,1.0,1.0,427.0,590.0,0.0,0,1663.0,0
47,47,0.03423240851527021,0.0,1.0,1.0,273.0,695.0,0.0,0,-858.0,0
48,48,0.3398887652455099,0.3,0.0,0.0,289.0,957.0,1.0,0,-1036.0,0
49,49,-0.5473871329247809,-0.5,0.0,1.0,288.0,962.0,0.0,1,2600.0,0
50,50,0.8171538836038549,0.8,0.0,0.0,322.0,873.0,0.0,1,-355.0,1
51,51,0.020677305725310013,0.0,0.0,0.0,312.0,684.0,0.0,1,3464.0,1
52,52,-0.8609889829593271,-0.9,0.0,1.0,311.0,961.0,0.0,1,428.0,0
53,53,0.8615341692020432,0.9,1.0,1.0,394.0,503.0,0.0,0,-67.0,0
54,54,0.04063382418999484,0.0,1.0,1.0,475.0,594.0,0.0,0,2981.0,0
55,55,-0.2849493547294658,-0.3,0.0,1.0,374.0,901.0,0.0,1,225.0,0
56,56,0.528212041572215,0.5,0.0,0.0,468.0,881.0,0.0,1,811.0,1
57,57,-0.12897709951539793,-0.1,1.0,0.0,497.0,676.0,0.0,0,3107.0,1
58,58,-0.1957436723903032,-0.2,0.0,1.0,355.0,835.0,0.0,1,-50.0,0
59,59,-0.8502674714761816,-0.9,1.0,0.0,391.0,692.0,0.0,0,1037.0,1
60,60,-0.7765915473388214,-0.8,1.0,0.0,343.0,591.0,0.0,0,1746.0,1
61,61,0.04630613150473706,0.0,1.0,1.0,474.0,940.0,0.0,0,-74.0,0
62,62,-0.46171553219693356,-0.5,1.0,0.0,439.0,539.0,0.0,0,1772.0,1
63,63,0.5125471105410265,0.5,0.0,0.0,288.0,549.0,0.0,1,1263.0,1
64,64,-0.3355279993395588,-0.3,1.0,0.0,399.0,769.0,0.0,0,-638.0,1
65,65,0.336074489686662,0.3,0.0,0.0,359.0,708.0,0.0,1,2583.0,1
66,66,-0.7570257292881959,-0.8,0.0,1.0,445.0,848.0,1.0,0,3707.0,1
67,67,-0.038859551224524225,-0.0,0.0,1.0,274.0,979.0,1.0,0,3747.0,1
68,68,0.18715505851808578,0.2,0.0,0.0,406.0,705.0,0.0,1,449.0,1
69,69,-0.5543423233654423,-0.6,0.0,1.0,401.0,946.0,0.0,1,-397.0,0
70,70,0.35895369483378736,0.4,1.0,1.0,312.0,636.0,0.0,0,862.0,0
71,71,0.3100068173833458,0.3,1.0,1.0,330.0,705.0,0.0,0,465.0,0
72,72,-0.15516840744336358,-0.2,1.0,0.0,326.0,636.0,0.0,0,2918.0,1
73,73,0.7308985742761899,0.7,0.0,0.0,499.0,676.0,0.0,1,1305.0,1
74,74,0.15760098906195374,0.2,1.0,1.0,494.0,733.0,0.0,0,443.0,0
75,75,-0.372416467368035,-0.4,0.0,1.0,457.0,642.0,0.0,1,-619.0,0
76,76,-0.10968996742320569,-0.1,0.0,1.0,273.0,521.0,0.0,1,-634.0,0
77,77,-0.20798602402047361,-0.2,0.0,1.0,334.0,516.0,1.0,0,4150.0,1
78,78,-0.7026327800196787,-0.7,1.0,0.0,434.0,707.0,0.0,0,-871.0,1
79,79,-0.3452955964075972,-0.3,0.0,1.0,314.0,722.0,0.0,1,874.0,0
80,80,-0.855570513098463,-0.9,1.0,0.0,263.0,717.0,0.0,0,1660.0,1
81,81,-0.6630904006025854,-0.7,0.0,1.0,496.0,761.0,0.0,1,3743.0,0
82,82,0.41185909477930716,0.4,1.0,1.0,290.0,792.0,1.0,1,3918.0,1
83,83,-0.39661993160991527,-0.4,0.0,1.0,442.0,831.0,0.0,1,-563.0,0
84,84,0.37585686589019607,0.4,1.0,1.0,275.0,836.0,0.0,0,-1061.0,0
85,85,0.6388131216841036,0.6,1.0,1.0,393.0,794.0,0.0,0,1813.0,0
86,86,-0.6849766307696401,-0.7,0.0,1.0,452.0,987.0,0.0,1,-1209.0,0
87,87,0.6303231402841453,0.6,1.0,1.0,460.0,788.0,0.0,0,672.0,0
88,88,0.42706603555990863,0.4,0.0,0.0,446.0,848.0,0.0,1,566.0,1
89,89,0.5723336988528122,0.6,1.0,1.0,426.0,742.0,0.0,0,3832.0,0
90,90,-0.4868421759986598,-0.5,1.0,0.0,471.0,910.0,0.0,0,919.0,1
91,91,0.46853419541700914,0.5,1.0,1.0,319.0,956.0,0.0,0,-1125.0,0
92,92,-0.377366050833735,-0.4,0.0,1.0,484.0,783.0,0.0,1,-1227.0,0
93,93,-0.0345298601706977,-0.0,0.0,1.0,344.0,680.0,0.0,1,2816.0,0
94,94,-0.5517803497866184,-0.6,1.0,0.0,302.0,832.0,0.0,0,36.0,1
95,95,0.14054494727479472,0.1,0.0,0.0,266.0,771.0,0.0,1,1393.0,1
96,96,-0.5538863770398255,-0.6,0.0,1.0,494.0,517.0,0.0,1,-151.0,0
97,97,0.494907860244309,0.5,0.0,0.0,348.0,604.0,0.0,1,338.0,1
98,98,-0.8472779361527752,-0.8,1.0,0.0,434.0,983.0,0.0,0,1293.0,1
99,99,0.5597823363981443,0.6,1.0,1.0,309.0,586.0,0.0,0,-95.0,0
100,100,-0.3120041691841061,-0.3,0.0,1.0,362.0,952.0,0.0,1,-614.0,0
101,101,-0.14371190254586408,-0.1,0.0,1.0,424.0,877.0,0.0,1,-361.0,0
102,102,-0.7471208610645519,-0.7,0.0,1.0,305.0,812.0,0.0,1,273.0,0
103,103,0.6609196039493238,0.7,0.0,0.0,289.0,662.0,0.0,1,-791.0,1
104,104,0.3252442231614733,0.3,0.0,0.0,403.0,639.0,0.0,1,1478.0,1
105,105,0.0024321479703977023,0.0,0.0,0.0,300.0,638.0,1.0,0,4062.0,0
106,106,-0.16660083140279947,-0.2,0.0,1.0,466.0,539.0,0.0,1,2105.0,0
107,107,0.03748371410426066,0.0,1.0,1.0,315.0,936.0,0.0,0,-971.0,0
108,108,0.8941987858958483,0.9,1.0,1.0,464.0,929.0,0.0,0,37.0,0
109,109,0.5634694421193286,0.6,1.0,1.0,309.0,674.0,1.0,1,4017.0,1
110,110,0.5460664304942432,0.5,0.0,0.0,370.0,664.0,0.0,1,-204.0,1
111,111,-0.25105699607976295,-0.3,0.0,1.0,323.0,780.0,0.0,1,-263.0,0
112,112,-0.8689917289806176,-0.9,1.0,0.0,345.0,564.0,0.0,0,-219.0,1
113,113,-0.1170458879971592,-0.1,1.0,0.0,481.0,552.0,0.0,0,577.0,1
114,114,0.029722148991913278,0.0,0.0,0.0,417.0,815.0,0.0,1,-682.0,1
115,115,-0.864045706051564,-0.9,0.0,1.0,486.0,542.0,0.0,1,792.0,0
116,116,0.12158263337930053,0.1,1.0,1.0,464.0,575.0,0.0,0,-149.0,0
117,117,0.3614848324974994,0.4,1.0,1.0,373.0,783.0,0.0,0,3064.0,0
118,118,-0.8784146879195942,-0.9,1.0,0.0,279.0,642.0,0.0,0,1069.0,1
119,119,-0.24888376589510197,-0.2,0.0,1.0,284.0,506.0,1.0,0,4210.0,1
120,120,-0.7614635545491495,-0.8,1.0,0.0,299.0,714.0,0.0,0,3277.0,1
121,121,-0.8292948850969158,-0.8,0.0,1.0,252.0,713.0,0.0,1,1345.0,0
122,122,-0.3100830748085598,-0.3,0.0,1.0,344.0,906.0,0.0,1,2630.0,0
123,123,0.8094976975651348,0.8,1.0,1.0,397.0,867.0,0.0,0,2776.0,0
124,124,0.2646450901855443,0.3,0.0,0.0,280.0,519.0,0.0,1,121.0,1
125,125,-0.6781045471843302,-0.7,0.0,1.0,475.0,807.0,0.0,1,-1212.0,0
126,126,-0.687277283918993,-0.7,0.0,1.0,467.0,579.0,1.0,0,3954.0,1
127,127,-0.8847970697613122,-0.9,1.0,0.0,292.0,564.0,0.0,0,-176.0,1
128,128,0.7542085903384238,0.8,1.0,1.0,437.0,500.0,0.0,0,1803.0,0
129,129,-0.8767068013802405,-0.9,1.0,0.0,331.0,776.0,0.0,0,253.0,1
130,130,-0.6858557103212464,-0.7,0.0,1.0,260.0,636.0,0.0,1,2444.0,0
131,131,0.8927715743609553,0.9,1.0,1.0,333.0,678.0,1.0,1,3989.0,1
132,132,-0.43450008764032616,-0.4,1.0,0.0,420.0,754.0,0.0,0,-334.0,1
133,133,-0.8078468563678123,-0.8,1.0,0.0,388.0,974.0,0.0,0,88.0,1
134,134,-0.12130642149431403,-0.1,0.0,1.0,436.0,973.0,0.0,1,191.0,0
135,135,0.8029414375815443,0.8,0.0,0.0,403.0,863.0,0.0,1,1034.0,1
136,136,-0.8458715878961272,-0.8,0.0,1.0,477.0,747.0,0.0,1,-464.0,0
137,137,0.21455909544113128,0.2,1.0,1.0,401.0,903.0,0.0,0,1566.0,0
138,138,0.3905837882506561,0.4,0.0,0.0,325.0,618.0,0.0,1,4057.0,1
139,139,-0.061467156434968806,-0.1,1.0,0.0,428.0,817.0,0.0,0,-305.0,1
140,140,-0.6573671326816365,-0.7,1.0,0.0,403.0,690.0,0.0,0,807.0,1
141,141,0.23064297754762542,0.2,1.0,1.0,481.0,711.0,0.0,0,88.0,0
142,142,0.30391933064013654,0.3,1.0,1.0,400.0,733.0,0.0,0,1697.0,0
143,143,-0.39383316263188395,-0.4,0.0,1.0,307.0,800.0,0.0,1,1573.0,0
144,144,-0.4816558352024002,-0.5,1.0,0.0,399.0,787.0,0.0,0,2174.0,1
145,145,0.6884441266553397,0.7,1.0,1.0,408.0,622.0,0.0,0,340.0,0
146,146,-0.23544497029985734,-0.2,1.0,0.0,267.0,881.0,0.0,0,552.0,1
147,147,0.7184861642366288,0.7,0.0,0.0,421.0,689.0,0.0,1,1930.0,1
148,148,0.003800001580227308,0.0,0.0,0.0,415.0,622.0,0.0,1,3273.0,1
149,149,-0.40490126747036076,-0.4,1.0,0.0,480.0,570.0,0.0,0,300.0,1
150,150,0.4650018313772263,0.5,1.0,1.0,363.0,833.0,0.0,0,1594.0,0
151,151,0.5736644391976872,0.6,1.0,1.0,260.0,515.0,0.0,0,475.0,0
152,152,0.21328835443422622,0.2,1.0,1.0,360.0,887.0,0.0,0,1253.0,0
153,153,0.8318094213777624,0.8,1.0,1.0,264.0,748.0,0.0,0,208.0,0
154,154,-0.15227593719562726,-0.2,0.0,1.0,443.0,899.0,0.0,1,-92.0,0
155,155,0.1810437176128722,0.2,0.0,0.0,255.0,855.0,0.0,1,930.0,1
156,156,-0.4547014773766486,-0.5,1.0,0.0,460.0,905.0,0.0,0,-1085.0,1
157,157,-0.5804221558774934,-0.6,0.0,1.0,334.0,594.0,0.0,1,-858.0,0
158,158,0.3728135381032095,0.4,0.0,0.0,326.0,587.0,0.0,1,4087.0,1
159,159,0.5514789656125282,0.6,0.0,0.0,412.0,985.0,0.0,1,2893.0,1
160,160,0.5391647699831242,0.5,1.0,1.0,287.0,866.0,0.0,0,-143.0,0
161,161,0.8117835269171226,0.8,1.0,1.0,395.0,885.0,0.0,0,-730.0,0
162,162,-0.4633310769361289,-0.5,0.0,1.0,456.0,646.0,1.0,0,3898.0,1
163,163,0.12770687816737192,0.1,1.0,1.0,405.0,567.0,0.0,0,-682.0,0
164,164,-0.28131498505355435,-0.3,1.0,0.0,462.0,500.0,0.0,0,-902.0,1
165,165,0.4211070655983612,0.4,1.0,1.0,252.0,977.0,1.0,1,3771.0,1
166,166,0.8528070753026206,0.9,1.0,1.0,267.0,710.0,0.0,0,-637.0,0
167,167,-0.33108374754171566,-0.3,1.0,0.0,295.0,990.0,0.0,0,105.0,1
168,168,-0.5774548683956264,-0.6,0.0,1.0,440.0,748.0,0.0,1,-28.0,0
169,169,-0.4563956699554233,-0.5,1.0,0.0,315.0,513.0,0.0,0,4172.0,1
170,170,-0.46245729017571174,-0.5,1.0,0.0,359.0,993.0,0.0,0,-1112.0,1
171,171,0.6681989936852223,0.7,0.0,0.0,296.0,615.0,0.0,1,-61.0,1
172,172,-0.4310403469187107,-0.4,1.0,0.0,272.0,686.0,0.0,0,1392.0,1
173,173,0.6155398931526864,0.6,0.0,0.0,455.0,877.0,0.0,1,738.0,1
174,174,0.6780271713092968,0.7,1.0,1.0,332.0,895.0,0.0,0,-707.0,0
175,175,-0.6695379195386778,-0.7,0.0,1.0,350.0,524.0,0.0,1,-764.0,0
176,176,0.611775728596904,0.6,1.0,1.0,318.0,884.0,0.0,0,-1072.0,0
177,177,0.009674903842374571,0.0,0.0,0.0,353.0,734.0,0.0,1,-257.0,1
178,178,-0.09395608176120507,-0.1,0.0,1.0,448.0,529.0,0.0,1,2843.0,0
179,179,0.5926119843259646,0.6,1.0,1.0,386.0,910.0,0.0,0,3484.0,0
180,180,0.26238576569356253,0.3,1.0,1.0,397.0,836.0,0.0,0,57.0,0
181,181,-0.617006055791047,-0.6,1.0,0.0,445.0,841.0,0.0,0,444.0,1
182,182,-0.6267609734243327,-0.6,0.0,1.0,425.0,917.0,0.0,1,-1202.0,0
183,183,-0.7452903360439771,-0.7,0.0,1.0,463.0,661.0,1.0,0,256.0,1
184,184,-0.7584294550113718,-0.8,1.0,0.0,344.0,783.0,0.0,0,2323.0,1
185,185,-0.4358455512690264,-0.4,1.0,0.0,458.0,733.0,0.0,0,1359.0,1
186,186,-0.6706553797598217,-0.7,1.0,0.0,456.0,935.0,0.0,0,3609.0,1
187,187,-0.48624175201892833,-0.5,1.0,0.0,316.0,526.0,0.0,0,2408.0,1
188,188,-0.01896060481321682,-0.0,0.0,1.0,287.0,892.0,1.0,0,3821.0,1
189,189,-0.5395260466978182,-0.5,1.0,0.0,422.0,506.0,0.0,0,392.0,1
190,190,-0.2688879436559255,-0.3,0.0,1.0,399.0,772.0,1.0,0,3829.0,1
191,191,0.16551119290168137,0.2,0.0,0.0,250.0,718.0,0.0,1,-818.0,1
192,192,0.5976642443916284,0.6,1.0,1.0,339.0,772.0,0.0,0,49.0,0
193,193,0.2757024126129014,0.3,1.0,1.0,475.0,663.0,0.0,0,-668.0,0
194,194,0.5479135319616731,0.5,0.0,0.0,496.0,754.0,0.0,1,1580.0,1
195,195,-0.5340412407437883,-0.5,0.0,1.0,461.0,826.0,0.0,1,2553.0,0
196,196,-0.6473468361085228,-0.6,0.0,1.0,347.0,563.0,0.0,1,-460.0,0
197,197,0.47244733147806695,0.5,1.0,1.0,370.0,960.0,1.0,1,3670.0,1
198,198,0.1198779021233517,0.1,0.0,0.0,470.0,600.0,0.0,1,-120.0,1
199,199,-0.18094760284305988,-0.2,1.0,0.0,392.0,513.0,0.0,0,-435.0,1
200,200,-0.838410868729466,-0.8,1.0,0.0,415.0,827.0,0.0,0,-832.0,1
201,201,-0.5121388195717979,-0.5,0.0,1.0,406.0,570.0,1.0,0,4024.0,1
202,202,-0.8556114505334561,-0.9,1.0,0.0,317.0,736.0,0.0,0,-823.0,1
203,203,0.12300104591607564,0.1,0.0,0.0,341.0,622.0,0.0,1,-823.0,1
204,204,-0.7467588848643067,-0.7,0.0,1.0,435.0,790.0,0.0,1,1555.0,0
205,205,0.8971388804828441,0.9,0.0,0.0,447.0,617.0,0.0,1,176.0,1
206,206,0.34239907034410055,0.3,0.0,0.0,475.0,693.0,0.0,1,-688.0,1
207,207,0.8901103778889125,0.9,0.0,0.0,391.0,989.0,0.0,1,960.0,1
208,208,0.34295236086715286,0.3,1.0,1.0,483.0,879.0,0.0,0,108.0,0
209,209,-0.6850283196937879,-0.7,1.0,0.0,403.0,986.0,0.0,0,411.0,1
210,210,-0.10132849949126232,-0.1,1.0,0.0,483.0,885.0,1.0,1,3632.0,0
211,211,0.3926766930677902,0.4,1.0,1.0,353.0,865.0,1.0,1,-528.0,1
212,212,0.42100992853608366,0.4,1.0,1.0,383.0,686.0,0.0,0,2011.0,0
213,213,0.8182582389946905,0.8,1.0,1.0,420.0,513.0,0.0,0,357.0,0
214,214,0.7328428154601018,0.7,1.0,1.0,286.0,505.0,1.0,1,4209.0,1
215,215,-0.4758866021956439,-0.5,1.0,0.0,321.0,980.0,0.0,0,-701.0,1
216,216,-0.5442913336476461,-0.5,0.0,1.0,327.0,868.0,1.0,0,3805.0,1
217,217,0.8420245128755647,0.8,1.0,1.0,377.0,818.0,0.0,0,-205.0,0
218,218,-0.16466746021486167,-0.2,0.0,1.0,474.0,660.0,0.0,1,-704.0,0
219,219,0.5366135863770166,0.5,0.0,0.0,429.0,555.0,0.0,1,996.0,1
220,220,0.061718295557806835,0.1,0.0,0.0,441.0,558.0,0.0,1,-139.0,1
221,221,-0.32310801188036,-0.3,0.0,1.0,476.0,505.0,0.0,1,-401.0,0
222,222,0.5189985117491996,0.5,1.0,1.0,422.0,879.0,0.0,0,3539.0,0
223,223,0.18089640248574812,0.2,1.0,1.0,434.0,918.0,0.0,0,-712.0,0
224,224,-0.6081517461469108,-0.6,0.0,1.0,412.0,657.0,0.0,1,-559.0,0
225,225,0.8980168211516087,0.9,1.0,1.0,378.0,826.0,0.0,0,2286.0,0
226,226,-0.5201864744312641,-0.5,1.0,0.0,485.0,761.0,0.0,0,1294.0,1
227,227,0.2516226109053771,0.3,0.0,0.0,315.0,702.0,0.0,1,-977.0,1
228,228,-0.25461175437131334,-0.3,0.0,1.0,397.0,681.0,0.0,1,3922.0,0
229,229,0.04072007363807806,0.0,1.0,1.0,265.0,932.0,0.0,0,3603.0,0
230,230,0.12258985650000132,0.1,1.0,1.0,420.0,774.0,0.0,0,-624.0,0
231,231,-0.6273991181191072,-0.6,1.0,0.0,460.0,531.0,0.0,0,419.0,1
232,232,-0.48017471786550486,-0.5,1.0,0.0,335.0,614.0,0.0,0,-749.0,1
233,233,0.06825112871204175,0.1,1.0,1.0,497.0,810.0,0.0,0,443.0,0
234,234,-0.848422047328651,-0.8,0.0,1.0,412.0,738.0,0.0,1,480.0,0
235,235,0.5562984946796495,0.6,1.0,1.0,487.0,948.0,0.0,0,-555.0,0
236,236,-0.7411175110549895,-0.7,0.0,1.0,454.0,991.0,0.0,1,-955.0,0
237,237,-0.5057362938707184,-0.5,0.0,1.0,452.0,607.0,0.0,1,-469.0,0
238,238,-0.2151763527962628,-0.2,1.0,0.0,442.0,637.0,0.0,0,391.0,1
239,239,0.6000784523151906,0.6,1.0,1.0,278.0,690.0,0.0,0,1812.0,0
240,240,0.8786079168805588,0.9,1.0,1.0,404.0,635.0,0.0,0,11.0,0
241,241,-0.8463496771457455,-0.8,0.0,1.0,309.0,752.0,1.0,0,3939.0,1
242,242,-0.5259030148477195,-0.5,1.0,0.0,343.0,901.0,0.0,0,176.0,1
243,243,-0.08819907543512384,-0.1,1.0,0.0,314.0,719.0,1.0,1,3967.0,0
244,244,-0.6891212272581868,-0.7,1.0,0.0,491.0,930.0,0.0,0,-81.0,1
245,245,0.00929721033287123,0.0,1.0,1.0,354.0,902.0,0.0,0,794.0,0
246,246,0.10879131386305618,0.1,0.0,0.0,466.0,527.0,1.0,0,4007.0,0
247,247,-0.6077630597283177,-0.6,0.0,1.0,447.0,621.0,1.0,0,3932.0,1
248,248,0.5257904851469902,0.5,1.0,1.0,290.0,513.0,0.0,0,277.0,0
249,249,0.252684625581581,0.3,1.0,1.0,356.0,525.0,0.0,0,739.0,0
250,250,0.34283916139299164,0.3,0.0,0.0,301.0,671.0,0.0,1,988.0,1
251,251,0.48360241397880077,0.5,0.0,0.0,432.0,771.0,0.0,1,-763.0,1
252,252,-0.4327275067261442,-0.4,1.0,0.0,324.0,962.0,0.0,0,1394.0,1
253,253,-0.1694426730064411,-0.2,1.0,0.0,440.0,670.0,0.0,0,2460.0,1
254,254,-0.011592921513076004,-0.0,0.0,1.0,378.0,691.0,0.0,1,2191.0,0
255,255,0.027759362486757255,0.0,0.0,0.0,379.0,504.0,0.0,1,457.0,1
256,256,-0.37298860759536545,-0.4,1.0,0.0,301.0,791.0,0.0,0,-32.0,1
257,257,0.7613993336554413,0.8,1.0,1.0,288.0,583.0,0.0,0,369.0,0
258,258,-0.20760355366160654,-0.2,1.0,0.0,371.0,597.0,0.0,0,582.0,1
259,259,-0.8948465664799977,-0.9,0.0,1.0,337.0,745.0,1.0,0,3918.0,1
260,260,-0.6905159586474742,-0.7,1.0,0.0,450.0,952.0,0.0,0,38.0,1
261,261,0.567889438811762,0.6,1.0,1.0,308.0,919.0,0.0,0,-497.0,0
262,262,-0.2494465570177038,-0.2,0.0,1.0,279.0,504.0,0.0,1,-243.0,0
263,263,-0.5879344632646675,-0.6,1.0,0.0,413.0,827.0,0.0,0,-640.0,1
264,264,0.7042679060536178,0.7,1.0,1.0,495.0,991.0,0.0,0,-566.0,0
265,265,0.7915183188471183,0.8,0.0,0.0,282.0,761.0,0.0,1,497.0,1
266,266,-0.7768821068848162,-0.8,1.0,0.0,489.0,754.0,0.0,0,397.0,1
267,267,0.22188205181324905,0.2,0.0,0.0,422.0,766.0,0.0,1,-568.0,1
268,268,0.7872729676596221,0.8,1.0,1.0,297.0,709.0,0.0,0,614.0,0
269,269,-0.14425482204292328,-0.1,0.0,1.0,375.0,748.0,0.0,1,2877.0,0
270,270,0.8719004971015961,0.9,0.0,0.0,351.0,638.0,0.0,1,-519.0,1
271,271,-0.5811998547671406,-0.6,1.0,0.0,445.0,531.0,0.0,0,-946.0,1
272,272,-0.8550121460068197,-0.9,1.0,0.0,383.0,572.0,0.0,0,1415.0,1
273,273,-0.15693951662360683,-0.2,1.0,0.0,488.0,925.0,0.0,0,-213.0,1
274,274,-0.3213998112786567,-0.3,0.0,1.0,259.0,930.0,0.0,1,651.0,0
275,275,0.7410259437693442,0.7,0.0,0.0,443.0,569.0,0.0,1,1168.0,1
276,276,-0.5201368476543362,-0.5,0.0,1.0,402.0,563.0,0.0,1,1745.0,0
277,277,-0.7596899656017251,-0.8,0.0,1.0,296.0,949.0,1.0,0,3755.0,1
278,278,-0.4782097351695028,-0.5,0.0,1.0,490.0,984.0,1.0,0,3526.0,1
279,279,0.32896257835143283,0.3,0.0,0.0,355.0,709.0,0.0,1,-404.0,1
280,280,-0.08882652565688676,-0.1,0.0,1.0,352.0,844.0,0.0,1,-596.0,0
281,281,0.5515198023818523,0.6,0.0,0.0,403.0,699.0,0.0,1,298.0,1
282,282,0.6949789148067186,0.7,0.0,0.0,475.0,502.0,0.0,1,53.0,1
283,283,0.24295087938934345,0.2,1.0,1.0,424.0,561.0,0.0,0,1005.0,0
284,284,0.6183690115537711,0.6,0.0,0.0,436.0,758.0,0.0,1,26.0,1
285,285,-0.5590822310080215,-0.6,0.0,1.0,323.0,753.0,0.0,1,1274.0,0
286,286,-0.5023195985508757,-0.5,0.0,1.0,312.0,775.0,0.0,1,1233.0,0
287,287,0.511671930478708,0.5,1.0,1.0,460.0,810.0,0.0,0,-540.0,0
288,288,0.21261378247857443,0.2,0.0,0.0,302.0,968.0,0.0,1,-260.0,1
289,289,-0.5679799188209624,-0.6,1.0,0.0,414.0,855.0,0.0,0,-759.0,1
290,290,0.4432609999029399,0.4,1.0,1.0,397.0,592.0,0.0,0,1411.0,0
291,291,-0.4155795025591486,-0.4,1.0,0.0,372.0,906.0,0.0,0,822.0,1
292,292,-0.4880367634871727,-0.5,0.0,1.0,407.0,798.0,0.0,1,-215.0,0
293,293,-0.6936502219352465,-0.7,0.0,1.0,410.0,625.0,0.0,1,1845.0,0
294,294,0.23208584545023003,0.2,0.0,0.0,331.0,584.0,0.0,1,55.0,1
295,295,0.6751502222634503,0.7,0.0,0.0,386.0,839.0,0.0,1,-715.0,1
296,296,0.1795839961112896,0.2,1.0,1.0,315.0,650.0,0.0,0,-805.0,0
297,297,0.5482692871779095,0.5,1.0,1.0,440.0,526.0,0.0,0,754.0,0
298,298,0.7670361749637734,0.8,0.0,0.0,442.0,526.0,0.0,1,1712.0,1
299,299,0.4362469379980235,0.4,1.0,1.0,323.0,951.0,0.0,0,-1114.0,0
300,300,0.268702398432911,0.3,0.0,0.0,343.0,600.0,0.0,1,-383.0,1
301,301,-0.734648782471029,-0.7,1.0,0.0,427.0,608.0,0.0,0,595.0,1
302,302,0.5334549300627439,0.5,1.0,1.0,375.0,625.0,0.0,0,-420.0,0
303,303,-0.4039800160551757,-0.4,0.0,1.0,408.0,674.0,0.0,1,348.0,0
304,304,0.39649884156471604,0.4,0.0,0.0,469.0,972.0,0.0,1,1499.0,1
305,305,0.23100356951393708,0.2,0.0,0.0,317.0,970.0,0.0,1,23.0,1
306,306,-0.40803768303474824,-0.4,1.0,0.0,281.0,990.0,0.0,0,-1011.0,1
307,307,0.5729465261923662,0.6,0.0,0.0,447.0,725.0,0.0,1,3088.0,1
308,308,0.8245540696117911,0.8,1.0,1.0,438.0,770.0,0.0,0,472.0,0
309,309,0.6696681830798482,0.7,0.0,0.0,476.0,767.0,1.0,0,3757.0,0
310,310,0.6110571673949624,0.6,0.0,0.0,415.0,824.0,0.0,1,-639.0,1
311,311,0.5117006791524393,0.5,1.0,1.0,298.0,761.0,0.0,0,-259.0,0
312,312,0.18840706276274177,0.2,1.0,1.0,449.0,910.0,0.0,0,-989.0,0
313,313,0.0010076098233685604,0.0,0.0,0.0,382.0,542.0,0.0,1,3916.0,1
314,314,-0.7003784579150637,-0.7,0.0,1.0,494.0,568.0,0.0,1,-492.0,0
315,315,-0.7425383264748732,-0.7,1.0,0.0,415.0,727.0,0.0,0,-1092.0,1
316,316,-0.4616817922141279,-0.5,1.0,0.0,488.0,639.0,1.0,1,3873.0,0
317,317,0.31318414372018843,0.3,1.0,1.0,338.0,768.0,0.0,0,-786.0,0
318,318,0.5859554826345771,0.6,1.0,1.0,336.0,785.0,0.0,0,-421.0,0
319,319,-0.5141973092842289,-0.5,0.0,1.0,284.0,948.0,0.0,1,-1092.0,0
320,320,-0.44876611205495825,-0.4,1.0,0.0,447.0,840.0,0.0,0,-637.0,1
321,321,-0.5220749755444444,-0.5,1.0,0.0,302.0,695.0,0.0,0,1693.0,1
322,322,-0.19032905192327554,-0.2,0.0,1.0,377.0,766.0,0.0,1,427.0,0
323,323,-0.06152671893744177,-0.1,0.0,1.0,256.0,593.0,0.0,1,-339.0,0
324,324,0.8763718812187206,0.9,0.0,0.0,342.0,623.0,0.0,1,275.0,1
325,325,0.04110504278680405,0.0,1.0,1.0,336.0,579.0,0.0,0,1085.0,0
326,326,-0.04556240703345149,-0.0,0.0,1.0,390.0,997.0,1.0,0,3613.0,1
327,327,-0.15627908957057224,-0.2,1.0,0.0,312.0,819.0,0.0,0,-311.0,1
328,328,0.44809759284116735,0.4,1.0,1.0,401.0,750.0,0.0,0,-1031.0,0
329,329,-0.29898968238320367,-0.3,0.0,1.0,465.0,765.0,0.0,1,390.0,0
330,330,-0.6849878795566756,-0.7,0.0,1.0,481.0,957.0,1.0,0,3562.0,1
331,331,0.13631730248784601,0.1,0.0,0.0,465.0,879.0,0.0,1,-1034.0,1
332,332,-0.4380832809439012,-0.4,0.0,1.0,440.0,706.0,0.0,1,-856.0,0
333,333,-0.7913302471479906,-0.8,1.0,0.0,375.0,827.0,0.0,0,1558.0,1
334,334,0.8133018743587884,0.8,0.0,0.0,250.0,562.0,0.0,1,1248.0,1
335,335,0.010186918273385137,0.0,1.0,1.0,377.0,803.0,0.0,0,-600.0,0
336,336,0.1782531289998054,0.2,1.0,1.0,350.0,972.0,0.0,0,178.0,0
337,337,-0.2193099526498783,-0.2,0.0,1.0,338.0,783.0,0.0,1,409.0,0
338,338,-0.8876086984755713,-0.9,0.0,1.0,256.0,846.0,1.0,0,818.0,1
339,339,-0.2709275360282215,-0.3,0.0,1.0,271.0,934.0,0.0,1,335.0,0
340,340,-0.4401918188332407,-0.4,1.0,0.0,471.0,999.0,0.0,0,-300.0,1
341,341,0.406596537167463,0.4,0.0,0.0,362.0,708.0,0.0,1,-660.0,1
342,342,-0.36510768588746145,-0.4,1.0,0.0,400.0,596.0,0.0,0,1174.0,1
343,343,0.5033322617216965,0.5,0.0,0.0,327.0,689.0,0.0,1,34.0,1
344,344,-0.16699704440551355,-0.2,1.0,0.0,284.0,553.0,0.0,0,-327.0,1
345,345,-0.8274836224534423,-0.8,1.0,0.0,421.0,577.0,0.0,0,-388.0,1
346,346,-0.8784476484786456,-0.9,0.0,1.0,492.0,784.0,0.0,1,864.0,0
347,347,0.7694245509133196,0.8,1.0,1.0,355.0,801.0,0.0,0,224.0,0
348,348,-0.7049432595059428,-0.7,0.0,1.0,426.0,760.0,0.0,1,164.0,0
349,349,0.06667049437427708,0.1,1.0,1.0,402.0,711.0,1.0,1,3887.0,1
350,350,-0.878135842778286,-0.9,1.0,0.0,326.0,531.0,0.0,0,1553.0,1
351,351,-0.7689199393682232,-0.8,0.0,1.0,313.0,864.0,0.0,1,-747.0,0
352,352,-0.12253306253829754,-0.1,0.0,1.0,302.0,686.0,0.0,1,3462.0,0
353,353,-0.781628532616253,-0.8,1.0,0.0,328.0,830.0,0.0,0,-288.0,1
354,354,-0.6609787177505428,-0.7,1.0,0.0,411.0,810.0,0.0,0,29.0,1
355,355,0.38559541818056686,0.4,0.0,0.0,294.0,765.0,0.0,1,-49.0,1
356,356,-0.020482223467094163,-0.0,1.0,0.0,426.0,662.0,0.0,0,22.0,1
357,357,0.5941191023187132,0.6,1.0,1.0,452.0,961.0,1.0,1,3587.0,1
358,358,0.47305355247934966,0.5,0.0,0.0,361.0,914.0,0.0,1,-825.0,1
359,359,0.28045667723702417,0.3,1.0,1.0,478.0,848.0,0.0,0,64.0,0
360,360,-0.142435085850667,-0.1,0.0,1.0,367.0,721.0,0.0,1,-138.0,0
361,361,0.16414204794775544,0.2,0.0,0.0,250.0,598.0,0.0,1,3372.0,1
362,362,-0.38821826534809467,-0.4,0.0,1.0,460.0,878.0,0.0,1,2522.0,0
363,363,0.4527531668306243,0.5,0.0,0.0,492.0,582.0,0.0,1,-844.0,1
364,364,0.4409722853927852,0.4,0.0,0.0,485.0,563.0,0.0,1,1492.0,1
365,365,0.6489686915776317,0.6,0.0,0.0,424.0,750.0,0.0,1,376.0,1
366,366,0.2590622504865604,0.3,1.0,1.0,485.0,968.0,0.0,0,-783.0,0
367,367,-0.07005948462687195,-0.1,1.0,0.0,476.0,950.0,1.0,1,-1226.0,0
368,368,-0.14357507184918716,-0.1,0.0,1.0,392.0,815.0,1.0,0,3793.0,1
369,369,-0.3471315487250384,-0.3,0.0,1.0,422.0,949.0,1.0,0,-621.0,1
370,370,0.5640668800510819,0.6,0.0,0.0,326.0,619.0,0.0,1,645.0,1
371,371,0.24937215813633473,0.2,1.0,1.0,270.0,906.0,0.0,0,2034.0,0
372,372,0.09532999687431432,0.1,0.0,0.0,278.0,773.0,0.0,1,1339.0,1
373,373,-0.21440777987783644,-0.2,0.0,1.0,262.0,562.0,0.0,1,806.0,0
374,374,0.03165081092630506,0.0,0.0,0.0,368.0,500.0,0.0,1,1812.0,1
375,375,-0.4005031755289369,-0.4,0.0,1.0,419.0,977.0,1.0,0,3604.0,1
376,376,0.43991226962020125,0.4,1.0,1.0,441.0,812.0,1.0,1,3747.0,1
377,377,-0.6748568491500562,-0.7,0.0,1.0,362.0,988.0,0.0,1,-830.0,0
378,378,-0.8205151160257773,-0.8,0.0,1.0,436.0,564.0,0.0,1,300.0,0
379,379,0.6360302292321341,0.6,1.0,1.0,422.0,860.0,0.0,0,-192.0,0
380,380,0.8691265424626292,0.9,0.0,0.0,436.0,647.0,0.0,1,3837.0,1
381,381,0.04796604248995562,0.0,1.0,1.0,483.0,548.0,0.0,0,2819.0,0
382,382,0.30023977305989213,0.3,0.0,0.0,293.0,643.0,1.0,0,4064.0,0
383,383,-0.8292427797524595,-0.8,0.0,1.0,259.0,791.0,0.0,1,-270.0,0
384,384,-0.25956513067283815,-0.3,0.0,1.0,269.0,541.0,0.0,1,1020.0,0
385,385,0.051780407845107734,0.1,1.0,1.0,368.0,792.0,0.0,0,-280.0,0
386,386,-0.17479239691778148,-0.2,1.0,0.0,444.0,653.0,0.0,0,-247.0,1
387,387,0.4742943212016736,0.5,0.0,0.0,391.0,826.0,0.0,1,1033.0,1
388,388,-0.16115889098253,-0.2,0.0,1.0,380.0,549.0,0.0,1,-189.0,0
389,389,0.7445832340296402,0.7,0.0,0.0,382.0,739.0,0.0,1,529.0,1
390,390,-0.0756239565088348,-0.1,1.0,0.0,397.0,759.0,0.0,0,2764.0,1
391,391,0.21560455498215048,0.2,1.0,1.0,427.0,798.0,0.0,0,-405.0,0
392,392,0.8791225377403439,0.9,0.0,0.0,366.0,652.0,0.0,1,1422.0,1
393,393,-0.025719996400179634,-0.0,1.0,0.0,429.0,613.0,0.0,0,448.0,1
394,394,-0.7446714364160449,-0.7,0.0,1.0,302.0,590.0,0.0,1,4108.0,0
395,395,0.42580381065149375,0.4,1.0,1.0,289.0,936.0,0.0,0,315.0,0
396,396,-0.5365940703208767,-0.5,1.0,0.0,383.0,796.0,0.0,0,-29.0,1
397,397,0.8093090017993717,0.8,0.0,0.0,341.0,553.0,0.0,1,1186.0,1
398,398,0.18854621364852597,0.2,0.0,0.0,468.0,524.0,0.0,1,-872.0,1
399,399,-0.38170639801496065,-0.4,1.0,0.0,323.0,895.0,0.0,0,1262.0,1
400,400,0.7291383246050577,0.7,0.0,0.0,337.0,766.0,0.0,1,227.0,1
401,401,0.3174845050200946,0.3,1.0,1.0,317.0,816.0,1.0,1,3867.0,1
402,402,-0.5848422297438111,-0.6,1.0,0.0,471.0,673.0,0.0,0,-34.0,1
403,403,0.09479807710380683,0.1,1.0,1.0,250.0,946.0,0.0,0,674.0,0
404,404,0.8176079879576078,0.8,0.0,0.0,476.0,983.0,0.0,1,431.0,1
405,405,-0.0812949086422814,-0.1,0.0,1.0,375.0,919.0,0.0,1,-324.0,0
406,406,0.22903019380263034,0.2,0.0,0.0,456.0,657.0,0.0,1,357.0,1
407,407,-0.007924660420746243,-0.0,1.0,0.0,488.0,970.0,0.0,0,-1198.0,1
408,408,-0.32965607641021777,-0.3,0.0,1.0,353.0,675.0,0.0,1,1402.0,0
409,409,-0.0225237725553582,-0.0,1.0,0.0,281.0,748.0,0.0,0,-459.0,1
410,410,0.4841917573240818,0.5,1.0,1.0,284.0,671.0,0.0,0,-125.0,0
411,411,0.6020553627430872,0.6,0.0,0.0,365.0,563.0,0.0,1,-868.0,1
412,412,0.4057252935052392,0.4,1.0,1.0,460.0,545.0,0.0,0,85.0,0
413,413,0.5788397479469355,0.6,1.0,1.0,413.0,927.0,0.0,0,-700.0,0
414,414,-0.761956106366347,-0.8,0.0,1.0,437.0,984.0,1.0,0,3579.0,1
415,415,0.7672443866329214,0.8,1.0,1.0,343.0,600.0,0.0,0,1377.0,0
416,416,-0.36413775542301097,-0.4,1.0,0.0,329.0,701.0,0.0,0,2490.0,1
417,417,0.4828280952361711,0.5,0.0,0.0,316.0,568.0,0.0,1,546.0,1
418,418,0.10667454801476517,0.1,0.0,0.0,314.0,977.0,0.0,1,3709.0,1
419,419,-0.8762597331266015,-0.9,1.0,0.0,262.0,910.0,0.0,0,1518.0,1
420,420,-0.3573190745774677,-0.4,0.0,1.0,495.0,593.0,0.0,1,1692.0,0
421,421,0.5274872983234323,0.5,0.0,0.0,393.0,831.0,0.0,1,-504.0,1
422,422,0.6647521012588556,0.7,1.0,1.0,276.0,753.0,0.0,0,3011.0,0
423,423,-0.4927824291568548,-0.5,0.0,1.0,440.0,578.0,0.0,1,-398.0,0
424,424,0.09773092182612897,0.1,0.0,0.0,328.0,652.0,0.0,1,330.0,1
425,425,0.019577719644052305,0.0,1.0,1.0,259.0,791.0,0.0,0,-370.0,0
426,426,-0.5589418882176761,-0.6,1.0,0.0,449.0,779.0,0.0,0,-388.0,1
427,427,0.2898354188274431,0.3,0.0,0.0,307.0,770.0,0.0,1,1473.0,1
428,428,0.27799581067076995,0.3,1.0,1.0,431.0,909.0,0.0,0,1950.0,0
429,429,0.7805384435275898,0.8,0.0,0.0,250.0,512.0,0.0,1,-152.0,1
430,430,-0.5770523313700774,-0.6,0.0,1.0,342.0,819.0,0.0,1,-391.0,0
431,431,-0.8877346724910891,-0.9,1.0,0.0,348.0,643.0,0.0,0,1079.0,1
432,432,0.36377161290484084,0.4,1.0,1.0,418.0,672.0,0.0,0,1150.0,0
433,433,-0.4517454895687326,-0.5,1.0,0.0,410.0,871.0,0.0,0,3719.0,1
434,434,-0.6334721535374099,-0.6,0.0,1.0,279.0,907.0,0.0,1,-936.0,0
435,435,-0.8598718532804195,-0.9,0.0,1.0,448.0,910.0,0.0,1,-1088.0,0
436,436,-0.3864141858630129,-0.4,0.0,1.0,282.0,727.0,1.0,0,3991.0,1
437,437,-0.4371198825566449,-0.4,0.0,1.0,421.0,836.0,0.0,1,-417.0,0
438,438,-0.6921983251509117,-0.7,0.0,1.0,457.0,894.0,0.0,1,-381.0,0
439,439,-0.6623539999180102,-0.7,1.0,0.0,367.0,769.0,0.0,0,-946.0,1
440,440,0.17570052721253548,0.2,0.0,0.0,457.0,566.0,0.0,1,237.0,1
441,441,-0.7089884446756294,-0.7,1.0,0.0,473.0,908.0,0.0,0,349.0,1
442,442,-0.22166009987352353,-0.2,0.0,1.0,281.0,890.0,0.0,1,2579.0,0
443,443,-0.37468348624491854,-0.4,1.0,0.0,292.0,540.0,0.0,0,-252.0,1
444,444,0.14555158140248137,0.1,0.0,0.0,313.0,810.0,0.0,1,-763.0,1
445,445,0.12329938545998675,0.1,0.0,0.0,340.0,798.0,0.0,1,-1098.0,1
446,446,-0.8318663205509673,-0.8,0.0,1.0,368.0,501.0,1.0,0,4131.0,1
447,447,-0.5156988549632266,-0.5,0.0,1.0,428.0,915.0,0.0,1,-73.0,0
448,448,-0.20200199649513817,-0.2,0.0,1.0,272.0,821.0,0.0,1,857.0,0
449,449,0.123392608501118,0.1,1.0,1.0,323.0,623.0,0.0,0,1444.0,0
450,450,-0.4083749205456274,-0.4,1.0,0.0,439.0,525.0,0.0,0,1386.0,1
451,451,0.31338108252821073,0.3,1.0,1.0,332.0,648.0,0.0,0,-880.0,0
452,452,-0.062318780210457,-0.1,0.0,1.0,385.0,959.0,0.0,1,2566.0,0
453,453,0.6857504378910267,0.7,1.0,1.0,446.0,737.0,0.0,0,2367.0,0
454,454,-0.6159958904643266,-0.6,1.0,0.0,432.0,620.0,0.0,0,-992.0,1
455,455,-0.5284383770177313,-0.5,0.0,1.0,405.0,654.0,0.0,1,3941.0,0
456,456,0.09269348656886112,0.1,0.0,0.0,434.0,981.0,0.0,1,2065.0,1
457,457,0.7123845170083022,0.7,1.0,1.0,490.0,866.0,0.0,0,-1256.0,0
458,458,0.34556317565677264,0.3,1.0,1.0,498.0,954.0,0.0,0,-1022.0,0
459,459,-0.18376287138694425,-0.2,1.0,0.0,349.0,829.0,0.0,0,-1108.0,1
460,460,0.7275252328760969,0.7,0.0,0.0,330.0,867.0,0.0,1,1163.0,1
461,461,-0.3509331393370154,-0.4,1.0,0.0,392.0,541.0,0.0,0,1267.0,1
462,462,-0.08530283068316091,-0.1,0.0,1.0,313.0,985.0,0.0,1,-1218.0,0
463,463,0.3376254985107551,0.3,0.0,0.0,431.0,614.0,0.0,1,195.0,1
464,464,-0.8556791090453308,-0.9,0.0,1.0,266.0,530.0,0.0,1,4204.0,0
465,465,-0.1435860059195606,-0.1,0.0,1.0,274.0,907.0,0.0,1,-921.0,0
466,466,0.6112205376169831,0.6,0.0,0.0,388.0,796.0,0.0,1,-54.0,1
467,467,-0.12444218686705333,-0.1,1.0,0.0,359.0,512.0,0.0,0,2929.0,1
468,468,0.4312218138461402,0.4,0.0,0.0,393.0,764.0,0.0,1,-727.0,1
469,469,-0.1700706460063932,-0.2,1.0,0.0,495.0,536.0,1.0,1,3969.0,0
470,470,0.09983289522030858,0.1,0.0,0.0,347.0,815.0,0.0,1,1398.0,1
471,471,-0.6813896283089873,-0.7,1.0,0.0,306.0,818.0,0.0,0,-774.0,1
472,472,-0.0968626369320772,-0.1,1.0,0.0,383.0,510.0,0.0,0,87.0,1
473,473,0.027383920492401792,0.0,1.0,1.0,498.0,528.0,0.0,0,2814.0,0
474,474,-0.1189273566148884,-0.1,0.0,1.0,322.0,865.0,0.0,1,-207.0,0
475,475,-0.6421380795407138,-0.6,0.0,1.0,441.0,950.0,0.0,1,-1081.0,0
476,476,-0.4715225992658267,-0.5,0.0,1.0,466.0,968.0,0.0,1,-614.0,0
477,477,-0.2807788935204759,-0.3,0.0,1.0,419.0,756.0,0.0,1,-295.0,0
478,478,0.12900499067781335,0.1,1.0,1.0,436.0,972.0,0.0,0,892.0,0
479,479,-0.6718073137923358,-0.7,0.0,1.0,448.0,787.0,0.0,1,1875.0,0
480,480,0.3550129609075533,0.4,1.0,1.0,375.0,841.0,0.0,0,2044.0,0
481,481,0.009947857252237013,0.0,1.0,1.0,327.0,949.0,1.0,1,3724.0,1
482,482,-0.6555153993827443,-0.7,0.0,1.0,396.0,734.0,0.0,1,-1040.0,0
483,483,-0.8257444723715482,-0.8,0.0,1.0,490.0,629.0,0.0,1,3601.0,0
484,484,0.42063767415065223,0.4,0.0,0.0,405.0,913.0,0.0,1,3682.0,1
485,485,0.1289697424037607,0.1,1.0,1.0,492.0,720.0,1.0,1,3788.0,1
486,486,-0.32710261024052034,-0.3,0.0,1.0,365.0,716.0,0.0,1,-841.0,0
487,487,0.8855724331181275,0.9,0.0,0.0,495.0,846.0,0.0,1,289.0,1
488,488,-0.24811640057099238,-0.2,1.0,0.0,416.0,788.0,1.0,1,3796.0,0
489,489,0.7424165571607441,0.7,0.0,0.0,367.0,953.0,0.0,1,-980.0,1
490,490,0.23020585202654076,0.2,0.0,0.0,451.0,955.0,0.0,1,-1356.0,1
491,491,0.4038567368130884,0.4,0.0,0.0,439.0,940.0,0.0,1,-1019.0,1
492,492,-0.6786525796770622,-0.7,0.0,1.0,464.0,640.0,0.0,1,-734.0,0
493,493,0.08302573581842654,0.1,1.0,1.0,454.0,659.0,0.0,0,-503.0,0
494,494,-0.7082731978092092,-0.7,0.0,1.0,359.0,644.0,0.0,1,-233.0,0
495,495,-0.6007972510307518,-0.6,1.0,0.0,363.0,939.0,0.0,0,-1012.0,1
496,496,-0.2748496828473199,-0.3,1.0,0.0,354.0,740.0,0.0,0,676.0,1
497,497,0.5944950770927885,0.6,1.0,1.0,454.0,630.0,1.0,1,3916.0,1
498,498,0.40360066817699425,0.4,0.0,0.0,408.0,758.0,0.0,1,3834.0,1
499,499,-0.31671045534341846,-0.3,0.0,1.0,425.0,937.0,0.0,1,-1332.0,0
500,500,0.7923402271102397,0.8,1.0,1.0,496.0,567.0,0.0,0,1277.0,0
501,501,-0.869686004395275,-0.9,1.0,0.0,319.0,504.0,0.0,0,2797.0,1
502,502,-0.3870007617935304,-0.4,1.0,0.0,309.0,974.0,0.0,0,1177.0,1
503,503,0.7042293154561777,0.7,1.0,1.0,257.0,521.0,0.0,0,3752.0,0
504,504,0.10014857743178684,0.1,0.0,0.0,417.0,874.0,0.0,1,719.0,1
505,505,-0.686111802556182,-0.7,0.0,1.0,368.0,635.0,0.0,1,217.0,0
506,506,-0.05150116767708368,-0.1,0.0,1.0,498.0,843.0,0.0,1,149.0,0
507,507,0.23605640154862562,0.2,0.0,0.0,488.0,568.0,0.0,1,1374.0,1
508,508,-0.8621239407743021,-0.9,1.0,0.0,473.0,905.0,0.0,0,-578.0,1
509,509,0.8039377565248783,0.8,1.0,1.0,375.0,796.0,0.0,0,-521.0,0
510,510,-0.24463223937849854,-0.2,1.0,0.0,278.0,690.0,0.0,0,-338.0,1
511,511,0.06764596626212027,0.1,1.0,1.0,318.0,614.0,0.0,0,748.0,0
512,512,0.22712509962747396,0.2,1.0,1.0,254.0,688.0,0.0,0,1558.0,0
513,513,-0.678741760167595,-0.7,1.0,0.0,402.0,945.0,0.0,0,-47.0,1
514,514,0.5183448295232148,0.5,1.0,1.0,387.0,722.0,0.0,0,2761.0,0
515,515,-0.10545654668128346,-0.1,1.0,0.0,298.0,554.0,0.0,0,1308.0,1
516,516,-0.016691555841161887,-0.0,1.0,0.0,345.0,708.0,0.0,0,727.0,1
517,517,0.8581277590765216,0.9,1.0,1.0,480.0,954.0,0.0,0,576.0,0
518,518,0.11345002329311782,0.1,0.0,0.0,319.0,799.0,0.0,1,742.0,1
519,519,0.8182278570251972,0.8,0.0,0.0,444.0,812.0,0.0,1,354.0,1
520,520,0.2885522150024554,0.3,1.0,1.0,468.0,538.0,0.0,0,3454.0,0
521,521,0.6632224642839654,0.7,1.0,1.0,473.0,831.0,0.0,0,256.0,0
522,522,0.03530654823235424,0.0,0.0,0.0,484.0,859.0,0.0,1,-1223.0,1
523,523,0.2901158777302607,0.3,0.0,0.0,305.0,895.0,0.0,1,-1130.0,1
524,524,-0.21039026487715018,-0.2,0.0,1.0,376.0,748.0,0.0,1,386.0,0
525,525,0.33328666000083806,0.3,1.0,1.0,393.0,825.0,0.0,0,1122.0,0
526,526,0.5796133382833005,0.6,1.0,1.0,454.0,754.0,0.0,0,62.0,0
527,527,-0.8007808337810787,-0.8,1.0,0.0,271.0,533.0,0.0,0,-4.0,1
528,528,-0.03292714875686631,-0.0,1.0,0.0,270.0,982.0,0.0,0,-822.0,1
529,529,0.39953928318207754,0.4,0.0,0.0,259.0,963.0,0.0,1,-182.0,1
530,530,-0.4117957602074819,-0.4,0.0,1.0,263.0,649.0,1.0,0,4088.0,1
531,531,0.05953517211663928,0.1,0.0,0.0,378.0,813.0,0.0,1,-171.0,1
532,532,0.19042730475554637,0.2,0.0,0.0,322.0,623.0,0.0,1,-755.0,1
533,533,0.42030116235516923,0.4,1.0,1.0,265.0,917.0,0.0,0,-52.0,0
534,534,-0.4872381641068013,-0.5,0.0,1.0,301.0,792.0,0.0,1,3187.0,0
535,535,-0.3915244573762855,-0.4,1.0,0.0,472.0,698.0,0.0,0,1180.0,1
536,536,0.61957430265798,0.6,1.0,1.0,265.0,895.0,0.0,0,2600.0,0
537,537,0.804925752124655,0.8,1.0,1.0,333.0,923.0,0.0,0,-546.0,0
538,538,-0.7427975992412805,-0.7,1.0,0.0,302.0,701.0,0.0,0,907.0,1
539,539,0.09802198323745115,0.1,1.0,1.0,379.0,863.0,0.0,0,-842.0,0
540,540,-0.4745592914410845,-0.5,0.0,1.0,364.0,598.0,0.0,1,-782.0,0
541,541,4.753670578117042e-05,0.0,1.0,1.0,399.0,907.0,0.0,0,124.0,0
542,542,-0.11610913004784973,-0.1,0.0,1.0,357.0,517.0,0.0,1,1556.0,0
543,543,0.13664441866647026,0.1,0.0,0.0,423.0,526.0,1.0,0,-579.0,0
544,544,0.8874401488924389,0.9,1.0,1.0,344.0,781.0,0.0,0,895.0,0
545,545,0.20590046582100674,0.2,1.0,1.0,498.0,558.0,0.0,0,-386.0,0
546,546,-0.5556160201583256,-0.6,0.0,1.0,365.0,546.0,1.0,0,4089.0,1
547,547,0.6270530254363001,0.6,1.0,1.0,399.0,578.0,0.0,0,973.0,0
548,548,-0.45271439575025757,-0.5,0.0,1.0,272.0,798.0,0.0,1,720.0,0
549,549,-0.11187588036675156,-0.1,0.0,1.0,492.0,527.0,0.0,1,3981.0,0
550,550,-0.21118978154961932,-0.2,0.0,1.0,365.0,554.0,0.0,1,1571.0,0
551,551,-0.10273794091966737,-0.1,0.0,1.0,252.0,801.0,0.0,1,-563.0,0
552,552,0.7855525902396717,0.8,0.0,0.0,468.0,937.0,0.0,1,485.0,1
553,553,0.48792349635194154,0.5,1.0,1.0,464.0,604.0,0.0,0,1782.0,0
554,554,-0.8699323608530002,-0.9,1.0,0.0,402.0,628.0,1.0,1,3970.0,0
555,555,-0.17871371929773328,-0.2,0.0,1.0,328.0,575.0,0.0,1,1657.0,0
556,556,0.3822154889759616,0.4,0.0,0.0,256.0,981.0,1.0,0,3763.0,0
557,557,0.0985389616980904,0.1,1.0,1.0,486.0,852.0,1.0,1,3662.0,1
558,558,0.6050660549542627,0.6,1.0,1.0,310.0,704.0,0.0,0,-654.0,0
559,559,0.47879714232732173,0.5,0.0,0.0,474.0,944.0,0.0,1,-368.0,1
560,560,-0.03242324394677476,-0.0,0.0,1.0,353.0,753.0,0.0,1,-1036.0,0
561,561,-0.8267778254861005,-0.8,1.0,0.0,462.0,793.0,0.0,0,-225.0,1
562,562,0.30423904189773665,0.3,0.0,0.0,294.0,886.0,0.0,1,2750.0,1
563,563,-0.2498932836703066,-0.2,0.0,1.0,304.0,918.0,0.0,1,1628.0,0
564,564,-0.04007986642346517,-0.0,0.0,1.0,367.0,715.0,0.0,1,3558.0,0
565,565,-0.8351263424091058,-0.8,1.0,0.0,465.0,670.0,0.0,0,-225.0,1
566,566,-0.6811393321450839,-0.7,1.0,0.0,397.0,642.0,0.0,0,461.0,1
567,567,0.34776262939335323,0.3,0.0,0.0,462.0,535.0,1.0,0,4003.0,0
568,568,-0.7447917108300695,-0.7,0.0,1.0,482.0,955.0,0.0,1,-1147.0,0
569,569,-0.5875634552398286,-0.6,0.0,1.0,378.0,790.0,0.0,1,2542.0,0
570,570,-0.05199814938293679,-0.1,0.0,1.0,391.0,538.0,0.0,1,-549.0,0
571,571,-0.3164138329685836,-0.3,1.0,0.0,434.0,899.0,1.0,1,3667.0,0
572,572,0.7941072234210927,0.8,1.0,1.0,304.0,818.0,0.0,0,118.0,0
573,573,0.5470473366224285,0.5,1.0,1.0,423.0,816.0,0.0,0,11.0,0
574,574,-0.07737831810365914,-0.1,0.0,1.0,394.0,526.0,0.0,1,130.0,0
575,575,-0.038987544068965874,-0.0,1.0,0.0,448.0,612.0,0.0,0,2240.0,1
576,576,0.7931805823427048,0.8,0.0,0.0,463.0,728.0,0.0,1,-421.0,1
577,577,-0.808439259176927,-0.8,1.0,0.0,368.0,578.0,0.0,0,594.0,1
578,578,0.3745232180072512,0.4,0.0,0.0,386.0,595.0,0.0,1,-571.0,1
579,579,-0.27888752563031394,-0.3,1.0,0.0,494.0,917.0,0.0,0,-1211.0,1
580,580,-0.6725592133010314,-0.7,1.0,0.0,376.0,612.0,0.0,0,1162.0,1
581,581,-0.8789075237949863,-0.9,1.0,0.0,299.0,527.0,0.0,0,1214.0,1
582,582,-0.4403279495440162,-0.4,1.0,0.0,312.0,937.0,0.0,0,1031.0,1
583,583,0.4667763286637806,0.5,1.0,1.0,290.0,770.0,0.0,0,190.0,0
584,584,0.3689980427152578,0.4,1.0,1.0,342.0,801.0,0.0,0,-983.0,0
585,585,-0.33176299622904826,-0.3,1.0,0.0,369.0,659.0,1.0,1,3972.0,0
586,586,0.7159055279038141,0.7,1.0,1.0,364.0,732.0,0.0,0,1954.0,0
587,587,-0.5252612982715203,-0.5,0.0,1.0,283.0,966.0,1.0,0,3751.0,1
588,588,0.0418491604754071,0.0,1.0,1.0,347.0,524.0,0.0,0,119.0,0
589,589,-0.3356198222528407,-0.3,1.0,0.0,278.0,990.0,0.0,0,512.0,1
590,590,-0.7969136464700118,-0.8,0.0,1.0,423.0,544.0,1.0,0,4033.0,1
591,591,0.513281735487887,0.5,0.0,0.0,381.0,530.0,0.0,1,29.0,1
592,592,0.6501132050825579,0.7,1.0,1.0,354.0,940.0,0.0,0,-954.0,0
593,593,-0.4237936934756459,-0.4,0.0,1.0,352.0,991.0,0.0,1,87.0,0
594,594,0.7559745570360404,0.8,1.0,1.0,377.0,982.0,0.0,0,2431.0,0
595,595,-0.6075800526334818,-0.6,0.0,1.0,348.0,948.0,0.0,1,-666.0,0
596,596,-0.5382893107098468,-0.5,0.0,1.0,371.0,992.0,1.0,0,3637.0,1
597,597,0.6600899740312499,0.7,0.0,0.0,448.0,632.0,0.0,1,190.0,1
598,598,-0.1928305560986444,-0.2,1.0,0.0,341.0,576.0,0.0,0,-747.0,1
599,599,0.4885770872262206,0.5,1.0,1.0,435.0,645.0,0.0,0,-720.0,0
600,600,-0.8009017672846325,-0.8,1.0,0.0,318.0,810.0,0.0,0,-1118.0,1
601,601,0.34833213046736133,0.3,1.0,1.0,452.0,559.0,0.0,0,-601.0,0
602,602,-0.20898976727084007,-0.2,0.0,1.0,370.0,855.0,0.0,1,1735.0,0
603,603,-0.016453823882054075,-0.0,1.0,0.0,401.0,864.0,0.0,0,-405.0,1
604,604,-0.4117501246272118,-0.4,1.0,0.0,250.0,859.0,0.0,0,-449.0,1
605,605,0.34460661967038686,0.3,1.0,1.0,470.0,718.0,0.0,0,472.0,0
606,606,0.16762058428234272,0.2,0.0,0.0,320.0,583.0,0.0,1,87.0,1
607,607,0.399810567893205,0.4,0.0,0.0,494.0,935.0,0.0,1,-1339.0,1
608,608,0.8903706129273746,0.9,1.0,1.0,448.0,707.0,0.0,0,1175.0,0
609,609,0.4546192299161772,0.5,0.0,0.0,454.0,681.0,0.0,1,3865.0,1
610,610,-0.3348567513327707,-0.3,0.0,1.0,360.0,579.0,1.0,0,4061.0,1
611,611,0.494320522961314,0.5,1.0,1.0,293.0,534.0,0.0,0,473.0,0
612,612,-0.04824999979057831,-0.0,0.0,1.0,288.0,864.0,0.0,1,-152.0,0
613,613,-0.37930999441276325,-0.4,0.0,1.0,272.0,673.0,0.0,1,1795.0,0
614,614,-0.05532133464777056,-0.1,1.0,0.0,366.0,623.0,0.0,0,-89.0,1
615,615,0.6351282020516272,0.6,0.0,0.0,298.0,954.0,0.0,1,788.0,1
616,616,0.03641973607504667,0.0,1.0,1.0,375.0,997.0,0.0,0,38.0,0
617,617,0.15864836951728634,0.2,1.0,1.0,410.0,686.0,0.0,0,-456.0,0
618,618,-0.7787929055694488,-0.8,1.0,0.0,370.0,729.0,0.0,0,521.0,1
619,619,-0.8744229015720827,-0.9,1.0,0.0,275.0,764.0,0.0,0,3951.0,1
620,620,0.6884653172922924,0.7,1.0,1.0,313.0,775.0,0.0,0,-538.0,0
621,621,-0.24695691440866674,-0.2,0.0,1.0,498.0,924.0,0.0,1,-682.0,0
622,622,0.22707440478741103,0.2,0.0,0.0,279.0,657.0,0.0,1,-776.0,1
623,623,-0.5912257743825211,-0.6,1.0,0.0,403.0,853.0,0.0,0,1594.0,1
624,624,0.010555340456369744,0.0,0.0,0.0,489.0,908.0,0.0,1,3093.0,1
625,625,0.40634038792744864,0.4,0.0,0.0,262.0,662.0,1.0,0,4076.0,0
626,626,-0.3630505174868165,-0.4,0.0,1.0,339.0,873.0,1.0,0,1048.0,1
627,627,0.5359368330180218,0.5,1.0,1.0,439.0,510.0,0.0,0,3961.0,0
628,628,-0.11643167445896863,-0.1,0.0,1.0,350.0,783.0,0.0,1,1117.0,0
629,629,0.7338452917998585,0.7,0.0,0.0,421.0,976.0,0.0,1,1963.0,1
630,630,-0.303722620650142,-0.3,1.0,0.0,288.0,723.0,0.0,0,2139.0,1
631,631,0.21962157784462744,0.2,0.0,0.0,324.0,646.0,0.0,1,780.0,1
632,632,-0.27335565392999017,-0.3,1.0,0.0,314.0,821.0,0.0,0,445.0,1
633,633,0.6563407539319092,0.7,1.0,1.0,445.0,515.0,0.0,0,3800.0,0
634,634,-0.3604758022615412,-0.4,0.0,1.0,321.0,554.0,1.0,0,4125.0,1
635,635,0.03273493705897901,0.0,0.0,0.0,449.0,689.0,0.0,1,342.0,1
636,636,-0.09221344059140613,-0.1,0.0,1.0,396.0,926.0,0.0,1,758.0,0
637,637,-0.8396141188277522,-0.8,0.0,1.0,292.0,800.0,0.0,1,448.0,0
638,638,0.7783561079935443,0.8,1.0,1.0,416.0,930.0,1.0,1,3654.0,1
639,639,0.7544488011650391,0.8,1.0,1.0,319.0,716.0,1.0,1,3965.0,1
640,640,0.19727303805208674,0.2,0.0,0.0,330.0,659.0,1.0,0,4011.0,0
641,641,0.029642816846798148,0.0,1.0,1.0,349.0,554.0,0.0,0,697.0,0
642,642,0.2235679656295223,0.2,0.0,0.0,334.0,832.0,0.0,1,-646.0,1
643,643,-0.5807050446312121,-0.6,0.0,1.0,307.0,725.0,0.0,1,1528.0,0
644,644,-0.35093103465391595,-0.4,1.0,0.0,381.0,947.0,0.0,0,802.0,1
645,645,-0.29745035210535886,-0.3,1.0,0.0,448.0,842.0,0.0,0,-910.0,1
646,646,-0.4274941569879117,-0.4,0.0,1.0,451.0,640.0,0.0,1,2009.0,0
647,647,-0.8450407610775061,-0.8,1.0,0.0,493.0,662.0,0.0,0,505.0,1
648,648,0.589904980425436,0.6,1.0,1.0,273.0,580.0,0.0,0,1847.0,0
649,649,-0.1060180075103988,-0.1,1.0,0.0,420.0,573.0,0.0,0,3067.0,1
650,650,-0.004664199995813467,-0.0,0.0,1.0,307.0,605.0,0.0,1,2988.0,0
651,651,0.45895607935639793,0.5,0.0,0.0,407.0,781.0,0.0,1,-418.0,1
652,652,-0.30652858744864264,-0.3,0.0,1.0,409.0,539.0,1.0,0,4052.0,1
653,653,-0.8506398511839983,-0.9,0.0,1.0,489.0,970.0,0.0,1,-1299.0,0
654,654,-0.5193923517008197,-0.5,0.0,1.0,478.0,847.0,1.0,0,3675.0,1
655,655,-0.8457012355406752,-0.8,1.0,0.0,318.0,806.0,0.0,0,1116.0,1
656,656,-0.8106187467868603,-0.8,0.0,1.0,255.0,952.0,0.0,1,-487.0,0
657,657,-0.291948695573249,-0.3,1.0,0.0,465.0,908.0,0.0,0,3107.0,1
658,658,0.17540227237138672,0.2,1.0,1.0,306.0,748.0,0.0,0,206.0,0
659,659,-0.4021777272892439,-0.4,0.0,1.0,371.0,886.0,0.0,1,1273.0,0
660,660,-0.18567802706221326,-0.2,0.0,1.0,476.0,797.0,0.0,1,-563.0,0
661,661,-0.3199536999131771,-0.3,0.0,1.0,447.0,943.0,0.0,1,-200.0,0
662,662,0.64040377892077,0.6,1.0,1.0,343.0,566.0,0.0,0,-539.0,0
663,663,-0.2254858553122896,-0.2,1.0,0.0,396.0,619.0,0.0,0,3985.0,1
664,664,0.14364034279070503,0.1,1.0,1.0,479.0,958.0,0.0,0,533.0,0
665,665,-0.16337981582409222,-0.2,0.0,1.0,458.0,984.0,0.0,1,-532.0,0
666,666,0.8422176730128331,0.8,1.0,1.0,379.0,795.0,0.0,0,-584.0,0
667,667,0.7562460121649667,0.8,1.0,1.0,425.0,604.0,0.0,0,-859.0,0
668,668,0.268208522778982,0.3,0.0,0.0,456.0,613.0,0.0,1,3091.0,1
669,669,0.6944215727953708,0.7,1.0,1.0,351.0,740.0,0.0,0,-11.0,0
670,670,0.40394561116227357,0.4,0.0,0.0,479.0,533.0,0.0,1,2068.0,1
671,671,-0.015711595981156234,-0.0,1.0,0.0,441.0,758.0,0.0,0,151.0,1
672,672,-0.0791404386975384,-0.1,0.0,1.0,310.0,597.0,0.0,1,1283.0,0
673,673,-0.6011765779385321,-0.6,1.0,0.0,313.0,860.0,1.0,1,3827.0,0
674,674,0.23919645625026587,0.2,1.0,1.0,334.0,892.0,0.0,0,-416.0,0
675,675,-0.1404189628864122,-0.1,1.0,0.0,365.0,810.0,0.0,0,2305.0,1
676,676,-0.6426288507600688,-0.6,0.0,1.0,289.0,958.0,0.0,1,-1207.0,0
677,677,-0.49103655167603594,-0.5,0.0,1.0,261.0,526.0,0.0,1,-147.0,0
678,678,0.6160016641984288,0.6,1.0,1.0,368.0,828.0,0.0,0,-326.0,0
679,679,0.305275615015029,0.3,1.0,1.0,415.0,515.0,0.0,0,2900.0,0
680,680,-0.625684765714634,-0.6,0.0,1.0,278.0,620.0,0.0,1,4102.0,0
681,681,0.7191318246660786,0.7,0.0,0.0,324.0,878.0,0.0,1,738.0,1
682,682,-0.29458534014426474,-0.3,1.0,0.0,435.0,678.0,0.0,0,947.0,1
683,683,0.27345303544821664,0.3,1.0,1.0,459.0,652.0,0.0,0,589.0,0
684,684,0.24595838803753522,0.2,1.0,1.0,274.0,609.0,0.0,0,1287.0,0
685,685,0.7075668958835203,0.7,1.0,1.0,408.0,975.0,0.0,0,-493.0,0
686,686,-0.037538174002008096,-0.0,0.0,1.0,365.0,505.0,0.0,1,3830.0,0
687,687,0.8153366707832767,0.8,0.0,0.0,279.0,519.0,0.0,1,2032.0,1
688,688,0.175711504593851,0.2,1.0,1.0,497.0,831.0,0.0,0,862.0,0
689,689,0.7329078582928051,0.7,0.0,0.0,373.0,670.0,1.0,0,3957.0,0
690,690,0.5624639859922033,0.6,1.0,1.0,375.0,852.0,1.0,1,3773.0,1
691,691,-0.7102391658330416,-0.7,1.0,0.0,459.0,653.0,1.0,1,3888.0,0
692,692,0.25247520392546197,0.3,1.0,1.0,305.0,641.0,0.0,0,484.0,0
693,693,-0.09999686927967566,-0.1,1.0,0.0,473.0,821.0,0.0,0,-1164.0,1
694,694,-0.4646651500276239,-0.5,1.0,0.0,378.0,508.0,0.0,0,-696.0,1
695,695,0.4725974355767254,0.5,0.0,0.0,401.0,681.0,0.0,1,1528.0,1
696,696,0.34335772010119203,0.3,1.0,1.0,398.0,705.0,0.0,0,427.0,0
697,697,0.46128045537226525,0.5,1.0,1.0,358.0,969.0,0.0,0,483.0,0
698,698,-0.42600515187447546,-0.4,0.0,1.0,396.0,851.0,0.0,1,2503.0,0
699,699,0.10604630737226295,0.1,1.0,1.0,399.0,656.0,0.0,0,2325.0,0
700,700,-0.05972072142103768,-0.1,1.0,0.0,442.0,596.0,0.0,0,132.0,1
701,701,0.5092535252885811,0.5,1.0,1.0,288.0,705.0,1.0,1,4007.0,1
702,702,0.2870858724368318,0.3,1.0,1.0,388.0,754.0,0.0,0,-62.0,0
703,703,0.3098698966673473,0.3,0.0,0.0,420.0,889.0,0.0,1,2841.0,1
704,704,0.19572655355047963,0.2,1.0,1.0,392.0,931.0,0.0,0,1167.0,0
705,705,0.35194124820696404,0.4,1.0,1.0,363.0,526.0,0.0,0,2271.0,0
706,706,0.15443262079562514,0.2,0.0,0.0,461.0,792.0,0.0,1,-1193.0,1
707,707,-0.2583056517988085,-0.3,1.0,0.0,294.0,841.0,0.0,0,-845.0,1
708,708,0.6627711882629336,0.7,1.0,1.0,414.0,678.0,0.0,0,1528.0,0
709,709,-0.7473173155739588,-0.7,1.0,0.0,458.0,960.0,0.0,0,-818.0,1
710,710,0.2001352681670302,0.2,0.0,0.0,336.0,874.0,0.0,1,170.0,1
711,711,-0.2675742370401776,-0.3,0.0,1.0,459.0,648.0,0.0,1,3473.0,0
712,712,-0.7767619449387566,-0.8,1.0,0.0,396.0,536.0,0.0,0,-842.0,1
713,713,0.7315872930852149,0.7,1.0,1.0,475.0,870.0,0.0,0,-985.0,0
714,714,0.2827325471918535,0.3,1.0,1.0,273.0,927.0,0.0,0,1360.0,0
715,715,0.37556371816439194,0.4,1.0,1.0,399.0,744.0,0.0,0,1987.0,0
716,716,-0.7020902741562002,-0.7,1.0,0.0,433.0,555.0,0.0,0,422.0,1
717,717,-0.5929269011909726,-0.6,0.0,1.0,439.0,836.0,0.0,1,2345.0,0
718,718,-0.3436709920355414,-0.3,1.0,0.0,449.0,947.0,1.0,1,3604.0,0
719,719,0.3990218977058452,0.4,1.0,1.0,297.0,701.0,0.0,0,-628.0,0
720,720,-0.2564924503445145,-0.3,0.0,1.0,432.0,688.0,1.0,0,-940.0,1
721,721,-0.10289418163956365,-0.1,1.0,0.0,444.0,980.0,0.0,0,3576.0,1
722,722,-0.09025470960586623,-0.1,1.0,0.0,434.0,712.0,0.0,0,2044.0,1
723,723,0.31182095693694023,0.3,0.0,0.0,371.0,717.0,0.0,1,-108.0,1
724,724,-0.7828845403901278,-0.8,1.0,0.0,387.0,654.0,0.0,0,1419.0,1
725,725,0.4701066574144078,0.5,0.0,0.0,431.0,609.0,0.0,1,2660.0,1
726,726,0.26368428974673963,0.3,1.0,1.0,370.0,753.0,0.0,0,3877.0,0
727,727,-0.06763913663452958,-0.1,0.0,1.0,387.0,502.0,0.0,1,-419.0,0
728,728,-0.6981520927562607,-0.7,0.0,1.0,324.0,681.0,1.0,0,3995.0,1
729,729,-0.17936636510851067,-0.2,0.0,1.0,406.0,740.0,0.0,1,574.0,0
730,730,-0.6134658866361878,-0.6,1.0,0.0,449.0,879.0,0.0,0,-968.0,1
731,731,-0.6845452257294281,-0.7,0.0,1.0,352.0,878.0,0.0,1,0.0,0
732,732,-0.5365010968208994,-0.5,0.0,1.0,399.0,871.0,0.0,1,2020.0,0
733,733,0.4015601664918306,0.4,1.0,1.0,463.0,520.0,0.0,0,2597.0,0
734,734,-0.15908658006881637,-0.2,0.0,1.0,341.0,869.0,0.0,1,-1030.0,0
735,735,-0.5841979393271999,-0.6,0.0,1.0,381.0,530.0,0.0,1,569.0,0
736,736,-0.29357600219323166,-0.3,1.0,0.0,429.0,781.0,0.0,0,490.0,1
737,737,0.5510366702640929,0.6,0.0,0.0,420.0,795.0,0.0,1,1905.0,1
738,738,0.28152408277886687,0.3,1.0,1.0,455.0,789.0,0.0,0,-1074.0,0
739,739,0.7644395082342977,0.8,1.0,1.0,388.0,705.0,0.0,0,-43.0,0
740,740,0.6316787493887451,0.6,0.0,0.0,286.0,562.0,0.0,1,-538.0,1
741,741,0.7118001004437514,0.7,1.0,1.0,414.0,650.0,0.0,0,1116.0,0
742,742,-0.3980959469391194,-0.4,1.0,0.0,418.0,623.0,0.0,0,-541.0,1
743,743,0.22669492122435908,0.2,1.0,1.0,351.0,587.0,0.0,0,532.0,0
744,744,0.1294054368519567,0.1,0.0,0.0,423.0,835.0,0.0,1,-1108.0,1
745,745,0.46152321530315665,0.5,0.0,0.0,336.0,514.0,0.0,1,610.0,1
746,746,0.2633092512821523,0.3,1.0,1.0,411.0,895.0,0.0,0,2844.0,0
747,747,-0.49483445028963297,-0.5,0.0,1.0,276.0,789.0,0.0,1,-235.0,0
748,748,-0.6251927547453509,-0.6,1.0,0.0,251.0,592.0,0.0,0,-743.0,1
749,749,0.7094498447830971,0.7,0.0,0.0,402.0,648.0,0.0,1,-240.0,1
750,750,-0.4131320279563429,-0.4,0.0,1.0,398.0,637.0,0.0,1,2945.0,0
751,751,-0.3844496251924169,-0.4,1.0,0.0,254.0,536.0,1.0,1,4210.0,0
752,752,0.2113966056948472,0.2,0.0,0.0,362.0,596.0,0.0,1,592.0,1
753,753,0.02554908738817696,0.0,1.0,1.0,490.0,573.0,0.0,0,1377.0,0
754,754,-0.248099321302111,-0.2,1.0,0.0,428.0,752.0,0.0,0,-170.0,1
755,755,-0.5776289706440911,-0.6,1.0,0.0,493.0,572.0,0.0,0,45.0,1
756,756,-0.1040460367617364,-0.1,1.0,0.0,393.0,980.0,1.0,1,3627.0,0
757,757,-0.6329255991311317,-0.6,0.0,1.0,380.0,893.0,0.0,1,-613.0,0
758,758,-0.4594647335276249,-0.5,1.0,0.0,326.0,955.0,0.0,0,-321.0,1
759,759,0.7546145172513542,0.8,1.0,1.0,379.0,532.0,0.0,0,-121.0,0
760,760,0.6961577034251661,0.7,1.0,1.0,376.0,921.0,0.0,0,3703.0,0
761,761,0.4108446866907213,0.4,1.0,1.0,353.0,792.0,0.0,0,-1095.0,0
762,762,0.6339951897600388,0.6,1.0,1.0,317.0,823.0,0.0,0,2920.0,0
763,763,-0.7306167606595412,-0.7,0.0,1.0,475.0,711.0,0.0,1,3354.0,0
764,764,-0.15438549020481096,-0.2,0.0,1.0,423.0,955.0,0.0,1,2882.0,0
765,765,-0.5900565459859584,-0.6,0.0,1.0,292.0,989.0,0.0,1,2429.0,0
766,766,-0.5002618502009228,-0.5,1.0,0.0,449.0,539.0,0.0,0,3622.0,1
767,767,0.3934546829760833,0.4,1.0,1.0,356.0,569.0,0.0,0,-805.0,0
768,768,0.31963096563229365,0.3,1.0,1.0,403.0,951.0,0.0,0,-524.0,0
769,769,0.4628201736879468,0.5,0.0,0.0,393.0,539.0,0.0,1,-142.0,1
770,770,-0.5195781720880168,-0.5,1.0,0.0,257.0,982.0,0.0,0,-869.0,1
771,771,-0.5987953813450237,-0.6,0.0,1.0,321.0,575.0,0.0,1,374.0,0
772,772,-0.8108126199987075,-0.8,0.0,1.0,308.0,793.0,1.0,0,3899.0,1
773,773,-0.4906657549975833,-0.5,1.0,0.0,466.0,694.0,0.0,0,-830.0,1
774,774,-0.43152982171788146,-0.4,0.0,1.0,394.0,813.0,1.0,0,3793.0,1
775,775,-0.7694251348126124,-0.8,0.0,1.0,466.0,928.0,0.0,1,-1254.0,0
776,776,0.7776350955316439,0.8,0.0,0.0,466.0,697.0,0.0,1,3837.0,1
777,777,0.08542572497444478,0.1,0.0,0.0,274.0,546.0,0.0,1,130.0,1
778,778,0.6805197742098333,0.7,0.0,0.0,382.0,779.0,0.0,1,139.0,1
779,779,0.4118831857373543,0.4,1.0,1.0,497.0,895.0,0.0,0,-1212.0,0
780,780,0.18421508205209702,0.2,1.0,1.0,465.0,561.0,0.0,0,-866.0,0
781,781,-0.895311094890265,-0.9,1.0,0.0,334.0,771.0,0.0,0,3615.0,1
782,782,-0.5439306217843238,-0.5,0.0,1.0,435.0,721.0,0.0,1,1254.0,0
783,783,-0.24474746601941355,-0.2,1.0,0.0,347.0,638.0,0.0,0,-145.0,1
784,784,-0.8854541633828559,-0.9,0.0,1.0,458.0,512.0,1.0,0,4030.0,1
785,785,-0.23342912124339077,-0.2,1.0,0.0,470.0,636.0,0.0,0,54.0,1
786,786,-0.7265968024863351,-0.7,1.0,0.0,465.0,782.0,0.0,0,1763.0,1
787,787,-0.6317475410534632,-0.6,0.0,1.0,346.0,876.0,0.0,1,1648.0,0
788,788,0.8329341381042749,0.8,0.0,0.0,401.0,514.0,0.0,1,-445.0,1
789,789,-0.48699477393420826,-0.5,0.0,1.0,432.0,774.0,0.0,1,784.0,0
790,790,-0.197232038149585,-0.2,0.0,1.0,421.0,930.0,0.0,1,59.0,0
791,791,0.7816544900426098,0.8,1.0,1.0,273.0,568.0,0.0,0,-651.0,0
792,792,-0.47155945865638743,-0.5,1.0,0.0,443.0,890.0,1.0,1,3667.0,0
793,793,-0.7479570796802607,-0.7,0.0,1.0,278.0,832.0,0.0,1,-630.0,0
794,794,-0.07846437332728196,-0.1,0.0,1.0,491.0,636.0,0.0,1,1373.0,0
795,795,-0.039982351989994336,-0.0,1.0,0.0,404.0,696.0,1.0,1,3900.0,0
796,796,-0.08032579010354479,-0.1,1.0,0.0,450.0,781.0,0.0,0,-451.0,1
797,797,0.34849722847832687,0.3,1.0,1.0,412.0,871.0,0.0,0,-53.0,0
798,798,0.5832349682510728,0.6,1.0,1.0,421.0,757.0,1.0,1,3822.0,1
799,799,-0.786697374163378,-0.8,1.0,0.0,412.0,866.0,0.0,0,292.0,1
800,800,-0.07277792632183977,-0.1,1.0,0.0,404.0,878.0,0.0,0,1978.0,1
801,801,0.7343252624016953,0.7,0.0,0.0,276.0,752.0,0.0,1,112.0,1
802,802,0.6793232156438073,0.7,1.0,1.0,402.0,789.0,1.0,1,3809.0,1
803,803,0.11170295830062471,0.1,1.0,1.0,328.0,617.0,0.0,0,4055.0,0
804,804,0.1983704546823276,0.2,1.0,1.0,291.0,559.0,0.0,0,2050.0,0
805,805,-0.47219471966186083,-0.5,0.0,1.0,383.0,717.0,0.0,1,2270.0,0
806,806,0.19865332038989758,0.2,1.0,1.0,309.0,913.0,0.0,0,3688.0,0
807,807,-0.10198481164696427,-0.1,1.0,0.0,358.0,566.0,0.0,0,656.0,1
808,808,-0.10573412056491449,-0.1,1.0,0.0,314.0,688.0,0.0,0,1038.0,1
809,809,-0.13089405692765277,-0.1,1.0,0.0,311.0,524.0,0.0,0,115.0,1
810,810,0.08032845907926145,0.1,1.0,1.0,485.0,606.0,0.0,0,-611.0,0
811,811,-0.21681744584455498,-0.2,0.0,1.0,419.0,771.0,0.0,1,-890.0,0
812,812,-0.8853246618878495,-0.9,0.0,1.0,382.0,643.0,0.0,1,-885.0,0
813,813,-0.044064347254906155,-0.0,0.0,1.0,466.0,825.0,0.0,1,-391.0,0
814,814,0.45959665650898296,0.5,1.0,1.0,354.0,858.0,0.0,0,2338.0,0
815,815,0.7778927497567188,0.8,1.0,1.0,284.0,967.0,1.0,1,3749.0,1
816,816,-0.4501403239786892,-0.5,1.0,0.0,414.0,739.0,0.0,0,-873.0,1
817,817,-0.030001418828358495,-0.0,0.0,1.0,418.0,947.0,0.0,1,-1145.0,0
818,818,0.6741840490009666,0.7,0.0,0.0,471.0,671.0,0.0,1,1708.0,1
819,819,-0.21862125355257211,-0.2,1.0,0.0,484.0,956.0,0.0,0,3560.0,1
820,820,0.7785183486834909,0.8,0.0,0.0,404.0,723.0,0.0,1,3013.0,1
821,821,-0.8136124127082014,-0.8,0.0,1.0,441.0,671.0,0.0,1,-632.0,0
822,822,-0.04254030838014189,-0.0,1.0,0.0,372.0,726.0,0.0,0,-998.0,1
823,823,0.08055455164486014,0.1,0.0,0.0,474.0,998.0,0.0,1,1038.0,1
824,824,-0.4803690864688032,-0.5,1.0,0.0,306.0,608.0,0.0,0,-704.0,1
825,825,0.2594529837627856,0.3,0.0,0.0,335.0,537.0,0.0,1,-292.0,1
826,826,0.698279501451213,0.7,0.0,0.0,354.0,891.0,0.0,1,-275.0,1
827,827,0.5635841072676987,0.6,0.0,0.0,282.0,641.0,0.0,1,427.0,1
828,828,0.8744336188710679,0.9,0.0,0.0,270.0,990.0,0.0,1,110.0,1
829,829,-0.6368750227105473,-0.6,1.0,0.0,462.0,720.0,0.0,0,258.0,1
830,830,0.015982148561578646,0.0,0.0,0.0,360.0,935.0,0.0,1,2575.0,1
831,831,-0.3306222164472019,-0.3,0.0,1.0,331.0,845.0,0.0,1,1224.0,0
832,832,-0.003878580650948371,-0.0,0.0,1.0,352.0,523.0,0.0,1,-45.0,0
833,833,0.4865802656383641,0.5,0.0,0.0,449.0,779.0,0.0,1,1852.0,1
834,834,-0.12011628760517457,-0.1,1.0,0.0,432.0,981.0,0.0,0,397.0,1
835,835,0.7527505914461411,0.8,0.0,0.0,296.0,520.0,0.0,1,-46.0,1
836,836,-0.5408030669833357,-0.5,1.0,0.0,488.0,503.0,0.0,0,1239.0,1
837,837,-0.042546441670022306,-0.0,1.0,0.0,338.0,615.0,0.0,0,4047.0,1
838,838,-0.7868342927640117,-0.8,0.0,1.0,384.0,525.0,0.0,1,-879.0,0
839,839,-0.8583264645621026,-0.9,1.0,0.0,414.0,794.0,0.0,0,1152.0,1
840,840,0.6716179847734399,0.7,1.0,1.0,262.0,837.0,0.0,0,3791.0,0
841,841,0.010189535450202625,0.0,0.0,0.0,392.0,887.0,0.0,1,361.0,1
842,842,-0.4780327247161481,-0.5,1.0,0.0,486.0,882.0,0.0,0,212.0,1
843,843,0.3891073383499103,0.4,0.0,0.0,408.0,653.0,0.0,1,429.0,1
844,844,0.7108451662135172,0.7,0.0,0.0,424.0,599.0,0.0,1,-653.0,1
845,845,-0.8340407816581148,-0.8,1.0,0.0,376.0,679.0,0.0,0,885.0,1
846,846,0.48126529958909703,0.5,1.0,1.0,351.0,562.0,0.0,0,-133.0,0
847,847,-0.8832341629407767,-0.9,1.0,0.0,485.0,920.0,0.0,0,605.0,1
848,848,0.3542486922920193,0.4,1.0,1.0,479.0,597.0,0.0,0,-1056.0,0
849,849,0.8155398998138098,0.8,0.0,0.0,409.0,655.0,0.0,1,526.0,1
850,850,-0.43676774421290515,-0.4,1.0,0.0,326.0,754.0,0.0,0,-470.0,1
851,851,-0.17443553104158416,-0.2,1.0,0.0,490.0,663.0,0.0,0,1327.0,1
852,852,0.18162126958379543,0.2,0.0,0.0,261.0,894.0,0.0,1,-655.0,1
853,853,-0.3997647748049197,-0.4,0.0,1.0,290.0,894.0,0.0,1,1606.0,0
854,854,-0.35690215319199126,-0.4,0.0,1.0,355.0,607.0,0.0,1,-192.0,0
855,855,0.667595681578682,0.7,1.0,1.0,392.0,963.0,0.0,0,-105.0,0
856,856,-0.26647807030966164,-0.3,0.0,1.0,475.0,612.0,0.0,1,3913.0,0
857,857,0.49261154311415123,0.5,1.0,1.0,497.0,600.0,0.0,0,-707.0,0
858,858,0.25238826326469954,0.3,0.0,0.0,407.0,783.0,0.0,1,470.0,1
859,859,-0.30620207870319494,-0.3,0.0,1.0,454.0,829.0,0.0,1,-713.0,0
860,860,0.8296346929696842,0.8,0.0,0.0,389.0,709.0,0.0,1,-748.0,1
861,861,-0.2528053979665228,-0.3,1.0,0.0,358.0,797.0,0.0,0,-215.0,1
862,862,0.11460311845532412,0.1,0.0,0.0,461.0,619.0,0.0,1,1900.0,1
863,863,0.16539426377400124,0.2,1.0,1.0,343.0,952.0,0.0,0,1895.0,0
864,864,0.03349592573329763,0.0,0.0,0.0,426.0,605.0,0.0,1,359.0,1
865,865,-0.3706748666198202,-0.4,1.0,0.0,455.0,702.0,0.0,0,483.0,1
866,866,-0.5942057524425555,-0.6,0.0,1.0,485.0,508.0,0.0,1,-713.0,0
867,867,-0.4974962039746524,-0.5,1.0,0.0,366.0,754.0,0.0,0,1680.0,1
868,868,-0.7467025476397389,-0.7,1.0,0.0,298.0,766.0,0.0,0,1706.0,1
869,869,0.06691400791237012,0.1,0.0,0.0,312.0,708.0,0.0,1,1470.0,1
870,870,0.17702913856036429,0.2,1.0,1.0,373.0,841.0,0.0,0,-654.0,0
871,871,0.6037976163949802,0.6,1.0,1.0,440.0,824.0,1.0,1,3736.0,1
872,872,-0.5838191016811292,-0.6,0.0,1.0,286.0,985.0,0.0,1,-881.0,0
873,873,-0.6269024494130553,-0.6,0.0,1.0,324.0,930.0,0.0,1,1916.0,0
874,874,0.46385838787082523,0.5,1.0,1.0,254.0,993.0,0.0,0,-927.0,0
875,875,0.5634441133891118,0.6,1.0,1.0,337.0,861.0,0.0,0,922.0,0
876,876,-0.19641556525865866,-0.2,0.0,1.0,473.0,811.0,0.0,1,-304.0,0
877,877,0.31674711239059217,0.3,1.0,1.0,341.0,621.0,0.0,0,2238.0,0
878,878,0.6344213447972341,0.6,0.0,0.0,471.0,712.0,0.0,1,637.0,1
879,879,0.5153433297547206,0.5,1.0,1.0,266.0,785.0,0.0,0,-441.0,0
880,880,-0.018739428257680935,-0.0,1.0,0.0,372.0,569.0,0.0,0,2819.0,1
881,881,0.7753597589468945,0.8,1.0,1.0,394.0,551.0,0.0,0,-795.0,0
882,882,-0.18611446337432613,-0.2,1.0,0.0,301.0,572.0,0.0,0,-333.0,1
883,883,0.6046319004544362,0.6,1.0,1.0,377.0,748.0,1.0,1,-205.0,1
884,884,-0.03280334570048027,-0.0,1.0,0.0,430.0,965.0,0.0,0,-875.0,1
885,885,0.2567737080481599,0.3,0.0,0.0,311.0,957.0,0.0,1,-458.0,1
886,886,0.4790257467742588,0.5,0.0,0.0,433.0,733.0,0.0,1,3834.0,1
887,887,-0.04668883838517934,-0.0,0.0,1.0,281.0,553.0,0.0,1,1416.0,0
888,888,-0.7659384773747884,-0.8,1.0,0.0,303.0,642.0,0.0,0,-45.0,1
889,889,0.6061540219011526,0.6,1.0,1.0,328.0,901.0,0.0,0,-719.0,0
890,890,-0.16011374874576478,-0.2,0.0,1.0,391.0,540.0,0.0,1,-761.0,0
891,891,-0.3922888739885797,-0.4,1.0,0.0,331.0,524.0,0.0,0,-445.0,1
892,892,-0.14482090663479819,-0.1,0.0,1.0,334.0,567.0,0.0,1,1959.0,0
893,893,-0.7678632996943956,-0.8,0.0,1.0,467.0,845.0,1.0,0,3688.0,1
894,894,0.3846086975762725,0.4,1.0,1.0,323.0,501.0,0.0,0,826.0,0
895,895,-0.1670517098624189,-0.2,1.0,0.0,336.0,617.0,0.0,0,757.0,1
896,896,0.03745299419786097,0.0,0.0,0.0,331.0,506.0,0.0,1,173.0,1
897,897,0.5584074640278899,0.6,1.0,1.0,426.0,950.0,0.0,0,-1266.0,0
898,898,0.24473688315630338,0.2,0.0,0.0,402.0,950.0,0.0,1,-652.0,1
899,899,0.2424532304471615,0.2,0.0,0.0,459.0,791.0,0.0,1,3060.0,1
900,900,-0.0421184295899667,-0.0,1.0,0.0,488.0,891.0,0.0,0,811.0,1
901,901,0.7042725205088766,0.7,0.0,0.0,413.0,649.0,0.0,1,-772.0,1
902,902,0.4806084359038486,0.5,1.0,1.0,488.0,597.0,0.0,0,-125.0,0
903,903,-0.10479175859961842,-0.1,1.0,0.0,364.0,548.0,0.0,0,3838.0,1
904,904,0.019461624167850577,0.0,0.0,0.0,468.0,872.0,0.0,1,1670.0,1
905,905,0.3367707483030552,0.3,0.0,0.0,297.0,674.0,0.0,1,-281.0,1
906,906,0.34933775531828737,0.3,0.0,0.0,434.0,610.0,0.0,1,2156.0,1
907,907,-0.04198734861950937,-0.0,0.0,1.0,267.0,965.0,0.0,1,1318.0,0
908,908,0.6645321070759044,0.7,0.0,0.0,394.0,659.0,0.0,1,67.0,1
909,909,-0.06265276120106411,-0.1,1.0,0.0,306.0,602.0,0.0,0,242.0,1
910,910,-0.5164965212972146,-0.5,0.0,1.0,482.0,740.0,0.0,1,3328.0,0
911,911,-0.7252338183736324,-0.7,0.0,1.0,425.0,912.0,0.0,1,-947.0,0
912,912,-0.7949278808234694,-0.8,0.0,1.0,480.0,529.0,0.0,1,3071.0,0
913,913,0.02356910020149605,0.0,1.0,1.0,374.0,671.0,1.0,1,3955.0,1
914,914,-0.46931468484463623,-0.5,0.0,1.0,445.0,739.0,0.0,1,536.0,0
915,915,0.7370109124387331,0.7,1.0,1.0,454.0,913.0,0.0,0,1063.0,0
916,916,-0.13599592768364355,-0.1,1.0,0.0,497.0,595.0,0.0,0,1038.0,1
917,917,0.5337998005094503,0.5,1.0,1.0,339.0,735.0,0.0,0,536.0,0
918,918,0.08592311993607238,0.1,1.0,1.0,480.0,918.0,0.0,0,-1258.0,0
919,919,0.19693357868223382,0.2,0.0,0.0,363.0,991.0,0.0,1,1486.0,1
920,920,0.40861688686677666,0.4,1.0,1.0,308.0,865.0,0.0,0,-813.0,0
921,921,0.7153633716142428,0.7,0.0,0.0,324.0,552.0,0.0,1,264.0,1
922,922,0.6846587670611813,0.7,1.0,1.0,286.0,871.0,0.0,0,-1127.0,0
923,923,-0.8300216012710214,-0.8,0.0,1.0,420.0,717.0,0.0,1,-367.0,0
924,924,0.16620956300406353,0.2,1.0,1.0,345.0,612.0,0.0,0,-47.0,0
925,925,0.5689904371779836,0.6,0.0,0.0,296.0,780.0,0.0,1,564.0,1
926,926,0.6677214483267865,0.7,0.0,0.0,370.0,962.0,0.0,1,-32.0,1
927,927,-0.22760929714565337,-0.2,1.0,0.0,490.0,656.0,0.0,0,-646.0,1
928,928,-0.8019345316822992,-0.8,1.0,0.0,270.0,636.0,0.0,0,-696.0,1
929,929,-0.5749033176690996,-0.6,0.0,1.0,358.0,547.0,1.0,0,4095.0,1
930,930,0.7516397924203587,0.8,1.0,1.0,257.0,652.0,0.0,0,4091.0,0
931,931,-0.8362050349023792,-0.8,1.0,0.0,348.0,587.0,0.0,0,2155.0,1
932,932,-0.10698570564313636,-0.1,0.0,1.0,495.0,650.0,0.0,1,275.0,0
933,933,0.828270378251808,0.8,0.0,0.0,372.0,551.0,0.0,1,3067.0,1
934,934,-0.5595067871459816,-0.6,0.0,1.0,415.0,518.0,0.0,1,3647.0,0
935,935,0.1490532195794,0.1,1.0,1.0,499.0,853.0,0.0,0,748.0,0
936,936,0.573457651446457,0.6,1.0,1.0,471.0,893.0,0.0,0,-1004.0,0
937,937,0.6117828481146977,0.6,0.0,0.0,385.0,702.0,0.0,1,-807.0,1
938,938,0.48416170636986944,0.5,0.0,0.0,420.0,710.0,0.0,1,1890.0,1
939,939,-0.23624952896156826,-0.2,0.0,1.0,429.0,886.0,0.0,1,-75.0,0
940,940,-0.5122126790092087,-0.5,0.0,1.0,332.0,565.0,0.0,1,983.0,0
941,941,-0.5149816561874636,-0.5,1.0,0.0,329.0,994.0,0.0,0,-123.0,1
942,942,-0.8903273083782987,-0.9,1.0,0.0,349.0,995.0,0.0,0,1446.0,1
943,943,0.6109911724018781,0.6,1.0,1.0,356.0,602.0,0.0,0,962.0,0
944,944,0.5085111224111963,0.5,0.0,0.0,370.0,502.0,0.0,1,-212.0,1
945,945,-0.08055808631895633,-0.1,1.0,0.0,350.0,524.0,0.0,0,4126.0,1
946,946,-0.8377544595597838,-0.8,0.0,1.0,469.0,701.0,1.0,0,3830.0,1
947,947,0.11845548840065179,0.1,1.0,1.0,467.0,695.0,0.0,0,-392.0,0
948,948,-0.5442987622640207,-0.5,1.0,0.0,478.0,597.0,0.0,0,675.0,1
949,949,0.25837326167030394,0.3,0.0,0.0,474.0,960.0,0.0,1,-94.0,1
950,950,-0.4541407840870001,-0.5,1.0,0.0,405.0,536.0,0.0,0,2379.0,1
951,951,-0.21687668526046155,-0.2,1.0,0.0,464.0,721.0,0.0,0,-245.0,1
952,952,-0.608673690850134,-0.6,1.0,0.0,462.0,909.0,0.0,0,-61.0,1
953,953,-0.10468068129029673,-0.1,1.0,0.0,494.0,525.0,0.0,0,191.0,1
954,954,0.6725415199990249,0.7,0.0,0.0,320.0,752.0,0.0,1,1738.0,1
955,955,-0.10849607482705992,-0.1,0.0,1.0,320.0,559.0,1.0,0,4121.0,1
956,956,0.719165857137335,0.7,1.0,1.0,298.0,961.0,0.0,0,-949.0,0
957,957,-0.3296295025265782,-0.3,0.0,1.0,343.0,824.0,0.0,1,2103.0,0
958,958,0.38940541763330516,0.4,1.0,1.0,416.0,764.0,0.0,0,-10.0,0
959,959,0.1299395700738345,0.1,1.0,1.0,380.0,850.0,0.0,0,-50.0,0
960,960,0.8784159449867591,0.9,1.0,1.0,424.0,791.0,0.0,0,235.0,0
961,961,-0.7679260754931561,-0.8,0.0,1.0,418.0,691.0,0.0,1,2351.0,0
962,962,-0.31017963499534273,-0.3,1.0,0.0,391.0,975.0,0.0,0,-1276.0,1
963,963,-0.16331445487288188,-0.2,0.0,1.0,347.0,817.0,0.0,1,-414.0,0
964,964,-0.6202361608705256,-0.6,0.0,1.0,440.0,829.0,0.0,1,-49.0,0
965,965,-0.697785379918032,-0.7,0.0,1.0,416.0,876.0,0.0,1,1918.0,0
966,966,-0.32500229779022594,-0.3,1.0,0.0,269.0,605.0,0.0,0,-474.0,1
967,967,-0.3423062753113226,-0.3,0.0,1.0,336.0,880.0,0.0,1,1114.0,0
968,968,0.8461745566955517,0.8,0.0,0.0,383.0,693.0,0.0,1,-856.0,1
969,969,-0.8817294498457948,-0.9,1.0,0.0,468.0,667.0,0.0,0,175.0,1
970,970,0.0601441775266951,0.1,0.0,0.0,494.0,611.0,0.0,1,55.0,1
971,971,0.06359175744774004,0.1,0.0,0.0,391.0,703.0,0.0,1,-874.0,1
972,972,0.3485621920104781,0.3,1.0,1.0,475.0,800.0,0.0,0,-665.0,0
973,973,-0.12142836559067371,-0.1,0.0,1.0,359.0,985.0,0.0,1,2036.0,0
974,974,-0.6616692557082899,-0.7,0.0,1.0,328.0,865.0,0.0,1,2937.0,0
975,975,-0.28644940927279294,-0.3,1.0,0.0,401.0,585.0,0.0,0,-716.0,1
976,976,-0.6316024032585248,-0.6,1.0,0.0,467.0,770.0,0.0,0,-1097.0,1
977,977,-0.533515371103813,-0.5,0.0,1.0,279.0,722.0,0.0,1,59.0,0
978,978,0.6938275456550863,0.7,1.0,1.0,400.0,795.0,0.0,0,-285.0,0
979,979,-0.14108431140594724,-0.1,1.0,0.0,403.0,623.0,0.0,0,174.0,1
980,980,-0.7601998149948552,-0.8,0.0,1.0,403.0,519.0,0.0,1,78.0,0
981,981,0.2761470223112249,0.3,0.0,0.0,306.0,552.0,0.0,1,1032.0,1
982,982,-0.5258838433812221,-0.5,0.0,1.0,467.0,954.0,0.0,1,-391.0,0
983,983,0.5159492444453845,0.5,0.0,0.0,342.0,835.0,0.0,1,1103.0,1
984,984,-0.8269285472313354,-0.8,1.0,0.0,457.0,880.0,0.0,0,-607.0,1
985,985,0.5728900258075692,0.6,1.0,1.0,478.0,830.0,0.0,0,-398.0,0
986,986,0.24429092398372731,0.2,0.0,0.0,496.0,508.0,0.0,1,-764.0,1
987,987,0.5868848445431064,0.6,1.0,1.0,382.0,716.0,0.0,0,1912.0,0
988,988,0.034950191855687485,0.0,0.0,0.0,312.0,788.0,0.0,1,1000.0,1
989,989,-0.8452367067083524,-0.8,1.0,0.0,371.0,883.0,0.0,0,626.0,1
990,990,0.05619470404467797,0.1,0.0,0.0,377.0,731.0,0.0,1,-388.0,1
991,991,-0.4342312984310855,-0.4,1.0,0.0,398.0,732.0,0.0,0,1370.0,1
992,992,-0.0603033360996561,-0.1,0.0,1.0,388.0,683.0,0.0,1,2699.0,0
993,993,0.825756753722157,0.8,1.0,1.0,319.0,709.0,0.0,0,-458.0,0
994,994,-0.39480912464696494,-0.4,1.0,0.0,328.0,968.0,0.0,0,454.0,1
995,995,0.7579592525677882,0.8,1.0,1.0,397.0,686.0,1.0,1,3917.0,1
996,996,-0.791277271202072,-0.8,0.0,1.0,498.0,570.0,0.0,1,-788.0,0
997,997,0.7435161136049963,0.7,0.0,0.0,466.0,697.0,0.0,1,327.0,1
998,998,0.6882813430850733,0.7,0.0,0.0,307.0,719.0,0.0,1,124.0,1
999,999,-0.1311601672118885,-0.1,1.0,0.0,409.0,547.0,0.0,0,3114.0,1
1000,1000,-0.8483428876913649,-0.8,1.0,0.0,337.0,942.0,0.0,0,3441.0,1
1001,1001,-0.8268167115100793,-0.8,0.0,1.0,440.0,512.0,0.0,1,3838.0,0
1002,1002,0.025384924287793487,0.0,0.0,0.0,424.0,923.0,0.0,1,-167.0,1
1003,1003,-0.5817394100215059,-0.6,0.0,1.0,412.0,766.0,0.0,1,1252.0,0
1004,1004,0.2712647649240777,0.3,1.0,1.0,376.0,701.0,0.0,0,3223.0,0
1005,1005,0.863920063105161,0.9,0.0,0.0,443.0,829.0,0.0,1,198.0,1
1006,1006,-0.6099833578394125,-0.6,0.0,1.0,308.0,936.0,1.0,0,3756.0,1
1007,1007,-0.5083729948763445,-0.5,1.0,0.0,345.0,743.0,0.0,0,-808.0,1
1008,1008,0.7953571787195571,0.8,0.0,0.0,385.0,842.0,0.0,1,-467.0,1
1009,1009,0.6722268005487325,0.7,1.0,1.0,427.0,701.0,0.0,0,1532.0,0
1010,1010,-0.06946282552699179,-0.1,1.0,0.0,401.0,544.0,0.0,0,405.0,1
1011,1011,-0.13480210802684744,-0.1,1.0,0.0,445.0,843.0,0.0,0,1512.0,1
1012,1012,-0.19314021512648016,-0.2,1.0,0.0,416.0,693.0,0.0,0,61.0,1
1013,1013,0.6952784996956697,0.7,0.0,0.0,295.0,818.0,0.0,1,417.0,1
1014,1014,0.7165641724254354,0.7,1.0,1.0,419.0,793.0,0.0,0,1128.0,0
1015,1015,0.7169652712661049,0.7,1.0,1.0,305.0,799.0,0.0,0,-494.0,0
1016,1016,-0.6535396837700533,-0.7,1.0,0.0,398.0,609.0,0.0,0,-627.0,1
1017,1017,0.8649000583059278,0.9,1.0,1.0,442.0,634.0,0.0,0,1664.0,0
1018,1018,0.8606946156718313,0.9,1.0,1.0,375.0,884.0,0.0,0,-879.0,0
1019,1019,-0.8725084231014175,-0.9,0.0,1.0,396.0,760.0,0.0,1,-316.0,0
1020,1020,0.7068756547756719,0.7,1.0,1.0,290.0,718.0,0.0,0,1792.0,0
1021,1021,-0.24715672022048274,-0.2,1.0,0.0,365.0,825.0,0.0,0,-90.0,1
1022,1022,-0.827452679357281,-0.8,1.0,0.0,396.0,674.0,0.0,0,460.0,1
1023,1023,0.2988029859194029,0.3,1.0,1.0,327.0,821.0,0.0,0,992.0,0
1024,1024,0.31038490822044473,0.3,0.0,0.0,359.0,849.0,0.0,1,-1148.0,1
1025,1025,-0.2339006154397757,-0.2,0.0,1.0,479.0,923.0,0.0,1,738.0,0
1026,1026,0.519301340572267,0.5,1.0,1.0,260.0,866.0,0.0,0,3644.0,0
1027,1027,0.34953506285602665,0.3,0.0,0.0,397.0,809.0,0.0,1,1174.0,1
1028,1028,0.7558438423250998,0.8,0.0,0.0,357.0,598.0,0.0,1,-775.0,1
1029,1029,-0.22859941062472,-0.2,1.0,0.0,284.0,575.0,0.0,0,401.0,1
1030,1030,-0.8029510364096923,-0.8,0.0,1.0,377.0,801.0,0.0,1,-148.0,0
1031,1031,0.556763386717606,0.6,1.0,1.0,457.0,899.0,0.0,0,-736.0,0
1032,1032,0.5661589602386113,0.6,0.0,0.0,412.0,981.0,0.0,1,-1373.0,1
1033,1033,-0.6813673419532682,-0.7,0.0,1.0,351.0,813.0,0.0,1,236.0,0
1034,1034,-0.48027628489572755,-0.5,1.0,0.0,312.0,833.0,0.0,0,-305.0,1
1035,1035,-0.8475981663428259,-0.8,1.0,0.0,314.0,661.0,0.0,0,2275.0,1
1036,1036,-0.7689070969834206,-0.8,0.0,1.0,455.0,593.0,0.0,1,1042.0,0
1037,1037,0.8673321737965781,0.9,1.0,1.0,277.0,527.0,0.0,0,-174.0,0
1038,1038,0.6734481936790032,0.7,0.0,0.0,380.0,727.0,0.0,1,463.0,1
1039,1039,-0.1916347632157257,-0.2,1.0,0.0,426.0,618.0,1.0,1,3956.0,0
1040,1040,-0.1276911981648421,-0.1,1.0,0.0,315.0,548.0,0.0,0,1907.0,1
1041,1041,0.7748941732923652,0.8,0.0,0.0,319.0,868.0,0.0,1,-17.0,1
1042,1042,-0.634867582515361,-0.6,0.0,1.0,430.0,578.0,0.0,1,-908.0,0
1043,1043,0.8583721794270694,0.9,1.0,1.0,269.0,978.0,0.0,0,3753.0,0
1044,1044,0.3844534496317974,0.4,1.0,1.0,299.0,652.0,0.0,0,1649.0,0
1045,1045,-0.4485618623421051,-0.4,0.0,1.0,390.0,562.0,0.0,1,428.0,0
1046,1046,0.21168941080324666,0.2,1.0,1.0,432.0,502.0,0.0,0,646.0,0
1047,1047,-0.24264879035900677,-0.2,1.0,0.0,308.0,725.0,0.0,0,-953.0,1
1048,1048,-0.2555337097488767,-0.3,0.0,1.0,433.0,644.0,0.0,1,1533.0,0
1049,1049,0.3054159292305868,0.3,0.0,0.0,258.0,793.0,0.0,1,-91.0,1
1050,1050,-0.8350280264064135,-0.8,0.0,1.0,341.0,919.0,0.0,1,2650.0,0
1051,1051,0.5527447906896331,0.6,0.0,0.0,272.0,925.0,0.0,1,-317.0,1
1052,1052,-0.443626970672747,-0.4,0.0,1.0,406.0,732.0,0.0,1,-988.0,0
1053,1053,0.6176954143381038,0.6,1.0,1.0,254.0,553.0,0.0,0,1133.0,0
1054,1054,0.5364305065909739,0.5,1.0,1.0,295.0,958.0,1.0,1,3747.0,1
1055,1055,0.7143104146921023,0.7,0.0,0.0,384.0,610.0,0.0,1,586.0,1
1056,1056,0.19781185749359087,0.2,0.0,0.0,328.0,705.0,0.0,1,-3.0,1
1057,1057,-0.4590241831760481,-0.5,1.0,0.0,498.0,818.0,0.0,0,1844.0,1
1058,1058,-0.4262058737656436,-0.4,1.0,0.0,313.0,915.0,0.0,0,-68.0,1
1059,1059,0.2168939956924002,0.2,0.0,0.0,367.0,820.0,0.0,1,2893.0,1
1060,1060,0.4130299382803032,0.4,0.0,0.0,343.0,758.0,0.0,1,2819.0,1
1061,1061,0.4718692069424909,0.5,0.0,0.0,251.0,713.0,0.0,1,-604.0,1
1062,1062,-0.21875278444234736,-0.2,0.0,1.0,266.0,671.0,0.0,1,-627.0,0
1063,1063,0.5543083428097094,0.6,1.0,1.0,278.0,949.0,0.0,0,3753.0,0
1064,1064,-0.014511601395215568,-0.0,1.0,0.0,262.0,948.0,0.0,0,480.0,1
1065,1065,0.8981761325226608,0.9,0.0,0.0,443.0,514.0,0.0,1,63.0,1
1066,1066,-0.01197044028264227,-0.0,1.0,0.0,351.0,827.0,0.0,0,1392.0,1
1067,1067,0.436888774719591,0.4,1.0,1.0,362.0,647.0,0.0,0,-519.0,0
1068,1068,0.7438810879522567,0.7,1.0,1.0,379.0,863.0,0.0,0,608.0,0
1069,1069,-0.49927424730525555,-0.5,0.0,1.0,448.0,536.0,0.0,1,-84.0,0
1070,1070,0.07279798283096506,0.1,0.0,0.0,385.0,585.0,0.0,1,-950.0,1
1071,1071,0.35517827860750006,0.4,0.0,0.0,304.0,789.0,0.0,1,-813.0,1
1072,1072,0.4044299308570377,0.4,1.0,1.0,406.0,526.0,0.0,0,-102.0,0
1073,1073,0.84249517116207,0.8,0.0,0.0,309.0,687.0,0.0,1,1204.0,1
1074,1074,-0.6185909731521111,-0.6,0.0,1.0,495.0,648.0,0.0,1,-1073.0,0
1075,1075,0.19023995905011992,0.2,0.0,0.0,323.0,564.0,0.0,1,2213.0,1
1076,1076,-0.3745345496882967,-0.4,0.0,1.0,396.0,727.0,0.0,1,2997.0,0
1077,1077,-0.27154753240595386,-0.3,0.0,1.0,354.0,678.0,0.0,1,-572.0,0
1078,1078,-0.8317531855309868,-0.8,1.0,0.0,458.0,852.0,0.0,0,3690.0,1
1079,1079,-0.08748919949803768,-0.1,1.0,0.0,254.0,518.0,0.0,0,448.0,1
1080,1080,0.8369860745125016,0.8,0.0,0.0,436.0,981.0,0.0,1,-1317.0,1
1081,1081,0.5884475006313742,0.6,1.0,1.0,466.0,977.0,0.0,0,937.0,0
1082,1082,0.22993905075329868,0.2,0.0,0.0,489.0,501.0,0.0,1,220.0,1
1083,1083,-0.45066702042403944,-0.5,1.0,0.0,394.0,843.0,0.0,0,143.0,1
1084,1084,0.7743918675442315,0.8,0.0,0.0,488.0,757.0,0.0,1,1105.0,1
1085,1085,-0.5583497370421815,-0.6,0.0,1.0,417.0,921.0,0.0,1,1242.0,0
1086,1086,0.46255457740307604,0.5,1.0,1.0,414.0,668.0,0.0,0,3918.0,0
1087,1087,0.4535596129036862,0.5,1.0,1.0,421.0,788.0,0.0,0,-559.0,0
1088,1088,-0.5099615627999702,-0.5,1.0,0.0,258.0,955.0,0.0,0,-1123.0,1
1089,1089,-0.4252664359633111,-0.4,0.0,1.0,410.0,714.0,0.0,1,-1084.0,0
1090,1090,-0.5347253116295374,-0.5,1.0,0.0,446.0,919.0,0.0,0,945.0,1
1091,1091,-0.6612666194908206,-0.7,1.0,0.0,382.0,562.0,0.0,0,-304.0,1
1092,1092,0.7380005547887426,0.7,0.0,0.0,416.0,961.0,0.0,1,1813.0,1
1093,1093,0.11201664332957628,0.1,0.0,0.0,426.0,813.0,0.0,1,-359.0,1
1094,1094,-0.45297792035069817,-0.5,1.0,0.0,497.0,783.0,0.0,0,-590.0,1
1095,1095,-0.8383789213219006,-0.8,1.0,0.0,288.0,603.0,0.0,0,-221.0,1
1096,1096,-0.03989196745912715,-0.0,0.0,1.0,478.0,550.0,0.0,1,1572.0,0
1097,1097,-0.12547315197978837,-0.1,1.0,0.0,373.0,798.0,0.0,0,39.0,1
1098,1098,-0.16350445254168633,-0.2,1.0,0.0,343.0,507.0,0.0,0,-280.0,1
1099,1099,-0.709284553221381,-0.7,1.0,0.0,267.0,976.0,0.0,0,527.0,1
1100,1100,-0.8848815347240282,-0.9,0.0,1.0,474.0,638.0,0.0,1,1198.0,0
1101,1101,-0.7699197900743281,-0.8,1.0,0.0,294.0,737.0,0.0,0,1079.0,1
1102,1102,0.8496314996263498,0.8,0.0,0.0,294.0,538.0,0.0,1,68.0,1
1103,1103,-0.010514567825345322,-0.0,0.0,1.0,410.0,830.0,0.0,1,-230.0,0
1104,1104,-0.14025969640337355,-0.1,0.0,1.0,318.0,637.0,0.0,1,-335.0,0
1105,1105,-0.7658563999424235,-0.8,0.0,1.0,450.0,514.0,0.0,1,2856.0,0
1106,1106,-0.7155483377913222,-0.7,0.0,1.0,417.0,929.0,0.0,1,1714.0,0
1107,1107,0.0821326009851695,0.1,0.0,0.0,281.0,733.0,0.0,1,2906.0,1
1108,1108,0.7619913300212998,0.8,1.0,1.0,349.0,511.0,0.0,0,760.0,0
1109,1109,0.8815028702800968,0.9,0.0,0.0,472.0,609.0,0.0,1,-751.0,1
1110,1110,-0.24101095091564795,-0.2,0.0,1.0,491.0,557.0,0.0,1,1122.0,0
1111,1111,0.07935782782222067,0.1,0.0,0.0,418.0,608.0,0.0,1,-986.0,1
1112,1112,0.5421291324988283,0.5,1.0,1.0,434.0,669.0,0.0,0,897.0,0
1113,1113,0.20168131334249317,0.2,1.0,1.0,308.0,519.0,1.0,1,4173.0,1
1114,1114,0.514184616866518,0.5,0.0,0.0,325.0,745.0,0.0,1,400.0,1
1115,1115,0.30027576686287116,0.3,0.0,0.0,308.0,933.0,0.0,1,-891.0,1
1116,1116,-0.5413010228066963,-0.5,1.0,0.0,424.0,546.0,0.0,0,1310.0,1
1117,1117,-0.7740644225161196,-0.8,0.0,1.0,440.0,548.0,0.0,1,-728.0,0
1118,1118,0.09108849021035392,0.1,0.0,0.0,352.0,928.0,0.0,1,-270.0,1
1119,1119,-0.029269949903902415,-0.0,0.0,1.0,309.0,778.0,0.0,1,33.0,0
1120,1120,0.8442047614877474,0.8,0.0,0.0,252.0,658.0,0.0,1,230.0,1
1121,1121,0.8481510633375845,0.8,0.0,0.0,403.0,611.0,0.0,1,726.0,1
1122,1122,0.25196081938932424,0.3,0.0,0.0,407.0,956.0,0.0,1,-1093.0,1
1123,1123,0.1946752456251467,0.2,0.0,0.0,316.0,630.0,0.0,1,-806.0,1
1124,1124,0.7012664476599334,0.7,1.0,1.0,322.0,595.0,0.0,0,3853.0,0
1125,1125,-0.5827009135549766,-0.6,0.0,1.0,402.0,873.0,0.0,1,-435.0,0
1126,1126,-0.23122659658042288,-0.2,0.0,1.0,405.0,873.0,1.0,0,3722.0,1
1127,1127,0.405284674236997,0.4,1.0,1.0,309.0,985.0,0.0,0,376.0,0
1128,1128,-0.010194171753773795,-0.0,1.0,0.0,460.0,523.0,0.0,0,1467.0,1
1129,1129,0.5068434100570888,0.5,0.0,0.0,313.0,961.0,0.0,1,1886.0,1
1130,1130,0.06474889841974052,0.1,1.0,1.0,304.0,576.0,0.0,0,-320.0,0
1131,1131,0.5317749958478971,0.5,1.0,1.0,287.0,804.0,0.0,0,-1061.0,0
1132,1132,-0.5704786926800223,-0.6,1.0,0.0,357.0,965.0,0.0,0,-672.0,1
1133,1133,0.7682873661163493,0.8,0.0,0.0,382.0,954.0,0.0,1,2044.0,1
1134,1134,0.5784929429867164,0.6,0.0,0.0,331.0,842.0,0.0,1,67.0,1
1135,1135,-0.6827829066708153,-0.7,0.0,1.0,497.0,648.0,0.0,1,1285.0,0
1136,1136,0.21392172903354745,0.2,0.0,0.0,333.0,647.0,0.0,1,-130.0,1
1137,1137,0.7134941445016484,0.7,1.0,1.0,300.0,894.0,0.0,0,606.0,0
1138,1138,-0.04565774701005776,-0.0,0.0,1.0,468.0,835.0,1.0,0,3697.0,1
1139,1139,0.23550422223505174,0.2,1.0,1.0,488.0,552.0,0.0,0,-610.0,0
1140,1140,-0.7433161373037362,-0.7,0.0,1.0,455.0,595.0,0.0,1,-750.0,0
1141,1141,-0.18624520389501842,-0.2,1.0,0.0,478.0,654.0,0.0,0,-232.0,1
1142,1142,-0.33400884320973356,-0.3,0.0,1.0,461.0,930.0,0.0,1,59.0,0
1143,1143,-0.3498314769930061,-0.3,1.0,0.0,260.0,562.0,1.0,1,4178.0,0
1144,1144,0.5733151379436204,0.6,0.0,0.0,270.0,528.0,0.0,1,2412.0,1
1145,1145,0.7362401942602282,0.7,1.0,1.0,254.0,725.0,0.0,0,-79.0,0
1146,1146,0.700325411730527,0.7,1.0,1.0,285.0,948.0,0.0,0,247.0,0
1147,1147,0.556509033400788,0.6,0.0,0.0,347.0,515.0,1.0,0,4138.0,0
1148,1148,-0.3289760635253445,-0.3,0.0,1.0,250.0,553.0,0.0,1,3657.0,0
1149,1149,-0.19589508839852188,-0.2,1.0,0.0,276.0,986.0,0.0,0,2128.0,1
1150,1150,-0.04337110114341025,-0.0,0.0,1.0,421.0,731.0,0.0,1,-332.0,0
1151,1151,0.7004934920167388,0.7,0.0,0.0,361.0,742.0,0.0,1,1057.0,1
1152,1152,0.2699468718411112,0.3,1.0,1.0,279.0,908.0,0.0,0,-447.0,0
1153,1153,0.40494723190473925,0.4,1.0,1.0,326.0,933.0,0.0,0,3241.0,0
1154,1154,-0.2923833921247355,-0.3,0.0,1.0,336.0,717.0,0.0,1,2307.0,0
1155,1155,0.7048806166475706,0.7,0.0,0.0,312.0,824.0,0.0,1,1154.0,1
1156,1156,0.10469179336215062,0.1,0.0,0.0,437.0,733.0,0.0,1,-620.0,1
1157,1157,-0.7262404917467711,-0.7,0.0,1.0,467.0,972.0,0.0,1,-149.0,0
1158,1158,-0.09466768373689338,-0.1,0.0,1.0,434.0,868.0,0.0,1,-412.0,0
1159,1159,0.049521337667368326,0.0,0.0,0.0,419.0,639.0,0.0,1,-48.0,1
1160,1160,0.8044929789144671,0.8,1.0,1.0,370.0,525.0,0.0,0,-235.0,0
1161,1161,-0.7398166576667768,-0.7,1.0,0.0,426.0,700.0,0.0,0,294.0,1
1162,1162,0.6525446815582941,0.7,1.0,1.0,398.0,778.0,0.0,0,3054.0,0
1163,1163,0.16947664457703804,0.2,0.0,0.0,300.0,730.0,0.0,1,290.0,1
1164,1164,-0.8345281391823546,-0.8,0.0,1.0,333.0,625.0,1.0,0,4042.0,1
1165,1165,-0.10684006785316813,-0.1,1.0,0.0,327.0,709.0,0.0,0,-856.0,1
1166,1166,-0.5616408889986377,-0.6,1.0,0.0,454.0,710.0,0.0,0,-54.0,1
1167,1167,-0.7790071955193185,-0.8,1.0,0.0,378.0,694.0,0.0,0,728.0,1
1168,1168,-0.8497669937723794,-0.8,1.0,0.0,427.0,736.0,0.0,0,1537.0,1
1169,1169,-0.6194108756864005,-0.6,0.0,1.0,299.0,526.0,0.0,1,2095.0,0
1170,1170,-0.794619990588918,-0.8,1.0,0.0,451.0,759.0,0.0,0,-440.0,1
1171,1171,-0.8001844525014236,-0.8,0.0,1.0,303.0,971.0,0.0,1,2896.0,0
1172,1172,-0.8675788263670698,-0.9,1.0,0.0,396.0,778.0,0.0,0,-434.0,1
1173,1173,-0.6762166945400176,-0.7,1.0,0.0,465.0,830.0,0.0,0,2395.0,1
1174,1174,-0.3697253277667101,-0.4,0.0,1.0,436.0,772.0,0.0,1,-418.0,0
1175,1175,0.38711801976255644,0.4,0.0,0.0,492.0,681.0,0.0,1,-233.0,1
1176,1176,-0.8202292662289277,-0.8,0.0,1.0,388.0,813.0,1.0,0,3799.0,1
1177,1177,0.786319123153656,0.8,0.0,0.0,480.0,806.0,0.0,1,-1116.0,1
1178,1178,-0.8010712696067941,-0.8,1.0,0.0,479.0,917.0,0.0,0,1394.0,1
1179,1179,0.6335071802706363,0.6,0.0,0.0,372.0,817.0,0.0,1,1171.0,1
1180,1180,-0.5921834348651753,-0.6,0.0,1.0,379.0,541.0,0.0,1,-60.0,0
1181,1181,-0.6756810866369045,-0.7,1.0,0.0,308.0,658.0,0.0,0,1724.0,1
1182,1182,0.6618739426627619,0.7,0.0,0.0,490.0,681.0,0.0,1,1789.0,1
1183,1183,-0.671812300329947,-0.7,1.0,0.0,492.0,837.0,0.0,0,391.0,1
1184,1184,-0.5871573207592689,-0.6,1.0,0.0,388.0,974.0,0.0,0,3598.0,1
1185,1185,-0.029408042814408675,-0.0,0.0,1.0,286.0,657.0,0.0,1,-903.0,0
1186,1186,-0.4637372544950055,-0.5,1.0,0.0,488.0,971.0,0.0,0,-1209.0,1
1187,1187,-0.7492366590375626,-0.7,1.0,0.0,472.0,728.0,0.0,0,2510.0,1
1188,1188,-0.0028264440114247336,-0.0,1.0,0.0,281.0,500.0,0.0,0,439.0,1
1189,1189,0.06408417986892989,0.1,0.0,0.0,350.0,996.0,0.0,1,514.0,1
1190,1190,-0.44488328955686873,-0.4,1.0,0.0,467.0,635.0,0.0,0,3828.0,1
1191,1191,-0.09306620238217578,-0.1,1.0,0.0,340.0,672.0,0.0,0,1298.0,1
1192,1192,0.32020746959380697,0.3,1.0,1.0,271.0,524.0,0.0,0,4135.0,0
1193,1193,0.28585262279240975,0.3,1.0,1.0,323.0,767.0,0.0,0,1130.0,0
1194,1194,-0.5264213963177857,-0.5,1.0,0.0,284.0,979.0,0.0,0,-1143.0,1
1195,1195,-0.8455241744724583,-0.8,0.0,1.0,449.0,656.0,0.0,1,1235.0,0
1196,1196,0.7850918441739182,0.8,1.0,1.0,370.0,541.0,1.0,1,4089.0,1
1197,1197,0.09605679885153495,0.1,0.0,0.0,393.0,936.0,0.0,1,3671.0,1
1198,1198,0.25390309603450956,0.3,0.0,0.0,436.0,707.0,0.0,1,317.0,1
1199,1199,0.6701824530142354,0.7,0.0,0.0,384.0,502.0,0.0,1,284.0,1
1200,1200,-0.4112087573361111,-0.4,1.0,0.0,337.0,851.0,0.0,0,-88.0,1
1201,1201,0.22309911630030144,0.2,0.0,0.0,312.0,537.0,0.0,1,-229.0,1
1202,1202,0.5159958150651441,0.5,0.0,0.0,444.0,822.0,0.0,1,-686.0,1
1203,1203,-0.4310643824275597,-0.4,1.0,0.0,381.0,636.0,0.0,0,2403.0,1
1204,1204,-0.6164462013769645,-0.6,0.0,1.0,281.0,548.0,0.0,1,3361.0,0
1205,1205,-0.09398273983360539,-0.1,0.0,1.0,344.0,763.0,0.0,1,143.0,0
1206,1206,-0.8304629855869905,-0.8,0.0,1.0,281.0,754.0,0.0,1,595.0,0
1207,1207,0.8898412892758273,0.9,0.0,0.0,483.0,943.0,0.0,1,1914.0,1
1208,1208,0.06303233703200595,0.1,0.0,0.0,345.0,524.0,0.0,1,-49.0,1
1209,1209,0.8539306725738885,0.9,1.0,1.0,416.0,559.0,0.0,0,-915.0,0
1210,1210,0.3955984649658931,0.4,1.0,1.0,484.0,866.0,0.0,0,-420.0,0
1211,1211,0.5188750769901577,0.5,1.0,1.0,328.0,954.0,0.0,0,18.0,0
1212,1212,0.6368650785668993,0.6,0.0,0.0,381.0,560.0,0.0,1,309.0,1
1213,1213,0.7467125100205977,0.7,1.0,1.0,476.0,969.0,0.0,0,1205.0,0
1214,1214,0.8108919536475016,0.8,0.0,0.0,476.0,791.0,0.0,1,-727.0,1
1215,1215,0.7622345840228125,0.8,1.0,1.0,308.0,812.0,1.0,1,3880.0,1
1216,1216,0.6694197579517148,0.7,1.0,1.0,278.0,674.0,0.0,0,1838.0,0
1217,1217,0.47135453225303536,0.5,0.0,0.0,363.0,796.0,0.0,1,-759.0,1
1218,1218,-0.4572950404557738,-0.5,1.0,0.0,368.0,642.0,0.0,0,140.0,1
1219,1219,0.030880985833051655,0.0,1.0,1.0,285.0,620.0,0.0,0,-825.0,0
1220,1220,0.08669459763087162,0.1,0.0,0.0,279.0,714.0,0.0,1,-633.0,1
1221,1221,-0.6917116621880706,-0.7,0.0,1.0,297.0,876.0,0.0,1,-1013.0,0
1222,1222,-0.5854266951839026,-0.6,0.0,1.0,361.0,729.0,1.0,0,3910.0,1
1223,1223,-0.6054204956980618,-0.6,0.0,1.0,362.0,974.0,0.0,1,1244.0,0
1224,1224,-0.6308782517141714,-0.6,1.0,0.0,289.0,703.0,0.0,0,698.0,1
1225,1225,0.6343947330882248,0.6,0.0,0.0,436.0,601.0,0.0,1,-637.0,1
1226,1226,0.8196348465963578,0.8,0.0,0.0,429.0,904.0,0.0,1,837.0,1
1227,1227,0.8068358850030236,0.8,1.0,1.0,280.0,565.0,0.0,0,-785.0,0
1228,1228,-0.610778151129274,-0.6,0.0,1.0,479.0,681.0,0.0,1,1970.0,0
1229,1229,-0.7138077501495887,-0.7,0.0,1.0,486.0,933.0,0.0,1,-9.0,0
1230,1230,-0.7345816058966906,-0.7,0.0,1.0,438.0,611.0,0.0,1,-929.0,0
1231,1231,0.3158312811984002,0.3,1.0,1.0,393.0,766.0,0.0,0,-899.0,0
1232,1232,0.5386786126245021,0.5,1.0,1.0,437.0,643.0,0.0,0,3920.0,0
1233,1233,0.658799489020712,0.7,0.0,0.0,321.0,954.0,0.0,1,765.0,1
1234,1234,-0.4805037307120345,-0.5,0.0,1.0,497.0,653.0,0.0,1,-810.0,0
1235,1235,-0.7192500344748497,-0.7,0.0,1.0,339.0,676.0,0.0,1,-925.0,0
1236,1236,-0.5309974557933731,-0.5,1.0,0.0,336.0,582.0,1.0,1,4082.0,0
1237,1237,-0.440003812779245,-0.4,0.0,1.0,283.0,898.0,0.0,1,-1051.0,0
1238,1238,0.2692171016360153,0.3,0.0,0.0,258.0,757.0,0.0,1,-395.0,1
1239,1239,-0.4712478941494936,-0.5,1.0,0.0,469.0,572.0,0.0,0,-1.0,1
1240,1240,-0.3904005018874772,-0.4,1.0,0.0,309.0,955.0,0.0,0,956.0,1
1241,1241,-0.26882857293367424,-0.3,0.0,1.0,271.0,934.0,0.0,1,955.0,0
1242,1242,-0.2193660054470371,-0.2,0.0,1.0,496.0,932.0,1.0,0,3572.0,1
1243,1243,0.5259158551859536,0.5,1.0,1.0,401.0,528.0,0.0,0,2111.0,0
1244,1244,0.07674187802063737,0.1,1.0,1.0,279.0,587.0,0.0,0,-6.0,0
1245,1245,-0.8265286701785534,-0.8,1.0,0.0,478.0,769.0,0.0,0,2423.0,1
1246,1246,0.7807949564056028,0.8,1.0,1.0,342.0,734.0,0.0,0,1144.0,0
1247,1247,0.5386831999010017,0.5,0.0,0.0,326.0,774.0,0.0,1,3790.0,1
1248,1248,-0.7343216954678357,-0.7,0.0,1.0,374.0,683.0,0.0,1,-777.0,0
1249,1249,-0.7174208431557569,-0.7,1.0,0.0,394.0,689.0,0.0,0,517.0,1
1250,1250,-0.5675876965232134,-0.6,1.0,0.0,414.0,621.0,0.0,0,255.0,1
1251,1251,-0.8945965758372478,-0.9,0.0,1.0,372.0,643.0,0.0,1,3315.0,0
1252,1252,-0.6996930708268778,-0.7,0.0,1.0,268.0,936.0,0.0,1,-364.0,0
1253,1253,0.3336122784572707,0.3,0.0,0.0,415.0,657.0,0.0,1,668.0,1
1254,1254,-0.08744949718430506,-0.1,1.0,0.0,374.0,634.0,1.0,1,3992.0,0
1255,1255,-0.34963508730722037,-0.3,1.0,0.0,312.0,783.0,0.0,0,375.0,1
1256,1256,-0.04053717357463826,-0.0,1.0,0.0,364.0,850.0,0.0,0,-174.0,1
1257,1257,-0.1430363186793825,-0.1,1.0,0.0,388.0,502.0,0.0,0,730.0,1
1258,1258,0.2955762098074416,0.3,1.0,1.0,278.0,716.0,0.0,0,-304.0,0
1259,1259,0.36405008847121356,0.4,0.0,0.0,305.0,984.0,0.0,1,-759.0,1
1260,1260,-0.031002570822570075,-0.0,0.0,1.0,404.0,893.0,0.0,1,2723.0,0
1261,1261,-0.8649965805800779,-0.9,1.0,0.0,436.0,577.0,0.0,0,1447.0,1
1262,1262,-0.12366841538064732,-0.1,1.0,0.0,403.0,544.0,0.0,0,463.0,1
1263,1263,0.4506211401590726,0.5,0.0,0.0,484.0,841.0,0.0,1,2225.0,1
1264,1264,0.771295940509218,0.8,1.0,1.0,301.0,884.0,0.0,0,1275.0,0
1265,1265,0.4926473963404906,0.5,1.0,1.0,424.0,599.0,0.0,0,1667.0,0
1266,1266,0.7240950812755299,0.7,0.0,0.0,322.0,700.0,0.0,1,-312.0,1
1267,1267,-0.16717633842307722,-0.2,0.0,1.0,436.0,942.0,0.0,1,-488.0,0
1268,1268,0.2688369638275575,0.3,0.0,0.0,276.0,751.0,0.0,1,663.0,1
1269,1269,0.44792833060636605,0.4,1.0,1.0,495.0,532.0,1.0,1,3973.0,1
1270,1270,0.7607705513603281,0.8,1.0,1.0,300.0,915.0,0.0,0,3665.0,0
1271,1271,0.6502296062108671,0.7,1.0,1.0,251.0,774.0,0.0,0,2975.0,0
1272,1272,0.637408824291876,0.6,1.0,1.0,486.0,576.0,0.0,0,3938.0,0
1273,1273,0.21123344847576575,0.2,1.0,1.0,485.0,956.0,0.0,0,-921.0,0
1274,1274,0.32208399160680645,0.3,1.0,1.0,483.0,848.0,0.0,0,-1261.0,0
1275,1275,0.07253622980399976,0.1,1.0,1.0,345.0,552.0,0.0,0,-497.0,0
1276,1276,0.5972512625177037,0.6,1.0,1.0,378.0,548.0,0.0,0,2034.0,0
1277,1277,-0.8355538981943038,-0.8,1.0,0.0,498.0,661.0,0.0,0,841.0,1
1278,1278,-0.7333719813954884,-0.7,1.0,0.0,302.0,760.0,0.0,0,3038.0,1
1279,1279,0.7555905499692196,0.8,1.0,1.0,453.0,718.0,0.0,0,3049.0,0
1280,1280,0.3053256248206556,0.3,0.0,0.0,418.0,548.0,0.0,1,-166.0,1
1281,1281,-0.6833752638713433,-0.7,0.0,1.0,454.0,644.0,1.0,0,3902.0,1
1282,1282,0.8344535206543594,0.8,1.0,1.0,477.0,826.0,0.0,0,-573.0,0
1283,1283,-0.43707315504614935,-0.4,0.0,1.0,400.0,863.0,0.0,1,1507.0,0
1284,1284,0.8930774567458087,0.9,1.0,1.0,303.0,773.0,0.0,0,2324.0,0
1285,1285,0.3420306759577737,0.3,1.0,1.0,291.0,912.0,0.0,0,-1153.0,0
1286,1286,0.7761351436435854,0.8,1.0,1.0,441.0,570.0,0.0,0,-581.0,0
1287,1287,0.7094038797195626,0.7,1.0,1.0,429.0,559.0,0.0,0,-738.0,0
1288,1288,-0.2955416217722098,-0.3,0.0,1.0,473.0,601.0,0.0,1,-824.0,0
1289,1289,-0.6284086964101674,-0.6,0.0,1.0,313.0,895.0,0.0,1,-888.0,0
1290,1290,-0.28438303286614175,-0.3,0.0,1.0,272.0,870.0,0.0,1,3728.0,0
1291,1291,0.8831448116591311,0.9,1.0,1.0,471.0,643.0,0.0,0,396.0,0
1292,1292,0.6240983419994469,0.6,0.0,0.0,498.0,517.0,0.0,1,1335.0,1
1293,1293,-0.30372285268766797,-0.3,1.0,0.0,447.0,654.0,0.0,0,2339.0,1
1294,1294,0.8802427570361636,0.9,0.0,0.0,435.0,746.0,0.0,1,1459.0,1
1295,1295,-0.811814444806578,-0.8,0.0,1.0,438.0,848.0,0.0,1,3714.0,0
1296,1296,-0.41195409879795697,-0.4,0.0,1.0,428.0,822.0,0.0,1,190.0,0
1297,1297,0.42987663332066306,0.4,1.0,1.0,297.0,544.0,0.0,0,3829.0,0
1298,1298,0.7263707813070989,0.7,0.0,0.0,364.0,514.0,0.0,1,382.0,1
1299,1299,0.7410476030426864,0.7,0.0,0.0,307.0,669.0,0.0,1,-706.0,1
1300,1300,-0.12670038046023047,-0.1,1.0,0.0,433.0,799.0,1.0,1,3768.0,0
1301,1301,-0.8596205571018605,-0.9,1.0,0.0,487.0,634.0,0.0,0,49.0,1
1302,1302,0.5796881435216262,0.6,1.0,1.0,432.0,941.0,0.0,0,1507.0,0
1303,1303,-0.14099333456281005,-0.1,0.0,1.0,424.0,760.0,1.0,0,3816.0,1
1304,1304,-0.2871697079869203,-0.3,0.0,1.0,358.0,576.0,0.0,1,1296.0,0
1305,1305,0.15475243133262373,0.2,1.0,1.0,366.0,560.0,0.0,0,2304.0,0
1306,1306,0.8691299119349128,0.9,0.0,0.0,479.0,642.0,0.0,1,1919.0,1
1307,1307,-0.027900207512042474,-0.0,1.0,0.0,315.0,810.0,0.0,0,1005.0,1
1308,1308,-0.39571315516723315,-0.4,1.0,0.0,365.0,746.0,0.0,0,-801.0,1
1309,1309,0.12338503675862456,0.1,1.0,1.0,409.0,965.0,0.0,0,286.0,0
1310,1310,-0.3806712382716878,-0.4,0.0,1.0,299.0,893.0,0.0,1,-442.0,0
1311,1311,-0.12328152654217717,-0.1,0.0,1.0,297.0,830.0,0.0,1,-1057.0,0
1312,1312,-0.5640193066815717,-0.6,1.0,0.0,368.0,624.0,0.0,0,1218.0,1
1313,1313,-0.289185717790289,-0.3,1.0,0.0,369.0,601.0,0.0,0,950.0,1
1314,1314,-0.35151616102447103,-0.4,1.0,0.0,316.0,741.0,0.0,0,-387.0,1
1315,1315,0.15036297422555844,0.2,1.0,1.0,447.0,647.0,0.0,0,-734.0,0
1316,1316,0.7523192067485819,0.8,1.0,1.0,386.0,771.0,0.0,0,1573.0,0
1317,1317,0.08972360973489002,0.1,1.0,1.0,443.0,645.0,1.0,1,3912.0,1
1318,1318,0.09069923214226527,0.1,1.0,1.0,275.0,719.0,0.0,0,46.0,0
1319,1319,0.0827904434991954,0.1,1.0,1.0,323.0,776.0,0.0,0,1061.0,0
1320,1320,-0.3372790804882384,-0.3,1.0,0.0,368.0,659.0,0.0,0,2103.0,1
1321,1321,-0.641137246450719,-0.6,0.0,1.0,351.0,773.0,0.0,1,3666.0,0
1322,1322,0.525414691607455,0.5,0.0,0.0,335.0,864.0,0.0,1,1371.0,1
1323,1323,0.4021989620258669,0.4,0.0,0.0,410.0,582.0,0.0,1,2308.0,1
1324,1324,-0.47690074849951897,-0.5,1.0,0.0,416.0,658.0,0.0,0,986.0,1
1325,1325,0.36288639107362297,0.4,1.0,1.0,267.0,605.0,0.0,0,4128.0,0
1326,1326,0.5765995605997959,0.6,1.0,1.0,256.0,646.0,0.0,0,-12.0,0
1327,1327,0.0012139391984014036,0.0,0.0,0.0,363.0,642.0,1.0,0,3995.0,0
1328,1328,0.38133057214358324,0.4,1.0,1.0,361.0,806.0,0.0,0,813.0,0
1329,1329,0.5444111551649341,0.5,0.0,0.0,476.0,689.0,0.0,1,295.0,1
1330,1330,0.5138443223365189,0.5,0.0,0.0,426.0,833.0,0.0,1,-219.0,1
1331,1331,-0.40429663890727585,-0.4,0.0,1.0,304.0,633.0,1.0,0,4063.0,1
1332,1332,0.3479530632908471,0.3,1.0,1.0,411.0,997.0,0.0,0,882.0,0
1333,1333,-0.4718242750524745,-0.5,0.0,1.0,365.0,604.0,0.0,1,1041.0,0
1334,1334,0.8882375527964254,0.9,1.0,1.0,495.0,614.0,0.0,0,-429.0,0
1335,1335,-0.4367133093256736,-0.4,1.0,0.0,441.0,952.0,0.0,0,477.0,1
1336,1336,-0.8430885899421389,-0.8,1.0,0.0,487.0,833.0,0.0,0,620.0,1
1337,1337,0.27884479978644794,0.3,1.0,1.0,269.0,700.0,0.0,0,-79.0,0
1338,1338,-0.7056214063383122,-0.7,0.0,1.0,409.0,546.0,0.0,1,1415.0,0
1339,1339,-0.8463029003360295,-0.8,1.0,0.0,431.0,782.0,0.0,0,867.0,1
1340,1340,0.5248458221374516,0.5,1.0,1.0,410.0,723.0,0.0,0,-453.0,0
1341,1341,-0.1423782247940203,-0.1,1.0,0.0,459.0,524.0,0.0,0,1467.0,1
1342,1342,0.7411304065282854,0.7,1.0,1.0,278.0,937.0,0.0,0,255.0,0
1343,1343,0.8483337451578491,0.8,0.0,0.0,309.0,897.0,0.0,1,-626.0,1
1344,1344,0.5556743487105996,0.6,0.0,0.0,253.0,967.0,0.0,1,-1070.0,1
1345,1345,0.16772457580177746,0.2,1.0,1.0,422.0,980.0,0.0,0,-162.0,0
1346,1346,-0.09560997479531852,-0.1,1.0,0.0,348.0,967.0,0.0,0,-645.0,1
1347,1347,0.2682788087728797,0.3,1.0,1.0,312.0,537.0,1.0,1,4151.0,1
1348,1348,-0.24303658659445504,-0.2,0.0,1.0,423.0,956.0,1.0,0,3621.0,1
1349,1349,0.20070563816335996,0.2,1.0,1.0,438.0,555.0,0.0,0,1327.0,0
1350,1350,-0.011644726901368863,-0.0,1.0,0.0,378.0,846.0,0.0,0,-234.0,1
1351,1351,-0.08759035189155873,-0.1,0.0,1.0,307.0,751.0,1.0,0,622.0,1
1352,1352,0.09536910273092547,0.1,1.0,1.0,451.0,907.0,0.0,0,-918.0,0
1353,1353,-0.556976857909783,-0.6,1.0,0.0,445.0,985.0,0.0,0,720.0,1
1354,1354,-0.6196350292610652,-0.6,1.0,0.0,305.0,989.0,0.0,0,-1244.0,1
1355,1355,-0.21064584532619057,-0.2,0.0,1.0,497.0,895.0,0.0,1,1888.0,0
1356,1356,-0.2488595001011531,-0.2,0.0,1.0,462.0,617.0,0.0,1,2751.0,0
1357,1357,-0.7513271349795472,-0.8,0.0,1.0,259.0,841.0,0.0,1,-350.0,0
1358,1358,0.3752767559031195,0.4,1.0,1.0,399.0,818.0,0.0,0,753.0,0
1359,1359,0.6957883271140745,0.7,0.0,0.0,253.0,965.0,0.0,1,-658.0,1
1360,1360,-0.8611514424578091,-0.9,0.0,1.0,350.0,727.0,0.0,1,1203.0,0
1361,1361,0.7139686830269113,0.7,0.0,0.0,410.0,700.0,0.0,1,1470.0,1
1362,1362,-0.5412411738804247,-0.5,0.0,1.0,430.0,964.0,0.0,1,-334.0,0
1363,1363,0.33148970518361376,0.3,0.0,0.0,465.0,920.0,0.0,1,-665.0,1
1364,1364,0.031954135189334654,0.0,0.0,0.0,468.0,505.0,0.0,1,1117.0,1
1365,1365,0.8256059195269204,0.8,0.0,0.0,253.0,675.0,0.0,1,912.0,1
1366,1366,-0.7045144264365159,-0.7,0.0,1.0,358.0,554.0,0.0,1,1038.0,0
1367,1367,-0.7289108948162542,-0.7,0.0,1.0,440.0,824.0,0.0,1,3736.0,0
1368,1368,-0.29791471238503364,-0.3,1.0,0.0,371.0,936.0,1.0,1,3693.0,0
1369,1369,0.8198414803452213,0.8,1.0,1.0,254.0,664.0,0.0,0,2712.0,0
1370,1370,0.8739619186157314,0.9,1.0,1.0,258.0,696.0,0.0,0,-94.0,0
1371,1371,-0.652826529256033,-0.7,1.0,0.0,459.0,866.0,0.0,0,-485.0,1
1372,1372,0.7796187383139449,0.8,0.0,0.0,466.0,687.0,0.0,1,617.0,1
1373,1373,-0.6842883167313448,-0.7,1.0,0.0,408.0,747.0,0.0,0,-855.0,1
1374,1374,-0.19811365071196463,-0.2,0.0,1.0,383.0,575.0,0.0,1,1732.0,0
1375,1375,0.17712724058972962,0.2,1.0,1.0,295.0,665.0,0.0,0,-890.0,0
1376,1376,-0.766334236319482,-0.8,0.0,1.0,488.0,692.0,0.0,1,260.0,0
1377,1377,-0.3535983534050987,-0.4,1.0,0.0,380.0,530.0,0.0,0,1020.0,1
1378,1378,0.06449591092708384,0.1,1.0,1.0,404.0,802.0,0.0,0,1694.0,0
1379,1379,-0.4840640726638507,-0.5,0.0,1.0,376.0,643.0,0.0,1,791.0,0
1380,1380,-0.5474332401469851,-0.5,0.0,1.0,273.0,984.0,0.0,1,-107.0,0
1381,1381,-0.21525171131547738,-0.2,0.0,1.0,409.0,644.0,0.0,1,497.0,0
1382,1382,0.7474879218552205,0.7,0.0,0.0,388.0,758.0,0.0,1,1324.0,1
1383,1383,-0.5361812211974171,-0.5,1.0,0.0,359.0,846.0,0.0,0,1995.0,1
1384,1384,0.5799274552587851,0.6,1.0,1.0,362.0,678.0,1.0,1,3960.0,1
1385,1385,-0.15726320755437073,-0.2,1.0,0.0,355.0,996.0,0.0,0,3649.0,1
1386,1386,-0.421547094244859,-0.4,0.0,1.0,386.0,755.0,0.0,1,-331.0,0
1387,1387,-0.40103613904143653,-0.4,1.0,0.0,383.0,716.0,0.0,0,331.0,1
1388,1388,0.47992271232617856,0.5,1.0,1.0,382.0,594.0,1.0,1,4024.0,1
1389,1389,0.03593294483502385,0.0,0.0,0.0,256.0,856.0,0.0,1,2638.0,1
1390,1390,0.39234874417239063,0.4,1.0,1.0,336.0,807.0,0.0,0,3467.0,0
1391,1391,0.4688510515918908,0.5,0.0,0.0,331.0,954.0,0.0,1,-295.0,1
1392,1392,0.3888525769606962,0.4,1.0,1.0,251.0,707.0,0.0,0,-428.0,0
1393,1393,-0.017593904285638895,-0.0,1.0,0.0,365.0,602.0,0.0,0,43.0,1
1394,1394,0.016176692128299974,0.0,0.0,0.0,477.0,973.0,0.0,1,-1330.0,1
1395,1395,-0.8502329510035662,-0.9,0.0,1.0,279.0,545.0,0.0,1,2726.0,0
1396,1396,-0.38582010256156285,-0.4,0.0,1.0,428.0,813.0,1.0,0,1159.0,1
1397,1397,0.561618419550766,0.6,0.0,0.0,438.0,536.0,0.0,1,-424.0,1
1398,1398,0.04242489528492832,0.0,0.0,0.0,306.0,712.0,1.0,0,3982.0,0
1399,1399,0.6828822905394724,0.7,0.0,0.0,354.0,655.0,0.0,1,1611.0,1
1400,1400,-0.6064750036879416,-0.6,1.0,0.0,314.0,649.0,0.0,0,2277.0,1
1401,1401,-0.8949508209510421,-0.9,0.0,1.0,487.0,582.0,0.0,1,2381.0,0
1402,1402,-0.6466263941204027,-0.6,1.0,0.0,407.0,642.0,0.0,0,801.0,1
1403,1403,-0.7958287664449923,-0.8,1.0,0.0,380.0,812.0,0.0,0,-1142.0,1
1404,1404,-0.3713115907682736,-0.4,1.0,0.0,321.0,727.0,0.0,0,-1028.0,1
1405,1405,0.28373784327473606,0.3,1.0,1.0,489.0,981.0,1.0,1,3530.0,1
1406,1406,-0.16134188822256212,-0.2,1.0,0.0,484.0,790.0,0.0,0,-474.0,1
1407,1407,0.8499826318990747,0.8,0.0,0.0,289.0,907.0,0.0,1,634.0,1
1408,1408,-0.09938459432379876,-0.1,1.0,0.0,283.0,941.0,0.0,0,-984.0,1
1409,1409,-0.47897192135526984,-0.5,1.0,0.0,492.0,842.0,0.0,0,-334.0,1
1410,1410,0.8218934788350846,0.8,1.0,1.0,386.0,952.0,0.0,0,342.0,0
1411,1411,-0.30072522093155496,-0.3,0.0,1.0,370.0,603.0,0.0,1,1037.0,0
1412,1412,-0.7776168387660515,-0.8,1.0,0.0,476.0,909.0,0.0,0,-1055.0,1
1413,1413,0.8909917045286636,0.9,0.0,0.0,414.0,942.0,0.0,1,934.0,1
1414,1414,0.32971016435214195,0.3,0.0,0.0,494.0,687.0,0.0,1,3819.0,1
1415,1415,0.003882384231119973,0.0,0.0,0.0,345.0,544.0,0.0,1,1331.0,1
1416,1416,0.08245457343956508,0.1,1.0,1.0,431.0,938.0,0.0,0,2841.0,0
1417,1417,0.3119720357997645,0.3,0.0,0.0,343.0,508.0,0.0,1,249.0,1
1418,1418,-0.26462820495623995,-0.3,0.0,1.0,477.0,583.0,0.0,1,1150.0,0
1419,1419,0.3151828223556937,0.3,0.0,0.0,499.0,931.0,0.0,1,250.0,1
1420,1420,0.35800817311458444,0.4,1.0,1.0,492.0,677.0,0.0,0,-749.0,0
1421,1421,-0.48579262876809925,-0.5,1.0,0.0,439.0,553.0,1.0,1,4008.0,0
1422,1422,-0.8124074929874068,-0.8,1.0,0.0,366.0,512.0,1.0,1,4122.0,0
1423,1423,-0.08485817481539037,-0.1,0.0,1.0,272.0,923.0,0.0,1,-535.0,0
1424,1424,0.6692515970327574,0.7,1.0,1.0,428.0,941.0,0.0,0,1121.0,0
1425,1425,-0.5362856292392002,-0.5,0.0,1.0,298.0,663.0,0.0,1,1269.0,0
1426,1426,0.08528540630777803,0.1,1.0,1.0,426.0,853.0,0.0,0,3111.0,0
1427,1427,0.017325736929003632,0.0,1.0,1.0,340.0,988.0,0.0,0,1132.0,0
1428,1428,-0.3604737228256929,-0.4,0.0,1.0,311.0,602.0,0.0,1,-643.0,0
1429,1429,-0.1299340325864734,-0.1,1.0,0.0,442.0,714.0,0.0,0,114.0,1
1430,1430,-0.2905827639891143,-0.3,1.0,0.0,299.0,605.0,0.0,0,-34.0,1
1431,1431,0.04348460497144846,0.0,0.0,0.0,372.0,623.0,0.0,1,2685.0,1
1432,1432,0.2106651734171633,0.2,1.0,1.0,465.0,573.0,0.0,0,-918.0,0
1433,1433,-0.09179032258868014,-0.1,1.0,0.0,487.0,996.0,0.0,0,-973.0,1
1434,1434,0.5620774069706603,0.6,0.0,0.0,270.0,669.0,0.0,1,311.0,1
1435,1435,-0.5597472700945932,-0.6,1.0,0.0,296.0,878.0,0.0,0,266.0,1
1436,1436,-0.3180792197771447,-0.3,0.0,1.0,362.0,911.0,0.0,1,-283.0,0
1437,1437,-0.14041259147319785,-0.1,0.0,1.0,355.0,858.0,0.0,1,-633.0,0
1438,1438,0.4849188854283967,0.5,1.0,1.0,446.0,501.0,1.0,1,4053.0,1
1439,1439,-0.8497215561952555,-0.8,1.0,0.0,314.0,567.0,0.0,0,199.0,1
1440,1440,0.12786424996537937,0.1,1.0,1.0,379.0,877.0,1.0,1,3744.0,1
1441,1441,-0.06280487075738495,-0.1,0.0,1.0,394.0,999.0,0.0,1,1227.0,0
1442,1442,-0.6866563765685142,-0.7,0.0,1.0,401.0,758.0,1.0,0,3841.0,1
1443,1443,-0.8861540078216745,-0.9,0.0,1.0,278.0,523.0,0.0,1,1389.0,0
1444,1444,0.8289618715149015,0.8,0.0,0.0,406.0,686.0,0.0,1,-802.0,1
1445,1445,-0.5300167143482806,-0.5,1.0,0.0,412.0,588.0,0.0,0,240.0,1
1446,1446,0.3497800756454671,0.3,1.0,1.0,310.0,790.0,0.0,0,-620.0,0
1447,1447,0.37139215357462796,0.4,0.0,0.0,349.0,725.0,0.0,1,2196.0,1
1448,1448,0.747225387714166,0.7,1.0,1.0,264.0,953.0,0.0,0,-1167.0,0
1449,1449,-0.8485018631078334,-0.8,1.0,0.0,400.0,659.0,0.0,0,-729.0,1
1450,1450,0.2136300908244052,0.2,1.0,1.0,435.0,651.0,1.0,1,3914.0,1
1451,1451,0.1172267560198611,0.1,0.0,0.0,375.0,731.0,0.0,1,-16.0,1
1452,1452,-0.6517267991964251,-0.7,1.0,0.0,278.0,820.0,0.0,0,1222.0,1
1453,1453,0.1389525995860582,0.1,1.0,1.0,355.0,729.0,0.0,0,1406.0,0
1454,1454,-0.41720871563752926,-0.4,1.0,0.0,369.0,859.0,0.0,0,1862.0,1
1455,1455,0.11743804434276484,0.1,0.0,0.0,399.0,805.0,0.0,1,1526.0,1
1456,1456,0.6656057159390184,0.7,1.0,1.0,472.0,666.0,0.0,0,132.0,0
1457,1457,-0.30039845646459284,-0.3,1.0,0.0,377.0,829.0,0.0,0,1164.0,1
1458,1458,0.4524250144162937,0.5,1.0,1.0,320.0,880.0,0.0,0,-420.0,0
1459,1459,0.19908597567581954,0.2,1.0,1.0,256.0,793.0,0.0,0,-1039.0,0
1460,1460,0.3790137672767252,0.4,1.0,1.0,333.0,994.0,0.0,0,-217.0,0
1461,1461,0.38662308276582114,0.4,1.0,1.0,459.0,543.0,0.0,0,118.0,0
1462,1462,-0.649436292586539,-0.6,1.0,0.0,305.0,516.0,0.0,0,69.0,1
1463,1463,0.2526241251505278,0.3,0.0,0.0,268.0,610.0,0.0,1,-448.0,1
1464,1464,0.6758780243338834,0.7,0.0,0.0,323.0,904.0,0.0,1,723.0,1
1465,1465,0.2997312514970206,0.3,0.0,0.0,487.0,711.0,1.0,0,3802.0,0
1466,1466,-0.4355437943909854,-0.4,0.0,1.0,311.0,942.0,0.0,1,-263.0,0
1467,1467,0.12352529688780034,0.1,0.0,0.0,276.0,817.0,0.0,1,2547.0,1
1468,1468,0.5233999432353974,0.5,0.0,0.0,251.0,825.0,0.0,1,-206.0,1
1469,1469,0.27429524210621115,0.3,1.0,1.0,341.0,928.0,0.0,0,-519.0,0
1470,1470,-0.5766136538972848,-0.6,1.0,0.0,270.0,749.0,0.0,0,1191.0,1
1471,1471,0.5925324389462346,0.6,0.0,0.0,451.0,772.0,0.0,1,127.0,1
1472,1472,0.2971322864282552,0.3,0.0,0.0,390.0,557.0,0.0,1,-507.0,1
1473,1473,-0.6500391713430149,-0.7,1.0,0.0,465.0,514.0,0.0,0,1091.0,1
1474,1474,-0.46199433960876835,-0.5,1.0,0.0,356.0,975.0,0.0,0,1629.0,1
1475,1475,0.5418541662431394,0.5,0.0,0.0,499.0,772.0,0.0,1,219.0,1
1476,1476,0.19590274752053982,0.2,1.0,1.0,292.0,525.0,0.0,0,-797.0,0
