,trial,coherence,coherence_bin,green_side,correct_side,target_onset,checker_onset,decision,green_decision,decision_time,correct_decision
0,0,0.3429395360245898,0.3,1.0,1.0,484.0,517.0,0.0,0,1999.0,0
1,1,-0.13101284097906674,-0.1,1.0,0.0,465.0,616.0,0.0,0,1919.0,1
2,2,0.6568477079284333,0.7,0.0,0.0,254.0,555.0,0.0,1,2191.0,1
3,3,-0.36832091210840967,-0.4,1.0,0.0,353.0,570.0,0.0,0,2077.0,1
4,4,-0.5295296801796701,-0.5,0.0,1.0,466.0,608.0,0.0,1,1926.0,0
5,5,-0.6539633261822947,-0.7,1.0,0.0,355.0,869.0,0.0,0,1776.0,1
6,6,-0.43697862044882196,-0.4,0.0,1.0,330.0,890.0,0.0,1,1780.0,0
7,7,0.6030114186484251,0.6,0.0,0.0,440.0,627.0,0.0,1,1933.0,1
8,8,-0.02292033774325586,-0.0,1.0,0.0,337.0,797.0,0.0,0,1866.0,1
9,9,0.22305453704277756,0.2,0.0,0.0,289.0,814.0,0.0,1,1897.0,1
10,10,0.28147368547063933,0.3,0.0,0.0,272.0,847.0,0.0,1,1881.0,1
11,11,0.5230579785250568,0.5,1.0,1.0,368.0,911.0,1.0,1,-1229.0,1
12,12,0.24950978121619294,0.2,0.0,0.0,425.0,939.0,0.0,1,1636.0,1
13,13,-0.47786373234851215,-0.5,0.0,1.0,492.0,502.0,0.0,1,2006.0,0
14,14,0.20512852487820632,0.2,1.0,1.0,257.0,905.0,0.0,0,1838.0,0
15,15,0.4267025268337502,0.4,0.0,0.0,326.0,809.0,0.0,1,1865.0,1
16,16,-0.5970443023964462,-0.6,1.0,0.0,307.0,704.0,0.0,0,1989.0,1
17,17,0.37749704636481496,0.4,0.0,0.0,475.0,748.0,0.0,1,1777.0,1
18,18,0.7298337036569659,0.7,1.0,1.0,392.0,973.0,0.0,0,1635.0,0
19,19,-0.7118936815658952,-0.7,1.0,0.0,445.0,522.0,0.0,0,2033.0,1
20,20,0.05526591942279779,0.1,0.0,0.0,402.0,620.0,0.0,1,1978.0,1
21,21,-0.637156026310483,-0.6,1.0,0.0,250.0,694.0,0.0,0,2056.0,1
22,22,0.2447567570293968,0.2,1.0,1.0,466.0,700.0,0.0,0,1834.0,0
23,23,-0.44197173064852485,-0.4,0.0,1.0,407.0,903.0,0.0,1,-1270.0,0
24,24,0.7173544657917946,0.7,1.0,1.0,455.0,698.0,0.0,0,1847.0,0
25,25,-0.7549027948058449,-0.8,1.0,0.0,421.0,736.0,0.0,0,1843.0,1
26,26,0.13139794216037692,0.1,0.0,0.0,252.0,559.0,0.0,1,2189.0,1
27,27,-0.5741050882944243,-0.6,0.0,1.0,432.0,553.0,0.0,1,2015.0,0
28,28,-0.7433939252486241,-0.7,1.0,0.0,461.0,609.0,1.0,1,-950.0,0
29,29,0.2786361876872835,0.3,1.0,1.0,268.0,597.0,0.0,0,-825.0,0
30,30,0.1205996302768707,0.1,1.0,1.0,257.0,740.0,0.0,0,2003.0,0
31,31,-0.7672844450038041,-0.8,1.0,0.0,359.0,596.0,0.0,0,2045.0,1
32,32,0.7388271308582134,0.7,1.0,1.0,488.0,687.0,0.0,0,1825.0,0
33,33,-0.4961476427693695,-0.5,1.0,0.0,393.0,759.0,0.0,0,-1142.0,1
34,34,-0.5775445305084362,-0.6,0.0,1.0,455.0,781.0,0.0,1,1764.0,0
35,35,-0.28056378585912145,-0.3,0.0,1.0,358.0,599.0,0.0,1,2043.0,0
36,36,-0.7332020964457282,-0.7,1.0,0.0,463.0,799.0,0.0,0,1738.0,1
37,37,-0.5351225858629695,-0.5,0.0,1.0,362.0,794.0,0.0,1,-956.0,0
38,38,0.32815735706778615,0.3,0.0,0.0,331.0,708.0,0.0,1,1961.0,1
39,39,-0.1679349521392023,-0.2,0.0,1.0,399.0,996.0,0.0,1,1605.0,0
40,40,0.7878798793343965,0.8,1.0,1.0,322.0,706.0,0.0,0,1972.0,0
41,41,-0.48963890675726496,-0.5,1.0,0.0,496.0,858.0,0.0,0,1646.0,1
42,42,-0.8864019912640875,-0.9,0.0,1.0,291.0,792.0,0.0,1,1917.0,0
43,43,-0.28132843281131825,-0.3,0.0,1.0,443.0,858.0,0.0,1,1699.0,0
44,44,-0.4951397280354447,-0.5,1.0,0.0,375.0,910.0,0.0,0,-1285.0,1
45,45,0.5180458187144455,0.5,1.0,1.0,279.0,807.0,0.0,0,1914.0,0
46,46,-0.3839324252374279,-0.4,0.0,1.0,273.0,685.0,0.0,1,2042.0,0
47,47,0.7653359524339743,0.8,1.0,1.0,289.0,864.0,0.0,0,1847.0,0
48,48,-0.7126765861031537,-0.7,1.0,0.0,304.0,974.0,0.0,0,1722.0,1
49,49,0.768263415661469,0.8,1.0,1.0,492.0,857.0,0.0,0,1651.0,0
50,50,-0.2945649162035183,-0.3,1.0,0.0,329.0,666.0,0.0,0,2005.0,1
51,51,-0.4170657380001643,-0.4,0.0,1.0,272.0,936.0,0.0,1,1792.0,0
52,52,-0.3445612263220572,-0.3,0.0,1.0,470.0,758.0,0.0,1,1772.0,0
53,53,0.4610781622910908,0.5,0.0,0.0,375.0,530.0,0.0,1,2095.0,1
54,54,0.4450902318093898,0.4,1.0,1.0,476.0,678.0,0.0,0,1846.0,0
55,55,0.4260344672612132,0.4,1.0,1.0,252.0,593.0,0.0,0,2155.0,0
56,56,0.1999284231694708,0.2,1.0,1.0,326.0,681.0,0.0,0,1993.0,0
57,57,-0.46353432613341045,-0.5,1.0,0.0,301.0,513.0,0.0,0,2186.0,1
58,58,-0.8730435186817498,-0.9,1.0,0.0,358.0,878.0,0.0,0,1764.0,1
59,59,-0.09964406240626345,-0.1,1.0,0.0,254.0,764.0,0.0,0,1982.0,1
60,60,-0.15222288841870224,-0.2,1.0,0.0,293.0,880.0,0.0,0,1827.0,1
61,61,-0.3346096512107991,-0.3,1.0,0.0,355.0,552.0,0.0,0,2093.0,1
62,62,0.7687374876544194,0.8,0.0,0.0,306.0,843.0,0.0,1,1851.0,1
63,63,0.10113817575735429,0.1,1.0,1.0,271.0,582.0,0.0,0,2147.0,0
64,64,0.23322622278669203,0.2,1.0,1.0,292.0,514.0,0.0,0,2194.0,0
65,65,-0.5775181119440961,-0.6,1.0,0.0,436.0,898.0,0.0,0,1666.0,1
66,66,0.15511468313805,0.2,0.0,0.0,358.0,566.0,0.0,1,-864.0,1
67,67,-0.3086726280072316,-0.3,1.0,0.0,367.0,998.0,0.0,0,1635.0,1
68,68,0.22826931938387174,0.2,0.0,0.0,327.0,777.0,0.0,1,1896.0,1
69,69,0.7693754506899587,0.8,1.0,1.0,291.0,613.0,0.0,0,2096.0,0
70,70,-0.8155850984892279,-0.8,1.0,0.0,450.0,704.0,0.0,0,1846.0,1
71,71,0.6571738741416912,0.7,1.0,1.0,428.0,708.0,0.0,0,1864.0,0
72,72,0.7637506790191885,0.8,1.0,1.0,476.0,521.0,0.0,0,2003.0,0
73,73,-0.7329294708758025,-0.7,1.0,0.0,303.0,732.0,0.0,0,1965.0,1
74,74,-0.8332215109041342,-0.8,1.0,0.0,265.0,663.0,0.0,0,2072.0,1
75,75,0.1910161278241399,0.2,1.0,1.0,272.0,562.0,0.0,0,2166.0,0
76,76,0.7682019311279774,0.8,0.0,0.0,310.0,535.0,0.0,1,2155.0,1
77,77,0.18163706220405273,0.2,0.0,0.0,494.0,686.0,0.0,1,1820.0,1
78,78,0.004337302854810043,0.0,0.0,0.0,325.0,620.0,0.0,1,2055.0,1
79,79,0.8759872590290542,0.9,0.0,0.0,498.0,725.0,0.0,1,1777.0,1
80,80,0.7000636448798937,0.7,0.0,0.0,300.0,573.0,0.0,1,2127.0,1
81,81,-0.5073362923585238,-0.5,0.0,1.0,253.0,926.0,0.0,1,1821.0,0
82,82,0.14749861637008588,0.1,0.0,0.0,406.0,841.0,0.0,1,1753.0,1
83,83,0.5113902926185762,0.5,0.0,0.0,274.0,711.0,0.0,1,2015.0,1
84,84,-0.06662479678949462,-0.1,0.0,1.0,455.0,711.0,0.0,1,1834.0,0
85,85,-0.016524489792600017,-0.0,1.0,0.0,468.0,819.0,0.0,0,1713.0,1
86,86,-0.2670024297252688,-0.3,0.0,1.0,448.0,854.0,0.0,1,1698.0,0
87,87,0.8028966450985916,0.8,1.0,1.0,468.0,937.0,0.0,0,1595.0,0
88,88,-0.5934815013096084,-0.6,1.0,0.0,462.0,653.0,0.0,0,1885.0,1
89,89,0.7299365119330242,0.7,0.0,0.0,496.0,922.0,0.0,1,-1398.0,1
90,90,0.022349690960502766,0.0,1.0,1.0,281.0,927.0,0.0,0,1792.0,0
91,91,-0.39185951118192963,-0.4,0.0,1.0,489.0,891.0,0.0,1,1620.0,0
92,92,0.7914482363612382,0.8,0.0,0.0,456.0,617.0,0.0,1,1927.0,1
93,93,-0.4666799231216729,-0.5,0.0,1.0,283.0,755.0,0.0,1,1962.0,0
94,94,0.8983278571005361,0.9,1.0,1.0,393.0,857.0,0.0,0,1750.0,0
95,95,0.5200219651453634,0.5,0.0,0.0,274.0,969.0,0.0,1,1757.0,1
96,96,-0.023875589577758594,-0.0,1.0,0.0,454.0,990.0,0.0,0,1556.0,1
97,97,-0.1266634460435604,-0.1,1.0,0.0,255.0,801.0,0.0,0,1944.0,1
98,98,0.7699770059208247,0.8,1.0,1.0,473.0,962.0,0.0,0,1565.0,0
99,99,0.23036888113180531,0.2,0.0,0.0,486.0,744.0,0.0,1,1770.0,1
100,100,0.6168263006462088,0.6,1.0,1.0,253.0,692.0,0.0,0,2055.0,0
101,101,0.4585362031577661,0.5,1.0,1.0,483.0,914.0,0.0,0,1603.0,0
102,102,-0.6779103450133354,-0.7,1.0,0.0,428.0,924.0,0.0,0,1648.0,1
103,103,-0.7471660564546749,-0.7,1.0,0.0,389.0,833.0,0.0,0,1778.0,1
104,104,-0.559420902286639,-0.6,0.0,1.0,377.0,864.0,0.0,1,1759.0,0
105,105,-0.22995391625562722,-0.2,0.0,1.0,319.0,556.0,0.0,1,2125.0,0
106,106,0.7300921563722437,0.7,0.0,0.0,462.0,896.0,1.0,0,-1098.0,0
107,107,-0.06105167655896193,-0.1,1.0,0.0,336.0,655.0,0.0,0,2009.0,1
108,108,0.8994508812226757,0.9,0.0,0.0,406.0,668.0,0.0,1,1926.0,1
109,109,-0.2062788133113279,-0.2,0.0,1.0,448.0,500.0,1.0,0,-788.0,1
110,110,-0.8903064199247307,-0.9,1.0,0.0,408.0,654.0,0.0,0,1938.0,1
111,111,0.14073330291830233,0.1,1.0,1.0,308.0,619.0,0.0,0,2073.0,0
112,112,0.13158390221723637,0.1,1.0,1.0,438.0,536.0,0.0,0,2026.0,0
113,113,-0.0459340469036279,-0.0,0.0,1.0,321.0,822.0,0.0,1,1857.0,0
114,114,-0.531541299911279,-0.5,0.0,1.0,330.0,825.0,0.0,1,1845.0,0
115,115,0.31658610681376886,0.3,1.0,1.0,410.0,577.0,0.0,0,2013.0,0
116,116,0.1042571974119012,0.1,1.0,1.0,253.0,874.0,0.0,0,1873.0,0
117,117,0.13609913037015142,0.1,1.0,1.0,284.0,974.0,0.0,0,1742.0,0
118,118,-0.8396475755666127,-0.8,0.0,1.0,475.0,873.0,0.0,1,1652.0,0
119,119,-0.3647743755034012,-0.4,0.0,1.0,258.0,791.0,0.0,1,1951.0,0
120,120,0.17211592448756308,0.2,1.0,1.0,323.0,697.0,0.0,0,1980.0,0
121,121,-0.659100279760687,-0.7,1.0,0.0,455.0,584.0,0.0,0,1961.0,1
122,122,0.4693773104983009,0.5,1.0,1.0,379.0,838.0,0.0,0,1783.0,0
123,123,0.4349180600686088,0.4,0.0,0.0,310.0,664.0,0.0,1,2026.0,1
124,124,-0.31233062514531174,-0.3,1.0,0.0,344.0,756.0,0.0,0,1900.0,1
125,125,-0.318637164956006,-0.3,0.0,1.0,338.0,559.0,0.0,1,2103.0,0
126,126,0.28757956485420577,0.3,1.0,1.0,378.0,734.0,0.0,0,1888.0,0
127,127,-0.0408687905042332,-0.0,1.0,0.0,446.0,561.0,0.0,0,1993.0,1
128,128,-0.7642099603406477,-0.8,1.0,0.0,356.0,716.0,0.0,0,1928.0,1
129,129,-0.4569650439051622,-0.5,0.0,1.0,275.0,847.0,0.0,1,1878.0,0
130,130,0.7828045119738342,0.8,1.0,1.0,478.0,978.0,0.0,0,1544.0,0
131,131,0.20800853333289815,0.2,1.0,1.0,278.0,699.0,0.0,0,2023.0,0
132,132,0.7563387725700764,0.8,1.0,1.0,401.0,963.0,0.0,0,1636.0,0
133,133,0.6872892838687988,0.7,1.0,1.0,324.0,783.0,0.0,0,1893.0,0
134,134,-0.720331599912422,-0.7,1.0,0.0,478.0,986.0,0.0,0,1536.0,1
135,135,0.4989639820929067,0.5,0.0,0.0,406.0,595.0,1.0,0,-881.0,0
136,136,0.6202427496736104,0.6,0.0,0.0,371.0,550.0,0.0,1,2079.0,1
137,137,0.40458996320064544,0.4,0.0,0.0,393.0,826.0,0.0,1,1781.0,1
138,138,0.6105440246134978,0.6,1.0,1.0,310.0,572.0,0.0,0,2118.0,0
139,139,-0.4688060290484042,-0.5,0.0,1.0,450.0,810.0,0.0,1,1740.0,0
140,140,0.7619995243039058,0.8,1.0,1.0,381.0,899.0,0.0,0,1720.0,0
141,141,-0.2641089955188899,-0.3,1.0,0.0,306.0,618.0,0.0,0,2076.0,1
142,142,-0.572051523251248,-0.6,1.0,0.0,399.0,966.0,0.0,0,1635.0,1
143,143,0.5829331006764514,0.6,0.0,0.0,274.0,885.0,0.0,1,1841.0,1
144,144,0.6791725315205647,0.7,1.0,1.0,365.0,997.0,0.0,0,1638.0,0
145,145,-0.3858217891047192,-0.4,1.0,0.0,359.0,795.0,0.0,0,1846.0,1
146,146,0.5064180100541725,0.5,0.0,0.0,391.0,584.0,0.0,1,2025.0,1
147,147,-0.57942818541622,-0.6,0.0,1.0,452.0,572.0,0.0,1,1976.0,0
148,148,-0.23331882851088226,-0.2,0.0,1.0,256.0,864.0,1.0,0,-1090.0,1
149,149,-0.07248474962119378,-0.1,1.0,0.0,444.0,939.0,0.0,0,1617.0,1
150,150,-0.030232534267180755,-0.0,1.0,0.0,399.0,558.0,0.0,0,2043.0,1
151,151,0.19135017529136455,0.2,0.0,0.0,431.0,856.0,0.0,1,1713.0,1
152,152,0.48176240710488305,0.5,1.0,1.0,447.0,554.0,0.0,0,1999.0,0
153,153,-0.046839607347009427,-0.0,1.0,0.0,404.0,944.0,0.0,0,1652.0,1
154,154,0.061561435072216675,0.1,0.0,0.0,421.0,581.0,0.0,1,1998.0,1
155,155,0.8035778616670463,0.8,1.0,1.0,474.0,755.0,0.0,0,1771.0,0
156,156,-0.06083892708397043,-0.1,0.0,1.0,335.0,722.0,0.0,1,1943.0,0
157,157,-0.5241690329985413,-0.5,0.0,1.0,308.0,507.0,0.0,1,2185.0,0
158,158,0.8057345515748618,0.8,1.0,1.0,330.0,971.0,0.0,0,1699.0,0
159,159,0.22268820918266397,0.2,0.0,0.0,451.0,713.0,0.0,1,1836.0,1
160,160,-0.7643800122229198,-0.8,1.0,0.0,339.0,602.0,0.0,0,2059.0,1
161,161,-0.6028325509526196,-0.6,1.0,0.0,292.0,873.0,0.0,0,1835.0,1
162,162,0.7646810831253948,0.8,1.0,1.0,261.0,972.0,1.0,1,-1193.0,1
163,163,0.2612879469677428,0.3,0.0,0.0,417.0,651.0,0.0,1,1932.0,1
164,164,0.16540418534842127,0.2,0.0,0.0,333.0,838.0,0.0,1,1829.0,1
165,165,-0.18784355380374307,-0.2,0.0,1.0,298.0,691.0,0.0,1,-939.0,0
166,166,0.8370526754703708,0.8,0.0,0.0,345.0,691.0,0.0,1,1964.0,1
167,167,0.18046681558904176,0.2,0.0,0.0,468.0,706.0,0.0,1,1826.0,1
168,168,-0.07173289128981386,-0.1,1.0,0.0,397.0,688.0,0.0,0,1915.0,1
169,169,-0.5118580169327063,-0.5,1.0,0.0,366.0,508.0,0.0,0,2126.0,1
170,170,0.4661574047349287,0.5,0.0,0.0,374.0,970.0,0.0,1,1656.0,1
171,171,0.43062068929258446,0.4,1.0,1.0,422.0,898.0,1.0,1,-1320.0,1
172,172,0.05205954663221224,0.1,0.0,0.0,345.0,999.0,0.0,1,1656.0,1
173,173,0.6909481078034788,0.7,1.0,1.0,282.0,940.0,0.0,0,1778.0,0
174,174,0.11164929743919794,0.1,0.0,0.0,385.0,963.0,0.0,1,1652.0,1
175,175,0.06287642185959075,0.1,0.0,0.0,442.0,763.0,0.0,1,1795.0,1
176,176,-0.641276010583232,-0.6,1.0,0.0,310.0,739.0,0.0,0,1951.0,1
177,177,-0.19985409535494625,-0.2,1.0,0.0,441.0,949.0,0.0,0,1610.0,1
178,178,-0.2232226145772992,-0.2,1.0,0.0,323.0,744.0,0.0,0,1933.0,1
179,179,0.3007523175586423,0.3,1.0,1.0,389.0,619.0,0.0,0,1992.0,0
180,180,0.08516432367199955,0.1,0.0,0.0,436.0,536.0,0.0,1,2028.0,1
181,181,-0.6717010974001861,-0.7,1.0,0.0,469.0,603.0,0.0,0,1928.0,1
182,182,0.26916845541057943,0.3,0.0,0.0,464.0,831.0,0.0,1,1705.0,1
183,183,-0.6371081228881113,-0.6,0.0,1.0,418.0,889.0,0.0,1,1693.0,0
184,184,0.24077831487704937,0.2,1.0,1.0,412.0,630.0,0.0,0,1958.0,0
185,185,0.03979193834206973,0.0,0.0,0.0,306.0,707.0,0.0,1,1987.0,1
186,186,-0.2247658195100397,-0.2,1.0,0.0,288.0,569.0,0.0,0,2143.0,1
187,187,0.7682847862422738,0.8,0.0,0.0,373.0,941.0,0.0,1,1686.0,1
188,188,-0.09387460050808971,-0.1,1.0,0.0,438.0,765.0,0.0,0,1797.0,1
189,189,-0.0848133871558383,-0.1,1.0,0.0,404.0,970.0,0.0,0,1626.0,1
190,190,0.7509363836142408,0.8,1.0,1.0,276.0,720.0,0.0,0,2004.0,0
191,191,0.28584361392735846,0.3,1.0,1.0,386.0,869.0,0.0,0,1745.0,0
192,192,0.2607201436676668,0.3,0.0,0.0,359.0,819.0,0.0,1,1822.0,1
193,193,0.5804498145385505,0.6,1.0,1.0,446.0,789.0,0.0,0,1765.0,0
194,194,0.7789416928083176,0.8,1.0,1.0,453.0,536.0,0.0,0,2011.0,0
195,195,-0.4728252487702834,-0.5,0.0,1.0,292.0,673.0,0.0,1,2035.0,0
196,196,-0.3437715599001734,-0.3,0.0,1.0,349.0,645.0,0.0,1,2006.0,0
197,197,-0.030799084083540706,-0.0,0.0,1.0,489.0,620.0,0.0,1,-1029.0,0
198,198,-0.56211938151168,-0.6,1.0,0.0,427.0,813.0,0.0,0,-1170.0,1
199,199,-0.31802991722658547,-0.3,1.0,0.0,436.0,929.0,0.0,0,1635.0,1
200,200,-0.3357693560243069,-0.3,0.0,1.0,478.0,931.0,0.0,1,1591.0,0
201,201,0.6477662703250632,0.6,0.0,0.0,455.0,639.0,0.0,1,-1084.0,1
202,202,0.6382491766397668,0.6,1.0,1.0,450.0,667.0,0.0,0,1883.0,0
203,203,-0.6058464110630135,-0.6,1.0,0.0,477.0,649.0,0.0,0,-1026.0,1
204,204,-0.3563367587598373,-0.4,1.0,0.0,406.0,838.0,0.0,0,1756.0,1
205,205,-0.7028804551599219,-0.7,1.0,0.0,349.0,931.0,0.0,0,1720.0,1
206,206,0.6566158982214884,0.7,1.0,1.0,311.0,983.0,0.0,0,1706.0,0
207,207,-0.6371388917800882,-0.6,0.0,1.0,471.0,757.0,0.0,1,1772.0,0
208,208,-0.7828726215209322,-0.8,1.0,0.0,315.0,590.0,0.0,0,2095.0,1
209,209,-0.6547305358311608,-0.7,0.0,1.0,330.0,865.0,0.0,1,1805.0,0
210,210,-0.35178093810613964,-0.4,1.0,0.0,258.0,806.0,0.0,0,1936.0,1
211,211,-0.8558739673810122,-0.9,1.0,0.0,398.0,958.0,0.0,0,1644.0,1
212,212,-0.7706514451994738,-0.8,0.0,1.0,347.0,659.0,0.0,1,1994.0,0
213,213,-0.7201513087681262,-0.7,0.0,1.0,371.0,777.0,0.0,1,1852.0,0
214,214,-0.7140032375387759,-0.7,1.0,0.0,378.0,717.0,0.0,0,1905.0,1
215,215,-0.25546769782486445,-0.3,1.0,0.0,437.0,527.0,0.0,0,2036.0,1
216,216,-0.3124917918901743,-0.3,1.0,0.0,488.0,552.0,0.0,0,1960.0,1
217,217,0.6657817284100725,0.7,1.0,1.0,457.0,628.0,0.0,0,1915.0,0
218,218,0.662716047912537,0.7,0.0,0.0,432.0,516.0,0.0,1,2052.0,1
219,219,0.7779381381623579,0.8,0.0,0.0,442.0,755.0,0.0,1,1803.0,1
220,220,0.6351956467594467,0.6,0.0,0.0,270.0,672.0,0.0,1,2058.0,1
221,221,0.05611726911530934,0.1,0.0,0.0,287.0,515.0,0.0,1,2198.0,1
222,222,0.019372226590193664,0.0,1.0,1.0,331.0,830.0,0.0,0,1839.0,0
223,223,0.5300457605856018,0.5,0.0,0.0,310.0,741.0,0.0,1,1949.0,1
224,224,0.36632728962869143,0.4,0.0,0.0,431.0,586.0,0.0,1,1983.0,1
225,225,-0.48250996035463917,-0.5,0.0,1.0,353.0,922.0,0.0,1,1725.0,0
226,226,-0.6065520088129384,-0.6,1.0,0.0,348.0,889.0,0.0,0,1763.0,1
227,227,0.5762788669598155,0.6,0.0,0.0,491.0,527.0,0.0,1,1982.0,1
228,228,0.6067383322207295,0.6,1.0,1.0,437.0,870.0,0.0,0,1693.0,0
229,229,-0.7382150179873701,-0.7,1.0,0.0,418.0,892.0,1.0,1,-1220.0,0
230,230,0.5381648428197962,0.5,0.0,0.0,413.0,912.0,0.0,1,1675.0,1
231,231,0.8316967264774885,0.8,0.0,0.0,292.0,757.0,0.0,1,1951.0,1
232,232,-0.544088859663969,-0.5,1.0,0.0,436.0,569.0,0.0,0,1995.0,1
233,233,-0.19939631007599046,-0.2,0.0,1.0,413.0,845.0,0.0,1,1742.0,0
234,234,-0.3845669751741616,-0.4,1.0,0.0,286.0,786.0,0.0,0,-962.0,1
235,235,-0.30276917366766776,-0.3,1.0,0.0,391.0,867.0,0.0,0,1742.0,1
236,236,-0.870579172515986,-0.9,0.0,1.0,360.0,700.0,0.0,1,-1050.0,0
237,237,-0.7634616501584071,-0.8,0.0,1.0,471.0,725.0,0.0,1,1804.0,0
238,238,0.4404919901839571,0.4,0.0,0.0,285.0,810.0,0.0,1,1905.0,1
239,239,-0.0051534671469980475,-0.0,0.0,1.0,366.0,826.0,0.0,1,1808.0,0
240,240,-0.43782187271798645,-0.4,0.0,1.0,252.0,905.0,0.0,1,1843.0,0
241,241,-0.1946525979244672,-0.2,1.0,0.0,280.0,567.0,0.0,0,2153.0,1
242,242,0.5286162990999391,0.5,1.0,1.0,468.0,564.0,0.0,0,1968.0,0
243,243,0.30935753737543015,0.3,1.0,1.0,419.0,931.0,0.0,0,1650.0,0
244,244,0.40028852889417654,0.4,1.0,1.0,344.0,657.0,0.0,0,1999.0,0
245,245,0.36167445534413944,0.4,1.0,1.0,497.0,543.0,0.0,0,1960.0,0
246,246,-0.42781578768742823,-0.4,1.0,0.0,407.0,760.0,0.0,0,1833.0,1
247,247,-0.650759778401008,-0.7,1.0,0.0,313.0,898.0,0.0,0,1789.0,1
248,248,0.19393640662326372,0.2,0.0,0.0,320.0,971.0,0.0,1,1709.0,1
249,249,0.7086578676452525,0.7,0.0,0.0,363.0,538.0,0.0,1,-881.0,1
250,250,-0.6660634753694372,-0.7,0.0,1.0,314.0,909.0,0.0,1,1777.0,0
251,251,-0.771177663022937,-0.8,0.0,1.0,360.0,630.0,0.0,1,-900.0,0
252,252,0.5415328371359921,0.5,0.0,0.0,420.0,909.0,0.0,1,1671.0,1
253,253,0.07390257012879531,0.1,1.0,1.0,351.0,975.0,0.0,0,-1246.0,0
254,254,-0.39136180567596923,-0.4,1.0,0.0,367.0,683.0,0.0,0,1950.0,1
255,255,0.702509296341406,0.7,1.0,1.0,410.0,657.0,0.0,0,1933.0,0
256,256,-0.07698080294586873,-0.1,1.0,0.0,329.0,840.0,0.0,0,1831.0,1
257,257,-0.11025557384803619,-0.1,1.0,0.0,293.0,750.0,0.0,0,1957.0,1
258,258,0.029086959528096035,0.0,0.0,0.0,442.0,667.0,0.0,1,1891.0,1
259,259,0.1857389978042815,0.2,1.0,1.0,382.0,956.0,0.0,0,1662.0,0
260,260,0.26062374361805307,0.3,0.0,0.0,345.0,613.0,0.0,1,2042.0,1
261,261,0.8925872667701774,0.9,0.0,0.0,315.0,778.0,0.0,1,1907.0,1
262,262,-0.4359749518844695,-0.4,0.0,1.0,480.0,528.0,0.0,1,1992.0,0
263,263,0.06938690342700715,0.1,0.0,0.0,404.0,754.0,0.0,1,1842.0,1
264,264,-0.23456891015899506,-0.2,1.0,0.0,403.0,644.0,0.0,0,1953.0,1
265,265,-0.11930397599542086,-0.1,1.0,0.0,314.0,517.0,0.0,0,2169.0,1
266,266,0.1429765011141565,0.1,1.0,1.0,498.0,748.0,0.0,0,1754.0,0
267,267,-0.024012098092523693,-0.0,1.0,0.0,285.0,927.0,0.0,0,1788.0,1
268,268,-0.6310394793199096,-0.6,0.0,1.0,462.0,622.0,0.0,1,1916.0,0
269,269,0.3166839799514144,0.3,1.0,1.0,330.0,685.0,0.0,0,1985.0,0
270,270,-0.8794003806704633,-0.9,1.0,0.0,268.0,684.0,0.0,0,2048.0,1
271,271,-0.1042732593603215,-0.1,0.0,1.0,350.0,503.0,0.0,1,2147.0,0
272,272,0.6527016154154975,0.7,0.0,0.0,399.0,609.0,0.0,1,1992.0,1
273,273,0.37899022419802175,0.4,1.0,1.0,484.0,571.0,0.0,0,1945.0,0
274,274,-0.4567078650106679,-0.5,1.0,0.0,259.0,543.0,0.0,0,2198.0,1
275,275,-0.408763038681866,-0.4,1.0,0.0,252.0,713.0,0.0,0,2035.0,1
276,276,0.4707351322933454,0.5,1.0,1.0,388.0,854.0,0.0,0,1758.0,0
277,277,0.4991073356336787,0.5,0.0,0.0,334.0,992.0,0.0,1,1674.0,1
278,278,0.6895665584438412,0.7,1.0,1.0,416.0,801.0,0.0,0,1783.0,0
279,279,0.17883421146010015,0.2,1.0,1.0,466.0,925.0,0.0,0,1609.0,0
280,280,-0.5926537027663202,-0.6,0.0,1.0,477.0,561.0,0.0,1,1962.0,0
281,281,-0.2329825012282598,-0.2,1.0,0.0,479.0,638.0,0.0,0,1883.0,1
282,282,-0.04439554216286912,-0.0,1.0,0.0,317.0,856.0,0.0,0,1827.0,1
283,283,0.3382844689991732,0.3,1.0,1.0,383.0,932.0,0.0,0,1685.0,0
284,284,-0.7343237552294607,-0.7,1.0,0.0,252.0,914.0,0.0,0,1834.0,1
285,285,-0.7081584795248282,-0.7,0.0,1.0,267.0,525.0,0.0,1,2208.0,0
286,286,0.839779816158769,0.8,1.0,1.0,347.0,956.0,0.0,0,1697.0,0
287,287,0.7389914297065118,0.7,1.0,1.0,253.0,939.0,0.0,0,1808.0,0
288,288,-0.8928840012590866,-0.9,1.0,0.0,421.0,939.0,0.0,0,1640.0,1
289,289,-0.7971595644225147,-0.8,0.0,1.0,328.0,790.0,0.0,1,1882.0,0
290,290,0.0667892763720741,0.1,0.0,0.0,447.0,753.0,0.0,1,1800.0,1
291,291,-0.6471636320001597,-0.6,1.0,0.0,369.0,864.0,0.0,0,1767.0,1
292,292,0.3790243116594786,0.4,0.0,0.0,405.0,759.0,1.0,0,-1074.0,0
293,293,0.8892859506074832,0.9,1.0,1.0,297.0,755.0,0.0,0,1948.0,0
294,294,-0.0556902264735788,-0.1,0.0,1.0,498.0,526.0,0.0,1,1976.0,0
295,295,-0.4896815165673165,-0.5,1.0,0.0,284.0,981.0,0.0,0,1735.0,1
296,296,-0.27249319284575635,-0.3,1.0,0.0,262.0,713.0,0.0,0,2025.0,1
297,297,-0.8694150133875321,-0.9,0.0,1.0,339.0,681.0,0.0,1,1980.0,0
298,298,0.7378063599803376,0.7,0.0,0.0,473.0,721.0,0.0,1,1806.0,1
299,299,-0.27525749413002265,-0.3,0.0,1.0,332.0,773.0,0.0,1,1895.0,0
300,300,0.6549625117784795,0.7,0.0,0.0,446.0,844.0,0.0,1,1710.0,1
301,301,-0.35171316210893966,-0.4,1.0,0.0,449.0,661.0,0.0,0,-1110.0,1
302,302,0.847758489405554,0.8,1.0,1.0,357.0,703.0,0.0,0,1940.0,0
303,303,-0.30805912200064,-0.3,1.0,0.0,323.0,600.0,0.0,0,2077.0,1
304,304,0.72884009643955,0.7,0.0,0.0,467.0,973.0,0.0,1,1560.0,1
305,305,-0.5062300774970028,-0.5,1.0,0.0,293.0,653.0,0.0,0,2054.0,1
306,306,-0.12808800600224546,-0.1,1.0,0.0,463.0,696.0,0.0,0,1841.0,1
307,307,-0.8546105146575192,-0.9,1.0,0.0,256.0,879.0,0.0,0,1865.0,1
308,308,-0.8848453591224167,-0.9,0.0,1.0,335.0,695.0,0.0,1,1970.0,0
309,309,0.4541756661154427,0.5,0.0,0.0,290.0,785.0,0.0,1,1925.0,1
310,310,-0.828256313874289,-0.8,1.0,0.0,378.0,766.0,0.0,0,1856.0,1
311,311,-0.24226142312785437,-0.2,1.0,0.0,458.0,989.0,0.0,0,1553.0,1
312,312,0.6144069842430248,0.6,0.0,0.0,416.0,929.0,0.0,1,1655.0,1
313,313,0.7918701276208365,0.8,0.0,0.0,316.0,791.0,0.0,1,1893.0,1
314,314,-0.06359809778549885,-0.1,0.0,1.0,382.0,739.0,0.0,1,1879.0,0
315,315,-0.3316660827312846,-0.3,0.0,1.0,398.0,554.0,0.0,1,-782.0,0
316,316,-0.7259426839509051,-0.7,1.0,0.0,273.0,977.0,0.0,0,1750.0,1
317,317,0.13396152884871182,0.1,0.0,0.0,413.0,688.0,0.0,1,1899.0,1
318,318,0.8664900456270314,0.9,0.0,0.0,479.0,763.0,0.0,1,1758.0,1
319,319,-0.2584387472298313,-0.3,1.0,0.0,424.0,804.0,0.0,0,1772.0,1
320,320,0.870096687762003,0.9,1.0,1.0,399.0,592.0,0.0,0,2009.0,0
321,321,-0.29532263766793987,-0.3,1.0,0.0,253.0,825.0,0.0,0,1922.0,1
322,322,-0.3880158180110601,-0.4,0.0,1.0,315.0,980.0,0.0,1,1705.0,0
323,323,-0.1101646651905267,-0.1,0.0,1.0,405.0,762.0,0.0,1,1833.0,0
324,324,0.8791587558774642,0.9,1.0,1.0,292.0,816.0,0.0,0,1892.0,0
325,325,-0.6166470822601942,-0.6,1.0,0.0,466.0,921.0,0.0,0,1613.0,1
326,326,0.6630010403277197,0.7,0.0,0.0,486.0,665.0,0.0,1,1849.0,1
327,327,0.457702509245996,0.5,1.0,1.0,437.0,751.0,0.0,0,1812.0,0
328,328,-0.8072347186335909,-0.8,0.0,1.0,448.0,672.0,0.0,1,1880.0,0
329,329,-0.7798052988408766,-0.8,1.0,0.0,289.0,725.0,0.0,0,1986.0,1
330,330,-0.26084633673461977,-0.3,1.0,0.0,368.0,613.0,0.0,0,2019.0,1
331,331,0.8735832659140504,0.9,1.0,1.0,314.0,806.0,0.0,0,-1110.0,0
332,332,-0.5189559209099341,-0.5,1.0,0.0,413.0,799.0,0.0,0,1788.0,1
333,333,-0.6210092097044746,-0.6,1.0,0.0,447.0,661.0,0.0,0,1892.0,1
334,334,0.5838236746138193,0.6,0.0,0.0,331.0,963.0,0.0,1,1706.0,1
335,335,0.3913056493351935,0.4,0.0,0.0,382.0,670.0,0.0,1,1948.0,1
336,336,0.6929522934614089,0.7,1.0,1.0,455.0,727.0,0.0,0,1818.0,0
337,337,0.29433406005023677,0.3,1.0,1.0,388.0,920.0,0.0,0,1692.0,0
338,338,-0.15525944539992464,-0.2,0.0,1.0,344.0,787.0,0.0,1,1869.0,0
339,339,0.3691962832976804,0.4,1.0,1.0,355.0,902.0,0.0,0,1743.0,0
340,340,-0.2694012240736757,-0.3,1.0,0.0,283.0,589.0,0.0,0,2128.0,1
341,341,0.8855344053090123,0.9,1.0,1.0,260.0,688.0,0.0,0,2052.0,0
342,342,-0.7821852350790536,-0.8,1.0,0.0,433.0,854.0,0.0,0,1713.0,1
343,343,0.7793481841162199,0.8,0.0,0.0,445.0,993.0,0.0,1,1562.0,1
344,344,0.2120900072301214,0.2,0.0,0.0,421.0,579.0,0.0,1,2000.0,1
345,345,-0.7450797269862137,-0.7,0.0,1.0,385.0,744.0,0.0,1,1871.0,0
346,346,0.5455629526687075,0.5,1.0,1.0,395.0,796.0,0.0,0,1809.0,0
347,347,-0.08229254934945551,-0.1,1.0,0.0,305.0,986.0,0.0,0,1709.0,1
348,348,0.5908275367341319,0.6,0.0,0.0,302.0,512.0,0.0,1,2186.0,1
349,349,-0.28213807095123355,-0.3,0.0,1.0,488.0,741.0,0.0,1,1771.0,0
350,350,0.21473849981408188,0.2,0.0,0.0,269.0,798.0,0.0,1,1933.0,1
351,351,0.17978928419266949,0.2,0.0,0.0,473.0,719.0,0.0,1,1808.0,1
352,352,0.8667577124684119,0.9,1.0,1.0,308.0,628.0,0.0,0,2064.0,0
353,353,-0.6556632231228499,-0.7,0.0,1.0,352.0,653.0,0.0,1,1995.0,0
354,354,0.42071832049826574,0.4,1.0,1.0,458.0,559.0,0.0,0,1983.0,0
355,355,-0.5941091724489862,-0.6,0.0,1.0,351.0,551.0,0.0,1,2098.0,0
356,356,-0.6795903810728317,-0.7,1.0,0.0,480.0,624.0,0.0,0,1896.0,1
357,357,0.19249589079825025,0.2,1.0,1.0,334.0,708.0,0.0,0,1958.0,0
358,358,-0.486608338785588,-0.5,1.0,0.0,445.0,765.0,0.0,0,1790.0,1
359,359,0.23419880740174215,0.2,0.0,0.0,375.0,548.0,0.0,1,2077.0,1
360,360,-0.31020204084273784,-0.3,1.0,0.0,465.0,553.0,0.0,0,1982.0,1
361,361,0.006004609796797067,0.0,1.0,1.0,307.0,811.0,0.0,0,1882.0,0
362,362,0.4028262330003799,0.4,1.0,1.0,455.0,621.0,0.0,0,-1026.0,0
363,363,0.4321284477104871,0.4,0.0,0.0,264.0,903.0,0.0,1,1833.0,1
364,364,-0.6323734052163028,-0.6,0.0,1.0,302.0,716.0,0.0,1,1982.0,0
365,365,0.5993773274978943,0.6,1.0,1.0,425.0,866.0,0.0,0,1709.0,0
366,366,0.7992988742662054,0.8,0.0,0.0,426.0,765.0,0.0,1,1809.0,1
367,367,0.5282641637065352,0.5,1.0,1.0,327.0,928.0,0.0,0,1745.0,0
368,368,0.6114463328476799,0.6,1.0,1.0,326.0,844.0,0.0,0,1830.0,0
369,369,-0.2072049096746198,-0.2,1.0,0.0,424.0,634.0,0.0,0,1942.0,1
370,370,0.6964698008148084,0.7,1.0,1.0,498.0,640.0,0.0,0,1862.0,0
371,371,-0.7142163656632764,-0.7,0.0,1.0,434.0,778.0,0.0,1,1788.0,0
372,372,0.5065606160502055,0.5,1.0,1.0,313.0,869.0,0.0,0,1818.0,0
373,373,-0.36004051868080933,-0.4,0.0,1.0,321.0,539.0,0.0,1,2140.0,0
374,374,-0.5311900982764024,-0.5,1.0,0.0,271.0,634.0,0.0,0,2095.0,1
375,375,0.257823681648348,0.3,0.0,0.0,260.0,928.0,0.0,1,1812.0,1
376,376,0.5812112581986643,0.6,1.0,1.0,471.0,603.0,0.0,0,1926.0,0
377,377,0.06875131403707369,0.1,1.0,1.0,326.0,669.0,0.0,0,2005.0,0
378,378,-0.3131699359754704,-0.3,0.0,1.0,347.0,940.0,0.0,1,1713.0,0
379,379,0.4496121343566498,0.4,0.0,0.0,446.0,594.0,0.0,1,1960.0,1
380,380,-0.8415997527858874,-0.8,1.0,0.0,476.0,763.0,0.0,0,1761.0,1
381,381,-0.5278914174623384,-0.5,1.0,0.0,401.0,719.0,0.0,0,1880.0,1
382,382,-0.4545039146047341,-0.5,0.0,1.0,383.0,644.0,0.0,1,1973.0,0
383,383,0.017094952545951947,0.0,1.0,1.0,316.0,838.0,0.0,0,1846.0,0
384,384,-0.750316194162182,-0.8,1.0,0.0,301.0,845.0,0.0,0,1854.0,1
385,385,-0.22943502843648167,-0.2,1.0,0.0,446.0,958.0,0.0,0,1596.0,1
386,386,-0.5465465021454079,-0.5,1.0,0.0,447.0,695.0,0.0,0,1858.0,1
387,387,-0.31215472036982583,-0.3,1.0,0.0,400.0,983.0,0.0,0,1617.0,1
388,388,-0.3504040925208496,-0.4,1.0,0.0,375.0,542.0,0.0,0,2083.0,1
389,389,0.878125888593874,0.9,0.0,0.0,423.0,817.0,0.0,1,1760.0,1
390,390,-0.4832511005630719,-0.5,0.0,1.0,332.0,992.0,0.0,1,1676.0,0
391,391,-0.37624578651912166,-0.4,1.0,0.0,324.0,533.0,0.0,0,2143.0,1
392,392,-0.8223105533936308,-0.8,0.0,1.0,400.0,923.0,0.0,1,1677.0,0
393,393,-0.3342508728232759,-0.3,1.0,0.0,334.0,733.0,0.0,0,1933.0,1
394,394,0.5190484362583644,0.5,1.0,1.0,444.0,953.0,0.0,0,1603.0,0
395,395,0.46786959492673164,0.5,1.0,1.0,347.0,844.0,0.0,0,1809.0,0
396,396,0.4781377357596438,0.5,0.0,0.0,267.0,615.0,0.0,1,2118.0,1
397,397,-0.5243584026207695,-0.5,1.0,0.0,408.0,538.0,0.0,0,2054.0,1
398,398,0.6181724845978974,0.6,1.0,1.0,298.0,932.0,0.0,0,1770.0,0
399,399,-0.7939101718608758,-0.8,0.0,1.0,337.0,763.0,0.0,1,1900.0,0
400,400,0.5749081764573728,0.6,0.0,0.0,258.0,601.0,0.0,1,2141.0,1
401,401,-0.6908176198964523,-0.7,0.0,1.0,493.0,873.0,0.0,1,1634.0,0
402,402,0.68401515922005,0.7,0.0,0.0,495.0,826.0,0.0,1,1679.0,1
403,403,-0.47592480906567824,-0.5,1.0,0.0,447.0,779.0,0.0,0,1774.0,1
404,404,0.7992232242033405,0.8,0.0,0.0,429.0,823.0,0.0,1,1748.0,1
405,405,-0.3958670195165317,-0.4,1.0,0.0,291.0,694.0,0.0,0,2015.0,1
406,406,-0.32639467048616433,-0.3,0.0,1.0,448.0,853.0,0.0,1,1699.0,0
407,407,0.6542867751755305,0.7,1.0,1.0,391.0,934.0,0.0,0,-1305.0,0
408,408,0.7396902498541197,0.7,1.0,1.0,260.0,891.0,0.0,0,1849.0,0
409,409,0.29433861543527085,0.3,0.0,0.0,436.0,694.0,1.0,0,-1120.0,0
410,410,-0.01069839113795179,-0.0,0.0,1.0,385.0,555.0,0.0,1,2060.0,0
411,411,0.5502991959318647,0.6,1.0,1.0,374.0,797.0,0.0,0,1829.0,0
412,412,0.35261372711115146,0.4,1.0,1.0,403.0,748.0,0.0,0,1849.0,0
413,413,-0.658550548124802,-0.7,0.0,1.0,370.0,786.0,0.0,1,1844.0,0
414,414,0.09257904790977012,0.1,1.0,1.0,383.0,993.0,0.0,0,1624.0,0
415,415,0.3899535230233656,0.4,0.0,0.0,326.0,630.0,1.0,0,-936.0,0
416,416,0.5861682509137792,0.6,1.0,1.0,352.0,621.0,0.0,0,2027.0,0
417,417,0.7311243751185771,0.7,1.0,1.0,325.0,924.0,0.0,0,1751.0,0
418,418,-0.5649299536266645,-0.6,1.0,0.0,329.0,687.0,0.0,0,1984.0,1
419,419,-0.42191653921867917,-0.4,0.0,1.0,424.0,897.0,0.0,1,1679.0,0
420,420,0.7862864313916517,0.8,1.0,1.0,401.0,639.0,0.0,0,1960.0,0
421,421,0.7734289435233289,0.8,0.0,0.0,307.0,980.0,0.0,1,1713.0,1
422,422,-0.89887233828832,-0.9,1.0,0.0,490.0,876.0,0.0,0,1634.0,1
423,423,-0.6948282074799125,-0.7,0.0,1.0,287.0,900.0,0.0,1,1813.0,0
424,424,-0.7766891432744785,-0.8,0.0,1.0,401.0,864.0,0.0,1,1735.0,0
425,425,0.6221530410774011,0.6,0.0,0.0,386.0,996.0,0.0,1,1618.0,1
426,426,-0.8174434559359773,-0.8,0.0,1.0,341.0,763.0,0.0,1,1896.0,0
427,427,0.7922990275514786,0.8,1.0,1.0,484.0,571.0,0.0,0,1945.0,0
428,428,-0.34194021311343425,-0.3,0.0,1.0,286.0,779.0,0.0,1,1935.0,0
429,429,0.7519599270663769,0.8,1.0,1.0,259.0,794.0,0.0,0,1947.0,0
430,430,-0.6832693668345042,-0.7,1.0,0.0,464.0,688.0,0.0,0,1848.0,1
431,431,-0.5065442165631486,-0.5,0.0,1.0,353.0,810.0,0.0,1,1837.0,0
432,432,-0.09564525624701326,-0.1,1.0,0.0,301.0,857.0,0.0,0,1842.0,1
433,433,0.6698350442184203,0.7,0.0,0.0,482.0,852.0,0.0,1,-1274.0,1
434,434,-0.8853455456362559,-0.9,0.0,1.0,392.0,630.0,1.0,0,-1012.0,1
435,435,0.39436073786286074,0.4,0.0,0.0,337.0,826.0,0.0,1,1837.0,1
436,436,0.8349809698314582,0.8,1.0,1.0,451.0,567.0,0.0,0,1982.0,0
437,437,-0.4386169466507176,-0.4,0.0,1.0,348.0,928.0,0.0,1,1724.0,0
438,438,0.3993425464605548,0.4,1.0,1.0,436.0,714.0,0.0,0,1850.0,0
439,439,-0.8577294863442837,-0.9,0.0,1.0,432.0,953.0,0.0,1,1615.0,0
440,440,0.1812194724190591,0.2,0.0,0.0,427.0,996.0,0.0,1,1577.0,1
441,441,-0.8514045897004898,-0.9,1.0,0.0,354.0,748.0,0.0,0,1898.0,1
442,442,0.21688104058336755,0.2,1.0,1.0,275.0,534.0,0.0,0,2191.0,0
443,443,-0.20261188494488835,-0.2,1.0,0.0,360.0,907.0,0.0,0,1733.0,1
444,444,0.8973789146632533,0.9,0.0,0.0,402.0,541.0,0.0,1,2057.0,1
445,445,-0.043723446741838146,-0.0,0.0,1.0,266.0,896.0,0.0,1,1838.0,0
446,446,-0.12745512157441297,-0.1,1.0,0.0,454.0,651.0,0.0,0,1895.0,1
447,447,0.5627931061866033,0.6,0.0,0.0,255.0,769.0,0.0,1,1976.0,1
448,448,-0.10860576386769816,-0.1,1.0,0.0,346.0,826.0,0.0,0,1828.0,1
449,449,0.2714217750976048,0.3,1.0,1.0,458.0,960.0,0.0,0,-1348.0,0
450,450,0.8226069861748581,0.8,0.0,0.0,289.0,957.0,0.0,1,1754.0,1
451,451,0.45650901257252474,0.5,0.0,0.0,496.0,986.0,0.0,1,1518.0,1
452,452,0.18375631091765887,0.2,1.0,1.0,378.0,633.0,0.0,0,1989.0,0
453,453,-0.5241976818699352,-0.5,0.0,1.0,492.0,633.0,0.0,1,1875.0,0
454,454,0.6033800099281762,0.6,0.0,0.0,453.0,793.0,0.0,1,1754.0,1
455,455,-0.27382608007706166,-0.3,0.0,1.0,421.0,734.0,0.0,1,1845.0,0
456,456,-0.3500155095252231,-0.4,0.0,1.0,344.0,776.0,0.0,1,1880.0,0
457,457,0.5733338562822209,0.6,1.0,1.0,433.0,958.0,0.0,0,1609.0,0
458,458,-0.827596387701555,-0.8,1.0,0.0,446.0,756.0,0.0,0,1798.0,1
459,459,0.19615938094314622,0.2,0.0,0.0,258.0,737.0,0.0,1,2005.0,1
460,460,0.120902984157787,0.1,0.0,0.0,370.0,651.0,0.0,1,1979.0,1
461,461,0.5862245975494585,0.6,0.0,0.0,487.0,904.0,0.0,1,1609.0,1
462,462,-0.4598698327632201,-0.5,0.0,1.0,334.0,645.0,0.0,1,2021.0,0
463,463,-0.08684149600519708,-0.1,1.0,0.0,275.0,591.0,0.0,0,2134.0,1
464,464,0.589951473951908,0.6,1.0,1.0,498.0,572.0,0.0,0,1930.0,0
465,465,0.3639519062058555,0.4,0.0,0.0,360.0,502.0,0.0,1,2138.0,1
466,466,-0.2741185763556764,-0.3,1.0,0.0,253.0,712.0,0.0,0,2035.0,1
467,467,-0.8482159010838013,-0.8,1.0,0.0,479.0,979.0,0.0,0,1542.0,1
468,468,0.40357003051736473,0.4,0.0,0.0,372.0,613.0,0.0,1,2015.0,1
469,469,0.7477754657326657,0.7,0.0,0.0,375.0,979.0,0.0,1,1646.0,1
470,470,0.3252096265490526,0.3,1.0,1.0,482.0,970.0,0.0,0,1548.0,0
471,471,0.3239850313981326,0.3,1.0,1.0,450.0,833.0,0.0,0,1717.0,0
472,472,0.5768880704717533,0.6,0.0,0.0,352.0,524.0,0.0,1,2124.0,1
473,473,-0.32809495703529756,-0.3,1.0,0.0,286.0,955.0,0.0,0,1759.0,1
474,474,0.26690167860115943,0.3,1.0,1.0,395.0,899.0,0.0,0,1706.0,0
475,475,-0.7681027068252867,-0.8,1.0,0.0,279.0,718.0,0.0,0,2003.0,1
476,476,-0.052615558122052764,-0.1,0.0,1.0,254.0,940.0,0.0,1,-1174.0,0
477,477,0.09042567428851944,0.1,1.0,1.0,283.0,769.0,0.0,0,1948.0,0
478,478,-0.5687311373669355,-0.6,1.0,0.0,443.0,605.0,0.0,0,1952.0,1
479,479,0.8144359114791498,0.8,0.0,0.0,461.0,848.0,0.0,1,1691.0,1
480,480,0.6654299557910884,0.7,1.0,1.0,406.0,824.0,0.0,0,1770.0,0
481,481,-0.24562550841881947,-0.2,1.0,0.0,472.0,883.0,0.0,0,1645.0,1
482,482,0.6927390491775279,0.7,0.0,0.0,495.0,504.0,0.0,1,2001.0,1
483,483,-0.3026295105502649,-0.3,1.0,0.0,331.0,960.0,0.0,0,1709.0,1
484,484,-0.7350221593163355,-0.7,1.0,0.0,379.0,873.0,0.0,0,1748.0,1
485,485,-0.2698952048223806,-0.3,1.0,0.0,387.0,905.0,0.0,0,1708.0,1
486,486,0.5312521277032537,0.5,1.0,1.0,332.0,739.0,0.0,0,1929.0,0
487,487,0.7417263368007515,0.7,0.0,0.0,255.0,604.0,0.0,1,2141.0,1
488,488,-0.6529773961155627,-0.7,1.0,0.0,354.0,540.0,0.0,0,2106.0,1
489,489,-0.04235040325428585,-0.0,1.0,0.0,316.0,796.0,1.0,1,-982.0,0
490,490,-0.3056376606020498,-0.3,1.0,0.0,343.0,626.0,0.0,0,2031.0,1
491,491,-0.36134667057346326,-0.4,0.0,1.0,369.0,518.0,0.0,1,2113.0,0
492,492,-0.8354321390647652,-0.8,0.0,1.0,478.0,783.0,0.0,1,1739.0,0
493,493,0.42900018633276804,0.4,1.0,1.0,286.0,822.0,0.0,0,1892.0,0
494,494,-0.17135577250406275,-0.2,0.0,1.0,405.0,958.0,0.0,1,1637.0,0
495,495,-0.3055131918868521,-0.3,1.0,0.0,329.0,946.0,0.0,0,1725.0,1
496,496,-0.8659970706240335,-0.9,1.0,0.0,264.0,980.0,0.0,0,1756.0,1
497,497,-0.24842878565035675,-0.2,0.0,1.0,455.0,704.0,0.0,1,1841.0,0
498,498,-0.15041451480528878,-0.2,0.0,1.0,499.0,768.0,0.0,1,-1217.0,0
499,499,-0.3038813723075495,-0.3,0.0,1.0,482.0,878.0,0.0,1,1640.0,0
500,500,0.38034505878904723,0.4,0.0,0.0,467.0,861.0,0.0,1,1672.0,1
501,501,-0.805526279426235,-0.8,1.0,0.0,477.0,994.0,1.0,1,-1461.0,0
502,502,0.5995039392337508,0.6,1.0,1.0,404.0,584.0,0.0,0,2012.0,0
503,503,-0.7236223321802553,-0.7,0.0,1.0,424.0,766.0,0.0,1,1810.0,0
504,504,-0.17569810552769094,-0.2,0.0,1.0,300.0,552.0,0.0,1,2148.0,0
505,505,-0.5369004790172011,-0.5,0.0,1.0,332.0,665.0,0.0,1,2003.0,0
506,506,-0.7464673054890966,-0.7,0.0,1.0,460.0,931.0,0.0,1,1609.0,0
507,507,0.7559113080698278,0.8,1.0,1.0,261.0,629.0,0.0,0,2110.0,0
508,508,-0.5589110358871783,-0.6,1.0,0.0,267.0,941.0,0.0,0,1792.0,1
509,509,0.35068933090774823,0.4,1.0,1.0,392.0,972.0,0.0,0,1636.0,0
510,510,0.14606499647300641,0.1,1.0,1.0,481.0,532.0,0.0,0,1987.0,0
511,511,0.21392718432970248,0.2,0.0,0.0,293.0,746.0,0.0,1,1961.0,1
512,512,-0.19716577167398242,-0.2,0.0,1.0,398.0,738.0,0.0,1,1864.0,0
513,513,-0.7529860072742167,-0.8,0.0,1.0,485.0,945.0,0.0,1,1570.0,0
514,514,-0.784983435653556,-0.8,0.0,1.0,384.0,968.0,0.0,1,1648.0,0
515,515,0.27879489819907965,0.3,1.0,1.0,348.0,778.0,0.0,0,1874.0,0
516,516,-0.516259678606094,-0.5,0.0,1.0,329.0,829.0,0.0,1,1842.0,0
517,517,0.8731653429292042,0.9,1.0,1.0,303.0,944.0,0.0,0,1753.0,0
518,518,0.4621257569783478,0.5,0.0,0.0,491.0,810.0,0.0,1,1699.0,1
519,519,0.783028034930276,0.8,0.0,0.0,427.0,555.0,0.0,1,2018.0,1
520,520,-0.15262476244248024,-0.2,1.0,0.0,288.0,967.0,0.0,0,1745.0,1
521,521,-0.3640333687453756,-0.4,0.0,1.0,358.0,616.0,0.0,1,2026.0,0
522,522,-0.7950096602741528,-0.8,1.0,0.0,363.0,959.0,0.0,0,1678.0,1
523,523,-0.35580466280481904,-0.4,1.0,0.0,410.0,976.0,0.0,0,1614.0,1
524,524,0.7749045401646207,0.8,0.0,0.0,335.0,941.0,1.0,0,-1106.0,0
525,525,0.7842683180928817,0.8,1.0,1.0,380.0,738.0,0.0,0,1882.0,0
526,526,-0.3749436362208689,-0.4,0.0,1.0,345.0,512.0,0.0,1,2143.0,0
527,527,0.27671964006573935,0.3,1.0,1.0,271.0,513.0,0.0,0,2216.0,0
528,528,0.04019726634843224,0.0,0.0,0.0,274.0,558.0,0.0,1,2168.0,1
529,529,0.7135532802802173,0.7,1.0,1.0,352.0,646.0,0.0,0,2002.0,0
530,530,0.20309288581105556,0.2,1.0,1.0,301.0,502.0,0.0,0,2197.0,0
531,531,0.8378993426359939,0.8,0.0,0.0,398.0,922.0,0.0,1,1680.0,1
532,532,0.12339177722492922,0.1,0.0,0.0,307.0,802.0,0.0,1,1891.0,1
533,533,0.4134379502281792,0.4,0.0,0.0,325.0,924.0,0.0,1,1751.0,1
534,534,-0.6852615891512984,-0.7,1.0,0.0,466.0,693.0,0.0,0,1841.0,1
535,535,0.5194107709291561,0.5,0.0,0.0,377.0,933.0,0.0,1,1690.0,1
536,536,-0.3232082388260924,-0.3,1.0,0.0,405.0,656.0,0.0,0,1939.0,1
537,537,0.6029698954665156,0.6,0.0,0.0,265.0,774.0,0.0,1,1961.0,1
538,538,-0.3876333904550562,-0.4,0.0,1.0,447.0,618.0,0.0,1,1935.0,0
539,539,-0.14849534006078657,-0.1,1.0,0.0,297.0,530.0,0.0,0,2173.0,1
540,540,0.10212894744509093,0.1,1.0,1.0,469.0,854.0,0.0,0,1677.0,0
541,541,-0.8679660093066405,-0.9,1.0,0.0,419.0,844.0,0.0,0,-1183.0,1
542,542,-0.041730445120875315,-0.0,1.0,0.0,338.0,754.0,0.0,0,1908.0,1
543,543,0.616827248285935,0.6,0.0,0.0,471.0,982.0,0.0,1,1547.0,1
544,544,0.2962095134803656,0.3,1.0,1.0,409.0,716.0,0.0,0,1875.0,0
545,545,0.8353742273677135,0.8,1.0,1.0,407.0,616.0,0.0,0,1977.0,0
546,546,-0.27622031582252593,-0.3,1.0,0.0,303.0,713.0,0.0,0,1984.0,1
547,547,-0.8887228333031677,-0.9,1.0,0.0,430.0,847.0,0.0,0,1723.0,1
548,548,0.5761117621276489,0.6,0.0,0.0,490.0,729.0,0.0,1,1781.0,1
549,549,-0.0253772033546823,-0.0,0.0,1.0,453.0,589.0,0.0,1,1958.0,0
550,550,-0.4002530383136835,-0.4,0.0,1.0,434.0,903.0,0.0,1,1663.0,0
551,551,-0.38044863849418076,-0.4,1.0,0.0,302.0,632.0,0.0,0,2066.0,1
552,552,0.4416505734760544,0.4,1.0,1.0,417.0,620.0,0.0,0,1963.0,0
553,553,0.41969645993046123,0.4,0.0,0.0,418.0,726.0,1.0,0,-1104.0,0
554,554,0.39823688192484996,0.4,1.0,1.0,369.0,634.0,0.0,0,1997.0,0
555,555,-0.20104754050342355,-0.2,0.0,1.0,472.0,933.0,0.0,1,1595.0,0
556,556,0.8970336763434689,0.9,1.0,1.0,310.0,972.0,0.0,0,1718.0,0
557,557,-0.34016524808742066,-0.3,0.0,1.0,400.0,596.0,0.0,1,2004.0,0
558,558,-0.7499674578446693,-0.7,1.0,0.0,306.0,972.0,0.0,0,1722.0,1
559,559,-0.4408226814654639,-0.4,0.0,1.0,373.0,836.0,0.0,1,1791.0,0
560,560,-0.5512642967189283,-0.6,1.0,0.0,452.0,823.0,0.0,0,1725.0,1
561,561,0.37510102166321146,0.4,1.0,1.0,362.0,658.0,0.0,0,1980.0,0
562,562,0.7268100057836205,0.7,1.0,1.0,361.0,992.0,0.0,0,1647.0,0
563,563,0.7939898942545675,0.8,1.0,1.0,463.0,686.0,0.0,0,1851.0,0
564,564,0.20092292131679612,0.2,1.0,1.0,299.0,968.0,0.0,0,1733.0,0
565,565,-0.5484509008428327,-0.5,1.0,0.0,487.0,639.0,0.0,0,1874.0,1
566,566,0.7023296086192586,0.7,1.0,1.0,354.0,620.0,0.0,0,2026.0,0
567,567,-0.11556498277710636,-0.1,0.0,1.0,460.0,946.0,0.0,1,1594.0,0
568,568,0.35418722118683565,0.4,0.0,0.0,496.0,580.0,0.0,1,1924.0,1
569,569,0.2999772558367587,0.3,1.0,1.0,486.0,863.0,0.0,0,1651.0,0
570,570,0.6509802076179289,0.7,0.0,0.0,354.0,705.0,0.0,1,1941.0,1
571,571,0.6478928717430376,0.6,1.0,1.0,268.0,863.0,0.0,0,1869.0,0
572,572,0.170953549763177,0.2,1.0,1.0,447.0,827.0,0.0,0,1726.0,0
573,573,-0.26159796512825184,-0.3,0.0,1.0,364.0,758.0,1.0,0,-1082.0,1
574,574,-0.6442954938215609,-0.6,1.0,0.0,290.0,908.0,1.0,1,-1148.0,0
575,575,-0.47247172264653553,-0.5,0.0,1.0,366.0,563.0,0.0,1,2071.0,0
576,576,0.4161697351138428,0.4,0.0,0.0,449.0,916.0,1.0,0,-1335.0,0
577,577,0.5866903155896569,0.6,0.0,0.0,490.0,960.0,0.0,1,1550.0,1
578,578,0.03566227111468068,0.0,0.0,0.0,498.0,614.0,0.0,1,1888.0,1
579,579,0.8489198849154421,0.8,1.0,1.0,412.0,887.0,0.0,0,1701.0,0
580,580,-0.15539710197083245,-0.2,1.0,0.0,328.0,641.0,0.0,0,2031.0,1
581,581,0.0936864157719085,0.1,0.0,0.0,359.0,731.0,0.0,1,1910.0,1
582,582,0.5820890921905578,0.6,0.0,0.0,412.0,632.0,0.0,1,1956.0,1
583,583,0.2496883029038076,0.2,0.0,0.0,308.0,638.0,0.0,1,2054.0,1
584,584,0.05910407181832855,0.1,1.0,1.0,328.0,799.0,0.0,0,1873.0,0
585,585,0.5132827450057703,0.5,1.0,1.0,437.0,638.0,1.0,1,-775.0,1
586,586,-0.8238078690544257,-0.8,1.0,0.0,449.0,550.0,0.0,0,2001.0,1
587,587,0.24715750451234275,0.2,1.0,1.0,361.0,942.0,0.0,0,1697.0,0
588,588,0.09885766705849341,0.1,1.0,1.0,383.0,877.0,0.0,0,1740.0,0
589,589,-0.8133655509473505,-0.8,0.0,1.0,397.0,548.0,0.0,1,2055.0,0
590,590,-0.5768374603598011,-0.6,1.0,0.0,401.0,917.0,0.0,0,1682.0,1
591,591,0.023860819087966112,0.0,1.0,1.0,364.0,851.0,0.0,0,1785.0,0
592,592,-0.10017222729292408,-0.1,1.0,0.0,290.0,584.0,0.0,0,2126.0,1
593,593,0.5900843461984814,0.6,0.0,0.0,344.0,701.0,0.0,1,1955.0,1
594,594,0.11910743377116029,0.1,1.0,1.0,493.0,852.0,0.0,0,1655.0,0
595,595,-0.598838257960536,-0.6,0.0,1.0,320.0,502.0,0.0,1,2178.0,0
596,596,-0.43922427609680076,-0.4,0.0,1.0,364.0,825.0,0.0,1,1811.0,0
597,597,-0.5999685120532834,-0.6,0.0,1.0,328.0,982.0,0.0,1,1690.0,0
598,598,-0.1641259339601553,-0.2,1.0,0.0,368.0,885.0,0.0,0,1747.0,1
599,599,0.3907180841942094,0.4,1.0,1.0,309.0,592.0,0.0,0,2099.0,0
600,600,-0.7994866897028904,-0.8,1.0,0.0,383.0,661.0,0.0,0,1956.0,1
601,601,0.5042554811754333,0.5,0.0,0.0,413.0,516.0,0.0,1,2071.0,1
602,602,0.5508569562821036,0.6,1.0,1.0,330.0,554.0,0.0,0,2116.0,0
603,603,-0.8769865185121127,-0.9,1.0,0.0,325.0,578.0,0.0,0,2097.0,1
604,604,0.5548882641659759,0.6,1.0,1.0,432.0,629.0,0.0,0,1939.0,0
605,605,-0.8176882062060535,-0.8,1.0,0.0,403.0,835.0,0.0,0,1762.0,1
606,606,-0.43669513032741364,-0.4,1.0,0.0,435.0,776.0,0.0,0,1789.0,1
607,607,0.24610581368213003,0.2,0.0,0.0,303.0,506.0,0.0,1,2191.0,1
608,608,0.0803904138077789,0.1,1.0,1.0,363.0,592.0,0.0,0,2045.0,0
609,609,-0.8752922122865282,-0.9,0.0,1.0,441.0,537.0,0.0,1,2022.0,0
610,610,0.23611698928128544,0.2,0.0,0.0,466.0,658.0,0.0,1,1876.0,1
611,611,-0.8598449377120094,-0.9,0.0,1.0,497.0,835.0,0.0,1,1668.0,0
612,612,0.6072938204570796,0.6,1.0,1.0,256.0,721.0,0.0,0,2023.0,0
613,613,-0.18475198584134866,-0.2,0.0,1.0,298.0,651.0,0.0,1,2051.0,0
614,614,-0.5625528400138234,-0.6,1.0,0.0,270.0,772.0,0.0,0,1958.0,1
615,615,-0.09239529790580336,-0.1,0.0,1.0,459.0,570.0,0.0,1,1971.0,0
616,616,-0.21909044780155007,-0.2,1.0,0.0,339.0,560.0,0.0,0,2101.0,1
617,617,-0.5587558515761366,-0.6,1.0,0.0,355.0,832.0,0.0,0,1813.0,1
618,618,0.5393717255486078,0.5,1.0,1.0,476.0,717.0,0.0,0,1807.0,0
619,619,0.7928205208575231,0.8,0.0,0.0,493.0,958.0,0.0,1,1549.0,1
620,620,0.45469626280021014,0.5,0.0,0.0,270.0,622.0,1.0,0,-792.0,0
621,621,-0.21799169119863893,-0.2,1.0,0.0,457.0,754.0,0.0,0,1789.0,1
622,622,0.8966905947822453,0.9,1.0,1.0,313.0,692.0,0.0,0,1995.0,0
623,623,-0.299331918159924,-0.3,0.0,1.0,303.0,864.0,0.0,1,1833.0,0
624,624,0.8768709036320624,0.9,1.0,1.0,423.0,646.0,0.0,0,1931.0,0
625,625,-0.5006971895783718,-0.5,0.0,1.0,417.0,866.0,0.0,1,1717.0,0
626,626,-0.2729379012932729,-0.3,0.0,1.0,387.0,598.0,0.0,1,2015.0,0
627,627,0.03815617742901167,0.0,0.0,0.0,433.0,504.0,0.0,1,-927.0,1
628,628,-0.8171095575435126,-0.8,1.0,0.0,370.0,682.0,0.0,0,1948.0,1
629,629,0.1270689116622833,0.1,0.0,0.0,384.0,769.0,0.0,1,1847.0,1
630,630,-0.7961353607323888,-0.8,0.0,1.0,460.0,855.0,0.0,1,-1315.0,0
631,631,0.7296501579846525,0.7,0.0,0.0,458.0,784.0,0.0,1,1758.0,1
632,632,-0.7969023940614287,-0.8,0.0,1.0,453.0,608.0,0.0,1,1939.0,0
633,633,-0.34790258953864606,-0.3,1.0,0.0,457.0,721.0,0.0,0,1822.0,1
634,634,-0.48382274854639123,-0.5,1.0,0.0,438.0,549.0,0.0,0,2013.0,1
635,635,0.8286553478870374,0.8,0.0,0.0,491.0,799.0,0.0,1,1710.0,1
636,636,-0.12425649035662778,-0.1,0.0,1.0,352.0,910.0,0.0,1,1738.0,0
637,637,-0.0765182258742072,-0.1,0.0,1.0,490.0,944.0,0.0,1,1566.0,0
638,638,-0.2211942113963541,-0.2,1.0,0.0,367.0,901.0,0.0,0,1732.0,1
639,639,0.08850605602394257,0.1,1.0,1.0,406.0,742.0,0.0,0,1852.0,0
640,640,0.39275168250197423,0.4,1.0,1.0,297.0,864.0,0.0,0,1839.0,0
641,641,-0.7351995294380783,-0.7,0.0,1.0,313.0,674.0,0.0,1,2013.0,0
642,642,-0.5371634202100315,-0.5,1.0,0.0,435.0,617.0,0.0,0,1948.0,1
643,643,0.13232503020249575,0.1,1.0,1.0,317.0,922.0,0.0,0,1761.0,0
644,644,-0.4599872462912295,-0.5,0.0,1.0,347.0,728.0,0.0,1,1925.0,0
645,645,0.270200167634293,0.3,1.0,1.0,297.0,516.0,0.0,0,2187.0,0
646,646,0.6129189831898928,0.6,1.0,1.0,341.0,978.0,0.0,0,1681.0,0
647,647,0.7916408678056311,0.8,0.0,0.0,463.0,827.0,0.0,1,1710.0,1
648,648,-0.4800935412710743,-0.5,1.0,0.0,476.0,839.0,0.0,0,1685.0,1
649,649,-0.7132833587078227,-0.7,1.0,0.0,252.0,797.0,0.0,0,1951.0,1
650,650,-0.31296439801261877,-0.3,1.0,0.0,287.0,800.0,0.0,0,1913.0,1
651,651,-0.7538015397935923,-0.8,0.0,1.0,468.0,658.0,0.0,1,1874.0,0
652,652,-0.6286046589527632,-0.6,0.0,1.0,317.0,954.0,0.0,1,1729.0,0
653,653,-0.8285937108603261,-0.8,1.0,0.0,467.0,762.0,0.0,0,-1159.0,1
654,654,0.8904348195625517,0.9,1.0,1.0,297.0,872.0,0.0,0,1831.0,0
655,655,-0.3402017973831396,-0.3,0.0,1.0,405.0,807.0,0.0,1,1788.0,0
656,656,-0.4684039220748965,-0.5,0.0,1.0,257.0,507.0,0.0,1,2236.0,0
657,657,0.7341915633155193,0.7,0.0,0.0,304.0,855.0,0.0,1,1841.0,1
658,658,-0.8140654498842802,-0.8,0.0,1.0,277.0,535.0,0.0,1,2188.0,0
659,659,0.23085654548068002,0.2,0.0,0.0,306.0,717.0,0.0,1,1977.0,1
660,660,-0.006452225926299016,-0.0,1.0,0.0,381.0,551.0,0.0,0,2068.0,1
661,661,-0.8584047101628566,-0.9,0.0,1.0,464.0,597.0,0.0,1,1939.0,0
662,662,0.2531681639453883,0.3,0.0,0.0,331.0,537.0,0.0,1,2132.0,1
663,663,-0.5368461048727216,-0.5,1.0,0.0,301.0,674.0,0.0,0,-975.0,1
664,664,-0.5446153545400978,-0.5,1.0,0.0,388.0,940.0,0.0,0,1672.0,1
665,665,0.4416368779942016,0.4,0.0,0.0,373.0,903.0,0.0,1,1724.0,1
666,666,0.2980467205030223,0.3,0.0,0.0,475.0,899.0,0.0,1,1626.0,1
667,667,0.45506740514696753,0.5,0.0,0.0,388.0,837.0,0.0,1,1775.0,1
668,668,0.31742346780563346,0.3,1.0,1.0,406.0,978.0,0.0,0,1616.0,0
669,669,0.6216841394115039,0.6,0.0,0.0,255.0,784.0,0.0,1,1961.0,1
670,670,0.5895672457524256,0.6,0.0,0.0,447.0,556.0,0.0,1,1997.0,1
671,671,-0.6606739768559117,-0.7,1.0,0.0,445.0,777.0,0.0,0,1778.0,1
672,672,0.04414368908627786,0.0,1.0,1.0,371.0,544.0,0.0,0,2085.0,0
673,673,0.8076839147515288,0.8,0.0,0.0,442.0,574.0,0.0,1,1984.0,1
674,674,0.3629274207758292,0.4,1.0,1.0,443.0,994.0,0.0,0,1563.0,0
675,675,0.7833086176877831,0.8,1.0,1.0,370.0,824.0,0.0,0,1806.0,0
676,676,-0.031939112899321054,-0.0,0.0,1.0,474.0,867.0,0.0,1,1659.0,0
677,677,0.6833570475968157,0.7,1.0,1.0,360.0,771.0,0.0,0,1869.0,0
678,678,0.8213648632393794,0.8,0.0,0.0,439.0,543.0,0.0,1,-912.0,1
679,679,-0.7308104319611561,-0.7,1.0,0.0,490.0,560.0,0.0,0,1950.0,1
680,680,-0.07115045910689077,-0.1,0.0,1.0,354.0,976.0,0.0,1,1670.0,0
681,681,0.015251789607256816,0.0,0.0,0.0,274.0,871.0,1.0,0,-1065.0,0
682,682,-0.3059717059293129,-0.3,1.0,0.0,438.0,624.0,0.0,0,1938.0,1
683,683,-0.4640870904267185,-0.5,0.0,1.0,451.0,874.0,0.0,1,1675.0,0
684,684,-0.04787043734000307,-0.0,0.0,1.0,317.0,910.0,0.0,1,1773.0,0
685,685,0.8735312297114829,0.9,1.0,1.0,304.0,770.0,0.0,0,1926.0,0
686,686,-0.5302712840371782,-0.5,0.0,1.0,292.0,987.0,0.0,1,1721.0,0
687,687,0.1744216703506566,0.2,1.0,1.0,323.0,632.0,0.0,0,2045.0,0
688,688,0.7343720400908859,0.7,1.0,1.0,394.0,881.0,0.0,0,1725.0,0
689,689,-0.6696384805886761,-0.7,1.0,0.0,440.0,633.0,0.0,0,1927.0,1
690,690,-0.0019101309673217326,-0.0,1.0,0.0,259.0,940.0,0.0,0,1801.0,1
691,691,0.3166676325638561,0.3,1.0,1.0,332.0,901.0,0.0,0,1767.0,0
692,692,-0.7075289874786111,-0.7,1.0,0.0,417.0,619.0,0.0,0,1964.0,1
693,693,-0.2887425520991985,-0.3,1.0,0.0,293.0,703.0,0.0,0,2004.0,1
694,694,0.5067516215904878,0.5,0.0,0.0,349.0,650.0,0.0,1,2001.0,1
695,695,-0.7935696299655186,-0.8,0.0,1.0,401.0,593.0,0.0,1,2006.0,0
696,696,0.6996056446601334,0.7,0.0,0.0,377.0,543.0,0.0,1,2080.0,1
697,697,0.8317088347176312,0.8,1.0,1.0,322.0,734.0,0.0,0,1944.0,0
698,698,-0.09937761685706659,-0.1,1.0,0.0,328.0,550.0,0.0,0,2122.0,1
699,699,-0.6363554691388826,-0.6,1.0,0.0,467.0,686.0,0.0,0,1847.0,1
700,700,0.34095431823438005,0.3,1.0,1.0,269.0,514.0,0.0,0,2217.0,0
701,701,0.5837628155226878,0.6,0.0,0.0,473.0,836.0,0.0,1,1691.0,1
702,702,0.5685184430225013,0.6,0.0,0.0,325.0,870.0,0.0,1,1805.0,1
703,703,-0.28480678803176895,-0.3,1.0,0.0,275.0,645.0,0.0,0,2080.0,1
704,704,-0.33257392060782265,-0.3,0.0,1.0,339.0,577.0,0.0,1,2084.0,0
705,705,-0.3465921071196487,-0.3,1.0,0.0,432.0,877.0,0.0,0,1691.0,1
706,706,0.7480517240312924,0.7,0.0,0.0,341.0,813.0,1.0,0,-1114.0,0
707,707,-0.3044272762189927,-0.3,1.0,0.0,471.0,588.0,0.0,0,1941.0,1
708,708,0.20525663921235127,0.2,0.0,0.0,406.0,643.0,0.0,1,1951.0,1
709,709,0.5665108862064757,0.6,0.0,0.0,419.0,558.0,0.0,1,2023.0,1
710,710,0.34170998238576267,0.3,0.0,0.0,351.0,801.0,0.0,1,1848.0,1
711,711,-0.3625390998897956,-0.4,1.0,0.0,337.0,698.0,0.0,0,1965.0,1
712,712,0.5172507274824362,0.5,1.0,1.0,391.0,747.0,0.0,0,1862.0,0
713,713,-0.19943082698853276,-0.2,1.0,0.0,361.0,966.0,0.0,0,1673.0,1
714,714,-0.23769378137943242,-0.2,1.0,0.0,441.0,717.0,0.0,0,1842.0,1
715,715,0.8953778575439507,0.9,0.0,0.0,251.0,964.0,0.0,1,1785.0,1
716,716,-0.5063277930729286,-0.5,1.0,0.0,254.0,573.0,0.0,0,2173.0,1
717,717,-0.17647700017170376,-0.2,0.0,1.0,468.0,764.0,0.0,1,1768.0,0
718,718,0.02030392383136237,0.0,1.0,1.0,452.0,836.0,0.0,0,1712.0,0
719,719,0.47993248905303953,0.5,1.0,1.0,304.0,909.0,0.0,0,1787.0,0
720,720,-0.7108586973820284,-0.7,1.0,0.0,411.0,822.0,0.0,0,-1233.0,1
721,721,-0.8238463369815716,-0.8,1.0,0.0,461.0,845.0,0.0,0,1694.0,1
722,722,0.5559681752162952,0.6,0.0,0.0,429.0,537.0,0.0,1,2034.0,1
723,723,0.7555244950344183,0.8,0.0,0.0,357.0,875.0,0.0,1,1768.0,1
724,724,0.20072554754140992,0.2,1.0,1.0,321.0,991.0,0.0,0,1688.0,0
725,725,0.6277866897428616,0.6,1.0,1.0,400.0,799.0,0.0,0,1801.0,0
726,726,-0.6429517277307679,-0.6,0.0,1.0,407.0,633.0,0.0,1,1960.0,0
727,727,-0.4175294693817198,-0.4,1.0,0.0,392.0,937.0,0.0,0,1671.0,1
728,728,0.6376303855375466,0.6,0.0,0.0,479.0,825.0,0.0,1,1696.0,1
729,729,0.6620088721417959,0.7,1.0,1.0,308.0,958.0,0.0,0,1734.0,0
730,730,-0.232765879239204,-0.2,0.0,1.0,301.0,950.0,0.0,1,1749.0,0
731,731,-0.5331717341503108,-0.5,1.0,0.0,333.0,885.0,0.0,0,1782.0,1
732,732,0.737226656888725,0.7,0.0,0.0,280.0,854.0,0.0,1,1866.0,1
733,733,0.5864202977341878,0.6,0.0,0.0,270.0,664.0,0.0,1,2066.0,1
734,734,0.6710425565981349,0.7,0.0,0.0,429.0,548.0,0.0,1,2023.0,1
735,735,0.3400176692398945,0.3,1.0,1.0,424.0,586.0,1.0,1,-960.0,1
736,736,-0.4815506851483973,-0.5,1.0,0.0,464.0,849.0,0.0,0,1687.0,1
737,737,-0.7502212635906224,-0.8,1.0,0.0,473.0,957.0,0.0,0,1570.0,1
738,738,-0.2815327771502396,-0.3,0.0,1.0,271.0,728.0,1.0,0,-979.0,1
739,739,0.36113599772023053,0.4,0.0,0.0,475.0,716.0,0.0,1,1809.0,1
740,740,0.09330818078078307,0.1,1.0,1.0,456.0,774.0,0.0,0,1770.0,0
741,741,0.6758601362112938,0.7,1.0,1.0,486.0,957.0,0.0,0,1557.0,0
742,742,-0.4673503160505631,-0.5,1.0,0.0,398.0,988.0,0.0,0,1614.0,1
743,743,-0.7468847057357627,-0.7,1.0,0.0,341.0,518.0,0.0,0,2141.0,1
744,744,0.466647644587867,0.5,1.0,1.0,448.0,588.0,0.0,0,1964.0,0
745,745,0.8508690988391762,0.9,1.0,1.0,353.0,911.0,0.0,0,1736.0,0
746,746,-0.11971393176018452,-0.1,0.0,1.0,447.0,979.0,0.0,1,-1426.0,0
747,747,-0.4733151906338204,-0.5,0.0,1.0,440.0,968.0,0.0,1,1592.0,0
748,748,-0.030451515600253942,-0.0,0.0,1.0,332.0,854.0,0.0,1,1814.0,0
749,749,-0.8382230170703755,-0.8,0.0,1.0,328.0,856.0,0.0,1,1816.0,0
750,750,-0.15950083296314577,-0.2,1.0,0.0,472.0,738.0,0.0,0,1790.0,1
751,751,-0.4745259837530396,-0.5,1.0,0.0,388.0,637.0,0.0,0,1975.0,1
752,752,0.8787178466455906,0.9,0.0,0.0,499.0,944.0,0.0,1,1557.0,1
753,753,-0.7566129565787163,-0.8,1.0,0.0,332.0,543.0,0.0,0,2125.0,1
754,754,-0.4776481927288412,-0.5,1.0,0.0,265.0,860.0,0.0,0,1875.0,1
755,755,0.7414446531841593,0.7,0.0,0.0,299.0,899.0,0.0,1,1802.0,1
756,756,-0.22104148812819568,-0.2,0.0,1.0,352.0,682.0,0.0,1,1966.0,0
757,757,0.053689838665788026,0.1,1.0,1.0,443.0,640.0,0.0,0,1917.0,0
758,758,0.28620647542764466,0.3,0.0,0.0,403.0,551.0,0.0,1,2046.0,1
759,759,0.5067527021902559,0.5,1.0,1.0,278.0,992.0,0.0,0,1730.0,0
760,760,0.5871026504823603,0.6,1.0,1.0,255.0,732.0,0.0,0,2013.0,0
761,761,-0.2239671058210102,-0.2,1.0,0.0,435.0,855.0,0.0,0,1710.0,1
762,762,-0.5787471871279535,-0.6,0.0,1.0,438.0,847.0,0.0,1,1715.0,0
763,763,-0.19876364902526555,-0.2,0.0,1.0,438.0,666.0,0.0,1,1896.0,0
764,764,-0.32232900827848987,-0.3,0.0,1.0,398.0,631.0,0.0,1,1971.0,0
765,765,-0.6328530796741159,-0.6,0.0,1.0,380.0,930.0,1.0,0,-1290.0,1
766,766,0.14807688596317659,0.1,1.0,1.0,458.0,575.0,0.0,0,1967.0,0
767,767,0.0840475783710215,0.1,1.0,1.0,468.0,999.0,0.0,0,1533.0,0
768,768,-0.2038239529189737,-0.2,0.0,1.0,346.0,524.0,0.0,1,2130.0,0
769,769,0.17453908337028345,0.2,1.0,1.0,286.0,752.0,0.0,0,1962.0,0
770,770,0.22179660709285243,0.2,0.0,0.0,327.0,874.0,0.0,1,1799.0,1
771,771,0.4645975576049356,0.5,1.0,1.0,303.0,724.0,0.0,0,1973.0,0
772,772,-0.28742522833552653,-0.3,0.0,1.0,471.0,781.0,0.0,1,1748.0,0
773,773,-0.038165500779650974,-0.0,1.0,0.0,340.0,766.0,0.0,0,1894.0,1
774,774,0.8581643929472512,0.9,0.0,0.0,260.0,668.0,0.0,1,2072.0,1
775,775,-0.579640003886265,-0.6,1.0,0.0,390.0,516.0,0.0,0,2094.0,1
776,776,0.6424307402286721,0.6,1.0,1.0,326.0,819.0,0.0,0,1855.0,0
777,777,0.2874866799867536,0.3,1.0,1.0,445.0,650.0,0.0,0,1905.0,0
778,778,0.0007405431915511462,0.0,1.0,1.0,295.0,699.0,0.0,0,2006.0,0
779,779,0.4110381150292476,0.4,0.0,0.0,421.0,963.0,0.0,1,1616.0,1
780,780,-0.00882518934659049,-0.0,0.0,1.0,321.0,891.0,0.0,1,-1212.0,0
781,781,-0.009009706507564164,-0.0,0.0,1.0,479.0,852.0,0.0,1,1669.0,0
782,782,0.2761719333216591,0.3,0.0,0.0,359.0,951.0,0.0,1,1690.0,1
783,783,0.7349513024995379,0.7,1.0,1.0,290.0,846.0,0.0,0,1864.0,0
784,784,-0.2928534322697782,-0.3,0.0,1.0,260.0,531.0,0.0,1,2209.0,0
785,785,0.1620452833147682,0.2,1.0,1.0,388.0,723.0,0.0,0,1889.0,0
786,786,-0.6097492778670361,-0.6,0.0,1.0,378.0,789.0,0.0,1,1833.0,0
787,787,-0.7430705639068418,-0.7,0.0,1.0,412.0,910.0,0.0,1,1678.0,0
788,788,-0.39458210661321036,-0.4,1.0,0.0,302.0,815.0,0.0,0,1883.0,1
789,789,-0.8772199661894767,-0.9,0.0,1.0,400.0,705.0,0.0,1,1895.0,0
790,790,0.29136342943478766,0.3,1.0,1.0,261.0,910.0,0.0,0,1829.0,0
791,791,-0.2501053012467048,-0.3,0.0,1.0,328.0,963.0,0.0,1,1709.0,0
792,792,0.32176441448159243,0.3,0.0,0.0,268.0,927.0,0.0,1,1805.0,1
793,793,-0.039234514698576195,-0.0,0.0,1.0,405.0,935.0,0.0,1,1660.0,0
794,794,0.8953233921274814,0.9,0.0,0.0,367.0,913.0,0.0,1,1720.0,1
795,795,0.25971009934798783,0.3,1.0,1.0,416.0,883.0,0.0,0,1701.0,0
796,796,0.6152306306780438,0.6,1.0,1.0,311.0,550.0,0.0,0,2139.0,0
797,797,-0.6926392439324514,-0.7,0.0,1.0,390.0,595.0,0.0,1,-955.0,0
798,798,0.24915043253410774,0.2,0.0,0.0,407.0,713.0,0.0,1,1880.0,1
799,799,-0.1591148422031794,-0.2,1.0,0.0,362.0,748.0,0.0,0,1890.0,1
800,800,-0.37514215448151556,-0.4,1.0,0.0,308.0,892.0,0.0,0,1800.0,1
801,801,0.17821921464675639,0.2,0.0,0.0,355.0,575.0,0.0,1,2070.0,1
802,802,-0.35389719708791934,-0.4,0.0,1.0,484.0,774.0,0.0,1,1742.0,0
803,803,0.29300815053899887,0.3,0.0,0.0,312.0,993.0,0.0,1,1695.0,1
804,804,-0.45524921482606495,-0.5,0.0,1.0,416.0,943.0,0.0,1,1641.0,0
805,805,-0.2891136628709077,-0.3,1.0,0.0,258.0,752.0,0.0,0,1990.0,1
806,806,-0.002972518381651912,-0.0,0.0,1.0,319.0,563.0,0.0,1,2118.0,0
807,807,-0.32845465957467257,-0.3,0.0,1.0,444.0,958.0,0.0,1,1598.0,0
808,808,-0.6080398922753343,-0.6,1.0,0.0,379.0,535.0,0.0,0,2086.0,1
809,809,-0.23010755421922457,-0.2,0.0,1.0,465.0,661.0,0.0,1,1874.0,0
810,810,0.6936455328668013,0.7,1.0,1.0,340.0,989.0,0.0,0,1671.0,0
811,811,-0.48920279917275483,-0.5,0.0,1.0,376.0,787.0,0.0,1,1837.0,0
812,812,-0.748123812601479,-0.7,1.0,0.0,398.0,718.0,0.0,0,1884.0,1
813,813,-0.11234730826954631,-0.1,1.0,0.0,417.0,578.0,0.0,0,2005.0,1
814,814,-0.5915457480792767,-0.6,0.0,1.0,410.0,681.0,0.0,1,1909.0,0
815,815,0.44274952546593827,0.4,1.0,1.0,487.0,902.0,0.0,0,1611.0,0
816,816,0.8013725563346091,0.8,0.0,0.0,448.0,880.0,0.0,1,1672.0,1
817,817,0.806511760323848,0.8,0.0,0.0,348.0,641.0,0.0,1,2011.0,1
818,818,0.42784565451254963,0.4,1.0,1.0,298.0,722.0,0.0,0,1980.0,0
819,819,-0.2731565673023293,-0.3,1.0,0.0,481.0,859.0,0.0,0,1660.0,1
820,820,0.08039440042915513,0.1,1.0,1.0,427.0,796.0,0.0,0,1777.0,0
821,821,0.8705443904281694,0.9,0.0,0.0,465.0,974.0,0.0,1,1561.0,1
822,822,-0.47019960170003905,-0.5,1.0,0.0,421.0,943.0,0.0,0,1636.0,1
823,823,-0.09745436920162887,-0.1,0.0,1.0,338.0,789.0,0.0,1,1873.0,0
824,824,-0.08879783400067331,-0.1,1.0,0.0,377.0,825.0,0.0,0,1798.0,1
825,825,0.8135704469819708,0.8,1.0,1.0,474.0,945.0,0.0,0,1581.0,0
826,826,0.6951945309144157,0.7,1.0,1.0,261.0,556.0,0.0,0,2183.0,0
827,827,0.5698655249174219,0.6,0.0,0.0,308.0,724.0,0.0,1,1968.0,1
828,828,0.27794985273646733,0.3,1.0,1.0,324.0,628.0,0.0,0,2048.0,0
829,829,-0.17814065902222675,-0.2,0.0,1.0,399.0,678.0,0.0,1,-947.0,0
830,830,-0.5481413940996895,-0.5,0.0,1.0,370.0,504.0,0.0,1,2126.0,0
831,831,0.25846707400456503,0.3,1.0,1.0,468.0,744.0,0.0,0,1788.0,0
832,832,0.2382807337246965,0.2,1.0,1.0,442.0,842.0,0.0,0,1716.0,0
833,833,-0.051241700434154436,-0.1,1.0,0.0,428.0,746.0,0.0,0,1826.0,1
834,834,-0.815561566416077,-0.8,0.0,1.0,472.0,653.0,0.0,1,1875.0,0
835,835,-0.28582752503913256,-0.3,0.0,1.0,347.0,985.0,0.0,1,1668.0,0
836,836,0.6633580516551031,0.7,0.0,0.0,439.0,915.0,0.0,1,-1274.0,1
837,837,0.5512610150599021,0.6,1.0,1.0,378.0,611.0,0.0,0,2011.0,0
838,838,0.46978512716012444,0.5,1.0,1.0,431.0,831.0,0.0,0,1738.0,0
839,839,-0.1791587483138869,-0.2,1.0,0.0,358.0,742.0,0.0,0,1900.0,1
840,840,0.5180374006058187,0.5,1.0,1.0,404.0,803.0,0.0,0,1793.0,0
841,841,0.4134758038841163,0.4,1.0,1.0,342.0,960.0,0.0,0,1698.0,0
842,842,0.4750392283583368,0.5,0.0,0.0,326.0,559.0,0.0,1,2115.0,1
843,843,-0.6689453846083545,-0.7,0.0,1.0,367.0,554.0,0.0,1,-881.0,0
844,844,0.021490607855694233,0.0,0.0,0.0,450.0,997.0,0.0,1,1553.0,1
845,845,0.3300892287967422,0.3,0.0,0.0,311.0,802.0,0.0,1,1887.0,1
846,846,-0.5663094405908728,-0.6,1.0,0.0,279.0,988.0,0.0,0,1733.0,1
847,847,0.871021859289152,0.9,0.0,0.0,487.0,576.0,0.0,1,1937.0,1
848,848,-0.8177349888309765,-0.8,0.0,1.0,433.0,807.0,0.0,1,1760.0,0
849,849,0.2793087653686862,0.3,1.0,1.0,351.0,508.0,0.0,0,2141.0,0
850,850,-0.4049369335581008,-0.4,1.0,0.0,422.0,954.0,0.0,0,1624.0,1
851,851,0.015704015836654706,0.0,0.0,0.0,307.0,572.0,0.0,1,2121.0,1
852,852,-0.06293377559324609,-0.1,0.0,1.0,448.0,621.0,0.0,1,1931.0,0
853,853,0.8423836690058163,0.8,0.0,0.0,468.0,924.0,0.0,1,1608.0,1
854,854,-0.8382094478101945,-0.8,1.0,0.0,287.0,933.0,0.0,0,1780.0,1
855,855,0.06733860231980515,0.1,0.0,0.0,334.0,683.0,0.0,1,1983.0,1
856,856,-0.5078734219908797,-0.5,0.0,1.0,345.0,644.0,0.0,1,2011.0,0
857,857,-0.6008319348227098,-0.6,1.0,0.0,400.0,710.0,0.0,0,1890.0,1
858,858,0.6232027123051559,0.6,0.0,0.0,466.0,631.0,1.0,0,-877.0,0
859,859,-0.35469707788889293,-0.4,0.0,1.0,359.0,688.0,0.0,1,1953.0,0
860,860,0.14102985563289872,0.1,0.0,0.0,359.0,611.0,0.0,1,2030.0,1
861,861,0.02757409018882795,0.0,1.0,1.0,311.0,830.0,0.0,0,1859.0,0
862,862,-0.10232019433922002,-0.1,0.0,1.0,266.0,801.0,0.0,1,1933.0,0
863,863,-0.7965074831917539,-0.8,1.0,0.0,471.0,544.0,0.0,0,1985.0,1
864,864,0.03961263347873323,0.0,1.0,1.0,381.0,588.0,1.0,1,-929.0,1
865,865,-0.7227558519081367,-0.7,1.0,0.0,289.0,938.0,0.0,0,1773.0,1
866,866,0.3378825282135315,0.3,1.0,1.0,279.0,912.0,0.0,0,-1181.0,0
867,867,-0.5131225187417005,-0.5,1.0,0.0,406.0,696.0,0.0,0,1898.0,1
868,868,0.19359982134432785,0.2,0.0,0.0,437.0,797.0,0.0,1,1766.0,1
869,869,-0.2447155504059465,-0.2,0.0,1.0,396.0,956.0,0.0,1,1648.0,0
870,870,-0.85156413677448,-0.9,0.0,1.0,485.0,555.0,0.0,1,1960.0,0
871,871,0.4349895834806453,0.4,1.0,1.0,256.0,933.0,0.0,0,1811.0,0
872,872,-0.4170204977262154,-0.4,0.0,1.0,298.0,692.0,0.0,1,2010.0,0
873,873,-0.18857505086847604,-0.2,1.0,0.0,394.0,568.0,0.0,0,2038.0,1
874,874,0.38649749594187754,0.4,0.0,0.0,320.0,962.0,0.0,1,1718.0,1
875,875,-0.013251479598262006,-0.0,0.0,1.0,385.0,710.0,0.0,1,1905.0,0
876,876,0.08004253900885117,0.1,0.0,0.0,347.0,686.0,0.0,1,1967.0,1
877,877,0.8222210515577929,0.8,0.0,0.0,489.0,837.0,0.0,1,1674.0,1
878,878,-0.18147319882418134,-0.2,0.0,1.0,254.0,723.0,0.0,1,2023.0,0
879,879,0.31039952249432223,0.3,0.0,0.0,462.0,816.0,0.0,1,1722.0,1
880,880,0.28123763313704286,0.3,1.0,1.0,317.0,808.0,0.0,0,1875.0,0
881,881,-0.6013622143232076,-0.6,1.0,0.0,425.0,532.0,0.0,0,2043.0,1
882,882,-0.11664449416208023,-0.1,1.0,0.0,471.0,654.0,0.0,0,1875.0,1
883,883,0.8404558802953311,0.8,1.0,1.0,397.0,641.0,0.0,0,1962.0,0
884,884,0.43219642555941895,0.4,1.0,1.0,401.0,833.0,0.0,0,1766.0,0
885,885,-0.7004469523768373,-0.7,0.0,1.0,439.0,784.0,0.0,1,1777.0,0
886,886,0.6513644124082741,0.7,1.0,1.0,473.0,980.0,0.0,0,1547.0,0
887,887,-0.2965144070494984,-0.3,0.0,1.0,452.0,990.0,0.0,1,1558.0,0
888,888,-0.2856893491770598,-0.3,0.0,1.0,401.0,642.0,0.0,1,1957.0,0
889,889,-0.607930197108304,-0.6,1.0,0.0,267.0,593.0,0.0,0,2140.0,1
890,890,-0.494038857039852,-0.5,1.0,0.0,317.0,980.0,0.0,0,1703.0,1
891,891,-0.4563933449495109,-0.5,0.0,1.0,297.0,784.0,0.0,1,1919.0,0
892,892,0.3679601702778693,0.4,1.0,1.0,365.0,971.0,0.0,0,1664.0,0
893,893,-0.4120511096117423,-0.4,1.0,0.0,461.0,865.0,0.0,0,-1326.0,1
894,894,0.06294336412989587,0.1,1.0,1.0,304.0,886.0,0.0,0,1810.0,0
895,895,0.045269809499022595,0.0,1.0,1.0,424.0,796.0,0.0,0,1780.0,0
896,896,-0.5795672056979648,-0.6,0.0,1.0,497.0,526.0,0.0,1,1977.0,0
897,897,-0.46756789275569055,-0.5,1.0,0.0,279.0,604.0,0.0,0,2117.0,1
898,898,-0.7830163191358711,-0.8,0.0,1.0,476.0,814.0,0.0,1,1710.0,0
899,899,-0.10406745550458951,-0.1,1.0,0.0,275.0,917.0,0.0,0,1808.0,1
900,900,0.7125302218998503,0.7,0.0,0.0,288.0,848.0,0.0,1,1864.0,1
901,901,-0.4241995163366215,-0.4,0.0,1.0,392.0,873.0,0.0,1,1735.0,0
902,902,-0.2117032406121806,-0.2,0.0,1.0,291.0,557.0,0.0,1,2152.0,0
903,903,0.37253921899676257,0.4,0.0,0.0,440.0,684.0,0.0,1,1876.0,1
904,904,0.8829613333254119,0.9,1.0,1.0,468.0,855.0,0.0,0,1677.0,0
905,905,0.07065078826256699,0.1,1.0,1.0,280.0,854.0,0.0,0,1866.0,0
906,906,-0.8000311115949073,-0.8,1.0,0.0,416.0,867.0,0.0,0,1717.0,1
907,907,-0.3433521268529519,-0.3,1.0,0.0,328.0,848.0,0.0,0,1824.0,1
908,908,-0.07973449985283931,-0.1,0.0,1.0,400.0,958.0,0.0,1,1642.0,0
909,909,0.08622420031886247,0.1,1.0,1.0,398.0,659.0,0.0,0,1943.0,0
910,910,-0.8169450646772051,-0.8,1.0,0.0,449.0,761.0,0.0,0,1790.0,1
911,911,-0.13312686598458967,-0.1,0.0,1.0,461.0,646.0,0.0,1,1893.0,0
912,912,0.645587450112454,0.6,1.0,1.0,387.0,636.0,0.0,0,-943.0,0
913,913,-0.3948425217182905,-0.4,0.0,1.0,417.0,570.0,0.0,1,2013.0,0
914,914,0.3986326467022189,0.4,0.0,0.0,350.0,977.0,0.0,1,1673.0,1
915,915,-0.8480758450143353,-0.8,1.0,0.0,291.0,822.0,0.0,0,1887.0,1
916,916,0.315916344582979,0.3,1.0,1.0,465.0,612.0,0.0,0,1923.0,0
917,917,0.6988516664482215,0.7,1.0,1.0,336.0,921.0,0.0,0,1743.0,0
918,918,-0.25429212041589033,-0.3,0.0,1.0,260.0,578.0,0.0,1,2162.0,0
919,919,-0.5728711266855966,-0.6,1.0,0.0,429.0,556.0,0.0,0,2015.0,1
920,920,0.8466599830100044,0.8,0.0,0.0,463.0,952.0,0.0,1,1585.0,1
921,921,0.4016066821407599,0.4,1.0,1.0,490.0,876.0,0.0,0,1634.0,0
922,922,0.40314833824559326,0.4,1.0,1.0,378.0,989.0,0.0,0,1633.0,0
923,923,0.3316029125552852,0.3,1.0,1.0,323.0,578.0,0.0,0,2099.0,0
924,924,0.06525849549645768,0.1,0.0,0.0,327.0,934.0,0.0,1,1739.0,1
925,925,0.4424599386619076,0.4,0.0,0.0,404.0,784.0,0.0,1,1812.0,1
926,926,0.034039787343977834,0.0,0.0,0.0,350.0,793.0,0.0,1,1857.0,1
927,927,0.8337964182762808,0.8,0.0,0.0,287.0,996.0,0.0,1,1717.0,1
928,928,0.6895635899769125,0.7,0.0,0.0,468.0,543.0,0.0,1,-971.0,1
929,929,0.731352196659092,0.7,0.0,0.0,467.0,695.0,0.0,1,1838.0,1
930,930,0.25479554345676114,0.3,0.0,0.0,332.0,820.0,0.0,1,1848.0,1
931,931,-0.18081250697494056,-0.2,0.0,1.0,286.0,524.0,0.0,1,2190.0,0
932,932,-0.04118954312515288,-0.0,1.0,0.0,428.0,581.0,0.0,0,1991.0,1
933,933,-0.22210723457105241,-0.2,0.0,1.0,354.0,677.0,0.0,1,1969.0,0
934,934,-0.7327661435719841,-0.7,1.0,0.0,427.0,985.0,0.0,0,1588.0,1
935,935,0.2608166911437536,0.3,1.0,1.0,383.0,888.0,0.0,0,1729.0,0
936,936,-0.5166232714706829,-0.5,1.0,0.0,483.0,868.0,0.0,0,1649.0,1
937,937,-0.291085117731288,-0.3,0.0,1.0,424.0,692.0,0.0,1,1884.0,0
938,938,-0.421330576998507,-0.4,1.0,0.0,349.0,987.0,0.0,0,1664.0,1
939,939,0.06307243270516327,0.1,0.0,0.0,442.0,815.0,0.0,1,1743.0,1
940,940,-0.645227435676127,-0.6,1.0,0.0,320.0,984.0,0.0,0,1696.0,1
941,941,0.5296289799788895,0.5,0.0,0.0,405.0,874.0,0.0,1,1721.0,1
942,942,0.1501737288453605,0.2,1.0,1.0,431.0,970.0,0.0,0,-1361.0,0
943,943,-0.3458149238771777,-0.3,0.0,1.0,317.0,937.0,0.0,1,-1014.0,0
944,944,-0.07328418399724212,-0.1,1.0,0.0,259.0,741.0,0.0,0,2000.0,1
945,945,0.5184031250857751,0.5,0.0,0.0,429.0,765.0,0.0,1,1806.0,1
946,946,-0.6028196607485152,-0.6,1.0,0.0,353.0,788.0,0.0,0,1859.0,1
947,947,-0.586026047541137,-0.6,1.0,0.0,435.0,981.0,0.0,0,1584.0,1
948,948,-0.855065863502666,-0.9,1.0,0.0,250.0,948.0,0.0,0,1802.0,1
949,949,0.15281534900009086,0.2,1.0,1.0,423.0,745.0,0.0,0,1832.0,0
950,950,-0.27538499973805186,-0.3,1.0,0.0,413.0,688.0,0.0,0,1899.0,1
951,951,0.8045240322778003,0.8,1.0,1.0,312.0,723.0,1.0,1,-1015.0,1
952,952,0.6077178638160968,0.6,1.0,1.0,425.0,885.0,0.0,0,1690.0,0
953,953,0.020693632774608006,0.0,0.0,0.0,380.0,636.0,0.0,1,1984.0,1
954,954,0.4111875030772708,0.4,0.0,0.0,348.0,616.0,0.0,1,2036.0,1
955,955,-0.2876839916404166,-0.3,0.0,1.0,498.0,508.0,0.0,1,1994.0,0
956,956,-0.23524088122243814,-0.2,0.0,1.0,345.0,654.0,0.0,1,2001.0,0
957,957,-0.3487407621857146,-0.3,0.0,1.0,330.0,907.0,0.0,1,1763.0,0
958,958,0.04816864089099593,0.0,1.0,1.0,252.0,529.0,0.0,0,-771.0,0
959,959,-0.8398371201998298,-0.8,1.0,0.0,396.0,811.0,0.0,0,1793.0,1
960,960,0.4693302817210451,0.5,1.0,1.0,312.0,631.0,0.0,0,2057.0,0
961,961,-0.5156538082310493,-0.5,1.0,0.0,454.0,814.0,0.0,0,1732.0,1
962,962,-0.3160839764804051,-0.3,0.0,1.0,276.0,933.0,0.0,1,1791.0,0
963,963,0.7121720934808681,0.7,0.0,0.0,259.0,827.0,0.0,1,1914.0,1
964,964,0.6375379089379681,0.6,1.0,1.0,449.0,964.0,0.0,0,1587.0,0
965,965,0.6069430907231316,0.6,1.0,1.0,296.0,512.0,0.0,0,2192.0,0
966,966,-0.8393476805201772,-0.8,0.0,1.0,323.0,942.0,0.0,1,1735.0,0
967,967,-0.6399454961706501,-0.6,1.0,0.0,376.0,971.0,0.0,0,-1087.0,1
968,968,0.03289842044424973,0.0,0.0,0.0,409.0,634.0,0.0,1,1957.0,1
969,969,-0.5544161761372233,-0.6,1.0,0.0,390.0,686.0,0.0,0,1924.0,1
970,970,-0.275441344450314,-0.3,1.0,0.0,341.0,561.0,0.0,0,2098.0,1
971,971,0.10486882432881128,0.1,1.0,1.0,292.0,751.0,0.0,0,1957.0,0
972,972,-0.7263214023252043,-0.7,0.0,1.0,454.0,767.0,0.0,1,1779.0,0
973,973,-0.8992392829641813,-0.9,1.0,0.0,354.0,990.0,0.0,0,1656.0,1
974,974,0.1601243676612768,0.2,1.0,1.0,300.0,550.0,0.0,0,2150.0,0
975,975,-0.630268427578554,-0.6,1.0,0.0,314.0,882.0,0.0,0,1804.0,1
976,976,-0.6934329064637827,-0.7,0.0,1.0,472.0,821.0,0.0,1,1707.0,0
977,977,-0.1414723837704508,-0.1,0.0,1.0,278.0,986.0,1.0,0,-1104.0,1
978,978,0.707041931439712,0.7,0.0,0.0,432.0,555.0,0.0,1,2013.0,1
979,979,-0.3528403199491351,-0.4,0.0,1.0,376.0,995.0,0.0,1,1629.0,0
980,980,0.7012477578732693,0.7,1.0,1.0,467.0,573.0,0.0,0,1960.0,0
981,981,-0.31036186292200907,-0.3,0.0,1.0,489.0,640.0,0.0,1,1871.0,0
982,982,0.723441964508908,0.7,1.0,1.0,384.0,630.0,0.0,0,1986.0,0
983,983,-0.680093264491881,-0.7,0.0,1.0,371.0,582.0,1.0,0,-843.0,1
984,984,0.21060686065129508,0.2,0.0,0.0,252.0,691.0,0.0,1,2057.0,1
985,985,-0.2918215321011418,-0.3,0.0,1.0,471.0,726.0,0.0,1,1803.0,0
986,986,0.690575421080421,0.7,0.0,0.0,475.0,877.0,0.0,1,1648.0,1
987,987,-0.2947010933777797,-0.3,0.0,1.0,403.0,701.0,0.0,1,1896.0,0
988,988,0.13691879119124117,0.1,0.0,0.0,382.0,535.0,0.0,1,2083.0,1
989,989,-0.2404343461387103,-0.2,1.0,0.0,425.0,891.0,0.0,0,1684.0,1
990,990,0.12354770560027706,0.1,1.0,1.0,417.0,880.0,0.0,0,1703.0,0
991,991,-0.316825794089445,-0.3,1.0,0.0,299.0,535.0,0.0,0,2166.0,1
992,992,0.6433807872111253,0.6,0.0,0.0,499.0,928.0,0.0,1,1573.0,1
993,993,-0.6717052489495587,-0.7,0.0,1.0,408.0,573.0,1.0,0,-891.0,1
994,994,0.5462495592270497,0.5,0.0,0.0,381.0,931.0,0.0,1,1688.0,1
995,995,0.8835847861111344,0.9,1.0,1.0,268.0,549.0,0.0,0,2183.0,0
996,996,-0.049996500290331314,-0.0,0.0,1.0,478.0,999.0,0.0,1,1523.0,0
997,997,-0.29548886312204603,-0.3,1.0,0.0,499.0,549.0,0.0,0,1952.0,1
998,998,-0.7751403105897475,-0.8,0.0,1.0,255.0,669.0,0.0,1,2076.0,0
999,999,0.4999447665500386,0.5,0.0,0.0,470.0,890.0,0.0,1,1640.0,1
1000,1000,0.626728862981648,0.6,0.0,0.0,349.0,857.0,0.0,1,1794.0,1
1001,1001,-0.6894859931425474,-0.7,0.0,1.0,365.0,586.0,0.0,1,2049.0,0
1002,1002,-0.7932864047254329,-0.8,0.0,1.0,275.0,954.0,0.0,1,1771.0,0
1003,1003,0.16950894159035135,0.2,1.0,1.0,418.0,867.0,0.0,0,1715.0,0
1004,1004,-0.2624149618143683,-0.3,0.0,1.0,378.0,675.0,1.0,0,-933.0,1
1005,1005,-0.45360017255629964,-0.5,0.0,1.0,498.0,922.0,0.0,1,-1410.0,0
1006,1006,0.4749085233553113,0.5,0.0,0.0,309.0,797.0,0.0,1,1894.0,1
1007,1007,0.34927484524232744,0.3,1.0,1.0,406.0,537.0,0.0,0,2057.0,0
1008,1008,-0.5911786659610534,-0.6,0.0,1.0,428.0,600.0,0.0,1,1972.0,0
1009,1009,-0.4534434138784339,-0.5,0.0,1.0,465.0,965.0,0.0,1,1570.0,0
1010,1010,-0.811731044635951,-0.8,1.0,0.0,457.0,605.0,0.0,0,1938.0,1
1011,1011,-0.017689295215462253,-0.0,0.0,1.0,464.0,879.0,0.0,1,1657.0,0
1012,1012,0.35364423732071504,0.4,1.0,1.0,485.0,541.0,0.0,0,1974.0,0
1013,1013,-0.09703317369770426,-0.1,0.0,1.0,452.0,817.0,0.0,1,1731.0,0
1014,1014,0.176894869595983,0.2,1.0,1.0,323.0,984.0,0.0,0,1693.0,0
1015,1015,-0.7558944893478339,-0.8,1.0,0.0,336.0,904.0,0.0,0,1760.0,1
1016,1016,-0.7186150174833739,-0.7,1.0,0.0,387.0,760.0,0.0,0,1853.0,1
1017,1017,-0.09811471779882508,-0.1,0.0,1.0,340.0,656.0,0.0,1,2004.0,0
1018,1018,-0.6277959039181784,-0.6,0.0,1.0,298.0,702.0,0.0,1,2000.0,0
1019,1019,0.7554858213680701,0.8,0.0,0.0,325.0,642.0,0.0,1,2033.0,1
1020,1020,-0.5713666161514248,-0.6,0.0,1.0,437.0,559.0,0.0,1,2004.0,0
1021,1021,-0.15153383379621221,-0.2,0.0,1.0,456.0,627.0,0.0,1,1917.0,0
1022,1022,-0.19450869826931783,-0.2,0.0,1.0,496.0,912.0,0.0,1,1592.0,0
1023,1023,0.7820632107563154,0.8,1.0,1.0,417.0,561.0,0.0,0,2022.0,0
1024,1024,0.8716216387824448,0.9,0.0,0.0,377.0,632.0,0.0,1,1991.0,1
1025,1025,0.6553737963851883,0.7,0.0,0.0,358.0,751.0,0.0,1,1891.0,1
1026,1026,-0.4286946579641065,-0.4,1.0,0.0,325.0,551.0,0.0,0,2124.0,1
1027,1027,-0.20161399152958326,-0.2,0.0,1.0,491.0,785.0,0.0,1,1724.0,0
1028,1028,-0.3248624571922236,-0.3,1.0,0.0,277.0,786.0,0.0,0,1937.0,1
1029,1029,-0.1648879507320662,-0.2,1.0,0.0,313.0,541.0,0.0,0,2146.0,1
1030,1030,-0.11369297343386497,-0.1,0.0,1.0,306.0,845.0,0.0,1,1849.0,0
1031,1031,-0.6748875164271407,-0.7,1.0,0.0,459.0,762.0,0.0,0,1779.0,1
1032,1032,0.6875819929717663,0.7,0.0,0.0,269.0,651.0,1.0,0,-810.0,0
1033,1033,0.8226781378879954,0.8,0.0,0.0,473.0,758.0,0.0,1,1769.0,1
1034,1034,0.6062715698443774,0.6,0.0,0.0,464.0,988.0,0.0,1,1548.0,1
1035,1035,-0.3206558129787529,-0.3,0.0,1.0,340.0,879.0,0.0,1,1781.0,0
1036,1036,0.5975848017055817,0.6,0.0,0.0,278.0,777.0,0.0,1,-1055.0,1
1037,1037,0.42187061436213835,0.4,0.0,0.0,404.0,974.0,0.0,1,1622.0,1
1038,1038,0.2827216454653153,0.3,1.0,1.0,257.0,966.0,0.0,0,1777.0,0
1039,1039,0.29770261976278645,0.3,0.0,0.0,486.0,543.0,0.0,1,1971.0,1
1040,1040,-0.1230642067798765,-0.1,0.0,1.0,494.0,830.0,0.0,1,1676.0,0
1041,1041,0.07704504800363998,0.1,1.0,1.0,458.0,873.0,0.0,0,1669.0,0
1042,1042,0.24997806700001524,0.2,0.0,0.0,316.0,629.0,0.0,1,-935.0,1
1043,1043,0.5149121604453505,0.5,0.0,0.0,366.0,830.0,0.0,1,1804.0,1
1044,1044,0.7558859268281023,0.8,1.0,1.0,484.0,891.0,0.0,0,1625.0,0
1045,1045,0.23181651199674003,0.2,1.0,1.0,369.0,944.0,0.0,0,1687.0,0
1046,1046,0.5901856277947403,0.6,1.0,1.0,277.0,899.0,0.0,0,1824.0,0
1047,1047,0.38420433827470457,0.4,1.0,1.0,346.0,505.0,0.0,0,2149.0,0
1048,1048,-0.8204802596058379,-0.8,0.0,1.0,326.0,747.0,0.0,1,1927.0,0
1049,1049,0.7662406019730984,0.8,1.0,1.0,462.0,598.0,0.0,0,1940.0,0
1050,1050,0.36075951020121744,0.4,1.0,1.0,311.0,901.0,0.0,0,1788.0,0
1051,1051,0.7482014802914051,0.7,1.0,1.0,289.0,998.0,0.0,0,1713.0,0
1052,1052,-0.44798026614286673,-0.4,1.0,0.0,484.0,542.0,0.0,0,1974.0,1
1053,1053,-0.5801256977391425,-0.6,0.0,1.0,346.0,947.0,0.0,1,1707.0,0
1054,1054,-0.575288658793748,-0.6,0.0,1.0,355.0,858.0,0.0,1,1787.0,0
1055,1055,0.1452520577250621,0.1,0.0,0.0,298.0,718.0,0.0,1,1984.0,1
1056,1056,-0.6940789948206436,-0.7,1.0,0.0,390.0,502.0,0.0,0,2108.0,1
1057,1057,-0.8778503727969096,-0.9,1.0,0.0,304.0,543.0,0.0,0,2153.0,1
1058,1058,-0.10784132567182836,-0.1,0.0,1.0,311.0,570.0,0.0,1,2119.0,0
1059,1059,0.42966573883644543,0.4,0.0,0.0,392.0,780.0,0.0,1,1828.0,1
1060,1060,0.23979838887320726,0.2,0.0,0.0,262.0,582.0,0.0,1,2156.0,1
1061,1061,0.7896980096828426,0.8,0.0,0.0,383.0,614.0,1.0,0,-707.0,0
1062,1062,-0.31136486568142174,-0.3,0.0,1.0,471.0,560.0,0.0,1,1969.0,0
1063,1063,0.44709814641237877,0.4,0.0,0.0,361.0,556.0,0.0,1,2083.0,1
1064,1064,-0.36724849914951474,-0.4,0.0,1.0,349.0,734.0,0.0,1,1917.0,0
1065,1065,-0.48666562907322014,-0.5,0.0,1.0,493.0,983.0,0.0,1,1524.0,0
1066,1066,-0.6670023480301902,-0.7,0.0,1.0,463.0,696.0,0.0,1,1841.0,0
1067,1067,0.8159156279996317,0.8,0.0,0.0,369.0,919.0,0.0,1,1712.0,1
1068,1068,0.7077510868713294,0.7,1.0,1.0,330.0,524.0,0.0,0,2146.0,0
1069,1069,0.14174897575868017,0.1,0.0,0.0,332.0,682.0,0.0,1,1986.0,1
1070,1070,0.8288914846314058,0.8,1.0,1.0,381.0,508.0,0.0,0,2111.0,0
1071,1071,0.39833892681168426,0.4,1.0,1.0,252.0,528.0,0.0,0,2220.0,0
1072,1072,-0.35936220391474283,-0.4,0.0,1.0,336.0,879.0,0.0,1,1785.0,0
1073,1073,-0.879041274758405,-0.9,1.0,0.0,490.0,543.0,0.0,0,1967.0,1
1074,1074,0.10886442224103698,0.1,0.0,0.0,259.0,703.0,0.0,1,2038.0,1
1075,1075,-0.035258185253011276,-0.0,0.0,1.0,343.0,869.0,0.0,1,1788.0,0
1076,1076,0.8982979011847158,0.9,1.0,1.0,491.0,875.0,0.0,0,1634.0,0
1077,1077,0.25892099893993603,0.3,1.0,1.0,265.0,838.0,0.0,0,1897.0,0
1078,1078,0.045893435955329354,0.0,1.0,1.0,285.0,831.0,0.0,0,1884.0,0
1079,1079,0.2319950784163839,0.2,0.0,0.0,347.0,828.0,0.0,1,1825.0,1
1080,1080,-0.42852075550386326,-0.4,0.0,1.0,494.0,969.0,0.0,1,1537.0,0
1081,1081,-0.8256051512557776,-0.8,0.0,1.0,486.0,818.0,1.0,0,-1134.0,1
1082,1082,-0.7650682145114222,-0.8,1.0,0.0,443.0,661.0,0.0,0,1896.0,1
1083,1083,0.02075600795789523,0.0,1.0,1.0,355.0,582.0,0.0,0,2063.0,0
1084,1084,-0.4101695008173986,-0.4,0.0,1.0,428.0,509.0,0.0,1,2063.0,0
1085,1085,-0.12293963294848587,-0.1,1.0,0.0,391.0,739.0,0.0,0,1870.0,1
1086,1086,0.009393996851309927,0.0,0.0,0.0,366.0,857.0,0.0,1,1777.0,1
1087,1087,-0.10487342021620483,-0.1,1.0,0.0,292.0,811.0,0.0,0,1897.0,1
1088,1088,0.08229583533655849,0.1,1.0,1.0,453.0,928.0,0.0,0,1619.0,0
1089,1089,0.13166417528273666,0.1,0.0,0.0,339.0,714.0,0.0,1,1947.0,1
1090,1090,0.6874059376566969,0.7,0.0,0.0,412.0,798.0,0.0,1,1790.0,1
1091,1091,-0.6395486367821899,-0.6,1.0,0.0,308.0,736.0,0.0,0,1956.0,1
1092,1092,0.35168673150221574,0.4,0.0,0.0,356.0,931.0,0.0,1,1713.0,1
1093,1093,-0.025453904767256175,-0.0,0.0,1.0,387.0,690.0,0.0,1,1923.0,0
1094,1094,-0.5345300391772583,-0.5,0.0,1.0,377.0,865.0,0.0,1,1758.0,0
1095,1095,0.2511389843208395,0.3,1.0,1.0,449.0,887.0,0.0,0,1664.0,0
1096,1096,-0.06866002169603469,-0.1,0.0,1.0,333.0,833.0,0.0,1,1834.0,0
1097,1097,0.06440299314919817,0.1,0.0,0.0,376.0,822.0,0.0,1,1802.0,1
1098,1098,-0.18253209348426125,-0.2,0.0,1.0,361.0,909.0,0.0,1,1730.0,0
1099,1099,0.41746904459003387,0.4,0.0,0.0,479.0,539.0,0.0,1,1982.0,1
1100,1100,0.08059175630734394,0.1,0.0,0.0,253.0,928.0,0.0,1,1819.0,1
1101,1101,-0.8064365125355258,-0.8,1.0,0.0,321.0,829.0,0.0,0,1850.0,1
1102,1102,-0.3135723457306864,-0.3,1.0,0.0,481.0,770.0,1.0,1,-1151.0,0
1103,1103,0.5821677406641294,0.6,1.0,1.0,252.0,852.0,0.0,0,1896.0,0
1104,1104,0.37382375686819536,0.4,0.0,0.0,456.0,803.0,0.0,1,1741.0,1
1105,1105,0.41416324057636433,0.4,0.0,0.0,418.0,944.0,0.0,1,1638.0,1
1106,1106,-0.02156354497439339,-0.0,1.0,0.0,428.0,865.0,0.0,0,1707.0,1
1107,1107,0.08563307752139415,0.1,0.0,0.0,435.0,528.0,0.0,1,2037.0,1
1108,1108,0.5644053205267577,0.6,1.0,1.0,342.0,851.0,0.0,0,1807.0,0
1109,1109,0.016074795139989217,0.0,0.0,0.0,384.0,910.0,0.0,1,1706.0,1
1110,1110,-0.28840723653229805,-0.3,1.0,0.0,429.0,723.0,0.0,0,1848.0,1
1111,1111,-0.03902316271838724,-0.0,1.0,0.0,451.0,843.0,0.0,0,-1154.0,1
1112,1112,-0.09068450073491374,-0.1,0.0,1.0,252.0,838.0,0.0,1,1910.0,0
1113,1113,0.7125581271144704,0.7,0.0,0.0,255.0,732.0,1.0,0,-987.0,0
1114,1114,-0.5623887935227136,-0.6,0.0,1.0,480.0,544.0,0.0,1,1976.0,0
1115,1115,-0.3127378292981622,-0.3,0.0,1.0,424.0,689.0,0.0,1,1887.0,0
1116,1116,0.010557200656018062,0.0,1.0,1.0,333.0,607.0,0.0,0,2060.0,0
1117,1117,0.7062497665237851,0.7,1.0,1.0,382.0,583.0,0.0,0,2035.0,0
1118,1118,-0.37612252438533555,-0.4,0.0,1.0,387.0,721.0,0.0,1,1892.0,0
1119,1119,0.02476150470289107,0.0,0.0,0.0,487.0,602.0,0.0,1,1911.0,1
1120,1120,0.8303428688638118,0.8,0.0,0.0,340.0,914.0,0.0,1,1746.0,1
1121,1121,-0.4817088337711866,-0.5,0.0,1.0,449.0,868.0,0.0,1,1683.0,0
1122,1122,-0.10827867581255568,-0.1,1.0,0.0,355.0,888.0,0.0,0,1757.0,1
1123,1123,0.21788123832161344,0.2,1.0,1.0,493.0,663.0,0.0,0,1844.0,0
1124,1124,-0.6933166734671983,-0.7,1.0,0.0,340.0,524.0,0.0,0,2136.0,1
1125,1125,-0.5209120524096416,-0.5,1.0,0.0,360.0,639.0,0.0,0,2001.0,1
1126,1126,-0.19244474551222235,-0.2,1.0,0.0,329.0,995.0,0.0,0,1676.0,1
1127,1127,0.43550974072582027,0.4,1.0,1.0,480.0,810.0,0.0,0,1710.0,0
1128,1128,0.7513865638792993,0.8,0.0,0.0,338.0,591.0,0.0,1,2071.0,1
1129,1129,-0.8256528288720382,-0.8,0.0,1.0,427.0,623.0,0.0,1,1950.0,0
1130,1130,-0.3117936916386195,-0.3,0.0,1.0,458.0,738.0,0.0,1,1804.0,0
1131,1131,0.7193289489770459,0.7,1.0,1.0,270.0,814.0,0.0,0,1916.0,0
1132,1132,0.26513265622098714,0.3,1.0,1.0,369.0,820.0,0.0,0,1811.0,0
1133,1133,0.14374839359746117,0.1,0.0,0.0,427.0,780.0,0.0,1,1793.0,1
1134,1134,-0.10215187415687721,-0.1,0.0,1.0,282.0,652.0,0.0,1,2066.0,0
1135,1135,-0.6289927525484278,-0.6,0.0,1.0,481.0,697.0,0.0,1,1822.0,0
1136,1136,-0.5887918697450856,-0.6,1.0,0.0,300.0,794.0,0.0,0,1906.0,1
1137,1137,0.5807711109169148,0.6,0.0,0.0,313.0,975.0,0.0,1,1712.0,1
1138,1138,-0.8621936949500286,-0.9,0.0,1.0,407.0,890.0,1.0,0,-1247.0,1
1139,1139,-0.4294362984496174,-0.4,0.0,1.0,469.0,610.0,0.0,1,1921.0,0
1140,1140,-0.47049929543479685,-0.5,0.0,1.0,343.0,539.0,0.0,1,2118.0,0
1141,1141,0.6537168588593986,0.7,0.0,0.0,490.0,719.0,0.0,1,1791.0,1
1142,1142,-0.7460077732805831,-0.7,1.0,0.0,314.0,509.0,0.0,0,2177.0,1
1143,1143,0.13688599752376718,0.1,0.0,0.0,375.0,524.0,0.0,1,-829.0,1
1144,1144,-0.480331576996082,-0.5,1.0,0.0,446.0,861.0,0.0,0,1693.0,1
1145,1145,0.15006228468850835,0.2,1.0,1.0,311.0,620.0,0.0,0,2069.0,0
1146,1146,0.46145319074688584,0.5,0.0,0.0,351.0,816.0,0.0,1,1833.0,1
1147,1147,0.3867567810972835,0.4,1.0,1.0,465.0,621.0,0.0,0,1914.0,0
1148,1148,0.13677235204954996,0.1,1.0,1.0,353.0,641.0,0.0,0,2006.0,0
1149,1149,0.6960873562781825,0.7,0.0,0.0,341.0,592.0,0.0,1,2067.0,1
1150,1150,-0.18856028139298742,-0.2,1.0,0.0,407.0,905.0,0.0,0,1688.0,1
1151,1151,-0.37541499220274055,-0.4,0.0,1.0,339.0,606.0,0.0,1,2055.0,0
1152,1152,-0.16685409487539826,-0.2,0.0,1.0,421.0,629.0,1.0,0,-870.0,1
1153,1153,0.6282367259507694,0.6,1.0,1.0,454.0,925.0,0.0,0,1621.0,0
1154,1154,0.7336809996753971,0.7,1.0,1.0,482.0,754.0,0.0,0,1764.0,0
1155,1155,0.40241974171125394,0.4,1.0,1.0,296.0,749.0,0.0,0,1955.0,0
1156,1156,-0.0032398329244823776,-0.0,1.0,0.0,390.0,752.0,0.0,0,1858.0,1
1157,1157,0.3336536906707165,0.3,1.0,1.0,292.0,686.0,1.0,1,-808.0,1
1158,1158,0.03310227739429861,0.0,0.0,0.0,364.0,856.0,0.0,1,1780.0,1
1159,1159,0.7374610912049523,0.7,0.0,0.0,394.0,718.0,0.0,1,1888.0,1
1160,1160,-0.5946382949415845,-0.6,1.0,0.0,468.0,870.0,0.0,0,1662.0,1
1161,1161,0.3519608701681264,0.4,1.0,1.0,336.0,649.0,0.0,0,2015.0,0
1162,1162,-0.6330581174935351,-0.6,1.0,0.0,435.0,642.0,0.0,0,1923.0,1
1163,1163,-0.022297598444229405,-0.0,1.0,0.0,479.0,578.0,0.0,0,1943.0,1
1164,1164,0.0462048679247854,0.0,0.0,0.0,482.0,662.0,0.0,1,1856.0,1
1165,1165,-0.029486430738839498,-0.0,0.0,1.0,417.0,611.0,0.0,1,1972.0,0
1166,1166,-0.33359774834023603,-0.3,1.0,0.0,352.0,919.0,0.0,0,1729.0,1
1167,1167,-0.6967380877639117,-0.7,1.0,0.0,260.0,541.0,0.0,0,2199.0,1
1168,1168,-0.554830361357345,-0.6,1.0,0.0,401.0,610.0,0.0,0,-971.0,1
1169,1169,0.26593130452330305,0.3,0.0,0.0,431.0,673.0,0.0,1,1896.0,1
1170,1170,0.68668882308591,0.7,1.0,1.0,321.0,801.0,0.0,0,1878.0,0
1171,1171,0.5230300172341477,0.5,0.0,0.0,318.0,947.0,0.0,1,1735.0,1
1172,1172,-0.31323190352934327,-0.3,0.0,1.0,267.0,803.0,0.0,1,-1040.0,0
1173,1173,-0.02515678149333722,-0.0,1.0,0.0,412.0,829.0,0.0,0,1759.0,1
1174,1174,0.5086075128726183,0.5,1.0,1.0,431.0,914.0,0.0,0,1655.0,0
1175,1175,-0.7269683493314255,-0.7,0.0,1.0,408.0,887.0,0.0,1,1705.0,0
1176,1176,-0.5438715158357401,-0.5,1.0,0.0,330.0,508.0,0.0,0,2162.0,1
1177,1177,0.5191699413804848,0.5,1.0,1.0,291.0,943.0,0.0,0,1766.0,0
1178,1178,0.406041185523076,0.4,0.0,0.0,261.0,907.0,0.0,1,1832.0,1
1179,1179,0.8905162903243337,0.9,1.0,1.0,421.0,815.0,0.0,0,1764.0,0
1180,1180,0.38336969128934706,0.4,0.0,0.0,453.0,963.0,1.0,0,-1346.0,0
1181,1181,-0.4095733298400854,-0.4,0.0,1.0,250.0,592.0,0.0,1,2158.0,0
1182,1182,-0.481447709586943,-0.5,1.0,0.0,451.0,916.0,0.0,0,-1227.0,1
1183,1183,0.797724963805771,0.8,0.0,0.0,389.0,677.0,0.0,1,1934.0,1
1184,1184,-0.031132618831528514,-0.0,1.0,0.0,264.0,573.0,0.0,0,2163.0,1
1185,1185,0.1954226604839514,0.2,1.0,1.0,259.0,738.0,0.0,0,2003.0,0
1186,1186,-0.14500647536619238,-0.1,1.0,0.0,484.0,694.0,0.0,0,1822.0,1
1187,1187,0.44677396074456655,0.4,0.0,0.0,342.0,896.0,0.0,1,1762.0,1
1188,1188,-0.09592752148264738,-0.1,0.0,1.0,381.0,964.0,0.0,1,1655.0,0
1189,1189,-0.7228408443631245,-0.7,1.0,0.0,386.0,725.0,0.0,0,1889.0,1
1190,1190,0.1892412239569009,0.2,1.0,1.0,262.0,739.0,0.0,0,1999.0,0
1191,1191,0.7892681614545601,0.8,0.0,0.0,349.0,519.0,0.0,1,2132.0,1
1192,1192,0.48839984026825645,0.5,1.0,1.0,426.0,914.0,0.0,0,1660.0,0
1193,1193,-0.14353485189244264,-0.1,0.0,1.0,359.0,980.0,0.0,1,1661.0,0
1194,1194,0.6138594105822123,0.6,1.0,1.0,387.0,504.0,0.0,0,-781.0,0
1195,1195,0.7049580392935669,0.7,0.0,0.0,293.0,727.0,0.0,1,1980.0,1
1196,1196,-0.17787646102492083,-0.2,1.0,0.0,395.0,547.0,0.0,0,2058.0,1
1197,1197,-0.41294514653751496,-0.4,1.0,0.0,442.0,531.0,0.0,0,2027.0,1
1198,1198,0.8144901504481331,0.8,1.0,1.0,313.0,945.0,0.0,0,1742.0,0
1199,1199,0.16526562851498505,0.2,1.0,1.0,385.0,723.0,0.0,0,1892.0,0
1200,1200,0.5312777327200221,0.5,1.0,1.0,402.0,700.0,0.0,0,1898.0,0
1201,1201,-0.7020878215384418,-0.7,1.0,0.0,396.0,986.0,0.0,0,1618.0,1
1202,1202,-0.3957681814080972,-0.4,1.0,0.0,315.0,648.0,0.0,0,2037.0,1
1203,1203,-0.37421041235526864,-0.4,0.0,1.0,336.0,512.0,0.0,1,2152.0,0
1204,1204,0.006188192206192156,0.0,0.0,0.0,268.0,502.0,0.0,1,2230.0,1
1205,1205,0.11929254522113941,0.1,0.0,0.0,327.0,504.0,0.0,1,2169.0,1
1206,1206,-0.7701515717438601,-0.8,1.0,0.0,423.0,573.0,0.0,0,2004.0,1
1207,1207,0.8313148514675747,0.8,0.0,0.0,290.0,928.0,0.0,1,1782.0,1
1208,1208,-0.1404610016759561,-0.1,0.0,1.0,436.0,734.0,0.0,1,1830.0,0
1209,1209,0.5432442703109038,0.5,1.0,1.0,405.0,574.0,0.0,0,2021.0,0
1210,1210,-0.537249200710068,-0.5,1.0,0.0,277.0,652.0,0.0,0,2071.0,1
1211,1211,-0.8296942346755493,-0.8,0.0,1.0,419.0,957.0,0.0,1,1624.0,0
1212,1212,0.37235359906232757,0.4,1.0,1.0,281.0,894.0,0.0,0,1825.0,0
1213,1213,-0.5740290230606939,-0.6,0.0,1.0,476.0,670.0,0.0,1,1854.0,0
1214,1214,-0.17673530442183927,-0.2,0.0,1.0,321.0,978.0,0.0,1,1701.0,0
1215,1215,0.7361542096139996,0.7,1.0,1.0,496.0,845.0,0.0,0,1659.0,0
1216,1216,-0.5871435051441742,-0.6,1.0,0.0,453.0,872.0,0.0,0,1675.0,1
1217,1217,-0.2224734803342442,-0.2,0.0,1.0,414.0,530.0,0.0,1,2056.0,0
1218,1218,-0.2565248970389734,-0.3,1.0,0.0,299.0,830.0,0.0,0,1871.0,1
1219,1219,0.7666194559659029,0.8,0.0,0.0,440.0,629.0,0.0,1,1931.0,1
1220,1220,0.5950988693193849,0.6,0.0,0.0,312.0,751.0,0.0,1,1937.0,1
1221,1221,0.23811224250466456,0.2,1.0,1.0,368.0,826.0,0.0,0,1806.0,0
1222,1222,0.05685945090102096,0.1,0.0,0.0,275.0,965.0,0.0,1,1760.0,1
1223,1223,-0.08856709850010314,-0.1,1.0,0.0,406.0,685.0,0.0,0,1909.0,1
1224,1224,0.8019976144434299,0.8,1.0,1.0,336.0,650.0,0.0,0,2014.0,0
1225,1225,-0.7380125135101185,-0.7,1.0,0.0,384.0,825.0,0.0,0,1791.0,1
1226,1226,0.31275103167968943,0.3,0.0,0.0,457.0,909.0,0.0,1,1634.0,1
1227,1227,0.29576758574190787,0.3,0.0,0.0,496.0,696.0,0.0,1,1808.0,1
1228,1228,0.7340823837244849,0.7,1.0,1.0,275.0,831.0,0.0,0,1894.0,0
1229,1229,-0.7538283400879147,-0.8,1.0,0.0,269.0,914.0,0.0,0,1817.0,1
1230,1230,-0.14107505434565493,-0.1,1.0,0.0,466.0,752.0,0.0,0,1782.0,1
1231,1231,0.8802970713371295,0.9,1.0,1.0,458.0,953.0,0.0,0,1589.0,0
1232,1232,0.590838676265299,0.6,1.0,1.0,354.0,699.0,0.0,0,1947.0,0
1233,1233,0.06250724136090569,0.1,1.0,1.0,475.0,742.0,1.0,1,-1087.0,1
1234,1234,-0.014684649408870931,-0.0,0.0,1.0,445.0,739.0,0.0,1,1816.0,0
1235,1235,-0.06286896247476026,-0.1,1.0,0.0,356.0,983.0,0.0,0,1661.0,1
1236,1236,-0.33004587842843436,-0.3,1.0,0.0,479.0,608.0,0.0,0,1913.0,1
1237,1237,0.03901537583144998,0.0,1.0,1.0,272.0,726.0,1.0,1,-868.0,1
1238,1238,-0.06179335152292276,-0.1,1.0,0.0,444.0,506.0,0.0,0,2050.0,1
1239,1239,-0.4324113016401396,-0.4,0.0,1.0,292.0,522.0,0.0,1,2186.0,0
1240,1240,-0.48644921722899,-0.5,1.0,0.0,297.0,963.0,0.0,0,-1190.0,1
1241,1241,0.12336107606875102,0.1,0.0,0.0,254.0,627.0,0.0,1,2119.0,1
1242,1242,-0.606445760271637,-0.6,1.0,0.0,276.0,970.0,0.0,0,1754.0,1
1243,1243,-0.7715006033394189,-0.8,1.0,0.0,483.0,869.0,1.0,1,-1312.0,0
1244,1244,-0.34847641288730835,-0.3,0.0,1.0,487.0,768.0,1.0,0,-1085.0,1
1245,1245,-0.16029150797435487,-0.2,0.0,1.0,416.0,682.0,0.0,1,1902.0,0
1246,1246,-0.17453376621755068,-0.2,0.0,1.0,481.0,718.0,0.0,1,1801.0,0
1247,1247,-0.4136275042238632,-0.4,0.0,1.0,273.0,869.0,0.0,1,1858.0,0
1248,1248,0.5097512897890958,0.5,0.0,0.0,316.0,861.0,0.0,1,1823.0,1
1249,1249,0.572662979039238,0.6,1.0,1.0,406.0,748.0,0.0,0,1846.0,0
1250,1250,-0.04153404287598106,-0.0,1.0,0.0,267.0,628.0,0.0,0,2105.0,1
1251,1251,-0.7981372650232781,-0.8,0.0,1.0,369.0,853.0,0.0,1,1778.0,0
1252,1252,-0.28708798391951496,-0.3,1.0,0.0,347.0,558.0,0.0,0,2095.0,1
1253,1253,-0.3481054795232297,-0.3,0.0,1.0,320.0,691.0,0.0,1,-881.0,0
1254,1254,0.7207029805653514,0.7,1.0,1.0,283.0,923.0,0.0,0,1794.0,0
1255,1255,0.639890433884721,0.6,1.0,1.0,399.0,945.0,0.0,0,1656.0,0
1256,1256,-0.5706740702314846,-0.6,1.0,0.0,308.0,857.0,0.0,0,1835.0,1
1257,1257,0.32333985635852003,0.3,1.0,1.0,355.0,724.0,1.0,1,-1059.0,1
1258,1258,-0.409250156834295,-0.4,0.0,1.0,418.0,679.0,0.0,1,1903.0,0
1259,1259,0.5365273367352418,0.5,1.0,1.0,359.0,698.0,0.0,0,1943.0,0
1260,1260,0.2164635594522143,0.2,0.0,0.0,442.0,695.0,0.0,1,1863.0,1
1261,1261,0.6860861267301143,0.7,1.0,1.0,290.0,912.0,0.0,0,1798.0,0
1262,1262,0.4077450496684253,0.4,1.0,1.0,455.0,754.0,0.0,0,-1179.0,0
1263,1263,-0.8632930111078904,-0.9,0.0,1.0,289.0,715.0,0.0,1,1996.0,0
1264,1264,0.7450757255908299,0.7,1.0,1.0,269.0,822.0,0.0,0,1909.0,0
1265,1265,0.3443473949564494,0.3,1.0,1.0,345.0,995.0,0.0,0,1660.0,0
1266,1266,-0.4896558706105443,-0.5,1.0,0.0,424.0,788.0,0.0,0,1788.0,1
1267,1267,0.39954675087119995,0.4,1.0,1.0,339.0,598.0,0.0,0,2063.0,0
1268,1268,-0.593089676757856,-0.6,0.0,1.0,282.0,703.0,0.0,1,2015.0,0
1269,1269,-0.8563825788425395,-0.9,1.0,0.0,360.0,923.0,0.0,0,1717.0,1
1270,1270,-0.31200373693924366,-0.3,0.0,1.0,414.0,979.0,0.0,1,1607.0,0
1271,1271,-0.008889789938117176,-0.0,1.0,0.0,486.0,798.0,0.0,0,1716.0,1
1272,1272,-0.20225749295095574,-0.2,0.0,1.0,376.0,644.0,0.0,1,1980.0,0
1273,1273,0.14775270992676248,0.1,1.0,1.0,497.0,566.0,0.0,0,1937.0,0
1274,1274,-0.49044966726650346,-0.5,0.0,1.0,447.0,713.0,0.0,1,1840.0,0
1275,1275,0.30722903021064585,0.3,1.0,1.0,402.0,927.0,0.0,0,1671.0,0
1276,1276,0.601347904690228,0.6,0.0,0.0,321.0,855.0,0.0,1,1824.0,1
1277,1277,0.6391926594644178,0.6,1.0,1.0,483.0,887.0,0.0,0,-1330.0,0
1278,1278,0.5809846490102893,0.6,1.0,1.0,272.0,790.0,0.0,0,1938.0,0
1279,1279,-0.248870040003484,-0.2,1.0,0.0,401.0,847.0,0.0,0,1752.0,1
1280,1280,-0.7688191121381861,-0.8,0.0,1.0,474.0,569.0,0.0,1,1957.0,0
1281,1281,0.3900786531017152,0.4,0.0,0.0,266.0,644.0,0.0,1,2090.0,1
1282,1282,0.3783427372607572,0.4,1.0,1.0,347.0,809.0,0.0,0,1844.0,0
1283,1283,-0.5303227571379268,-0.5,0.0,1.0,462.0,677.0,0.0,1,1861.0,0
1284,1284,0.6300917185778693,0.6,1.0,1.0,376.0,690.0,0.0,0,1934.0,0
1285,1285,0.15549440197151576,0.2,1.0,1.0,356.0,628.0,0.0,0,2016.0,0
1286,1286,0.0697945204295698,0.1,0.0,0.0,376.0,688.0,0.0,1,1936.0,1
1287,1287,0.5756586912395435,0.6,0.0,0.0,396.0,629.0,0.0,1,1975.0,1
1288,1288,0.4894683203728395,0.5,1.0,1.0,394.0,778.0,0.0,0,1828.0,0
1289,1289,0.6101203935683156,0.6,1.0,1.0,324.0,534.0,0.0,0,2142.0,0
1290,1290,0.5699016843915669,0.6,0.0,0.0,335.0,661.0,0.0,1,2004.0,1
1291,1291,0.1885249259080738,0.2,0.0,0.0,451.0,873.0,0.0,1,1676.0,1
1292,1292,-0.5909885080089511,-0.6,1.0,0.0,462.0,533.0,0.0,0,2005.0,1
1293,1293,0.8833880832693074,0.9,1.0,1.0,496.0,752.0,0.0,0,1752.0,0
1294,1294,0.4957384322163688,0.5,0.0,0.0,411.0,911.0,0.0,1,1678.0,1
1295,1295,0.36519891244932967,0.4,0.0,0.0,416.0,984.0,0.0,1,1600.0,1
1296,1296,0.3769555151765799,0.4,0.0,0.0,483.0,553.0,0.0,1,1964.0,1
1297,1297,-0.43437635216448073,-0.4,1.0,0.0,259.0,694.0,0.0,0,2047.0,1
1298,1298,-0.8298810266264034,-0.8,1.0,0.0,344.0,643.0,0.0,0,2013.0,1
1299,1299,0.4964622511024336,0.5,1.0,1.0,490.0,748.0,0.0,0,1762.0,0
1300,1300,-0.3593028922091174,-0.4,0.0,1.0,378.0,947.0,0.0,1,1675.0,0
1301,1301,-0.6692575765724803,-0.7,1.0,0.0,455.0,555.0,0.0,0,1990.0,1
1302,1302,0.3659153984784914,0.4,1.0,1.0,342.0,774.0,0.0,0,1884.0,0
1303,1303,0.4775137266934294,0.5,0.0,0.0,250.0,714.0,0.0,1,2036.0,1
1304,1304,-0.17739004835584338,-0.2,1.0,0.0,384.0,641.0,0.0,0,1975.0,1
1305,1305,-0.6991570692478101,-0.7,0.0,1.0,278.0,897.0,0.0,1,1825.0,0
1306,1306,-0.7897577255594029,-0.8,0.0,1.0,354.0,662.0,1.0,0,-966.0,1
1307,1307,0.8991897504268668,0.9,1.0,1.0,388.0,873.0,0.0,0,1739.0,0
1308,1308,-0.40043863379986067,-0.4,0.0,1.0,466.0,969.0,1.0,0,-1375.0,1
1309,1309,0.04241856594438009,0.0,0.0,0.0,427.0,500.0,0.0,1,2073.0,1
1310,1310,-0.6604496455286567,-0.7,0.0,1.0,262.0,958.0,0.0,1,1780.0,0
1311,1311,0.32017569251314304,0.3,0.0,0.0,406.0,565.0,0.0,1,2029.0,1
1312,1312,-0.506429594175253,-0.5,1.0,0.0,319.0,724.0,0.0,0,1957.0,1
1313,1313,-0.1007746264246615,-0.1,1.0,0.0,389.0,544.0,0.0,0,2067.0,1
1314,1314,-0.1273997485112789,-0.1,0.0,1.0,498.0,546.0,0.0,1,1956.0,0
1315,1315,0.6151418239508336,0.6,1.0,1.0,341.0,899.0,0.0,0,1760.0,0
1316,1316,-0.2746872874865629,-0.3,1.0,0.0,389.0,530.0,0.0,0,2081.0,1
1317,1317,0.2510771405013955,0.3,0.0,0.0,388.0,599.0,0.0,1,2013.0,1
1318,1318,-0.3152000477774112,-0.3,0.0,1.0,314.0,944.0,0.0,1,1742.0,0
1319,1319,-0.3701904775524085,-0.4,0.0,1.0,434.0,666.0,0.0,1,1900.0,0
1320,1320,0.4640127266506985,0.5,1.0,1.0,406.0,576.0,0.0,0,2018.0,0
1321,1321,0.3123645420087072,0.3,1.0,1.0,432.0,690.0,0.0,0,1878.0,0
1322,1322,0.5290490860746401,0.5,0.0,0.0,438.0,883.0,0.0,1,1679.0,1
1323,1323,-0.6936378988067242,-0.7,0.0,1.0,282.0,935.0,0.0,1,1783.0,0
1324,1324,-0.43394651809974644,-0.4,0.0,1.0,433.0,859.0,0.0,1,1708.0,0
1325,1325,0.5591366717431449,0.6,1.0,1.0,490.0,655.0,0.0,0,1855.0,0
1326,1326,0.2335303120637745,0.2,1.0,1.0,358.0,746.0,0.0,0,1896.0,0
1327,1327,-0.4916160604204393,-0.5,0.0,1.0,383.0,994.0,0.0,1,1623.0,0
1328,1328,-0.6672259912926211,-0.7,0.0,1.0,295.0,999.0,0.0,1,1706.0,0
1329,1329,0.0910845435483012,0.1,0.0,0.0,387.0,563.0,0.0,1,2050.0,1
1330,1330,-0.7845379590942468,-0.8,0.0,1.0,388.0,652.0,0.0,1,1960.0,0
1331,1331,-0.45926204848639685,-0.5,0.0,1.0,363.0,814.0,0.0,1,-1137.0,0
1332,1332,-0.16660346595002284,-0.2,1.0,0.0,294.0,937.0,0.0,0,1769.0,1
1333,1333,-0.13350033469367661,-0.1,1.0,0.0,453.0,723.0,0.0,0,1824.0,1
1334,1334,-0.11786162289695157,-0.1,0.0,1.0,291.0,728.0,0.0,1,1981.0,0
1335,1335,0.6382190021997584,0.6,1.0,1.0,325.0,696.0,0.0,0,1979.0,0
1336,1336,0.47507714004648893,0.5,0.0,0.0,475.0,505.0,0.0,1,-910.0,1
1337,1337,0.8562146700143337,0.9,1.0,1.0,325.0,909.0,0.0,0,1766.0,0
1338,1338,0.2369780932359894,0.2,1.0,1.0,397.0,624.0,0.0,0,-981.0,0
1339,1339,0.6734492878821013,0.7,0.0,0.0,440.0,689.0,0.0,1,1871.0,1
1340,1340,0.6669180539769183,0.7,1.0,1.0,290.0,555.0,0.0,0,2155.0,0
1341,1341,0.8152562758073983,0.8,1.0,1.0,260.0,625.0,0.0,0,2115.0,0
1342,1342,0.8337012543650847,0.8,0.0,0.0,361.0,575.0,0.0,1,2064.0,1
1343,1343,-0.4999443072670141,-0.5,1.0,0.0,360.0,750.0,0.0,0,1890.0,1
1344,1344,-0.7376157032804342,-0.7,0.0,1.0,364.0,548.0,0.0,1,2088.0,0
1345,1345,-0.8937779277211043,-0.9,0.0,1.0,318.0,770.0,0.0,1,1912.0,0
1346,1346,-0.15402114964244684,-0.2,1.0,0.0,462.0,995.0,0.0,0,1543.0,1
1347,1347,0.7898254067609897,0.8,0.0,0.0,398.0,520.0,0.0,1,2082.0,1
1348,1348,-0.3921160546841047,-0.4,0.0,1.0,488.0,926.0,0.0,1,1586.0,0
1349,1349,0.36793549387764035,0.4,0.0,0.0,304.0,857.0,0.0,1,1839.0,1
1350,1350,0.1444372781895521,0.1,0.0,0.0,433.0,705.0,0.0,1,1862.0,1
1351,1351,0.5793639323837022,0.6,1.0,1.0,301.0,898.0,0.0,0,1801.0,0
1352,1352,0.6536283858014188,0.7,1.0,1.0,401.0,736.0,0.0,0,1863.0,0
1353,1353,-0.5624835217089987,-0.6,1.0,0.0,306.0,655.0,0.0,0,2039.0,1
1354,1354,-0.02444157053398932,-0.0,0.0,1.0,478.0,757.0,0.0,1,1765.0,0
1355,1355,0.25862507482135355,0.3,1.0,1.0,318.0,914.0,0.0,0,1768.0,0
1356,1356,-0.4980061554288194,-0.5,1.0,0.0,412.0,520.0,0.0,0,2068.0,1
1357,1357,0.8059232328824818,0.8,1.0,1.0,444.0,772.0,1.0,1,-1196.0,1
1358,1358,-0.44931956064650574,-0.4,0.0,1.0,473.0,502.0,0.0,1,2025.0,0
1359,1359,-0.20487428357242676,-0.2,0.0,1.0,417.0,804.0,0.0,1,1779.0,0
1360,1360,-0.42363422124661576,-0.4,0.0,1.0,461.0,596.0,0.0,1,1943.0,0
1361,1361,0.6256816190197511,0.6,0.0,0.0,352.0,937.0,0.0,1,1711.0,1
1362,1362,-0.7709404336821446,-0.8,1.0,0.0,295.0,680.0,0.0,0,2025.0,1
1363,1363,-0.56676988950273,-0.6,0.0,1.0,342.0,884.0,0.0,1,1774.0,0
1364,1364,0.6992917135173388,0.7,1.0,1.0,308.0,525.0,0.0,0,2167.0,0
1365,1365,0.6311810051057593,0.6,1.0,1.0,469.0,694.0,0.0,0,1837.0,0
1366,1366,-0.24763631343081993,-0.2,1.0,0.0,327.0,972.0,0.0,0,1701.0,1
1367,1367,-0.4971925441421226,-0.5,0.0,1.0,421.0,957.0,0.0,1,1622.0,0
1368,1368,0.2529936409763306,0.3,1.0,1.0,392.0,948.0,0.0,0,1660.0,0
1369,1369,0.05450835022535294,0.1,1.0,1.0,432.0,697.0,0.0,0,1871.0,0
1370,1370,0.8129191234818646,0.8,1.0,1.0,414.0,958.0,0.0,0,1628.0,0
1371,1371,-0.17629842708684096,-0.2,0.0,1.0,419.0,874.0,0.0,1,1707.0,0
1372,1372,-0.4793124580782435,-0.5,1.0,0.0,347.0,546.0,0.0,0,2107.0,1
1373,1373,0.5112925551187265,0.5,1.0,1.0,368.0,841.0,0.0,0,1791.0,0
1374,1374,0.315483639402259,0.3,1.0,1.0,275.0,772.0,0.0,0,1953.0,0
1375,1375,0.13329606286409057,0.1,0.0,0.0,252.0,507.0,0.0,1,2241.0,1
1376,1376,0.661852228253771,0.7,0.0,0.0,417.0,948.0,0.0,1,1635.0,1
1377,1377,0.3758642666831874,0.4,1.0,1.0,271.0,849.0,0.0,0,1880.0,0
1378,1378,0.5201620281268199,0.5,1.0,1.0,372.0,942.0,0.0,0,1686.0,0
1379,1379,0.22911439229164443,0.2,1.0,1.0,367.0,818.0,0.0,0,1815.0,0
1380,1380,-0.14696417128201955,-0.1,0.0,1.0,451.0,831.0,0.0,1,1718.0,0
1381,1381,-0.7000040373548304,-0.7,1.0,0.0,318.0,717.0,0.0,0,1965.0,1
1382,1382,0.6230247015053599,0.6,1.0,1.0,354.0,937.0,0.0,0,1709.0,0
1383,1383,-0.06063620997899499,-0.1,0.0,1.0,420.0,929.0,0.0,1,1651.0,0
1384,1384,0.4997729313365801,0.5,1.0,1.0,287.0,606.0,0.0,0,2107.0,0
1385,1385,-0.6673785829713262,-0.7,1.0,0.0,467.0,743.0,0.0,0,1790.0,1
1386,1386,0.19714198755684975,0.2,1.0,1.0,323.0,625.0,0.0,0,2052.0,0
1387,1387,-0.3161183672591199,-0.3,1.0,0.0,356.0,893.0,0.0,0,1751.0,1
1388,1388,-0.7176048103059469,-0.7,0.0,1.0,383.0,862.0,0.0,1,1755.0,0
1389,1389,-0.697375711981793,-0.7,0.0,1.0,251.0,557.0,0.0,1,-778.0,0
1390,1390,0.43664681786596315,0.4,1.0,1.0,343.0,820.0,0.0,0,1837.0,0
1391,1391,0.579768285255018,0.6,0.0,0.0,469.0,677.0,0.0,1,1854.0,1
1392,1392,-0.14913997308788174,-0.1,1.0,0.0,479.0,523.0,0.0,0,1998.0,1
1393,1393,0.5215383867479996,0.5,1.0,1.0,288.0,681.0,0.0,0,2031.0,0
1394,1394,-0.061255360965446704,-0.1,1.0,0.0,312.0,517.0,0.0,0,-819.0,1
1395,1395,-0.3005053046275199,-0.3,0.0,1.0,379.0,934.0,0.0,1,1687.0,0
1396,1396,-0.33965275857240884,-0.3,1.0,0.0,496.0,643.0,0.0,0,1861.0,1
1397,1397,-0.7816731854747772,-0.8,1.0,0.0,342.0,844.0,0.0,0,1814.0,1
1398,1398,0.6637722917053558,0.7,1.0,1.0,274.0,886.0,0.0,0,1840.0,0
1399,1399,-0.3337748736741284,-0.3,1.0,0.0,291.0,564.0,0.0,0,2145.0,1
1400,1400,-0.2965810420302102,-0.3,0.0,1.0,498.0,643.0,0.0,1,1859.0,0
1401,1401,0.4073717000896885,0.4,1.0,1.0,294.0,830.0,0.0,0,1876.0,0
1402,1402,0.1941270523753763,0.2,1.0,1.0,370.0,685.0,0.0,0,1945.0,0
1403,1403,0.596346587250579,0.6,1.0,1.0,408.0,987.0,0.0,0,1605.0,0
1404,1404,-0.5915486453398214,-0.6,1.0,0.0,400.0,917.0,0.0,0,1683.0,1
1405,1405,-0.8680243643413341,-0.9,0.0,1.0,304.0,971.0,0.0,1,1725.0,0
1406,1406,0.5595650169912548,0.6,0.0,0.0,399.0,550.0,1.0,0,-929.0,0
1407,1407,0.8967163528513172,0.9,0.0,0.0,343.0,855.0,0.0,1,1802.0,1
1408,1408,0.3699957447317096,0.4,0.0,0.0,433.0,952.0,0.0,1,1615.0,1
1409,1409,-0.5472924304380321,-0.5,0.0,1.0,398.0,596.0,0.0,1,2006.0,0
1410,1410,0.4316327561239869,0.4,1.0,1.0,465.0,514.0,0.0,0,2021.0,0
1411,1411,-0.8437435747808083,-0.8,0.0,1.0,305.0,825.0,0.0,1,1870.0,0
1412,1412,0.28512847919782847,0.3,1.0,1.0,294.0,555.0,0.0,0,2151.0,0
1413,1413,-0.2234605719175754,-0.2,1.0,0.0,319.0,896.0,0.0,0,1785.0,1
1414,1414,-0.10433158166204215,-0.1,0.0,1.0,252.0,621.0,0.0,1,2127.0,0
1415,1415,-0.6655612719824705,-0.7,0.0,1.0,474.0,972.0,0.0,1,1554.0,0
1416,1416,-0.1392846433963274,-0.1,1.0,0.0,254.0,599.0,0.0,0,2147.0,1
1417,1417,0.1014556566845971,0.1,1.0,1.0,251.0,578.0,0.0,0,-819.0,0
1418,1418,0.598384572573451,0.6,0.0,0.0,453.0,711.0,0.0,1,1836.0,1
1419,1419,0.03690245825640592,0.0,0.0,0.0,327.0,932.0,0.0,1,1741.0,1
1420,1420,-0.45833730036810205,-0.5,0.0,1.0,367.0,518.0,0.0,1,2115.0,0
1421,1421,-0.16964931015966966,-0.2,1.0,0.0,340.0,586.0,0.0,0,2074.0,1
1422,1422,0.6422474566804998,0.6,0.0,0.0,346.0,528.0,0.0,1,2126.0,1
1423,1423,-0.12651642642784378,-0.1,1.0,0.0,432.0,885.0,0.0,0,1683.0,1
1424,1424,-0.8904502732557387,-0.9,1.0,0.0,281.0,606.0,0.0,0,2113.0,1
1425,1425,-0.26129570822521564,-0.3,1.0,0.0,291.0,957.0,0.0,0,1752.0,1
1426,1426,-0.2033294254316862,-0.2,0.0,1.0,260.0,751.0,0.0,1,1989.0,0
1427,1427,0.273734106952891,0.3,0.0,0.0,366.0,847.0,0.0,1,1787.0,1
1428,1428,-0.5052883965437567,-0.5,0.0,1.0,386.0,737.0,0.0,1,1877.0,0
1429,1429,-0.06149926166685282,-0.1,0.0,1.0,440.0,825.0,0.0,1,1735.0,0
1430,1430,-0.818335945243234,-0.8,0.0,1.0,406.0,934.0,0.0,1,1660.0,0
1431,1431,0.8736905764847905,0.9,1.0,1.0,359.0,629.0,1.0,1,-838.0,1
1432,1432,-0.5552321611714175,-0.6,1.0,0.0,292.0,813.0,0.0,0,1895.0,1
1433,1433,0.07018678965261127,0.1,0.0,0.0,384.0,983.0,0.0,1,1633.0,1
1434,1434,-0.3157624920078359,-0.3,0.0,1.0,345.0,934.0,0.0,1,1721.0,0
1435,1435,-0.6502368079323605,-0.7,0.0,1.0,414.0,888.0,0.0,1,1698.0,0
1436,1436,-0.7526221622941127,-0.8,0.0,1.0,478.0,995.0,0.0,1,1527.0,0
1437,1437,0.5410166692686155,0.5,0.0,0.0,297.0,844.0,0.0,1,1859.0,1
1438,1438,-0.8012858662970906,-0.8,0.0,1.0,280.0,535.0,0.0,1,2185.0,0
1439,1439,0.8609728777466658,0.9,1.0,1.0,369.0,912.0,0.0,0,1719.0,0
1440,1440,-0.2815702097969034,-0.3,0.0,1.0,348.0,659.0,0.0,1,1993.0,0
1441,1441,0.23596487074259043,0.2,1.0,1.0,292.0,802.0,0.0,0,1906.0,0
1442,1442,0.04489721194781271,0.0,1.0,1.0,251.0,614.0,0.0,0,2135.0,0
1443,1443,0.15058301281596653,0.2,1.0,1.0,274.0,710.0,0.0,0,2016.0,0
1444,1444,-0.46039532027263597,-0.5,0.0,1.0,342.0,797.0,0.0,1,1861.0,0
1445,1445,0.6479115189964367,0.6,1.0,1.0,370.0,903.0,0.0,0,1727.0,0
1446,1446,-0.39921187932198543,-0.4,0.0,1.0,289.0,584.0,0.0,1,2127.0,0
1447,1447,0.2460159327398782,0.2,0.0,0.0,379.0,548.0,0.0,1,2073.0,1
1448,1448,0.38837740762256756,0.4,1.0,1.0,301.0,847.0,0.0,0,1852.0,0
1449,1449,0.03173753157974735,0.0,0.0,0.0,325.0,542.0,0.0,1,2133.0,1
1450,1450,-0.2919754019940731,-0.3,1.0,0.0,425.0,958.0,0.0,0,1617.0,1
1451,1451,0.24160061935592358,0.2,0.0,0.0,263.0,715.0,0.0,1,2022.0,1
1452,1452,-0.6824365886647913,-0.7,1.0,0.0,298.0,870.0,0.0,0,1832.0,1
1453,1453,-0.05479745224329524,-0.1,0.0,1.0,411.0,817.0,0.0,1,-1198.0,0
1454,1454,-0.3706413910966574,-0.4,1.0,0.0,372.0,697.0,0.0,0,1931.0,1
1455,1455,-0.5931202283363728,-0.6,1.0,0.0,303.0,706.0,0.0,0,1991.0,1
1456,1456,0.5009856487128889,0.5,1.0,1.0,466.0,699.0,0.0,0,1835.0,0
1457,1457,-0.5335935710481126,-0.5,0.0,1.0,499.0,989.0,0.0,1,1512.0,0
1458,1458,0.35978160005415705,0.4,1.0,1.0,418.0,507.0,0.0,0,-885.0,0
1459,1459,0.43745837375995167,0.4,1.0,1.0,473.0,659.0,0.0,0,-1122.0,0
1460,1460,0.1299832307961063,0.1,0.0,0.0,329.0,866.0,0.0,1,1805.0,1
1461,1461,-0.8440314523294965,-0.8,0.0,1.0,346.0,777.0,0.0,1,1877.0,0
1462,1462,0.3356594333697006,0.3,1.0,1.0,364.0,783.0,0.0,0,1853.0,0
1463,1463,0.014418773409467844,0.0,0.0,0.0,495.0,706.0,0.0,1,1799.0,1
1464,1464,-0.44002983012069363,-0.4,1.0,0.0,416.0,867.0,0.0,0,1717.0,1
1465,1465,0.029292559897711623,0.0,0.0,0.0,350.0,898.0,0.0,1,1752.0,1
1466,1466,0.6934963004450391,0.7,1.0,1.0,373.0,664.0,0.0,0,1963.0,0
1467,1467,-0.6354366292981235,-0.6,1.0,0.0,367.0,514.0,0.0,0,2119.0,1
1468,1468,0.5437983911419836,0.5,1.0,1.0,495.0,932.0,1.0,1,-1317.0,1
1469,1469,-0.5849094189147426,-0.6,1.0,0.0,432.0,678.0,0.0,0,1890.0,1
1470,1470,-0.1636431602681231,-0.2,1.0,0.0,369.0,919.0,0.0,0,1712.0,1
