,trial,coherence,coherence_bin,green_side,correct_side,target_onset,checker_onset,decision,green_decision,decision_time,correct_decision
0,0,-0.6688863593699196,-0.7,0.0,1.0,375.0,843.0,1.0,0,-148.0,1
1,1,-0.20827416037505697,-0.2,1.0,0.0,295.0,988.0,0.0,0,907.0,1
2,2,0.04258698863290977,0.0,1.0,1.0,441.0,848.0,0.0,0,701.0,0
3,3,0.3883286420734281,0.4,0.0,0.0,431.0,816.0,0.0,1,433.0,1
4,4,-0.8151044451737512,-0.8,1.0,0.0,373.0,683.0,0.0,0,304.0,1
5,5,-0.7964710270035359,-0.8,1.0,0.0,353.0,736.0,0.0,0,271.0,1
6,6,0.7562040290067952,0.8,0.0,0.0,405.0,981.0,0.0,1,-26.0,1
7,7,-0.8977804545718112,-0.9,0.0,1.0,252.0,802.0,1.0,0,176.0,1
8,8,0.2910713147077052,0.3,0.0,0.0,461.0,571.0,0.0,1,288.0,1
9,9,-0.31980483719059527,-0.3,1.0,0.0,461.0,832.0,0.0,0,357.0,1
10,10,0.2987535487636631,0.3,1.0,1.0,496.0,602.0,1.0,1,832.0,1
11,11,-0.7227519625565307,-0.7,1.0,0.0,256.0,528.0,0.0,0,286.0,1
12,12,0.7434532892586824,0.7,0.0,0.0,477.0,936.0,0.0,1,307.0,1
13,13,-0.6789660236513195,-0.7,1.0,0.0,256.0,668.0,0.0,0,276.0,1
14,14,0.2883250427378151,0.3,1.0,1.0,291.0,893.0,1.0,1,956.0,1
15,15,0.12233549069037408,0.1,1.0,1.0,369.0,789.0,0.0,0,-328.0,0
16,16,0.4860623295880474,0.5,0.0,0.0,388.0,516.0,0.0,1,386.0,1
17,17,-0.31364946436520613,-0.3,0.0,1.0,409.0,877.0,0.0,1,-196.0,0
18,18,-0.2569196443861054,-0.3,1.0,0.0,489.0,730.0,0.0,0,421.0,1
19,19,0.048173252116556875,0.0,1.0,1.0,414.0,668.0,1.0,1,858.0,1
20,20,-0.040994861760865864,-0.0,0.0,1.0,438.0,530.0,1.0,0,4032.0,1
21,21,-0.04910945657421306,-0.0,1.0,0.0,361.0,878.0,0.0,0,61.0,1
22,22,0.2912705007835795,0.3,0.0,0.0,481.0,837.0,0.0,1,432.0,1
23,23,0.7911126292218155,0.8,1.0,1.0,454.0,970.0,1.0,1,516.0,1
24,24,-0.6289539040794696,-0.6,1.0,0.0,492.0,905.0,0.0,0,83.0,1
25,25,0.062081692530781996,0.1,1.0,1.0,275.0,658.0,1.0,1,1047.0,1
26,26,-0.13768354754157142,-0.1,1.0,0.0,464.0,806.0,0.0,0,140.0,1
27,27,-0.4339865716569928,-0.4,1.0,0.0,342.0,893.0,0.0,0,545.0,1
28,28,-0.8763927310306838,-0.9,1.0,0.0,489.0,576.0,0.0,0,405.0,1
29,29,-0.7339299908299888,-0.7,1.0,0.0,332.0,802.0,0.0,0,166.0,1
30,30,-0.6286078776972369,-0.6,1.0,0.0,395.0,883.0,0.0,0,362.0,1
31,31,0.45125362075094844,0.5,0.0,0.0,399.0,576.0,0.0,1,435.0,1
32,32,-0.4569204525240782,-0.5,1.0,0.0,494.0,721.0,0.0,0,725.0,1
33,33,0.29636068094956636,0.3,1.0,1.0,468.0,999.0,1.0,1,443.0,1
34,34,0.28710141396137134,0.3,0.0,0.0,439.0,711.0,0.0,1,600.0,1
35,35,-0.8414273851015427,-0.8,0.0,1.0,426.0,976.0,1.0,0,138.0,1
36,36,0.28763303430068954,0.3,0.0,0.0,270.0,896.0,0.0,1,34.0,1
37,37,-0.4989298877706672,-0.5,0.0,1.0,425.0,685.0,1.0,0,390.0,1
38,38,-0.5937038329397993,-0.6,0.0,1.0,333.0,902.0,0.0,1,-345.0,0
39,39,-0.2698134035803691,-0.3,0.0,1.0,446.0,576.0,1.0,0,658.0,1
40,40,-0.8270968596407067,-0.8,0.0,1.0,279.0,711.0,1.0,0,360.0,1
41,41,0.5309523768474568,0.5,1.0,1.0,412.0,655.0,1.0,1,663.0,1
42,42,0.0986309445446022,0.1,0.0,0.0,330.0,825.0,0.0,1,155.0,1
43,43,0.420628113440621,0.4,1.0,1.0,420.0,884.0,1.0,1,176.0,1
44,44,-0.24905707304539504,-0.2,1.0,0.0,310.0,849.0,0.0,0,511.0,1
45,45,-0.4706074467520773,-0.5,1.0,0.0,491.0,546.0,0.0,0,253.0,1
46,46,0.8252973822742292,0.8,0.0,0.0,307.0,835.0,0.0,1,308.0,1
47,47,0.7142044455448872,0.7,1.0,1.0,471.0,821.0,1.0,1,258.0,1
48,48,0.8057089385807384,0.8,1.0,1.0,492.0,832.0,0.0,0,-394.0,0
49,49,-0.54592234370778,-0.5,1.0,0.0,410.0,759.0,0.0,0,161.0,1
50,50,-0.5451824840107984,-0.5,0.0,1.0,338.0,614.0,1.0,0,358.0,1
51,51,-0.12959490592362743,-0.1,1.0,0.0,429.0,815.0,0.0,0,586.0,1
52,52,0.056055459775242844,0.1,1.0,1.0,407.0,798.0,0.0,0,3795.0,0
53,53,-0.21714559805217848,-0.2,0.0,1.0,390.0,524.0,1.0,0,486.0,1
54,54,-0.13008635580180528,-0.1,0.0,1.0,270.0,829.0,1.0,0,2471.0,1
55,55,0.2863965584220748,0.3,1.0,1.0,338.0,519.0,1.0,1,413.0,1
56,56,0.21955660570724012,0.2,1.0,1.0,454.0,974.0,1.0,1,1872.0,1
57,57,-0.11598647321557742,-0.1,1.0,0.0,305.0,619.0,0.0,0,226.0,1
58,58,0.7654829162856497,0.8,1.0,1.0,398.0,827.0,1.0,1,225.0,1
59,59,0.49039771828157874,0.5,0.0,0.0,297.0,553.0,0.0,1,90.0,1
60,60,-0.7580890717497477,-0.8,0.0,1.0,397.0,607.0,1.0,0,176.0,1
61,61,-0.5920487340663411,-0.6,1.0,0.0,366.0,739.0,0.0,0,-55.0,1
62,62,0.331160244608696,0.3,0.0,0.0,296.0,739.0,0.0,1,245.0,1
63,63,-0.07557063413894305,-0.1,0.0,1.0,360.0,507.0,1.0,0,613.0,1
64,64,-0.681897873850969,-0.7,1.0,0.0,425.0,513.0,0.0,0,62.0,1
65,65,0.6977001977875513,0.7,0.0,0.0,479.0,536.0,0.0,1,365.0,1
66,66,-0.14136132294077453,-0.1,0.0,1.0,266.0,502.0,1.0,0,1562.0,1
67,67,-0.5121478839418996,-0.5,0.0,1.0,322.0,811.0,1.0,0,237.0,1
68,68,0.3902419100384401,0.4,1.0,1.0,319.0,720.0,1.0,1,511.0,1
69,69,-0.4680999634417349,-0.5,0.0,1.0,361.0,792.0,1.0,0,-383.0,1
70,70,0.8827192628813244,0.9,1.0,1.0,497.0,928.0,1.0,1,335.0,1
71,71,0.27240919223008964,0.3,1.0,1.0,372.0,986.0,1.0,1,212.0,1
72,72,0.18582010714087416,0.2,1.0,1.0,255.0,802.0,0.0,0,-127.0,0
73,73,0.2113820067758344,0.2,0.0,0.0,347.0,511.0,0.0,1,752.0,1
74,74,-0.08739368666370528,-0.1,0.0,1.0,422.0,531.0,1.0,0,1817.0,1
75,75,0.539779470111332,0.5,0.0,0.0,305.0,881.0,0.0,1,374.0,1
76,76,0.18117699825799305,0.2,1.0,1.0,413.0,940.0,1.0,1,1237.0,1
77,77,0.4266214973090917,0.4,0.0,0.0,361.0,525.0,0.0,1,444.0,1
78,78,0.8439435797565985,0.8,1.0,1.0,426.0,899.0,1.0,1,215.0,1
79,79,-0.6636602153577684,-0.7,1.0,0.0,376.0,851.0,0.0,0,113.0,1
80,80,-0.5616292511189496,-0.6,1.0,0.0,251.0,887.0,0.0,0,232.0,1
81,81,-0.19298819082990537,-0.2,1.0,0.0,375.0,993.0,0.0,0,532.0,1
82,82,0.35633280722674987,0.4,1.0,1.0,411.0,614.0,1.0,1,755.0,1
83,83,0.06679279274733785,0.1,0.0,0.0,288.0,658.0,0.0,1,1604.0,1
84,84,0.17337767483934574,0.2,1.0,1.0,306.0,551.0,1.0,1,923.0,1
85,85,-0.2354290399718021,-0.2,1.0,0.0,487.0,644.0,0.0,0,589.0,1
86,86,-0.1853833562383701,-0.2,1.0,0.0,411.0,552.0,0.0,0,1197.0,1
87,87,-0.7626673153066654,-0.8,1.0,0.0,412.0,579.0,0.0,0,359.0,1
88,88,-0.5588423895092673,-0.6,0.0,1.0,344.0,798.0,1.0,0,258.0,1
89,89,-0.12684693226442434,-0.1,0.0,1.0,371.0,985.0,1.0,0,2514.0,1
90,90,-0.6750662000529171,-0.7,0.0,1.0,457.0,545.0,1.0,0,448.0,1
91,91,0.6000982058990675,0.6,1.0,1.0,370.0,527.0,1.0,1,113.0,1
92,92,-0.6557850123966588,-0.7,0.0,1.0,292.0,854.0,1.0,0,314.0,1
93,93,0.38284153318295655,0.4,1.0,1.0,400.0,962.0,1.0,1,498.0,1
94,94,0.10845968042492016,0.1,1.0,1.0,427.0,713.0,0.0,0,90.0,0
95,95,0.1905644254822697,0.2,1.0,1.0,264.0,938.0,1.0,1,968.0,1
96,96,-0.6296924573125309,-0.6,0.0,1.0,253.0,553.0,1.0,0,214.0,1
97,97,-0.19796564393876126,-0.2,0.0,1.0,368.0,704.0,1.0,0,1118.0,1
98,98,-0.7932144496013742,-0.8,1.0,0.0,400.0,618.0,0.0,0,62.0,1
99,99,0.8973050361023119,0.9,1.0,1.0,396.0,999.0,1.0,1,355.0,1
100,100,0.4330887418344841,0.4,0.0,0.0,288.0,892.0,0.0,1,340.0,1
101,101,-0.41932044869984336,-0.4,0.0,1.0,373.0,533.0,1.0,0,604.0,1
102,102,-0.17499374624033048,-0.2,0.0,1.0,251.0,700.0,1.0,0,349.0,1
103,103,-0.44698737928825927,-0.4,1.0,0.0,334.0,800.0,0.0,0,446.0,1
104,104,-0.6521129868127906,-0.7,0.0,1.0,316.0,994.0,1.0,0,550.0,1
105,105,0.45359637454669943,0.5,0.0,0.0,380.0,673.0,0.0,1,447.0,1
106,106,-0.5932344300386048,-0.6,1.0,0.0,254.0,959.0,0.0,0,197.0,1
107,107,-0.5917788857355972,-0.6,0.0,1.0,490.0,765.0,1.0,0,275.0,1
108,108,-0.5090522759059786,-0.5,0.0,1.0,405.0,572.0,1.0,0,333.0,1
109,109,-0.5651933940937361,-0.6,0.0,1.0,455.0,738.0,1.0,0,227.0,1
110,110,-0.5849345110934308,-0.6,0.0,1.0,372.0,860.0,1.0,0,708.0,1
111,111,0.2033942957741287,0.2,1.0,1.0,459.0,996.0,1.0,1,2055.0,1
112,112,-0.3235290893521975,-0.3,0.0,1.0,369.0,763.0,1.0,0,608.0,1
113,113,-0.35050670106996695,-0.4,1.0,0.0,489.0,867.0,0.0,0,244.0,1
114,114,-0.468047945560787,-0.5,0.0,1.0,309.0,800.0,1.0,0,171.0,1
115,115,0.8352182289910347,0.8,1.0,1.0,471.0,697.0,1.0,1,342.0,1
116,116,0.12116493451807908,0.1,0.0,0.0,454.0,607.0,0.0,1,1109.0,1
117,117,0.0900922937488653,0.1,0.0,0.0,475.0,907.0,0.0,1,878.0,1
118,118,0.5922726963961603,0.6,0.0,0.0,476.0,704.0,0.0,1,240.0,1
119,119,0.6917470102651188,0.7,0.0,0.0,485.0,886.0,0.0,1,449.0,1
120,120,0.683062002853127,0.7,1.0,1.0,363.0,837.0,1.0,1,180.0,1
121,121,0.3343699568056605,0.3,0.0,0.0,463.0,861.0,0.0,1,396.0,1
122,122,-0.599900315301719,-0.6,0.0,1.0,361.0,517.0,1.0,0,622.0,1
123,123,0.4658940434010067,0.5,0.0,0.0,460.0,865.0,0.0,1,385.0,1
124,124,0.6277502504914675,0.6,1.0,1.0,438.0,878.0,1.0,1,444.0,1
125,125,-0.3653966457865172,-0.4,0.0,1.0,339.0,915.0,1.0,0,546.0,1
126,126,-0.5670605005355995,-0.6,1.0,0.0,462.0,959.0,0.0,0,199.0,1
127,127,-0.5219382203003478,-0.5,0.0,1.0,397.0,878.0,1.0,0,275.0,1
128,128,0.3827377088573315,0.4,0.0,0.0,402.0,917.0,0.0,1,141.0,1
129,129,-0.870123725286063,-0.9,0.0,1.0,378.0,716.0,1.0,0,226.0,1
130,130,-0.3298363206270405,-0.3,0.0,1.0,413.0,738.0,1.0,0,269.0,1
131,131,0.7466471153275757,0.7,1.0,1.0,275.0,870.0,1.0,1,295.0,1
132,132,0.4068458176846529,0.4,1.0,1.0,295.0,652.0,1.0,1,663.0,1
133,133,0.445788436595581,0.4,1.0,1.0,486.0,799.0,1.0,1,555.0,1
134,134,0.07125803637003958,0.1,1.0,1.0,467.0,763.0,1.0,1,1870.0,1
135,135,-0.8139284963434856,-0.8,0.0,1.0,481.0,778.0,1.0,0,311.0,1
136,136,0.8333708853609912,0.8,1.0,1.0,482.0,588.0,1.0,1,300.0,1
137,137,0.8357737956944261,0.8,1.0,1.0,288.0,933.0,1.0,1,299.0,1
138,138,-0.32645843709489564,-0.3,1.0,0.0,372.0,630.0,0.0,0,288.0,1
139,139,-0.151693452446109,-0.2,0.0,1.0,310.0,661.0,1.0,0,409.0,1
140,140,-0.23258590027692894,-0.2,0.0,1.0,349.0,966.0,1.0,0,1065.0,1
141,141,-0.7140449697239587,-0.7,0.0,1.0,296.0,942.0,1.0,0,182.0,1
142,142,-0.6815491112782011,-0.7,0.0,1.0,336.0,506.0,1.0,0,308.0,1
143,143,-0.7612267293363773,-0.8,0.0,1.0,381.0,819.0,1.0,0,380.0,1
144,144,-0.6870949713464704,-0.7,0.0,1.0,473.0,849.0,1.0,0,438.0,1
145,145,-0.6387677874664747,-0.6,1.0,0.0,436.0,808.0,0.0,0,416.0,1
146,146,0.16225508024768642,0.2,1.0,1.0,422.0,920.0,1.0,1,1268.0,1
147,147,-0.8263934213513051,-0.8,0.0,1.0,414.0,991.0,1.0,0,285.0,1
148,148,0.17783057560141458,0.2,0.0,0.0,256.0,715.0,0.0,1,429.0,1
149,149,0.005507158631811393,0.0,0.0,0.0,438.0,860.0,0.0,1,1122.0,1
150,150,-0.06996111393405191,-0.1,1.0,0.0,409.0,638.0,0.0,0,473.0,1
151,151,0.003876253698105292,0.0,0.0,0.0,383.0,696.0,0.0,1,3921.0,1
152,152,-0.7572239264395162,-0.8,1.0,0.0,293.0,865.0,0.0,0,412.0,1
153,153,0.3656461968224166,0.4,1.0,1.0,384.0,816.0,1.0,1,200.0,1
154,154,0.4498090280475612,0.4,1.0,1.0,263.0,535.0,1.0,1,422.0,1
155,155,-0.028546886009898187,-0.0,1.0,0.0,444.0,625.0,1.0,1,3931.0,0
156,156,0.674611330067819,0.7,0.0,0.0,305.0,622.0,0.0,1,333.0,1
157,157,-0.2161047955302412,-0.2,1.0,0.0,283.0,645.0,0.0,0,432.0,1
158,158,0.1946116723400536,0.2,0.0,0.0,486.0,989.0,0.0,1,285.0,1
159,159,0.7040716837781654,0.7,0.0,0.0,353.0,574.0,0.0,1,273.0,1
160,160,0.14720009211682317,0.1,1.0,1.0,424.0,921.0,0.0,0,-485.0,0
161,161,0.4649150622703141,0.5,1.0,1.0,313.0,924.0,1.0,1,313.0,1
162,162,-0.6938464804173728,-0.7,0.0,1.0,257.0,789.0,1.0,0,264.0,1
163,163,-0.49546204036276403,-0.5,1.0,0.0,377.0,932.0,0.0,0,471.0,1
164,164,0.4553027748496693,0.5,1.0,1.0,311.0,771.0,1.0,1,208.0,1
165,165,0.5591383408597629,0.6,0.0,0.0,346.0,765.0,0.0,1,269.0,1
166,166,0.3945278882371447,0.4,0.0,0.0,282.0,934.0,0.0,1,314.0,1
167,167,0.6460551029075844,0.6,0.0,0.0,454.0,571.0,0.0,1,205.0,1
168,168,-0.8080080007326457,-0.8,0.0,1.0,454.0,632.0,1.0,0,194.0,1
169,169,0.7087079341936536,0.7,0.0,0.0,491.0,531.0,0.0,1,378.0,1
170,170,0.20939834405003588,0.2,0.0,0.0,336.0,841.0,0.0,1,343.0,1
171,171,-0.6531401477518605,-0.7,0.0,1.0,337.0,808.0,1.0,0,265.0,1
172,172,0.19166587210300856,0.2,0.0,0.0,279.0,870.0,0.0,1,861.0,1
173,173,-0.4922628339219682,-0.5,0.0,1.0,359.0,526.0,1.0,0,505.0,1
174,174,-0.8505563777126176,-0.9,0.0,1.0,439.0,771.0,1.0,0,360.0,1
175,175,0.8353236764611344,0.8,1.0,1.0,255.0,948.0,1.0,1,237.0,1
176,176,0.3562198099769064,0.4,1.0,1.0,272.0,605.0,1.0,1,1063.0,1
177,177,-0.6168218082467383,-0.6,1.0,0.0,412.0,583.0,0.0,0,455.0,1
178,178,-0.19741288256049583,-0.2,1.0,0.0,323.0,600.0,0.0,0,557.0,1
179,179,-0.666923843554345,-0.7,1.0,0.0,335.0,967.0,0.0,0,128.0,1
180,180,-0.7130756755960148,-0.7,0.0,1.0,269.0,724.0,1.0,0,167.0,1
181,181,-0.7608365455249012,-0.8,0.0,1.0,324.0,871.0,1.0,0,165.0,1
182,182,-0.8184192810090078,-0.8,1.0,0.0,389.0,660.0,0.0,0,231.0,1
183,183,-0.8440393405958366,-0.8,1.0,0.0,403.0,921.0,0.0,0,106.0,1
184,184,-0.8996624262941079,-0.9,1.0,0.0,495.0,849.0,0.0,0,146.0,1
185,185,0.26231904435802733,0.3,1.0,1.0,414.0,962.0,1.0,1,1124.0,1
186,186,-0.05543734929202837,-0.1,0.0,1.0,312.0,668.0,1.0,0,4020.0,1
187,187,-0.8065144220039591,-0.8,1.0,0.0,332.0,557.0,0.0,0,191.0,1
188,188,0.1011509543280632,0.1,0.0,0.0,281.0,530.0,0.0,1,3769.0,1
189,189,0.17913230998415763,0.2,0.0,0.0,491.0,580.0,0.0,1,99.0,1
190,190,-0.6605933816238608,-0.7,0.0,1.0,486.0,612.0,1.0,0,192.0,1
191,191,0.7868700464975366,0.8,1.0,1.0,429.0,799.0,1.0,1,122.0,1
192,192,0.200806886818785,0.2,0.0,0.0,431.0,731.0,0.0,1,848.0,1
193,193,-0.7411316301455677,-0.7,1.0,0.0,497.0,544.0,0.0,0,219.0,1
194,194,-0.7574377536987659,-0.8,1.0,0.0,447.0,624.0,0.0,0,179.0,1
195,195,0.8189007122867563,0.8,1.0,1.0,497.0,806.0,0.0,0,-423.0,0
196,196,0.34151111071698226,0.3,1.0,1.0,415.0,555.0,1.0,1,570.0,1
197,197,-0.05043671137172545,-0.1,1.0,0.0,394.0,987.0,0.0,0,799.0,1
198,198,0.8350554735046741,0.8,1.0,1.0,410.0,538.0,1.0,1,422.0,1
199,199,-0.2123710760369395,-0.2,1.0,0.0,383.0,743.0,0.0,0,494.0,1
200,200,0.0298150380756953,0.0,1.0,1.0,286.0,571.0,1.0,1,4143.0,1
201,201,-0.12190131343805677,-0.1,0.0,1.0,259.0,534.0,1.0,0,417.0,1
202,202,-0.06972833556864289,-0.1,0.0,1.0,414.0,692.0,0.0,1,3894.0,0
203,203,0.06001559504486842,0.1,1.0,1.0,470.0,551.0,0.0,0,2379.0,0
204,204,-0.4610790885162056,-0.5,1.0,0.0,467.0,914.0,0.0,0,509.0,1
205,205,-0.7370131859194622,-0.7,1.0,0.0,318.0,612.0,0.0,0,170.0,1
206,206,-0.41842095760564374,-0.4,1.0,0.0,443.0,718.0,0.0,0,509.0,1
207,207,0.08951494947979444,0.1,0.0,0.0,334.0,687.0,0.0,1,369.0,1
208,208,0.8491670642458303,0.8,1.0,1.0,340.0,651.0,1.0,1,209.0,1
209,209,0.5669450632746237,0.6,1.0,1.0,266.0,756.0,1.0,1,368.0,1
210,210,0.5808855569537154,0.6,0.0,0.0,299.0,732.0,0.0,1,189.0,1
211,211,0.40509929498738917,0.4,0.0,0.0,433.0,634.0,0.0,1,183.0,1
212,212,-0.5174691890346343,-0.5,1.0,0.0,446.0,645.0,0.0,0,249.0,1
213,213,-0.805089844488335,-0.8,0.0,1.0,261.0,836.0,0.0,1,-57.0,0
214,214,-0.7267157765079019,-0.7,0.0,1.0,472.0,560.0,1.0,0,438.0,1
215,215,-0.8826735532504251,-0.9,1.0,0.0,439.0,563.0,0.0,0,28.0,1
216,216,0.4326912600723668,0.4,0.0,0.0,402.0,950.0,0.0,1,578.0,1
217,217,0.896369502064288,0.9,1.0,1.0,391.0,726.0,1.0,1,523.0,1
218,218,0.1047464186568231,0.1,0.0,0.0,459.0,672.0,0.0,1,1819.0,1
219,219,-0.3303210383248578,-0.3,0.0,1.0,414.0,585.0,1.0,0,591.0,1
220,220,-0.18177320276131947,-0.2,0.0,1.0,499.0,742.0,1.0,0,589.0,1
221,221,0.48054879798507233,0.5,0.0,0.0,354.0,662.0,0.0,1,604.0,1
222,222,0.44445907100291115,0.4,0.0,0.0,422.0,604.0,0.0,1,444.0,1
223,223,0.2315213356038902,0.2,1.0,1.0,371.0,680.0,0.0,0,-31.0,0
224,224,-0.3352725192756818,-0.3,0.0,1.0,421.0,675.0,1.0,0,944.0,1
225,225,0.46812989940860084,0.5,1.0,1.0,366.0,836.0,1.0,1,378.0,1
226,226,-0.18722138328578386,-0.2,0.0,1.0,312.0,943.0,1.0,0,905.0,1
227,227,0.5034366459316532,0.5,1.0,1.0,460.0,551.0,1.0,1,249.0,1
228,228,-0.41847176059400926,-0.4,1.0,0.0,447.0,925.0,0.0,0,648.0,1
229,229,-0.7380873479278484,-0.7,1.0,0.0,337.0,564.0,0.0,0,209.0,1
230,230,-0.5197217753910577,-0.5,0.0,1.0,362.0,673.0,1.0,0,355.0,1
231,231,0.44519909293570137,0.4,1.0,1.0,343.0,555.0,1.0,1,182.0,1
232,232,-0.059434809353206774,-0.1,1.0,0.0,415.0,953.0,0.0,0,1242.0,1
233,233,-0.3823985831664911,-0.4,0.0,1.0,386.0,900.0,1.0,0,524.0,1
234,234,0.8440741743419508,0.8,1.0,1.0,399.0,934.0,1.0,1,277.0,1
235,235,-0.16440684249627646,-0.2,0.0,1.0,347.0,546.0,1.0,0,1347.0,1
236,236,0.651597998583345,0.7,1.0,1.0,339.0,975.0,1.0,1,196.0,1
237,237,0.6381235402630362,0.6,0.0,0.0,436.0,741.0,0.0,1,243.0,1
238,238,0.47014459222831817,0.5,0.0,0.0,426.0,864.0,0.0,1,560.0,1
239,239,0.7935047991794714,0.8,0.0,0.0,256.0,707.0,0.0,1,337.0,1
240,240,0.3225058406991047,0.3,0.0,0.0,255.0,540.0,0.0,1,605.0,1
241,241,0.7604366901520022,0.8,0.0,0.0,379.0,644.0,0.0,1,327.0,1
242,242,0.11206682095311515,0.1,1.0,1.0,269.0,632.0,1.0,1,999.0,1
243,243,0.8112377312527611,0.8,0.0,0.0,270.0,952.0,0.0,1,258.0,1
244,244,-0.19067104835573834,-0.2,0.0,1.0,268.0,550.0,1.0,0,632.0,1
245,245,0.7698474275674719,0.8,1.0,1.0,433.0,702.0,1.0,1,155.0,1
246,246,-0.8742888086156787,-0.9,1.0,0.0,266.0,838.0,0.0,0,186.0,1
247,247,-0.3253640345832379,-0.3,0.0,1.0,276.0,661.0,1.0,0,513.0,1
248,248,-0.4311152229207025,-0.4,1.0,0.0,314.0,755.0,0.0,0,381.0,1
249,249,-0.09799674137593173,-0.1,0.0,1.0,322.0,798.0,1.0,0,770.0,1
250,250,0.7455412083233482,0.7,1.0,1.0,376.0,889.0,1.0,1,235.0,1
251,251,-0.8666214102793203,-0.9,0.0,1.0,328.0,660.0,1.0,0,112.0,1
252,252,-0.13199861747007713,-0.1,0.0,1.0,321.0,560.0,1.0,0,2219.0,1
253,253,-0.39247676305219426,-0.4,1.0,0.0,495.0,750.0,0.0,0,595.0,1
254,254,-0.5996494376625252,-0.6,0.0,1.0,457.0,504.0,1.0,0,359.0,1
255,255,0.061033986372089344,0.1,0.0,0.0,364.0,785.0,0.0,1,3391.0,1
256,256,0.4325314063424909,0.4,1.0,1.0,293.0,796.0,1.0,1,951.0,1
257,257,0.11329949406264406,0.1,0.0,0.0,389.0,530.0,0.0,1,431.0,1
258,258,0.31860601258168886,0.3,0.0,0.0,370.0,928.0,0.0,1,552.0,1
259,259,0.03867887094402844,0.0,0.0,0.0,404.0,582.0,0.0,1,4014.0,1
260,260,0.4034325236923625,0.4,0.0,0.0,342.0,558.0,0.0,1,780.0,1
261,261,-0.24289711611973497,-0.2,1.0,0.0,477.0,533.0,0.0,0,340.0,1
262,262,-0.22782523081856842,-0.2,1.0,0.0,346.0,621.0,0.0,0,603.0,1
263,263,0.7146667395483147,0.7,0.0,0.0,356.0,942.0,0.0,1,312.0,1
264,264,-0.04816975837980819,-0.0,0.0,1.0,261.0,975.0,1.0,0,3764.0,1
265,265,-0.8680280585024202,-0.9,1.0,0.0,431.0,561.0,0.0,0,158.0,1
266,266,-0.2765222938673375,-0.3,0.0,1.0,311.0,754.0,1.0,0,405.0,1
267,267,-0.3910976007064342,-0.4,0.0,1.0,456.0,521.0,1.0,0,393.0,1
268,268,0.6496953275833189,0.6,1.0,1.0,283.0,740.0,1.0,1,207.0,1
269,269,-0.29151014538053543,-0.3,1.0,0.0,322.0,663.0,0.0,0,225.0,1
270,270,0.7847640466684288,0.8,1.0,1.0,412.0,875.0,1.0,1,183.0,1
271,271,0.14565485998297512,0.1,1.0,1.0,375.0,568.0,1.0,1,1117.0,1
272,272,-0.5215840622813259,-0.5,0.0,1.0,456.0,934.0,1.0,0,440.0,1
273,273,0.8187998347933728,0.8,0.0,0.0,368.0,551.0,0.0,1,491.0,1
274,274,0.4508202893594223,0.5,0.0,0.0,373.0,557.0,0.0,1,490.0,1
275,275,0.7372305976229484,0.7,0.0,0.0,433.0,773.0,0.0,1,264.0,1
276,276,0.4969895850954996,0.5,1.0,1.0,387.0,665.0,1.0,1,408.0,1
277,277,0.547240692376895,0.5,0.0,0.0,447.0,538.0,0.0,1,365.0,1
278,278,0.7736470454468,0.8,0.0,0.0,315.0,952.0,0.0,1,303.0,1
279,279,-0.21890687567497236,-0.2,0.0,1.0,279.0,637.0,1.0,0,464.0,1
280,280,0.645701427762042,0.6,1.0,1.0,470.0,581.0,1.0,1,439.0,1
281,281,-0.1672532073247074,-0.2,0.0,1.0,255.0,766.0,1.0,0,1669.0,1
282,282,0.13818561515395789,0.1,1.0,1.0,457.0,987.0,1.0,1,1256.0,1
283,283,0.09456631923432324,0.1,1.0,1.0,393.0,764.0,1.0,1,1753.0,1
284,284,0.259245564991159,0.3,1.0,1.0,312.0,740.0,1.0,1,-182.0,1
285,285,-0.8725121688566359,-0.9,0.0,1.0,299.0,509.0,1.0,0,312.0,1
286,286,0.7015888957555522,0.7,1.0,1.0,276.0,743.0,1.0,1,451.0,1
287,287,0.10622484548905387,0.1,1.0,1.0,349.0,656.0,1.0,1,1815.0,1
288,288,0.37259324394236126,0.4,1.0,1.0,448.0,944.0,1.0,1,818.0,1
289,289,0.8662356364340719,0.9,0.0,0.0,342.0,613.0,0.0,1,155.0,1
290,290,-0.20416025994132925,-0.2,1.0,0.0,403.0,560.0,0.0,0,327.0,1
291,291,-0.46334455762264076,-0.5,0.0,1.0,469.0,985.0,1.0,0,576.0,1
292,292,-0.5113871102151779,-0.5,1.0,0.0,491.0,997.0,0.0,0,192.0,1
293,293,0.15505152043433956,0.2,0.0,0.0,319.0,929.0,0.0,1,-58.0,1
294,294,0.12903703687109658,0.1,1.0,1.0,347.0,952.0,0.0,0,-69.0,0
295,295,-0.15201033700432887,-0.2,1.0,0.0,414.0,594.0,0.0,0,632.0,1
296,296,0.39169483603659694,0.4,1.0,1.0,420.0,780.0,1.0,1,810.0,1
297,297,-0.8607582134555629,-0.9,0.0,1.0,390.0,658.0,1.0,0,162.0,1
298,298,-0.09166641418971189,-0.1,0.0,1.0,289.0,582.0,0.0,1,4129.0,0
299,299,-0.1823007233463596,-0.2,0.0,1.0,441.0,933.0,1.0,0,866.0,1
300,300,-0.8132360111306501,-0.8,1.0,0.0,379.0,647.0,0.0,0,244.0,1
301,301,-0.004365111514796571,-0.0,0.0,1.0,297.0,918.0,1.0,0,3345.0,1
302,302,-0.49812642471082846,-0.5,1.0,0.0,324.0,858.0,0.0,0,108.0,1
303,303,-0.3239465434435804,-0.3,0.0,1.0,336.0,578.0,1.0,0,606.0,1
304,304,-0.19505073953963437,-0.2,1.0,0.0,339.0,678.0,0.0,0,1043.0,1
305,305,-0.7259266263153474,-0.7,0.0,1.0,403.0,892.0,1.0,0,415.0,1
306,306,0.5172905421627073,0.5,1.0,1.0,304.0,522.0,1.0,1,334.0,1
307,307,-0.14117113409917437,-0.1,0.0,1.0,331.0,745.0,1.0,0,3924.0,1
308,308,0.7897785084871306,0.8,1.0,1.0,408.0,917.0,1.0,1,215.0,1
309,309,0.7182689627565798,0.7,1.0,1.0,439.0,602.0,1.0,1,359.0,1
310,310,0.626992017643219,0.6,0.0,0.0,486.0,632.0,0.0,1,362.0,1
311,311,-0.6073118587616704,-0.6,1.0,0.0,475.0,965.0,0.0,0,140.0,1
312,312,-0.5598037200657222,-0.6,0.0,1.0,373.0,701.0,1.0,0,136.0,1
313,313,-0.11078465923063463,-0.1,0.0,1.0,370.0,994.0,1.0,0,3636.0,1
314,314,0.8143211057245757,0.8,0.0,0.0,329.0,736.0,0.0,1,165.0,1
315,315,-0.8202835245909367,-0.8,1.0,0.0,412.0,916.0,0.0,0,132.0,1
316,316,-0.89057618932809,-0.9,1.0,0.0,267.0,775.0,0.0,0,198.0,1
317,317,0.3995651749017085,0.4,1.0,1.0,470.0,603.0,1.0,1,487.0,1
318,318,0.7409517150913064,0.7,0.0,0.0,472.0,984.0,0.0,1,224.0,1
319,319,-0.6901137656287015,-0.7,0.0,1.0,377.0,679.0,1.0,0,364.0,1
320,320,0.2725146449566741,0.3,1.0,1.0,484.0,870.0,1.0,1,1726.0,1
321,321,0.7875196786495736,0.8,1.0,1.0,280.0,707.0,0.0,0,-77.0,0
322,322,-0.48990764998879943,-0.5,1.0,0.0,259.0,740.0,0.0,0,101.0,1
323,323,-0.8779079935913525,-0.9,1.0,0.0,412.0,879.0,0.0,0,109.0,1
324,324,0.153688896051292,0.2,1.0,1.0,453.0,584.0,1.0,1,1413.0,1
325,325,-0.45191045117493595,-0.5,0.0,1.0,396.0,572.0,1.0,0,552.0,1
326,326,-0.46249206562510065,-0.5,0.0,1.0,314.0,549.0,1.0,0,517.0,1
327,327,0.3280280843244533,0.3,1.0,1.0,425.0,918.0,1.0,1,837.0,1
328,328,0.23249642389973835,0.2,0.0,0.0,391.0,924.0,0.0,1,-25.0,1
329,329,-0.3617938650792405,-0.4,0.0,1.0,401.0,550.0,1.0,0,909.0,1
330,330,-0.5669744317577898,-0.6,1.0,0.0,259.0,662.0,0.0,0,249.0,1
331,331,-0.4930026235201738,-0.5,0.0,1.0,408.0,956.0,1.0,0,156.0,1
332,332,0.3869813394315119,0.4,1.0,1.0,278.0,624.0,1.0,1,718.0,1
333,333,0.6924409358995173,0.7,1.0,1.0,425.0,537.0,1.0,1,218.0,1
334,334,-0.8536825417203753,-0.9,0.0,1.0,351.0,873.0,1.0,0,266.0,1
335,335,0.8934581875622659,0.9,0.0,0.0,420.0,681.0,0.0,1,289.0,1
336,336,-0.8352441740937226,-0.8,0.0,1.0,419.0,941.0,1.0,0,270.0,1
337,337,-0.7857756250320285,-0.8,1.0,0.0,253.0,981.0,0.0,0,-44.0,1
338,338,0.4139362509574135,0.4,0.0,0.0,333.0,755.0,0.0,1,422.0,1
339,339,0.2732430591811489,0.3,0.0,0.0,354.0,559.0,0.0,1,457.0,1
340,340,-0.777679724076446,-0.8,0.0,1.0,395.0,856.0,1.0,0,479.0,1
341,341,-0.024040147088464803,-0.0,0.0,1.0,254.0,762.0,0.0,1,694.0,0
342,342,-0.42419532595642406,-0.4,1.0,0.0,270.0,584.0,0.0,0,466.0,1
343,343,0.28110012932184325,0.3,1.0,1.0,477.0,877.0,1.0,1,376.0,1
344,344,-0.3333065195857511,-0.3,1.0,0.0,328.0,686.0,0.0,0,436.0,1
345,345,0.2496814822198682,0.2,1.0,1.0,270.0,610.0,1.0,1,470.0,1
346,346,-0.7892772334302998,-0.8,0.0,1.0,322.0,939.0,1.0,0,239.0,1
347,347,0.16945009030063807,0.2,1.0,1.0,478.0,782.0,1.0,1,1540.0,1
348,348,0.7671855508715523,0.8,0.0,0.0,480.0,536.0,0.0,1,84.0,1
349,349,-0.6349321057322153,-0.6,0.0,1.0,266.0,698.0,1.0,0,486.0,1
350,350,0.43082933424485736,0.4,1.0,1.0,422.0,733.0,0.0,0,-235.0,0
351,351,0.35019758384983224,0.4,0.0,0.0,494.0,920.0,0.0,1,526.0,1
352,352,-0.0753117874668141,-0.1,0.0,1.0,455.0,782.0,1.0,0,3763.0,1
353,353,0.30618677121243565,0.3,0.0,0.0,383.0,730.0,0.0,1,737.0,1
354,354,0.3734054438201345,0.4,0.0,0.0,437.0,634.0,0.0,1,949.0,1
355,355,0.059389880275939944,0.1,1.0,1.0,353.0,562.0,1.0,1,3935.0,1
356,356,0.08567400851510432,0.1,0.0,0.0,386.0,606.0,0.0,1,1198.0,1
357,357,-0.5455667956432277,-0.5,1.0,0.0,346.0,534.0,0.0,0,310.0,1
358,358,-0.15817614374676192,-0.2,0.0,1.0,491.0,943.0,1.0,0,946.0,1
359,359,-0.037747127033438854,-0.0,0.0,1.0,480.0,694.0,0.0,1,3826.0,0
360,360,-0.8382405598184672,-0.8,1.0,0.0,299.0,649.0,0.0,0,182.0,1
361,361,0.09221448706383051,0.1,1.0,1.0,358.0,954.0,0.0,0,-122.0,0
362,362,-0.12605434270832216,-0.1,0.0,1.0,297.0,664.0,1.0,0,1029.0,1
363,363,-0.5374963188838942,-0.5,1.0,0.0,320.0,870.0,0.0,0,250.0,1
364,364,0.8513468746411826,0.9,1.0,1.0,364.0,821.0,1.0,1,215.0,1
365,365,0.26136822011008476,0.3,1.0,1.0,307.0,626.0,1.0,1,867.0,1
366,366,0.8924791594393185,0.9,0.0,0.0,362.0,783.0,0.0,1,185.0,1
367,367,0.46980284366708724,0.5,1.0,1.0,419.0,700.0,1.0,1,631.0,1
368,368,-0.48962363876828324,-0.5,0.0,1.0,470.0,683.0,0.0,1,7.0,0
369,369,0.24754163646578597,0.2,1.0,1.0,327.0,615.0,1.0,1,1068.0,1
370,370,0.015696311091015658,0.0,0.0,0.0,271.0,533.0,1.0,0,1866.0,0
371,371,0.574905068419031,0.6,0.0,0.0,480.0,591.0,0.0,1,209.0,1
372,372,0.7124050681603925,0.7,1.0,1.0,295.0,900.0,1.0,1,315.0,1
373,373,0.17022524885414347,0.2,0.0,0.0,319.0,784.0,0.0,1,447.0,1
374,374,0.8182579692625057,0.8,0.0,0.0,410.0,598.0,0.0,1,232.0,1
375,375,0.8950604954600433,0.9,1.0,1.0,405.0,669.0,1.0,1,236.0,1
376,376,-0.6299420639751139,-0.6,1.0,0.0,428.0,793.0,0.0,0,329.0,1
377,377,-0.6174433126698842,-0.6,0.0,1.0,272.0,787.0,1.0,0,441.0,1
378,378,-0.05493691094589925,-0.1,0.0,1.0,490.0,788.0,1.0,0,2102.0,1
379,379,0.7274361346489934,0.7,0.0,0.0,383.0,532.0,0.0,1,365.0,1
380,380,0.4303063884612298,0.4,1.0,1.0,445.0,922.0,1.0,1,353.0,1
381,381,-0.6780462214347144,-0.7,0.0,1.0,476.0,970.0,1.0,0,364.0,1
382,382,-0.10815609625603861,-0.1,1.0,0.0,304.0,912.0,0.0,0,-256.0,1
383,383,0.14252081560222007,0.1,1.0,1.0,492.0,852.0,1.0,1,426.0,1
384,384,-0.13324198684743438,-0.1,0.0,1.0,330.0,924.0,1.0,0,1156.0,1
385,385,0.11094418379697435,0.1,1.0,1.0,376.0,859.0,1.0,1,1775.0,1
386,386,-0.5909588852050764,-0.6,1.0,0.0,274.0,665.0,0.0,0,221.0,1
387,387,-0.39096449161919344,-0.4,0.0,1.0,342.0,916.0,1.0,0,382.0,1
388,388,-0.8025162522532002,-0.8,0.0,1.0,408.0,886.0,1.0,0,46.0,1
389,389,-0.5892832206963698,-0.6,1.0,0.0,488.0,695.0,0.0,0,217.0,1
390,390,0.06255586265411606,0.1,0.0,0.0,276.0,843.0,0.0,1,1551.0,1
391,391,0.06536515563247447,0.1,1.0,1.0,349.0,633.0,1.0,1,1398.0,1
392,392,-0.8311461676348999,-0.8,0.0,1.0,383.0,574.0,1.0,0,333.0,1
393,393,-0.13800688493863023,-0.1,0.0,1.0,479.0,729.0,1.0,0,3412.0,1
394,394,-0.3609650991028044,-0.4,0.0,1.0,260.0,550.0,1.0,0,530.0,1
395,395,-0.8510315174986857,-0.9,0.0,1.0,250.0,966.0,1.0,0,454.0,1
396,396,0.4707389429806813,0.5,0.0,0.0,490.0,827.0,0.0,1,293.0,1
397,397,-0.5827383620783018,-0.6,0.0,1.0,284.0,591.0,1.0,0,165.0,1
398,398,0.35369189073623686,0.4,1.0,1.0,490.0,625.0,1.0,1,635.0,1
399,399,0.5251923800341597,0.5,0.0,0.0,270.0,884.0,0.0,1,166.0,1
400,400,0.5954225130842453,0.6,0.0,0.0,391.0,671.0,0.0,1,378.0,1
401,401,-0.04743052209116827,-0.0,0.0,1.0,437.0,626.0,1.0,0,-163.0,1
402,402,-0.7609266991388592,-0.8,1.0,0.0,411.0,687.0,0.0,0,232.0,1
403,403,0.03304311375642488,0.0,0.0,0.0,445.0,908.0,0.0,1,1247.0,1
404,404,0.05140764406919707,0.1,0.0,0.0,497.0,680.0,0.0,1,33.0,1
405,405,-0.4131660241737383,-0.4,1.0,0.0,480.0,541.0,0.0,0,259.0,1
406,406,0.39750129462612593,0.4,0.0,0.0,468.0,991.0,0.0,1,421.0,1
407,407,-0.08510173794947751,-0.1,0.0,1.0,344.0,536.0,1.0,0,2180.0,1
408,408,-0.056816920519770164,-0.1,1.0,0.0,458.0,507.0,0.0,0,715.0,1
409,409,0.46769933203636727,0.5,0.0,0.0,303.0,500.0,0.0,1,277.0,1
410,410,0.21919308275668892,0.2,1.0,1.0,381.0,898.0,1.0,1,771.0,1
411,411,0.11571750366091071,0.1,1.0,1.0,327.0,837.0,1.0,1,1936.0,1
412,412,0.6022202332166423,0.6,1.0,1.0,451.0,526.0,0.0,0,-377.0,0
413,413,-0.06473796094597406,-0.1,1.0,0.0,279.0,833.0,1.0,1,-62.0,0
414,414,0.12379854522294653,0.1,1.0,1.0,390.0,675.0,1.0,1,1335.0,1
415,415,-0.6643209303999402,-0.7,1.0,0.0,409.0,640.0,0.0,0,241.0,1
416,416,-0.4351596185984756,-0.4,0.0,1.0,399.0,859.0,1.0,0,522.0,1
417,417,0.5347312076371976,0.5,0.0,0.0,441.0,930.0,0.0,1,429.0,1
418,418,0.3473016218291901,0.3,1.0,1.0,375.0,941.0,1.0,1,254.0,1
419,419,0.46281405286167254,0.5,1.0,1.0,308.0,889.0,1.0,1,823.0,1
420,420,-0.4154824572695591,-0.4,0.0,1.0,347.0,586.0,1.0,0,197.0,1
421,421,0.14340629524936432,0.1,1.0,1.0,415.0,668.0,1.0,1,3917.0,1
422,422,-0.375350750042337,-0.4,0.0,1.0,355.0,926.0,1.0,0,219.0,1
423,423,0.6873168687797854,0.7,0.0,0.0,374.0,715.0,0.0,1,231.0,1
424,424,-0.37452936880772936,-0.4,1.0,0.0,486.0,877.0,0.0,0,467.0,1
425,425,0.4792353273411446,0.5,1.0,1.0,257.0,973.0,1.0,1,360.0,1
426,426,-0.4354624666654672,-0.4,1.0,0.0,350.0,929.0,0.0,0,331.0,1
427,427,-0.8222826925352057,-0.8,1.0,0.0,477.0,909.0,0.0,0,334.0,1
428,428,0.7997038985030601,0.8,0.0,0.0,480.0,553.0,0.0,1,287.0,1
429,429,-0.08134097210899183,-0.1,1.0,0.0,398.0,617.0,0.0,0,735.0,1
430,430,-0.7834353032966656,-0.8,0.0,1.0,313.0,892.0,1.0,0,285.0,1
431,431,0.29453660863142705,0.3,1.0,1.0,496.0,682.0,0.0,0,-218.0,0
432,432,-0.8886638460303506,-0.9,1.0,0.0,318.0,631.0,0.0,0,331.0,1
433,433,0.5064947635866391,0.5,0.0,0.0,301.0,571.0,0.0,1,158.0,1
434,434,-0.8388039987931444,-0.8,1.0,0.0,432.0,501.0,0.0,0,217.0,1
435,435,0.7200868106101584,0.7,1.0,1.0,316.0,929.0,1.0,1,265.0,1
436,436,-0.6484332048459432,-0.6,0.0,1.0,348.0,750.0,1.0,0,412.0,1
437,437,-0.3139121705321727,-0.3,1.0,0.0,329.0,748.0,0.0,0,253.0,1
438,438,0.28852605036285695,0.3,1.0,1.0,263.0,773.0,0.0,0,-576.0,0
439,439,0.07264292742934342,0.1,0.0,0.0,256.0,950.0,0.0,1,1314.0,1
440,440,-0.3983491882970901,-0.4,1.0,0.0,366.0,775.0,0.0,0,479.0,1
441,441,-0.2115078338939964,-0.2,0.0,1.0,292.0,727.0,1.0,0,841.0,1
442,442,-0.7990130690711973,-0.8,1.0,0.0,387.0,954.0,0.0,0,209.0,1
443,443,-0.4155190414092352,-0.4,0.0,1.0,298.0,548.0,1.0,0,254.0,1
444,444,-0.8818277400515849,-0.9,1.0,0.0,285.0,780.0,0.0,0,215.0,1
445,445,0.7393988027960611,0.7,1.0,1.0,388.0,689.0,0.0,0,-197.0,0
446,446,-0.7474719467323355,-0.7,1.0,0.0,447.0,964.0,0.0,0,-111.0,1
447,447,0.2157259528370391,0.2,0.0,0.0,286.0,800.0,0.0,1,604.0,1
448,448,0.1465432820572502,0.1,0.0,0.0,408.0,960.0,0.0,1,672.0,1
449,449,-0.23265872225538986,-0.2,1.0,0.0,439.0,836.0,0.0,0,315.0,1
450,450,0.7328020173551685,0.7,0.0,0.0,333.0,853.0,0.0,1,214.0,1
451,451,-0.04282596650938275,-0.0,0.0,1.0,252.0,933.0,0.0,1,3815.0,0
452,452,0.504874435337287,0.5,0.0,0.0,431.0,984.0,0.0,1,315.0,1
453,453,-0.08224521189838563,-0.1,1.0,0.0,457.0,920.0,0.0,0,333.0,1
454,454,0.17325512570792012,0.2,0.0,0.0,290.0,801.0,0.0,1,209.0,1
455,455,0.6384311388333771,0.6,0.0,0.0,301.0,519.0,0.0,1,200.0,1
456,456,-0.8499234974118783,-0.8,1.0,0.0,400.0,647.0,0.0,0,203.0,1
457,457,-0.262512825502353,-0.3,1.0,0.0,304.0,690.0,0.0,0,196.0,1
458,458,0.531496121881844,0.5,1.0,1.0,392.0,785.0,1.0,1,193.0,1
459,459,-0.5846111329673316,-0.6,1.0,0.0,352.0,966.0,0.0,0,192.0,1
460,460,-0.34905842171274226,-0.3,0.0,1.0,400.0,864.0,1.0,0,426.0,1
461,461,0.5406058412281726,0.5,1.0,1.0,296.0,887.0,1.0,1,547.0,1
462,462,0.6779279874539629,0.7,0.0,0.0,456.0,678.0,0.0,1,296.0,1
463,463,0.3297799421027586,0.3,0.0,0.0,466.0,531.0,0.0,1,483.0,1
464,464,-0.6022908890126124,-0.6,1.0,0.0,287.0,794.0,0.0,0,309.0,1
465,465,-0.6460527938318961,-0.6,0.0,1.0,454.0,512.0,1.0,0,94.0,1
466,466,0.06100465098840391,0.1,1.0,1.0,431.0,551.0,1.0,1,4018.0,1
467,467,-0.22287561959461544,-0.2,1.0,0.0,358.0,786.0,0.0,0,-184.0,1
468,468,-0.7801405040789073,-0.8,1.0,0.0,448.0,543.0,0.0,0,-181.0,1
469,469,0.8859967605076687,0.9,1.0,1.0,366.0,657.0,1.0,1,467.0,1
470,470,0.037108137647323014,0.0,1.0,1.0,430.0,774.0,0.0,0,3406.0,0
471,471,-0.4922927357430318,-0.5,1.0,0.0,396.0,931.0,0.0,0,43.0,1
472,472,0.7382047039762017,0.7,1.0,1.0,291.0,535.0,1.0,1,274.0,1
473,473,0.824734999236414,0.8,0.0,0.0,403.0,681.0,0.0,1,306.0,1
474,474,-0.05940239123908875,-0.1,1.0,0.0,339.0,862.0,0.0,0,1589.0,1
475,475,0.833369889055482,0.8,1.0,1.0,322.0,961.0,1.0,1,407.0,1
476,476,0.4492014247771635,0.4,0.0,0.0,400.0,972.0,0.0,1,-72.0,1
477,477,0.10706227497442644,0.1,0.0,0.0,398.0,849.0,0.0,1,873.0,1
478,478,0.49104851679293937,0.5,0.0,0.0,465.0,589.0,0.0,1,246.0,1
479,479,0.5815866572204939,0.6,0.0,0.0,382.0,787.0,0.0,1,261.0,1
480,480,0.4202188946878459,0.4,1.0,1.0,322.0,888.0,0.0,0,-370.0,0
481,481,-0.896392759874317,-0.9,0.0,1.0,298.0,849.0,1.0,0,243.0,1
482,482,-0.39570127081636697,-0.4,1.0,0.0,452.0,562.0,0.0,0,556.0,1
483,483,-0.3754102220926241,-0.4,0.0,1.0,381.0,836.0,1.0,0,623.0,1
484,484,0.5860377633236876,0.6,1.0,1.0,455.0,675.0,0.0,0,-60.0,0
485,485,0.4817958958144074,0.5,0.0,0.0,446.0,852.0,0.0,1,672.0,1
486,486,0.18012302987626316,0.2,0.0,0.0,269.0,707.0,0.0,1,774.0,1
487,487,-0.07493148529783644,-0.1,0.0,1.0,436.0,989.0,1.0,0,3315.0,1
488,488,0.6156581060033498,0.6,1.0,1.0,470.0,907.0,1.0,1,223.0,1
489,489,0.4006351771013733,0.4,1.0,1.0,252.0,951.0,1.0,1,917.0,1
490,490,0.477871779650478,0.5,1.0,1.0,331.0,899.0,1.0,1,220.0,1
491,491,0.6706733733497966,0.7,1.0,1.0,375.0,971.0,1.0,1,354.0,1
492,492,0.7574842686585946,0.8,0.0,0.0,289.0,986.0,0.0,1,55.0,1
493,493,0.5271792370995888,0.5,1.0,1.0,431.0,900.0,1.0,1,479.0,1
494,494,0.19003624541595732,0.2,0.0,0.0,328.0,518.0,0.0,1,654.0,1
495,495,0.8842414682171121,0.9,0.0,0.0,343.0,709.0,0.0,1,148.0,1
496,496,0.036724594217092066,0.0,1.0,1.0,294.0,813.0,1.0,1,2533.0,1
497,497,0.07614942342976594,0.1,1.0,1.0,386.0,509.0,1.0,1,3775.0,1
498,498,-0.40857434144438376,-0.4,0.0,1.0,289.0,788.0,1.0,0,233.0,1
499,499,0.8165326741480242,0.8,1.0,1.0,416.0,654.0,1.0,1,170.0,1
500,500,-0.7647685052526171,-0.8,1.0,0.0,278.0,573.0,0.0,0,199.0,1
501,501,0.4153080932545926,0.4,0.0,0.0,343.0,877.0,0.0,1,320.0,1
502,502,-0.6758907642292611,-0.7,1.0,0.0,260.0,783.0,0.0,0,157.0,1
503,503,0.5296683230118416,0.5,0.0,0.0,386.0,635.0,0.0,1,469.0,1
504,504,0.42951149676241174,0.4,1.0,1.0,448.0,763.0,1.0,1,249.0,1
505,505,0.6680631783114493,0.7,1.0,1.0,479.0,904.0,0.0,0,-223.0,0
506,506,-0.5205388915545324,-0.5,0.0,1.0,296.0,733.0,1.0,0,241.0,1
507,507,0.7199215955268409,0.7,0.0,0.0,263.0,656.0,0.0,1,241.0,1
508,508,0.2335044763905264,0.2,1.0,1.0,447.0,906.0,1.0,1,347.0,1
509,509,-0.0722647691648658,-0.1,1.0,0.0,423.0,692.0,0.0,0,315.0,1
510,510,-0.2032444986489753,-0.2,0.0,1.0,301.0,910.0,1.0,0,389.0,1
511,511,0.28910084449825046,0.3,1.0,1.0,295.0,579.0,1.0,1,1106.0,1
512,512,0.41777667333727975,0.4,0.0,0.0,479.0,922.0,0.0,1,459.0,1
513,513,0.3777417929293717,0.4,1.0,1.0,342.0,726.0,1.0,1,332.0,1
514,514,-0.6981238095892682,-0.7,0.0,1.0,483.0,615.0,1.0,0,222.0,1
515,515,0.5436779184644854,0.5,1.0,1.0,459.0,626.0,1.0,1,-15.0,1
516,516,0.013816436489344275,0.0,0.0,0.0,258.0,586.0,0.0,1,2276.0,1
517,517,-0.02828312887244555,-0.0,0.0,1.0,296.0,772.0,1.0,0,3932.0,1
518,518,-0.5194016242718638,-0.5,1.0,0.0,277.0,874.0,0.0,0,209.0,1
519,519,-0.3094879734167095,-0.3,0.0,1.0,257.0,663.0,1.0,0,390.0,1
520,520,0.0773614968526688,0.1,1.0,1.0,308.0,875.0,1.0,1,1517.0,1
521,521,0.6870508948271111,0.7,1.0,1.0,379.0,542.0,1.0,1,349.0,1
522,522,0.8411108875351975,0.8,0.0,0.0,451.0,642.0,0.0,1,307.0,1
523,523,0.07815943121326319,0.1,1.0,1.0,462.0,632.0,1.0,1,2146.0,1
524,524,0.10559098674886702,0.1,0.0,0.0,448.0,778.0,0.0,1,1784.0,1
525,525,0.48815717433222405,0.5,1.0,1.0,294.0,694.0,1.0,1,442.0,1
526,526,-0.5726712714713824,-0.6,1.0,0.0,407.0,897.0,0.0,0,106.0,1
527,527,0.7111357800163528,0.7,0.0,0.0,304.0,854.0,0.0,1,222.0,1
528,528,0.37284973625713624,0.4,0.0,0.0,409.0,866.0,0.0,1,795.0,1
529,529,-0.4580379693759448,-0.5,0.0,1.0,318.0,747.0,1.0,0,455.0,1
530,530,0.5098858741638884,0.5,0.0,0.0,442.0,540.0,0.0,1,338.0,1
531,531,0.18896531320114585,0.2,0.0,0.0,437.0,671.0,0.0,1,352.0,1
532,532,-0.8310206433074201,-0.8,0.0,1.0,314.0,696.0,1.0,0,220.0,1
533,533,0.628054625726486,0.6,0.0,0.0,281.0,866.0,0.0,1,273.0,1
534,534,0.16898319829638375,0.2,0.0,0.0,314.0,567.0,0.0,1,1269.0,1
535,535,-0.06350034918031378,-0.1,0.0,1.0,257.0,769.0,0.0,1,3974.0,0
536,536,0.486760210588261,0.5,0.0,0.0,418.0,658.0,0.0,1,454.0,1
537,537,-0.09556983959521093,-0.1,0.0,1.0,341.0,956.0,1.0,0,1233.0,1
538,538,-0.8095387707946979,-0.8,1.0,0.0,396.0,692.0,0.0,0,22.0,1
539,539,0.15820527961545483,0.2,0.0,0.0,452.0,849.0,0.0,1,559.0,1
540,540,0.49451943919328734,0.5,0.0,0.0,279.0,700.0,0.0,1,121.0,1
541,541,0.5489690381556488,0.5,0.0,0.0,318.0,796.0,0.0,1,536.0,1
542,542,0.526276232679835,0.5,1.0,1.0,301.0,728.0,1.0,1,511.0,1
543,543,-0.6635539927864867,-0.7,0.0,1.0,392.0,739.0,1.0,0,479.0,1
544,544,0.3941595683459299,0.4,1.0,1.0,470.0,869.0,1.0,1,601.0,1
545,545,0.8365055394468358,0.8,1.0,1.0,267.0,800.0,1.0,1,163.0,1
546,546,0.330158272569237,0.3,1.0,1.0,264.0,598.0,1.0,1,288.0,1
547,547,0.3113276042611749,0.3,0.0,0.0,288.0,943.0,0.0,1,439.0,1
548,548,-0.6070340636308764,-0.6,0.0,1.0,301.0,966.0,1.0,0,393.0,1
549,549,0.6957453533236525,0.7,1.0,1.0,344.0,548.0,1.0,1,138.0,1
550,550,-0.44558331791739325,-0.4,0.0,1.0,307.0,705.0,1.0,0,448.0,1
551,551,-0.7288464480405781,-0.7,0.0,1.0,253.0,809.0,1.0,0,88.0,1
552,552,-0.27366359532245976,-0.3,0.0,1.0,335.0,925.0,1.0,0,600.0,1
553,553,-0.3120441456508485,-0.3,1.0,0.0,463.0,907.0,0.0,0,220.0,1
554,554,0.4989980636881378,0.5,0.0,0.0,466.0,873.0,0.0,1,371.0,1
555,555,-0.7765807406631559,-0.8,1.0,0.0,466.0,964.0,0.0,0,130.0,1
556,556,0.8614411724583287,0.9,0.0,0.0,251.0,895.0,0.0,1,204.0,1
557,557,-0.6253896744266753,-0.6,0.0,1.0,251.0,992.0,1.0,0,167.0,1
558,558,-0.6800927872362852,-0.7,0.0,1.0,255.0,578.0,1.0,0,297.0,1
559,559,0.8727169067391828,0.9,1.0,1.0,414.0,892.0,1.0,1,784.0,1
560,560,0.7028440311960727,0.7,0.0,0.0,256.0,733.0,0.0,1,171.0,1
561,561,-0.5298840291267763,-0.5,1.0,0.0,471.0,844.0,0.0,0,155.0,1
562,562,0.7894762266281633,0.8,0.0,0.0,494.0,655.0,0.0,1,191.0,1
563,563,-0.516704194825087,-0.5,1.0,0.0,265.0,828.0,0.0,0,397.0,1
564,564,-0.5934028701364721,-0.6,0.0,1.0,309.0,780.0,1.0,0,211.0,1
565,565,-0.1434935216915716,-0.1,1.0,0.0,287.0,878.0,0.0,0,685.0,1
566,566,0.10733094284878042,0.1,1.0,1.0,471.0,552.0,1.0,1,2467.0,1
567,567,0.05373043228151042,0.1,1.0,1.0,312.0,704.0,1.0,1,1194.0,1
568,568,-0.449364363758221,-0.4,0.0,1.0,472.0,757.0,1.0,0,281.0,1
569,569,-0.8403185410979194,-0.8,1.0,0.0,493.0,974.0,1.0,1,-207.0,0
570,570,0.5992603556686337,0.6,0.0,0.0,350.0,943.0,0.0,1,377.0,1
571,571,0.5966742514522864,0.6,1.0,1.0,379.0,802.0,1.0,1,509.0,1
572,572,0.1600524247524603,0.2,0.0,0.0,456.0,842.0,0.0,1,1412.0,1
573,573,0.859184786520567,0.9,0.0,0.0,462.0,870.0,0.0,1,-152.0,1
574,574,-0.685905181617715,-0.7,0.0,1.0,255.0,821.0,1.0,0,274.0,1
575,575,-0.535044790399783,-0.5,0.0,1.0,452.0,526.0,1.0,0,272.0,1
576,576,0.07891918487097871,0.1,1.0,1.0,454.0,762.0,1.0,1,2904.0,1
577,577,0.6895305852517687,0.7,0.0,0.0,366.0,913.0,0.0,1,281.0,1
578,578,0.8325903032574301,0.8,1.0,1.0,450.0,629.0,0.0,0,-209.0,0
579,579,-0.18593130949500103,-0.2,1.0,0.0,472.0,566.0,0.0,0,1762.0,1
580,580,0.6926597664249382,0.7,0.0,0.0,354.0,574.0,0.0,1,252.0,1
581,581,0.23102314841350402,0.2,0.0,0.0,342.0,749.0,0.0,1,599.0,1
582,582,-0.22579992426058115,-0.2,1.0,0.0,360.0,819.0,0.0,0,941.0,1
583,583,0.3795423067927318,0.4,0.0,0.0,323.0,708.0,0.0,1,269.0,1
584,584,0.4385527685157943,0.4,1.0,1.0,379.0,644.0,0.0,0,-233.0,0
585,585,-0.24840358720676925,-0.2,0.0,1.0,259.0,666.0,1.0,0,1315.0,1
586,586,0.12453325364716139,0.1,0.0,0.0,406.0,999.0,0.0,1,415.0,1
587,587,-0.46341443460533865,-0.5,0.0,1.0,459.0,799.0,1.0,0,182.0,1
588,588,0.24663412289232045,0.2,0.0,0.0,320.0,581.0,0.0,1,869.0,1
589,589,-0.7101236492871479,-0.7,0.0,1.0,330.0,902.0,1.0,0,348.0,1
590,590,-0.24290578915059124,-0.2,1.0,0.0,250.0,567.0,0.0,0,423.0,1
591,591,0.16591040841297444,0.2,1.0,1.0,473.0,939.0,1.0,1,598.0,1
592,592,-0.7228117011989895,-0.7,0.0,1.0,319.0,771.0,1.0,0,400.0,1
593,593,0.7720856405757711,0.8,0.0,0.0,329.0,603.0,0.0,1,328.0,1
594,594,0.11134970694053548,0.1,0.0,0.0,336.0,539.0,0.0,1,395.0,1
595,595,0.7608144251296268,0.8,0.0,0.0,295.0,959.0,0.0,1,306.0,1
596,596,-0.4022523658823913,-0.4,1.0,0.0,325.0,795.0,0.0,0,480.0,1
597,597,-0.2548232498459323,-0.3,1.0,0.0,286.0,890.0,0.0,0,344.0,1
598,598,-0.09227851984263757,-0.1,0.0,1.0,315.0,874.0,1.0,0,951.0,1
599,599,-0.682515220554203,-0.7,0.0,1.0,432.0,623.0,1.0,0,375.0,1
600,600,0.025756201909030163,0.0,0.0,0.0,494.0,901.0,0.0,1,675.0,1
601,601,0.06508070024009005,0.1,0.0,0.0,304.0,560.0,0.0,1,2736.0,1
602,602,-0.05813110536803767,-0.1,0.0,1.0,326.0,522.0,1.0,0,2092.0,1
603,603,0.7285399988830027,0.7,0.0,0.0,375.0,512.0,0.0,1,133.0,1
604,604,0.13026144112060856,0.1,0.0,0.0,395.0,944.0,0.0,1,911.0,1
605,605,0.3832565148063517,0.4,1.0,1.0,301.0,932.0,1.0,1,797.0,1
606,606,-0.1003978309781246,-0.1,0.0,1.0,367.0,953.0,1.0,0,1670.0,1
607,607,0.8037104912476204,0.8,0.0,0.0,458.0,919.0,0.0,1,193.0,1
608,608,-0.6329029255722574,-0.6,0.0,1.0,396.0,594.0,1.0,0,200.0,1
609,609,0.7925350751768042,0.8,0.0,0.0,358.0,915.0,0.0,1,247.0,1
610,610,0.786919323698477,0.8,0.0,0.0,381.0,919.0,0.0,1,260.0,1
611,611,-0.19209630741571437,-0.2,0.0,1.0,398.0,825.0,1.0,0,967.0,1
612,612,-0.16337159448533345,-0.2,1.0,0.0,276.0,647.0,0.0,0,697.0,1
613,613,0.7894166577913321,0.8,0.0,0.0,492.0,702.0,0.0,1,246.0,1
614,614,0.7439991841220185,0.7,0.0,0.0,476.0,821.0,0.0,1,273.0,1
615,615,-0.10064603227227709,-0.1,0.0,1.0,308.0,571.0,1.0,0,4121.0,1
616,616,0.05771870504923027,0.1,0.0,0.0,430.0,868.0,0.0,1,342.0,1
617,617,-0.7492622999127599,-0.7,0.0,1.0,368.0,838.0,1.0,0,344.0,1
618,618,0.342143525370059,0.3,0.0,0.0,322.0,834.0,0.0,1,284.0,1
619,619,-0.829779463142704,-0.8,1.0,0.0,253.0,661.0,0.0,0,356.0,1
620,620,-0.7717927318650502,-0.8,1.0,0.0,303.0,773.0,0.0,0,84.0,1
621,621,0.5454336112705652,0.5,0.0,0.0,308.0,943.0,0.0,1,309.0,1
622,622,0.014174452932559145,0.0,1.0,1.0,400.0,710.0,0.0,0,2130.0,0
623,623,-0.30131840519664,-0.3,1.0,0.0,306.0,540.0,0.0,0,34.0,1
624,624,-0.5323242421404688,-0.5,1.0,0.0,336.0,810.0,0.0,0,474.0,1
625,625,-0.05302838628748008,-0.1,0.0,1.0,317.0,602.0,0.0,1,4081.0,0
626,626,0.5070904060722331,0.5,1.0,1.0,457.0,524.0,1.0,1,469.0,1
627,627,-0.08675317836886509,-0.1,0.0,1.0,351.0,851.0,1.0,0,3608.0,1
628,628,-0.5785576287004299,-0.6,1.0,0.0,293.0,539.0,0.0,0,48.0,1
629,629,-0.021862676172834883,-0.0,0.0,1.0,254.0,725.0,1.0,0,4021.0,1
630,630,0.7896475636578796,0.8,1.0,1.0,343.0,873.0,0.0,0,-336.0,0
631,631,-0.10730731685503136,-0.1,0.0,1.0,284.0,648.0,1.0,0,1938.0,1
632,632,0.31641570168685995,0.3,0.0,0.0,379.0,568.0,0.0,1,833.0,1
633,633,-0.08692235176485097,-0.1,0.0,1.0,253.0,773.0,1.0,0,3974.0,1
634,634,0.5457741260136751,0.5,0.0,0.0,475.0,567.0,0.0,1,278.0,1
635,635,-0.1602472818257118,-0.2,0.0,1.0,252.0,516.0,1.0,0,612.0,1
636,636,0.7972575725048886,0.8,0.0,0.0,316.0,550.0,0.0,1,484.0,1
637,637,-0.5734357550318298,-0.6,0.0,1.0,333.0,550.0,1.0,0,637.0,1
638,638,0.13111670970478506,0.1,0.0,0.0,282.0,690.0,0.0,1,1218.0,1
639,639,-0.052749453079119046,-0.1,0.0,1.0,473.0,906.0,0.0,1,3621.0,0
640,640,-0.3650833494093859,-0.4,1.0,0.0,254.0,860.0,0.0,0,156.0,1
641,641,-0.5392913122017879,-0.5,1.0,0.0,498.0,763.0,0.0,0,189.0,1
642,642,-0.31010539922612756,-0.3,0.0,1.0,498.0,624.0,1.0,0,1688.0,1
643,643,0.620713377196832,0.6,0.0,0.0,278.0,768.0,0.0,1,264.0,1
644,644,0.5959978833661755,0.6,0.0,0.0,414.0,909.0,0.0,1,367.0,1
645,645,0.1654820160403604,0.2,0.0,0.0,437.0,705.0,0.0,1,1308.0,1
646,646,-0.5152832399860903,-0.5,1.0,0.0,433.0,521.0,0.0,0,246.0,1
647,647,0.42716609639852543,0.4,1.0,1.0,317.0,628.0,1.0,1,435.0,1
648,648,0.8876639529544391,0.9,1.0,1.0,272.0,913.0,1.0,1,175.0,1
649,649,-0.886008937895745,-0.9,0.0,1.0,398.0,870.0,1.0,0,292.0,1
650,650,-0.3945388310642636,-0.4,0.0,1.0,364.0,662.0,1.0,0,894.0,1
651,651,0.831305740337856,0.8,1.0,1.0,473.0,925.0,0.0,0,-148.0,0
652,652,-0.16323357576793573,-0.2,1.0,0.0,476.0,921.0,0.0,0,313.0,1
653,653,-0.5994341563312653,-0.6,0.0,1.0,482.0,805.0,1.0,0,763.0,1
654,654,0.19140899031263936,0.2,0.0,0.0,282.0,680.0,0.0,1,1768.0,1
655,655,0.8653317329062148,0.9,0.0,0.0,263.0,623.0,0.0,1,274.0,1
656,656,0.0784440360414903,0.1,1.0,1.0,359.0,732.0,0.0,0,-41.0,0
657,657,0.7158001400397932,0.7,0.0,0.0,399.0,699.0,0.0,1,152.0,1
658,658,0.08286282837763337,0.1,0.0,0.0,480.0,558.0,0.0,1,622.0,1
659,659,0.01649738423324154,0.0,1.0,1.0,325.0,660.0,0.0,0,2625.0,0
660,660,0.34668332632357746,0.3,1.0,1.0,461.0,937.0,1.0,1,782.0,1
661,661,-0.293493132629005,-0.3,0.0,1.0,308.0,729.0,1.0,0,633.0,1
662,662,0.1321430086722698,0.1,0.0,0.0,398.0,809.0,0.0,1,1353.0,1
663,663,0.032622703654506924,0.0,0.0,0.0,486.0,556.0,0.0,1,3958.0,1
664,664,-0.0769693279164414,-0.1,0.0,1.0,458.0,553.0,1.0,0,1999.0,1
665,665,0.8607451117749437,0.9,0.0,0.0,496.0,799.0,0.0,1,295.0,1
666,666,0.7847453480427419,0.8,0.0,0.0,363.0,860.0,0.0,1,307.0,1
667,667,0.6257528013227213,0.6,1.0,1.0,277.0,685.0,1.0,1,558.0,1
668,668,-0.10496703173246569,-0.1,1.0,0.0,497.0,585.0,0.0,0,718.0,1
669,669,-0.764104075651275,-0.8,0.0,1.0,362.0,680.0,1.0,0,238.0,1
670,670,0.09642342654217817,0.1,0.0,0.0,361.0,802.0,0.0,1,2467.0,1
671,671,0.13985500876288437,0.1,1.0,1.0,325.0,634.0,1.0,1,1171.0,1
672,672,0.31018247713395974,0.3,0.0,0.0,405.0,924.0,0.0,1,221.0,1
673,673,0.4975806107123658,0.5,1.0,1.0,353.0,790.0,1.0,1,287.0,1
674,674,0.8276842542971704,0.8,1.0,1.0,282.0,758.0,1.0,1,200.0,1
675,675,0.09247228320558543,0.1,1.0,1.0,477.0,794.0,1.0,1,2999.0,1
676,676,-0.7916321101217136,-0.8,0.0,1.0,364.0,982.0,1.0,0,274.0,1
677,677,-0.7289971250761477,-0.7,0.0,1.0,412.0,596.0,1.0,0,262.0,1
678,678,0.7507064310163581,0.8,0.0,0.0,483.0,996.0,0.0,1,481.0,1
679,679,-0.2956326494646022,-0.3,1.0,0.0,412.0,549.0,1.0,1,249.0,0
680,680,-0.18642051931878123,-0.2,1.0,0.0,292.0,508.0,0.0,0,780.0,1
681,681,0.09733279859667876,0.1,0.0,0.0,412.0,788.0,0.0,1,300.0,1
682,682,0.1779913008889661,0.2,1.0,1.0,433.0,544.0,1.0,1,3393.0,1
683,683,0.43153396535871125,0.4,0.0,0.0,394.0,596.0,0.0,1,350.0,1
684,684,-0.1946668144750947,-0.2,0.0,1.0,308.0,691.0,1.0,0,1861.0,1
685,685,0.8190636650497362,0.8,1.0,1.0,439.0,988.0,1.0,1,403.0,1
686,686,0.43357943157567924,0.4,1.0,1.0,499.0,888.0,1.0,1,463.0,1
687,687,0.7196289853666732,0.7,1.0,1.0,345.0,795.0,1.0,1,290.0,1
688,688,-0.5686450997223369,-0.6,0.0,1.0,433.0,979.0,1.0,0,478.0,1
689,689,0.23108069341126558,0.2,1.0,1.0,414.0,776.0,0.0,0,-210.0,0
690,690,0.364229691178208,0.4,0.0,0.0,441.0,700.0,0.0,1,609.0,1
691,691,0.22033800787756574,0.2,1.0,1.0,276.0,835.0,1.0,1,1079.0,1
692,692,0.2506990425413126,0.3,0.0,0.0,397.0,928.0,0.0,1,-205.0,1
693,693,0.6966339334569124,0.7,0.0,0.0,394.0,857.0,0.0,1,19.0,1
694,694,0.44631917878012006,0.4,0.0,0.0,302.0,558.0,0.0,1,630.0,1
695,695,-0.002456000060016672,-0.0,1.0,0.0,271.0,844.0,1.0,1,3885.0,0
696,696,-0.07975062444295844,-0.1,0.0,1.0,262.0,778.0,1.0,0,2280.0,1
697,697,0.5274041642923778,0.5,1.0,1.0,437.0,898.0,1.0,1,845.0,1
698,698,0.1635866992135343,0.2,1.0,1.0,432.0,647.0,1.0,1,771.0,1
699,699,0.2753329789447584,0.3,0.0,0.0,320.0,712.0,0.0,1,728.0,1
700,700,0.8117570883124133,0.8,1.0,1.0,283.0,690.0,1.0,1,87.0,1
701,701,0.1580052797462258,0.2,1.0,1.0,284.0,755.0,0.0,0,381.0,0
702,702,-0.6330696997866847,-0.6,1.0,0.0,474.0,948.0,0.0,0,108.0,1
703,703,-0.784846455791962,-0.8,0.0,1.0,473.0,706.0,1.0,0,151.0,1
704,704,0.13156432656833605,0.1,1.0,1.0,339.0,842.0,1.0,1,1019.0,1
705,705,0.12706701991538216,0.1,0.0,0.0,486.0,928.0,0.0,1,1996.0,1
706,706,-0.884280861134763,-0.9,0.0,1.0,290.0,622.0,1.0,0,118.0,1
707,707,0.7565435460704152,0.8,1.0,1.0,364.0,817.0,1.0,1,219.0,1
708,708,0.8525882400360104,0.9,0.0,0.0,404.0,748.0,0.0,1,318.0,1
709,709,0.5243058460577091,0.5,0.0,0.0,312.0,523.0,0.0,1,195.0,1
710,710,0.06308935086171474,0.1,1.0,1.0,316.0,514.0,1.0,1,390.0,1
711,711,0.4562150632714864,0.5,0.0,0.0,476.0,545.0,0.0,1,389.0,1
712,712,-0.09015680855077846,-0.1,0.0,1.0,294.0,817.0,0.0,1,3889.0,0
713,713,-0.1754762653679539,-0.2,1.0,0.0,418.0,501.0,0.0,0,1771.0,1
714,714,0.42722618356652997,0.4,0.0,0.0,346.0,985.0,0.0,1,319.0,1
715,715,-0.5195420036218987,-0.5,1.0,0.0,448.0,610.0,0.0,0,322.0,1
716,716,-0.545028487600207,-0.5,0.0,1.0,412.0,979.0,1.0,0,49.0,1
717,717,0.7116596664393536,0.7,0.0,0.0,336.0,623.0,0.0,1,221.0,1
718,718,-0.8719839289195556,-0.9,1.0,0.0,337.0,836.0,0.0,0,97.0,1
719,719,-0.6362261465413365,-0.6,1.0,0.0,338.0,651.0,0.0,0,311.0,1
720,720,0.8137774691115126,0.8,0.0,0.0,258.0,670.0,0.0,1,82.0,1
721,721,0.0388290855679313,0.0,0.0,0.0,350.0,852.0,1.0,0,-32.0,0
722,722,-0.2695933771795386,-0.3,1.0,0.0,430.0,877.0,0.0,0,523.0,1
723,723,-0.3631364598541972,-0.4,1.0,0.0,349.0,800.0,0.0,0,201.0,1
724,724,0.38783181073405404,0.4,1.0,1.0,450.0,657.0,1.0,1,213.0,1
725,725,0.5478712050053879,0.5,1.0,1.0,392.0,627.0,1.0,1,401.0,1
726,726,-0.4877125457333911,-0.5,1.0,0.0,432.0,568.0,0.0,0,250.0,1
727,727,0.2513522297947769,0.3,1.0,1.0,272.0,517.0,1.0,1,961.0,1
728,728,-0.8432185880125386,-0.8,1.0,0.0,251.0,964.0,0.0,0,325.0,1
729,729,-0.1743993049911945,-0.2,0.0,1.0,485.0,724.0,1.0,0,1081.0,1
730,730,0.0008763680443835131,0.0,1.0,1.0,346.0,594.0,0.0,0,3340.0,0
731,731,-0.7939136863571018,-0.8,1.0,0.0,398.0,822.0,0.0,0,490.0,1
732,732,-0.2718761018415333,-0.3,0.0,1.0,476.0,812.0,1.0,0,1012.0,1
733,733,-0.11285912305559831,-0.1,1.0,0.0,252.0,886.0,0.0,0,942.0,1
734,734,-0.736005686283987,-0.7,1.0,0.0,267.0,949.0,0.0,0,274.0,1
735,735,0.0711974999839372,0.1,1.0,1.0,375.0,928.0,1.0,1,3677.0,1
736,736,0.22169774086249083,0.2,1.0,1.0,373.0,776.0,1.0,1,681.0,1
737,737,0.6967479776992976,0.7,0.0,0.0,360.0,712.0,0.0,1,228.0,1
738,738,-0.6304253387081757,-0.6,1.0,0.0,424.0,827.0,0.0,0,59.0,1
739,739,-0.2787080672236608,-0.3,0.0,1.0,423.0,746.0,1.0,0,121.0,1
740,740,0.46576071832759214,0.5,1.0,1.0,280.0,735.0,1.0,1,885.0,1
741,741,-0.0863289523928722,-0.1,1.0,0.0,398.0,564.0,0.0,0,2598.0,1
742,742,0.6587063204807003,0.7,1.0,1.0,404.0,637.0,1.0,1,359.0,1
743,743,0.6578498326610024,0.7,0.0,0.0,494.0,838.0,0.0,1,8.0,1
744,744,-0.2576585488202807,-0.3,1.0,0.0,296.0,541.0,0.0,0,-37.0,1
745,745,0.6971374252743373,0.7,1.0,1.0,442.0,900.0,1.0,1,478.0,1
746,746,0.6477615569562002,0.6,1.0,1.0,456.0,753.0,1.0,1,151.0,1
747,747,-0.879065312802676,-0.9,0.0,1.0,336.0,754.0,1.0,0,270.0,1
748,748,0.2192094831731467,0.2,1.0,1.0,294.0,839.0,1.0,1,507.0,1
749,749,-0.48535581852562787,-0.5,1.0,0.0,354.0,923.0,0.0,0,-257.0,1
750,750,-0.31386071362414514,-0.3,1.0,0.0,258.0,759.0,0.0,0,663.0,1
751,751,0.10967953056226054,0.1,0.0,0.0,379.0,597.0,0.0,1,2314.0,1
752,752,-0.08828666865869528,-0.1,1.0,0.0,434.0,811.0,0.0,0,1835.0,1
753,753,0.552769349401164,0.6,0.0,0.0,292.0,712.0,0.0,1,386.0,1
754,754,-0.09048145229035698,-0.1,0.0,1.0,416.0,546.0,1.0,0,4038.0,1
755,755,-0.35279030678584034,-0.4,0.0,1.0,455.0,571.0,1.0,0,614.0,1
756,756,0.7564773492790772,0.8,0.0,0.0,350.0,509.0,0.0,1,411.0,1
757,757,-0.8132895065420246,-0.8,0.0,1.0,282.0,727.0,1.0,0,171.0,1
758,758,0.8395594584175358,0.8,0.0,0.0,356.0,671.0,0.0,1,173.0,1
759,759,0.05338563409886521,0.1,0.0,0.0,322.0,807.0,0.0,1,3871.0,1
760,760,-0.2412610405410167,-0.2,1.0,0.0,341.0,849.0,0.0,0,850.0,1
761,761,-0.2513922709325407,-0.3,1.0,0.0,457.0,976.0,0.0,0,557.0,1
762,762,0.3770066588743991,0.4,0.0,0.0,280.0,687.0,0.0,1,633.0,1
763,763,0.46616043092805903,0.5,0.0,0.0,370.0,804.0,0.0,1,316.0,1
764,764,0.066391747441219,0.1,0.0,0.0,427.0,518.0,0.0,1,485.0,1
765,765,0.32370582219597577,0.3,0.0,0.0,441.0,519.0,0.0,1,180.0,1
766,766,-0.1673871141386618,-0.2,0.0,1.0,435.0,730.0,1.0,0,695.0,1
767,767,-0.45679685012016263,-0.5,0.0,1.0,363.0,576.0,1.0,0,141.0,1
768,768,-0.2768852565778449,-0.3,0.0,1.0,334.0,619.0,1.0,0,447.0,1
769,769,-0.20736154771554083,-0.2,1.0,0.0,451.0,522.0,0.0,0,417.0,1
770,770,-0.8347694503901055,-0.8,0.0,1.0,304.0,790.0,1.0,0,176.0,1
771,771,0.5533303616340673,0.6,1.0,1.0,421.0,890.0,1.0,1,539.0,1
772,772,-0.3598831676958706,-0.4,1.0,0.0,352.0,973.0,0.0,0,225.0,1
773,773,0.5914140591600355,0.6,1.0,1.0,431.0,674.0,1.0,1,415.0,1
774,774,0.010983836457296059,0.0,0.0,0.0,450.0,916.0,0.0,1,1874.0,1
775,775,-0.7333987449220437,-0.7,1.0,0.0,358.0,605.0,0.0,0,197.0,1
776,776,-0.09643432243236205,-0.1,0.0,1.0,398.0,588.0,1.0,0,2534.0,1
777,777,-0.247767366939614,-0.2,1.0,0.0,402.0,640.0,0.0,0,518.0,1
778,778,0.6086746842917133,0.6,0.0,0.0,490.0,500.0,0.0,1,260.0,1
779,779,-0.7252496831922937,-0.7,0.0,1.0,324.0,515.0,1.0,0,211.0,1
780,780,-0.2810080453522036,-0.3,1.0,0.0,260.0,804.0,0.0,0,256.0,1
781,781,-0.0548332043593881,-0.1,1.0,0.0,359.0,645.0,0.0,0,1826.0,1
782,782,0.6052396488823438,0.6,1.0,1.0,298.0,971.0,1.0,1,471.0,1
783,783,-0.6911956827378972,-0.7,0.0,1.0,444.0,771.0,1.0,0,485.0,1
784,784,0.6349842105751885,0.6,0.0,0.0,469.0,679.0,0.0,1,52.0,1
785,785,0.14652427217823616,0.1,0.0,0.0,405.0,816.0,0.0,1,689.0,1
786,786,-0.7210555484414308,-0.7,1.0,0.0,322.0,847.0,0.0,0,-369.0,1
787,787,0.5653700186750384,0.6,0.0,0.0,314.0,555.0,0.0,1,221.0,1
788,788,0.13957359474191977,0.1,0.0,0.0,496.0,999.0,0.0,1,615.0,1
789,789,0.1617787666142877,0.2,0.0,0.0,377.0,963.0,0.0,1,600.0,1
790,790,0.10217501761335901,0.1,1.0,1.0,301.0,791.0,1.0,1,1908.0,1
791,791,-0.3963563280009367,-0.4,1.0,0.0,336.0,697.0,0.0,0,237.0,1
792,792,-0.8748274386667547,-0.9,1.0,0.0,337.0,629.0,0.0,0,134.0,1
793,793,-0.14821507093590713,-0.1,0.0,1.0,427.0,995.0,1.0,0,3578.0,1
794,794,-0.2989403295373292,-0.3,0.0,1.0,386.0,773.0,1.0,0,761.0,1
795,795,-0.42254283437326184,-0.4,1.0,0.0,308.0,888.0,0.0,0,264.0,1
796,796,0.44356924229899153,0.4,0.0,0.0,265.0,810.0,0.0,1,205.0,1
797,797,-0.6603691134434923,-0.7,1.0,0.0,326.0,707.0,0.0,0,247.0,1
798,798,0.19527420628959014,0.2,0.0,0.0,357.0,562.0,0.0,1,971.0,1
799,799,0.49372802437787733,0.5,0.0,0.0,374.0,974.0,0.0,1,652.0,1
800,800,0.034832782825896524,0.0,1.0,1.0,422.0,559.0,0.0,0,4019.0,0
801,801,-0.10751994651448049,-0.1,0.0,1.0,334.0,838.0,1.0,0,928.0,1
802,802,0.304377166627502,0.3,0.0,0.0,398.0,889.0,0.0,1,343.0,1
803,803,-0.5768868459124724,-0.6,1.0,0.0,267.0,757.0,0.0,0,176.0,1
804,804,0.700200955727806,0.7,1.0,1.0,462.0,605.0,1.0,1,523.0,1
805,805,-0.7931014675455762,-0.8,0.0,1.0,316.0,581.0,1.0,0,253.0,1
806,806,-0.481834604796001,-0.5,1.0,0.0,424.0,767.0,0.0,0,239.0,1
807,807,0.5949854964167037,0.6,0.0,0.0,474.0,924.0,0.0,1,142.0,1
808,808,-0.5839452697455747,-0.6,0.0,1.0,441.0,696.0,1.0,0,583.0,1
809,809,0.45632147125297273,0.5,1.0,1.0,414.0,899.0,1.0,1,1047.0,1
810,810,0.11521879997534812,0.1,0.0,0.0,335.0,629.0,0.0,1,816.0,1
811,811,0.49813892097587853,0.5,1.0,1.0,444.0,506.0,1.0,1,430.0,1
812,812,-0.84006330207439,-0.8,1.0,0.0,413.0,906.0,0.0,0,181.0,1
813,813,0.8651876080088631,0.9,0.0,0.0,448.0,613.0,0.0,1,99.0,1
814,814,0.6903074266277994,0.7,0.0,0.0,440.0,839.0,0.0,1,251.0,1
815,815,-0.2728279457200552,-0.3,1.0,0.0,367.0,920.0,0.0,0,463.0,1
816,816,-0.23730466680219753,-0.2,0.0,1.0,316.0,530.0,1.0,0,814.0,1
817,817,-0.6087170441127823,-0.6,1.0,0.0,310.0,710.0,0.0,0,60.0,1
818,818,0.13581736311697645,0.1,0.0,0.0,255.0,560.0,0.0,1,3295.0,1
819,819,0.8092551763281363,0.8,0.0,0.0,461.0,662.0,0.0,1,197.0,1
820,820,-0.455593723997059,-0.5,0.0,1.0,286.0,691.0,1.0,0,273.0,1
821,821,-0.022093307585689725,-0.0,0.0,1.0,469.0,898.0,0.0,1,3633.0,0
822,822,0.19625134138140232,0.2,0.0,0.0,281.0,691.0,0.0,1,338.0,1
823,823,-0.011501445004629574,-0.0,1.0,0.0,450.0,512.0,0.0,0,4038.0,1
824,824,0.644556038140346,0.6,1.0,1.0,372.0,880.0,1.0,1,158.0,1
825,825,-0.6463909339967255,-0.6,1.0,0.0,428.0,502.0,0.0,0,130.0,1
826,826,0.788053390820885,0.8,1.0,1.0,304.0,829.0,0.0,0,-703.0,0
827,827,0.6438516566635607,0.6,0.0,0.0,372.0,708.0,0.0,1,140.0,1
828,828,0.581470411858218,0.6,1.0,1.0,323.0,795.0,1.0,1,542.0,1
829,829,0.6931219807455259,0.7,1.0,1.0,472.0,694.0,1.0,1,724.0,1
830,830,-0.36923266203220007,-0.4,0.0,1.0,316.0,542.0,1.0,0,442.0,1
831,831,0.08092025450844986,0.1,0.0,0.0,267.0,813.0,0.0,1,2190.0,1
832,832,-0.23878096243226488,-0.2,0.0,1.0,340.0,898.0,1.0,0,972.0,1
833,833,-0.035639807680833524,-0.0,0.0,1.0,308.0,660.0,0.0,1,4032.0,0
834,834,0.29256208266577344,0.3,1.0,1.0,254.0,587.0,0.0,0,-311.0,0
835,835,0.5408328523843656,0.5,0.0,0.0,464.0,963.0,0.0,1,163.0,1
836,836,-0.47150555573671266,-0.5,1.0,0.0,496.0,917.0,0.0,0,217.0,1
837,837,-0.26490744638728836,-0.3,1.0,0.0,309.0,923.0,0.0,0,278.0,1
838,838,0.505400480666928,0.5,0.0,0.0,360.0,923.0,0.0,1,457.0,1
839,839,0.5139623352662975,0.5,1.0,1.0,410.0,596.0,1.0,1,444.0,1
840,840,0.45468097999014756,0.5,1.0,1.0,402.0,728.0,1.0,1,240.0,1
841,841,0.3748048309787527,0.4,1.0,1.0,281.0,708.0,1.0,1,371.0,1
842,842,-0.136769345630657,-0.1,1.0,0.0,322.0,902.0,0.0,0,396.0,1
843,843,-0.6674677899510831,-0.7,0.0,1.0,391.0,760.0,1.0,0,369.0,1
844,844,0.32007368026905747,0.3,0.0,0.0,345.0,973.0,0.0,1,-298.0,1
845,845,-0.06793297788516706,-0.1,1.0,0.0,374.0,757.0,0.0,0,3009.0,1
846,846,0.6672551556155765,0.7,1.0,1.0,287.0,983.0,1.0,1,270.0,1
847,847,0.24335760421213093,0.2,1.0,1.0,468.0,747.0,1.0,1,1665.0,1
848,848,0.4742620197805524,0.5,1.0,1.0,418.0,972.0,1.0,1,400.0,1
849,849,-0.48609055407299073,-0.5,0.0,1.0,418.0,995.0,1.0,0,367.0,1
850,850,-0.30356760838827546,-0.3,1.0,0.0,283.0,862.0,0.0,0,235.0,1
851,851,-0.5466021462057047,-0.5,1.0,0.0,340.0,660.0,0.0,0,150.0,1
852,852,0.7325813335391028,0.7,1.0,1.0,431.0,961.0,1.0,1,198.0,1
853,853,0.7168001751475798,0.7,1.0,1.0,371.0,726.0,1.0,1,123.0,1
854,854,0.47658542053538533,0.5,0.0,0.0,340.0,948.0,0.0,1,492.0,1
855,855,-0.6243110457472467,-0.6,1.0,0.0,419.0,713.0,0.0,0,168.0,1
856,856,0.20040637108493986,0.2,0.0,0.0,412.0,887.0,0.0,1,881.0,1
857,857,-0.6576631818660238,-0.7,1.0,0.0,460.0,683.0,0.0,0,257.0,1
858,858,-0.11952355281109694,-0.1,0.0,1.0,385.0,882.0,1.0,0,1243.0,1
859,859,0.01326443035705438,0.0,1.0,1.0,437.0,622.0,0.0,0,161.0,0
860,860,-0.1522954192889221,-0.2,0.0,1.0,405.0,612.0,1.0,0,933.0,1
861,861,0.553062402218298,0.6,0.0,0.0,386.0,763.0,0.0,1,491.0,1
862,862,0.591070742954937,0.6,1.0,1.0,354.0,844.0,1.0,1,-308.0,1
863,863,0.7287520395772419,0.7,1.0,1.0,285.0,812.0,0.0,0,-277.0,0
864,864,0.8174470421357182,0.8,1.0,1.0,435.0,596.0,1.0,1,899.0,1
865,865,0.6056981549966928,0.6,1.0,1.0,342.0,564.0,1.0,1,594.0,1
866,866,-0.7336897456899854,-0.7,1.0,0.0,356.0,587.0,0.0,0,417.0,1
867,867,0.7800841981952428,0.8,0.0,0.0,364.0,556.0,0.0,1,340.0,1
868,868,0.05902339947339175,0.1,1.0,1.0,390.0,588.0,1.0,1,4022.0,1
869,869,-0.140231770444331,-0.1,1.0,0.0,285.0,592.0,0.0,0,473.0,1
870,870,-0.2946257070874655,-0.3,0.0,1.0,482.0,723.0,1.0,0,725.0,1
871,871,0.1545112901944804,0.2,0.0,0.0,295.0,698.0,0.0,1,1217.0,1
872,872,-0.4186447719063557,-0.4,1.0,0.0,353.0,719.0,0.0,0,-152.0,1
873,873,0.571698425481396,0.6,1.0,1.0,389.0,630.0,1.0,1,581.0,1
874,874,0.7480360882023339,0.7,0.0,0.0,269.0,928.0,0.0,1,303.0,1
875,875,-0.8817653808749618,-0.9,1.0,0.0,433.0,958.0,0.0,0,59.0,1
876,876,-0.01165124605556489,-0.0,0.0,1.0,347.0,658.0,1.0,0,3995.0,1
877,877,-0.43948375849863913,-0.4,1.0,0.0,449.0,542.0,0.0,0,159.0,1
878,878,-0.43314702973621483,-0.4,1.0,0.0,428.0,879.0,0.0,0,183.0,1
879,879,0.5059957439784674,0.5,0.0,0.0,363.0,862.0,0.0,1,185.0,1
880,880,-0.20499949092994418,-0.2,0.0,1.0,395.0,601.0,1.0,0,424.0,1
881,881,-0.2975392858902197,-0.3,1.0,0.0,374.0,956.0,0.0,0,150.0,1
882,882,0.4462275048294432,0.4,0.0,0.0,284.0,630.0,0.0,1,536.0,1
883,883,0.7037042020787002,0.7,0.0,0.0,442.0,517.0,0.0,1,191.0,1
884,884,-0.6526095678811509,-0.7,0.0,1.0,310.0,982.0,1.0,0,278.0,1
885,885,-0.37497574063089856,-0.4,0.0,1.0,412.0,859.0,1.0,0,879.0,1
886,886,0.5324629643543081,0.5,0.0,0.0,455.0,790.0,0.0,1,185.0,1
887,887,-0.5939711415826807,-0.6,0.0,1.0,270.0,742.0,1.0,0,128.0,1
888,888,-0.41956056943693343,-0.4,1.0,0.0,390.0,730.0,0.0,0,470.0,1
889,889,0.7590553968423496,0.8,0.0,0.0,360.0,916.0,0.0,1,364.0,1
890,890,0.7335440020872496,0.7,1.0,1.0,279.0,825.0,1.0,1,216.0,1
891,891,0.6096391803451776,0.6,1.0,1.0,419.0,710.0,1.0,1,271.0,1
892,892,0.693375767779775,0.7,0.0,0.0,446.0,689.0,0.0,1,265.0,1
893,893,-0.6660359312357426,-0.7,1.0,0.0,465.0,839.0,0.0,0,226.0,1
894,894,-0.251842912493523,-0.3,1.0,0.0,327.0,621.0,0.0,0,412.0,1
895,895,-0.32857120555584285,-0.3,0.0,1.0,473.0,744.0,1.0,0,933.0,1
896,896,0.6825872458196166,0.7,0.0,0.0,362.0,662.0,0.0,1,196.0,1
897,897,0.8933669209238339,0.9,0.0,0.0,271.0,855.0,0.0,1,184.0,1
898,898,-0.4503570061728764,-0.5,0.0,1.0,385.0,763.0,1.0,0,492.0,1
899,899,-0.23695226884492848,-0.2,0.0,1.0,325.0,545.0,1.0,0,750.0,1
900,900,-0.7695319156375952,-0.8,0.0,1.0,343.0,583.0,1.0,0,304.0,1
901,901,0.6528696872793903,0.7,1.0,1.0,375.0,799.0,0.0,0,-184.0,0
902,902,-0.8173789375584436,-0.8,1.0,0.0,431.0,535.0,0.0,0,294.0,1
903,903,0.21880415284648735,0.2,0.0,0.0,256.0,724.0,0.0,1,610.0,1
904,904,-0.4514038752419887,-0.5,1.0,0.0,350.0,656.0,0.0,0,534.0,1
905,905,0.22143767850220686,0.2,0.0,0.0,297.0,931.0,0.0,1,332.0,1
906,906,-0.8885248437595762,-0.9,0.0,1.0,359.0,513.0,1.0,0,268.0,1
907,907,-0.8027866172592926,-0.8,1.0,0.0,324.0,642.0,0.0,0,214.0,1
908,908,0.5531165542431501,0.6,1.0,1.0,466.0,884.0,1.0,1,270.0,1
909,909,0.7683579062476272,0.8,1.0,1.0,300.0,710.0,1.0,1,430.0,1
910,910,-0.4623927154763328,-0.5,1.0,0.0,325.0,911.0,0.0,0,224.0,1
911,911,-0.731931228788585,-0.7,1.0,0.0,348.0,890.0,0.0,0,182.0,1
912,912,-0.706229815259781,-0.7,0.0,1.0,471.0,742.0,1.0,0,207.0,1
913,913,0.22829520356328648,0.2,1.0,1.0,381.0,871.0,1.0,1,838.0,1
914,914,0.42747040340546116,0.4,1.0,1.0,495.0,896.0,1.0,1,739.0,1
915,915,0.08968641061014926,0.1,1.0,1.0,312.0,896.0,1.0,1,3792.0,1
916,916,0.7554897140992293,0.8,0.0,0.0,396.0,534.0,0.0,1,340.0,1
917,917,-0.43048289206169355,-0.4,1.0,0.0,371.0,741.0,0.0,0,668.0,1
918,918,0.7614982357805519,0.8,1.0,1.0,458.0,812.0,1.0,1,230.0,1
919,919,0.5004825408848749,0.5,1.0,1.0,301.0,764.0,1.0,1,325.0,1
920,920,0.6353006748902194,0.6,0.0,0.0,278.0,812.0,0.0,1,270.0,1
921,921,0.4152325162959877,0.4,0.0,0.0,440.0,669.0,0.0,1,581.0,1
922,922,0.19491145828594758,0.2,0.0,0.0,307.0,617.0,0.0,1,846.0,1
923,923,-0.05988288422353938,-0.1,0.0,1.0,373.0,795.0,1.0,0,2382.0,1
924,924,0.851664266703191,0.9,0.0,0.0,301.0,662.0,0.0,1,257.0,1
925,925,-0.8985586945548091,-0.9,0.0,1.0,274.0,972.0,1.0,0,114.0,1
926,926,-0.3036299978117446,-0.3,0.0,1.0,439.0,833.0,1.0,0,978.0,1
927,927,0.8264911030198113,0.8,1.0,1.0,283.0,727.0,1.0,1,260.0,1
928,928,0.510652044794612,0.5,1.0,1.0,444.0,818.0,1.0,1,208.0,1
929,929,0.6232236220994966,0.6,1.0,1.0,317.0,730.0,1.0,1,533.0,1
930,930,0.19225256060553486,0.2,1.0,1.0,486.0,624.0,1.0,1,1040.0,1
931,931,-0.41351222550563177,-0.4,0.0,1.0,306.0,890.0,1.0,0,204.0,1
932,932,-0.5112379721507938,-0.5,1.0,0.0,370.0,861.0,0.0,0,229.0,1
933,933,0.37475160981259503,0.4,1.0,1.0,372.0,897.0,1.0,1,741.0,1
934,934,0.46709081476242453,0.5,0.0,0.0,437.0,591.0,0.0,1,562.0,1
935,935,-0.5812800058658973,-0.6,0.0,1.0,305.0,707.0,1.0,0,138.0,1
936,936,-0.06875144699967806,-0.1,0.0,1.0,359.0,665.0,1.0,0,2096.0,1
937,937,-0.1720904969133975,-0.2,0.0,1.0,275.0,951.0,1.0,0,724.0,1
938,938,0.4443048200653491,0.4,1.0,1.0,275.0,745.0,1.0,1,580.0,1
939,939,-0.6320252453683557,-0.6,0.0,1.0,311.0,778.0,1.0,0,281.0,1
940,940,0.5059265808549286,0.5,1.0,1.0,451.0,720.0,1.0,1,579.0,1
941,941,-0.34537262831957294,-0.3,0.0,1.0,291.0,589.0,1.0,0,440.0,1
942,942,-0.18693124392255234,-0.2,1.0,0.0,360.0,753.0,0.0,0,467.0,1
943,943,0.01581000620804751,0.0,0.0,0.0,399.0,893.0,0.0,1,3708.0,1
944,944,-0.659935316564419,-0.7,0.0,1.0,410.0,646.0,1.0,0,374.0,1
945,945,0.8684464636369208,0.9,0.0,0.0,427.0,991.0,0.0,1,222.0,1
946,946,0.38261925512394634,0.4,0.0,0.0,329.0,838.0,0.0,1,493.0,1
947,947,-0.3907916278840263,-0.4,0.0,1.0,298.0,737.0,1.0,0,295.0,1
948,948,0.03499277091927,0.0,1.0,1.0,370.0,953.0,1.0,1,1057.0,1
949,949,0.5670658863848906,0.6,0.0,0.0,325.0,958.0,0.0,1,277.0,1
950,950,-0.7904379893293797,-0.8,1.0,0.0,385.0,738.0,0.0,0,297.0,1
951,951,0.5541538124910738,0.6,1.0,1.0,400.0,527.0,1.0,1,253.0,1
952,952,-0.07646171582353578,-0.1,0.0,1.0,399.0,566.0,1.0,0,4035.0,1
953,953,-0.7189469772882724,-0.7,0.0,1.0,279.0,544.0,1.0,0,137.0,1
954,954,-0.152296985616871,-0.2,1.0,0.0,439.0,537.0,0.0,0,714.0,1
955,955,-0.265654749312797,-0.3,0.0,1.0,339.0,525.0,1.0,0,516.0,1
956,956,0.06736589359329725,0.1,1.0,1.0,356.0,827.0,1.0,1,-83.0,1
957,957,0.346683120094463,0.3,1.0,1.0,397.0,805.0,1.0,1,798.0,1
958,958,0.6031585869626436,0.6,0.0,0.0,259.0,710.0,0.0,1,301.0,1
959,959,-0.3380568279497078,-0.3,1.0,0.0,438.0,872.0,0.0,0,510.0,1
960,960,-0.35179996993807916,-0.4,0.0,1.0,269.0,828.0,1.0,0,533.0,1
961,961,-0.33958603333867265,-0.3,0.0,1.0,457.0,723.0,1.0,0,700.0,1
962,962,-0.8915396755651178,-0.9,1.0,0.0,493.0,590.0,0.0,0,77.0,1
963,963,0.2994020035289803,0.3,1.0,1.0,416.0,576.0,1.0,1,458.0,1
964,964,0.6594104727563393,0.7,0.0,0.0,381.0,739.0,0.0,1,100.0,1
965,965,-0.2088439491882902,-0.2,1.0,0.0,350.0,513.0,0.0,0,847.0,1
966,966,0.4995578877763688,0.5,1.0,1.0,492.0,573.0,1.0,1,565.0,1
967,967,-0.49299253593174625,-0.5,1.0,0.0,445.0,595.0,0.0,0,450.0,1
968,968,-0.6547902712960545,-0.7,0.0,1.0,478.0,621.0,1.0,0,271.0,1
969,969,-0.2183612157189576,-0.2,1.0,0.0,319.0,555.0,0.0,0,66.0,1
970,970,0.38926028035246885,0.4,1.0,1.0,372.0,644.0,1.0,1,444.0,1
971,971,0.8912307347732248,0.9,1.0,1.0,462.0,538.0,1.0,1,140.0,1
972,972,0.5251992367709882,0.5,0.0,0.0,471.0,654.0,0.0,1,425.0,1
973,973,-0.8247406945184715,-0.8,1.0,0.0,470.0,535.0,0.0,0,215.0,1
974,974,0.3582542178386451,0.4,0.0,0.0,274.0,727.0,0.0,1,789.0,1
975,975,0.8268166587829394,0.8,1.0,1.0,392.0,565.0,1.0,1,303.0,1
976,976,-0.6356600137063526,-0.6,0.0,1.0,421.0,934.0,1.0,0,255.0,1
977,977,-0.6559610583385191,-0.7,0.0,1.0,480.0,717.0,1.0,0,553.0,1
978,978,0.5260615420308082,0.5,1.0,1.0,258.0,720.0,1.0,1,452.0,1
979,979,0.26877317318409377,0.3,0.0,0.0,259.0,964.0,0.0,1,447.0,1
980,980,0.12680754447296472,0.1,1.0,1.0,361.0,714.0,1.0,1,2865.0,1
981,981,0.414808423012882,0.4,0.0,0.0,468.0,926.0,0.0,1,436.0,1
982,982,0.4130108346721525,0.4,1.0,1.0,405.0,736.0,1.0,1,729.0,1
983,983,0.6415462418874608,0.6,0.0,0.0,446.0,663.0,0.0,1,401.0,1
984,984,-0.48079115014485047,-0.5,0.0,1.0,468.0,758.0,1.0,0,784.0,1
985,985,0.18404791820148325,0.2,1.0,1.0,321.0,775.0,1.0,1,654.0,1
986,986,-0.17613838827563533,-0.2,1.0,0.0,378.0,615.0,0.0,0,257.0,1
987,987,0.7770115847520424,0.8,0.0,0.0,263.0,963.0,0.0,1,94.0,1
988,988,0.5112128071532306,0.5,1.0,1.0,263.0,675.0,1.0,1,392.0,1
989,989,-0.4273169311270653,-0.4,0.0,1.0,471.0,783.0,1.0,0,616.0,1
990,990,0.26853303656540384,0.3,1.0,1.0,276.0,760.0,0.0,0,-26.0,0
991,991,0.8720241641314762,0.9,1.0,1.0,303.0,853.0,1.0,1,134.0,1
992,992,-0.8306852879680562,-0.8,0.0,1.0,304.0,538.0,1.0,0,218.0,1
993,993,-0.4713144994402175,-0.5,1.0,0.0,426.0,540.0,0.0,0,234.0,1
994,994,0.7391605851921214,0.7,1.0,1.0,488.0,826.0,1.0,1,306.0,1
995,995,0.5007606537262216,0.5,1.0,1.0,353.0,607.0,1.0,1,490.0,1
996,996,0.4403975909024148,0.4,1.0,1.0,276.0,797.0,1.0,1,497.0,1
997,997,-0.42076493784439245,-0.4,0.0,1.0,260.0,554.0,1.0,0,676.0,1
998,998,-0.7991800005450183,-0.8,1.0,0.0,407.0,705.0,0.0,0,218.0,1
999,999,-0.08827613398698853,-0.1,0.0,1.0,434.0,952.0,1.0,0,1174.0,1
1000,1000,-0.3956382626160041,-0.4,1.0,0.0,381.0,860.0,0.0,0,369.0,1
1001,1001,0.07080175910337771,0.1,1.0,1.0,412.0,962.0,0.0,0,2526.0,0
1002,1002,-0.4256906276926003,-0.4,1.0,0.0,442.0,701.0,0.0,0,387.0,1
1003,1003,-0.6315305134166088,-0.6,0.0,1.0,256.0,639.0,1.0,0,95.0,1
1004,1004,-0.8816058270344728,-0.9,0.0,1.0,379.0,880.0,1.0,0,221.0,1
1005,1005,-0.06694077078574334,-0.1,0.0,1.0,335.0,740.0,1.0,0,1335.0,1
1006,1006,0.19177212443062197,0.2,0.0,0.0,259.0,636.0,0.0,1,635.0,1
1007,1007,-0.6931050271190843,-0.7,0.0,1.0,275.0,631.0,1.0,0,604.0,1
1008,1008,0.2412411927955601,0.2,0.0,0.0,383.0,916.0,0.0,1,791.0,1
1009,1009,0.30774796811473426,0.3,0.0,0.0,486.0,641.0,0.0,1,223.0,1
1010,1010,-0.8694234766997256,-0.9,1.0,0.0,297.0,553.0,0.0,0,330.0,1
1011,1011,-0.5635929511042399,-0.6,1.0,0.0,410.0,511.0,0.0,0,229.0,1
1012,1012,-0.3682699063918543,-0.4,0.0,1.0,306.0,974.0,1.0,0,830.0,1
1013,1013,-0.7848830678694982,-0.8,1.0,0.0,488.0,717.0,0.0,0,415.0,1
1014,1014,-0.5565423246943744,-0.6,0.0,1.0,367.0,572.0,1.0,0,281.0,1
1015,1015,-0.7105977418482147,-0.7,0.0,1.0,260.0,984.0,1.0,0,206.0,1
1016,1016,0.2633013826808511,0.3,1.0,1.0,427.0,528.0,1.0,1,1535.0,1
1017,1017,-0.25972462348423186,-0.3,1.0,0.0,445.0,569.0,0.0,0,466.0,1
1018,1018,-0.868065292682021,-0.9,1.0,0.0,263.0,878.0,0.0,0,89.0,1
1019,1019,0.6588651643662474,0.7,0.0,0.0,393.0,906.0,0.0,1,421.0,1
1020,1020,0.011607518761119762,0.0,0.0,0.0,289.0,755.0,0.0,1,3956.0,1
1021,1021,0.17691840343938392,0.2,0.0,0.0,440.0,725.0,0.0,1,395.0,1
1022,1022,0.7457081678174201,0.7,1.0,1.0,379.0,965.0,0.0,0,-154.0,0
1023,1023,0.8954269781317122,0.9,1.0,1.0,274.0,985.0,1.0,1,201.0,1
1024,1024,0.2990628248416515,0.3,0.0,0.0,302.0,635.0,0.0,1,323.0,1
1025,1025,-0.2898556892967369,-0.3,0.0,1.0,417.0,662.0,1.0,0,1381.0,1
1026,1026,0.6544546504015275,0.7,1.0,1.0,419.0,923.0,1.0,1,428.0,1
1027,1027,0.5966482286065463,0.6,1.0,1.0,399.0,845.0,1.0,1,366.0,1
1028,1028,-0.18771833865443288,-0.2,0.0,1.0,326.0,990.0,1.0,0,2014.0,1
1029,1029,0.535973896801797,0.5,0.0,0.0,258.0,524.0,0.0,1,198.0,1
1030,1030,-0.3468652292193932,-0.3,0.0,1.0,309.0,787.0,1.0,0,244.0,1
1031,1031,-0.517511674385573,-0.5,0.0,1.0,497.0,966.0,1.0,0,517.0,1
1032,1032,0.39755611404610913,0.4,1.0,1.0,325.0,857.0,1.0,1,1238.0,1
1033,1033,-0.7268840546340147,-0.7,0.0,1.0,372.0,711.0,1.0,0,127.0,1
1034,1034,-0.1674444942818749,-0.2,1.0,0.0,332.0,745.0,0.0,0,253.0,1
1035,1035,-0.3199292737900399,-0.3,0.0,1.0,319.0,986.0,0.0,1,-345.0,0
1036,1036,-0.661159121277213,-0.7,1.0,0.0,368.0,935.0,0.0,0,227.0,1
1037,1037,-0.7901118762592555,-0.8,1.0,0.0,304.0,520.0,0.0,0,-134.0,1
1038,1038,0.5482088279325473,0.5,1.0,1.0,431.0,831.0,1.0,1,398.0,1
1039,1039,-0.34563405479177567,-0.3,1.0,0.0,309.0,997.0,0.0,0,94.0,1
1040,1040,-0.6457664606509683,-0.6,1.0,0.0,367.0,797.0,0.0,0,306.0,1
1041,1041,-0.3397424661579531,-0.3,1.0,0.0,396.0,782.0,0.0,0,432.0,1
1042,1042,-0.44998474692965884,-0.4,0.0,1.0,392.0,829.0,1.0,0,299.0,1
1043,1043,0.20804189556633956,0.2,1.0,1.0,315.0,730.0,1.0,1,1245.0,1
1044,1044,-0.7888648105424115,-0.8,0.0,1.0,384.0,910.0,1.0,0,326.0,1
1045,1045,-0.4961757495892542,-0.5,1.0,0.0,482.0,804.0,0.0,0,24.0,1
1046,1046,0.4007030505264949,0.4,1.0,1.0,352.0,894.0,1.0,1,304.0,1
1047,1047,-0.6211618569668524,-0.6,1.0,0.0,377.0,987.0,0.0,0,-154.0,1
1048,1048,-0.19383386052638285,-0.2,1.0,0.0,375.0,775.0,0.0,0,540.0,1
1049,1049,-0.21573262257022519,-0.2,1.0,0.0,270.0,575.0,0.0,0,685.0,1
1050,1050,0.578927827082301,0.6,0.0,0.0,302.0,971.0,0.0,1,167.0,1
1051,1051,-0.2546804155087997,-0.3,0.0,1.0,463.0,522.0,1.0,0,315.0,1
1052,1052,-0.30134109556769684,-0.3,1.0,0.0,340.0,704.0,0.0,0,386.0,1
1053,1053,-0.22864250576401834,-0.2,0.0,1.0,288.0,793.0,1.0,0,769.0,1
1054,1054,0.5507244241636046,0.6,1.0,1.0,347.0,606.0,1.0,1,257.0,1
1055,1055,0.12635982485105102,0.1,0.0,0.0,395.0,716.0,0.0,1,2189.0,1
1056,1056,0.7149648878889464,0.7,0.0,0.0,354.0,805.0,0.0,1,211.0,1
1057,1057,0.8640571394019049,0.9,1.0,1.0,422.0,701.0,0.0,0,-413.0,0
1058,1058,-0.7156529890320946,-0.7,1.0,0.0,371.0,846.0,0.0,0,443.0,1
1059,1059,0.09587541893119833,0.1,0.0,0.0,325.0,969.0,0.0,1,2106.0,1
1060,1060,0.6070952516927542,0.6,0.0,0.0,321.0,511.0,0.0,1,148.0,1
1061,1061,0.16392108432020047,0.2,1.0,1.0,476.0,599.0,1.0,1,855.0,1
1062,1062,0.07909699527788372,0.1,1.0,1.0,401.0,587.0,0.0,0,392.0,0
1063,1063,-0.1698992068427556,-0.2,0.0,1.0,257.0,925.0,1.0,0,1058.0,1
1064,1064,-0.07030584226128589,-0.1,0.0,1.0,365.0,612.0,1.0,0,2423.0,1
1065,1065,0.7420564710785406,0.7,0.0,0.0,462.0,991.0,0.0,1,157.0,1
1066,1066,0.6521087030202449,0.7,1.0,1.0,273.0,944.0,0.0,0,-217.0,0
1067,1067,0.20743496810121942,0.2,0.0,0.0,430.0,861.0,0.0,1,589.0,1
1068,1068,-0.27223761044588357,-0.3,1.0,0.0,273.0,790.0,0.0,0,137.0,1
1069,1069,-0.5628198389523041,-0.6,1.0,0.0,414.0,533.0,0.0,0,163.0,1
1070,1070,-0.10054951746419172,-0.1,1.0,0.0,362.0,867.0,0.0,0,1531.0,1
1071,1071,0.03153557646541316,0.0,1.0,1.0,280.0,835.0,1.0,1,865.0,1
1072,1072,0.6925467106164483,0.7,0.0,0.0,364.0,605.0,0.0,1,341.0,1
1073,1073,-0.4750557499340499,-0.5,1.0,0.0,360.0,819.0,0.0,0,281.0,1
1074,1074,-0.4536733020841136,-0.5,0.0,1.0,487.0,505.0,1.0,0,548.0,1
1075,1075,0.5918899876205127,0.6,1.0,1.0,371.0,576.0,1.0,1,453.0,1
1076,1076,-0.21606599109699187,-0.2,1.0,0.0,457.0,949.0,0.0,0,614.0,1
1077,1077,0.7474835651462503,0.7,1.0,1.0,423.0,873.0,1.0,1,474.0,1
1078,1078,0.8736459097940513,0.9,0.0,0.0,489.0,546.0,0.0,1,255.0,1
1079,1079,-0.8843592186059838,-0.9,1.0,0.0,370.0,889.0,0.0,0,71.0,1
1080,1080,0.6985920243675857,0.7,0.0,0.0,343.0,810.0,0.0,1,207.0,1
1081,1081,-0.6158641853701365,-0.6,0.0,1.0,370.0,750.0,1.0,0,300.0,1
1082,1082,-0.690140086781597,-0.7,0.0,1.0,461.0,989.0,1.0,0,-40.0,1
1083,1083,-0.18111511155078508,-0.2,1.0,0.0,407.0,537.0,0.0,0,1126.0,1
1084,1084,-0.324383253836511,-0.3,0.0,1.0,384.0,818.0,1.0,0,718.0,1
1085,1085,-0.7531211636030347,-0.8,1.0,0.0,429.0,986.0,0.0,0,235.0,1
1086,1086,-0.6055714132097206,-0.6,1.0,0.0,260.0,832.0,0.0,0,208.0,1
1087,1087,-0.8426510675555315,-0.8,0.0,1.0,281.0,562.0,1.0,0,367.0,1
1088,1088,0.5915616977496075,0.6,1.0,1.0,272.0,779.0,1.0,1,329.0,1
1089,1089,-0.4086634923762464,-0.4,1.0,0.0,408.0,866.0,0.0,0,-234.0,1
1090,1090,0.7832521202035608,0.8,0.0,0.0,269.0,615.0,0.0,1,106.0,1
1091,1091,0.30617674225178837,0.3,1.0,1.0,479.0,581.0,1.0,1,690.0,1
1092,1092,0.6473442939571076,0.6,1.0,1.0,406.0,597.0,1.0,1,417.0,1
1093,1093,-0.760162569377123,-0.8,0.0,1.0,393.0,515.0,1.0,0,352.0,1
1094,1094,-0.13865812508193331,-0.1,1.0,0.0,391.0,766.0,0.0,0,-437.0,1
1095,1095,0.22042580000146506,0.2,1.0,1.0,384.0,523.0,1.0,1,1043.0,1
1096,1096,0.8849762315809769,0.9,0.0,0.0,315.0,844.0,0.0,1,151.0,1
1097,1097,0.40347424895205586,0.4,1.0,1.0,446.0,602.0,1.0,1,432.0,1
1098,1098,0.6990250165056296,0.7,0.0,0.0,398.0,852.0,0.0,1,270.0,1
1099,1099,0.21352028272123047,0.2,1.0,1.0,435.0,703.0,0.0,0,-168.0,0
1100,1100,0.43299762722577906,0.4,0.0,0.0,367.0,727.0,0.0,1,586.0,1
1101,1101,-0.622878477636579,-0.6,0.0,1.0,398.0,579.0,1.0,0,473.0,1
1102,1102,0.8697268271628108,0.9,0.0,0.0,273.0,910.0,0.0,1,317.0,1
1103,1103,-0.06549098163268696,-0.1,1.0,0.0,386.0,519.0,0.0,0,555.0,1
1104,1104,-0.03639210977195295,-0.0,0.0,1.0,362.0,939.0,0.0,1,3699.0,0
1105,1105,-0.8411071651528889,-0.8,0.0,1.0,392.0,768.0,1.0,0,400.0,1
1106,1106,0.5065696641993335,0.5,1.0,1.0,434.0,686.0,1.0,1,900.0,1
1107,1107,-0.1572234083057812,-0.2,1.0,0.0,310.0,901.0,0.0,0,509.0,1
1108,1108,-0.10331172220263163,-0.1,1.0,0.0,354.0,586.0,0.0,0,1310.0,1
1109,1109,0.5988026925855193,0.6,0.0,0.0,455.0,504.0,0.0,1,401.0,1
1110,1110,-0.2800612126145905,-0.3,0.0,1.0,386.0,661.0,1.0,0,433.0,1
1111,1111,-0.4889467953858801,-0.5,1.0,0.0,437.0,724.0,0.0,0,-291.0,1
1112,1112,0.556088412546543,0.6,0.0,0.0,442.0,707.0,0.0,1,281.0,1
1113,1113,-0.2162634094360708,-0.2,1.0,0.0,305.0,585.0,0.0,0,320.0,1
1114,1114,0.7818770932731324,0.8,1.0,1.0,428.0,684.0,1.0,1,118.0,1
1115,1115,-0.700303982058414,-0.7,1.0,0.0,388.0,657.0,0.0,0,295.0,1
1116,1116,-0.2759312639297722,-0.3,0.0,1.0,478.0,818.0,1.0,0,2104.0,1
1117,1117,-0.2928977372516589,-0.3,0.0,1.0,366.0,609.0,1.0,0,1525.0,1
1118,1118,0.28177017964935647,0.3,0.0,0.0,394.0,889.0,0.0,1,267.0,1
1119,1119,0.17381435789301303,0.2,0.0,0.0,467.0,578.0,0.0,1,1205.0,1
1120,1120,0.6572381320281556,0.7,0.0,0.0,322.0,558.0,0.0,1,150.0,1
1121,1121,0.3958403704914669,0.4,1.0,1.0,488.0,721.0,1.0,1,331.0,1
1122,1122,-0.32813994550406045,-0.3,1.0,0.0,370.0,581.0,0.0,0,349.0,1
1123,1123,-0.06272097734800675,-0.1,1.0,0.0,476.0,881.0,1.0,1,553.0,0
1124,1124,0.6362847239022206,0.6,0.0,0.0,290.0,944.0,0.0,1,266.0,1
1125,1125,-0.234730061282595,-0.2,0.0,1.0,387.0,732.0,1.0,0,201.0,1
1126,1126,-0.7836535248911829,-0.8,1.0,0.0,445.0,904.0,0.0,0,131.0,1
1127,1127,0.6717863152647118,0.7,0.0,0.0,303.0,794.0,0.0,1,183.0,1
1128,1128,0.24933005732375968,0.2,0.0,0.0,284.0,661.0,0.0,1,2635.0,1
1129,1129,0.0017832330631468718,0.0,1.0,1.0,349.0,800.0,0.0,0,3851.0,0
1130,1130,0.8864754044717255,0.9,0.0,0.0,260.0,566.0,0.0,1,174.0,1
1131,1131,-0.2769349048464351,-0.3,1.0,0.0,263.0,708.0,0.0,0,529.0,1
1132,1132,0.14989974001685125,0.1,1.0,1.0,284.0,535.0,1.0,1,1991.0,1
1133,1133,0.04319419242273559,0.0,1.0,1.0,317.0,621.0,0.0,0,-168.0,0
1134,1134,-0.2148907773832085,-0.2,0.0,1.0,427.0,774.0,1.0,0,329.0,1
1135,1135,0.6380771750716826,0.6,1.0,1.0,279.0,669.0,0.0,0,-278.0,0
1136,1136,-0.3463284880217856,-0.3,1.0,0.0,251.0,820.0,0.0,0,-111.0,1
1137,1137,0.5455083853162318,0.5,0.0,0.0,462.0,685.0,0.0,1,413.0,1
1138,1138,-0.4209770645327169,-0.4,0.0,1.0,399.0,764.0,1.0,0,477.0,1
1139,1139,-0.3924414673299471,-0.4,1.0,0.0,482.0,837.0,0.0,0,331.0,1
1140,1140,-0.5628397290861491,-0.6,0.0,1.0,390.0,509.0,1.0,0,201.0,1
1141,1141,0.6734580003596723,0.7,1.0,1.0,396.0,608.0,0.0,0,-54.0,0
1142,1142,-0.09531843813340735,-0.1,1.0,0.0,372.0,892.0,0.0,0,-114.0,1
1143,1143,-0.1159434202590387,-0.1,0.0,1.0,289.0,852.0,1.0,0,3249.0,1
1144,1144,0.5532664607703975,0.6,0.0,0.0,322.0,665.0,0.0,1,273.0,1
1145,1145,0.22771885759982113,0.2,1.0,1.0,417.0,845.0,1.0,1,638.0,1
1146,1146,0.38017245552105916,0.4,0.0,0.0,430.0,831.0,0.0,1,289.0,1
1147,1147,-0.18924379144136982,-0.2,1.0,0.0,424.0,921.0,0.0,0,215.0,1
1148,1148,-0.26357725408133525,-0.3,1.0,0.0,252.0,568.0,0.0,0,1200.0,1
1149,1149,-0.34172555904488644,-0.3,1.0,0.0,293.0,813.0,0.0,0,494.0,1
1150,1150,-0.08331143596611601,-0.1,1.0,0.0,486.0,919.0,0.0,0,-385.0,1
1151,1151,-0.8844774538908112,-0.9,1.0,0.0,329.0,618.0,0.0,0,113.0,1
1152,1152,-0.6367348830211694,-0.6,1.0,0.0,266.0,531.0,0.0,0,233.0,1
1153,1153,-0.26676529785376923,-0.3,1.0,0.0,462.0,670.0,0.0,0,218.0,1
1154,1154,-0.8742754346249032,-0.9,1.0,0.0,308.0,962.0,0.0,0,140.0,1
1155,1155,0.5147446179130309,0.5,0.0,0.0,314.0,999.0,0.0,1,327.0,1
1156,1156,0.8445235789490692,0.8,0.0,0.0,342.0,689.0,0.0,1,99.0,1
1157,1157,-0.16199235535990197,-0.2,0.0,1.0,359.0,992.0,1.0,0,2939.0,1
1158,1158,-0.89123125133175,-0.9,1.0,0.0,397.0,882.0,0.0,0,131.0,1
1159,1159,-0.5552755115333468,-0.6,1.0,0.0,320.0,550.0,0.0,0,200.0,1
1160,1160,0.12702995630056446,0.1,0.0,0.0,391.0,764.0,0.0,1,965.0,1
1161,1161,0.7014441997212778,0.7,1.0,1.0,430.0,755.0,0.0,0,-105.0,0
1162,1162,-0.8836784753040555,-0.9,1.0,0.0,440.0,718.0,0.0,0,102.0,1
1163,1163,-0.4073781824228674,-0.4,0.0,1.0,479.0,532.0,1.0,0,609.0,1
1164,1164,0.6924805325405744,0.7,1.0,1.0,415.0,629.0,1.0,1,746.0,1
1165,1165,0.038812456211927526,0.0,1.0,1.0,466.0,916.0,1.0,1,3618.0,1
1166,1166,-0.3268906039982219,-0.3,1.0,0.0,396.0,997.0,0.0,0,307.0,1
1167,1167,0.2369424349976582,0.2,0.0,0.0,417.0,579.0,0.0,1,834.0,1
1168,1168,0.449783893216655,0.4,1.0,1.0,273.0,663.0,1.0,1,724.0,1
1169,1169,0.2934766742235916,0.3,0.0,0.0,259.0,641.0,0.0,1,570.0,1
1170,1170,-0.7544447176378716,-0.8,1.0,0.0,442.0,768.0,0.0,0,310.0,1
1171,1171,0.44288641032953724,0.4,0.0,0.0,302.0,718.0,0.0,1,260.0,1
1172,1172,0.006664093615041056,0.0,1.0,1.0,361.0,504.0,0.0,0,4135.0,0
1173,1173,0.6888398492967521,0.7,0.0,0.0,293.0,809.0,0.0,1,128.0,1
1174,1174,0.05613829613455057,0.1,0.0,0.0,367.0,878.0,0.0,1,-205.0,1
1175,1175,-0.8677809308267797,-0.9,0.0,1.0,491.0,549.0,1.0,0,210.0,1
1176,1176,0.034101234444423256,0.0,0.0,0.0,423.0,899.0,0.0,1,218.0,1
1177,1177,-0.6057569621037859,-0.6,1.0,0.0,287.0,535.0,0.0,0,58.0,1
1178,1178,-0.8162496276103046,-0.8,0.0,1.0,321.0,677.0,1.0,0,272.0,1
1179,1179,-0.7591019025083514,-0.8,0.0,1.0,313.0,507.0,1.0,0,220.0,1
1180,1180,-0.513925871420885,-0.5,0.0,1.0,449.0,800.0,1.0,0,601.0,1
1181,1181,-0.5383639580389256,-0.5,0.0,1.0,305.0,637.0,1.0,0,218.0,1
1182,1182,0.26452845980610895,0.3,0.0,0.0,390.0,862.0,0.0,1,78.0,1
1183,1183,0.21413476242961005,0.2,0.0,0.0,382.0,948.0,0.0,1,790.0,1
1184,1184,0.7088264415761837,0.7,1.0,1.0,283.0,897.0,1.0,1,560.0,1
1185,1185,0.09960283165872497,0.1,0.0,0.0,448.0,774.0,0.0,1,888.0,1
1186,1186,-0.42372639797815936,-0.4,0.0,1.0,254.0,791.0,1.0,0,405.0,1
1187,1187,0.3664564514927161,0.4,1.0,1.0,440.0,516.0,1.0,1,314.0,1
1188,1188,0.3841228449344106,0.4,1.0,1.0,271.0,696.0,1.0,1,463.0,1
1189,1189,-0.6275797160581157,-0.6,1.0,0.0,396.0,986.0,0.0,0,88.0,1
1190,1190,-0.7472198927960472,-0.7,0.0,1.0,391.0,885.0,1.0,0,194.0,1
1191,1191,0.0337673285415635,0.0,1.0,1.0,443.0,904.0,1.0,1,2493.0,1
1192,1192,-0.5940336540389031,-0.6,0.0,1.0,301.0,577.0,1.0,0,342.0,1
1193,1193,0.5955710217141262,0.6,0.0,0.0,430.0,650.0,0.0,1,170.0,1
1194,1194,-0.06563439285839934,-0.1,1.0,0.0,465.0,835.0,0.0,0,1820.0,1
1195,1195,-0.5668172929494926,-0.6,0.0,1.0,450.0,886.0,1.0,0,474.0,1
1196,1196,-0.5191360040874738,-0.5,0.0,1.0,388.0,870.0,1.0,0,232.0,1
1197,1197,0.8557965065696816,0.9,0.0,0.0,309.0,755.0,0.0,1,246.0,1
1198,1198,-0.3619180553433937,-0.4,1.0,0.0,368.0,608.0,0.0,0,344.0,1
1199,1199,-0.1314479136476202,-0.1,0.0,1.0,430.0,631.0,1.0,0,669.0,1
1200,1200,-0.15057216772021453,-0.2,1.0,0.0,416.0,742.0,0.0,0,1362.0,1
1201,1201,-0.7339357031414675,-0.7,1.0,0.0,485.0,907.0,0.0,0,-212.0,1
1202,1202,0.3700117547343019,0.4,1.0,1.0,282.0,619.0,1.0,1,1219.0,1
1203,1203,0.7743665298535262,0.8,1.0,1.0,319.0,705.0,1.0,1,296.0,1
1204,1204,0.8268270322820451,0.8,1.0,1.0,471.0,535.0,1.0,1,284.0,1
1205,1205,-0.5420121856878986,-0.5,1.0,0.0,290.0,857.0,0.0,0,233.0,1
1206,1206,0.23472054317900481,0.2,0.0,0.0,347.0,922.0,0.0,1,981.0,1
1207,1207,0.4539006558140487,0.5,1.0,1.0,306.0,989.0,1.0,1,565.0,1
1208,1208,-0.764888479807546,-0.8,0.0,1.0,315.0,650.0,1.0,0,65.0,1
1209,1209,0.8335672129441444,0.8,1.0,1.0,362.0,850.0,1.0,1,208.0,1
1210,1210,-0.0704426980149061,-0.1,1.0,0.0,423.0,508.0,0.0,0,469.0,1
1211,1211,0.5496087154358197,0.5,1.0,1.0,437.0,703.0,1.0,1,270.0,1
1212,1212,0.30972315292072683,0.3,1.0,1.0,296.0,837.0,1.0,1,897.0,1
1213,1213,-0.8309125752424296,-0.8,0.0,1.0,405.0,958.0,1.0,0,277.0,1
1214,1214,-0.5619149443867477,-0.6,1.0,0.0,356.0,567.0,0.0,0,317.0,1
1215,1215,0.6721078494214262,0.7,1.0,1.0,470.0,839.0,1.0,1,621.0,1
1216,1216,-0.11631249224945295,-0.1,0.0,1.0,492.0,801.0,1.0,0,3517.0,1
1217,1217,0.15255842046325474,0.2,0.0,0.0,254.0,893.0,0.0,1,993.0,1
1218,1218,-0.1570182251557095,-0.2,1.0,0.0,335.0,501.0,0.0,0,954.0,1
1219,1219,0.8340996120971848,0.8,0.0,0.0,334.0,540.0,0.0,1,206.0,1
1220,1220,0.36337929748607134,0.4,1.0,1.0,320.0,640.0,1.0,1,460.0,1
1221,1221,0.7480124932134539,0.7,0.0,0.0,457.0,893.0,0.0,1,180.0,1
1222,1222,-0.8432080384257872,-0.8,0.0,1.0,307.0,850.0,1.0,0,343.0,1
1223,1223,0.8194696670869454,0.8,1.0,1.0,441.0,809.0,1.0,1,210.0,1
1224,1224,-0.30351320630273404,-0.3,0.0,1.0,383.0,587.0,1.0,0,230.0,1
1225,1225,-0.7331682692136188,-0.7,1.0,0.0,435.0,833.0,0.0,0,152.0,1
1226,1226,0.7390301886402068,0.7,1.0,1.0,321.0,939.0,1.0,1,390.0,1
1227,1227,0.06680403000503843,0.1,1.0,1.0,277.0,983.0,1.0,1,3740.0,1
1228,1228,-0.5426792260778621,-0.5,0.0,1.0,492.0,874.0,1.0,0,254.0,1
1229,1229,-0.40772260510299235,-0.4,1.0,0.0,475.0,841.0,0.0,0,104.0,1
1230,1230,-0.37001610763545356,-0.4,1.0,0.0,452.0,545.0,0.0,0,453.0,1
1231,1231,0.7187318238732229,0.7,0.0,0.0,353.0,580.0,0.0,1,467.0,1
1232,1232,-0.7099309370233502,-0.7,0.0,1.0,259.0,529.0,1.0,0,182.0,1
1233,1233,-0.15570004189779463,-0.2,0.0,1.0,293.0,578.0,1.0,0,1579.0,1
1234,1234,0.1937350883717629,0.2,1.0,1.0,487.0,803.0,1.0,1,1680.0,1
1235,1235,-0.8238140633770903,-0.8,0.0,1.0,318.0,575.0,1.0,0,337.0,1
1236,1236,0.8874630761536487,0.9,0.0,0.0,431.0,634.0,0.0,1,365.0,1
1237,1237,0.7906247785665607,0.8,1.0,1.0,441.0,862.0,0.0,0,-3.0,0
1238,1238,0.3622259626316987,0.4,0.0,0.0,407.0,716.0,0.0,1,487.0,1
1239,1239,0.7647951640848237,0.8,1.0,1.0,474.0,656.0,1.0,1,390.0,1
1240,1240,0.20325784526433954,0.2,1.0,1.0,313.0,644.0,1.0,1,1003.0,1
1241,1241,-0.21336380015496037,-0.2,1.0,0.0,421.0,717.0,0.0,0,192.0,1
1242,1242,-0.8331258066261954,-0.8,1.0,0.0,421.0,959.0,0.0,0,290.0,1
1243,1243,-0.7371751502190492,-0.7,0.0,1.0,269.0,633.0,1.0,0,288.0,1
1244,1244,0.3788662877839136,0.4,1.0,1.0,491.0,733.0,1.0,1,326.0,1
1245,1245,-0.4996108358483366,-0.5,1.0,0.0,432.0,739.0,0.0,0,419.0,1
1246,1246,-0.030901334621395438,-0.0,0.0,1.0,457.0,979.0,0.0,1,3564.0,0
1247,1247,-0.19480654626254845,-0.2,1.0,0.0,454.0,691.0,0.0,0,235.0,1
1248,1248,-0.15545099524537176,-0.2,0.0,1.0,434.0,996.0,1.0,0,1840.0,1
1249,1249,-0.6470722502539279,-0.6,1.0,0.0,436.0,941.0,0.0,0,193.0,1
1250,1250,0.817742435564842,0.8,1.0,1.0,291.0,936.0,1.0,1,153.0,1
1251,1251,0.382702929130735,0.4,1.0,1.0,372.0,908.0,1.0,1,420.0,1
1252,1252,0.019090923076488187,0.0,0.0,0.0,338.0,664.0,0.0,1,2248.0,1
1253,1253,0.13991450982513676,0.1,1.0,1.0,468.0,891.0,1.0,1,-149.0,1
1254,1254,0.34085606082955533,0.3,1.0,1.0,386.0,903.0,1.0,1,1881.0,1
1255,1255,-0.8691202751487308,-0.9,0.0,1.0,468.0,953.0,1.0,0,159.0,1
1256,1256,0.07205519122945125,0.1,1.0,1.0,342.0,666.0,0.0,0,1752.0,0
1257,1257,0.4408474231139551,0.4,0.0,0.0,269.0,627.0,0.0,1,354.0,1
1258,1258,-0.5505984505963458,-0.6,0.0,1.0,334.0,606.0,1.0,0,300.0,1
1259,1259,-0.7998867985028091,-0.8,1.0,0.0,326.0,670.0,0.0,0,184.0,1
1260,1260,-0.5512541739914397,-0.6,0.0,1.0,262.0,949.0,1.0,0,239.0,1
1261,1261,0.5577224667271109,0.6,0.0,0.0,299.0,851.0,0.0,1,160.0,1
1262,1262,-0.6489160119168766,-0.6,1.0,0.0,468.0,887.0,0.0,0,145.0,1
1263,1263,0.06736584976086413,0.1,1.0,1.0,299.0,689.0,0.0,0,212.0,0
1264,1264,-0.316735410858903,-0.3,0.0,1.0,457.0,760.0,1.0,0,193.0,1
1265,1265,0.4115011557879432,0.4,1.0,1.0,404.0,841.0,1.0,1,365.0,1
1266,1266,-0.3400457227755723,-0.3,1.0,0.0,446.0,746.0,0.0,0,298.0,1
1267,1267,0.6400452589735507,0.6,0.0,0.0,350.0,690.0,0.0,1,450.0,1
1268,1268,-0.18924025531794808,-0.2,0.0,1.0,344.0,826.0,1.0,0,300.0,1
1269,1269,-0.022421485546326725,-0.0,0.0,1.0,492.0,585.0,1.0,0,3923.0,1
1270,1270,0.7606839924326342,0.8,0.0,0.0,457.0,530.0,0.0,1,203.0,1
1271,1271,0.14766319467374178,0.1,0.0,0.0,454.0,753.0,0.0,1,463.0,1
1272,1272,0.09591921646022805,0.1,0.0,0.0,434.0,976.0,0.0,1,90.0,1
1273,1273,0.3620276462044406,0.4,1.0,1.0,282.0,931.0,1.0,1,507.0,1
1274,1274,0.015320978284231845,0.0,0.0,0.0,326.0,623.0,0.0,1,1391.0,1
1275,1275,0.866517418028461,0.9,1.0,1.0,357.0,944.0,1.0,1,329.0,1
1276,1276,-0.6892249607786857,-0.7,1.0,0.0,490.0,877.0,0.0,0,173.0,1
1277,1277,0.07802496588884067,0.1,1.0,1.0,475.0,947.0,0.0,0,-172.0,0
1278,1278,0.8156762766350732,0.8,0.0,0.0,324.0,982.0,0.0,1,-436.0,1
1279,1279,0.8867137652467941,0.9,0.0,0.0,423.0,828.0,0.0,1,449.0,1
1280,1280,0.6848401763684956,0.7,1.0,1.0,462.0,900.0,1.0,1,398.0,1
1281,1281,0.3219099180477355,0.3,0.0,0.0,366.0,854.0,0.0,1,190.0,1
1282,1282,0.29000089468028156,0.3,1.0,1.0,478.0,538.0,1.0,1,344.0,1
1283,1283,0.7735254961505594,0.8,1.0,1.0,486.0,787.0,1.0,1,537.0,1
1284,1284,-0.6983268942708809,-0.7,0.0,1.0,476.0,930.0,1.0,0,174.0,1
1285,1285,-0.8662328268332818,-0.9,1.0,0.0,414.0,840.0,0.0,0,86.0,1
1286,1286,-0.6285207217020068,-0.6,0.0,1.0,458.0,548.0,1.0,0,224.0,1
1287,1287,0.644167851817537,0.6,1.0,1.0,382.0,650.0,1.0,1,298.0,1
1288,1288,-0.42328624833796963,-0.4,1.0,0.0,414.0,787.0,1.0,1,-51.0,0
1289,1289,0.03750242228252065,0.0,0.0,0.0,463.0,827.0,0.0,1,680.0,1
1290,1290,-0.3069285131546603,-0.3,1.0,0.0,351.0,635.0,0.0,0,404.0,1
1291,1291,-0.42305996119253014,-0.4,0.0,1.0,356.0,946.0,1.0,0,718.0,1
1292,1292,0.5615858852685706,0.6,1.0,1.0,262.0,613.0,1.0,1,35.0,1
1293,1293,-0.289776032290463,-0.3,0.0,1.0,318.0,677.0,1.0,0,695.0,1
1294,1294,-0.46736512082839393,-0.5,1.0,0.0,334.0,987.0,0.0,0,189.0,1
1295,1295,0.49238682237075293,0.5,1.0,1.0,350.0,755.0,1.0,1,385.0,1
1296,1296,-0.32818466297627324,-0.3,1.0,0.0,492.0,756.0,0.0,0,392.0,1
1297,1297,-0.7357902126735967,-0.7,1.0,0.0,421.0,720.0,0.0,0,159.0,1
1298,1298,0.06473907116480215,0.1,0.0,0.0,468.0,576.0,0.0,1,926.0,1
1299,1299,-0.08529008022330598,-0.1,1.0,0.0,487.0,693.0,0.0,0,870.0,1
1300,1300,0.6298217274224925,0.6,1.0,1.0,311.0,635.0,1.0,1,174.0,1
1301,1301,-0.28209043363098985,-0.3,1.0,0.0,416.0,818.0,0.0,0,156.0,1
1302,1302,0.4477499916324007,0.4,1.0,1.0,461.0,856.0,1.0,1,973.0,1
1303,1303,0.7549508174212,0.8,0.0,0.0,279.0,809.0,0.0,1,322.0,1
1304,1304,0.031846144172160806,0.0,0.0,0.0,425.0,937.0,0.0,1,1588.0,1
1305,1305,0.10214896267049134,0.1,0.0,0.0,299.0,629.0,0.0,1,2262.0,1
1306,1306,0.7951981933867508,0.8,1.0,1.0,372.0,709.0,1.0,1,379.0,1
1307,1307,0.12466998517795658,0.1,1.0,1.0,297.0,525.0,1.0,1,1708.0,1
1308,1308,0.3371603674631706,0.3,1.0,1.0,329.0,966.0,1.0,1,975.0,1
1309,1309,-0.3293204147295197,-0.3,0.0,1.0,370.0,970.0,1.0,0,540.0,1
1310,1310,0.22789484783749459,0.2,1.0,1.0,455.0,802.0,1.0,1,383.0,1
1311,1311,-0.4494083626025521,-0.4,1.0,0.0,406.0,594.0,0.0,0,180.0,1
1312,1312,-0.5047132071659991,-0.5,0.0,1.0,496.0,591.0,1.0,0,483.0,1
1313,1313,0.8319782001845751,0.8,1.0,1.0,468.0,812.0,1.0,1,530.0,1
1314,1314,-0.6147312557724771,-0.6,1.0,0.0,265.0,742.0,0.0,0,153.0,1
1315,1315,0.26671391573420034,0.3,0.0,0.0,319.0,690.0,0.0,1,781.0,1
1316,1316,-0.4403047248383406,-0.4,1.0,0.0,328.0,773.0,0.0,0,259.0,1
1317,1317,-0.506279622616389,-0.5,1.0,0.0,258.0,871.0,0.0,0,141.0,1
1318,1318,0.1277990511741166,0.1,1.0,1.0,459.0,615.0,1.0,1,1686.0,1
1319,1319,0.5865609247963318,0.6,0.0,0.0,404.0,705.0,0.0,1,261.0,1
1320,1320,0.3198741763185483,0.3,1.0,1.0,271.0,632.0,1.0,1,1337.0,1
1321,1321,-0.42191962320989856,-0.4,0.0,1.0,301.0,744.0,1.0,0,365.0,1
1322,1322,0.5959956870565534,0.6,1.0,1.0,311.0,717.0,1.0,1,652.0,1
1323,1323,-0.8216847480546018,-0.8,0.0,1.0,440.0,945.0,1.0,0,235.0,1
1324,1324,0.24288688545077697,0.2,1.0,1.0,412.0,601.0,0.0,0,-163.0,0
1325,1325,0.266248159286366,0.3,0.0,0.0,326.0,602.0,0.0,1,172.0,1
1326,1326,-0.8095407390865821,-0.8,1.0,0.0,456.0,786.0,0.0,0,88.0,1
1327,1327,-0.2943735612433248,-0.3,0.0,1.0,456.0,586.0,1.0,0,348.0,1
1328,1328,-0.17951037388887703,-0.2,1.0,0.0,272.0,686.0,0.0,0,562.0,1
1329,1329,-0.20624139955221055,-0.2,1.0,0.0,442.0,864.0,0.0,0,514.0,1
1330,1330,0.8929492519533261,0.9,0.0,0.0,261.0,922.0,0.0,1,217.0,1
1331,1331,-0.09958453516978416,-0.1,0.0,1.0,351.0,716.0,1.0,0,3933.0,1
1332,1332,0.803047205354772,0.8,0.0,0.0,392.0,533.0,0.0,1,215.0,1
1333,1333,-0.272155963189855,-0.3,0.0,1.0,284.0,730.0,1.0,0,1196.0,1
1334,1334,-0.4145398829901831,-0.4,1.0,0.0,386.0,919.0,0.0,0,265.0,1
1335,1335,0.4212427719182078,0.4,0.0,0.0,395.0,660.0,0.0,1,125.0,1
1336,1336,-0.8455926524102807,-0.8,0.0,1.0,479.0,974.0,1.0,0,507.0,1
1337,1337,0.1938064415769326,0.2,1.0,1.0,490.0,681.0,1.0,1,1039.0,1
1338,1338,-0.41923553980440526,-0.4,0.0,1.0,255.0,898.0,1.0,0,327.0,1
1339,1339,0.05422260225628439,0.1,1.0,1.0,348.0,829.0,1.0,1,2233.0,1
1340,1340,0.21746865921467406,0.2,1.0,1.0,359.0,666.0,0.0,0,-55.0,0
1341,1341,-0.860943703758938,-0.9,1.0,0.0,322.0,668.0,0.0,0,200.0,1
1342,1342,-0.260706567965173,-0.3,0.0,1.0,379.0,703.0,1.0,0,1308.0,1
1343,1343,-0.1214784116133315,-0.1,1.0,0.0,260.0,591.0,0.0,0,379.0,1
1344,1344,-0.8386218416119955,-0.8,1.0,0.0,272.0,982.0,0.0,0,256.0,1
1345,1345,0.07531259494113074,0.1,0.0,0.0,421.0,999.0,0.0,1,3520.0,1
1346,1346,-0.7160072064710084,-0.7,0.0,1.0,450.0,992.0,1.0,0,458.0,1
1347,1347,0.10770924633434997,0.1,1.0,1.0,418.0,634.0,1.0,1,3638.0,1
1348,1348,0.07343915201001572,0.1,0.0,0.0,358.0,537.0,0.0,1,595.0,1
1349,1349,-0.8249486889273148,-0.8,0.0,1.0,300.0,982.0,1.0,0,608.0,1
1350,1350,0.5790426675639125,0.6,0.0,0.0,483.0,557.0,0.0,1,210.0,1
1351,1351,0.3623478730590529,0.4,0.0,0.0,461.0,800.0,0.0,1,679.0,1
1352,1352,-0.6822134916351896,-0.7,1.0,0.0,400.0,829.0,0.0,0,341.0,1
1353,1353,-0.19622355884575737,-0.2,0.0,1.0,423.0,943.0,1.0,0,904.0,1
1354,1354,-0.4176356763539936,-0.4,1.0,0.0,378.0,749.0,0.0,0,123.0,1
1355,1355,0.19209753646374572,0.2,0.0,0.0,483.0,911.0,0.0,1,836.0,1
1356,1356,-0.28604329444570087,-0.3,0.0,1.0,312.0,763.0,1.0,0,1285.0,1
1357,1357,-0.71793095416062,-0.7,0.0,1.0,334.0,755.0,1.0,0,191.0,1
1358,1358,0.7146951630606958,0.7,1.0,1.0,404.0,609.0,0.0,0,-193.0,0
1359,1359,0.2725515761836207,0.3,0.0,0.0,481.0,621.0,0.0,1,428.0,1
1360,1360,-0.5964431157967451,-0.6,1.0,0.0,415.0,841.0,0.0,0,304.0,1
1361,1361,0.025772339851255155,0.0,1.0,1.0,366.0,952.0,0.0,0,-398.0,0
1362,1362,-0.12988029050383054,-0.1,0.0,1.0,289.0,554.0,1.0,0,807.0,1
1363,1363,-0.1409712510436607,-0.1,1.0,0.0,445.0,698.0,0.0,0,317.0,1
1364,1364,-0.23348375637262153,-0.2,1.0,0.0,382.0,782.0,0.0,0,-284.0,1
1365,1365,-0.23943893668839955,-0.2,1.0,0.0,327.0,874.0,0.0,0,-31.0,1
1366,1366,-0.2608094554656022,-0.3,1.0,0.0,440.0,800.0,0.0,0,-70.0,1
1367,1367,0.3260318264669667,0.3,0.0,0.0,429.0,901.0,0.0,1,490.0,1
1368,1368,0.14810319438442476,0.1,1.0,1.0,446.0,845.0,1.0,1,3709.0,1
1369,1369,-0.33202063150882855,-0.3,1.0,0.0,269.0,695.0,0.0,0,346.0,1
1370,1370,0.6214732992518252,0.6,1.0,1.0,284.0,645.0,1.0,1,611.0,1
1371,1371,0.40643400416215403,0.4,0.0,0.0,447.0,826.0,0.0,1,167.0,1
1372,1372,-0.33751254457086266,-0.3,0.0,1.0,287.0,747.0,1.0,0,546.0,1
1373,1373,0.01604022654598991,0.0,1.0,1.0,498.0,960.0,1.0,1,532.0,1
1374,1374,-0.8747307047738851,-0.9,0.0,1.0,456.0,804.0,1.0,0,320.0,1
1375,1375,0.21371760235336945,0.2,1.0,1.0,452.0,962.0,1.0,1,696.0,1
1376,1376,0.0686565660972398,0.1,1.0,1.0,307.0,672.0,0.0,0,2911.0,0
1377,1377,0.6661664313866763,0.7,1.0,1.0,348.0,784.0,1.0,1,608.0,1
1378,1378,-0.7702037879119549,-0.8,0.0,1.0,459.0,970.0,1.0,0,301.0,1
1379,1379,-0.8140093015529303,-0.8,1.0,0.0,394.0,527.0,0.0,0,49.0,1
1380,1380,-0.30888361640759576,-0.3,1.0,0.0,361.0,742.0,0.0,0,377.0,1
1381,1381,0.5994490168822227,0.6,0.0,0.0,310.0,790.0,0.0,1,240.0,1
1382,1382,0.8834819809588156,0.9,0.0,0.0,308.0,990.0,0.0,1,222.0,1
1383,1383,0.48311602088875893,0.5,1.0,1.0,489.0,886.0,1.0,1,635.0,1
1384,1384,-0.04197917178146249,-0.0,1.0,0.0,286.0,969.0,0.0,0,2375.0,1
1385,1385,-0.760841785384966,-0.8,1.0,0.0,366.0,906.0,0.0,0,118.0,1
1386,1386,-0.34573924676996926,-0.3,0.0,1.0,385.0,952.0,1.0,0,393.0,1
1387,1387,-0.3081494065893985,-0.3,1.0,0.0,498.0,816.0,0.0,0,266.0,1
1388,1388,0.39471263445739824,0.4,0.0,0.0,320.0,942.0,0.0,1,418.0,1
1389,1389,0.525181171289275,0.5,0.0,0.0,354.0,734.0,0.0,1,532.0,1
1390,1390,-0.5455832755565663,-0.5,0.0,1.0,496.0,585.0,1.0,0,469.0,1
1391,1391,-0.5166422766328014,-0.5,1.0,0.0,297.0,559.0,0.0,0,194.0,1
1392,1392,-0.6925874232209358,-0.7,0.0,1.0,317.0,799.0,1.0,0,64.0,1
1393,1393,-0.2124234283198453,-0.2,0.0,1.0,346.0,763.0,1.0,0,671.0,1
1394,1394,0.5225124656946475,0.5,1.0,1.0,456.0,735.0,1.0,1,489.0,1
1395,1395,-0.7202818246174092,-0.7,1.0,0.0,471.0,664.0,0.0,0,185.0,1
1396,1396,-0.23054151964540381,-0.2,0.0,1.0,462.0,751.0,1.0,0,687.0,1
1397,1397,-0.31156774024904366,-0.3,0.0,1.0,262.0,574.0,1.0,0,1144.0,1
1398,1398,-0.46983957170260615,-0.5,0.0,1.0,493.0,543.0,1.0,0,554.0,1
1399,1399,0.8310914147209502,0.8,1.0,1.0,410.0,814.0,1.0,1,356.0,1
1400,1400,0.7544450858582931,0.8,0.0,0.0,373.0,740.0,0.0,1,177.0,1
1401,1401,0.7852732406720745,0.8,0.0,0.0,418.0,850.0,0.0,1,312.0,1
1402,1402,0.3980493113793141,0.4,0.0,0.0,317.0,728.0,0.0,1,625.0,1
1403,1403,0.6975395546190616,0.7,0.0,0.0,283.0,552.0,0.0,1,535.0,1
1404,1404,0.8944830110997778,0.9,0.0,0.0,292.0,570.0,0.0,1,458.0,1
1405,1405,0.4721254005497063,0.5,0.0,0.0,261.0,579.0,0.0,1,360.0,1
1406,1406,0.4357179441361735,0.4,1.0,1.0,413.0,638.0,1.0,1,449.0,1
1407,1407,0.5567751144539247,0.6,1.0,1.0,284.0,663.0,1.0,1,333.0,1
1408,1408,0.7285254266800799,0.7,0.0,0.0,251.0,822.0,0.0,1,257.0,1
1409,1409,0.2732934642148307,0.3,1.0,1.0,322.0,507.0,1.0,1,861.0,1
1410,1410,-0.2152932892558055,-0.2,0.0,1.0,364.0,789.0,1.0,0,1427.0,1
1411,1411,-0.28895969470017857,-0.3,1.0,0.0,476.0,623.0,0.0,0,221.0,1
1412,1412,-0.08563942912629041,-0.1,1.0,0.0,279.0,577.0,0.0,0,1064.0,1
1413,1413,-0.18996448977053282,-0.2,1.0,0.0,433.0,844.0,0.0,0,423.0,1
1414,1414,0.2325745536426368,0.2,0.0,0.0,316.0,561.0,0.0,1,1413.0,1
1415,1415,-0.7058026506669797,-0.7,0.0,1.0,273.0,765.0,1.0,0,242.0,1
1416,1416,0.19483360866512667,0.2,1.0,1.0,297.0,666.0,1.0,1,477.0,1
1417,1417,-0.58310815154511,-0.6,1.0,0.0,397.0,958.0,0.0,0,425.0,1
1418,1418,0.25098427351718133,0.3,1.0,1.0,289.0,746.0,1.0,1,985.0,1
1419,1419,0.5164579520194935,0.5,1.0,1.0,465.0,933.0,1.0,1,192.0,1
1420,1420,0.5158795993460973,0.5,0.0,0.0,426.0,778.0,0.0,1,246.0,1
1421,1421,-0.07503855482091437,-0.1,0.0,1.0,434.0,692.0,1.0,0,3014.0,1
1422,1422,0.7934306019657763,0.8,1.0,1.0,285.0,733.0,1.0,1,42.0,1
1423,1423,-0.13781097222738292,-0.1,1.0,0.0,456.0,675.0,0.0,0,1759.0,1
1424,1424,0.21304695175112787,0.2,1.0,1.0,487.0,581.0,1.0,1,852.0,1
1425,1425,0.2683547864239634,0.3,0.0,0.0,254.0,612.0,0.0,1,694.0,1
1426,1426,-0.08680956633623771,-0.1,1.0,0.0,479.0,700.0,0.0,0,331.0,1
1427,1427,0.58386297946855,0.6,0.0,0.0,444.0,798.0,0.0,1,-222.0,1
1428,1428,-0.18774180304841903,-0.2,1.0,0.0,430.0,584.0,0.0,0,1936.0,1
1429,1429,0.7417009684827006,0.7,0.0,0.0,265.0,660.0,0.0,1,215.0,1
1430,1430,-0.2380124233952804,-0.2,1.0,0.0,275.0,913.0,0.0,0,202.0,1
1431,1431,-0.07010181952856198,-0.1,0.0,1.0,386.0,645.0,1.0,0,2209.0,1
1432,1432,0.2774396775151501,0.3,1.0,1.0,279.0,761.0,1.0,1,750.0,1
1433,1433,-0.7106750700274374,-0.7,0.0,1.0,360.0,819.0,1.0,0,251.0,1
1434,1434,0.4827919235876629,0.5,0.0,0.0,445.0,971.0,0.0,1,134.0,1
1435,1435,-0.2560632896869317,-0.3,1.0,0.0,297.0,976.0,0.0,0,567.0,1
1436,1436,0.8712656379637737,0.9,0.0,0.0,430.0,842.0,0.0,1,98.0,1
1437,1437,0.7481767543699961,0.7,1.0,1.0,284.0,887.0,1.0,1,409.0,1
1438,1438,-0.17225854467962576,-0.2,0.0,1.0,489.0,998.0,1.0,0,1223.0,1
1439,1439,0.4516275842400662,0.5,1.0,1.0,321.0,677.0,1.0,1,622.0,1
1440,1440,-0.6329870491463896,-0.6,0.0,1.0,431.0,541.0,1.0,0,418.0,1
1441,1441,0.24665969950361288,0.2,1.0,1.0,297.0,508.0,0.0,0,-85.0,0
1442,1442,-0.45246614693963444,-0.5,1.0,0.0,445.0,927.0,0.0,0,308.0,1
1443,1443,0.5675078576191025,0.6,1.0,1.0,299.0,914.0,1.0,1,627.0,1
1444,1444,0.7748515253674947,0.8,0.0,0.0,460.0,807.0,0.0,1,363.0,1
1445,1445,0.32666800263131035,0.3,1.0,1.0,335.0,912.0,0.0,0,-67.0,0
1446,1446,0.5067303083016487,0.5,0.0,0.0,254.0,618.0,0.0,1,548.0,1
1447,1447,-0.24107868725370574,-0.2,0.0,1.0,310.0,923.0,1.0,0,437.0,1
1448,1448,-0.26001959491169013,-0.3,0.0,1.0,368.0,959.0,1.0,0,1023.0,1
1449,1449,0.7920799704970644,0.8,0.0,0.0,482.0,608.0,0.0,1,310.0,1
1450,1450,-0.10686092068550823,-0.1,1.0,0.0,381.0,971.0,0.0,0,2308.0,1
1451,1451,0.12183976484556858,0.1,0.0,0.0,331.0,766.0,0.0,1,253.0,1
1452,1452,-0.08182270661157853,-0.1,1.0,0.0,252.0,797.0,0.0,0,331.0,1
1453,1453,0.4830743108747627,0.5,0.0,0.0,414.0,640.0,0.0,1,306.0,1
1454,1454,-0.7005961430551088,-0.7,1.0,0.0,279.0,961.0,0.0,0,90.0,1
1455,1455,-0.144928104671334,-0.1,1.0,0.0,403.0,791.0,0.0,0,-404.0,1
1456,1456,-0.8679671236440911,-0.9,1.0,0.0,332.0,550.0,0.0,0,258.0,1
1457,1457,-0.35518942746974935,-0.4,1.0,0.0,265.0,554.0,0.0,0,31.0,1
1458,1458,-0.5755494519189528,-0.6,0.0,1.0,311.0,738.0,1.0,0,411.0,1
1459,1459,0.7515175737299075,0.8,0.0,0.0,378.0,664.0,0.0,1,208.0,1
1460,1460,-0.4684662837118327,-0.5,0.0,1.0,317.0,971.0,1.0,0,722.0,1
1461,1461,-0.19817504995829227,-0.2,1.0,0.0,419.0,800.0,0.0,0,191.0,1
1462,1462,-0.6829544685642716,-0.7,0.0,1.0,266.0,964.0,1.0,0,250.0,1
1463,1463,-0.5450289972917642,-0.5,1.0,0.0,290.0,527.0,0.0,0,183.0,1
1464,1464,0.6690534097023989,0.7,0.0,0.0,326.0,835.0,0.0,1,289.0,1
1465,1465,0.4901046764066067,0.5,1.0,1.0,396.0,716.0,1.0,1,578.0,1
1466,1466,0.5288138449571661,0.5,0.0,0.0,442.0,919.0,0.0,1,219.0,1
1467,1467,-0.4683520344877024,-0.5,0.0,1.0,372.0,839.0,1.0,0,339.0,1
1468,1468,0.3978071505605977,0.4,0.0,0.0,481.0,666.0,0.0,1,123.0,1
1469,1469,0.7360295644414298,0.7,0.0,0.0,405.0,774.0,0.0,1,321.0,1
1470,1470,-0.6677292513713375,-0.7,0.0,1.0,403.0,619.0,1.0,0,248.0,1
1471,1471,0.02610024590967397,0.0,1.0,1.0,440.0,726.0,1.0,1,-296.0,1
1472,1472,-0.010362501787713363,-0.0,0.0,1.0,346.0,887.0,1.0,0,3767.0,1
1473,1473,0.5701665208442429,0.6,0.0,0.0,284.0,539.0,0.0,1,437.0,1
1474,1474,0.7978947743253945,0.8,0.0,0.0,285.0,836.0,0.0,1,159.0,1
1475,1475,0.33144828622801137,0.3,0.0,0.0,252.0,746.0,0.0,1,472.0,1
1476,1476,-0.024394486404539006,-0.0,0.0,1.0,493.0,675.0,1.0,0,3832.0,1
1477,1477,-0.4219835192246144,-0.4,0.0,1.0,420.0,961.0,0.0,1,-471.0,0
1478,1478,0.854616300416284,0.9,1.0,1.0,461.0,772.0,1.0,1,217.0,1
1479,1479,-0.04680947840503247,-0.0,1.0,0.0,353.0,956.0,0.0,0,501.0,1
1480,1480,-0.7438992506253704,-0.7,0.0,1.0,479.0,695.0,1.0,0,346.0,1
1481,1481,0.009685629037467058,0.0,0.0,0.0,467.0,754.0,1.0,0,3779.0,0
1482,1482,-0.46048007773647537,-0.5,1.0,0.0,452.0,719.0,0.0,0,79.0,1
1483,1483,0.6370879725304942,0.6,0.0,0.0,468.0,794.0,0.0,1,298.0,1
1484,1484,0.27737814984698106,0.3,0.0,0.0,456.0,903.0,0.0,1,251.0,1
1485,1485,-0.3558478791727355,-0.4,1.0,0.0,417.0,797.0,0.0,0,236.0,1
1486,1486,-0.6034477321293352,-0.6,0.0,1.0,376.0,552.0,1.0,0,432.0,1
1487,1487,-0.6457929107068445,-0.6,1.0,0.0,332.0,786.0,0.0,0,252.0,1
1488,1488,-0.5926447718648721,-0.6,1.0,0.0,342.0,609.0,0.0,0,279.0,1
1489,1489,-0.5641523604569869,-0.6,1.0,0.0,466.0,560.0,0.0,0,124.0,1
1490,1490,0.24927333149434283,0.2,0.0,0.0,455.0,602.0,0.0,1,1383.0,1
1491,1491,-0.11919925142258891,-0.1,1.0,0.0,310.0,991.0,0.0,0,949.0,1
