,trial,coherence,coherence_bin,green_side,correct_side,target_onset,checker_onset,decision,green_decision,decision_time,correct_decision
0,0,0.325938010148643,0.3,0.0,0.0,471.0,789.0,0.0,1,110.0,1
1,1,0.6230867021633061,0.6,0.0,0.0,312.0,793.0,0.0,1,175.0,1
2,2,-0.4042770266463993,-0.4,0.0,1.0,442.0,669.0,1.0,0,189.0,1
3,3,-0.1382314114655233,-0.1,0.0,1.0,285.0,945.0,1.0,0,560.0,1
4,4,0.4746537534748331,0.5,1.0,1.0,373.0,507.0,1.0,1,170.0,1
5,5,0.70439552007132,0.7,0.0,0.0,318.0,609.0,0.0,1,183.0,1
6,6,-0.07259772263497344,-0.1,1.0,0.0,378.0,669.0,0.0,0,703.0,1
7,7,0.09238881833001644,0.1,1.0,1.0,268.0,836.0,0.0,0,-24.0,0
8,8,-0.6128133029017792,-0.6,0.0,1.0,471.0,505.0,1.0,0,324.0,1
9,9,0.08911169354658521,0.1,1.0,1.0,337.0,707.0,0.0,0,246.0,0
10,10,0.6779930914247826,0.7,0.0,0.0,314.0,750.0,0.0,1,266.0,1
11,11,0.028923131327461382,0.0,1.0,1.0,267.0,866.0,0.0,0,1087.0,0
12,12,-0.21305152074730738,-0.2,0.0,1.0,322.0,858.0,1.0,0,350.0,1
13,13,0.13789887540025492,0.1,1.0,1.0,453.0,769.0,1.0,1,1538.0,1
14,14,0.5767834297868287,0.6,0.0,0.0,258.0,567.0,0.0,1,135.0,1
15,15,0.5127399627456332,0.5,1.0,1.0,468.0,557.0,1.0,1,425.0,1
16,16,-0.48416378945787547,-0.5,1.0,0.0,290.0,554.0,0.0,0,196.0,1
17,17,-0.6627845876778563,-0.7,0.0,1.0,392.0,893.0,1.0,0,165.0,1
18,18,-0.47028637846996557,-0.5,0.0,1.0,355.0,685.0,1.0,0,320.0,1
19,19,0.736070293081562,0.7,0.0,0.0,452.0,658.0,0.0,1,370.0,1
20,20,0.23165716545214343,0.2,1.0,1.0,334.0,927.0,1.0,1,1709.0,1
21,21,0.495943476701033,0.5,0.0,0.0,468.0,735.0,0.0,1,207.0,1
22,22,-0.8819945752580052,-0.9,0.0,1.0,442.0,786.0,1.0,0,362.0,1
23,23,-0.19798625779189916,-0.2,1.0,0.0,297.0,758.0,0.0,0,255.0,1
24,24,-0.32539922939691657,-0.3,1.0,0.0,432.0,659.0,0.0,0,119.0,1
25,25,-0.4988924221515911,-0.5,0.0,1.0,449.0,793.0,1.0,0,118.0,1
26,26,-0.8465440828050246,-0.8,1.0,0.0,463.0,562.0,0.0,0,175.0,1
27,27,0.838760287261825,0.8,1.0,1.0,358.0,624.0,1.0,1,428.0,1
28,28,0.47406416518420047,0.5,0.0,0.0,451.0,589.0,0.0,1,310.0,1
29,29,-0.8815475798753646,-0.9,1.0,0.0,301.0,681.0,0.0,0,118.0,1
30,30,-0.3515721778173865,-0.4,1.0,0.0,414.0,669.0,0.0,0,217.0,1
31,31,-0.4326798723627095,-0.4,1.0,0.0,424.0,760.0,0.0,0,116.0,1
32,32,-0.2601561738048538,-0.3,1.0,0.0,495.0,681.0,0.0,0,234.0,1
33,33,-0.8324310338558929,-0.8,0.0,1.0,407.0,801.0,1.0,0,202.0,1
34,34,-0.3237414629996598,-0.3,1.0,0.0,280.0,669.0,0.0,0,281.0,1
35,35,-0.7382870614139508,-0.7,1.0,0.0,311.0,517.0,0.0,0,192.0,1
36,36,0.5265714263714588,0.5,1.0,1.0,255.0,901.0,0.0,0,-56.0,0
37,37,0.8615364446871269,0.9,1.0,1.0,463.0,561.0,1.0,1,516.0,1
38,38,0.7619571425977457,0.8,1.0,1.0,318.0,579.0,1.0,1,323.0,1
39,39,-0.07721052651881921,-0.1,1.0,0.0,256.0,539.0,0.0,0,415.0,1
40,40,0.646858638717542,0.6,0.0,0.0,386.0,784.0,0.0,1,160.0,1
41,41,-0.5864787494728951,-0.6,1.0,0.0,464.0,904.0,0.0,0,282.0,1
42,42,-0.08823680469751338,-0.1,0.0,1.0,452.0,606.0,1.0,0,502.0,1
43,43,0.14416765210961124,0.1,1.0,1.0,349.0,547.0,1.0,1,1404.0,1
44,44,-0.07315224476147675,-0.1,1.0,0.0,339.0,996.0,0.0,0,445.0,1
45,45,-0.7648922293549592,-0.8,0.0,1.0,380.0,549.0,1.0,0,281.0,1
46,46,-0.12321110982668382,-0.1,1.0,0.0,367.0,885.0,0.0,0,458.0,1
47,47,0.011067228989084077,0.0,1.0,1.0,455.0,684.0,0.0,0,1861.0,0
48,48,-0.19703159486960875,-0.2,0.0,1.0,424.0,898.0,1.0,0,1188.0,1
49,49,0.008915401459707706,0.0,1.0,1.0,300.0,518.0,1.0,1,2182.0,1
50,50,-0.5402247350613307,-0.5,0.0,1.0,418.0,954.0,1.0,0,278.0,1
51,51,-0.739636081790544,-0.7,1.0,0.0,400.0,996.0,0.0,0,64.0,1
52,52,-0.41900657326853047,-0.4,0.0,1.0,476.0,721.0,1.0,0,903.0,1
53,53,-0.03855313977936581,-0.0,1.0,0.0,461.0,690.0,0.0,0,-331.0,1
54,54,0.25758592939988156,0.3,0.0,0.0,451.0,841.0,0.0,1,198.0,1
55,55,0.4981370913622173,0.5,1.0,1.0,484.0,978.0,1.0,1,648.0,1
56,56,-0.4210843209491073,-0.4,1.0,0.0,283.0,968.0,0.0,0,249.0,1
57,57,-0.4572335058992707,-0.5,1.0,0.0,429.0,957.0,0.0,0,-126.0,1
58,58,0.16540955454690576,0.2,1.0,1.0,470.0,657.0,0.0,0,43.0,0
59,59,0.26821915073662594,0.3,0.0,0.0,442.0,502.0,0.0,1,86.0,1
60,60,-0.5644142103625136,-0.6,1.0,0.0,389.0,730.0,0.0,0,-89.0,1
61,61,-0.49461127623013806,-0.5,1.0,0.0,297.0,899.0,0.0,0,254.0,1
62,62,0.7693105935927597,0.8,1.0,1.0,433.0,822.0,1.0,1,325.0,1
63,63,0.060498523184725594,0.1,1.0,1.0,359.0,705.0,1.0,1,1536.0,1
64,64,-0.31289213550143236,-0.3,0.0,1.0,330.0,866.0,1.0,0,564.0,1
65,65,0.3555364818906096,0.4,1.0,1.0,293.0,893.0,1.0,1,474.0,1
66,66,-0.7885368666829189,-0.8,1.0,0.0,377.0,646.0,0.0,0,37.0,1
67,67,-0.35184684916299314,-0.4,0.0,1.0,414.0,952.0,1.0,0,314.0,1
68,68,0.02477569815705616,0.0,0.0,0.0,368.0,574.0,0.0,1,1068.0,1
69,69,0.17936627910256064,0.2,0.0,0.0,425.0,738.0,0.0,1,317.0,1
70,70,-0.4083254758267118,-0.4,1.0,0.0,441.0,747.0,0.0,0,152.0,1
71,71,0.6935887296291333,0.7,0.0,0.0,350.0,881.0,0.0,1,119.0,1
72,72,0.4549758687257469,0.5,1.0,1.0,335.0,896.0,1.0,1,769.0,1
73,73,-0.8352721054476513,-0.8,1.0,0.0,283.0,720.0,0.0,0,177.0,1
74,74,-0.4245383063624043,-0.4,0.0,1.0,283.0,667.0,1.0,0,400.0,1
75,75,-0.22875113036996764,-0.2,0.0,1.0,380.0,811.0,1.0,0,1159.0,1
76,76,-0.0686041621456045,-0.1,1.0,0.0,447.0,566.0,0.0,0,587.0,1
77,77,-0.19749401530093913,-0.2,0.0,1.0,351.0,747.0,1.0,0,522.0,1
78,78,0.5733321129376846,0.6,0.0,0.0,372.0,571.0,0.0,1,567.0,1
79,79,-0.31967675119993155,-0.3,0.0,1.0,301.0,822.0,1.0,0,607.0,1
80,80,0.25928493622803084,0.3,0.0,0.0,261.0,883.0,0.0,1,316.0,1
81,81,-0.3262008300026713,-0.3,0.0,1.0,407.0,614.0,1.0,0,329.0,1
82,82,-0.10917630910388132,-0.1,0.0,1.0,403.0,755.0,0.0,1,1842.0,0
83,83,0.29811715914583925,0.3,1.0,1.0,473.0,784.0,1.0,1,643.0,1
84,84,0.26999909857084126,0.3,0.0,0.0,314.0,680.0,0.0,1,646.0,1
85,85,0.4053723835559516,0.4,0.0,0.0,278.0,956.0,0.0,1,246.0,1
86,86,-0.16460513724984616,-0.2,1.0,0.0,266.0,651.0,0.0,0,243.0,1
87,87,-0.652541570929818,-0.7,0.0,1.0,333.0,561.0,1.0,0,186.0,1
88,88,0.8927701300233938,0.9,0.0,0.0,303.0,538.0,0.0,1,119.0,1
89,89,-0.5568642258057556,-0.6,0.0,1.0,471.0,511.0,1.0,0,618.0,1
90,90,0.586601943862538,0.6,1.0,1.0,300.0,543.0,1.0,1,1067.0,1
91,91,-0.32899099690919065,-0.3,1.0,0.0,415.0,674.0,0.0,0,531.0,1
92,92,0.2075385572798233,0.2,0.0,0.0,342.0,582.0,0.0,1,486.0,1
93,93,0.15383480015229434,0.2,0.0,0.0,433.0,632.0,0.0,1,205.0,1
94,94,0.865103022466644,0.9,1.0,1.0,430.0,825.0,1.0,1,405.0,1
95,95,0.5075546079082233,0.5,1.0,1.0,317.0,891.0,1.0,1,302.0,1
96,96,-0.17299461575015107,-0.2,0.0,1.0,273.0,735.0,1.0,0,872.0,1
97,97,-0.1391041562757288,-0.1,0.0,1.0,399.0,503.0,1.0,0,1808.0,1
98,98,0.8200863606299996,0.8,0.0,0.0,298.0,788.0,0.0,1,144.0,1
99,99,0.8798785614007713,0.9,1.0,1.0,335.0,523.0,1.0,1,212.0,1
100,100,0.7845447058674359,0.8,1.0,1.0,314.0,614.0,1.0,1,522.0,1
101,101,0.1189102939248049,0.1,1.0,1.0,377.0,954.0,0.0,0,-121.0,0
102,102,0.5599699941819055,0.6,0.0,0.0,269.0,686.0,0.0,1,205.0,1
103,103,0.1661498043541979,0.2,0.0,0.0,401.0,972.0,0.0,1,457.0,1
104,104,-0.6241037379645191,-0.6,0.0,1.0,303.0,924.0,1.0,0,123.0,1
105,105,0.03267749615808346,0.0,0.0,0.0,464.0,727.0,0.0,1,1809.0,1
106,106,-0.03347534325204482,-0.0,1.0,0.0,421.0,923.0,0.0,0,1656.0,1
107,107,0.3502419216141649,0.4,0.0,0.0,294.0,599.0,0.0,1,267.0,1
108,108,-0.20267156266174735,-0.2,0.0,1.0,434.0,520.0,1.0,0,2046.0,1
109,109,0.009861378594703263,0.0,1.0,1.0,454.0,622.0,0.0,0,454.0,0
110,110,-0.30443262515346936,-0.3,0.0,1.0,412.0,874.0,1.0,0,264.0,1
111,111,-0.11369076882053719,-0.1,1.0,0.0,310.0,858.0,0.0,0,862.0,1
112,112,-0.13815781150407713,-0.1,1.0,0.0,316.0,892.0,0.0,0,252.0,1
113,113,0.41598106085095765,0.4,1.0,1.0,418.0,616.0,1.0,1,556.0,1
114,114,0.7492399050830748,0.7,0.0,0.0,444.0,561.0,0.0,1,305.0,1
115,115,-0.7319688183678148,-0.7,0.0,1.0,367.0,895.0,0.0,1,-162.0,0
116,116,-0.6388428469218338,-0.6,0.0,1.0,393.0,619.0,1.0,0,328.0,1
117,117,0.009788161662144468,0.0,0.0,0.0,353.0,773.0,0.0,1,1874.0,1
118,118,0.015057491586047966,0.0,0.0,0.0,463.0,873.0,1.0,0,1664.0,0
119,119,0.2836736437797377,0.3,1.0,1.0,398.0,637.0,1.0,1,1245.0,1
120,120,-0.12355492119530687,-0.1,0.0,1.0,443.0,858.0,0.0,1,1699.0,0
121,121,0.42767361684993455,0.4,0.0,0.0,332.0,520.0,0.0,1,278.0,1
122,122,-0.11998537257135966,-0.1,1.0,0.0,484.0,648.0,0.0,0,298.0,1
123,123,0.2960237934308084,0.3,0.0,0.0,407.0,821.0,0.0,1,592.0,1
124,124,-0.7663656410018674,-0.8,1.0,0.0,469.0,958.0,0.0,0,213.0,1
125,125,-0.8281073680845187,-0.8,0.0,1.0,321.0,712.0,1.0,0,237.0,1
126,126,0.8615073081626973,0.9,1.0,1.0,357.0,778.0,1.0,1,115.0,1
127,127,-0.6208694562026611,-0.6,0.0,1.0,344.0,756.0,1.0,0,240.0,1
128,128,-0.3795851299513102,-0.4,1.0,0.0,324.0,967.0,0.0,0,159.0,1
129,129,-0.5395164162574002,-0.5,0.0,1.0,341.0,559.0,1.0,0,170.0,1
130,130,0.3103333037171411,0.3,0.0,0.0,284.0,628.0,0.0,1,178.0,1
131,131,0.7971209603874966,0.8,1.0,1.0,388.0,751.0,1.0,1,191.0,1
132,132,0.3746218258103252,0.4,0.0,0.0,300.0,889.0,0.0,1,221.0,1
133,133,-0.0910442585581408,-0.1,0.0,1.0,381.0,741.0,1.0,0,1878.0,1
134,134,-0.26823424711629307,-0.3,0.0,1.0,355.0,760.0,1.0,0,645.0,1
135,135,0.663401727520135,0.7,1.0,1.0,479.0,940.0,1.0,1,211.0,1
136,136,-0.4737723436598051,-0.5,1.0,0.0,478.0,841.0,0.0,0,611.0,1
137,137,0.22206727140241755,0.2,1.0,1.0,268.0,752.0,1.0,1,600.0,1
138,138,-0.23468188198784024,-0.2,1.0,0.0,351.0,591.0,0.0,0,388.0,1
139,139,-0.35662516232302877,-0.4,0.0,1.0,458.0,799.0,1.0,0,273.0,1
140,140,-0.34544073620721727,-0.3,0.0,1.0,472.0,720.0,1.0,0,348.0,1
141,141,0.6337104370528929,0.6,0.0,0.0,376.0,535.0,0.0,1,359.0,1
142,142,-0.8953725113367067,-0.9,1.0,0.0,386.0,796.0,0.0,0,78.0,1
143,143,0.7992444990655797,0.8,1.0,1.0,477.0,872.0,1.0,1,181.0,1
144,144,0.780695347168982,0.8,1.0,1.0,494.0,592.0,1.0,1,304.0,1
145,145,0.19114847745652142,0.2,0.0,0.0,347.0,748.0,0.0,1,525.0,1
146,146,-0.01845646266067158,-0.0,0.0,1.0,445.0,826.0,1.0,0,1729.0,1
147,147,-0.5545700241954209,-0.6,1.0,0.0,416.0,537.0,0.0,0,247.0,1
148,148,0.2846017396058095,0.3,1.0,1.0,374.0,610.0,1.0,1,656.0,1
149,149,0.5016249648963748,0.5,0.0,0.0,330.0,593.0,0.0,1,327.0,1
150,150,0.4772749990300039,0.5,0.0,0.0,391.0,740.0,0.0,1,369.0,1
151,151,-0.7661221363490259,-0.8,0.0,1.0,418.0,678.0,1.0,0,474.0,1
152,152,-0.7305885703293652,-0.7,1.0,0.0,279.0,943.0,0.0,0,128.0,1
153,153,0.18034487846204084,0.2,1.0,1.0,394.0,580.0,1.0,1,1086.0,1
154,154,0.09551618939911999,0.1,1.0,1.0,385.0,867.0,1.0,1,1748.0,1
155,155,-0.024610676864703085,-0.0,1.0,0.0,484.0,720.0,0.0,0,1226.0,1
156,156,0.13007041899730687,0.1,1.0,1.0,355.0,987.0,1.0,1,1068.0,1
157,157,0.8832887896363814,0.9,1.0,1.0,444.0,826.0,1.0,1,320.0,1
158,158,0.19097147397823055,0.2,1.0,1.0,323.0,584.0,1.0,1,923.0,1
159,159,-0.7246032664507377,-0.7,0.0,1.0,430.0,909.0,1.0,0,281.0,1
160,160,-0.6273985640808415,-0.6,0.0,1.0,499.0,757.0,1.0,0,304.0,1
161,161,0.7386073955164988,0.7,1.0,1.0,300.0,540.0,1.0,1,340.0,1
162,162,-0.6347357118621368,-0.6,1.0,0.0,289.0,826.0,0.0,0,175.0,1
163,163,0.6831481570741716,0.7,1.0,1.0,366.0,518.0,1.0,1,336.0,1
164,164,0.7079125792489133,0.7,1.0,1.0,312.0,695.0,1.0,1,403.0,1
165,165,0.021688320355456314,0.0,0.0,0.0,276.0,553.0,0.0,1,1101.0,1
166,166,0.3298309187558818,0.3,1.0,1.0,399.0,712.0,1.0,1,449.0,1
167,167,0.2678431360202941,0.3,1.0,1.0,341.0,743.0,1.0,1,586.0,1
168,168,-0.6366906013491722,-0.6,0.0,1.0,251.0,690.0,1.0,0,189.0,1
169,169,0.04860486971470657,0.0,1.0,1.0,499.0,775.0,0.0,0,736.0,0
170,170,-0.3004618579880858,-0.3,0.0,1.0,378.0,631.0,1.0,0,611.0,1
171,171,-0.7428819998172415,-0.7,0.0,1.0,363.0,651.0,1.0,0,326.0,1
172,172,0.02489372346914398,0.0,0.0,0.0,382.0,807.0,0.0,1,1281.0,1
173,173,-0.5262509816784191,-0.5,1.0,0.0,280.0,953.0,0.0,0,107.0,1
174,174,-0.06721534663950435,-0.1,0.0,1.0,273.0,636.0,1.0,0,2091.0,1
175,175,0.005311550805435106,0.0,1.0,1.0,286.0,770.0,0.0,0,544.0,0
176,176,0.3584542489011956,0.4,0.0,0.0,315.0,764.0,0.0,1,381.0,1
177,177,-0.4258213391231994,-0.4,0.0,1.0,282.0,972.0,1.0,0,286.0,1
178,178,-0.8812728657869136,-0.9,0.0,1.0,414.0,712.0,1.0,0,144.0,1
179,179,-0.8890709854774345,-0.9,0.0,1.0,440.0,741.0,1.0,0,159.0,1
180,180,0.34982950842048266,0.3,1.0,1.0,276.0,847.0,1.0,1,437.0,1
181,181,0.774670356641647,0.8,1.0,1.0,473.0,673.0,1.0,1,134.0,1
182,182,0.8653212276020631,0.9,0.0,0.0,290.0,993.0,0.0,1,127.0,1
183,183,0.49629712326203157,0.5,1.0,1.0,364.0,619.0,1.0,1,737.0,1
184,184,0.019346158130191027,0.0,0.0,0.0,409.0,541.0,0.0,1,1940.0,1
185,185,-0.06571432681591838,-0.1,0.0,1.0,353.0,652.0,0.0,1,355.0,0
186,186,0.05397462138383968,0.1,1.0,1.0,479.0,823.0,0.0,0,788.0,0
187,187,-0.02011430059884145,-0.0,1.0,0.0,461.0,863.0,0.0,0,626.0,1
188,188,-0.15621475828024944,-0.2,0.0,1.0,310.0,811.0,1.0,0,1319.0,1
189,189,-0.5578197157126812,-0.6,1.0,0.0,356.0,600.0,0.0,0,144.0,1
190,190,-0.1373208117463275,-0.1,1.0,0.0,403.0,581.0,0.0,0,116.0,1
191,191,-0.3163169891987281,-0.3,0.0,1.0,327.0,859.0,1.0,0,624.0,1
192,192,0.8246931651498818,0.8,0.0,0.0,323.0,768.0,0.0,1,109.0,1
193,193,0.24517618378924644,0.2,1.0,1.0,349.0,650.0,1.0,1,1411.0,1
194,194,0.3119872430681686,0.3,1.0,1.0,482.0,914.0,1.0,1,1244.0,1
195,195,-0.3674444221155686,-0.4,1.0,0.0,416.0,669.0,0.0,0,225.0,1
196,196,-0.8680489855783933,-0.9,0.0,1.0,269.0,869.0,1.0,0,172.0,1
197,197,0.24861188611502605,0.2,1.0,1.0,250.0,761.0,1.0,1,499.0,1
198,198,0.10870876742955737,0.1,0.0,0.0,303.0,892.0,0.0,1,275.0,1
199,199,0.2196707977273772,0.2,1.0,1.0,388.0,903.0,1.0,1,499.0,1
200,200,-0.8677787408675429,-0.9,0.0,1.0,496.0,798.0,1.0,0,156.0,1
201,201,0.2550148431909526,0.3,0.0,0.0,375.0,705.0,0.0,1,320.0,1
202,202,-0.8050309995986652,-0.8,1.0,0.0,494.0,615.0,0.0,0,261.0,1
203,203,-0.12723878055352,-0.1,1.0,0.0,396.0,771.0,0.0,0,203.0,1
204,204,-0.48397473209444763,-0.5,0.0,1.0,283.0,749.0,1.0,0,328.0,1
205,205,-0.39149019727388645,-0.4,0.0,1.0,279.0,839.0,1.0,0,242.0,1
206,206,-0.2608207189863577,-0.3,1.0,0.0,306.0,790.0,0.0,0,334.0,1
207,207,0.5369747629801159,0.5,1.0,1.0,491.0,978.0,1.0,1,131.0,1
208,208,0.05529230702464483,0.1,0.0,0.0,434.0,799.0,0.0,1,597.0,1
209,209,0.48447887208572904,0.5,0.0,0.0,410.0,950.0,0.0,1,170.0,1
210,210,-0.26982446700452334,-0.3,1.0,0.0,366.0,714.0,0.0,0,250.0,1
211,211,0.7430247608082873,0.7,0.0,0.0,283.0,852.0,0.0,1,45.0,1
212,212,-0.18224442296145038,-0.2,1.0,0.0,308.0,947.0,0.0,0,15.0,1
213,213,-0.5055788754534278,-0.5,0.0,1.0,357.0,792.0,1.0,0,331.0,1
214,214,0.3717316531230629,0.4,0.0,0.0,460.0,972.0,0.0,1,98.0,1
215,215,0.32546902391829746,0.3,0.0,0.0,468.0,856.0,0.0,1,246.0,1
216,216,0.7489045807818303,0.7,0.0,0.0,323.0,609.0,0.0,1,248.0,1
217,217,-0.29244571388435303,-0.3,0.0,1.0,392.0,949.0,1.0,0,279.0,1
218,218,0.11987824837034189,0.1,0.0,0.0,379.0,759.0,0.0,1,362.0,1
219,219,0.24754375941698192,0.2,0.0,0.0,476.0,651.0,0.0,1,343.0,1
220,220,-0.6426366725038073,-0.6,1.0,0.0,474.0,515.0,0.0,0,171.0,1
221,221,0.34563925450586497,0.3,1.0,1.0,291.0,618.0,1.0,1,361.0,1
222,222,-0.075079030187444,-0.1,0.0,1.0,477.0,724.0,1.0,0,1799.0,1
223,223,-0.6716091284800676,-0.7,1.0,0.0,471.0,578.0,0.0,0,311.0,1
224,224,-0.20974067482282754,-0.2,1.0,0.0,255.0,518.0,0.0,0,287.0,1
225,225,-0.8947501840864195,-0.9,0.0,1.0,405.0,803.0,1.0,0,212.0,1
226,226,0.6280772238261206,0.6,1.0,1.0,371.0,965.0,0.0,0,-56.0,0
227,227,0.006080766081407618,0.0,1.0,1.0,366.0,702.0,0.0,0,1932.0,0
228,228,-0.21299110803338173,-0.2,0.0,1.0,293.0,701.0,1.0,0,256.0,1
229,229,0.6282541040234958,0.6,0.0,0.0,255.0,589.0,0.0,1,256.0,1
230,230,-0.632587426792099,-0.6,0.0,1.0,411.0,870.0,1.0,0,189.0,1
231,231,0.4522906787133717,0.5,1.0,1.0,287.0,678.0,1.0,1,365.0,1
232,232,0.5321020961299908,0.5,0.0,0.0,336.0,815.0,0.0,1,299.0,1
233,233,0.8719562885021374,0.9,1.0,1.0,493.0,550.0,1.0,1,907.0,1
234,234,0.4242654022093656,0.4,0.0,0.0,269.0,540.0,0.0,1,361.0,1
235,235,0.207808684915466,0.2,1.0,1.0,262.0,510.0,1.0,1,2228.0,1
236,236,-0.8176109032891831,-0.8,1.0,0.0,499.0,509.0,0.0,0,302.0,1
237,237,-0.11686363510279718,-0.1,0.0,1.0,379.0,670.0,1.0,0,1291.0,1
238,238,-0.32137763095640104,-0.3,0.0,1.0,398.0,812.0,1.0,0,420.0,1
239,239,-0.3781475906011804,-0.4,0.0,1.0,363.0,831.0,1.0,0,306.0,1
240,240,-0.4549488573029419,-0.5,0.0,1.0,287.0,632.0,1.0,0,641.0,1
241,241,0.41563192373082847,0.4,1.0,1.0,256.0,505.0,1.0,1,239.0,1
242,242,0.8885361585924522,0.9,0.0,0.0,275.0,971.0,0.0,1,184.0,1
243,243,0.7043450678208826,0.7,0.0,0.0,402.0,646.0,0.0,1,422.0,1
244,244,0.47738644481434445,0.5,1.0,1.0,303.0,611.0,1.0,1,446.0,1
245,245,0.3802354731076999,0.4,0.0,0.0,312.0,993.0,0.0,1,135.0,1
246,246,0.34562199507256997,0.3,0.0,0.0,445.0,511.0,0.0,1,674.0,1
247,247,-0.20523172851204208,-0.2,1.0,0.0,395.0,730.0,0.0,0,155.0,1
248,248,0.22018936541960576,0.2,0.0,0.0,348.0,781.0,0.0,1,101.0,1
249,249,-0.27822042265356883,-0.3,1.0,0.0,445.0,675.0,0.0,0,560.0,1
250,250,-0.8712694845852952,-0.9,0.0,1.0,322.0,807.0,1.0,0,171.0,1
251,251,0.41353255181140536,0.4,1.0,1.0,292.0,647.0,1.0,1,521.0,1
252,252,-0.6225601517203918,-0.6,1.0,0.0,372.0,851.0,0.0,0,187.0,1
253,253,0.5058069874408994,0.5,1.0,1.0,327.0,642.0,1.0,1,281.0,1
254,254,0.5427349094765009,0.5,1.0,1.0,349.0,951.0,1.0,1,190.0,1
255,255,-0.12638768597703343,-0.1,0.0,1.0,378.0,920.0,1.0,0,552.0,1
256,256,0.2040893301714496,0.2,1.0,1.0,320.0,700.0,1.0,1,610.0,1
257,257,-0.06053465322401541,-0.1,0.0,1.0,452.0,867.0,0.0,1,21.0,0
258,258,0.7276870465849915,0.7,1.0,1.0,406.0,871.0,1.0,1,193.0,1
259,259,0.2350970343381954,0.2,1.0,1.0,261.0,715.0,1.0,1,894.0,1
260,260,-0.47173323691757224,-0.5,0.0,1.0,442.0,512.0,1.0,0,366.0,1
261,261,-0.14488069229832878,-0.1,1.0,0.0,382.0,507.0,0.0,0,361.0,1
262,262,-0.3024022194439675,-0.3,1.0,0.0,276.0,835.0,0.0,0,39.0,1
263,263,0.041027332487874824,0.0,0.0,0.0,321.0,716.0,0.0,1,1963.0,1
264,264,0.704261127959288,0.7,1.0,1.0,458.0,912.0,0.0,0,-40.0,0
265,265,0.6583629375463586,0.7,1.0,1.0,268.0,800.0,1.0,1,262.0,1
266,266,-0.36389440964230557,-0.4,0.0,1.0,430.0,786.0,1.0,0,724.0,1
267,267,0.4416094276231165,0.4,1.0,1.0,340.0,947.0,1.0,1,633.0,1
268,268,-0.6978017276184876,-0.7,0.0,1.0,334.0,899.0,1.0,0,387.0,1
269,269,0.56084840204315,0.6,0.0,0.0,379.0,901.0,0.0,1,140.0,1
270,270,-0.09682504314453277,-0.1,1.0,0.0,423.0,991.0,0.0,0,386.0,1
271,271,-0.2990987447977699,-0.3,0.0,1.0,361.0,792.0,1.0,0,1017.0,1
272,272,0.7957429483680697,0.8,0.0,0.0,427.0,936.0,0.0,1,67.0,1
273,273,-0.5382700928943751,-0.5,1.0,0.0,465.0,882.0,0.0,0,273.0,1
274,274,0.27104444820764184,0.3,1.0,1.0,321.0,806.0,1.0,1,513.0,1
275,275,-0.25480341446376875,-0.3,1.0,0.0,338.0,540.0,0.0,0,302.0,1
276,276,-0.8284537439098725,-0.8,1.0,0.0,392.0,910.0,0.0,0,148.0,1
277,277,0.5964604029916883,0.6,0.0,0.0,381.0,851.0,0.0,1,138.0,1
278,278,0.09174174816287872,0.1,1.0,1.0,308.0,886.0,0.0,0,-44.0,0
279,279,0.2300914419350174,0.2,0.0,0.0,252.0,869.0,0.0,1,309.0,1
280,280,0.5160276100031945,0.5,1.0,1.0,390.0,786.0,1.0,1,384.0,1
281,281,-0.29490649509969813,-0.3,0.0,1.0,395.0,619.0,1.0,0,696.0,1
282,282,-0.6936216187028956,-0.7,1.0,0.0,439.0,513.0,0.0,0,438.0,1
283,283,0.16561484574197272,0.2,1.0,1.0,451.0,797.0,1.0,1,1462.0,1
284,284,0.05327275095231698,0.1,1.0,1.0,300.0,960.0,0.0,0,1740.0,0
285,285,0.7314496976197954,0.7,1.0,1.0,413.0,575.0,1.0,1,402.0,1
286,286,-0.3159262332621442,-0.3,1.0,0.0,391.0,647.0,0.0,0,132.0,1
287,287,-0.671921533989306,-0.7,1.0,0.0,349.0,670.0,0.0,0,291.0,1
288,288,0.846438279059759,0.8,1.0,1.0,346.0,712.0,1.0,1,252.0,1
289,289,0.42619096304163195,0.4,1.0,1.0,488.0,841.0,1.0,1,231.0,1
290,290,0.021404989330587765,0.0,0.0,0.0,272.0,879.0,0.0,1,399.0,1
291,291,0.12029350465326816,0.1,0.0,0.0,435.0,951.0,0.0,1,284.0,1
292,292,0.69540985511331,0.7,1.0,1.0,409.0,780.0,1.0,1,521.0,1
293,293,-0.2849803963209171,-0.3,0.0,1.0,257.0,599.0,1.0,0,334.0,1
294,294,-0.4107330578663419,-0.4,1.0,0.0,380.0,543.0,0.0,0,147.0,1
295,295,-0.5833290372379335,-0.6,1.0,0.0,492.0,965.0,0.0,0,203.0,1
296,296,-0.814837372814933,-0.8,1.0,0.0,426.0,835.0,0.0,0,139.0,1
297,297,0.3515289011004169,0.4,1.0,1.0,498.0,688.0,1.0,1,304.0,1
298,298,0.12849074891416612,0.1,1.0,1.0,392.0,986.0,1.0,1,1622.0,1
299,299,0.1174050785943287,0.1,1.0,1.0,442.0,892.0,0.0,0,1666.0,0
300,300,0.09464787419640797,0.1,1.0,1.0,380.0,900.0,0.0,0,620.0,0
301,301,0.729297876090539,0.7,0.0,0.0,380.0,901.0,0.0,1,339.0,1
302,302,-0.6293105521969036,-0.6,1.0,0.0,323.0,773.0,0.0,0,174.0,1
303,303,-0.16906714185448446,-0.2,0.0,1.0,412.0,571.0,1.0,0,697.0,1
304,304,0.07305941692650897,0.1,1.0,1.0,360.0,817.0,0.0,0,1823.0,0
305,305,-0.5538501815318544,-0.6,0.0,1.0,444.0,728.0,1.0,0,108.0,1
306,306,0.32957280357598806,0.3,0.0,0.0,392.0,501.0,0.0,1,397.0,1
307,307,0.23145713036031246,0.2,0.0,0.0,430.0,679.0,0.0,1,-79.0,1
308,308,0.8700957013139082,0.9,1.0,1.0,289.0,880.0,1.0,1,181.0,1
309,309,0.5115668450156655,0.5,1.0,1.0,372.0,959.0,1.0,1,409.0,1
310,310,0.6197614505218391,0.6,1.0,1.0,447.0,666.0,1.0,1,217.0,1
311,311,0.20302518438953532,0.2,0.0,0.0,429.0,518.0,0.0,1,303.0,1
312,312,0.35292414540304884,0.4,0.0,0.0,296.0,752.0,0.0,1,252.0,1
313,313,0.6760422782970635,0.7,1.0,1.0,255.0,729.0,1.0,1,256.0,1
314,314,-0.8610497234690293,-0.9,0.0,1.0,382.0,500.0,1.0,0,288.0,1
315,315,0.8181283480219564,0.8,0.0,0.0,497.0,621.0,0.0,1,152.0,1
316,316,-0.032618828708537606,-0.0,0.0,1.0,307.0,780.0,0.0,1,523.0,0
317,317,-0.3468357088691988,-0.3,1.0,0.0,272.0,536.0,0.0,0,162.0,1
318,318,-0.7367096879332348,-0.7,0.0,1.0,355.0,905.0,1.0,0,150.0,1
319,319,-0.1826242748943756,-0.2,1.0,0.0,480.0,855.0,0.0,0,205.0,1
320,320,0.8597628523549313,0.9,1.0,1.0,489.0,801.0,1.0,1,230.0,1
321,321,-0.3606606423331673,-0.4,1.0,0.0,322.0,633.0,0.0,0,265.0,1
322,322,0.0821693891918871,0.1,1.0,1.0,362.0,850.0,0.0,0,668.0,0
323,323,0.8985810061971212,0.9,0.0,0.0,388.0,885.0,0.0,1,97.0,1
324,324,0.7356772885177773,0.7,0.0,0.0,391.0,905.0,0.0,1,74.0,1
325,325,0.16540536424442898,0.2,0.0,0.0,318.0,525.0,0.0,1,377.0,1
326,326,0.10496106170676167,0.1,0.0,0.0,414.0,624.0,0.0,1,902.0,1
327,327,-0.3572190902483081,-0.4,0.0,1.0,299.0,798.0,1.0,0,1083.0,1
328,328,-0.5798054964554795,-0.6,0.0,1.0,357.0,635.0,1.0,0,278.0,1
329,329,-0.8061460408758466,-0.8,0.0,1.0,441.0,650.0,1.0,0,189.0,1
330,330,0.45261709508264547,0.5,0.0,0.0,400.0,515.0,0.0,1,265.0,1
331,331,0.3718512880534638,0.4,1.0,1.0,409.0,511.0,1.0,1,600.0,1
332,332,0.7470401679571103,0.7,1.0,1.0,491.0,587.0,1.0,1,882.0,1
333,333,-0.37733146003392015,-0.4,0.0,1.0,379.0,727.0,1.0,0,784.0,1
334,334,0.371792165096264,0.4,0.0,0.0,304.0,708.0,0.0,1,458.0,1
335,335,-0.7149322369819083,-0.7,0.0,1.0,397.0,953.0,1.0,0,400.0,1
336,336,0.7033106360713272,0.7,1.0,1.0,394.0,674.0,1.0,1,262.0,1
337,337,0.09941446411776844,0.1,1.0,1.0,292.0,645.0,1.0,1,963.0,1
338,338,-0.6737877995113144,-0.7,1.0,0.0,487.0,733.0,0.0,0,170.0,1
339,339,0.6160265871198342,0.6,1.0,1.0,464.0,529.0,1.0,1,267.0,1
340,340,0.8268354889717807,0.8,1.0,1.0,407.0,893.0,1.0,1,320.0,1
341,341,-0.2240057791514145,-0.2,1.0,0.0,408.0,797.0,0.0,0,285.0,1
342,342,-0.8889769055801888,-0.9,0.0,1.0,327.0,992.0,1.0,0,191.0,1
343,343,0.5687231054451497,0.6,1.0,1.0,474.0,848.0,1.0,1,348.0,1
344,344,-0.3374193831422696,-0.3,0.0,1.0,288.0,818.0,1.0,0,294.0,1
345,345,-0.2557219877791609,-0.3,1.0,0.0,328.0,707.0,0.0,0,555.0,1
346,346,0.2817564941451721,0.3,1.0,1.0,262.0,531.0,1.0,1,277.0,1
347,347,0.6447266488100053,0.6,0.0,0.0,347.0,561.0,0.0,1,432.0,1
348,348,-0.20009394111789414,-0.2,1.0,0.0,321.0,713.0,0.0,0,206.0,1
349,349,0.7635102829068586,0.8,0.0,0.0,455.0,653.0,0.0,1,282.0,1
350,350,-0.16038391566770416,-0.2,0.0,1.0,346.0,601.0,1.0,0,823.0,1
351,351,-0.41937639330346543,-0.4,0.0,1.0,409.0,809.0,1.0,0,902.0,1
352,352,-0.30619265701268117,-0.3,1.0,0.0,483.0,593.0,0.0,0,344.0,1
353,353,0.8090670845653644,0.8,0.0,0.0,355.0,995.0,0.0,1,220.0,1
354,354,-0.519704986562638,-0.5,0.0,1.0,360.0,866.0,1.0,0,174.0,1
355,355,-0.41672414492908,-0.4,1.0,0.0,280.0,777.0,0.0,0,-107.0,1
356,356,-0.0385851137910338,-0.0,0.0,1.0,336.0,552.0,1.0,0,2112.0,1
357,357,0.17005547214260142,0.2,1.0,1.0,355.0,757.0,1.0,1,728.0,1
358,358,0.20790914751225487,0.2,1.0,1.0,358.0,540.0,1.0,1,1062.0,1
359,359,-0.6393731910698002,-0.6,0.0,1.0,493.0,541.0,1.0,0,276.0,1
360,360,0.5295050076308717,0.5,0.0,0.0,384.0,847.0,0.0,1,119.0,1
361,361,0.42311402097767437,0.4,0.0,0.0,438.0,647.0,0.0,1,465.0,1
362,362,0.2025769614270937,0.2,1.0,1.0,331.0,850.0,1.0,1,889.0,1
363,363,0.4952774770104055,0.5,1.0,1.0,306.0,714.0,1.0,1,460.0,1
364,364,-0.17361423843644064,-0.2,0.0,1.0,426.0,747.0,1.0,0,957.0,1
365,365,-0.17928957200309015,-0.2,1.0,0.0,278.0,692.0,0.0,0,640.0,1
366,366,0.5133156349313627,0.5,1.0,1.0,299.0,919.0,1.0,1,562.0,1
367,367,0.37485571385598015,0.4,1.0,1.0,264.0,587.0,1.0,1,419.0,1
368,368,0.8981240638548361,0.9,1.0,1.0,373.0,648.0,1.0,1,269.0,1
369,369,-0.354691697672054,-0.4,0.0,1.0,379.0,795.0,1.0,0,116.0,1
370,370,-0.009371936368545497,-0.0,1.0,0.0,368.0,848.0,0.0,0,584.0,1
371,371,-0.6252474414435625,-0.6,1.0,0.0,391.0,834.0,0.0,0,195.0,1
372,372,0.09424516417666562,0.1,1.0,1.0,461.0,798.0,0.0,0,21.0,0
373,373,0.4550528782268254,0.5,0.0,0.0,438.0,820.0,0.0,1,262.0,1
374,374,0.6444780554252855,0.6,1.0,1.0,344.0,755.0,1.0,1,151.0,1
375,375,0.4290795067966301,0.4,1.0,1.0,282.0,695.0,1.0,1,133.0,1
376,376,0.48560429253638204,0.5,0.0,0.0,361.0,935.0,0.0,1,224.0,1
377,377,-0.553633948248291,-0.6,1.0,0.0,281.0,992.0,0.0,0,327.0,1
378,378,-0.35791756546067477,-0.4,1.0,0.0,277.0,580.0,0.0,0,483.0,1
379,379,-0.8594859759778775,-0.9,0.0,1.0,344.0,566.0,1.0,0,130.0,1
380,380,-0.3480830251599635,-0.3,0.0,1.0,331.0,813.0,0.0,1,-304.0,0
381,381,-0.43285541682305206,-0.4,1.0,0.0,437.0,515.0,0.0,0,78.0,1
382,382,-0.7183078943136023,-0.7,1.0,0.0,443.0,868.0,0.0,0,229.0,1
383,383,0.5245246058962213,0.5,0.0,0.0,477.0,552.0,0.0,1,391.0,1
384,384,0.7467458538689534,0.7,1.0,1.0,482.0,740.0,1.0,1,178.0,1
385,385,-0.628603080625657,-0.6,0.0,1.0,353.0,973.0,1.0,0,274.0,1
386,386,-0.20876073167718656,-0.2,0.0,1.0,497.0,669.0,1.0,0,1784.0,1
387,387,-0.38953355844425264,-0.4,0.0,1.0,285.0,983.0,1.0,0,402.0,1
388,388,-0.21684585001537826,-0.2,1.0,0.0,352.0,825.0,0.0,0,313.0,1
389,389,0.535233899135443,0.5,1.0,1.0,402.0,745.0,1.0,1,393.0,1
390,390,0.1570075892275019,0.2,1.0,1.0,273.0,876.0,1.0,1,551.0,1
391,391,-0.14106668263534572,-0.1,0.0,1.0,274.0,522.0,0.0,1,154.0,0
392,392,-0.045213698315580975,-0.0,0.0,1.0,317.0,780.0,1.0,0,243.0,1
393,393,-0.8421973892889038,-0.8,0.0,1.0,486.0,969.0,1.0,0,135.0,1
394,394,-0.125245672220484,-0.1,0.0,1.0,492.0,586.0,1.0,0,1922.0,1
395,395,-0.5498239891695311,-0.5,0.0,1.0,453.0,695.0,1.0,0,182.0,1
396,396,0.5438675895164523,0.5,0.0,0.0,323.0,783.0,0.0,1,144.0,1
397,397,0.45190558176638784,0.5,0.0,0.0,485.0,678.0,0.0,1,207.0,1
398,398,0.22535340730620856,0.2,0.0,0.0,346.0,733.0,0.0,1,31.0,1
399,399,0.3182843717383562,0.3,0.0,0.0,449.0,510.0,0.0,1,491.0,1
400,400,-0.8509486201802615,-0.9,0.0,1.0,277.0,567.0,1.0,0,266.0,1
401,401,0.3798363889541235,0.4,1.0,1.0,433.0,982.0,0.0,0,-65.0,0
402,402,0.7917602225988994,0.8,1.0,1.0,262.0,737.0,1.0,1,331.0,1
403,403,-0.7482596281647621,-0.7,1.0,0.0,352.0,576.0,0.0,0,92.0,1
404,404,0.885034564674915,0.9,1.0,1.0,498.0,639.0,1.0,1,163.0,1
405,405,-0.11412019083751301,-0.1,1.0,0.0,409.0,839.0,0.0,0,282.0,1
406,406,0.44714456722007057,0.4,0.0,0.0,498.0,980.0,0.0,1,362.0,1
407,407,0.27387861870032937,0.3,1.0,1.0,467.0,739.0,1.0,1,544.0,1
408,408,-0.3266040463252302,-0.3,1.0,0.0,419.0,514.0,0.0,0,167.0,1
409,409,0.07635342579881699,0.1,1.0,1.0,324.0,879.0,1.0,1,1797.0,1
410,410,0.8103982378753086,0.8,0.0,0.0,363.0,839.0,0.0,1,38.0,1
411,411,-0.31624661400914456,-0.3,0.0,1.0,354.0,998.0,1.0,0,568.0,1
412,412,0.5912380853430977,0.6,0.0,0.0,306.0,687.0,0.0,1,97.0,1
413,413,0.7473836536507302,0.7,1.0,1.0,335.0,966.0,1.0,1,159.0,1
414,414,-0.08277348519745631,-0.1,0.0,1.0,349.0,526.0,1.0,0,2125.0,1
415,415,0.6934619272839532,0.7,1.0,1.0,255.0,628.0,1.0,1,297.0,1
416,416,-0.06309541009726005,-0.1,1.0,0.0,254.0,906.0,0.0,0,530.0,1
417,417,-0.32264813949990623,-0.3,0.0,1.0,384.0,981.0,1.0,0,795.0,1
418,418,0.8099353444688294,0.8,0.0,0.0,479.0,609.0,0.0,1,112.0,1
419,419,-0.2290017286416668,-0.2,0.0,1.0,358.0,875.0,1.0,0,577.0,1
420,420,-0.1415645834463224,-0.1,1.0,0.0,458.0,581.0,0.0,0,441.0,1
421,421,0.31938935371241184,0.3,0.0,0.0,441.0,605.0,0.0,1,364.0,1
422,422,-0.18931555780746245,-0.2,1.0,0.0,259.0,817.0,0.0,0,454.0,1
423,423,0.493392131839942,0.5,0.0,0.0,355.0,944.0,0.0,1,211.0,1
424,424,0.8756717916051616,0.9,1.0,1.0,302.0,682.0,1.0,1,186.0,1
425,425,-0.3683455313232259,-0.4,1.0,0.0,430.0,844.0,0.0,0,366.0,1
426,426,-0.20432714994307744,-0.2,1.0,0.0,308.0,812.0,0.0,0,750.0,1
427,427,-0.3306429920389994,-0.3,0.0,1.0,446.0,878.0,1.0,0,296.0,1
428,428,-0.2546034779586749,-0.3,0.0,1.0,395.0,966.0,1.0,0,1099.0,1
429,429,-0.2937926317155587,-0.3,0.0,1.0,438.0,870.0,1.0,0,792.0,1
430,430,-0.45779549838855216,-0.5,0.0,1.0,454.0,503.0,1.0,0,483.0,1
431,431,-0.8900264783985284,-0.9,0.0,1.0,367.0,726.0,1.0,0,307.0,1
432,432,0.714704056282858,0.7,1.0,1.0,296.0,794.0,1.0,1,320.0,1
433,433,-0.04681211450886413,-0.0,1.0,0.0,282.0,616.0,0.0,0,1452.0,1
434,434,-0.38797563028422,-0.4,1.0,0.0,422.0,528.0,0.0,0,340.0,1
435,435,-0.08377090543206311,-0.1,1.0,0.0,452.0,835.0,0.0,0,243.0,1
436,436,-0.8306453118014682,-0.8,0.0,1.0,313.0,716.0,1.0,0,231.0,1
437,437,0.051514341353614546,0.1,1.0,1.0,443.0,968.0,0.0,0,1069.0,0
438,438,-0.6054266754575994,-0.6,1.0,0.0,411.0,835.0,0.0,0,234.0,1
439,439,-0.7667349033953943,-0.8,1.0,0.0,311.0,563.0,0.0,0,246.0,1
440,440,-0.5457281801859701,-0.5,1.0,0.0,326.0,500.0,0.0,0,284.0,1
441,441,0.7889900002000482,0.8,0.0,0.0,373.0,814.0,0.0,1,183.0,1
442,442,-0.23370014064690559,-0.2,1.0,0.0,358.0,769.0,0.0,0,483.0,1
443,443,-0.16921310563172465,-0.2,1.0,0.0,263.0,855.0,0.0,0,522.0,1
444,444,0.5890343261407373,0.6,0.0,0.0,353.0,523.0,0.0,1,314.0,1
445,445,0.006922281731128188,0.0,1.0,1.0,266.0,570.0,0.0,0,1134.0,0
446,446,0.22072920114401995,0.2,0.0,0.0,287.0,758.0,0.0,1,555.0,1
447,447,0.6891745725580177,0.7,1.0,1.0,308.0,660.0,1.0,1,242.0,1
448,448,0.6111338625265837,0.6,0.0,0.0,396.0,823.0,0.0,1,121.0,1
449,449,-0.48038417816885587,-0.5,1.0,0.0,363.0,715.0,0.0,0,312.0,1
450,450,0.6612159092914135,0.7,1.0,1.0,424.0,712.0,1.0,1,414.0,1
451,451,0.40172798507864316,0.4,1.0,1.0,328.0,769.0,1.0,1,153.0,1
452,452,-0.1314552587497657,-0.1,1.0,0.0,279.0,748.0,0.0,0,433.0,1
453,453,-0.6989161433375023,-0.7,0.0,1.0,316.0,517.0,1.0,0,377.0,1
454,454,0.34415265712687637,0.3,1.0,1.0,276.0,946.0,1.0,1,418.0,1
455,455,0.4946997465083184,0.5,0.0,0.0,405.0,575.0,0.0,1,310.0,1
456,456,-0.8973389274429514,-0.9,1.0,0.0,374.0,549.0,0.0,0,157.0,1
457,457,0.7791698430163624,0.8,0.0,0.0,300.0,694.0,0.0,1,166.0,1
458,458,-0.8024464624821116,-0.8,0.0,1.0,487.0,893.0,1.0,0,200.0,1
459,459,0.4728308329725631,0.5,1.0,1.0,444.0,939.0,1.0,1,327.0,1
460,460,0.468680128090177,0.5,1.0,1.0,402.0,572.0,1.0,1,276.0,1
461,461,-0.7776417636463036,-0.8,1.0,0.0,338.0,515.0,0.0,0,137.0,1
462,462,0.16230478314845842,0.2,1.0,1.0,440.0,624.0,1.0,1,1896.0,1
463,463,0.6817872630713376,0.7,0.0,0.0,386.0,986.0,0.0,1,88.0,1
464,464,0.32130760912842915,0.3,1.0,1.0,337.0,594.0,1.0,1,859.0,1
465,465,-0.033102264223971556,-0.0,0.0,1.0,487.0,835.0,0.0,1,1678.0,0
466,466,-0.8835323110039555,-0.9,1.0,0.0,289.0,713.0,0.0,0,58.0,1
467,467,-0.7319443707146004,-0.7,0.0,1.0,481.0,970.0,1.0,0,189.0,1
468,468,-0.2956071237369152,-0.3,1.0,0.0,283.0,799.0,0.0,0,228.0,1
469,469,0.04964300247579023,0.0,1.0,1.0,364.0,725.0,0.0,0,1911.0,0
470,470,0.0980799973746056,0.1,0.0,0.0,446.0,696.0,0.0,1,348.0,1
471,471,-0.43134083815125546,-0.4,1.0,0.0,424.0,749.0,0.0,0,317.0,1
472,472,-0.8635961452481259,-0.9,1.0,0.0,380.0,800.0,0.0,0,100.0,1
473,473,-0.8198801668734892,-0.8,1.0,0.0,381.0,787.0,0.0,0,232.0,1
474,474,-0.008411220370576178,-0.0,0.0,1.0,313.0,689.0,1.0,0,1998.0,1
475,475,-0.09908385073413695,-0.1,1.0,0.0,256.0,742.0,0.0,0,392.0,1
476,476,0.3979443376130688,0.4,0.0,0.0,481.0,755.0,0.0,1,44.0,1
477,477,0.6584361183020108,0.7,0.0,0.0,292.0,610.0,0.0,1,288.0,1
478,478,-0.42824987165538125,-0.4,1.0,0.0,264.0,644.0,0.0,0,12.0,1
479,479,0.06496413365115405,0.1,1.0,1.0,284.0,789.0,1.0,1,617.0,1
480,480,0.5914041911112583,0.6,0.0,0.0,445.0,901.0,0.0,1,114.0,1
481,481,0.08028272569600303,0.1,0.0,0.0,375.0,542.0,0.0,1,1623.0,1
482,482,-0.025419995855705535,-0.0,0.0,1.0,306.0,629.0,1.0,0,1585.0,1
483,483,0.6575154228686272,0.7,1.0,1.0,259.0,604.0,1.0,1,277.0,1
484,484,-0.6321742284683572,-0.6,1.0,0.0,295.0,635.0,0.0,0,40.0,1
485,485,0.6812552089506939,0.7,0.0,0.0,375.0,921.0,0.0,1,324.0,1
486,486,-0.5561477530021718,-0.6,0.0,1.0,464.0,793.0,1.0,0,263.0,1
487,487,-0.29866197208421486,-0.3,1.0,0.0,280.0,801.0,0.0,0,519.0,1
488,488,0.7901658634500471,0.8,0.0,0.0,458.0,817.0,0.0,1,75.0,1
489,489,0.1567438712605661,0.2,1.0,1.0,404.0,631.0,0.0,0,1965.0,0
490,490,0.06666548202189149,0.1,0.0,0.0,362.0,701.0,0.0,1,687.0,1
491,491,-0.17095926554033058,-0.2,0.0,1.0,393.0,862.0,1.0,0,875.0,1
492,492,-0.3550286307603773,-0.4,0.0,1.0,477.0,779.0,1.0,0,244.0,1
493,493,-0.17071089410298645,-0.2,0.0,1.0,332.0,545.0,1.0,0,2123.0,1
494,494,0.06734941320074184,0.1,0.0,0.0,390.0,786.0,0.0,1,1054.0,1
495,495,-0.37030020117902784,-0.4,0.0,1.0,310.0,885.0,1.0,0,275.0,1
496,496,0.00435104966421862,0.0,0.0,0.0,252.0,790.0,0.0,1,1028.0,1
497,497,0.3689573270117571,0.4,0.0,0.0,286.0,850.0,0.0,1,384.0,1
498,498,-0.3347011066669363,-0.3,1.0,0.0,401.0,781.0,0.0,0,68.0,1
499,499,-0.25531453683653416,-0.3,0.0,1.0,349.0,676.0,1.0,0,1075.0,1
500,500,0.44711622812298135,0.4,0.0,0.0,263.0,978.0,0.0,1,309.0,1
501,501,0.674877561172566,0.7,0.0,0.0,291.0,826.0,0.0,1,43.0,1
502,502,-0.7683876014032345,-0.8,0.0,1.0,326.0,976.0,1.0,0,188.0,1
503,503,0.19707205059880228,0.2,0.0,0.0,491.0,859.0,0.0,1,200.0,1
504,504,-0.09425896545759749,-0.1,1.0,0.0,466.0,608.0,0.0,0,636.0,1
505,505,-0.44384005398078186,-0.4,1.0,0.0,467.0,907.0,0.0,0,216.0,1
506,506,0.774661496775742,0.8,0.0,0.0,277.0,581.0,0.0,1,132.0,1
507,507,-0.519221424320927,-0.5,1.0,0.0,396.0,616.0,0.0,0,328.0,1
508,508,0.5977879926048134,0.6,0.0,0.0,470.0,935.0,0.0,1,245.0,1
509,509,-0.17839372580882262,-0.2,1.0,0.0,483.0,884.0,0.0,0,173.0,1
510,510,0.27657897406292065,0.3,0.0,0.0,406.0,684.0,0.0,1,300.0,1
511,511,-0.7597502883052264,-0.8,0.0,1.0,293.0,957.0,1.0,0,210.0,1
512,512,-0.605451652906476,-0.6,0.0,1.0,412.0,705.0,1.0,0,353.0,1
513,513,0.5221998763972259,0.5,1.0,1.0,374.0,576.0,1.0,1,560.0,1
514,514,0.49094304850826676,0.5,1.0,1.0,355.0,552.0,1.0,1,403.0,1
515,515,0.057221823158075225,0.1,0.0,0.0,496.0,526.0,0.0,1,368.0,1
516,516,-0.7482809833216966,-0.7,0.0,1.0,335.0,629.0,1.0,0,106.0,1
517,517,-0.5964699371262537,-0.6,0.0,1.0,409.0,523.0,1.0,0,118.0,1
518,518,0.4598911131059812,0.5,0.0,0.0,406.0,987.0,0.0,1,167.0,1
519,519,0.5081657645544314,0.5,0.0,0.0,357.0,652.0,0.0,1,141.0,1
520,520,0.44114261366081,0.4,1.0,1.0,304.0,753.0,1.0,1,293.0,1
521,521,0.6539111782130237,0.7,0.0,0.0,461.0,705.0,0.0,1,74.0,1
522,522,-0.4944900697846112,-0.5,0.0,1.0,395.0,716.0,1.0,0,339.0,1
523,523,0.6781207630929341,0.7,1.0,1.0,308.0,882.0,1.0,1,320.0,1
524,524,-0.748396616445228,-0.7,1.0,0.0,261.0,639.0,0.0,0,80.0,1
525,525,-0.5677823922330127,-0.6,0.0,1.0,285.0,667.0,1.0,0,238.0,1
526,526,-0.6180199256896348,-0.6,1.0,0.0,312.0,818.0,0.0,0,170.0,1
527,527,0.6959408530409711,0.7,0.0,0.0,313.0,718.0,0.0,1,119.0,1
528,528,0.0315285520544355,0.0,1.0,1.0,393.0,653.0,0.0,0,534.0,0
529,529,-0.8457498062150007,-0.8,1.0,0.0,262.0,843.0,0.0,0,85.0,1
530,530,0.34048443848212184,0.3,0.0,0.0,257.0,583.0,0.0,1,1180.0,1
531,531,-0.5406728864844408,-0.5,1.0,0.0,316.0,704.0,0.0,0,290.0,1
532,532,0.14572766775572588,0.1,0.0,0.0,375.0,634.0,0.0,1,721.0,1
533,533,0.5102561043329806,0.5,1.0,1.0,434.0,774.0,1.0,1,342.0,1
534,534,-0.7656513018588842,-0.8,0.0,1.0,458.0,926.0,1.0,0,186.0,1
535,535,0.13526959827505236,0.1,0.0,0.0,423.0,709.0,0.0,1,1618.0,1
536,536,-0.12968312864722054,-0.1,1.0,0.0,391.0,526.0,0.0,0,863.0,1
537,537,0.6690262411145472,0.7,0.0,0.0,493.0,531.0,0.0,1,116.0,1
538,538,-0.8706805414176549,-0.9,0.0,1.0,310.0,885.0,1.0,0,215.0,1
539,539,0.5036315145734317,0.5,1.0,1.0,493.0,555.0,1.0,1,512.0,1
540,540,0.8017393679382766,0.8,0.0,0.0,423.0,744.0,0.0,1,133.0,1
541,541,-0.8127929212385673,-0.8,1.0,0.0,356.0,980.0,0.0,0,384.0,1
542,542,-0.18197849594453075,-0.2,1.0,0.0,410.0,790.0,0.0,0,740.0,1
543,543,0.4589667960659273,0.5,0.0,0.0,403.0,805.0,0.0,1,142.0,1
544,544,0.5011130783504706,0.5,1.0,1.0,431.0,809.0,0.0,0,-360.0,0
545,545,0.45835896289618894,0.5,0.0,0.0,438.0,523.0,0.0,1,389.0,1
546,546,0.08342158307693348,0.1,1.0,1.0,358.0,532.0,1.0,1,1110.0,1
547,547,-0.39469046120315787,-0.4,1.0,0.0,401.0,518.0,0.0,0,491.0,1
548,548,0.2652341269037687,0.3,1.0,1.0,263.0,577.0,1.0,1,1140.0,1
549,549,0.3529244201816214,0.4,0.0,0.0,361.0,710.0,0.0,1,199.0,1
550,550,-0.5643668435473028,-0.6,1.0,0.0,299.0,726.0,0.0,0,165.0,1
551,551,-0.4893959090109598,-0.5,0.0,1.0,266.0,508.0,1.0,0,196.0,1
552,552,0.08669105521721643,0.1,1.0,1.0,258.0,867.0,1.0,1,1875.0,1
553,553,-0.8682625241386305,-0.9,1.0,0.0,388.0,663.0,0.0,0,199.0,1
554,554,-0.792755890472527,-0.8,0.0,1.0,409.0,650.0,1.0,0,121.0,1
555,555,-0.6232322970437503,-0.6,0.0,1.0,440.0,803.0,1.0,0,187.0,1
556,556,0.6505881176341218,0.7,0.0,0.0,278.0,627.0,0.0,1,205.0,1
557,557,-0.21794395557429225,-0.2,1.0,0.0,314.0,690.0,0.0,0,146.0,1
558,558,-0.5224017136858157,-0.5,1.0,0.0,303.0,707.0,0.0,0,140.0,1
559,559,-0.7070765619169896,-0.7,0.0,1.0,373.0,537.0,1.0,0,450.0,1
560,560,-0.13560363290909105,-0.1,1.0,0.0,409.0,658.0,0.0,0,1043.0,1
561,561,-0.5028819795138253,-0.5,0.0,1.0,448.0,844.0,1.0,0,398.0,1
562,562,0.5980457132910654,0.6,1.0,1.0,413.0,832.0,1.0,1,25.0,1
563,563,0.6364702945076773,0.6,0.0,0.0,367.0,617.0,0.0,1,326.0,1
564,564,0.4651526608886535,0.5,1.0,1.0,388.0,683.0,1.0,1,159.0,1
565,565,0.7393265077293024,0.7,1.0,1.0,268.0,785.0,1.0,1,257.0,1
566,566,0.20432393381645964,0.2,1.0,1.0,460.0,681.0,1.0,1,529.0,1
567,567,0.21716844301314053,0.2,1.0,1.0,334.0,974.0,1.0,1,512.0,1
568,568,-0.4099665839021857,-0.4,1.0,0.0,422.0,844.0,0.0,0,264.0,1
569,569,0.10045120794218343,0.1,0.0,0.0,277.0,869.0,0.0,1,764.0,1
570,570,-0.03458634280558548,-0.0,1.0,0.0,302.0,564.0,0.0,0,724.0,1
571,571,-0.7140609442694038,-0.7,0.0,1.0,474.0,975.0,1.0,0,321.0,1
572,572,0.041830667511846054,0.0,1.0,1.0,283.0,580.0,0.0,0,2137.0,0
573,573,0.11216429071417056,0.1,1.0,1.0,356.0,953.0,1.0,1,1311.0,1
574,574,-0.3842869570150873,-0.4,0.0,1.0,296.0,874.0,1.0,0,540.0,1
575,575,-0.8419633723813821,-0.8,1.0,0.0,385.0,946.0,0.0,0,159.0,1
576,576,-0.8097669303013746,-0.8,0.0,1.0,482.0,898.0,1.0,0,160.0,1
577,577,0.2908420828446817,0.3,1.0,1.0,360.0,548.0,1.0,1,892.0,1
578,578,0.8909076156906007,0.9,1.0,1.0,257.0,702.0,1.0,1,171.0,1
579,579,0.08919431871097716,0.1,1.0,1.0,368.0,539.0,0.0,0,2093.0,0
580,580,-0.8153674686125285,-0.8,0.0,1.0,362.0,912.0,1.0,0,246.0,1
581,581,0.21529943776119664,0.2,0.0,0.0,429.0,711.0,0.0,1,300.0,1
582,582,-0.34866934869525945,-0.3,1.0,0.0,334.0,862.0,0.0,0,254.0,1
583,583,0.016518001628761825,0.0,0.0,0.0,327.0,808.0,0.0,1,855.0,1
584,584,0.5531925273630739,0.6,0.0,0.0,308.0,805.0,0.0,1,217.0,1
585,585,-0.7601384137869713,-0.8,0.0,1.0,279.0,565.0,1.0,0,246.0,1
586,586,-0.7528470894504602,-0.8,0.0,1.0,449.0,645.0,1.0,0,236.0,1
587,587,-0.0920070225234737,-0.1,0.0,1.0,282.0,631.0,0.0,1,2087.0,0
588,588,0.1861302279043474,0.2,0.0,0.0,278.0,874.0,0.0,1,268.0,1
589,589,-0.42866434050717,-0.4,0.0,1.0,499.0,871.0,1.0,0,670.0,1
590,590,0.5609632265943806,0.6,0.0,0.0,394.0,512.0,0.0,1,54.0,1
591,591,0.7630546358903291,0.8,0.0,0.0,389.0,843.0,0.0,1,158.0,1
592,592,0.5944746480128532,0.6,0.0,0.0,314.0,589.0,0.0,1,107.0,1
593,593,0.5657731550034012,0.6,1.0,1.0,408.0,626.0,1.0,1,236.0,1
594,594,-0.34726587835856126,-0.3,0.0,1.0,487.0,960.0,1.0,0,523.0,1
595,595,-0.4388208431436024,-0.4,0.0,1.0,334.0,617.0,1.0,0,289.0,1
596,596,-0.8902214506948989,-0.9,0.0,1.0,359.0,994.0,0.0,1,-233.0,0
597,597,0.8853484656399871,0.9,1.0,1.0,347.0,589.0,1.0,1,224.0,1
598,598,0.5500944362936798,0.6,1.0,1.0,292.0,613.0,1.0,1,315.0,1
599,599,0.7824621786652385,0.8,0.0,0.0,274.0,932.0,0.0,1,104.0,1
600,600,0.4599525216188368,0.5,0.0,0.0,349.0,564.0,0.0,1,197.0,1
601,601,-0.4754897635426448,-0.5,1.0,0.0,425.0,579.0,0.0,0,446.0,1
602,602,0.6723374218085377,0.7,0.0,0.0,441.0,955.0,0.0,1,134.0,1
603,603,-0.34251287458443036,-0.3,0.0,1.0,315.0,577.0,1.0,0,428.0,1
604,604,0.8695750420051808,0.9,1.0,1.0,494.0,691.0,0.0,0,-435.0,0
605,605,0.8482577466266606,0.8,1.0,1.0,383.0,532.0,1.0,1,445.0,1
606,606,0.26248213864695014,0.3,1.0,1.0,432.0,729.0,1.0,1,299.0,1
607,607,0.5047454660331469,0.5,0.0,0.0,271.0,756.0,0.0,1,293.0,1
608,608,-0.17631913772841612,-0.2,1.0,0.0,356.0,672.0,0.0,0,202.0,1
609,609,0.5023659699264024,0.5,0.0,0.0,251.0,687.0,0.0,1,342.0,1
610,610,0.7952223768687797,0.8,0.0,0.0,340.0,780.0,0.0,1,80.0,1
611,611,-0.7391207767298502,-0.7,0.0,1.0,269.0,568.0,1.0,0,343.0,1
612,612,0.7571874219534024,0.8,1.0,1.0,391.0,583.0,1.0,1,206.0,1
613,613,-0.8755404674039826,-0.9,0.0,1.0,466.0,967.0,1.0,0,497.0,1
614,614,-0.7764238438953116,-0.8,1.0,0.0,256.0,883.0,0.0,0,131.0,1
615,615,-0.09702874066188294,-0.1,0.0,1.0,396.0,774.0,1.0,0,250.0,1
616,616,-0.38451296680533886,-0.4,0.0,1.0,477.0,753.0,1.0,0,310.0,1
617,617,-0.38781249935056517,-0.4,0.0,1.0,481.0,779.0,1.0,0,740.0,1
618,618,0.6130230678552809,0.6,1.0,1.0,301.0,657.0,1.0,1,382.0,1
619,619,-0.6414519527289806,-0.6,1.0,0.0,475.0,656.0,0.0,0,249.0,1
620,620,-0.39846676788943736,-0.4,1.0,0.0,490.0,669.0,0.0,0,251.0,1
621,621,0.5973498180516509,0.6,1.0,1.0,400.0,695.0,1.0,1,535.0,1
622,622,0.435245215818138,0.4,1.0,1.0,495.0,624.0,1.0,1,341.0,1
623,623,-0.24001058526675423,-0.2,1.0,0.0,366.0,924.0,0.0,0,540.0,1
624,624,-0.8074830539542345,-0.8,0.0,1.0,431.0,926.0,1.0,0,183.0,1
625,625,-0.8000783716194609,-0.8,0.0,1.0,351.0,546.0,1.0,0,163.0,1
626,626,0.1767338986021253,0.2,1.0,1.0,274.0,898.0,1.0,1,698.0,1
627,627,-0.8356462050051022,-0.8,0.0,1.0,453.0,896.0,1.0,0,381.0,1
628,628,0.4825794890526275,0.5,1.0,1.0,257.0,973.0,1.0,1,230.0,1
629,629,-0.2511165871051325,-0.3,0.0,1.0,250.0,980.0,1.0,0,280.0,1
630,630,0.1586973124290042,0.2,0.0,0.0,305.0,692.0,0.0,1,943.0,1
631,631,0.09374079209232755,0.1,0.0,0.0,427.0,662.0,0.0,1,881.0,1
632,632,0.47841084195593353,0.5,1.0,1.0,305.0,863.0,1.0,1,542.0,1
633,633,0.48284134250749744,0.5,0.0,0.0,498.0,629.0,0.0,1,253.0,1
634,634,-0.5710724055578903,-0.6,0.0,1.0,494.0,930.0,1.0,0,96.0,1
635,635,0.7911948361727003,0.8,1.0,1.0,356.0,649.0,1.0,1,265.0,1
636,636,-0.8000522934324075,-0.8,0.0,1.0,308.0,719.0,1.0,0,273.0,1
637,637,0.08877521194232674,0.1,0.0,0.0,329.0,803.0,0.0,1,108.0,1
638,638,-0.4584543982340406,-0.5,1.0,0.0,308.0,696.0,0.0,0,426.0,1
639,639,-0.5004404322420182,-0.5,0.0,1.0,440.0,500.0,1.0,0,560.0,1
640,640,-0.7998227079048134,-0.8,0.0,1.0,254.0,748.0,1.0,0,128.0,1
641,641,0.6420614364386418,0.6,0.0,0.0,397.0,564.0,0.0,1,169.0,1
642,642,0.34527237624496265,0.3,0.0,0.0,329.0,571.0,0.0,1,320.0,1
643,643,0.8572555746963236,0.9,0.0,0.0,437.0,592.0,0.0,1,141.0,1
644,644,-0.36240281231594296,-0.4,0.0,1.0,264.0,949.0,1.0,0,347.0,1
645,645,-0.6315839615942083,-0.6,1.0,0.0,325.0,717.0,0.0,0,78.0,1
646,646,0.23579563630716904,0.2,1.0,1.0,360.0,575.0,1.0,1,605.0,1
647,647,-0.8101856944606906,-0.8,0.0,1.0,466.0,734.0,1.0,0,290.0,1
648,648,-0.678193414477802,-0.7,0.0,1.0,285.0,899.0,1.0,0,256.0,1
649,649,0.03886477023852597,0.0,1.0,1.0,463.0,853.0,0.0,0,704.0,0
650,650,-0.2766009367876202,-0.3,1.0,0.0,430.0,659.0,0.0,0,351.0,1
651,651,-0.44879606209537776,-0.4,1.0,0.0,315.0,744.0,0.0,0,351.0,1
652,652,0.5996318780637674,0.6,0.0,0.0,338.0,636.0,0.0,1,386.0,1
653,653,-0.2473762344905387,-0.2,1.0,0.0,484.0,567.0,0.0,0,159.0,1
654,654,-0.27736332214696724,-0.3,0.0,1.0,464.0,648.0,1.0,0,488.0,1
655,655,0.2968658710330577,0.3,1.0,1.0,434.0,747.0,1.0,1,1819.0,1
656,656,-0.17327504932215865,-0.2,1.0,0.0,371.0,838.0,0.0,0,361.0,1
657,657,0.5750854571349336,0.6,0.0,0.0,443.0,879.0,0.0,1,98.0,1
658,658,-0.617583600006518,-0.6,0.0,1.0,316.0,650.0,1.0,0,204.0,1
659,659,0.664828661412823,0.7,1.0,1.0,366.0,784.0,1.0,1,280.0,1
660,660,0.8959210846251048,0.9,0.0,0.0,281.0,659.0,0.0,1,310.0,1
661,661,-0.44908887573113865,-0.4,0.0,1.0,435.0,767.0,1.0,0,358.0,1
662,662,-0.671380933709983,-0.7,1.0,0.0,434.0,695.0,0.0,0,121.0,1
663,663,0.6989609470712471,0.7,1.0,1.0,400.0,522.0,1.0,1,408.0,1
664,664,-0.24012143148685583,-0.2,0.0,1.0,440.0,599.0,1.0,0,251.0,1
665,665,0.0016523569755277911,0.0,0.0,0.0,414.0,951.0,0.0,1,1165.0,1
666,666,-0.09323887625895455,-0.1,0.0,1.0,492.0,722.0,0.0,1,36.0,0
667,667,0.8509816046722961,0.9,0.0,0.0,372.0,597.0,0.0,1,161.0,1
668,668,-0.368446044606764,-0.4,0.0,1.0,489.0,731.0,1.0,0,270.0,1
669,669,0.2798696925980676,0.3,1.0,1.0,324.0,688.0,1.0,1,868.0,1
670,670,-0.08929698736620284,-0.1,0.0,1.0,492.0,796.0,1.0,0,542.0,1
671,671,-0.175128600224425,-0.2,1.0,0.0,323.0,668.0,0.0,0,539.0,1
672,672,-0.2846398767904762,-0.3,1.0,0.0,464.0,518.0,0.0,0,308.0,1
673,673,0.80407076532863,0.8,0.0,0.0,288.0,760.0,0.0,1,32.0,1
674,674,-0.4789356508663969,-0.5,1.0,0.0,493.0,769.0,0.0,0,188.0,1
675,675,-0.6003540536621295,-0.6,0.0,1.0,472.0,682.0,1.0,0,266.0,1
676,676,-0.3577131884472571,-0.4,0.0,1.0,368.0,712.0,1.0,0,920.0,1
677,677,0.3452729240051823,0.3,1.0,1.0,417.0,553.0,1.0,1,1000.0,1
678,678,-0.5400504011302714,-0.5,0.0,1.0,255.0,800.0,1.0,0,695.0,1
679,679,0.053237278674318045,0.1,0.0,0.0,440.0,758.0,0.0,1,1252.0,1
680,680,0.8176239347272755,0.8,1.0,1.0,416.0,805.0,1.0,1,349.0,1
681,681,0.5120687247966117,0.5,0.0,0.0,471.0,882.0,0.0,1,227.0,1
682,682,0.8681802111368498,0.9,1.0,1.0,265.0,602.0,1.0,1,233.0,1
683,683,0.12477508435981932,0.1,0.0,0.0,334.0,819.0,0.0,1,47.0,1
684,684,-0.4153409420994606,-0.4,0.0,1.0,303.0,605.0,1.0,0,412.0,1
685,685,0.165950007084254,0.2,0.0,0.0,357.0,874.0,0.0,1,519.0,1
686,686,0.14074550537151798,0.1,0.0,0.0,254.0,597.0,0.0,1,1069.0,1
687,687,-0.7413360569704095,-0.7,0.0,1.0,380.0,629.0,1.0,0,201.0,1
688,688,0.20259670573090427,0.2,1.0,1.0,496.0,859.0,1.0,1,695.0,1
689,689,-0.6783223234339504,-0.7,1.0,0.0,280.0,949.0,0.0,0,101.0,1
690,690,-0.828758769690309,-0.8,0.0,1.0,343.0,513.0,1.0,0,634.0,1
691,691,0.3277354533374385,0.3,0.0,0.0,374.0,707.0,0.0,1,279.0,1
692,692,-0.7144790499955433,-0.7,1.0,0.0,377.0,595.0,0.0,0,138.0,1
693,693,0.4121160084710601,0.4,0.0,0.0,313.0,825.0,0.0,1,202.0,1
694,694,0.4630794483204427,0.5,1.0,1.0,338.0,665.0,1.0,1,587.0,1
695,695,-0.2805559702061141,-0.3,0.0,1.0,287.0,523.0,1.0,0,550.0,1
696,696,-0.17603673436908407,-0.2,0.0,1.0,390.0,799.0,1.0,0,761.0,1
697,697,-0.6300232269000317,-0.6,0.0,1.0,348.0,876.0,1.0,0,356.0,1
698,698,-0.699119562179137,-0.7,1.0,0.0,307.0,753.0,0.0,0,170.0,1
699,699,0.5564028846961541,0.6,1.0,1.0,452.0,952.0,1.0,1,246.0,1
700,700,-0.46425768924523836,-0.5,1.0,0.0,370.0,976.0,0.0,0,204.0,1
701,701,-0.45993543458708525,-0.5,1.0,0.0,471.0,671.0,0.0,0,238.0,1
702,702,-0.15742631260443352,-0.2,0.0,1.0,271.0,734.0,1.0,0,505.0,1
703,703,-0.07817296699695386,-0.1,0.0,1.0,277.0,958.0,0.0,1,1765.0,0
704,704,0.28999330125248723,0.3,0.0,0.0,334.0,632.0,0.0,1,374.0,1
705,705,-0.3237776231294862,-0.3,1.0,0.0,271.0,872.0,0.0,0,157.0,1
706,706,-0.08723859530217015,-0.1,1.0,0.0,346.0,853.0,0.0,0,1031.0,1
707,707,0.5232976888819719,0.5,0.0,0.0,345.0,638.0,0.0,1,257.0,1
708,708,0.33694906399451663,0.3,1.0,1.0,264.0,758.0,1.0,1,1358.0,1
709,709,-0.6248012199823232,-0.6,1.0,0.0,386.0,842.0,0.0,0,112.0,1
710,710,0.14768177689247908,0.1,1.0,1.0,321.0,617.0,1.0,1,1232.0,1
711,711,-0.3286881648763166,-0.3,1.0,0.0,457.0,911.0,0.0,0,92.0,1
712,712,-0.7285184133131273,-0.7,1.0,0.0,271.0,709.0,0.0,0,160.0,1
713,713,0.23294963707047545,0.2,0.0,0.0,310.0,873.0,0.0,1,-163.0,1
714,714,0.5737992121001697,0.6,1.0,1.0,477.0,526.0,1.0,1,767.0,1
715,715,-0.0898522422367074,-0.1,1.0,0.0,446.0,834.0,0.0,0,220.0,1
716,716,0.6944958558323907,0.7,0.0,0.0,366.0,763.0,0.0,1,141.0,1
717,717,-0.06933170724369853,-0.1,0.0,1.0,467.0,721.0,1.0,0,912.0,1
718,718,-0.5681944766452407,-0.6,1.0,0.0,306.0,637.0,0.0,0,207.0,1
719,719,-0.22412077890145576,-0.2,0.0,1.0,341.0,510.0,1.0,0,569.0,1
720,720,0.03741070677938252,0.0,0.0,0.0,261.0,881.0,0.0,1,1038.0,1
721,721,0.320889873796668,0.3,0.0,0.0,253.0,579.0,0.0,1,298.0,1
722,722,0.7493321079543905,0.7,0.0,0.0,373.0,971.0,0.0,1,16.0,1
723,723,0.20113104889713396,0.2,1.0,1.0,324.0,536.0,1.0,1,600.0,1
724,724,0.35704095136333247,0.4,1.0,1.0,491.0,870.0,1.0,1,559.0,1
725,725,-0.7679920247382901,-0.8,1.0,0.0,404.0,573.0,0.0,0,183.0,1
726,726,-0.684749452660793,-0.7,0.0,1.0,339.0,510.0,1.0,0,141.0,1
727,727,-0.6173782714692733,-0.6,1.0,0.0,475.0,909.0,0.0,0,-44.0,1
728,728,-0.2715853860669235,-0.3,0.0,1.0,467.0,559.0,1.0,0,274.0,1
729,729,-0.4211321013032705,-0.4,1.0,0.0,474.0,720.0,0.0,0,366.0,1
730,730,-0.5766620897890639,-0.6,0.0,1.0,343.0,858.0,1.0,0,399.0,1
731,731,-0.6062431227355163,-0.6,0.0,1.0,253.0,620.0,1.0,0,297.0,1
732,732,0.7215402702758663,0.7,1.0,1.0,324.0,971.0,1.0,1,545.0,1
733,733,0.7574340567070091,0.8,1.0,1.0,382.0,816.0,1.0,1,352.0,1
734,734,0.8866419575076704,0.9,0.0,0.0,368.0,930.0,0.0,1,172.0,1
735,735,0.4529027717176587,0.5,1.0,1.0,254.0,890.0,1.0,1,436.0,1
736,736,-0.22553960920322524,-0.2,1.0,0.0,356.0,637.0,0.0,0,427.0,1
737,737,0.5205018704945056,0.5,0.0,0.0,399.0,900.0,0.0,1,61.0,1
738,738,-0.37473830372106565,-0.4,1.0,0.0,498.0,949.0,0.0,0,213.0,1
739,739,0.8483645588986953,0.8,0.0,0.0,325.0,994.0,0.0,1,-29.0,1
740,740,0.15498338292301395,0.2,0.0,0.0,490.0,751.0,0.0,1,409.0,1
741,741,0.5831196358102592,0.6,1.0,1.0,420.0,506.0,1.0,1,1754.0,1
742,742,-0.6678793304391089,-0.7,0.0,1.0,424.0,773.0,0.0,1,-297.0,0
743,743,-0.29898957733067655,-0.3,0.0,1.0,363.0,740.0,1.0,0,537.0,1
744,744,-0.0008723791208050669,-0.0,1.0,0.0,372.0,748.0,0.0,0,1830.0,1
745,745,0.43258600018221227,0.4,0.0,0.0,272.0,696.0,0.0,1,332.0,1
746,746,0.5980817607052727,0.6,1.0,1.0,407.0,542.0,1.0,1,321.0,1
747,747,0.8212245557472769,0.8,0.0,0.0,366.0,604.0,0.0,1,180.0,1
748,748,0.21928920844212307,0.2,1.0,1.0,259.0,502.0,1.0,1,2199.0,1
749,749,0.11513215542294397,0.1,0.0,0.0,463.0,742.0,0.0,1,1635.0,1
750,750,0.6283275824091336,0.6,0.0,0.0,279.0,844.0,0.0,1,137.0,1
751,751,0.6139536033142506,0.6,1.0,1.0,300.0,517.0,1.0,1,313.0,1
752,752,0.17067885784814651,0.2,1.0,1.0,326.0,553.0,1.0,1,2061.0,1
753,753,0.20829241733447945,0.2,0.0,0.0,473.0,893.0,0.0,1,394.0,1
754,754,0.0068551466333514055,0.0,0.0,0.0,487.0,954.0,0.0,1,1559.0,1
755,755,0.3042213666781014,0.3,1.0,1.0,365.0,779.0,1.0,1,286.0,1
756,756,-0.6160704970950337,-0.6,1.0,0.0,273.0,868.0,0.0,0,279.0,1
757,757,0.04917420894796609,0.0,1.0,1.0,479.0,974.0,0.0,0,1547.0,0
758,758,0.3633702305903884,0.4,1.0,1.0,437.0,743.0,1.0,1,280.0,1
759,759,0.5985357997663018,0.6,0.0,0.0,325.0,698.0,0.0,1,237.0,1
760,760,0.536157785526527,0.5,1.0,1.0,335.0,772.0,1.0,1,223.0,1
761,761,-0.0520117149010374,-0.1,0.0,1.0,338.0,781.0,1.0,0,1081.0,1
762,762,-0.8898029224820829,-0.9,0.0,1.0,423.0,511.0,1.0,0,436.0,1
763,763,0.021719973051016583,0.0,1.0,1.0,412.0,814.0,0.0,0,894.0,0
764,764,0.5610414060413361,0.6,1.0,1.0,264.0,539.0,1.0,1,327.0,1
765,765,-0.34255927619935855,-0.3,0.0,1.0,385.0,911.0,1.0,0,644.0,1
766,766,-0.07747754074896973,-0.1,0.0,1.0,447.0,663.0,0.0,1,1890.0,0
767,767,-0.2317467580644812,-0.2,0.0,1.0,313.0,706.0,1.0,0,641.0,1
768,768,0.7107273759563048,0.7,0.0,0.0,263.0,732.0,0.0,1,185.0,1
769,769,0.1616195402699342,0.2,0.0,0.0,449.0,585.0,0.0,1,796.0,1
770,770,0.8792777809069751,0.9,0.0,0.0,406.0,989.0,0.0,1,215.0,1
771,771,0.0747973486446204,0.1,1.0,1.0,421.0,750.0,1.0,1,1329.0,1
772,772,0.7706460019025704,0.8,1.0,1.0,320.0,677.0,1.0,1,463.0,1
773,773,0.29100086900779176,0.3,0.0,0.0,460.0,971.0,0.0,1,-271.0,1
774,774,0.3755223461789453,0.4,1.0,1.0,392.0,782.0,1.0,1,876.0,1
775,775,0.5549314942313613,0.6,1.0,1.0,253.0,665.0,1.0,1,342.0,1
776,776,0.8500259317554509,0.9,0.0,0.0,471.0,713.0,0.0,1,96.0,1
777,777,-0.14613095499830753,-0.1,1.0,0.0,297.0,629.0,0.0,0,374.0,1
778,778,0.2020571114255486,0.2,0.0,0.0,323.0,919.0,0.0,1,828.0,1
779,779,0.06678292114690576,0.1,0.0,0.0,493.0,506.0,0.0,1,1631.0,1
780,780,-0.5002983083528385,-0.5,0.0,1.0,269.0,502.0,1.0,0,329.0,1
781,781,0.11482647819015701,0.1,1.0,1.0,430.0,708.0,1.0,1,562.0,1
782,782,-0.8902395345250754,-0.9,0.0,1.0,287.0,962.0,0.0,1,-69.0,0
783,783,0.8330558018099151,0.8,0.0,0.0,387.0,994.0,0.0,1,229.0,1
784,784,0.20792284975340236,0.2,1.0,1.0,349.0,665.0,1.0,1,486.0,1
785,785,-0.05991315085712756,-0.1,1.0,0.0,459.0,857.0,0.0,0,724.0,1
786,786,-0.7093460949816668,-0.7,1.0,0.0,397.0,848.0,0.0,0,115.0,1
787,787,-0.5637731012316007,-0.6,0.0,1.0,348.0,818.0,1.0,0,144.0,1
788,788,-0.07662667516150345,-0.1,1.0,0.0,495.0,931.0,0.0,0,874.0,1
789,789,-0.5215008763578461,-0.5,0.0,1.0,447.0,638.0,1.0,0,345.0,1
790,790,-0.6703725124741428,-0.7,1.0,0.0,449.0,838.0,0.0,0,183.0,1
791,791,-0.8077987261271268,-0.8,0.0,1.0,477.0,886.0,1.0,0,177.0,1
792,792,-0.6890648905921846,-0.7,0.0,1.0,298.0,592.0,1.0,0,140.0,1
793,793,-0.15330274675758526,-0.2,0.0,1.0,318.0,917.0,1.0,0,365.0,1
794,794,0.8636610155643275,0.9,0.0,0.0,299.0,783.0,0.0,1,158.0,1
795,795,0.332986264244851,0.3,1.0,1.0,474.0,954.0,1.0,1,782.0,1
796,796,-0.8953343214132539,-0.9,1.0,0.0,468.0,777.0,0.0,0,185.0,1
797,797,0.64587040391665,0.6,0.0,0.0,271.0,874.0,0.0,1,225.0,1
798,798,-0.5614190409099604,-0.6,1.0,0.0,468.0,778.0,0.0,0,174.0,1
799,799,-0.1660358303578271,-0.2,0.0,1.0,307.0,679.0,1.0,0,1354.0,1
800,800,0.4170810824670418,0.4,0.0,0.0,398.0,725.0,0.0,1,337.0,1
801,801,0.24130715739372788,0.2,1.0,1.0,342.0,531.0,1.0,1,1927.0,1
802,802,0.8613153417497227,0.9,1.0,1.0,374.0,974.0,1.0,1,102.0,1
803,803,0.07973215561526048,0.1,0.0,0.0,461.0,926.0,0.0,1,1283.0,1
804,804,0.4980492601038119,0.5,0.0,0.0,377.0,900.0,0.0,1,-47.0,1
805,805,0.6930914334665154,0.7,0.0,0.0,379.0,736.0,0.0,1,175.0,1
806,806,0.6647824490118469,0.7,1.0,1.0,275.0,880.0,1.0,1,145.0,1
807,807,0.014090903121589338,0.0,0.0,0.0,477.0,597.0,0.0,1,1836.0,1
808,808,0.3200084328966363,0.3,0.0,0.0,367.0,751.0,0.0,1,282.0,1
809,809,0.38216133659019713,0.4,1.0,1.0,289.0,538.0,1.0,1,453.0,1
810,810,-0.8491684421598859,-0.8,0.0,1.0,304.0,599.0,1.0,0,237.0,1
811,811,-0.3295800704312637,-0.3,1.0,0.0,334.0,698.0,0.0,0,288.0,1
812,812,-0.20019645324677093,-0.2,1.0,0.0,387.0,573.0,0.0,0,640.0,1
813,813,0.836061487429827,0.8,0.0,0.0,365.0,879.0,0.0,1,36.0,1
814,814,-0.049065249633840846,-0.0,0.0,1.0,478.0,686.0,0.0,1,1766.0,0
815,815,-0.075562432739265,-0.1,0.0,1.0,313.0,627.0,1.0,0,2060.0,1
816,816,0.46145599370125245,0.5,1.0,1.0,344.0,663.0,1.0,1,233.0,1
817,817,-0.21724371783770502,-0.2,0.0,1.0,250.0,836.0,1.0,0,1654.0,1
818,818,0.011292107176441357,0.0,0.0,0.0,337.0,767.0,0.0,1,496.0,1
819,819,-0.8047466146109974,-0.8,0.0,1.0,309.0,566.0,1.0,0,245.0,1
820,820,-0.7159731286358474,-0.7,1.0,0.0,417.0,633.0,0.0,0,130.0,1
821,821,-0.2440196171449145,-0.2,1.0,0.0,316.0,901.0,0.0,0,323.0,1
822,822,0.43114609817875504,0.4,1.0,1.0,448.0,759.0,1.0,1,223.0,1
823,823,0.7007936492594214,0.7,0.0,0.0,361.0,550.0,0.0,1,189.0,1
824,824,0.009587997182944896,0.0,1.0,1.0,360.0,536.0,0.0,0,984.0,0
825,825,0.8614261868291121,0.9,0.0,0.0,450.0,751.0,0.0,1,49.0,1
826,826,-0.7497982125532956,-0.7,1.0,0.0,470.0,859.0,0.0,0,131.0,1
827,827,-0.31495314691598075,-0.3,1.0,0.0,434.0,896.0,0.0,0,280.0,1
828,828,-0.3545100911767469,-0.4,0.0,1.0,292.0,846.0,1.0,0,212.0,1
829,829,0.3437785651941726,0.3,0.0,0.0,322.0,835.0,0.0,1,453.0,1
830,830,-0.6747448216104642,-0.7,1.0,0.0,429.0,614.0,0.0,0,327.0,1
831,831,0.14541130851086448,0.1,0.0,0.0,496.0,851.0,0.0,1,773.0,1
832,832,-0.7716955213816262,-0.8,0.0,1.0,320.0,781.0,1.0,0,189.0,1
833,833,0.6618164376678174,0.7,1.0,1.0,319.0,539.0,1.0,1,1392.0,1
834,834,-0.24438984234775063,-0.2,0.0,1.0,294.0,960.0,1.0,0,36.0,1
835,835,0.005680273997392016,0.0,0.0,0.0,252.0,855.0,0.0,1,-117.0,1
836,836,-0.23691974889793266,-0.2,1.0,0.0,443.0,540.0,0.0,0,187.0,1
837,837,-0.0874002674704576,-0.1,0.0,1.0,290.0,854.0,1.0,0,1856.0,1
838,838,0.6342956304493302,0.6,0.0,0.0,413.0,933.0,0.0,1,124.0,1
839,839,0.18329393565679586,0.2,1.0,1.0,325.0,603.0,1.0,1,982.0,1
840,840,0.22187446567186575,0.2,1.0,1.0,259.0,929.0,1.0,1,722.0,1
841,841,-0.5947538432004389,-0.6,0.0,1.0,361.0,539.0,1.0,0,840.0,1
842,842,0.5517782479535739,0.6,1.0,1.0,294.0,844.0,1.0,1,312.0,1
843,843,-0.7249615530531247,-0.7,1.0,0.0,279.0,541.0,0.0,0,20.0,1
844,844,-0.7940224863164864,-0.8,0.0,1.0,371.0,848.0,1.0,0,251.0,1
845,845,0.8112022492372571,0.8,1.0,1.0,454.0,815.0,1.0,1,231.0,1
846,846,0.2582909512342991,0.3,0.0,0.0,488.0,548.0,0.0,1,394.0,1
847,847,-0.2942082641904057,-0.3,1.0,0.0,427.0,719.0,0.0,0,204.0,1
848,848,-0.31468630471608994,-0.3,1.0,0.0,357.0,827.0,0.0,0,246.0,1
849,849,0.049310808718466714,0.0,0.0,0.0,464.0,629.0,0.0,1,377.0,1
850,850,0.6530195780413149,0.7,1.0,1.0,369.0,590.0,1.0,1,631.0,1
851,851,0.11707436549959638,0.1,0.0,0.0,282.0,738.0,0.0,1,1820.0,1
852,852,0.6143684592493651,0.6,0.0,0.0,302.0,933.0,0.0,1,55.0,1
853,853,-0.3015689133032601,-0.3,1.0,0.0,369.0,906.0,0.0,0,205.0,1
854,854,0.8090674463485313,0.8,0.0,0.0,386.0,775.0,0.0,1,99.0,1
855,855,-0.027192144664131335,-0.0,1.0,0.0,274.0,811.0,0.0,0,265.0,1
856,856,-0.6048644478394849,-0.6,0.0,1.0,434.0,659.0,1.0,0,177.0,1
857,857,-0.4420097368392468,-0.4,1.0,0.0,272.0,528.0,0.0,0,290.0,1
858,858,-0.2598959816777806,-0.3,1.0,0.0,428.0,660.0,0.0,0,402.0,1
859,859,-0.16207552129779634,-0.2,1.0,0.0,336.0,587.0,0.0,0,297.0,1
860,860,-0.5578308512183507,-0.6,0.0,1.0,290.0,721.0,1.0,0,289.0,1
861,861,-0.4705805295309878,-0.5,0.0,1.0,254.0,899.0,1.0,0,67.0,1
862,862,-0.5258881883507376,-0.5,0.0,1.0,453.0,691.0,1.0,0,556.0,1
863,863,-0.6905202924333819,-0.7,1.0,0.0,364.0,542.0,0.0,0,74.0,1
864,864,-0.1303863111865552,-0.1,0.0,1.0,277.0,507.0,1.0,0,1556.0,1
865,865,-0.0356556084875046,-0.0,0.0,1.0,447.0,577.0,0.0,1,526.0,0
866,866,-0.8822595288834262,-0.9,0.0,1.0,460.0,661.0,1.0,0,549.0,1
867,867,-0.33706582860638545,-0.3,0.0,1.0,351.0,726.0,1.0,0,313.0,1
868,868,0.16403548477436514,0.2,0.0,0.0,460.0,573.0,0.0,1,457.0,1
869,869,-0.7253804065121748,-0.7,0.0,1.0,355.0,764.0,1.0,0,281.0,1
870,870,-0.3815960094380775,-0.4,0.0,1.0,485.0,919.0,1.0,0,546.0,1
871,871,0.4469094345455896,0.4,1.0,1.0,490.0,974.0,1.0,1,636.0,1
872,872,0.4566546618862509,0.5,1.0,1.0,266.0,718.0,1.0,1,396.0,1
873,873,0.006813580755905213,0.0,0.0,0.0,278.0,654.0,1.0,0,2068.0,0
874,874,-0.42713563185099584,-0.4,0.0,1.0,298.0,748.0,1.0,0,134.0,1
875,875,-0.020782175099091527,-0.0,1.0,0.0,443.0,994.0,0.0,0,413.0,1
876,876,-0.8859733380909924,-0.9,0.0,1.0,338.0,795.0,1.0,0,147.0,1
877,877,0.13004097390394354,0.1,1.0,1.0,494.0,958.0,0.0,0,-82.0,0
878,878,-0.04944789781601333,-0.0,1.0,0.0,361.0,581.0,0.0,0,308.0,1
879,879,4.128209208031919e-06,0.0,0.0,0.0,442.0,857.0,0.0,1,1701.0,1
880,880,0.733401550012628,0.7,1.0,1.0,392.0,734.0,1.0,1,474.0,1
881,881,0.7625117496232404,0.8,1.0,1.0,256.0,782.0,1.0,1,122.0,1
882,882,-0.7584781798896015,-0.8,1.0,0.0,369.0,805.0,0.0,0,116.0,1
883,883,-0.8792502127235338,-0.9,1.0,0.0,332.0,567.0,0.0,0,301.0,1
884,884,-0.5241130076741329,-0.5,1.0,0.0,424.0,835.0,0.0,0,161.0,1
885,885,0.27890800381706116,0.3,0.0,0.0,273.0,555.0,0.0,1,252.0,1
886,886,0.746419660757282,0.7,1.0,1.0,266.0,633.0,1.0,1,251.0,1
887,887,-0.18714885480845567,-0.2,1.0,0.0,427.0,720.0,0.0,0,433.0,1
888,888,0.0006606485887035163,0.0,0.0,0.0,367.0,580.0,0.0,1,-47.0,1
889,889,0.8571757760869078,0.9,0.0,0.0,414.0,714.0,0.0,1,2.0,1
890,890,0.5125624868391793,0.5,0.0,0.0,469.0,659.0,0.0,1,262.0,1
891,891,0.0947184855637776,0.1,0.0,0.0,420.0,539.0,0.0,1,1651.0,1
892,892,-0.22406402880697607,-0.2,1.0,0.0,272.0,541.0,0.0,0,267.0,1
893,893,0.7538314154308358,0.8,0.0,0.0,474.0,586.0,0.0,1,260.0,1
894,894,-0.8858014445088269,-0.9,1.0,0.0,450.0,638.0,0.0,0,112.0,1
895,895,0.43265836860538276,0.4,0.0,0.0,470.0,547.0,0.0,1,83.0,1
896,896,-0.5536197680516005,-0.6,1.0,0.0,444.0,862.0,0.0,0,134.0,1
897,897,-0.4730225813680097,-0.5,1.0,0.0,411.0,535.0,0.0,0,204.0,1
898,898,0.6993184638730355,0.7,0.0,0.0,403.0,789.0,0.0,1,158.0,1
899,899,-0.7863506060112523,-0.8,1.0,0.0,434.0,543.0,0.0,0,133.0,1
900,900,-0.12880559641734246,-0.1,1.0,0.0,436.0,502.0,0.0,0,552.0,1
901,901,-0.4215707776532574,-0.4,0.0,1.0,302.0,812.0,1.0,0,346.0,1
902,902,0.6180648181733056,0.6,1.0,1.0,406.0,836.0,1.0,1,358.0,1
903,903,0.334902281592372,0.3,0.0,0.0,317.0,832.0,0.0,1,151.0,1
904,904,-0.8239747596957676,-0.8,1.0,0.0,250.0,641.0,0.0,0,169.0,1
905,905,-0.006785653185125917,-0.0,0.0,1.0,365.0,569.0,1.0,0,1346.0,1
906,906,0.11783320490990012,0.1,1.0,1.0,370.0,995.0,1.0,1,1015.0,1
907,907,0.10050941828214943,0.1,1.0,1.0,278.0,656.0,1.0,1,2066.0,1
908,908,-0.021737134304044226,-0.0,0.0,1.0,411.0,617.0,0.0,1,492.0,0
909,909,-0.20048912432032395,-0.2,0.0,1.0,492.0,642.0,1.0,0,1666.0,1
910,910,-0.2669946689015886,-0.3,0.0,1.0,387.0,512.0,1.0,0,581.0,1
911,911,-0.30742800839796836,-0.3,1.0,0.0,292.0,685.0,0.0,0,233.0,1
912,912,0.36151087531889503,0.4,1.0,1.0,343.0,865.0,1.0,1,512.0,1
913,913,0.6630321920195753,0.7,1.0,1.0,362.0,740.0,1.0,1,138.0,1
914,914,-0.5747280626845311,-0.6,0.0,1.0,493.0,792.0,1.0,0,185.0,1
915,915,-0.46266990481056197,-0.5,1.0,0.0,449.0,947.0,0.0,0,144.0,1
916,916,-0.7487165201809163,-0.7,0.0,1.0,378.0,821.0,0.0,1,-29.0,0
917,917,0.021473383755656883,0.0,1.0,1.0,487.0,511.0,0.0,0,1172.0,0
918,918,-0.5524718346616422,-0.6,1.0,0.0,465.0,862.0,0.0,0,233.0,1
919,919,-0.010917410117567083,-0.0,0.0,1.0,366.0,710.0,0.0,1,694.0,0
920,920,-0.5861725578730772,-0.6,0.0,1.0,407.0,852.0,1.0,0,341.0,1
921,921,0.17724635937140742,0.2,0.0,0.0,253.0,747.0,0.0,1,270.0,1
922,922,0.7712277503347006,0.8,1.0,1.0,423.0,816.0,1.0,1,271.0,1
923,923,0.5943744845029261,0.6,1.0,1.0,414.0,898.0,1.0,1,718.0,1
924,924,-0.06422891118546659,-0.1,1.0,0.0,373.0,981.0,0.0,0,316.0,1
925,925,-0.604946331883189,-0.6,1.0,0.0,270.0,548.0,0.0,0,142.0,1
926,926,0.8111060315234412,0.8,1.0,1.0,403.0,806.0,1.0,1,241.0,1
927,927,0.8336593638911248,0.8,0.0,0.0,374.0,706.0,0.0,1,350.0,1
928,928,-0.23295081067607182,-0.2,1.0,0.0,434.0,927.0,0.0,0,-51.0,1
929,929,0.8997812366755727,0.9,0.0,0.0,314.0,761.0,0.0,1,175.0,1
930,930,-0.8656513223740613,-0.9,1.0,0.0,458.0,899.0,0.0,0,193.0,1
931,931,0.8466108966973055,0.8,1.0,1.0,450.0,970.0,1.0,1,330.0,1
932,932,0.6782957783835436,0.7,1.0,1.0,295.0,798.0,1.0,1,127.0,1
933,933,0.5213860994024629,0.5,1.0,1.0,361.0,581.0,1.0,1,128.0,1
934,934,-0.2533578756017718,-0.3,0.0,1.0,350.0,866.0,1.0,0,444.0,1
935,935,-0.779454453583754,-0.8,0.0,1.0,254.0,554.0,1.0,0,182.0,1
936,936,0.7334821515877953,0.7,1.0,1.0,367.0,904.0,1.0,1,259.0,1
937,937,0.47680767125320045,0.5,0.0,0.0,285.0,877.0,0.0,1,268.0,1
938,938,-0.429166508281892,-0.4,0.0,1.0,496.0,566.0,1.0,0,188.0,1
939,939,0.7172045416964653,0.7,0.0,0.0,314.0,528.0,0.0,1,178.0,1
940,940,-0.1039303174919769,-0.1,0.0,1.0,283.0,957.0,1.0,0,550.0,1
941,941,-0.5642293364818425,-0.6,1.0,0.0,313.0,912.0,0.0,0,145.0,1
942,942,0.6502277759758638,0.7,1.0,1.0,255.0,767.0,1.0,1,218.0,1
943,943,-0.24792992396845148,-0.2,1.0,0.0,387.0,755.0,0.0,0,498.0,1
944,944,-0.7199389001960448,-0.7,1.0,0.0,320.0,644.0,0.0,0,256.0,1
945,945,-0.8117525733235671,-0.8,1.0,0.0,281.0,890.0,0.0,0,159.0,1
946,946,0.750730732186237,0.8,1.0,1.0,448.0,518.0,1.0,1,294.0,1
947,947,0.06840834284390462,0.1,0.0,0.0,407.0,676.0,0.0,1,677.0,1
948,948,0.759411930525247,0.8,0.0,0.0,404.0,748.0,0.0,1,258.0,1
949,949,-0.7747044652558116,-0.8,1.0,0.0,414.0,911.0,0.0,0,-125.0,1
950,950,-0.6494344585829315,-0.6,0.0,1.0,379.0,549.0,1.0,0,382.0,1
951,951,0.42158957877782155,0.4,0.0,0.0,298.0,761.0,0.0,1,-119.0,1
952,952,-0.002976249962647115,-0.0,0.0,1.0,273.0,696.0,0.0,1,1511.0,0
953,953,0.6513516361879222,0.7,0.0,0.0,429.0,652.0,0.0,1,359.0,1
954,954,-0.14276250289305503,-0.1,1.0,0.0,349.0,902.0,0.0,0,119.0,1
955,955,0.12154450534063199,0.1,0.0,0.0,386.0,590.0,0.0,1,524.0,1
956,956,0.2017576962383253,0.2,0.0,0.0,341.0,820.0,0.0,1,159.0,1
957,957,0.25236134278380307,0.3,1.0,1.0,417.0,887.0,1.0,1,656.0,1
958,958,-0.14443576354863108,-0.1,1.0,0.0,379.0,719.0,0.0,0,262.0,1
959,959,-0.5669808466394666,-0.6,1.0,0.0,450.0,744.0,0.0,0,56.0,1
960,960,0.6927309054017,0.7,0.0,0.0,457.0,927.0,0.0,1,316.0,1
961,961,-0.7148974323129592,-0.7,1.0,0.0,344.0,877.0,0.0,0,139.0,1
962,962,-0.6376728782243247,-0.6,1.0,0.0,413.0,966.0,0.0,0,171.0,1
963,963,0.49393304968049134,0.5,0.0,0.0,456.0,520.0,0.0,1,234.0,1
964,964,-0.42736944121425696,-0.4,1.0,0.0,393.0,792.0,0.0,0,405.0,1
965,965,-0.5540706338803665,-0.6,1.0,0.0,307.0,569.0,0.0,0,344.0,1
966,966,0.3710367779416287,0.4,0.0,0.0,257.0,971.0,0.0,1,92.0,1
967,967,-0.44659373277565145,-0.4,0.0,1.0,466.0,742.0,1.0,0,312.0,1
968,968,0.5444777301117961,0.5,1.0,1.0,297.0,751.0,1.0,1,352.0,1
969,969,0.26565701090036054,0.3,0.0,0.0,365.0,789.0,0.0,1,196.0,1
970,970,0.7822813617667869,0.8,1.0,1.0,339.0,618.0,1.0,1,563.0,1
971,971,0.524410515322867,0.5,1.0,1.0,367.0,966.0,1.0,1,267.0,1
972,972,0.16450502075249906,0.2,1.0,1.0,374.0,799.0,1.0,1,847.0,1
973,973,0.5441564057076295,0.5,1.0,1.0,376.0,787.0,1.0,1,947.0,1
974,974,-0.663874829846954,-0.7,1.0,0.0,400.0,983.0,0.0,0,327.0,1
975,975,0.467607049434542,0.5,0.0,0.0,307.0,732.0,0.0,1,271.0,1
976,976,0.02923070037789488,0.0,1.0,1.0,321.0,810.0,1.0,1,1869.0,1
977,977,0.8984417157934327,0.9,1.0,1.0,347.0,926.0,1.0,1,217.0,1
978,978,-0.8035092834596639,-0.8,1.0,0.0,381.0,553.0,0.0,0,-164.0,1
979,979,-0.8855699966388393,-0.9,1.0,0.0,263.0,706.0,0.0,0,161.0,1
980,980,-0.06098064924744018,-0.1,0.0,1.0,297.0,974.0,0.0,1,1729.0,0
981,981,0.4415410470301665,0.4,0.0,0.0,330.0,800.0,0.0,1,180.0,1
982,982,0.7988182056368253,0.8,1.0,1.0,267.0,980.0,1.0,1,373.0,1
983,983,0.4471998208019342,0.4,0.0,0.0,264.0,802.0,0.0,1,234.0,1
984,984,0.35656622189412,0.4,0.0,0.0,469.0,830.0,0.0,1,81.0,1
985,985,0.6148017239314304,0.6,1.0,1.0,413.0,751.0,1.0,1,246.0,1
986,986,0.18686210868538866,0.2,1.0,1.0,284.0,738.0,1.0,1,1708.0,1
987,987,-0.6861332343109958,-0.7,1.0,0.0,342.0,900.0,0.0,0,178.0,1
988,988,0.5307877912116844,0.5,1.0,1.0,389.0,579.0,1.0,1,352.0,1
989,989,-0.21110728863753558,-0.2,1.0,0.0,466.0,722.0,0.0,0,272.0,1
990,990,0.8880544594349175,0.9,1.0,1.0,365.0,601.0,1.0,1,174.0,1
991,991,-0.5588646117732818,-0.6,1.0,0.0,297.0,971.0,0.0,0,182.0,1
992,992,0.015751835532110015,0.0,1.0,1.0,303.0,940.0,1.0,1,1757.0,1
993,993,0.8641785328796888,0.9,1.0,1.0,409.0,690.0,1.0,1,541.0,1
994,994,-0.3195196333678515,-0.3,0.0,1.0,331.0,529.0,1.0,0,680.0,1
995,995,0.5946766100583597,0.6,0.0,0.0,333.0,634.0,0.0,1,153.0,1
996,996,-0.24548141758879338,-0.2,1.0,0.0,487.0,508.0,0.0,0,475.0,1
997,997,0.6647261565127424,0.7,0.0,0.0,366.0,818.0,0.0,1,266.0,1
998,998,0.850563589547097,0.9,0.0,0.0,272.0,729.0,0.0,1,199.0,1
999,999,-0.5365869062229935,-0.5,0.0,1.0,325.0,834.0,1.0,0,91.0,1
1000,1000,0.7412606823368061,0.7,1.0,1.0,426.0,788.0,1.0,1,406.0,1
1001,1001,0.8580202068117121,0.9,0.0,0.0,291.0,595.0,0.0,1,264.0,1
1002,1002,-0.7561524911716422,-0.8,0.0,1.0,420.0,760.0,1.0,0,210.0,1
1003,1003,-0.5614421835746821,-0.6,1.0,0.0,367.0,506.0,0.0,0,177.0,1
1004,1004,-0.43065731364774357,-0.4,0.0,1.0,351.0,516.0,1.0,0,223.0,1
1005,1005,0.1783787201108119,0.2,0.0,0.0,269.0,629.0,0.0,1,702.0,1
1006,1006,-0.35210170492912896,-0.4,0.0,1.0,414.0,924.0,1.0,0,532.0,1
1007,1007,0.19454439996518957,0.2,1.0,1.0,419.0,988.0,1.0,1,1303.0,1
1008,1008,-0.7809140782063618,-0.8,1.0,0.0,428.0,889.0,0.0,0,-7.0,1
1009,1009,-0.7794208542044528,-0.8,1.0,0.0,402.0,712.0,0.0,0,216.0,1
1010,1010,-0.8770233223887159,-0.9,0.0,1.0,276.0,557.0,1.0,0,647.0,1
1011,1011,-0.07634985094405644,-0.1,1.0,0.0,416.0,878.0,0.0,0,276.0,1
1012,1012,-0.2995198086933025,-0.3,0.0,1.0,480.0,686.0,1.0,0,434.0,1
1013,1013,-0.2234059422782677,-0.2,0.0,1.0,306.0,602.0,1.0,0,652.0,1
1014,1014,-0.06356703088294557,-0.1,1.0,0.0,486.0,599.0,0.0,0,425.0,1
1015,1015,0.6511519104067226,0.7,1.0,1.0,485.0,627.0,1.0,1,528.0,1
1016,1016,0.2495006643552352,0.2,0.0,0.0,410.0,885.0,0.0,1,475.0,1
1017,1017,0.7620203458202467,0.8,0.0,0.0,479.0,854.0,0.0,1,-13.0,1
1018,1018,-0.2112980204125956,-0.2,1.0,0.0,339.0,575.0,0.0,0,316.0,1
1019,1019,0.3603142926715829,0.4,1.0,1.0,329.0,831.0,1.0,1,250.0,1
1020,1020,-0.04123665826051204,-0.0,1.0,0.0,280.0,647.0,0.0,0,573.0,1
1021,1021,-0.20686472563353353,-0.2,0.0,1.0,491.0,735.0,1.0,0,1034.0,1
1022,1022,0.0181110611098253,0.0,1.0,1.0,255.0,611.0,0.0,0,444.0,0
1023,1023,0.15409112685223036,0.2,0.0,0.0,476.0,581.0,0.0,1,1223.0,1
1024,1024,-0.6250209052283378,-0.6,1.0,0.0,299.0,810.0,0.0,0,181.0,1
1025,1025,-0.8832410572518646,-0.9,0.0,1.0,362.0,610.0,1.0,0,118.0,1
1026,1026,-0.5220342223100487,-0.5,0.0,1.0,396.0,825.0,1.0,0,169.0,1
1027,1027,-0.14415753964021782,-0.1,0.0,1.0,491.0,953.0,1.0,0,-154.0,1
1028,1028,-0.7525624265467924,-0.8,0.0,1.0,434.0,644.0,1.0,0,252.0,1
1029,1029,0.771271129856329,0.8,1.0,1.0,445.0,757.0,1.0,1,298.0,1
1030,1030,0.6049057280350986,0.6,1.0,1.0,477.0,624.0,1.0,1,309.0,1
1031,1031,-0.3584255832760155,-0.4,0.0,1.0,436.0,633.0,1.0,0,761.0,1
1032,1032,-0.007924280963251595,-0.0,1.0,0.0,484.0,845.0,0.0,0,1671.0,1
1033,1033,0.8080899413684611,0.8,0.0,0.0,330.0,645.0,0.0,1,265.0,1
1034,1034,-0.08542895859797894,-0.1,0.0,1.0,413.0,905.0,1.0,0,1682.0,1
1035,1035,-0.28290481199087514,-0.3,1.0,0.0,301.0,728.0,0.0,0,451.0,1
1036,1036,0.862240298656198,0.9,1.0,1.0,402.0,553.0,1.0,1,135.0,1
1037,1037,-0.5287043149299407,-0.5,0.0,1.0,329.0,547.0,1.0,0,464.0,1
1038,1038,-0.08704934386614904,-0.1,1.0,0.0,297.0,900.0,0.0,0,213.0,1
1039,1039,-0.7340235562273629,-0.7,0.0,1.0,431.0,930.0,1.0,0,279.0,1
1040,1040,-0.887424906404257,-0.9,0.0,1.0,382.0,569.0,1.0,0,179.0,1
1041,1041,0.679994129106899,0.7,0.0,0.0,369.0,560.0,0.0,1,381.0,1
1042,1042,0.38218914968917705,0.4,1.0,1.0,360.0,695.0,1.0,1,265.0,1
1043,1043,-0.7738800442794427,-0.8,1.0,0.0,382.0,708.0,0.0,0,150.0,1
1044,1044,-0.4254813823207753,-0.4,0.0,1.0,465.0,509.0,1.0,0,846.0,1
1045,1045,-0.3164165420290378,-0.3,0.0,1.0,397.0,633.0,1.0,0,830.0,1
1046,1046,0.5743260023373128,0.6,1.0,1.0,418.0,961.0,1.0,1,301.0,1
1047,1047,-0.3791483934926,-0.4,0.0,1.0,358.0,616.0,1.0,0,136.0,1
1048,1048,0.7230914291414482,0.7,1.0,1.0,409.0,772.0,1.0,1,299.0,1
1049,1049,0.16802404036403884,0.2,1.0,1.0,312.0,531.0,1.0,1,1457.0,1
1050,1050,0.3795597339099789,0.4,1.0,1.0,460.0,737.0,1.0,1,523.0,1
1051,1051,-0.839443618136215,-0.8,1.0,0.0,369.0,520.0,0.0,0,301.0,1
1052,1052,0.23150066092301225,0.2,1.0,1.0,426.0,750.0,1.0,1,1334.0,1
1053,1053,-0.5569080987856914,-0.6,0.0,1.0,497.0,774.0,1.0,0,259.0,1
1054,1054,0.30360856973392203,0.3,0.0,0.0,267.0,742.0,0.0,1,181.0,1
1055,1055,-0.4618740759305929,-0.5,0.0,1.0,381.0,559.0,1.0,0,280.0,1
1056,1056,-0.5554411970778625,-0.6,0.0,1.0,408.0,901.0,1.0,0,191.0,1
1057,1057,0.028397258003664216,0.0,1.0,1.0,383.0,785.0,0.0,0,342.0,0
1058,1058,0.26266474365542203,0.3,0.0,0.0,478.0,859.0,0.0,1,343.0,1
1059,1059,0.04829491407543596,0.0,0.0,0.0,339.0,646.0,0.0,1,765.0,1
1060,1060,0.4303783580019943,0.4,1.0,1.0,344.0,892.0,1.0,1,594.0,1
1061,1061,0.42092984258667865,0.4,1.0,1.0,398.0,608.0,1.0,1,1294.0,1
1062,1062,-0.08845986060767974,-0.1,0.0,1.0,347.0,735.0,0.0,1,1918.0,0
1063,1063,-0.8205048599591064,-0.8,0.0,1.0,472.0,503.0,1.0,0,345.0,1
1064,1064,0.5801754238598861,0.6,0.0,0.0,499.0,917.0,0.0,1,154.0,1
1065,1065,0.6964191668486203,0.7,0.0,0.0,315.0,739.0,0.0,1,236.0,1
1066,1066,-0.06486895358696265,-0.1,0.0,1.0,435.0,773.0,0.0,1,242.0,0
1067,1067,-0.819170044269922,-0.8,0.0,1.0,420.0,700.0,1.0,0,250.0,1
1068,1068,-0.3062852240884397,-0.3,1.0,0.0,392.0,967.0,0.0,0,311.0,1
1069,1069,-0.004994535074653972,-0.0,0.0,1.0,296.0,554.0,0.0,1,720.0,0
1070,1070,0.08112752767836229,0.1,0.0,0.0,283.0,752.0,0.0,1,405.0,1
1071,1071,0.8761350193835568,0.9,0.0,0.0,398.0,693.0,0.0,1,59.0,1
1072,1072,-0.33417886618957793,-0.3,1.0,0.0,394.0,984.0,0.0,0,172.0,1
1073,1073,-0.3536775521589762,-0.4,1.0,0.0,434.0,928.0,0.0,0,478.0,1
1074,1074,-0.11670933812748918,-0.1,0.0,1.0,432.0,821.0,1.0,0,1747.0,1
1075,1075,-0.178897979561776,-0.2,0.0,1.0,421.0,833.0,1.0,0,1746.0,1
1076,1076,0.5798506100537154,0.6,0.0,0.0,292.0,574.0,0.0,1,214.0,1
1077,1077,0.6048731898700658,0.6,1.0,1.0,256.0,503.0,1.0,1,211.0,1
1078,1078,-0.34386227455402385,-0.3,1.0,0.0,452.0,942.0,0.0,0,86.0,1
1079,1079,-0.6296397730287596,-0.6,0.0,1.0,469.0,924.0,1.0,0,207.0,1
1080,1080,0.22439499539870866,0.2,0.0,0.0,315.0,662.0,0.0,1,503.0,1
1081,1081,0.5382605431633841,0.5,0.0,0.0,343.0,930.0,0.0,1,47.0,1
1082,1082,-0.08312568065913029,-0.1,0.0,1.0,325.0,653.0,0.0,1,1212.0,0
1083,1083,0.8358249488727424,0.8,1.0,1.0,264.0,890.0,1.0,1,106.0,1
1084,1084,-0.038290892318844305,-0.0,0.0,1.0,289.0,779.0,0.0,1,1802.0,0
1085,1085,-0.7234387861213684,-0.7,1.0,0.0,283.0,515.0,0.0,0,112.0,1
1086,1086,0.22294459767834096,0.2,1.0,1.0,346.0,547.0,1.0,1,917.0,1
1087,1087,-0.4439143590297896,-0.4,0.0,1.0,495.0,707.0,1.0,0,558.0,1
1088,1088,0.09625939725743704,0.1,0.0,0.0,430.0,960.0,0.0,1,330.0,1
1089,1089,-0.3817465026689484,-0.4,1.0,0.0,485.0,790.0,0.0,0,235.0,1
1090,1090,0.1598312785189785,0.2,1.0,1.0,360.0,903.0,1.0,1,1017.0,1
1091,1091,0.20153003661398172,0.2,1.0,1.0,337.0,717.0,1.0,1,666.0,1
1092,1092,0.8743440297604445,0.9,1.0,1.0,432.0,797.0,1.0,1,191.0,1
1093,1093,-0.4089575246380991,-0.4,0.0,1.0,310.0,506.0,1.0,0,444.0,1
1094,1094,-0.5209206510028282,-0.5,0.0,1.0,265.0,612.0,1.0,0,263.0,1
1095,1095,-0.1448093008468836,-0.1,1.0,0.0,392.0,615.0,0.0,0,333.0,1
1096,1096,0.4042024638785343,0.4,1.0,1.0,338.0,595.0,1.0,1,727.0,1
1097,1097,-0.4247130650240192,-0.4,0.0,1.0,392.0,512.0,1.0,0,376.0,1
1098,1098,-0.897403327960749,-0.9,1.0,0.0,300.0,575.0,0.0,0,85.0,1
1099,1099,0.8092716416963474,0.8,0.0,0.0,383.0,747.0,0.0,1,130.0,1
1100,1100,0.710999348665822,0.7,1.0,1.0,279.0,807.0,1.0,1,224.0,1
1101,1101,0.8413329637051233,0.8,0.0,0.0,392.0,778.0,0.0,1,260.0,1
1102,1102,-0.16506418140249968,-0.2,1.0,0.0,294.0,640.0,0.0,0,546.0,1
1103,1103,-0.36844014823197635,-0.4,0.0,1.0,326.0,981.0,1.0,0,373.0,1
1104,1104,0.7463961886107627,0.7,1.0,1.0,325.0,530.0,1.0,1,235.0,1
1105,1105,0.2050239384867535,0.2,0.0,0.0,464.0,882.0,0.0,1,284.0,1
1106,1106,0.06109748737274512,0.1,0.0,0.0,296.0,557.0,0.0,1,617.0,1
1107,1107,-0.6960090125474724,-0.7,1.0,0.0,480.0,850.0,0.0,0,70.0,1
1108,1108,-0.7794075587562255,-0.8,1.0,0.0,368.0,705.0,0.0,0,227.0,1
1109,1109,0.5118121209638308,0.5,1.0,1.0,468.0,587.0,1.0,1,365.0,1
1110,1110,0.4223853939542729,0.4,0.0,0.0,455.0,820.0,0.0,1,275.0,1
1111,1111,-0.495087576065182,-0.5,1.0,0.0,279.0,774.0,0.0,0,147.0,1
1112,1112,-0.5490855987008076,-0.5,1.0,0.0,470.0,744.0,0.0,0,226.0,1
1113,1113,-0.4921713168782999,-0.5,1.0,0.0,494.0,775.0,0.0,0,1.0,1
1114,1114,-0.8751950757376483,-0.9,1.0,0.0,407.0,970.0,0.0,0,103.0,1
1115,1115,0.8390420515045937,0.8,0.0,0.0,291.0,850.0,0.0,1,119.0,1
1116,1116,-0.3834322637381321,-0.4,0.0,1.0,452.0,815.0,1.0,0,793.0,1
1117,1117,0.8049150661876953,0.8,1.0,1.0,369.0,693.0,1.0,1,128.0,1
1118,1118,0.42449161642536326,0.4,1.0,1.0,420.0,516.0,1.0,1,214.0,1
1119,1119,0.6222342159832271,0.6,1.0,1.0,338.0,728.0,1.0,1,1024.0,1
1120,1120,-0.7999888969630535,-0.8,1.0,0.0,381.0,932.0,0.0,0,177.0,1
1121,1121,-0.3386411356515826,-0.3,1.0,0.0,405.0,545.0,0.0,0,360.0,1
1122,1122,0.7415364336868672,0.7,1.0,1.0,285.0,569.0,1.0,1,276.0,1
1123,1123,-0.6938550890370664,-0.7,1.0,0.0,492.0,729.0,0.0,0,99.0,1
1124,1124,-0.7930093521585339,-0.8,0.0,1.0,295.0,583.0,1.0,0,172.0,1
1125,1125,0.8885819747136746,0.9,1.0,1.0,373.0,907.0,1.0,1,320.0,1
1126,1126,0.3676857676526658,0.4,0.0,0.0,429.0,551.0,0.0,1,320.0,1
1127,1127,-0.46815889705575375,-0.5,0.0,1.0,314.0,626.0,1.0,0,270.0,1
1128,1128,0.4337960454205888,0.4,1.0,1.0,437.0,729.0,1.0,1,574.0,1
1129,1129,0.042403006329243764,0.0,0.0,0.0,429.0,596.0,0.0,1,545.0,1
1130,1130,0.1046875853255097,0.1,0.0,0.0,289.0,630.0,0.0,1,1541.0,1
1131,1131,-0.8190466570065817,-0.8,1.0,0.0,404.0,636.0,0.0,0,160.0,1
1132,1132,0.32460459582204126,0.3,1.0,1.0,331.0,507.0,1.0,1,872.0,1
1133,1133,-0.046690570054320646,-0.0,1.0,0.0,497.0,738.0,0.0,0,275.0,1
1134,1134,-0.2858952240908481,-0.3,0.0,1.0,370.0,937.0,1.0,0,823.0,1
1135,1135,0.06416456248055202,0.1,1.0,1.0,461.0,614.0,0.0,0,1565.0,0
1136,1136,-0.34733783130871354,-0.3,1.0,0.0,262.0,623.0,0.0,0,115.0,1
1137,1137,-0.47606839455431255,-0.5,0.0,1.0,403.0,756.0,1.0,0,401.0,1
1138,1138,0.08578015562321917,0.1,0.0,0.0,274.0,610.0,0.0,1,2116.0,1
1139,1139,-0.8374181798592744,-0.8,0.0,1.0,255.0,626.0,1.0,0,169.0,1
1140,1140,-0.5838898836414345,-0.6,1.0,0.0,330.0,936.0,0.0,0,114.0,1
1141,1141,-0.48510097191172086,-0.5,1.0,0.0,458.0,586.0,0.0,0,286.0,1
1142,1142,0.39703326279476336,0.4,1.0,1.0,453.0,850.0,1.0,1,457.0,1
1143,1143,0.6734525773598409,0.7,0.0,0.0,309.0,505.0,0.0,1,136.0,1
1144,1144,-0.7098515986233452,-0.7,1.0,0.0,386.0,835.0,0.0,0,199.0,1
1145,1145,-0.6278736573606123,-0.6,0.0,1.0,253.0,599.0,1.0,0,298.0,1
1146,1146,0.3147657837753889,0.3,1.0,1.0,351.0,673.0,1.0,1,316.0,1
1147,1147,-0.7070456529624043,-0.7,1.0,0.0,268.0,965.0,0.0,0,117.0,1
1148,1148,0.33086447367588023,0.3,1.0,1.0,497.0,519.0,1.0,1,304.0,1
1149,1149,0.45010730293147916,0.5,0.0,0.0,261.0,775.0,0.0,1,284.0,1
1150,1150,0.026617173805037475,0.0,0.0,0.0,393.0,538.0,0.0,1,479.0,1
1151,1151,-0.11270021638186056,-0.1,1.0,0.0,396.0,987.0,0.0,0,427.0,1
1152,1152,-0.2791756630911759,-0.3,0.0,1.0,269.0,856.0,0.0,1,-245.0,0
1153,1153,-0.3705623801750264,-0.4,1.0,0.0,286.0,873.0,0.0,0,-79.0,1
1154,1154,-0.46467773867955414,-0.5,1.0,0.0,449.0,923.0,0.0,0,128.0,1
1155,1155,0.7139814238834007,0.7,1.0,1.0,327.0,705.0,1.0,1,298.0,1
1156,1156,0.09946828437284838,0.1,1.0,1.0,301.0,502.0,1.0,1,2197.0,1
1157,1157,-0.8822670313410209,-0.9,1.0,0.0,426.0,795.0,0.0,0,99.0,1
1158,1158,-0.7437573218852914,-0.7,0.0,1.0,265.0,671.0,1.0,0,404.0,1
1159,1159,-0.7823902287971986,-0.8,0.0,1.0,462.0,836.0,1.0,0,152.0,1
1160,1160,0.34846787374374866,0.3,0.0,0.0,479.0,917.0,0.0,1,504.0,1
1161,1161,-0.08390531948227298,-0.1,0.0,1.0,419.0,612.0,1.0,0,1139.0,1
1162,1162,0.02791101629019055,0.0,0.0,0.0,324.0,570.0,1.0,0,2016.0,0
1163,1163,-0.7897227968318064,-0.8,0.0,1.0,349.0,763.0,1.0,0,438.0,1
1164,1164,0.5654882794552983,0.6,1.0,1.0,386.0,621.0,1.0,1,163.0,1
1165,1165,0.7689750534755461,0.8,1.0,1.0,383.0,709.0,1.0,1,248.0,1
1166,1166,0.5681989004987452,0.6,0.0,0.0,324.0,979.0,0.0,1,177.0,1
1167,1167,0.14101711254967986,0.1,1.0,1.0,315.0,512.0,1.0,1,1163.0,1
1168,1168,-0.15423918371478984,-0.2,0.0,1.0,298.0,813.0,1.0,0,1889.0,1
1169,1169,-0.49853373782654625,-0.5,1.0,0.0,286.0,657.0,0.0,0,207.0,1
1170,1170,0.06030379422422494,0.1,1.0,1.0,297.0,817.0,0.0,0,786.0,0
1171,1171,-0.7057393834003393,-0.7,0.0,1.0,481.0,813.0,1.0,0,286.0,1
1172,1172,-0.2746467941391114,-0.3,1.0,0.0,307.0,710.0,0.0,0,313.0,1
1173,1173,0.8443973914842394,0.8,1.0,1.0,481.0,659.0,1.0,1,230.0,1
1174,1174,0.3157299413645801,0.3,0.0,0.0,301.0,654.0,0.0,1,215.0,1
1175,1175,0.16256214960653492,0.2,0.0,0.0,283.0,603.0,0.0,1,464.0,1
1176,1176,0.1757243884231695,0.2,0.0,0.0,486.0,631.0,0.0,1,1183.0,1
1177,1177,0.5374420134880599,0.5,1.0,1.0,325.0,749.0,1.0,1,296.0,1
1178,1178,0.26778419694719513,0.3,1.0,1.0,401.0,731.0,1.0,1,578.0,1
1179,1179,-0.5336620297517924,-0.5,0.0,1.0,270.0,580.0,1.0,0,470.0,1
1180,1180,0.03129669585197248,0.0,0.0,0.0,259.0,831.0,0.0,1,80.0,1
1181,1181,0.3446457818496612,0.3,0.0,0.0,388.0,756.0,0.0,1,356.0,1
1182,1182,0.22937877985446342,0.2,0.0,0.0,332.0,505.0,0.0,1,443.0,1
1183,1183,-0.5986568412738347,-0.6,0.0,1.0,483.0,592.0,1.0,0,175.0,1
1184,1184,0.7743021236972868,0.8,1.0,1.0,417.0,966.0,1.0,1,157.0,1
1185,1185,-0.779560661491975,-0.8,1.0,0.0,300.0,535.0,0.0,0,175.0,1
1186,1186,0.6489171304616149,0.6,0.0,0.0,441.0,725.0,0.0,1,194.0,1
1187,1187,-0.8981178397689572,-0.9,1.0,0.0,350.0,602.0,0.0,0,118.0,1
1188,1188,0.5660871484387088,0.6,1.0,1.0,447.0,936.0,1.0,1,337.0,1
1189,1189,-0.5218642865788312,-0.5,0.0,1.0,452.0,712.0,1.0,0,356.0,1
1190,1190,-0.4477349917758434,-0.4,1.0,0.0,499.0,685.0,0.0,0,236.0,1
1191,1191,0.7307045938533295,0.7,1.0,1.0,404.0,811.0,1.0,1,195.0,1
1192,1192,-0.6894282784906147,-0.7,1.0,0.0,254.0,720.0,0.0,0,196.0,1
1193,1193,0.00335406676417338,0.0,0.0,0.0,385.0,853.0,1.0,0,1762.0,0
1194,1194,0.1612045776927703,0.2,0.0,0.0,427.0,534.0,0.0,1,789.0,1
1195,1195,0.09150745265937554,0.1,0.0,0.0,284.0,559.0,0.0,1,627.0,1
1196,1196,0.3796569177813237,0.4,1.0,1.0,293.0,965.0,1.0,1,182.0,1
1197,1197,0.6671746611521291,0.7,0.0,0.0,437.0,702.0,0.0,1,351.0,1
1198,1198,0.5527471710648021,0.6,1.0,1.0,478.0,952.0,1.0,1,300.0,1
1199,1199,0.42581423676954755,0.4,0.0,0.0,447.0,847.0,0.0,1,186.0,1
1200,1200,-0.5849347014080422,-0.6,0.0,1.0,455.0,950.0,1.0,0,185.0,1
1201,1201,0.004979781013726536,0.0,1.0,1.0,459.0,669.0,0.0,0,762.0,0
1202,1202,0.40725148095048447,0.4,1.0,1.0,342.0,541.0,1.0,1,777.0,1
1203,1203,0.17179716951899715,0.2,0.0,0.0,481.0,662.0,0.0,1,677.0,1
1204,1204,-0.5367889908645269,-0.5,0.0,1.0,306.0,677.0,1.0,0,357.0,1
1205,1205,-0.2169247380695264,-0.2,1.0,0.0,260.0,860.0,0.0,0,170.0,1
1206,1206,0.4799643927006224,0.5,1.0,1.0,378.0,947.0,0.0,0,-175.0,0
1207,1207,0.5719914655795323,0.6,1.0,1.0,418.0,818.0,1.0,1,314.0,1
1208,1208,0.7338594224167813,0.7,0.0,0.0,266.0,723.0,0.0,1,161.0,1
1209,1209,0.32612234030154086,0.3,1.0,1.0,309.0,882.0,1.0,1,379.0,1
1210,1210,0.8614073627154891,0.9,0.0,0.0,375.0,630.0,0.0,1,85.0,1
1211,1211,-0.049985663633451693,-0.0,0.0,1.0,429.0,664.0,0.0,1,1907.0,0
1212,1212,-0.7464754749838969,-0.7,1.0,0.0,284.0,671.0,0.0,0,225.0,1
1213,1213,0.5590590282937281,0.6,0.0,0.0,308.0,594.0,0.0,1,308.0,1
1214,1214,0.17342248721721532,0.2,0.0,0.0,454.0,683.0,0.0,1,983.0,1
1215,1215,-0.0259163403763798,-0.0,1.0,0.0,356.0,753.0,0.0,0,621.0,1
1216,1216,0.06449331695750249,0.1,0.0,0.0,394.0,617.0,0.0,1,1679.0,1
1217,1217,-0.3584482407914531,-0.4,1.0,0.0,347.0,784.0,0.0,0,139.0,1
1218,1218,-0.5630952176684185,-0.6,1.0,0.0,327.0,563.0,0.0,0,90.0,1
1219,1219,-0.11252103870172592,-0.1,0.0,1.0,280.0,554.0,0.0,1,2166.0,0
1220,1220,0.7712387039897771,0.8,0.0,0.0,494.0,979.0,0.0,1,47.0,1
1221,1221,-0.007742674934578808,-0.0,1.0,0.0,461.0,589.0,0.0,0,550.0,1
1222,1222,0.7351546950326734,0.7,0.0,0.0,492.0,853.0,0.0,1,425.0,1
1223,1223,-0.8457633530630219,-0.8,0.0,1.0,489.0,621.0,1.0,0,100.0,1
1224,1224,0.40843776645963825,0.4,1.0,1.0,416.0,878.0,1.0,1,226.0,1
1225,1225,0.5298391597009121,0.5,1.0,1.0,382.0,670.0,1.0,1,248.0,1
1226,1226,0.18581887487760695,0.2,1.0,1.0,362.0,520.0,1.0,1,1478.0,1
1227,1227,0.2077861960487014,0.2,1.0,1.0,452.0,737.0,1.0,1,521.0,1
1228,1228,-0.6367484159640491,-0.6,1.0,0.0,367.0,629.0,0.0,0,424.0,1
1229,1229,0.11493243563727551,0.1,1.0,1.0,299.0,774.0,1.0,1,1927.0,1
1230,1230,-0.029884463959619856,-0.0,1.0,0.0,441.0,920.0,0.0,0,1149.0,1
1231,1231,0.229726974097198,0.2,0.0,0.0,468.0,907.0,0.0,1,305.0,1
1232,1232,0.5777238540427269,0.6,1.0,1.0,385.0,558.0,1.0,1,227.0,1
1233,1233,0.6284647981547832,0.6,0.0,0.0,263.0,922.0,0.0,1,75.0,1
1234,1234,0.1413632385397493,0.1,0.0,0.0,368.0,987.0,0.0,1,405.0,1
1235,1235,0.49848939006215753,0.5,0.0,0.0,488.0,868.0,0.0,1,104.0,1
1236,1236,0.6288789024975373,0.6,1.0,1.0,402.0,652.0,1.0,1,346.0,1
1237,1237,0.42499758109517705,0.4,1.0,1.0,255.0,863.0,1.0,1,212.0,1
1238,1238,0.45342101883503705,0.5,0.0,0.0,310.0,893.0,0.0,1,117.0,1
1239,1239,0.6988189800708008,0.7,0.0,0.0,419.0,783.0,0.0,1,228.0,1
1240,1240,-0.4390013084423144,-0.4,1.0,0.0,334.0,660.0,0.0,0,446.0,1
1241,1241,-0.6047544427165901,-0.6,1.0,0.0,498.0,603.0,0.0,0,279.0,1
1242,1242,-0.17724207905918188,-0.2,0.0,1.0,410.0,980.0,1.0,0,1610.0,1
1243,1243,0.052060591105939524,0.1,0.0,0.0,373.0,752.0,0.0,1,235.0,1
1244,1244,0.7874350530895676,0.8,1.0,1.0,262.0,757.0,1.0,1,1981.0,1
1245,1245,0.025227362026031708,0.0,1.0,1.0,480.0,864.0,0.0,0,1656.0,0
1246,1246,0.33583657377107545,0.3,1.0,1.0,355.0,885.0,1.0,1,810.0,1
1247,1247,0.5794895003064634,0.6,1.0,1.0,302.0,884.0,1.0,1,314.0,1
1248,1248,-0.891087475186317,-0.9,1.0,0.0,287.0,938.0,0.0,0,95.0,1
1249,1249,0.40199627462100984,0.4,0.0,0.0,264.0,845.0,0.0,1,141.0,1
1250,1250,-0.8995951778221528,-0.9,0.0,1.0,455.0,642.0,1.0,0,143.0,1
1251,1251,-0.3504792727743057,-0.4,1.0,0.0,430.0,890.0,0.0,0,120.0,1
1252,1252,0.20483567824759075,0.2,0.0,0.0,404.0,980.0,0.0,1,-224.0,1
1253,1253,0.2719940353166522,0.3,1.0,1.0,477.0,891.0,1.0,1,322.0,1
1254,1254,-0.1225598670633179,-0.1,0.0,1.0,442.0,814.0,0.0,1,454.0,0
1255,1255,0.2693620188986364,0.3,0.0,0.0,253.0,974.0,0.0,1,-137.0,1
1256,1256,0.4386497710498153,0.4,1.0,1.0,461.0,615.0,1.0,1,564.0,1
1257,1257,0.7108428756648498,0.7,1.0,1.0,363.0,881.0,0.0,0,-104.0,0
1258,1258,-0.04511727011102751,-0.0,1.0,0.0,382.0,608.0,0.0,0,380.0,1
1259,1259,0.07654402706835761,0.1,1.0,1.0,370.0,744.0,1.0,1,1886.0,1
1260,1260,-0.8369810232835545,-0.8,0.0,1.0,361.0,521.0,1.0,0,258.0,1
1261,1261,0.31478360773346725,0.3,1.0,1.0,467.0,830.0,1.0,1,643.0,1
1262,1262,-0.23430856285895907,-0.2,1.0,0.0,347.0,735.0,0.0,0,478.0,1
1263,1263,0.14258781072966575,0.1,0.0,0.0,413.0,968.0,0.0,1,779.0,1
1264,1264,-0.6836505034813993,-0.7,0.0,1.0,424.0,830.0,1.0,0,196.0,1
1265,1265,-0.7933518340944806,-0.8,0.0,1.0,368.0,954.0,1.0,0,248.0,1
1266,1266,0.046452134449906146,0.0,0.0,0.0,277.0,789.0,0.0,1,1934.0,1
1267,1267,-0.3369922280139953,-0.3,1.0,0.0,460.0,567.0,0.0,0,203.0,1
1268,1268,0.10884984064328973,0.1,1.0,1.0,475.0,915.0,1.0,1,1430.0,1
1269,1269,-0.25821228204348956,-0.3,0.0,1.0,464.0,985.0,1.0,0,851.0,1
1270,1270,0.3524279561168012,0.4,0.0,0.0,278.0,791.0,0.0,1,211.0,1
1271,1271,0.7836916008476659,0.8,1.0,1.0,455.0,521.0,1.0,1,284.0,1
1272,1272,-0.5306091228230708,-0.5,0.0,1.0,314.0,659.0,1.0,0,327.0,1
1273,1273,-0.6455788817173534,-0.6,1.0,0.0,462.0,705.0,0.0,0,113.0,1
1274,1274,0.06162155668671432,0.1,1.0,1.0,315.0,604.0,1.0,1,2081.0,1
1275,1275,0.4413542694866831,0.4,1.0,1.0,275.0,584.0,1.0,1,1121.0,1
1276,1276,-0.18253802651234274,-0.2,0.0,1.0,272.0,798.0,1.0,0,830.0,1
1277,1277,0.48081055435601117,0.5,1.0,1.0,404.0,910.0,1.0,1,426.0,1
1278,1278,-0.5176792336714613,-0.5,1.0,0.0,370.0,579.0,0.0,0,401.0,1
1279,1279,-0.15453838520237617,-0.2,0.0,1.0,359.0,808.0,0.0,1,-17.0,0
1280,1280,0.5359852355819118,0.5,0.0,0.0,320.0,921.0,0.0,1,149.0,1
1281,1281,0.105687224770595,0.1,0.0,0.0,454.0,626.0,0.0,1,450.0,1
1282,1282,-0.39483699208036194,-0.4,0.0,1.0,338.0,545.0,1.0,0,897.0,1
1283,1283,0.09716389044636453,0.1,0.0,0.0,485.0,565.0,0.0,1,370.0,1
1284,1284,-0.05269359829539633,-0.1,1.0,0.0,475.0,504.0,0.0,0,61.0,1
1285,1285,-0.670648079086992,-0.7,1.0,0.0,330.0,532.0,0.0,0,168.0,1
1286,1286,-0.32591565837501435,-0.3,1.0,0.0,265.0,883.0,0.0,0,202.0,1
1287,1287,-0.47481667201028455,-0.5,1.0,0.0,393.0,732.0,0.0,0,105.0,1
1288,1288,0.591081904675853,0.6,0.0,0.0,421.0,906.0,0.0,1,193.0,1
1289,1289,-0.4819821755809227,-0.5,1.0,0.0,337.0,844.0,0.0,0,199.0,1
1290,1290,0.7668278701003369,0.8,1.0,1.0,431.0,727.0,1.0,1,222.0,1
1291,1291,-0.6348482007556033,-0.6,0.0,1.0,298.0,693.0,1.0,0,329.0,1
1292,1292,-0.24882422773026225,-0.2,0.0,1.0,482.0,610.0,1.0,0,588.0,1
1293,1293,0.47922049126937594,0.5,0.0,0.0,488.0,905.0,0.0,1,557.0,1
1294,1294,0.7863145116779432,0.8,0.0,0.0,283.0,504.0,0.0,1,453.0,1
1295,1295,0.774376884779156,0.8,0.0,0.0,338.0,789.0,0.0,1,143.0,1
1296,1296,0.3249928742102405,0.3,0.0,0.0,298.0,509.0,0.0,1,393.0,1
1297,1297,0.0355719294797906,0.0,0.0,0.0,368.0,937.0,0.0,1,1695.0,1
1298,1298,-0.25756855994748595,-0.3,1.0,0.0,384.0,640.0,0.0,0,336.0,1
1299,1299,0.8838734140738908,0.9,1.0,1.0,367.0,985.0,1.0,1,368.0,1
1300,1300,0.2368908193805862,0.2,0.0,0.0,414.0,522.0,0.0,1,694.0,1
1301,1301,-0.7343232430537301,-0.7,0.0,1.0,304.0,679.0,1.0,0,437.0,1
1302,1302,-0.686018357123515,-0.7,0.0,1.0,367.0,515.0,1.0,0,538.0,1
1303,1303,-0.7645899866831336,-0.8,0.0,1.0,496.0,646.0,1.0,0,178.0,1
1304,1304,0.042729693155954984,0.0,0.0,0.0,346.0,910.0,0.0,1,894.0,1
1305,1305,-0.8477505599035842,-0.8,1.0,0.0,443.0,929.0,0.0,0,158.0,1
1306,1306,0.5285771922862382,0.5,0.0,0.0,280.0,651.0,0.0,1,179.0,1
1307,1307,-0.11198931429450831,-0.1,1.0,0.0,496.0,597.0,0.0,0,57.0,1
1308,1308,0.4904051455040134,0.5,1.0,1.0,339.0,525.0,1.0,1,396.0,1
1309,1309,-0.8258280655148061,-0.8,0.0,1.0,337.0,543.0,1.0,0,220.0,1
1310,1310,-0.1322272613711113,-0.1,1.0,0.0,289.0,644.0,0.0,0,257.0,1
1311,1311,0.1385243339357315,0.1,0.0,0.0,327.0,913.0,0.0,1,250.0,1
1312,1312,0.0698481155570938,0.1,0.0,0.0,402.0,528.0,0.0,1,360.0,1
1313,1313,0.7411662465412078,0.7,1.0,1.0,460.0,749.0,1.0,1,211.0,1
1314,1314,0.2813921755415464,0.3,0.0,0.0,488.0,537.0,0.0,1,375.0,1
1315,1315,0.06389397480769565,0.1,0.0,0.0,487.0,843.0,0.0,1,660.0,1
1316,1316,-0.7416583397081309,-0.7,0.0,1.0,431.0,897.0,1.0,0,212.0,1
1317,1317,-0.052119801266677146,-0.1,0.0,1.0,483.0,626.0,0.0,1,1441.0,0
1318,1318,0.10066254087260218,0.1,0.0,0.0,476.0,728.0,0.0,1,1056.0,1
1319,1319,-0.7242698481213934,-0.7,1.0,0.0,320.0,871.0,0.0,0,99.0,1
1320,1320,0.09094306038362354,0.1,1.0,1.0,294.0,949.0,0.0,0,-213.0,0
1321,1321,0.8096719947314849,0.8,0.0,0.0,402.0,810.0,0.0,1,-62.0,1
1322,1322,-0.8652827826433406,-0.9,1.0,0.0,289.0,968.0,0.0,0,163.0,1
1323,1323,-0.21929305372768004,-0.2,0.0,1.0,496.0,783.0,1.0,0,1371.0,1
1324,1324,0.7923526556874215,0.8,1.0,1.0,483.0,904.0,1.0,1,133.0,1
1325,1325,0.5586726302243884,0.6,0.0,0.0,305.0,982.0,0.0,1,83.0,1
1326,1326,-0.4645714659958145,-0.5,1.0,0.0,418.0,544.0,0.0,0,218.0,1
1327,1327,0.10953661610707022,0.1,0.0,0.0,310.0,608.0,0.0,1,1572.0,1
1328,1328,-0.14079216676269035,-0.1,1.0,0.0,462.0,733.0,0.0,0,25.0,1
1329,1329,-0.19890601721317758,-0.2,1.0,0.0,417.0,632.0,0.0,0,491.0,1
1330,1330,0.471093859044445,0.5,0.0,0.0,305.0,705.0,0.0,1,170.0,1
1331,1331,-0.2208831951122635,-0.2,0.0,1.0,396.0,790.0,1.0,0,514.0,1
1332,1332,-0.8059796154359105,-0.8,0.0,1.0,484.0,851.0,1.0,0,165.0,1
1333,1333,-0.11330691857629971,-0.1,0.0,1.0,346.0,554.0,1.0,0,1730.0,1
1334,1334,-0.13197705250519165,-0.1,0.0,1.0,460.0,890.0,1.0,0,1650.0,1
1335,1335,-0.661429711869651,-0.7,0.0,1.0,451.0,797.0,1.0,0,252.0,1
1336,1336,0.06277582695943995,0.1,0.0,0.0,404.0,904.0,0.0,1,1692.0,1
1337,1337,-0.601729634297449,-0.6,1.0,0.0,279.0,792.0,0.0,0,159.0,1
1338,1338,-0.18032052000436438,-0.2,0.0,1.0,447.0,941.0,1.0,0,372.0,1
1339,1339,0.5558738042187544,0.6,0.0,0.0,381.0,529.0,0.0,1,90.0,1
1340,1340,-0.7215749507169406,-0.7,0.0,1.0,412.0,851.0,1.0,0,107.0,1
1341,1341,0.3608582024624293,0.4,1.0,1.0,416.0,621.0,1.0,1,1013.0,1
1342,1342,0.739811240259355,0.7,1.0,1.0,410.0,710.0,1.0,1,130.0,1
1343,1343,-0.47146273855679327,-0.5,0.0,1.0,397.0,504.0,1.0,0,309.0,1
1344,1344,0.4825812779631614,0.5,1.0,1.0,435.0,903.0,1.0,1,312.0,1
1345,1345,0.29693789543223026,0.3,1.0,1.0,394.0,608.0,1.0,1,218.0,1
1346,1346,-0.6429383390555448,-0.6,0.0,1.0,382.0,511.0,1.0,0,697.0,1
1347,1347,0.8542947529884909,0.9,0.0,0.0,271.0,574.0,0.0,1,265.0,1
1348,1348,0.059263066616596194,0.1,1.0,1.0,375.0,663.0,0.0,0,1962.0,0
1349,1349,-0.6070109898015658,-0.6,1.0,0.0,421.0,903.0,0.0,0,186.0,1
1350,1350,0.8170197814867602,0.8,1.0,1.0,368.0,589.0,1.0,1,393.0,1
1351,1351,0.7483666457954136,0.7,1.0,1.0,275.0,795.0,1.0,1,320.0,1
1352,1352,0.16816437723187183,0.2,0.0,0.0,423.0,950.0,0.0,1,627.0,1
1353,1353,-0.07475365267266987,-0.1,1.0,0.0,484.0,660.0,0.0,0,596.0,1
1354,1354,0.798193782706938,0.8,1.0,1.0,296.0,767.0,1.0,1,247.0,1
1355,1355,-0.4170162626848478,-0.4,1.0,0.0,319.0,625.0,0.0,0,276.0,1
1356,1356,-0.16704118577418603,-0.2,0.0,1.0,274.0,522.0,1.0,0,2204.0,1
1357,1357,0.582934729283986,0.6,0.0,0.0,325.0,897.0,0.0,1,208.0,1
1358,1358,-0.8730900423402909,-0.9,0.0,1.0,385.0,509.0,1.0,0,206.0,1
1359,1359,0.8399867774613378,0.8,1.0,1.0,325.0,873.0,1.0,1,152.0,1
1360,1360,-0.15491881308718092,-0.2,1.0,0.0,396.0,700.0,0.0,0,464.0,1
1361,1361,-0.13356289471283134,-0.1,0.0,1.0,265.0,961.0,1.0,0,1034.0,1
1362,1362,0.38785793572580773,0.4,0.0,0.0,390.0,897.0,0.0,1,433.0,1
1363,1363,-0.6311063797545153,-0.6,1.0,0.0,407.0,666.0,0.0,0,277.0,1
1364,1364,0.40310420485226406,0.4,1.0,1.0,326.0,990.0,1.0,1,324.0,1
1365,1365,-0.7574304674235255,-0.8,1.0,0.0,256.0,853.0,0.0,0,61.0,1
1366,1366,-0.8272866823761191,-0.8,1.0,0.0,418.0,969.0,0.0,0,43.0,1
1367,1367,0.3952022021388185,0.4,1.0,1.0,256.0,621.0,1.0,1,533.0,1
1368,1368,-0.662860204935896,-0.7,1.0,0.0,324.0,619.0,0.0,0,167.0,1
1369,1369,0.7297880325447413,0.7,1.0,1.0,308.0,654.0,1.0,1,368.0,1
1370,1370,0.681715687057327,0.7,0.0,0.0,365.0,670.0,0.0,1,225.0,1
1371,1371,0.715068166720712,0.7,0.0,0.0,458.0,928.0,0.0,1,194.0,1
1372,1372,-0.30219832476468345,-0.3,1.0,0.0,307.0,743.0,0.0,0,300.0,1
1373,1373,-0.1013662374640164,-0.1,0.0,1.0,458.0,968.0,0.0,1,4.0,0
1374,1374,0.6512622196480334,0.7,0.0,0.0,433.0,565.0,0.0,1,102.0,1
1375,1375,0.41481305823334924,0.4,0.0,0.0,287.0,665.0,0.0,1,328.0,1
1376,1376,-0.12840661600833359,-0.1,0.0,1.0,374.0,888.0,1.0,0,1738.0,1
1377,1377,-0.06624403991966654,-0.1,0.0,1.0,445.0,816.0,0.0,1,1739.0,0
1378,1378,-0.13336361281532028,-0.1,0.0,1.0,333.0,533.0,1.0,0,234.0,1
1379,1379,0.8057567007642544,0.8,0.0,0.0,477.0,748.0,0.0,1,155.0,1
1380,1380,-0.43597130138404117,-0.4,1.0,0.0,416.0,550.0,0.0,0,264.0,1
1381,1381,0.06496899744169304,0.1,0.0,0.0,346.0,935.0,0.0,1,639.0,1
1382,1382,-0.5395421348327816,-0.5,1.0,0.0,486.0,832.0,0.0,0,232.0,1
1383,1383,-0.8508326475292113,-0.9,1.0,0.0,429.0,508.0,0.0,0,153.0,1
1384,1384,0.7314168805983502,0.7,0.0,0.0,324.0,967.0,0.0,1,189.0,1
1385,1385,0.8796146637294703,0.9,1.0,1.0,479.0,982.0,0.0,0,-541.0,0
1386,1386,-0.06577243164909086,-0.1,0.0,1.0,355.0,903.0,1.0,0,1742.0,1
1387,1387,0.312782095364155,0.3,1.0,1.0,442.0,648.0,1.0,1,540.0,1
1388,1388,-0.037865650843554866,-0.0,0.0,1.0,261.0,894.0,1.0,0,1845.0,1
1389,1389,0.46149769018256437,0.5,0.0,0.0,254.0,730.0,0.0,1,246.0,1
1390,1390,0.014245731297367281,0.0,1.0,1.0,297.0,760.0,0.0,0,293.0,0
1391,1391,-0.6092742895327746,-0.6,1.0,0.0,370.0,755.0,0.0,0,275.0,1
1392,1392,-0.4944955570421174,-0.5,1.0,0.0,353.0,644.0,0.0,0,-27.0,1
1393,1393,0.7418681594867399,0.7,0.0,0.0,277.0,947.0,0.0,1,106.0,1
1394,1394,0.12543516458890303,0.1,0.0,0.0,497.0,873.0,0.0,1,20.0,1
1395,1395,-0.30722467851634905,-0.3,0.0,1.0,272.0,716.0,1.0,0,782.0,1
1396,1396,-0.2529385157127655,-0.3,1.0,0.0,368.0,790.0,0.0,0,162.0,1
1397,1397,0.20658105339473176,0.2,1.0,1.0,305.0,948.0,1.0,1,697.0,1
1398,1398,-0.5823454510111006,-0.6,1.0,0.0,354.0,727.0,0.0,0,349.0,1
1399,1399,-0.1303903271709197,-0.1,0.0,1.0,310.0,584.0,1.0,0,1396.0,1
1400,1400,-0.5898091110118919,-0.6,0.0,1.0,350.0,662.0,1.0,0,208.0,1
1401,1401,-0.2337347087446071,-0.2,0.0,1.0,435.0,610.0,1.0,0,385.0,1
1402,1402,-0.5481783912701392,-0.5,0.0,1.0,484.0,762.0,1.0,0,244.0,1
1403,1403,-0.0007627362909216062,-0.0,1.0,0.0,304.0,506.0,0.0,0,1020.0,1
1404,1404,0.4550094464397637,0.5,1.0,1.0,470.0,946.0,1.0,1,324.0,1
1405,1405,-0.2685015394278054,-0.3,1.0,0.0,482.0,721.0,0.0,0,247.0,1
1406,1406,-0.6218974836980262,-0.6,0.0,1.0,345.0,951.0,1.0,0,244.0,1
1407,1407,-0.7909446669782024,-0.8,1.0,0.0,261.0,728.0,0.0,0,91.0,1
1408,1408,0.764001023017889,0.8,1.0,1.0,357.0,565.0,1.0,1,268.0,1
1409,1409,0.8695993697173862,0.9,0.0,0.0,313.0,926.0,0.0,1,141.0,1
1410,1410,0.5987982778322444,0.6,0.0,0.0,261.0,812.0,0.0,1,227.0,1
1411,1411,-0.4093065193386085,-0.4,0.0,1.0,313.0,924.0,1.0,0,603.0,1
1412,1412,0.1677039261933878,0.2,0.0,0.0,387.0,689.0,0.0,1,884.0,1
1413,1413,-0.14922570568486415,-0.1,1.0,0.0,276.0,737.0,0.0,0,77.0,1
1414,1414,-0.6062002876918344,-0.6,0.0,1.0,486.0,789.0,1.0,0,305.0,1
1415,1415,-0.45634127556756576,-0.5,1.0,0.0,252.0,597.0,0.0,0,111.0,1
1416,1416,0.3921259233414979,0.4,0.0,0.0,476.0,923.0,0.0,1,51.0,1
1417,1417,-0.583332973926604,-0.6,1.0,0.0,411.0,836.0,0.0,0,123.0,1
1418,1418,-0.1640408751987006,-0.2,1.0,0.0,482.0,960.0,0.0,0,918.0,1
1419,1419,0.5430685477225831,0.5,1.0,1.0,490.0,953.0,1.0,1,227.0,1
1420,1420,-0.173830881875207,-0.2,0.0,1.0,432.0,692.0,1.0,0,1876.0,1
1421,1421,0.47111324392076803,0.5,1.0,1.0,269.0,643.0,1.0,1,288.0,1
1422,1422,0.6083450252120043,0.6,0.0,0.0,266.0,542.0,0.0,1,152.0,1
1423,1423,-0.6019027117793567,-0.6,1.0,0.0,480.0,959.0,0.0,0,71.0,1
1424,1424,0.2574485136003505,0.3,0.0,0.0,417.0,567.0,0.0,1,256.0,1
1425,1425,-0.32585078589462635,-0.3,1.0,0.0,381.0,865.0,0.0,0,254.0,1
1426,1426,-0.8697306398441876,-0.9,0.0,1.0,481.0,606.0,1.0,0,343.0,1
1427,1427,-0.5186519700447608,-0.5,0.0,1.0,329.0,673.0,1.0,0,238.0,1
1428,1428,0.4402157898667608,0.4,1.0,1.0,271.0,731.0,1.0,1,258.0,1
1429,1429,-0.012193947527556315,-0.0,1.0,0.0,488.0,546.0,0.0,0,746.0,1
1430,1430,-0.3638580895060214,-0.4,1.0,0.0,442.0,539.0,0.0,0,359.0,1
1431,1431,-0.12650418249178585,-0.1,0.0,1.0,295.0,688.0,1.0,0,1977.0,1
1432,1432,-0.16912207988897743,-0.2,0.0,1.0,385.0,633.0,1.0,0,542.0,1
1433,1433,-0.3054546226779571,-0.3,1.0,0.0,398.0,533.0,0.0,0,99.0,1
1434,1434,0.5294300194157603,0.5,1.0,1.0,476.0,848.0,1.0,1,166.0,1
1435,1435,0.5780744335448257,0.6,1.0,1.0,498.0,590.0,1.0,1,212.0,1
1436,1436,-0.4389384932604324,-0.4,0.0,1.0,335.0,623.0,1.0,0,422.0,1
1437,1437,-0.0023396828571968786,-0.0,1.0,0.0,360.0,680.0,0.0,0,1960.0,1
1438,1438,0.730327748817022,0.7,0.0,0.0,324.0,865.0,0.0,1,31.0,1
1439,1439,0.5440909260157624,0.5,1.0,1.0,326.0,954.0,1.0,1,610.0,1
1440,1440,-0.3095933487672965,-0.3,0.0,1.0,497.0,539.0,1.0,0,694.0,1
1441,1441,0.26428153045751557,0.3,0.0,0.0,399.0,801.0,0.0,1,430.0,1
1442,1442,-0.26904140810598776,-0.3,1.0,0.0,445.0,570.0,0.0,0,525.0,1
1443,1443,0.550433773586806,0.6,0.0,0.0,397.0,901.0,0.0,1,62.0,1
1444,1444,-0.6767165079394661,-0.7,1.0,0.0,295.0,808.0,0.0,0,187.0,1
1445,1445,-0.45670191853032455,-0.5,1.0,0.0,424.0,562.0,0.0,0,474.0,1
1446,1446,0.8741426878001751,0.9,0.0,0.0,305.0,538.0,0.0,1,197.0,1
1447,1447,0.6149801031415761,0.6,1.0,1.0,348.0,508.0,1.0,1,204.0,1
1448,1448,-0.03566236255262989,-0.0,1.0,0.0,332.0,703.0,0.0,0,1965.0,1
1449,1449,0.7364877789968077,0.7,1.0,1.0,304.0,712.0,1.0,1,264.0,1
1450,1450,-0.38304584525422447,-0.4,1.0,0.0,488.0,716.0,0.0,0,486.0,1
1451,1451,0.30363488131814276,0.3,1.0,1.0,393.0,508.0,1.0,1,459.0,1
1452,1452,-0.8186761406743076,-0.8,0.0,1.0,389.0,812.0,1.0,0,199.0,1
1453,1453,0.5808376833374275,0.6,1.0,1.0,293.0,618.0,1.0,1,199.0,1
1454,1454,-0.5280811671525547,-0.5,0.0,1.0,352.0,818.0,1.0,0,260.0,1
1455,1455,-0.23502698210403006,-0.2,1.0,0.0,426.0,625.0,0.0,0,259.0,1
1456,1456,-0.8725958874389727,-0.9,0.0,1.0,253.0,866.0,1.0,0,151.0,1
1457,1457,-0.5635486883068543,-0.6,1.0,0.0,411.0,988.0,0.0,0,171.0,1
1458,1458,0.5573534056139758,0.6,0.0,0.0,374.0,627.0,0.0,1,159.0,1
1459,1459,0.07487758832338376,0.1,0.0,0.0,329.0,691.0,0.0,1,130.0,1
1460,1460,-0.7273188168890996,-0.7,1.0,0.0,451.0,704.0,0.0,0,255.0,1
1461,1461,0.6791339782419227,0.7,1.0,1.0,431.0,989.0,1.0,1,90.0,1
1462,1462,0.784004811847134,0.8,0.0,0.0,386.0,974.0,0.0,1,120.0,1
1463,1463,-0.31790110570281305,-0.3,0.0,1.0,442.0,844.0,1.0,0,304.0,1
1464,1464,0.8498565299010891,0.8,0.0,0.0,386.0,581.0,0.0,1,153.0,1
1465,1465,0.4085732681067963,0.4,0.0,0.0,368.0,748.0,0.0,1,34.0,1
1466,1466,-0.15378845851356104,-0.2,1.0,0.0,303.0,688.0,0.0,0,749.0,1
1467,1467,-0.2522231209196881,-0.3,0.0,1.0,484.0,513.0,1.0,0,1073.0,1
1468,1468,-0.44316944658605933,-0.4,0.0,1.0,489.0,796.0,1.0,0,175.0,1
1469,1469,0.23299604945783658,0.2,0.0,0.0,451.0,741.0,0.0,1,668.0,1
1470,1470,-0.6394529360049489,-0.6,0.0,1.0,490.0,564.0,1.0,0,286.0,1
1471,1471,-0.47146391264012183,-0.5,0.0,1.0,468.0,544.0,1.0,0,378.0,1
1472,1472,0.8370125991957494,0.8,1.0,1.0,495.0,768.0,1.0,1,237.0,1
1473,1473,-0.49640333389767816,-0.5,1.0,0.0,345.0,816.0,0.0,0,-41.0,1
1474,1474,0.7467118238032652,0.7,1.0,1.0,451.0,873.0,1.0,1,236.0,1
1475,1475,-0.8720495896814299,-0.9,1.0,0.0,404.0,782.0,0.0,0,184.0,1
1476,1476,0.1751096183786035,0.2,1.0,1.0,417.0,673.0,1.0,1,1910.0,1
1477,1477,0.6601461158506085,0.7,1.0,1.0,374.0,772.0,1.0,1,534.0,1
1478,1478,-0.2639324870658405,-0.3,0.0,1.0,467.0,915.0,1.0,0,728.0,1
1479,1479,0.1760108687114167,0.2,1.0,1.0,444.0,888.0,1.0,1,688.0,1
1480,1480,-0.81488009944054,-0.8,0.0,1.0,287.0,608.0,1.0,0,245.0,1
1481,1481,0.589746329823745,0.6,1.0,1.0,439.0,894.0,1.0,1,347.0,1
1482,1482,0.26371878895017964,0.3,0.0,0.0,374.0,775.0,0.0,1,331.0,1
1483,1483,0.791584907011612,0.8,1.0,1.0,354.0,737.0,1.0,1,549.0,1
1484,1484,0.07735313757139606,0.1,0.0,0.0,396.0,502.0,0.0,1,1292.0,1
1485,1485,-0.38510109828580297,-0.4,1.0,0.0,458.0,795.0,0.0,0,327.0,1
1486,1486,-0.7205436071682101,-0.7,1.0,0.0,276.0,888.0,0.0,0,126.0,1
1487,1487,0.07670677122980774,0.1,1.0,1.0,322.0,680.0,1.0,1,1998.0,1
1488,1488,0.40562340231965355,0.4,0.0,0.0,417.0,943.0,0.0,1,120.0,1
1489,1489,-0.595649539955085,-0.6,0.0,1.0,350.0,762.0,1.0,0,308.0,1
1490,1490,0.2607222574383098,0.3,0.0,0.0,355.0,662.0,0.0,1,543.0,1
1491,1491,0.07666382420498674,0.1,0.0,0.0,332.0,770.0,0.0,1,298.0,1
