,trial,coherence,coherence_bin,green_side,correct_side,target_onset,checker_onset,decision,green_decision,decision_time,correct_decision
0,0,0.044601446267691025,0.0,0.0,0.0,407.0,534.0,0.0,1,-811.0,1
1,1,-0.8829346608150328,-0.9,0.0,1.0,342.0,898.0,0.0,1,1760.0,0
2,2,0.7984796241114626,0.8,1.0,1.0,479.0,879.0,0.0,0,1642.0,0
3,3,-0.3391892932613618,-0.3,1.0,0.0,347.0,994.0,0.0,0,1659.0,1
4,4,-0.854682844616218,-0.9,0.0,1.0,284.0,585.0,0.0,1,2131.0,0
5,5,-0.8699806222338751,-0.9,0.0,1.0,348.0,540.0,0.0,1,2112.0,0
6,6,0.06255827494097177,0.1,0.0,0.0,453.0,934.0,0.0,1,1613.0,1
7,7,0.41872290980803173,0.4,0.0,0.0,479.0,964.0,0.0,1,1557.0,1
8,8,-0.6270927486893485,-0.6,0.0,1.0,353.0,926.0,0.0,1,1721.0,0
9,9,0.3336670922889181,0.3,0.0,0.0,322.0,572.0,0.0,1,2106.0,1
10,10,0.5331936961752731,0.5,0.0,0.0,347.0,953.0,0.0,1,1700.0,1
11,11,0.881688900464647,0.9,1.0,1.0,487.0,661.0,0.0,0,1852.0,0
12,12,-0.4813205003130773,-0.5,1.0,0.0,489.0,872.0,0.0,0,1639.0,1
13,13,-0.823481761214598,-0.8,1.0,0.0,258.0,926.0,0.0,0,1816.0,1
14,14,0.0486459264305068,0.0,1.0,1.0,301.0,951.0,0.0,0,1748.0,0
15,15,0.11504063357147587,0.1,0.0,0.0,332.0,757.0,0.0,1,1911.0,1
16,16,-0.17005835958637927,-0.2,0.0,1.0,375.0,598.0,0.0,1,2027.0,0
17,17,0.5176980060532009,0.5,1.0,1.0,470.0,868.0,1.0,1,-538.0,1
18,18,-0.00731755305904791,-0.0,1.0,0.0,485.0,848.0,0.0,0,1667.0,1
19,19,0.3795745299721923,0.4,0.0,0.0,384.0,926.0,0.0,1,1690.0,1
20,20,0.7560399120345244,0.8,1.0,1.0,405.0,724.0,0.0,0,1871.0,0
21,21,-0.8111515524382754,-0.8,0.0,1.0,331.0,536.0,0.0,1,2133.0,0
22,22,-0.10354251535464443,-0.1,1.0,0.0,454.0,574.0,0.0,0,1972.0,1
23,23,-0.754784167637184,-0.8,0.0,1.0,305.0,684.0,0.0,1,2011.0,0
24,24,0.7487839275382532,0.7,0.0,0.0,457.0,879.0,0.0,1,1664.0,1
25,25,-0.8793770751580822,-0.9,1.0,0.0,391.0,657.0,0.0,0,1952.0,1
26,26,-0.256177619427849,-0.3,1.0,0.0,464.0,777.0,0.0,0,1759.0,1
27,27,-0.32520834274209953,-0.3,0.0,1.0,424.0,584.0,0.0,1,1992.0,0
28,28,-0.7151599557240992,-0.7,0.0,1.0,459.0,608.0,0.0,1,1933.0,0
29,29,0.7818539849308007,0.8,0.0,0.0,458.0,881.0,1.0,0,-1239.0,0
30,30,0.2435058195965848,0.2,0.0,0.0,259.0,628.0,1.0,0,-817.0,0
31,31,-0.12611311054930918,-0.1,1.0,0.0,301.0,603.0,1.0,1,-694.0,0
32,32,-0.5933624709693025,-0.6,0.0,1.0,465.0,799.0,0.0,1,1736.0,0
33,33,0.17920396206470002,0.2,0.0,0.0,252.0,653.0,0.0,1,2095.0,1
34,34,0.3329142402397537,0.3,0.0,0.0,377.0,632.0,0.0,1,1991.0,1
35,35,0.5293092302581338,0.5,0.0,0.0,456.0,843.0,0.0,1,1701.0,1
36,36,0.32409969772382163,0.3,0.0,0.0,353.0,803.0,0.0,1,1844.0,1
37,37,0.6969409396117513,0.7,1.0,1.0,457.0,876.0,0.0,0,1667.0,0
38,38,-0.841989991053463,-0.8,0.0,1.0,443.0,585.0,0.0,1,1972.0,0
39,39,0.4194916933622742,0.4,0.0,0.0,273.0,756.0,0.0,1,1971.0,1
40,40,-0.1625613467795951,-0.2,1.0,0.0,339.0,601.0,0.0,0,2060.0,1
41,41,0.889770532356669,0.9,0.0,0.0,293.0,794.0,0.0,1,1913.0,1
42,42,0.6841937344849739,0.7,1.0,1.0,282.0,607.0,0.0,0,2111.0,0
43,43,0.42031306667404655,0.4,0.0,0.0,350.0,904.0,0.0,1,1746.0,1
44,44,0.7922717651701797,0.8,0.0,0.0,388.0,554.0,0.0,1,2058.0,1
45,45,0.7301447919223859,0.7,0.0,0.0,386.0,987.0,0.0,1,1627.0,1
46,46,-0.895903806181871,-0.9,0.0,1.0,388.0,549.0,0.0,1,2063.0,0
47,47,-0.07459694105262693,-0.1,1.0,0.0,321.0,811.0,0.0,0,1868.0,1
48,48,-0.7935492213154023,-0.8,0.0,1.0,316.0,978.0,1.0,0,-1194.0,1
49,49,0.3572179818421094,0.4,1.0,1.0,313.0,934.0,1.0,1,-967.0,1
50,50,0.20073071546735577,0.2,0.0,0.0,429.0,831.0,0.0,1,1740.0,1
51,51,0.7011110019504408,0.7,1.0,1.0,443.0,894.0,0.0,0,1663.0,0
52,52,-0.5434633357957781,-0.5,1.0,0.0,362.0,504.0,1.0,1,-646.0,0
53,53,-0.2215148669989736,-0.2,0.0,1.0,302.0,922.0,0.0,1,1776.0,0
54,54,-0.46925519713916786,-0.5,1.0,0.0,316.0,773.0,1.0,1,-739.0,0
55,55,0.47131884537918045,0.5,0.0,0.0,264.0,695.0,0.0,1,2041.0,1
56,56,-0.32558365714053783,-0.3,1.0,0.0,312.0,913.0,0.0,0,1775.0,1
57,57,-0.8600039305863671,-0.9,0.0,1.0,345.0,774.0,0.0,1,1881.0,0
58,58,0.08485769753150896,0.1,1.0,1.0,439.0,640.0,0.0,0,1921.0,0
59,59,0.36621341599552093,0.4,0.0,0.0,311.0,978.0,1.0,0,-1069.0,0
60,60,-0.30207748245638955,-0.3,1.0,0.0,495.0,778.0,0.0,0,1727.0,1
61,61,0.07039413434646091,0.1,0.0,0.0,288.0,736.0,0.0,1,1976.0,1
62,62,0.7148891565121415,0.7,0.0,0.0,419.0,844.0,0.0,1,1737.0,1
63,63,-0.7314350866698104,-0.7,1.0,0.0,331.0,854.0,0.0,0,1815.0,1
64,64,-0.07186364930009326,-0.1,1.0,0.0,322.0,983.0,0.0,0,1695.0,1
65,65,0.4202256694935088,0.4,0.0,0.0,465.0,740.0,0.0,1,1795.0,1
66,66,-0.06367974217659533,-0.1,0.0,1.0,269.0,621.0,0.0,1,2110.0,0
67,67,-0.8851670837664637,-0.9,0.0,1.0,327.0,975.0,0.0,1,1698.0,0
68,68,0.019703825159281263,0.0,0.0,0.0,339.0,771.0,0.0,1,1890.0,1
69,69,-0.7949789886389448,-0.8,0.0,1.0,256.0,643.0,1.0,0,-729.0,1
70,70,0.5972009188643782,0.6,1.0,1.0,335.0,786.0,0.0,0,1879.0,0
71,71,0.1668496817806221,0.2,1.0,1.0,345.0,801.0,0.0,0,1854.0,0
72,72,0.4970271825720144,0.5,1.0,1.0,375.0,558.0,0.0,0,2067.0,0
73,73,-0.6977984237396089,-0.7,0.0,1.0,487.0,954.0,0.0,1,1559.0,0
74,74,-0.5959263699260999,-0.6,1.0,0.0,442.0,956.0,0.0,0,1602.0,1
75,75,0.42071761733350044,0.4,1.0,1.0,339.0,656.0,0.0,0,2005.0,0
76,76,-0.04596352432559814,-0.0,1.0,0.0,339.0,876.0,1.0,1,-715.0,0
77,77,0.5564778033931322,0.6,0.0,0.0,250.0,995.0,1.0,0,-1065.0,0
78,78,0.7662807379649442,0.8,1.0,1.0,264.0,647.0,0.0,0,2089.0,0
79,79,0.8686413527274476,0.9,1.0,1.0,257.0,578.0,0.0,0,2165.0,0
80,80,0.34697345476248087,0.3,1.0,1.0,364.0,732.0,0.0,0,1904.0,0
81,81,-0.09097187336274482,-0.1,1.0,0.0,309.0,694.0,0.0,0,1997.0,1
82,82,-0.8564159601676914,-0.9,0.0,1.0,411.0,698.0,0.0,1,1891.0,0
83,83,0.7049137523790797,0.7,0.0,0.0,264.0,901.0,0.0,1,1835.0,1
84,84,-0.5403078539034605,-0.5,1.0,0.0,480.0,999.0,0.0,0,1521.0,1
85,85,0.20473078059837635,0.2,0.0,0.0,327.0,985.0,0.0,1,1688.0,1
86,86,-0.23479153063252556,-0.2,0.0,1.0,309.0,502.0,0.0,1,2189.0,0
87,87,0.5631744988320048,0.6,1.0,1.0,392.0,664.0,0.0,0,1944.0,0
88,88,0.8902084924002148,0.9,0.0,0.0,269.0,924.0,0.0,1,1807.0,1
89,89,-0.45342399028100727,-0.5,0.0,1.0,340.0,821.0,0.0,1,1839.0,0
90,90,0.033749363486576756,0.0,1.0,1.0,355.0,915.0,0.0,0,1730.0,0
91,91,0.8171875157198697,0.8,1.0,1.0,434.0,618.0,1.0,1,-752.0,1
92,92,0.0030443526078026695,0.0,0.0,0.0,306.0,903.0,0.0,1,1791.0,1
93,93,0.38511196026813443,0.4,1.0,1.0,324.0,675.0,0.0,0,2001.0,0
94,94,0.22925974702042262,0.2,0.0,0.0,382.0,845.0,0.0,1,1773.0,1
95,95,0.17134985174050288,0.2,0.0,0.0,350.0,665.0,0.0,1,1985.0,1
96,96,-0.3664040440028259,-0.4,1.0,0.0,283.0,503.0,0.0,0,2214.0,1
97,97,0.41864577253288415,0.4,1.0,1.0,350.0,562.0,0.0,0,2088.0,0
98,98,-0.6317208006347197,-0.6,1.0,0.0,475.0,800.0,0.0,0,1725.0,1
99,99,0.5803981796999799,0.6,1.0,1.0,351.0,879.0,0.0,0,1770.0,0
100,100,-0.41562310426387294,-0.4,1.0,0.0,491.0,993.0,1.0,1,-1424.0,0
101,101,-0.4575616505446831,-0.5,0.0,1.0,289.0,990.0,0.0,1,1721.0,0
102,102,-0.42082048432332053,-0.4,0.0,1.0,453.0,772.0,0.0,1,1775.0,0
103,103,0.43582609725090415,0.4,1.0,1.0,422.0,663.0,0.0,0,1915.0,0
104,104,0.16445883280294826,0.2,1.0,1.0,289.0,969.0,0.0,0,1742.0,0
105,105,-0.7305196195144845,-0.7,0.0,1.0,348.0,762.0,0.0,1,1890.0,0
106,106,0.5712179317120981,0.6,1.0,1.0,403.0,827.0,0.0,0,1770.0,0
107,107,-0.5437232094667668,-0.5,1.0,0.0,404.0,950.0,0.0,0,1646.0,1
108,108,0.7966739922221425,0.8,1.0,1.0,310.0,913.0,0.0,0,1777.0,0
109,109,-0.16424516886541296,-0.2,0.0,1.0,352.0,833.0,0.0,1,1815.0,0
110,110,-0.7867499767228123,-0.8,1.0,0.0,426.0,928.0,1.0,1,-1114.0,0
111,111,0.5554028931323548,0.6,0.0,0.0,384.0,805.0,0.0,1,1811.0,1
112,112,0.3762043072202551,0.4,1.0,1.0,284.0,912.0,1.0,1,-896.0,1
113,113,-0.14478091196260545,-0.1,1.0,0.0,465.0,990.0,0.0,0,1545.0,1
114,114,-0.899594777824292,-0.9,0.0,1.0,440.0,852.0,0.0,1,1708.0,0
115,115,0.39503802273935673,0.4,1.0,1.0,336.0,510.0,1.0,1,-716.0,1
116,116,-0.8720362210307749,-0.9,0.0,1.0,445.0,896.0,0.0,1,1659.0,0
117,117,-0.4309525447279095,-0.4,1.0,0.0,255.0,504.0,0.0,0,2241.0,1
118,118,0.38311327777212434,0.4,1.0,1.0,358.0,648.0,0.0,0,1994.0,0
119,119,0.032548778616917184,0.0,0.0,0.0,407.0,819.0,0.0,1,1774.0,1
120,120,0.7422963804166166,0.7,1.0,1.0,467.0,942.0,0.0,0,1591.0,0
121,121,0.739954217319451,0.7,0.0,0.0,337.0,696.0,0.0,1,1967.0,1
122,122,-0.765109954599489,-0.8,0.0,1.0,340.0,784.0,1.0,0,-994.0,1
123,123,0.7114837566826234,0.7,1.0,1.0,253.0,695.0,0.0,0,2052.0,0
124,124,-0.046736290059712915,-0.0,1.0,0.0,489.0,726.0,0.0,0,1785.0,1
125,125,-0.04922260616284002,-0.0,1.0,0.0,289.0,974.0,0.0,0,1737.0,1
126,126,-0.7036447971506316,-0.7,0.0,1.0,416.0,738.0,0.0,1,-894.0,0
127,127,-0.6525745219304854,-0.7,1.0,0.0,375.0,507.0,0.0,0,2118.0,1
128,128,-0.4119119977447347,-0.4,0.0,1.0,315.0,725.0,0.0,1,1960.0,0
129,129,-0.14727711991814163,-0.1,0.0,1.0,417.0,848.0,0.0,1,1735.0,0
130,130,-0.6547056614949054,-0.7,0.0,1.0,375.0,583.0,0.0,1,2042.0,0
131,131,0.20232023555253298,0.2,1.0,1.0,328.0,756.0,0.0,0,1916.0,0
132,132,-0.005055742610209024,-0.0,0.0,1.0,389.0,812.0,0.0,1,1799.0,0
133,133,-0.3090069138819943,-0.3,0.0,1.0,434.0,697.0,0.0,1,1869.0,0
134,134,0.05112693316100525,0.1,1.0,1.0,420.0,585.0,0.0,0,1995.0,0
135,135,-0.4377335685437089,-0.4,1.0,0.0,275.0,818.0,0.0,0,1907.0,1
136,136,-0.15190479630993792,-0.2,1.0,0.0,489.0,729.0,0.0,0,1782.0,1
137,137,-0.6483046898761033,-0.6,1.0,0.0,355.0,734.0,0.0,0,1911.0,1
138,138,-0.19437679910601335,-0.2,0.0,1.0,424.0,903.0,0.0,1,1673.0,0
139,139,0.24491404992711507,0.2,1.0,1.0,443.0,954.0,1.0,1,-1277.0,1
140,140,-0.6261597038845205,-0.6,0.0,1.0,400.0,598.0,0.0,1,2002.0,0
141,141,-0.1802404752801977,-0.2,1.0,0.0,397.0,504.0,0.0,0,2099.0,1
142,142,0.510655190930588,0.5,0.0,0.0,358.0,798.0,0.0,1,1844.0,1
143,143,0.3864577691583885,0.4,0.0,0.0,255.0,607.0,0.0,1,2138.0,1
144,144,0.8058854368771734,0.8,0.0,0.0,294.0,932.0,0.0,1,1774.0,1
145,145,-0.6530741769845518,-0.7,0.0,1.0,280.0,871.0,0.0,1,1849.0,0
146,146,0.7704423192709721,0.8,0.0,0.0,283.0,756.0,0.0,1,1961.0,1
147,147,-0.43846126321333007,-0.4,0.0,1.0,334.0,980.0,0.0,1,1686.0,0
148,148,0.651153092202244,0.7,1.0,1.0,482.0,790.0,0.0,0,1728.0,0
149,149,0.6993468988660675,0.7,1.0,1.0,398.0,796.0,0.0,0,1806.0,0
150,150,-0.3821773803659806,-0.4,0.0,1.0,377.0,671.0,0.0,1,1952.0,0
151,151,0.8260303655611282,0.8,1.0,1.0,275.0,578.0,0.0,0,2147.0,0
152,152,-0.6504109730832208,-0.7,1.0,0.0,499.0,972.0,0.0,0,1529.0,1
153,153,-0.07215696858733,-0.1,0.0,1.0,401.0,523.0,0.0,1,2076.0,0
154,154,-0.4329994779595729,-0.4,1.0,0.0,494.0,799.0,0.0,0,1707.0,1
155,155,-0.5471665888617194,-0.5,1.0,0.0,394.0,702.0,1.0,1,-1016.0,0
156,156,0.2648197639563358,0.3,0.0,0.0,472.0,583.0,0.0,1,1945.0,1
157,157,0.8811192175565697,0.9,1.0,1.0,334.0,598.0,0.0,0,2068.0,0
158,158,-0.41729891907028865,-0.4,1.0,0.0,436.0,817.0,0.0,0,1747.0,1
159,159,-0.62764549138727,-0.6,1.0,0.0,383.0,607.0,0.0,0,2010.0,1
160,160,-0.168254107335306,-0.2,0.0,1.0,354.0,843.0,0.0,1,1803.0,0
161,161,0.862872529462345,0.9,1.0,1.0,438.0,577.0,0.0,0,1985.0,0
162,162,-0.23827447734332674,-0.2,1.0,0.0,385.0,818.0,0.0,0,1797.0,1
163,163,0.011785698810151457,0.0,0.0,0.0,405.0,855.0,0.0,1,1740.0,1
164,164,-0.663646585053036,-0.7,0.0,1.0,357.0,520.0,0.0,1,2123.0,0
165,165,0.5368763685670487,0.5,1.0,1.0,306.0,996.0,0.0,0,1698.0,0
166,166,-0.8426112733170428,-0.8,1.0,0.0,306.0,935.0,0.0,0,1759.0,1
167,167,-0.8988463828595036,-0.9,0.0,1.0,331.0,535.0,0.0,1,2134.0,0
168,168,-0.276036605958209,-0.3,0.0,1.0,425.0,933.0,0.0,1,1642.0,0
169,169,-0.7974112047785201,-0.8,1.0,0.0,382.0,944.0,1.0,1,-1076.0,0
170,170,0.8123402344213878,0.8,1.0,1.0,330.0,727.0,0.0,0,1943.0,0
171,171,-0.8380719815926264,-0.8,0.0,1.0,328.0,553.0,0.0,1,2119.0,0
172,172,-0.08234406051441057,-0.1,1.0,0.0,341.0,795.0,0.0,0,1864.0,1
173,173,-0.3243953660211335,-0.3,0.0,1.0,388.0,594.0,0.0,1,2018.0,0
174,174,0.6184115435035563,0.6,0.0,0.0,463.0,812.0,0.0,1,1725.0,1
175,175,-0.507310028937318,-0.5,1.0,0.0,332.0,636.0,0.0,0,2032.0,1
176,176,0.36367437836210537,0.4,1.0,1.0,309.0,769.0,0.0,0,1922.0,0
177,177,-0.6929914224530391,-0.7,0.0,1.0,452.0,987.0,0.0,1,1561.0,0
178,178,-0.029445928830882262,-0.0,1.0,0.0,445.0,937.0,0.0,0,1618.0,1
179,179,0.7205324796510094,0.7,0.0,0.0,351.0,960.0,1.0,0,-1291.0,0
180,180,0.27955276451342115,0.3,0.0,0.0,262.0,619.0,0.0,1,2119.0,1
181,181,0.013005163929313834,0.0,1.0,1.0,282.0,700.0,0.0,0,2018.0,0
182,182,-0.7497160404431469,-0.7,0.0,1.0,392.0,608.0,0.0,1,2000.0,0
183,183,0.23933993065548143,0.2,0.0,0.0,388.0,688.0,0.0,1,1924.0,1
184,184,-0.5812366121801396,-0.6,1.0,0.0,489.0,505.0,0.0,0,2006.0,1
185,185,0.6186727900469012,0.6,1.0,1.0,360.0,543.0,0.0,0,2097.0,0
186,186,-0.15387375962897776,-0.2,1.0,0.0,361.0,505.0,0.0,0,2134.0,1
187,187,-0.30659987190938864,-0.3,0.0,1.0,315.0,975.0,0.0,1,1710.0,0
188,188,-0.3694480358860328,-0.4,0.0,1.0,390.0,525.0,0.0,1,2085.0,0
189,189,0.6264287428073153,0.6,1.0,1.0,421.0,513.0,0.0,0,2066.0,0
190,190,-0.690057104302482,-0.7,0.0,1.0,337.0,613.0,0.0,1,2050.0,0
191,191,-0.1365040214699872,-0.1,1.0,0.0,458.0,911.0,0.0,0,1631.0,1
192,192,-0.5176435026569586,-0.5,0.0,1.0,280.0,521.0,0.0,1,2199.0,0
193,193,0.39505518706252085,0.4,1.0,1.0,297.0,574.0,0.0,0,2129.0,0
194,194,0.32157007226399104,0.3,1.0,1.0,391.0,928.0,0.0,0,1681.0,0
195,195,-0.26768990934743664,-0.3,0.0,1.0,266.0,571.0,0.0,1,2163.0,0
196,196,0.19764951223406124,0.2,0.0,0.0,292.0,917.0,0.0,1,1791.0,1
197,197,-0.8126557574245027,-0.8,0.0,1.0,294.0,515.0,0.0,1,2191.0,0
198,198,-0.3680013915695529,-0.4,0.0,1.0,251.0,760.0,0.0,1,1989.0,0
199,199,0.6315220619832201,0.6,0.0,0.0,412.0,678.0,0.0,1,1910.0,1
200,200,0.5785228295159298,0.6,1.0,1.0,445.0,769.0,0.0,0,1786.0,0
201,201,-0.05107890352528144,-0.1,0.0,1.0,343.0,834.0,0.0,1,1823.0,0
202,202,-0.1073466505282159,-0.1,0.0,1.0,374.0,682.0,0.0,1,1944.0,0
203,203,-0.14374942046879424,-0.1,0.0,1.0,459.0,969.0,1.0,0,-1388.0,1
204,204,0.7706071096623354,0.8,1.0,1.0,446.0,570.0,0.0,0,1984.0,0
205,205,-0.4801373402421147,-0.5,1.0,0.0,331.0,940.0,0.0,0,1729.0,1
206,206,-0.2361982264118513,-0.2,1.0,0.0,321.0,520.0,0.0,0,2159.0,1
207,207,0.310352194085182,0.3,1.0,1.0,310.0,647.0,0.0,0,2043.0,0
208,208,0.5254203091008863,0.5,0.0,0.0,290.0,830.0,0.0,1,1880.0,1
209,209,-0.2674245882132664,-0.3,0.0,1.0,251.0,933.0,0.0,1,1816.0,0
210,210,-0.6567299295811952,-0.7,1.0,0.0,457.0,788.0,0.0,0,1755.0,1
211,211,-0.500405683116758,-0.5,1.0,0.0,285.0,771.0,0.0,0,1944.0,1
212,212,0.2617229879212516,0.3,0.0,0.0,439.0,654.0,0.0,1,1907.0,1
213,213,0.583285019346682,0.6,1.0,1.0,332.0,684.0,0.0,0,1984.0,0
214,214,0.2636501046662695,0.3,1.0,1.0,465.0,838.0,0.0,0,1697.0,0
215,215,-0.06969847999266421,-0.1,0.0,1.0,306.0,686.0,0.0,1,2008.0,0
216,216,0.23462267977987128,0.2,1.0,1.0,368.0,575.0,1.0,1,-783.0,1
217,217,0.21614616912839735,0.2,1.0,1.0,305.0,944.0,0.0,0,1751.0,0
218,218,0.5245158808703357,0.5,1.0,1.0,252.0,783.0,0.0,0,1965.0,0
219,219,0.846322775066407,0.8,0.0,0.0,353.0,882.0,0.0,1,1765.0,1
220,220,0.41234854760769435,0.4,1.0,1.0,336.0,856.0,0.0,0,1808.0,0
221,221,-0.8880529067011379,-0.9,0.0,1.0,449.0,870.0,0.0,1,1681.0,0
222,222,-0.5031396972560251,-0.5,1.0,0.0,485.0,856.0,0.0,0,1659.0,1
223,223,-0.20819310198988972,-0.2,1.0,0.0,417.0,898.0,0.0,0,1685.0,1
224,224,-0.2886860664659108,-0.3,0.0,1.0,291.0,504.0,0.0,1,2205.0,0
225,225,-0.3298178581134511,-0.3,0.0,1.0,437.0,860.0,0.0,1,1703.0,0
226,226,-0.37757258130303006,-0.4,0.0,1.0,355.0,773.0,0.0,1,1872.0,0
227,227,-0.27797403859132963,-0.3,0.0,1.0,259.0,598.0,0.0,1,2143.0,0
228,228,-0.8050112872520836,-0.8,1.0,0.0,475.0,818.0,0.0,0,1707.0,1
229,229,0.2936986079715286,0.3,0.0,0.0,366.0,966.0,0.0,1,1668.0,1
230,230,0.6558679100795902,0.7,0.0,0.0,495.0,721.0,0.0,1,1784.0,1
231,231,-0.04468083824274938,-0.0,1.0,0.0,449.0,791.0,1.0,1,-1060.0,0
232,232,-0.0891107421562849,-0.1,1.0,0.0,473.0,570.0,0.0,0,1957.0,1
233,233,-0.4053995951210185,-0.4,1.0,0.0,367.0,904.0,1.0,1,-661.0,0
234,234,-0.46179882368810626,-0.5,1.0,0.0,306.0,686.0,0.0,0,2008.0,1
235,235,0.45838628867686027,0.5,1.0,1.0,341.0,699.0,0.0,0,1960.0,0
236,236,-0.6362361004540413,-0.6,0.0,1.0,336.0,501.0,0.0,1,2163.0,0
237,237,0.6771287053575535,0.7,0.0,0.0,263.0,866.0,0.0,1,1871.0,1
238,238,-0.10460875810600745,-0.1,1.0,0.0,411.0,996.0,0.0,0,1593.0,1
239,239,-0.3342767010849358,-0.3,1.0,0.0,414.0,940.0,0.0,0,1646.0,1
240,240,0.017683430469322303,0.0,1.0,1.0,320.0,934.0,0.0,0,1746.0,0
241,241,0.8703301778444555,0.9,1.0,1.0,271.0,634.0,0.0,0,2095.0,0
242,242,0.7044053160740921,0.7,1.0,1.0,258.0,771.0,1.0,1,-959.0,1
243,243,-0.3018191965497835,-0.3,1.0,0.0,363.0,722.0,0.0,0,1915.0,1
244,244,-0.04532349452429385,-0.0,0.0,1.0,286.0,871.0,0.0,1,1843.0,0
245,245,-0.3037979377678386,-0.3,1.0,0.0,430.0,968.0,0.0,0,1602.0,1
246,246,-0.2522933051413957,-0.3,0.0,1.0,323.0,501.0,0.0,1,2176.0,0
247,247,0.5215913788475018,0.5,1.0,1.0,458.0,696.0,0.0,0,1846.0,0
248,248,0.23030138515079102,0.2,0.0,0.0,333.0,714.0,0.0,1,1953.0,1
249,249,-0.3426423495295089,-0.3,1.0,0.0,251.0,709.0,0.0,0,2040.0,1
250,250,0.6391796447973203,0.6,0.0,0.0,377.0,910.0,0.0,1,1713.0,1
251,251,-0.7395433854201454,-0.7,0.0,1.0,446.0,557.0,0.0,1,1997.0,0
252,252,-0.8726483909663116,-0.9,0.0,1.0,479.0,836.0,1.0,0,-1115.0,1
253,253,-0.301377901864329,-0.3,0.0,1.0,439.0,756.0,0.0,1,1805.0,0
254,254,0.18558420909121998,0.2,1.0,1.0,377.0,915.0,0.0,0,1708.0,0
255,255,-0.3596108444495535,-0.4,1.0,0.0,458.0,760.0,0.0,0,1782.0,1
256,256,-0.0022517842653682063,-0.0,1.0,0.0,375.0,531.0,0.0,0,2094.0,1
257,257,-0.1754544808767604,-0.2,1.0,0.0,419.0,612.0,0.0,0,1969.0,1
258,258,0.6025025404127898,0.6,1.0,1.0,341.0,549.0,0.0,0,-590.0,0
259,259,0.8018766515990171,0.8,1.0,1.0,382.0,677.0,0.0,0,1941.0,0
260,260,0.5605073397203456,0.6,1.0,1.0,436.0,667.0,0.0,0,1897.0,0
261,261,-0.09225808113608813,-0.1,1.0,0.0,361.0,815.0,0.0,0,1824.0,1
262,262,-0.813841414180814,-0.8,0.0,1.0,332.0,708.0,0.0,1,1960.0,0
263,263,0.2658915073327329,0.3,1.0,1.0,407.0,933.0,0.0,0,1660.0,0
264,264,0.8946168834124254,0.9,1.0,1.0,336.0,913.0,0.0,0,1751.0,0
265,265,0.019499240150689823,0.0,1.0,1.0,449.0,656.0,0.0,0,1895.0,0
266,266,-0.8890202978445915,-0.9,1.0,0.0,379.0,640.0,0.0,0,1981.0,1
267,267,-0.1447699643474557,-0.1,0.0,1.0,447.0,926.0,0.0,1,1627.0,0
268,268,0.2264178303942591,0.2,0.0,0.0,308.0,893.0,1.0,0,-1051.0,0
269,269,-0.3076509011620461,-0.3,0.0,1.0,425.0,823.0,0.0,1,1752.0,0
270,270,-0.5142783467829333,-0.5,0.0,1.0,361.0,757.0,0.0,1,1882.0,0
271,271,0.46668371448511003,0.5,1.0,1.0,268.0,885.0,0.0,0,1847.0,0
272,272,0.3687221288788137,0.4,1.0,1.0,318.0,656.0,0.0,0,2026.0,0
273,273,0.6280167398699329,0.6,1.0,1.0,467.0,801.0,0.0,0,1732.0,0
274,274,-0.40002195792875345,-0.4,1.0,0.0,417.0,629.0,1.0,1,-846.0,0
275,275,-0.5416208296378537,-0.5,1.0,0.0,358.0,840.0,1.0,1,-1158.0,0
276,276,0.16201348051320397,0.2,0.0,0.0,324.0,704.0,0.0,1,1972.0,1
277,277,0.11939292971597248,0.1,1.0,1.0,497.0,659.0,0.0,0,1844.0,0
278,278,0.2533765167712908,0.3,0.0,0.0,283.0,863.0,0.0,1,1854.0,1
279,279,0.1338144205528703,0.1,0.0,0.0,462.0,727.0,0.0,1,1811.0,1
280,280,-0.22556259702110726,-0.2,1.0,0.0,456.0,697.0,0.0,0,1847.0,1
281,281,0.821451600108238,0.8,1.0,1.0,420.0,976.0,0.0,0,1604.0,0
282,282,-0.19570663791467247,-0.2,0.0,1.0,262.0,550.0,0.0,1,2188.0,0
283,283,0.3358519098407796,0.3,1.0,1.0,454.0,941.0,0.0,0,1605.0,0
284,284,-0.29395353185795337,-0.3,1.0,0.0,406.0,997.0,0.0,0,1597.0,1
285,285,-0.5313556619308468,-0.5,1.0,0.0,374.0,997.0,0.0,0,1629.0,1
286,286,-0.3057409189287922,-0.3,1.0,0.0,268.0,823.0,0.0,0,1909.0,1
287,287,0.19020155388900217,0.2,0.0,0.0,441.0,973.0,0.0,1,1586.0,1
288,288,-0.8566767219443419,-0.9,1.0,0.0,254.0,973.0,0.0,0,1773.0,1
289,289,-0.8267743207696555,-0.8,1.0,0.0,497.0,939.0,0.0,0,1564.0,1
290,290,-0.2564790643657423,-0.3,1.0,0.0,300.0,687.0,0.0,0,2013.0,1
291,291,0.8829731228388137,0.9,1.0,1.0,471.0,678.0,0.0,0,1851.0,0
292,292,0.6555085199169318,0.7,0.0,0.0,298.0,904.0,0.0,1,1798.0,1
293,293,0.39513384507485527,0.4,1.0,1.0,407.0,666.0,0.0,0,1927.0,0
294,294,0.8577031313018609,0.9,0.0,0.0,346.0,994.0,0.0,1,1660.0,1
295,295,-0.30921348269098237,-0.3,0.0,1.0,433.0,992.0,0.0,1,1575.0,0
296,296,0.4779801475498563,0.5,1.0,1.0,370.0,795.0,0.0,0,1835.0,0
297,297,-0.2338729680728594,-0.2,0.0,1.0,421.0,756.0,0.0,1,1823.0,0
298,298,0.005959393771068577,0.0,1.0,1.0,362.0,589.0,1.0,1,-801.0,1
299,299,0.7114232848651739,0.7,1.0,1.0,478.0,698.0,1.0,1,-996.0,1
300,300,-0.36957119649385783,-0.4,1.0,0.0,480.0,733.0,0.0,0,1787.0,1
301,301,-0.32356346240008527,-0.3,1.0,0.0,366.0,763.0,1.0,1,-1059.0,0
302,302,0.10828094782315267,0.1,1.0,1.0,365.0,595.0,0.0,0,-510.0,0
303,303,0.6497360795582053,0.6,0.0,0.0,285.0,597.0,0.0,1,2118.0,1
304,304,-0.8944437085449403,-0.9,1.0,0.0,464.0,921.0,0.0,0,1615.0,1
305,305,0.01751995930076433,0.0,0.0,0.0,419.0,520.0,0.0,1,2061.0,1
306,306,0.3570461269154398,0.4,0.0,0.0,478.0,829.0,0.0,1,1693.0,1
307,307,0.37873048093267314,0.4,0.0,0.0,429.0,523.0,0.0,1,2048.0,1
308,308,-0.46564464963838786,-0.5,1.0,0.0,367.0,508.0,0.0,0,2125.0,1
309,309,-0.5033603666954269,-0.5,1.0,0.0,302.0,870.0,0.0,0,1828.0,1
310,310,-0.2536031850158672,-0.3,1.0,0.0,418.0,793.0,0.0,0,1789.0,1
311,311,-0.22400244700500682,-0.2,0.0,1.0,307.0,513.0,0.0,1,2180.0,0
312,312,-0.739455759422835,-0.7,0.0,1.0,262.0,525.0,1.0,0,-767.0,1
313,313,0.44790718137963037,0.4,1.0,1.0,282.0,505.0,0.0,0,2213.0,0
314,314,0.604700856784317,0.6,0.0,0.0,404.0,774.0,1.0,0,-868.0,0
315,315,0.663265969535835,0.7,1.0,1.0,258.0,792.0,0.0,0,1950.0,0
316,316,-0.8391737577998567,-0.8,1.0,0.0,408.0,646.0,0.0,0,1946.0,1
317,317,-0.6886070245267792,-0.7,1.0,0.0,256.0,726.0,0.0,0,2018.0,1
318,318,-0.22164097943736782,-0.2,0.0,1.0,319.0,823.0,0.0,1,1858.0,0
319,319,-0.6250170240156919,-0.6,0.0,1.0,434.0,587.0,0.0,1,1979.0,0
320,320,-0.8531592107228968,-0.9,1.0,0.0,285.0,513.0,0.0,0,2202.0,1
321,321,-0.0007984933675961869,-0.0,1.0,0.0,370.0,843.0,0.0,0,1787.0,1
322,322,0.5710909696173873,0.6,1.0,1.0,392.0,595.0,1.0,1,-897.0,1
323,323,-0.7475474213433653,-0.7,0.0,1.0,265.0,818.0,0.0,1,1917.0,0
324,324,-0.2916816607675444,-0.3,1.0,0.0,336.0,839.0,0.0,0,1825.0,1
325,325,0.11456457282844024,0.1,0.0,0.0,294.0,713.0,0.0,1,1993.0,1
326,326,-0.29969925289786836,-0.3,0.0,1.0,394.0,732.0,0.0,1,1874.0,0
327,327,0.7833414628912686,0.8,0.0,0.0,337.0,652.0,0.0,1,2011.0,1
328,328,0.4540137508572898,0.5,0.0,0.0,450.0,902.0,0.0,1,1648.0,1
329,329,-0.7752361207197734,-0.8,1.0,0.0,430.0,805.0,1.0,1,-1145.0,0
330,330,0.5641804401705991,0.6,1.0,1.0,358.0,672.0,0.0,0,1970.0,0
331,331,-0.1628858804233414,-0.2,1.0,0.0,341.0,876.0,0.0,0,1783.0,1
332,332,0.3933458739725767,0.4,1.0,1.0,348.0,786.0,0.0,0,1866.0,0
333,333,0.842316257114622,0.8,0.0,0.0,378.0,728.0,0.0,1,1894.0,1
334,334,0.6065039652946088,0.6,0.0,0.0,426.0,510.0,0.0,1,2064.0,1
335,335,0.41838954969248,0.4,0.0,0.0,324.0,946.0,0.0,1,1730.0,1
336,336,-0.6224841688532732,-0.6,1.0,0.0,438.0,909.0,0.0,0,1653.0,1
337,337,-0.5596096924766059,-0.6,0.0,1.0,478.0,780.0,1.0,0,-1068.0,1
338,338,0.09989244344494252,0.1,0.0,0.0,477.0,989.0,1.0,0,-1456.0,0
339,339,-0.33156755056438436,-0.3,0.0,1.0,311.0,712.0,0.0,1,1977.0,0
340,340,-0.3129203635690565,-0.3,1.0,0.0,374.0,582.0,0.0,0,2044.0,1
341,341,0.28458649008894665,0.3,0.0,0.0,270.0,826.0,0.0,1,1904.0,1
342,342,-0.08513078608632774,-0.1,1.0,0.0,354.0,749.0,0.0,0,1897.0,1
343,343,0.37511362798202386,0.4,0.0,0.0,425.0,511.0,0.0,1,2064.0,1
344,344,-0.5665891053340028,-0.6,0.0,1.0,415.0,870.0,0.0,1,1715.0,0
345,345,0.7337238714772093,0.7,0.0,0.0,375.0,524.0,1.0,0,-479.0,0
346,346,-0.8027372971503914,-0.8,1.0,0.0,351.0,881.0,0.0,0,1768.0,1
347,347,-0.6200455256137607,-0.6,0.0,1.0,478.0,910.0,0.0,1,1612.0,0
348,348,0.022337075069249313,0.0,1.0,1.0,277.0,577.0,0.0,0,2146.0,0
349,349,0.8961814106436691,0.9,1.0,1.0,446.0,704.0,0.0,0,1850.0,0
350,350,0.8368521057492041,0.8,1.0,1.0,467.0,779.0,0.0,0,1754.0,0
351,351,0.4855914546533714,0.5,1.0,1.0,297.0,556.0,0.0,0,2147.0,0
352,352,-0.7567874156243146,-0.8,1.0,0.0,340.0,828.0,0.0,0,1832.0,1
353,353,0.2075055547567598,0.2,0.0,0.0,442.0,682.0,0.0,1,1876.0,1
354,354,-0.7447926691511887,-0.7,1.0,0.0,380.0,637.0,0.0,0,1983.0,1
355,355,0.1059884317899088,0.1,1.0,1.0,288.0,532.0,0.0,0,2180.0,0
356,356,0.6729640017595556,0.7,1.0,1.0,277.0,975.0,0.0,0,1748.0,0
357,357,-0.21726088073436134,-0.2,1.0,0.0,345.0,993.0,0.0,0,1662.0,1
358,358,0.6665601625590839,0.7,0.0,0.0,306.0,730.0,0.0,1,1964.0,1
359,359,0.7744412543984874,0.8,1.0,1.0,270.0,790.0,0.0,0,1940.0,0
360,360,0.8409821152451241,0.8,1.0,1.0,477.0,972.0,0.0,0,1551.0,0
361,361,0.5156034293132333,0.5,0.0,0.0,456.0,829.0,0.0,1,1715.0,1
362,362,-0.31263673427647576,-0.3,0.0,1.0,354.0,722.0,0.0,1,1924.0,0
363,363,-0.2061252763100968,-0.2,1.0,0.0,493.0,952.0,0.0,0,1555.0,1
364,364,0.6607141959239936,0.7,0.0,0.0,343.0,654.0,0.0,1,2003.0,1
365,365,0.06585585280146544,0.1,1.0,1.0,421.0,977.0,0.0,0,1602.0,0
366,366,0.5070722677914546,0.5,0.0,0.0,267.0,543.0,0.0,1,2190.0,1
367,367,0.5100345331878992,0.5,0.0,0.0,336.0,775.0,0.0,1,1889.0,1
368,368,0.8787589974974964,0.9,0.0,0.0,299.0,867.0,0.0,1,1834.0,1
369,369,0.0308157984129398,0.0,1.0,1.0,465.0,995.0,0.0,0,1540.0,0
370,370,0.6527405542285424,0.7,1.0,1.0,280.0,646.0,0.0,0,2074.0,0
371,371,0.7470588688345953,0.7,0.0,0.0,409.0,584.0,0.0,1,2007.0,1
372,372,0.4483048829008748,0.4,1.0,1.0,269.0,571.0,0.0,0,2160.0,0
373,373,0.8071491297741241,0.8,1.0,1.0,296.0,986.0,0.0,0,1718.0,0
374,374,0.32533659038482077,0.3,1.0,1.0,332.0,662.0,0.0,0,2006.0,0
375,375,-0.18920619621600432,-0.2,0.0,1.0,351.0,910.0,0.0,1,1739.0,0
376,376,-0.652759286178319,-0.7,0.0,1.0,429.0,975.0,0.0,1,1596.0,0
377,377,0.003651106646215818,0.0,0.0,0.0,371.0,938.0,0.0,1,1691.0,1
378,378,-0.1655294926681048,-0.2,0.0,1.0,338.0,548.0,0.0,1,2114.0,0
379,379,0.5873489072534414,0.6,0.0,0.0,333.0,771.0,0.0,1,1896.0,1
380,380,0.5441947584194792,0.5,1.0,1.0,401.0,793.0,0.0,0,1806.0,0
381,381,0.6354408169236635,0.6,1.0,1.0,307.0,580.0,0.0,0,2113.0,0
382,382,0.8188189352370451,0.8,0.0,0.0,411.0,780.0,0.0,1,1809.0,1
383,383,0.4588634401302957,0.5,0.0,0.0,360.0,865.0,0.0,1,1775.0,1
384,384,0.6283559635821959,0.6,1.0,1.0,328.0,976.0,0.0,0,1696.0,0
385,385,0.2197530468396881,0.2,0.0,0.0,270.0,719.0,0.0,1,2011.0,1
386,386,0.7703922716088342,0.8,1.0,1.0,447.0,841.0,0.0,0,1712.0,0
387,387,-0.16507818243261674,-0.2,0.0,1.0,486.0,691.0,0.0,1,1823.0,0
388,388,0.15429661096430525,0.2,0.0,0.0,423.0,605.0,0.0,1,1972.0,1
389,389,-0.25251517453796524,-0.3,1.0,0.0,414.0,966.0,0.0,0,1620.0,1
390,390,-0.27352579613402284,-0.3,1.0,0.0,398.0,555.0,0.0,0,2047.0,1
391,391,0.22081633813393997,0.2,1.0,1.0,290.0,500.0,0.0,0,2210.0,0
392,392,-0.40611017685744516,-0.4,0.0,1.0,385.0,911.0,0.0,1,1704.0,0
393,393,0.03157772886153598,0.0,1.0,1.0,290.0,875.0,0.0,0,1835.0,0
394,394,-0.37491610172971135,-0.4,1.0,0.0,428.0,641.0,0.0,0,1931.0,1
395,395,0.6984700810774184,0.7,0.0,0.0,492.0,661.0,0.0,1,1847.0,1
396,396,-0.21825404299780993,-0.2,0.0,1.0,384.0,755.0,0.0,1,1861.0,0
397,397,0.6024879660220369,0.6,1.0,1.0,313.0,699.0,0.0,0,1988.0,0
398,398,0.8367028950646996,0.8,1.0,1.0,285.0,922.0,0.0,0,1793.0,0
399,399,0.6894619901513624,0.7,1.0,1.0,271.0,852.0,0.0,0,1877.0,0
400,400,0.6876014167608154,0.7,1.0,1.0,478.0,698.0,0.0,0,1824.0,0
401,401,-0.43612410507588584,-0.4,1.0,0.0,363.0,960.0,0.0,0,1677.0,1
402,402,-0.6498086392354969,-0.6,0.0,1.0,453.0,639.0,0.0,1,1908.0,0
403,403,0.18923000331555928,0.2,1.0,1.0,383.0,524.0,0.0,0,2093.0,0
404,404,0.8098810898365468,0.8,1.0,1.0,335.0,660.0,0.0,0,2005.0,0
405,405,-0.48006530584413515,-0.5,0.0,1.0,431.0,812.0,0.0,1,1757.0,0
406,406,0.7044006651668563,0.7,0.0,0.0,443.0,514.0,0.0,1,2043.0,1
407,407,-0.47279614589076335,-0.5,0.0,1.0,288.0,719.0,0.0,1,1993.0,0
408,408,0.11162381778824393,0.1,0.0,0.0,460.0,508.0,0.0,1,2032.0,1
409,409,0.3133180241803172,0.3,1.0,1.0,378.0,948.0,0.0,0,1674.0,0
410,410,-0.8535269378073514,-0.9,1.0,0.0,258.0,533.0,0.0,0,2209.0,1
411,411,-0.8683352907329553,-0.9,0.0,1.0,307.0,723.0,0.0,1,1970.0,0
412,412,-0.569280929841763,-0.6,0.0,1.0,421.0,537.0,0.0,1,2042.0,0
413,413,-0.520273704433428,-0.5,1.0,0.0,498.0,858.0,0.0,0,1644.0,1
414,414,0.5368149772132583,0.5,0.0,0.0,441.0,907.0,0.0,1,1652.0,1
415,415,-0.7796602437447372,-0.8,1.0,0.0,337.0,726.0,0.0,0,1937.0,1
416,416,-0.6663576202398918,-0.7,0.0,1.0,281.0,885.0,0.0,1,1834.0,0
417,417,-0.6528671135866118,-0.7,0.0,1.0,421.0,880.0,0.0,1,1699.0,0
418,418,-0.38079885864120244,-0.4,0.0,1.0,293.0,743.0,0.0,1,1964.0,0
419,419,-0.39801355451294207,-0.4,0.0,1.0,406.0,513.0,0.0,1,2081.0,0
420,420,-0.29931035603774325,-0.3,1.0,0.0,436.0,897.0,1.0,1,-843.0,0
421,421,-0.5469871330868892,-0.5,1.0,0.0,330.0,575.0,0.0,0,2095.0,1
422,422,0.21610868909911163,0.2,0.0,0.0,484.0,778.0,0.0,1,1738.0,1
423,423,-0.5369582856416363,-0.5,1.0,0.0,301.0,621.0,1.0,1,-742.0,0
424,424,0.8467000443520104,0.8,0.0,0.0,335.0,644.0,0.0,1,2021.0,1
425,425,-0.024275016251380177,-0.0,1.0,0.0,270.0,755.0,0.0,0,1975.0,1
426,426,0.27092812134634603,0.3,1.0,1.0,308.0,952.0,0.0,0,1740.0,0
427,427,-0.30507575952535504,-0.3,0.0,1.0,407.0,903.0,0.0,1,1690.0,0
428,428,-0.658377763415791,-0.7,0.0,1.0,339.0,764.0,0.0,1,1897.0,0
429,429,0.4710815759456307,0.5,1.0,1.0,259.0,691.0,0.0,0,2050.0,0
430,430,0.5405543341792466,0.5,0.0,0.0,408.0,568.0,0.0,1,2024.0,1
431,431,0.6489003410526953,0.6,1.0,1.0,473.0,751.0,0.0,0,1776.0,0
432,432,0.5234560452076099,0.5,1.0,1.0,350.0,743.0,0.0,0,1907.0,0
433,433,0.3423347964742586,0.3,0.0,0.0,483.0,884.0,0.0,1,1633.0,1
434,434,-0.3165401956627232,-0.3,0.0,1.0,420.0,726.0,0.0,1,1854.0,0
435,435,0.09491494215330543,0.1,1.0,1.0,435.0,741.0,0.0,0,1824.0,0
436,436,0.6012689132927883,0.6,1.0,1.0,260.0,849.0,0.0,0,1891.0,0
437,437,-0.8190506770573153,-0.8,1.0,0.0,410.0,828.0,0.0,0,1762.0,1
438,438,0.5002598039221996,0.5,0.0,0.0,330.0,873.0,0.0,1,1797.0,1
439,439,0.8498882385103536,0.8,0.0,0.0,308.0,541.0,0.0,1,2151.0,1
440,440,0.4608085755175212,0.5,0.0,0.0,374.0,711.0,0.0,1,1915.0,1
441,441,0.7224155019976995,0.7,0.0,0.0,359.0,601.0,0.0,1,2040.0,1
442,442,-0.5582511293108302,-0.6,0.0,1.0,300.0,776.0,0.0,1,1924.0,0
443,443,-0.3457397479557669,-0.3,0.0,1.0,419.0,903.0,0.0,1,1678.0,0
444,444,0.1694338483186043,0.2,0.0,0.0,430.0,557.0,0.0,1,2013.0,1
445,445,0.20882607176502554,0.2,1.0,1.0,491.0,663.0,0.0,0,1846.0,0
446,446,-0.32853464320527126,-0.3,0.0,1.0,287.0,773.0,0.0,1,1940.0,0
447,447,-0.6657971892608834,-0.7,1.0,0.0,372.0,638.0,0.0,0,1990.0,1
448,448,-0.5959221564120789,-0.6,1.0,0.0,346.0,810.0,0.0,0,1844.0,1
449,449,0.7588959869824236,0.8,0.0,0.0,261.0,504.0,0.0,1,2235.0,1
450,450,0.2384164551827891,0.2,0.0,0.0,373.0,860.0,0.0,1,1767.0,1
451,451,0.6155073247430244,0.6,0.0,0.0,294.0,717.0,0.0,1,1989.0,1
452,452,0.25013309020703567,0.3,1.0,1.0,461.0,839.0,0.0,0,1700.0,0
453,453,-0.5793301189611741,-0.6,1.0,0.0,341.0,652.0,0.0,0,2007.0,1
454,454,0.07532591173680347,0.1,1.0,1.0,346.0,878.0,0.0,0,1776.0,0
455,455,-0.22233774135790862,-0.2,1.0,0.0,475.0,545.0,0.0,0,1980.0,1
456,456,0.8681894520230681,0.9,1.0,1.0,276.0,739.0,0.0,0,1985.0,0
457,457,-0.8039270921362276,-0.8,0.0,1.0,333.0,995.0,0.0,1,1672.0,0
458,458,0.1857257457220195,0.2,0.0,0.0,295.0,637.0,0.0,1,2068.0,1
459,459,0.32120981100110957,0.3,1.0,1.0,342.0,550.0,0.0,0,2108.0,0
460,460,0.8137809550380662,0.8,1.0,1.0,450.0,534.0,0.0,0,2016.0,0
461,461,0.15763657412065368,0.2,1.0,1.0,266.0,772.0,1.0,1,-938.0,1
462,462,-0.06505874730219552,-0.1,1.0,0.0,337.0,576.0,0.0,0,2087.0,1
463,463,0.7054483036695026,0.7,0.0,0.0,362.0,943.0,0.0,1,1695.0,1
464,464,0.8514771283202177,0.9,1.0,1.0,380.0,919.0,0.0,0,1701.0,0
465,465,0.26920012333649856,0.3,1.0,1.0,272.0,707.0,0.0,0,2021.0,0
466,466,0.866503898687376,0.9,0.0,0.0,394.0,528.0,0.0,1,2078.0,1
467,467,-0.3118497640164889,-0.3,1.0,0.0,290.0,897.0,0.0,0,1813.0,1
468,468,0.6257045000607478,0.6,0.0,0.0,380.0,630.0,0.0,1,1990.0,1
469,469,-0.0766153690364283,-0.1,0.0,1.0,391.0,723.0,0.0,1,1886.0,0
470,470,0.017865143660194427,0.0,0.0,0.0,404.0,983.0,0.0,1,1613.0,1
471,471,0.35369486019937313,0.4,1.0,1.0,269.0,892.0,1.0,1,-961.0,1
472,472,-0.10805472779538616,-0.1,0.0,1.0,442.0,785.0,0.0,1,1773.0,0
473,473,-0.5621493896957781,-0.6,1.0,0.0,250.0,693.0,0.0,0,2057.0,1
474,474,0.5306116929258978,0.5,0.0,0.0,292.0,708.0,0.0,1,2000.0,1
475,475,-0.1430608773956371,-0.1,1.0,0.0,345.0,794.0,0.0,0,1861.0,1
476,476,0.2302510505197456,0.2,1.0,1.0,420.0,841.0,0.0,0,1739.0,0
477,477,-0.3172770701233877,-0.3,0.0,1.0,445.0,834.0,0.0,1,1721.0,0
478,478,0.14337248886347276,0.1,1.0,1.0,357.0,924.0,0.0,0,1719.0,0
479,479,-0.10984287093744649,-0.1,0.0,1.0,274.0,612.0,0.0,1,2114.0,0
480,480,-0.6647092940490639,-0.7,1.0,0.0,493.0,656.0,0.0,0,1851.0,1
481,481,0.04646708840343483,0.0,1.0,1.0,290.0,710.0,0.0,0,2000.0,0
482,482,0.7156963891368654,0.7,0.0,0.0,453.0,935.0,1.0,0,-668.0,0
483,483,0.13268176674026633,0.1,0.0,0.0,431.0,841.0,0.0,1,1728.0,1
484,484,-0.21032253453603222,-0.2,1.0,0.0,472.0,678.0,0.0,0,1850.0,1
485,485,0.45233255282754914,0.5,1.0,1.0,264.0,503.0,0.0,0,2233.0,0
486,486,-0.7038993573470057,-0.7,0.0,1.0,474.0,595.0,0.0,1,1931.0,0
487,487,-0.46536507075085115,-0.5,0.0,1.0,493.0,649.0,0.0,1,1858.0,0
488,488,-0.8673857070075607,-0.9,1.0,0.0,463.0,511.0,0.0,0,2026.0,1
489,489,-0.435851968498597,-0.4,0.0,1.0,328.0,684.0,0.0,1,1988.0,0
490,490,-0.7340900522698912,-0.7,1.0,0.0,369.0,641.0,0.0,0,-810.0,1
491,491,-0.03929725849922372,-0.0,0.0,1.0,479.0,964.0,0.0,1,-1163.0,0
492,492,-0.7754212077790288,-0.8,0.0,1.0,440.0,826.0,0.0,1,1734.0,0
493,493,-0.6335067455870049,-0.6,1.0,0.0,349.0,530.0,0.0,0,2121.0,1
494,494,-0.8937290044172944,-0.9,1.0,0.0,383.0,536.0,1.0,1,-719.0,0
495,495,-0.39197610113956005,-0.4,0.0,1.0,380.0,749.0,0.0,1,1871.0,0
496,496,0.8915102373891376,0.9,0.0,0.0,439.0,850.0,0.0,1,1711.0,1
497,497,-0.08124723159877345,-0.1,0.0,1.0,391.0,834.0,0.0,1,1775.0,0
498,498,0.8209276479881139,0.8,0.0,0.0,437.0,707.0,0.0,1,1856.0,1
499,499,-0.3147015659633413,-0.3,0.0,1.0,257.0,506.0,0.0,1,2237.0,0
500,500,0.8604201233100183,0.9,0.0,0.0,265.0,927.0,0.0,1,1808.0,1
501,501,-0.7723108200041034,-0.8,1.0,0.0,250.0,656.0,1.0,1,-726.0,0
502,502,0.45022586842094847,0.5,0.0,0.0,290.0,759.0,0.0,1,1951.0,1
503,503,-0.8785544889214671,-0.9,0.0,1.0,362.0,514.0,0.0,1,2124.0,0
504,504,-0.7853638823779661,-0.8,1.0,0.0,310.0,734.0,0.0,0,1956.0,1
505,505,-0.44905314451060707,-0.4,1.0,0.0,446.0,505.0,0.0,0,2049.0,1
506,506,0.09690795171443478,0.1,1.0,1.0,327.0,942.0,0.0,0,1731.0,0
507,507,0.217970847108644,0.2,0.0,0.0,436.0,895.0,0.0,1,1669.0,1
508,508,0.16991748179581279,0.2,0.0,0.0,424.0,872.0,0.0,1,1704.0,1
509,509,-0.754552662138252,-0.8,0.0,1.0,441.0,571.0,0.0,1,1988.0,0
510,510,0.47989378058895393,0.5,0.0,0.0,464.0,557.0,0.0,1,1979.0,1
511,511,-0.6920668314657232,-0.7,0.0,1.0,326.0,870.0,0.0,1,1804.0,0
512,512,0.15647150071304028,0.2,0.0,0.0,321.0,791.0,0.0,1,1888.0,1
513,513,-0.024888801339100652,-0.0,1.0,0.0,367.0,619.0,0.0,0,2014.0,1
514,514,0.6195091537055829,0.6,0.0,0.0,310.0,631.0,0.0,1,2059.0,1
515,515,-0.4275533278729836,-0.4,1.0,0.0,340.0,646.0,0.0,0,2014.0,1
516,516,-0.3326614862582208,-0.3,0.0,1.0,331.0,568.0,1.0,0,-679.0,1
517,517,-0.17935899678012157,-0.2,1.0,0.0,251.0,853.0,0.0,0,1896.0,1
518,518,-0.6363997590278216,-0.6,0.0,1.0,320.0,764.0,0.0,1,1916.0,0
519,519,-0.8216121072228183,-0.8,0.0,1.0,482.0,910.0,0.0,1,1608.0,0
520,520,0.18562173794867232,0.2,0.0,0.0,458.0,628.0,0.0,1,1914.0,1
521,521,-0.29847515623370646,-0.3,1.0,0.0,482.0,621.0,0.0,0,1897.0,1
522,522,-0.4033135304910466,-0.4,0.0,1.0,461.0,550.0,0.0,1,1989.0,0
523,523,0.017513739817516027,0.0,1.0,1.0,466.0,716.0,1.0,1,-882.0,1
524,524,-0.4091152220984392,-0.4,0.0,1.0,293.0,652.0,0.0,1,2055.0,0
525,525,-0.4092046906850601,-0.4,1.0,0.0,425.0,502.0,0.0,0,2073.0,1
526,526,0.7580197334234021,0.8,1.0,1.0,439.0,691.0,0.0,0,1870.0,0
527,527,0.3702854679031612,0.4,1.0,1.0,459.0,940.0,0.0,0,1601.0,0
528,528,0.7286629342141576,0.7,1.0,1.0,391.0,909.0,0.0,0,1700.0,0
529,529,-0.5548053262894457,-0.6,0.0,1.0,329.0,939.0,0.0,1,1732.0,0
530,530,0.6326323787977001,0.6,0.0,0.0,388.0,949.0,0.0,1,1663.0,1
531,531,-0.07106889513164993,-0.1,0.0,1.0,304.0,819.0,0.0,1,1877.0,0
532,532,-0.744763606905826,-0.7,1.0,0.0,392.0,803.0,0.0,0,1805.0,1
533,533,-0.4361820095791327,-0.4,1.0,0.0,428.0,777.0,0.0,0,1795.0,1
534,534,0.5747765410616171,0.6,0.0,0.0,353.0,626.0,0.0,1,2021.0,1
535,535,-0.8717484172918343,-0.9,0.0,1.0,483.0,559.0,0.0,1,1958.0,0
536,536,0.587092235188745,0.6,0.0,0.0,333.0,539.0,0.0,1,2128.0,1
537,537,0.13610375088216176,0.1,1.0,1.0,477.0,700.0,0.0,0,1823.0,0
538,538,0.6468722334729925,0.6,0.0,0.0,404.0,668.0,0.0,1,1928.0,1
539,539,0.59545556113004,0.6,1.0,1.0,470.0,708.0,0.0,0,1822.0,0
540,540,-0.42211316632792323,-0.4,1.0,0.0,354.0,971.0,0.0,0,1675.0,1
541,541,-0.6414119847089503,-0.6,1.0,0.0,259.0,556.0,0.0,0,2185.0,1
542,542,-0.7395755529246063,-0.7,0.0,1.0,260.0,602.0,0.0,1,2138.0,0
543,543,0.6007573238617597,0.6,0.0,0.0,492.0,514.0,0.0,1,-956.0,1
544,544,0.5972624926814946,0.6,1.0,1.0,349.0,616.0,0.0,0,2035.0,0
545,545,-0.8922822863417066,-0.9,1.0,0.0,255.0,850.0,0.0,0,1895.0,1
546,546,0.8729875938629915,0.9,0.0,0.0,330.0,776.0,0.0,1,1894.0,1
547,547,-0.8271738160244861,-0.8,0.0,1.0,432.0,528.0,0.0,1,2040.0,0
548,548,-0.5204778756904814,-0.5,1.0,0.0,466.0,926.0,0.0,0,1608.0,1
549,549,0.47892107221460367,0.5,0.0,0.0,297.0,686.0,0.0,1,2017.0,1
550,550,-0.400517291062601,-0.4,1.0,0.0,264.0,672.0,0.0,0,2064.0,1
551,551,0.38819342654237465,0.4,0.0,0.0,428.0,681.0,0.0,1,1891.0,1
552,552,-0.10314629413329401,-0.1,0.0,1.0,368.0,548.0,0.0,1,2084.0,0
553,553,-0.8732196076151011,-0.9,1.0,0.0,299.0,990.0,1.0,1,-1229.0,0
554,554,-0.8351927071528175,-0.8,1.0,0.0,431.0,683.0,0.0,0,1886.0,1
555,555,0.47179880581849354,0.5,0.0,0.0,335.0,752.0,0.0,1,1913.0,1
556,556,-0.5744204545485458,-0.6,1.0,0.0,264.0,822.0,0.0,0,1914.0,1
557,557,0.5782586606427268,0.6,0.0,0.0,255.0,564.0,0.0,1,2181.0,1
558,558,0.4341543580371995,0.4,0.0,0.0,362.0,554.0,0.0,1,2084.0,1
559,559,0.5127312016656361,0.5,1.0,1.0,425.0,521.0,0.0,0,2054.0,0
560,560,-0.29919300217536293,-0.3,1.0,0.0,281.0,820.0,0.0,0,1899.0,1
561,561,0.3608002742534001,0.4,0.0,0.0,330.0,505.0,0.0,1,2165.0,1
562,562,-0.30000957654439864,-0.3,0.0,1.0,323.0,748.0,0.0,1,1929.0,0
563,563,-0.7811400427917319,-0.8,0.0,1.0,372.0,736.0,0.0,1,1892.0,0
564,564,-0.6785093908633815,-0.7,1.0,0.0,353.0,752.0,0.0,0,1895.0,1
565,565,0.7967186209696434,0.8,0.0,0.0,339.0,685.0,0.0,1,1976.0,1
566,566,0.4279172751444983,0.4,1.0,1.0,386.0,578.0,0.0,0,2036.0,0
567,567,-0.17295700972801198,-0.2,1.0,0.0,430.0,666.0,0.0,0,1904.0,1
568,568,-0.8419754455362459,-0.8,1.0,0.0,438.0,910.0,0.0,0,1652.0,1
569,569,0.3124703491366817,0.3,0.0,0.0,295.0,537.0,0.0,1,2168.0,1
570,570,-0.4705071533761055,-0.5,0.0,1.0,428.0,751.0,0.0,1,1821.0,0
571,571,-0.8911450883771631,-0.9,1.0,0.0,461.0,782.0,0.0,0,1757.0,1
572,572,0.5126426354983454,0.5,0.0,0.0,393.0,717.0,1.0,0,-910.0,0
573,573,0.5294207502714802,0.5,0.0,0.0,489.0,579.0,0.0,1,1932.0,1
574,574,0.7200674498357568,0.7,0.0,0.0,272.0,927.0,0.0,1,1801.0,1
575,575,-0.33232081262347435,-0.3,1.0,0.0,435.0,969.0,0.0,0,1596.0,1
576,576,0.5001712095977916,0.5,1.0,1.0,256.0,907.0,0.0,0,1837.0,0
577,577,0.809069962807223,0.8,1.0,1.0,482.0,810.0,0.0,0,1708.0,0
578,578,0.44023976038322055,0.4,0.0,0.0,489.0,934.0,0.0,1,1577.0,1
579,579,-0.13713048448561627,-0.1,1.0,0.0,309.0,581.0,0.0,0,2110.0,1
580,580,0.186808405112043,0.2,1.0,1.0,436.0,673.0,0.0,0,1891.0,0
581,581,0.007577607915099982,0.0,0.0,0.0,332.0,770.0,0.0,1,1898.0,1
582,582,0.5883900994925243,0.6,0.0,0.0,400.0,725.0,0.0,1,1875.0,1
583,583,-0.8416311001436505,-0.8,1.0,0.0,348.0,558.0,0.0,0,2094.0,1
584,584,0.4463640320723027,0.4,0.0,0.0,455.0,646.0,0.0,1,1899.0,1
585,585,0.4277686553271026,0.4,0.0,0.0,357.0,972.0,0.0,1,1671.0,1
586,586,-0.29186779417919584,-0.3,0.0,1.0,274.0,685.0,0.0,1,2041.0,0
587,587,0.6576831070422852,0.7,1.0,1.0,284.0,756.0,0.0,0,1960.0,0
588,588,0.6440665231691997,0.6,0.0,0.0,445.0,596.0,0.0,1,1959.0,1
589,589,-0.8381153961442959,-0.8,1.0,0.0,337.0,990.0,0.0,0,1673.0,1
590,590,-0.33940690957574005,-0.3,1.0,0.0,252.0,557.0,0.0,0,2191.0,1
591,591,-0.0062482518036608425,-0.0,0.0,1.0,477.0,654.0,0.0,1,1869.0,0
592,592,0.7629518271662393,0.8,0.0,0.0,341.0,808.0,1.0,0,-939.0,0
593,593,0.8173449433662218,0.8,0.0,0.0,478.0,726.0,0.0,1,1796.0,1
594,594,0.17948091909007202,0.2,0.0,0.0,346.0,844.0,0.0,1,1810.0,1
595,595,-0.6811736199314614,-0.7,1.0,0.0,411.0,724.0,0.0,0,1865.0,1
596,596,0.5417275122271986,0.5,0.0,0.0,366.0,911.0,0.0,1,1723.0,1
597,597,0.6576082102408211,0.7,1.0,1.0,279.0,690.0,0.0,0,2031.0,0
598,598,0.3664253002551411,0.4,1.0,1.0,389.0,636.0,1.0,1,-855.0,1
599,599,0.777311863326201,0.8,0.0,0.0,487.0,577.0,1.0,0,-1044.0,0
600,600,-0.8470996509218782,-0.8,0.0,1.0,420.0,989.0,0.0,1,1591.0,0
601,601,0.004336212205387935,0.0,0.0,0.0,341.0,669.0,0.0,1,1990.0,1
602,602,0.5898520071744778,0.6,0.0,0.0,325.0,972.0,0.0,1,1703.0,1
603,603,0.12063630038183437,0.1,1.0,1.0,342.0,969.0,0.0,0,1689.0,0
604,604,-0.20756929388837253,-0.2,0.0,1.0,451.0,768.0,0.0,1,1781.0,0
605,605,-0.5199430515063801,-0.5,1.0,0.0,491.0,582.0,0.0,0,1927.0,1
606,606,-0.6292330118338563,-0.6,1.0,0.0,364.0,720.0,0.0,0,1916.0,1
607,607,-0.5947063297777619,-0.6,1.0,0.0,464.0,736.0,0.0,0,1800.0,1
608,608,0.458433036035813,0.5,0.0,0.0,345.0,674.0,0.0,1,1981.0,1
609,609,0.1842853860865884,0.2,0.0,0.0,353.0,572.0,0.0,1,2075.0,1
610,610,0.2577090786059283,0.3,1.0,1.0,257.0,777.0,0.0,0,1966.0,0
611,611,-0.3601615029679964,-0.4,1.0,0.0,384.0,984.0,0.0,0,1632.0,1
612,612,-0.5724184250118467,-0.6,0.0,1.0,253.0,595.0,0.0,1,2152.0,0
613,613,-0.4939702430933967,-0.5,1.0,0.0,259.0,676.0,0.0,0,2065.0,1
614,614,-0.12905820993074735,-0.1,0.0,1.0,396.0,664.0,0.0,1,1940.0,0
615,615,-0.034313647476755804,-0.0,0.0,1.0,314.0,660.0,0.0,1,2026.0,0
616,616,-0.39274298142934816,-0.4,0.0,1.0,438.0,875.0,0.0,1,1687.0,0
617,617,0.8947331912549105,0.9,1.0,1.0,427.0,775.0,0.0,0,1798.0,0
618,618,-0.7278309335251366,-0.7,1.0,0.0,399.0,523.0,0.0,0,2078.0,1
619,619,-0.609512117229241,-0.6,0.0,1.0,401.0,531.0,0.0,1,2068.0,0
620,620,0.8829879826273298,0.9,0.0,0.0,318.0,628.0,0.0,1,2054.0,1
621,621,0.8179748541261765,0.8,1.0,1.0,457.0,606.0,0.0,0,1937.0,0
622,622,0.20195265343703583,0.2,1.0,1.0,370.0,567.0,0.0,0,2063.0,0
623,623,0.14446976842413284,0.1,0.0,0.0,458.0,827.0,0.0,1,1715.0,1
624,624,-0.0792627042109294,-0.1,0.0,1.0,388.0,960.0,0.0,1,1652.0,0
625,625,0.8347026082596175,0.8,0.0,0.0,373.0,589.0,0.0,1,2038.0,1
626,626,-0.7831625500489166,-0.8,1.0,0.0,429.0,898.0,0.0,0,1673.0,1
627,627,-0.0016760508792210693,-0.0,0.0,1.0,448.0,682.0,0.0,1,1870.0,0
628,628,0.2074228339594658,0.2,0.0,0.0,346.0,842.0,0.0,1,1812.0,1
629,629,0.8717321997618922,0.9,0.0,0.0,411.0,762.0,0.0,1,1827.0,1
630,630,0.6343720430537086,0.6,0.0,0.0,469.0,585.0,0.0,1,1946.0,1
631,631,-0.8879152784041228,-0.9,1.0,0.0,481.0,546.0,0.0,0,1973.0,1
632,632,-0.5746325444622936,-0.6,1.0,0.0,417.0,929.0,0.0,0,1654.0,1
633,633,0.6696580847811878,0.7,0.0,0.0,322.0,990.0,0.0,1,1688.0,1
634,634,0.32127624633406715,0.3,1.0,1.0,319.0,808.0,0.0,0,1873.0,0
635,635,0.08911753928687449,0.1,0.0,0.0,361.0,679.0,0.0,1,1960.0,1
636,636,-0.8130347975860722,-0.8,0.0,1.0,389.0,986.0,0.0,1,1625.0,0
637,637,-0.2220078029647119,-0.2,0.0,1.0,417.0,797.0,0.0,1,1786.0,0
638,638,-0.48706919585125685,-0.5,0.0,1.0,312.0,872.0,0.0,1,1816.0,0
639,639,-0.2989904088241341,-0.3,0.0,1.0,443.0,593.0,0.0,1,1964.0,0
640,640,-0.509251366977849,-0.5,0.0,1.0,316.0,873.0,0.0,1,1811.0,0
641,641,-0.19988506977392761,-0.2,1.0,0.0,385.0,951.0,0.0,0,1664.0,1
642,642,-0.08118637063747758,-0.1,1.0,0.0,444.0,938.0,0.0,0,1618.0,1
643,643,-0.12037451160752877,-0.1,1.0,0.0,325.0,560.0,1.0,1,-825.0,0
644,644,0.25290245662033584,0.3,1.0,1.0,457.0,559.0,0.0,0,1984.0,0
645,645,-0.13393159551591471,-0.1,0.0,1.0,492.0,952.0,1.0,0,-1394.0,1
646,646,-0.2908804713096864,-0.3,1.0,0.0,476.0,755.0,0.0,0,1769.0,1
647,647,0.3742950511833302,0.4,0.0,0.0,368.0,568.0,1.0,0,-596.0,0
648,648,-0.5246105274890512,-0.5,0.0,1.0,294.0,970.0,0.0,1,1736.0,0
649,649,0.8832736516672616,0.9,0.0,0.0,316.0,756.0,0.0,1,1928.0,1
650,650,-0.33771126026113807,-0.3,1.0,0.0,351.0,867.0,0.0,0,1782.0,1
651,651,0.1291433159970089,0.1,0.0,0.0,295.0,853.0,0.0,1,1852.0,1
652,652,0.8820591349513597,0.9,0.0,0.0,362.0,771.0,0.0,1,1867.0,1
653,653,-0.0833799614721078,-0.1,0.0,1.0,361.0,856.0,0.0,1,-1067.0,0
654,654,-0.4108169067986059,-0.4,1.0,0.0,271.0,885.0,0.0,0,1844.0,1
655,655,-0.525472994860154,-0.5,0.0,1.0,378.0,984.0,0.0,1,1638.0,0
656,656,0.017616657012649584,0.0,0.0,0.0,446.0,587.0,0.0,1,1967.0,1
657,657,-0.4476173385488417,-0.4,0.0,1.0,495.0,914.0,0.0,1,1591.0,0
658,658,-0.7388577471417266,-0.7,0.0,1.0,351.0,923.0,0.0,1,1726.0,0
659,659,0.33015188258525285,0.3,1.0,1.0,459.0,544.0,0.0,0,1997.0,0
660,660,0.2987601146041229,0.3,1.0,1.0,328.0,692.0,0.0,0,1980.0,0
661,661,0.613936456893425,0.6,0.0,0.0,335.0,780.0,0.0,1,1885.0,1
662,662,0.0578151496795154,0.1,1.0,1.0,317.0,630.0,0.0,0,2053.0,0
663,663,0.6205356912334322,0.6,1.0,1.0,307.0,653.0,0.0,0,2040.0,0
664,664,0.4091280867153707,0.4,0.0,0.0,385.0,982.0,0.0,1,-1267.0,1
665,665,-0.4164983516169297,-0.4,0.0,1.0,300.0,597.0,0.0,1,2103.0,0
666,666,-0.7332000428177248,-0.7,0.0,1.0,433.0,564.0,0.0,1,2003.0,0
667,667,0.7958623544699986,0.8,0.0,0.0,261.0,769.0,0.0,1,1970.0,1
668,668,-0.41462586471730023,-0.4,0.0,1.0,369.0,865.0,0.0,1,1766.0,0
669,669,-0.2142798638384794,-0.2,1.0,0.0,279.0,733.0,0.0,0,1988.0,1
670,670,0.35880696345093777,0.4,0.0,0.0,490.0,950.0,1.0,0,-1290.0,0
671,671,0.3167037486394332,0.3,1.0,1.0,463.0,903.0,1.0,1,-1076.0,1
672,672,0.7117021921865235,0.7,0.0,0.0,292.0,593.0,0.0,1,2115.0,1
673,673,-0.3109598576670092,-0.3,1.0,0.0,314.0,574.0,0.0,0,2112.0,1
674,674,0.41395074001073573,0.4,0.0,0.0,265.0,504.0,0.0,1,2231.0,1
675,675,-0.3699203499158359,-0.4,1.0,0.0,421.0,803.0,0.0,0,1776.0,1
676,676,0.2839854053652745,0.3,1.0,1.0,423.0,580.0,0.0,0,1997.0,0
677,677,0.5598573076165322,0.6,0.0,0.0,384.0,963.0,0.0,1,1653.0,1
678,678,-0.7473908295062607,-0.7,0.0,1.0,434.0,651.0,0.0,1,1915.0,0
679,679,0.3708754994011435,0.4,1.0,1.0,457.0,679.0,0.0,0,1864.0,0
680,680,0.4799287007884635,0.5,0.0,0.0,361.0,560.0,0.0,1,2079.0,1
681,681,0.6125545848875363,0.6,1.0,1.0,470.0,817.0,1.0,1,-1117.0,1
682,682,-0.5594992084851591,-0.6,0.0,1.0,308.0,945.0,0.0,1,1747.0,0
683,683,-0.7629557362290748,-0.8,0.0,1.0,490.0,851.0,0.0,1,1659.0,0
684,684,-0.706343072122404,-0.7,0.0,1.0,425.0,718.0,1.0,0,-1073.0,1
685,685,0.8938842542782807,0.9,1.0,1.0,367.0,847.0,0.0,0,1786.0,0
686,686,-0.4282903761912121,-0.4,0.0,1.0,294.0,979.0,0.0,1,1727.0,0
687,687,0.525290926447357,0.5,1.0,1.0,411.0,695.0,0.0,0,1894.0,0
688,688,-0.8621359436414817,-0.9,0.0,1.0,441.0,639.0,0.0,1,1920.0,0
689,689,0.8769271624146365,0.9,0.0,0.0,386.0,703.0,0.0,1,1911.0,1
690,690,0.553045926026844,0.6,0.0,0.0,253.0,526.0,0.0,1,2221.0,1
691,691,0.11590643518856802,0.1,0.0,0.0,410.0,683.0,0.0,1,1907.0,1
692,692,0.37316878972166967,0.4,1.0,1.0,264.0,503.0,0.0,0,2233.0,0
693,693,-0.601535153571932,-0.6,1.0,0.0,456.0,799.0,0.0,0,1745.0,1
694,694,0.4654611090921644,0.5,1.0,1.0,327.0,881.0,0.0,0,1792.0,0
695,695,0.3890574531559562,0.4,0.0,0.0,436.0,973.0,0.0,1,1591.0,1
696,696,-0.7099801058635341,-0.7,0.0,1.0,335.0,830.0,1.0,0,-885.0,1
697,697,0.3925780505474946,0.4,1.0,1.0,263.0,734.0,0.0,0,2003.0,0
698,698,-0.0826747290351123,-0.1,0.0,1.0,363.0,604.0,0.0,1,-697.0,0
699,699,0.6158921675460324,0.6,0.0,0.0,458.0,832.0,0.0,1,1710.0,1
700,700,0.6963068042961787,0.7,0.0,0.0,354.0,910.0,0.0,1,1736.0,1
701,701,-0.45095415677862577,-0.5,0.0,1.0,274.0,564.0,0.0,1,2162.0,0
702,702,0.024013990076611536,0.0,0.0,0.0,375.0,827.0,0.0,1,1798.0,1
703,703,-0.012296025755014317,-0.0,1.0,0.0,442.0,692.0,0.0,0,1866.0,1
704,704,0.1954386745984139,0.2,1.0,1.0,286.0,554.0,1.0,1,-710.0,1
705,705,0.6687455734390345,0.7,1.0,1.0,353.0,832.0,0.0,0,1815.0,0
706,706,0.5530982446299814,0.6,0.0,0.0,480.0,833.0,0.0,1,1687.0,1
707,707,0.3392806421358824,0.3,1.0,1.0,476.0,631.0,0.0,0,1893.0,0
708,708,0.08476512744994058,0.1,1.0,1.0,270.0,863.0,0.0,0,1867.0,0
709,709,-0.6040400803537173,-0.6,1.0,0.0,496.0,560.0,1.0,1,-796.0,0
710,710,-0.1874956222234696,-0.2,0.0,1.0,498.0,662.0,0.0,1,1840.0,0
711,711,-0.5274776025971659,-0.5,1.0,0.0,447.0,844.0,0.0,0,1709.0,1
712,712,0.5907699846521587,0.6,0.0,0.0,333.0,580.0,0.0,1,2087.0,1
713,713,0.22754642529635694,0.2,1.0,1.0,487.0,776.0,0.0,0,1737.0,0
714,714,-0.08008952616391773,-0.1,0.0,1.0,494.0,798.0,1.0,0,-1242.0,1
715,715,-0.369659962730045,-0.4,0.0,1.0,333.0,822.0,0.0,1,-985.0,0
716,716,0.6115109558484625,0.6,0.0,0.0,267.0,934.0,0.0,1,1799.0,1
717,717,-0.10964571723427363,-0.1,1.0,0.0,446.0,664.0,0.0,0,1890.0,1
718,718,0.7695210777737115,0.8,0.0,0.0,375.0,530.0,0.0,1,2095.0,1
719,719,-0.0025955352921468444,-0.0,1.0,0.0,481.0,700.0,0.0,0,1819.0,1
720,720,0.1475621528518688,0.1,1.0,1.0,485.0,581.0,0.0,0,1934.0,0
721,721,-0.3673152933736644,-0.4,0.0,1.0,415.0,984.0,0.0,1,1601.0,0
722,722,0.3926782414900948,0.4,0.0,0.0,465.0,557.0,0.0,1,1978.0,1
723,723,0.17223032073926248,0.2,1.0,1.0,467.0,855.0,0.0,0,1678.0,0
724,724,-0.17339172367943656,-0.2,0.0,1.0,483.0,743.0,0.0,1,1774.0,0
725,725,0.42729316399104544,0.4,1.0,1.0,440.0,892.0,0.0,0,1668.0,0
726,726,-0.6203085042784848,-0.6,1.0,0.0,311.0,805.0,0.0,0,1884.0,1
727,727,-0.2421867417191066,-0.2,0.0,1.0,491.0,741.0,0.0,1,1768.0,0
728,728,-0.04576961670319879,-0.0,0.0,1.0,473.0,916.0,0.0,1,1611.0,0
729,729,0.38046693882111315,0.4,0.0,0.0,441.0,701.0,0.0,1,1858.0,1
730,730,-0.18451960571354709,-0.2,1.0,0.0,268.0,792.0,0.0,0,1940.0,1
731,731,0.8065904697106995,0.8,1.0,1.0,473.0,692.0,0.0,0,1835.0,0
732,732,0.8397601690542621,0.8,0.0,0.0,339.0,631.0,0.0,1,2030.0,1
733,733,-0.5683433205114873,-0.6,0.0,1.0,362.0,544.0,0.0,1,2094.0,0
734,734,0.06809972168702327,0.1,1.0,1.0,340.0,731.0,0.0,0,1929.0,0
735,735,-0.22644620794091352,-0.2,1.0,0.0,345.0,582.0,0.0,0,2073.0,1
736,736,0.3897348868171263,0.4,0.0,0.0,388.0,655.0,0.0,1,1957.0,1
737,737,0.1514720445641703,0.2,1.0,1.0,483.0,691.0,0.0,0,1826.0,0
738,738,-0.1979230620876269,-0.2,1.0,0.0,278.0,953.0,0.0,0,1769.0,1
739,739,0.8301007545819642,0.8,0.0,0.0,327.0,890.0,0.0,1,1783.0,1
740,740,0.39028087602703876,0.4,1.0,1.0,367.0,786.0,0.0,0,1847.0,0
741,741,0.8514229249122792,0.9,0.0,0.0,298.0,790.0,0.0,1,1912.0,1
742,742,-0.2222243390195856,-0.2,0.0,1.0,397.0,516.0,0.0,1,2087.0,0
743,743,-0.7688255310206262,-0.8,1.0,0.0,449.0,799.0,0.0,0,1752.0,1
744,744,0.12334025532716886,0.1,1.0,1.0,264.0,599.0,0.0,0,2137.0,0
745,745,-0.10379361178163171,-0.1,1.0,0.0,377.0,870.0,0.0,0,1753.0,1
746,746,-0.7835112462317169,-0.8,0.0,1.0,393.0,852.0,0.0,1,1755.0,0
747,747,0.6062517950883329,0.6,0.0,0.0,366.0,796.0,0.0,1,1838.0,1
748,748,0.8358153858150398,0.8,0.0,0.0,481.0,953.0,0.0,1,1566.0,1
749,749,0.1312582917137607,0.1,0.0,0.0,286.0,969.0,0.0,1,1745.0,1
750,750,0.4236964446603829,0.4,1.0,1.0,376.0,517.0,0.0,0,2107.0,0
751,751,-0.3602045566534712,-0.4,1.0,0.0,297.0,607.0,0.0,0,2096.0,1
752,752,0.49753953663586714,0.5,0.0,0.0,355.0,697.0,0.0,1,1948.0,1
753,753,-0.3903964883056791,-0.4,1.0,0.0,328.0,554.0,0.0,0,2118.0,1
754,754,-0.37351299963675166,-0.4,1.0,0.0,371.0,594.0,0.0,0,2035.0,1
755,755,-0.8144413546647712,-0.8,1.0,0.0,465.0,778.0,0.0,0,1757.0,1
756,756,0.38237407110624055,0.4,0.0,0.0,455.0,705.0,0.0,1,1840.0,1
757,757,0.8141160237401862,0.8,0.0,0.0,485.0,551.0,1.0,0,-656.0,0
758,758,-0.3565796494433068,-0.4,0.0,1.0,327.0,799.0,0.0,1,1874.0,0
759,759,0.35899553388812044,0.4,0.0,0.0,429.0,668.0,0.0,1,1903.0,1
760,760,0.6008745889532551,0.6,0.0,0.0,332.0,720.0,0.0,1,1948.0,1
761,761,0.4330910971854124,0.4,0.0,0.0,448.0,907.0,0.0,1,1645.0,1
762,762,-0.22961580302072815,-0.2,0.0,1.0,392.0,562.0,0.0,1,2046.0,0
763,763,-0.4191006426002057,-0.4,0.0,1.0,305.0,918.0,0.0,1,1777.0,0
764,764,-0.19204504955233337,-0.2,1.0,0.0,408.0,615.0,0.0,0,1977.0,1
765,765,-0.8416146873894198,-0.8,0.0,1.0,426.0,905.0,1.0,0,-1051.0,1
766,766,-0.09311080560739349,-0.1,0.0,1.0,272.0,605.0,0.0,1,2123.0,0
767,767,-0.4648216659521818,-0.5,1.0,0.0,455.0,566.0,0.0,0,1979.0,1
768,768,0.6887969517682456,0.7,1.0,1.0,498.0,996.0,1.0,1,-1464.0,1
769,769,-0.07770458427526361,-0.1,1.0,0.0,385.0,634.0,0.0,0,1981.0,1
770,770,-0.3033794075571489,-0.3,1.0,0.0,365.0,740.0,0.0,0,1895.0,1
771,771,-0.1668287243355352,-0.2,1.0,0.0,264.0,642.0,0.0,0,2094.0,1
772,772,0.22051767122958232,0.2,0.0,0.0,319.0,898.0,0.0,1,1783.0,1
773,773,-0.5259338533242908,-0.5,1.0,0.0,411.0,599.0,0.0,0,1990.0,1
774,774,0.4719589033944048,0.5,0.0,0.0,259.0,843.0,0.0,1,1898.0,1
775,775,0.09423559034743201,0.1,0.0,0.0,343.0,874.0,0.0,1,1783.0,1
776,776,0.686391844839021,0.7,1.0,1.0,427.0,814.0,0.0,0,1759.0,0
777,777,0.7082052573744632,0.7,0.0,0.0,283.0,830.0,0.0,1,1887.0,1
778,778,-0.05671282686223755,-0.1,1.0,0.0,485.0,964.0,1.0,1,-1329.0,0
779,779,0.7650930217916904,0.8,1.0,1.0,478.0,505.0,0.0,0,2017.0,0
780,780,-0.7017364984558193,-0.7,1.0,0.0,283.0,646.0,0.0,0,2071.0,1
781,781,-0.13602822029439343,-0.1,1.0,0.0,338.0,851.0,0.0,0,-1039.0,1
782,782,-0.2576718494189042,-0.3,1.0,0.0,379.0,628.0,0.0,0,1993.0,1
783,783,-0.27640811492820516,-0.3,1.0,0.0,256.0,917.0,0.0,0,1827.0,1
784,784,-0.43161914027635545,-0.4,1.0,0.0,456.0,626.0,0.0,0,1918.0,1
785,785,0.10535407959936227,0.1,1.0,1.0,305.0,897.0,0.0,0,1798.0,0
786,786,0.7907536911901988,0.8,1.0,1.0,323.0,569.0,0.0,0,2108.0,0
787,787,0.8853617715935441,0.9,1.0,1.0,373.0,847.0,1.0,1,-970.0,1
788,788,-0.25828843374233645,-0.3,1.0,0.0,270.0,782.0,0.0,0,-1002.0,1
789,789,0.6238280909442674,0.6,0.0,0.0,273.0,669.0,0.0,1,2058.0,1
790,790,-0.5199891546807177,-0.5,1.0,0.0,453.0,624.0,0.0,0,1923.0,1
791,791,-0.6490342352732921,-0.6,1.0,0.0,347.0,720.0,0.0,0,-857.0,1
792,792,-0.001356659488878198,-0.0,1.0,0.0,467.0,524.0,0.0,0,2009.0,1
793,793,-0.8996242620114691,-0.9,0.0,1.0,295.0,951.0,0.0,1,1754.0,0
794,794,0.8856498412002479,0.9,1.0,1.0,441.0,814.0,0.0,0,1745.0,0
795,795,-0.7052433856722452,-0.7,1.0,0.0,458.0,998.0,0.0,0,1544.0,1
796,796,-0.03859068343200578,-0.0,0.0,1.0,348.0,916.0,0.0,1,1736.0,0
797,797,0.7280345718568187,0.7,0.0,0.0,386.0,707.0,0.0,1,1907.0,1
798,798,0.2627231398540638,0.3,1.0,1.0,412.0,678.0,0.0,0,1910.0,0
799,799,-0.33964465769631424,-0.3,0.0,1.0,429.0,655.0,0.0,1,1916.0,0
800,800,0.4848292618809976,0.5,0.0,0.0,408.0,695.0,0.0,1,1897.0,1
801,801,-0.6756823749876424,-0.7,1.0,0.0,335.0,742.0,0.0,0,1923.0,1
802,802,0.479363838051588,0.5,1.0,1.0,302.0,699.0,0.0,0,1999.0,0
803,803,0.7704393684689393,0.8,1.0,1.0,470.0,899.0,0.0,0,1631.0,0
804,804,-0.28547617572492456,-0.3,0.0,1.0,396.0,536.0,0.0,1,2068.0,0
805,805,0.8198095502777126,0.8,1.0,1.0,440.0,600.0,0.0,0,1960.0,0
806,806,0.021094909403571727,0.0,1.0,1.0,463.0,920.0,0.0,0,1617.0,0
807,807,-0.5563095449143854,-0.6,0.0,1.0,470.0,917.0,0.0,1,1613.0,0
808,808,0.7424139999214382,0.7,1.0,1.0,388.0,552.0,1.0,1,-900.0,1
809,809,0.6238603338437011,0.6,0.0,0.0,260.0,740.0,0.0,1,2000.0,1
810,810,-0.3222735975991031,-0.3,0.0,1.0,405.0,691.0,0.0,1,1904.0,0
811,811,-0.01870469202137448,-0.0,1.0,0.0,497.0,839.0,0.0,0,1664.0,1
812,812,-0.8421615760992873,-0.8,1.0,0.0,309.0,936.0,0.0,0,1755.0,1
813,813,0.3993170476213427,0.4,0.0,0.0,308.0,607.0,0.0,1,2085.0,1
814,814,-0.3711869097571995,-0.4,1.0,0.0,368.0,728.0,0.0,0,1904.0,1
815,815,0.24427850743148205,0.2,1.0,1.0,278.0,722.0,0.0,0,2000.0,0
816,816,-0.7842935762684922,-0.8,0.0,1.0,322.0,702.0,0.0,1,1976.0,0
817,817,-0.18371443161475842,-0.2,1.0,0.0,281.0,586.0,0.0,0,2133.0,1
818,818,-0.5800566786879271,-0.6,1.0,0.0,455.0,655.0,0.0,0,1890.0,1
819,819,-0.09771318741240942,-0.1,0.0,1.0,256.0,658.0,0.0,1,2086.0,0
820,820,0.8884265620025088,0.9,1.0,1.0,323.0,776.0,0.0,0,1901.0,0
821,821,-0.2850958154286728,-0.3,1.0,0.0,356.0,527.0,0.0,0,2117.0,1
822,822,0.8188830972253404,0.8,0.0,0.0,294.0,870.0,1.0,0,-1094.0,0
823,823,0.4127290235720108,0.4,0.0,0.0,448.0,501.0,0.0,1,2051.0,1
824,824,-0.33211247109215136,-0.3,1.0,0.0,484.0,621.0,0.0,0,1895.0,1
825,825,0.8958407087150092,0.9,1.0,1.0,395.0,874.0,1.0,1,-1119.0,1
826,826,0.6910518952963857,0.7,0.0,0.0,429.0,754.0,0.0,1,1817.0,1
827,827,-0.13895813018800207,-0.1,1.0,0.0,389.0,775.0,0.0,0,1836.0,1
828,828,-0.5303984936236229,-0.5,1.0,0.0,485.0,628.0,0.0,0,1887.0,1
829,829,-0.8328127377646797,-0.8,0.0,1.0,439.0,919.0,0.0,1,1642.0,0
830,830,0.4494312796299652,0.4,1.0,1.0,317.0,676.0,0.0,0,2007.0,0
831,831,0.7502053405844183,0.8,1.0,1.0,485.0,949.0,0.0,0,1566.0,0
832,832,-0.8510057466580054,-0.9,1.0,0.0,362.0,972.0,0.0,0,1666.0,1
833,833,0.32181927774706287,0.3,1.0,1.0,342.0,801.0,0.0,0,1857.0,0
834,834,-0.2082435577914088,-0.2,1.0,0.0,267.0,512.0,0.0,0,2221.0,1
835,835,-0.7893717079181686,-0.8,1.0,0.0,392.0,623.0,0.0,0,1985.0,1
836,836,-0.6712905549297519,-0.7,0.0,1.0,475.0,842.0,0.0,1,1683.0,0
837,837,-0.13369576107743508,-0.1,1.0,0.0,494.0,539.0,0.0,0,1967.0,1
838,838,0.037525151978342386,0.0,0.0,0.0,463.0,581.0,1.0,0,-954.0,0
839,839,-0.25336730131117524,-0.3,0.0,1.0,280.0,966.0,0.0,1,1754.0,0
840,840,-0.5105648482893674,-0.5,0.0,1.0,351.0,600.0,0.0,1,2049.0,0
841,841,0.7940413701595944,0.8,1.0,1.0,255.0,630.0,0.0,0,2115.0,0
842,842,0.33359771059129073,0.3,0.0,0.0,410.0,844.0,0.0,1,1746.0,1
843,843,-0.7112661318734336,-0.7,0.0,1.0,313.0,579.0,1.0,0,-792.0,1
844,844,0.74205917647988,0.7,0.0,0.0,482.0,776.0,0.0,1,1742.0,1
845,845,0.5174261552905427,0.5,0.0,0.0,303.0,736.0,0.0,1,1961.0,1
846,846,-0.08692502760489773,-0.1,0.0,1.0,449.0,942.0,0.0,1,1609.0,0
847,847,0.07847521652486611,0.1,0.0,0.0,427.0,628.0,0.0,1,1945.0,1
848,848,-0.29665711097221925,-0.3,0.0,1.0,468.0,595.0,0.0,1,1937.0,0
849,849,-0.5133753943389124,-0.5,0.0,1.0,349.0,860.0,0.0,1,1791.0,0
850,850,0.5514697487523962,0.6,1.0,1.0,454.0,986.0,0.0,0,1560.0,0
851,851,0.8948617717879811,0.9,1.0,1.0,289.0,685.0,0.0,0,2026.0,0
852,852,-0.2557998331884348,-0.3,0.0,1.0,457.0,697.0,0.0,1,1846.0,0
853,853,-0.34366649503553415,-0.3,0.0,1.0,480.0,839.0,0.0,1,1681.0,0
854,854,-0.40816515036923956,-0.4,1.0,0.0,440.0,531.0,0.0,0,2029.0,1
855,855,0.341439477678091,0.3,1.0,1.0,403.0,672.0,0.0,0,1925.0,0
856,856,-0.6148373550306785,-0.6,0.0,1.0,328.0,820.0,1.0,0,-1048.0,1
857,857,-0.8476079039349358,-0.8,1.0,0.0,467.0,959.0,0.0,0,1574.0,1
858,858,-0.4838408058048745,-0.5,1.0,0.0,313.0,886.0,0.0,0,1801.0,1
859,859,0.05040832089343372,0.1,1.0,1.0,362.0,999.0,0.0,0,1639.0,0
860,860,-0.5034591418743743,-0.5,1.0,0.0,352.0,781.0,0.0,0,1867.0,1
861,861,0.49926902838791476,0.5,0.0,0.0,374.0,655.0,0.0,1,1971.0,1
862,862,-0.008603428218663112,-0.0,1.0,0.0,379.0,778.0,0.0,0,1843.0,1
863,863,0.11989349855353837,0.1,1.0,1.0,306.0,942.0,0.0,0,1752.0,0
864,864,-0.8607543086686448,-0.9,0.0,1.0,318.0,571.0,0.0,1,2111.0,0
865,865,0.7559748927101192,0.8,0.0,0.0,497.0,679.0,0.0,1,1824.0,1
866,866,-0.7148254356039309,-0.7,0.0,1.0,450.0,711.0,0.0,1,1839.0,0
867,867,0.6894704490690432,0.7,1.0,1.0,339.0,549.0,0.0,0,2112.0,0
868,868,0.3727884958232873,0.4,0.0,0.0,352.0,734.0,0.0,1,1914.0,1
869,869,-0.7874048883116956,-0.8,0.0,1.0,262.0,804.0,0.0,1,1934.0,0
870,870,-0.30161483501984543,-0.3,0.0,1.0,363.0,824.0,0.0,1,1813.0,0
871,871,0.15848121363541134,0.2,0.0,0.0,276.0,939.0,0.0,1,1785.0,1
872,872,0.7717304372818209,0.8,1.0,1.0,266.0,910.0,0.0,0,1824.0,0
873,873,-0.14212174886396367,-0.1,0.0,1.0,359.0,833.0,0.0,1,1808.0,0
874,874,-0.5948878189197617,-0.6,1.0,0.0,452.0,997.0,0.0,0,1551.0,1
875,875,-0.3061574207155897,-0.3,0.0,1.0,415.0,933.0,0.0,1,1652.0,0
876,876,-0.4714833634198345,-0.5,1.0,0.0,313.0,608.0,0.0,0,2079.0,1
877,877,0.6838851940301264,0.7,1.0,1.0,394.0,826.0,0.0,0,1780.0,0
878,878,-0.33459767754258485,-0.3,1.0,0.0,312.0,556.0,0.0,0,2132.0,1
879,879,0.431118081242991,0.4,1.0,1.0,277.0,685.0,0.0,0,2038.0,0
880,880,0.2553562358569953,0.3,0.0,0.0,390.0,865.0,0.0,1,1745.0,1
881,881,-0.7872307168602494,-0.8,0.0,1.0,430.0,696.0,0.0,1,1874.0,0
882,882,0.8503424579986413,0.9,1.0,1.0,280.0,656.0,0.0,0,2064.0,0
883,883,0.3225560010254259,0.3,0.0,0.0,351.0,966.0,1.0,0,-1147.0,0
884,884,-0.7566765170087627,-0.8,1.0,0.0,290.0,599.0,0.0,0,2111.0,1
885,885,-0.7507464382202945,-0.8,0.0,1.0,486.0,670.0,0.0,1,-896.0,0
886,886,-0.3921147765755002,-0.4,0.0,1.0,465.0,585.0,0.0,1,1950.0,0
887,887,0.17750949776235003,0.2,0.0,0.0,255.0,957.0,0.0,1,1788.0,1
888,888,0.02265460087075233,0.0,0.0,0.0,485.0,861.0,0.0,1,1654.0,1
889,889,-0.8083645919082998,-0.8,0.0,1.0,264.0,818.0,0.0,1,1918.0,0
890,890,0.5126928005540371,0.5,1.0,1.0,346.0,734.0,0.0,0,1920.0,0
891,891,-0.21726395891118677,-0.2,0.0,1.0,404.0,805.0,0.0,1,1791.0,0
892,892,-0.236746053168026,-0.2,1.0,0.0,319.0,730.0,0.0,0,1951.0,1
893,893,-0.887739273888185,-0.9,0.0,1.0,289.0,715.0,1.0,0,-904.0,1
894,894,-0.4995123901990131,-0.5,0.0,1.0,425.0,689.0,0.0,1,1886.0,0
895,895,-0.09629044412982402,-0.1,1.0,0.0,485.0,761.0,0.0,0,1754.0,1
896,896,0.04033788579081421,0.0,1.0,1.0,431.0,573.0,0.0,0,1996.0,0
897,897,-0.5851364169570074,-0.6,1.0,0.0,494.0,985.0,0.0,0,1521.0,1
898,898,0.45482494344766733,0.5,1.0,1.0,272.0,699.0,0.0,0,2029.0,0
899,899,0.4157932368162317,0.4,1.0,1.0,402.0,747.0,0.0,0,1851.0,0
900,900,0.43170789710420465,0.4,0.0,0.0,453.0,646.0,0.0,1,1901.0,1
901,901,-0.8393090087627874,-0.8,0.0,1.0,471.0,573.0,0.0,1,1956.0,0
902,902,-0.44963935308919195,-0.4,1.0,0.0,346.0,618.0,0.0,0,2036.0,1
903,903,0.18999747476410878,0.2,1.0,1.0,267.0,972.0,0.0,0,1761.0,0
904,904,-0.2138875079470649,-0.2,1.0,0.0,264.0,670.0,0.0,0,2066.0,1
905,905,-0.8283733828854102,-0.8,1.0,0.0,282.0,563.0,0.0,0,2155.0,1
906,906,0.5219337875908113,0.5,1.0,1.0,384.0,816.0,0.0,0,1800.0,0
907,907,-0.20074233953697906,-0.2,1.0,0.0,308.0,940.0,0.0,0,1752.0,1
908,908,-0.5607818293995743,-0.6,1.0,0.0,419.0,562.0,0.0,0,2019.0,1
909,909,0.7197184050989688,0.7,0.0,0.0,465.0,576.0,0.0,1,1959.0,1
910,910,0.6537715302516748,0.7,1.0,1.0,372.0,595.0,0.0,0,2033.0,0
911,911,-0.8971665838749788,-0.9,0.0,1.0,444.0,904.0,0.0,1,1652.0,0
912,912,0.0901983088406676,0.1,0.0,0.0,380.0,778.0,0.0,1,1842.0,1
913,913,-0.2577255325212253,-0.3,0.0,1.0,471.0,982.0,0.0,1,1547.0,0
914,914,0.2557483061854141,0.3,0.0,0.0,304.0,952.0,0.0,1,1744.0,1
915,915,0.5578338001035016,0.6,0.0,0.0,418.0,646.0,0.0,1,1936.0,1
916,916,-0.7920055330074955,-0.8,1.0,0.0,280.0,561.0,0.0,0,2159.0,1
917,917,-0.05715871396091332,-0.1,1.0,0.0,327.0,907.0,0.0,0,1766.0,1
918,918,0.787845334972299,0.8,1.0,1.0,425.0,965.0,0.0,0,1610.0,0
919,919,0.276111483805508,0.3,1.0,1.0,294.0,735.0,0.0,0,1971.0,0
920,920,0.7533739643364975,0.8,1.0,1.0,345.0,950.0,1.0,1,-1225.0,1
921,921,-0.1503904282273274,-0.2,0.0,1.0,363.0,590.0,0.0,1,2047.0,0
922,922,-0.24374198873772812,-0.2,0.0,1.0,410.0,569.0,0.0,1,2021.0,0
923,923,0.8920915310053589,0.9,1.0,1.0,268.0,928.0,0.0,0,1804.0,0
924,924,0.08749876512255317,0.1,1.0,1.0,336.0,889.0,0.0,0,1775.0,0
925,925,-0.6540982325489175,-0.7,0.0,1.0,323.0,599.0,0.0,1,2078.0,0
926,926,-0.8130390870027973,-0.8,0.0,1.0,358.0,828.0,0.0,1,1814.0,0
927,927,-0.37937080169262105,-0.4,1.0,0.0,373.0,921.0,0.0,0,1706.0,1
928,928,0.58255141374493,0.6,1.0,1.0,261.0,963.0,0.0,0,1776.0,0
929,929,0.5257712639811521,0.5,1.0,1.0,475.0,994.0,1.0,1,-1429.0,1
930,930,-0.794171917054141,-0.8,0.0,1.0,482.0,863.0,0.0,1,1655.0,0
931,931,0.17058773324696708,0.2,0.0,0.0,469.0,706.0,0.0,1,1825.0,1
932,932,-0.2929604242990589,-0.3,1.0,0.0,347.0,813.0,0.0,0,1840.0,1
933,933,0.5748802645540111,0.6,1.0,1.0,315.0,538.0,0.0,0,2147.0,0
934,934,0.3296603473703229,0.3,0.0,0.0,482.0,794.0,0.0,1,1724.0,1
935,935,-0.4216539964042253,-0.4,1.0,0.0,397.0,827.0,0.0,0,1776.0,1
936,936,-0.24709758629250822,-0.2,0.0,1.0,459.0,841.0,0.0,1,1700.0,0
937,937,0.07836755924677774,0.1,0.0,0.0,330.0,612.0,0.0,1,2058.0,1
938,938,-0.7861399278142444,-0.8,0.0,1.0,496.0,521.0,0.0,1,1983.0,0
939,939,-0.10470305411765923,-0.1,1.0,0.0,297.0,625.0,0.0,0,2078.0,1
940,940,-0.8091530728707348,-0.8,0.0,1.0,336.0,906.0,0.0,1,1758.0,0
941,941,-0.8288563084498455,-0.8,1.0,0.0,293.0,702.0,1.0,1,-965.0,0
942,942,0.15192267865583242,0.2,0.0,0.0,376.0,796.0,0.0,1,1828.0,1
943,943,0.44242852842132085,0.4,1.0,1.0,386.0,521.0,0.0,0,2093.0,0
944,944,0.026160014086476946,0.0,0.0,0.0,448.0,710.0,0.0,1,1842.0,1
945,945,0.6861909567360168,0.7,0.0,0.0,289.0,996.0,0.0,1,1715.0,1
946,946,0.26773382530263456,0.3,0.0,0.0,335.0,771.0,0.0,1,1894.0,1
947,947,-0.708402714439879,-0.7,0.0,1.0,468.0,855.0,0.0,1,1677.0,0
948,948,-0.8590625587434809,-0.9,1.0,0.0,343.0,796.0,0.0,0,1861.0,1
949,949,-0.019299441853911192,-0.0,0.0,1.0,398.0,874.0,0.0,1,1728.0,0
950,950,-0.6531925016530034,-0.7,1.0,0.0,285.0,974.0,0.0,0,1741.0,1
951,951,-0.18852618896388795,-0.2,1.0,0.0,433.0,629.0,1.0,1,-872.0,0
952,952,-0.8463042082053182,-0.8,0.0,1.0,278.0,925.0,0.0,1,1797.0,0
953,953,-0.5948471094224306,-0.6,0.0,1.0,465.0,898.0,0.0,1,1637.0,0
954,954,0.6994448911635688,0.7,1.0,1.0,365.0,608.0,0.0,0,2027.0,0
955,955,-0.5142886797719642,-0.5,0.0,1.0,455.0,607.0,0.0,1,1938.0,0
956,956,-0.026659019480335888,-0.0,0.0,1.0,483.0,651.0,0.0,1,1866.0,0
957,957,0.8135573050585297,0.8,0.0,0.0,338.0,704.0,0.0,1,1958.0,1
958,958,-0.5464420402460253,-0.5,0.0,1.0,427.0,954.0,0.0,1,1619.0,0
959,959,0.7252476937003377,0.7,1.0,1.0,402.0,973.0,0.0,0,1625.0,0
960,960,0.1615512644863858,0.2,0.0,0.0,407.0,639.0,0.0,1,1954.0,1
961,961,-0.8936582298909853,-0.9,0.0,1.0,308.0,967.0,0.0,1,1725.0,0
962,962,-0.1864736715346893,-0.2,0.0,1.0,394.0,735.0,0.0,1,1871.0,0
963,963,-0.4278640617139768,-0.4,0.0,1.0,310.0,674.0,0.0,1,2016.0,0
964,964,0.5107466386871292,0.5,0.0,0.0,360.0,698.0,0.0,1,1942.0,1
965,965,-0.5278710664266866,-0.5,1.0,0.0,327.0,795.0,0.0,0,1878.0,1
966,966,-0.8438599680306692,-0.8,1.0,0.0,444.0,920.0,1.0,1,-914.0,0
967,967,0.6867638426189903,0.7,0.0,0.0,409.0,510.0,0.0,1,2081.0,1
968,968,-0.27042419880767676,-0.3,1.0,0.0,348.0,745.0,0.0,0,1907.0,1
969,969,0.25952162857681305,0.3,1.0,1.0,319.0,829.0,0.0,0,1852.0,0
970,970,-0.7089856160238204,-0.7,0.0,1.0,254.0,546.0,0.0,1,2200.0,0
971,971,-0.4549077483748027,-0.5,1.0,0.0,358.0,730.0,1.0,1,-1038.0,0
972,972,-0.34422302559946505,-0.3,1.0,0.0,434.0,973.0,0.0,0,1593.0,1
973,973,-0.3136087469443264,-0.3,0.0,1.0,408.0,843.0,0.0,1,1749.0,0
974,974,0.8250745499287092,0.8,0.0,0.0,292.0,877.0,0.0,1,1831.0,1
975,975,0.5655695828007411,0.6,0.0,0.0,450.0,681.0,0.0,1,1869.0,1
976,976,0.891979891075645,0.9,1.0,1.0,281.0,606.0,0.0,0,-697.0,0
977,977,0.10428408728653149,0.1,0.0,0.0,498.0,986.0,0.0,1,1516.0,1
978,978,0.2835467401058712,0.3,1.0,1.0,318.0,677.0,0.0,0,2005.0,0
979,979,-0.010134020862314075,-0.0,0.0,1.0,297.0,555.0,0.0,1,2148.0,0
980,980,0.6378644499327085,0.6,1.0,1.0,306.0,977.0,0.0,0,1717.0,0
981,981,-0.2491976451107598,-0.2,1.0,0.0,261.0,754.0,0.0,0,1985.0,1
982,982,-0.24019269838430501,-0.2,1.0,0.0,382.0,969.0,0.0,0,1649.0,1
983,983,0.3338100610085296,0.3,1.0,1.0,324.0,515.0,0.0,0,2161.0,0
984,984,0.7302053676984964,0.7,0.0,0.0,383.0,797.0,0.0,1,1820.0,1
985,985,0.753936014087694,0.8,0.0,0.0,359.0,663.0,0.0,1,1978.0,1
986,986,-0.7312117756190706,-0.7,1.0,0.0,403.0,899.0,0.0,0,1698.0,1
987,987,0.7523561600138439,0.8,1.0,1.0,334.0,509.0,1.0,1,-783.0,1
988,988,-0.44343170802551274,-0.4,1.0,0.0,477.0,537.0,0.0,0,1986.0,1
989,989,0.45018145807171905,0.5,0.0,0.0,421.0,791.0,0.0,1,1788.0,1
990,990,0.004685084209753887,0.0,0.0,0.0,474.0,832.0,0.0,1,1694.0,1
991,991,-0.5157609985443781,-0.5,1.0,0.0,427.0,872.0,0.0,0,1701.0,1
992,992,0.5177183778510467,0.5,0.0,0.0,305.0,533.0,0.0,1,2162.0,1
993,993,-0.5890401233338289,-0.6,1.0,0.0,410.0,560.0,0.0,0,2030.0,1
994,994,-0.20232819604505659,-0.2,0.0,1.0,436.0,997.0,0.0,1,1567.0,0
995,995,0.32654243127196814,0.3,1.0,1.0,398.0,612.0,0.0,0,1990.0,0
996,996,0.0292039178887874,0.0,1.0,1.0,271.0,865.0,0.0,0,1864.0,0
997,997,0.3818257261522512,0.4,0.0,0.0,376.0,764.0,0.0,1,1860.0,1
998,998,-0.6286455678645966,-0.6,1.0,0.0,441.0,594.0,0.0,0,1965.0,1
999,999,-0.3520326105657139,-0.4,1.0,0.0,466.0,609.0,0.0,0,1925.0,1
1000,1000,0.7022216580698745,0.7,0.0,0.0,349.0,996.0,0.0,1,1655.0,1
1001,1001,-0.4126736795640317,-0.4,1.0,0.0,351.0,515.0,0.0,0,2134.0,1
1002,1002,0.13184918486948594,0.1,0.0,0.0,266.0,805.0,0.0,1,1929.0,1
1003,1003,0.5655163022022557,0.6,1.0,1.0,411.0,727.0,0.0,0,1862.0,0
1004,1004,0.18028213107941882,0.2,1.0,1.0,406.0,621.0,0.0,0,1973.0,0
1005,1005,-0.8672178435816548,-0.9,0.0,1.0,457.0,890.0,0.0,1,-1107.0,0
1006,1006,-0.8987620111646372,-0.9,0.0,1.0,395.0,792.0,0.0,1,1813.0,0
1007,1007,0.7639417936490595,0.8,0.0,0.0,412.0,925.0,0.0,1,1663.0,1
1008,1008,-0.42772037077887215,-0.4,1.0,0.0,283.0,783.0,0.0,0,1934.0,1
1009,1009,-0.23475693817263998,-0.2,1.0,0.0,360.0,915.0,0.0,0,1725.0,1
1010,1010,-0.38540901287724616,-0.4,1.0,0.0,282.0,656.0,0.0,0,2062.0,1
1011,1011,-0.3995061704049171,-0.4,1.0,0.0,468.0,793.0,0.0,0,1739.0,1
1012,1012,-0.31693068707606,-0.3,1.0,0.0,313.0,571.0,0.0,0,-734.0,1
1013,1013,0.049664232625840854,0.0,1.0,1.0,264.0,647.0,0.0,0,2089.0,0
1014,1014,-0.7154650898580137,-0.7,0.0,1.0,413.0,536.0,0.0,1,2051.0,0
1015,1015,0.4549505395353083,0.5,1.0,1.0,397.0,881.0,1.0,1,-1238.0,1
1016,1016,0.2285722602544663,0.2,0.0,0.0,307.0,531.0,0.0,1,-608.0,1
1017,1017,-0.1645682213601911,-0.2,1.0,0.0,431.0,632.0,0.0,0,1937.0,1
1018,1018,-0.3108161874722106,-0.3,1.0,0.0,369.0,618.0,0.0,0,2013.0,1
1019,1019,-0.013293616983515055,-0.0,1.0,0.0,357.0,671.0,0.0,0,1972.0,1
1020,1020,0.7393823752634084,0.7,0.0,0.0,456.0,566.0,0.0,1,1978.0,1
1021,1021,-0.33126709326048587,-0.3,0.0,1.0,475.0,860.0,0.0,1,1665.0,0
1022,1022,-0.5861675124632555,-0.6,1.0,0.0,336.0,842.0,0.0,0,1822.0,1
1023,1023,-0.13205798042704797,-0.1,1.0,0.0,468.0,687.0,1.0,1,-1085.0,0
1024,1024,-0.7820841956233364,-0.8,0.0,1.0,262.0,799.0,1.0,0,-971.0,1
1025,1025,0.09463544459071249,0.1,0.0,0.0,346.0,895.0,0.0,1,1759.0,1
1026,1026,-0.49321038859259964,-0.5,1.0,0.0,454.0,962.0,1.0,1,-1126.0,0
1027,1027,0.844879170103621,0.8,0.0,0.0,431.0,828.0,1.0,0,-1139.0,0
1028,1028,0.1416841645325565,0.1,0.0,0.0,421.0,727.0,0.0,1,1852.0,1
1029,1029,0.03684865091934664,0.0,1.0,1.0,331.0,623.0,0.0,0,2046.0,0
1030,1030,-0.046032329490939716,-0.0,1.0,0.0,448.0,629.0,0.0,0,1923.0,1
1031,1031,-0.02367300015827345,-0.0,0.0,1.0,478.0,686.0,0.0,1,1836.0,0
1032,1032,0.7525860236346548,0.8,0.0,0.0,355.0,784.0,0.0,1,1861.0,1
1033,1033,0.3514715304063628,0.4,0.0,0.0,291.0,820.0,0.0,1,1889.0,1
1034,1034,-0.6638338622796279,-0.7,1.0,0.0,300.0,651.0,0.0,0,2049.0,1
1035,1035,0.3022891436726197,0.3,0.0,0.0,354.0,714.0,0.0,1,1932.0,1
1036,1036,-0.7399749995769894,-0.7,0.0,1.0,286.0,804.0,0.0,1,1910.0,0
1037,1037,-0.7016164070019965,-0.7,0.0,1.0,429.0,726.0,0.0,1,1845.0,0
1038,1038,-0.8640828303775083,-0.9,0.0,1.0,473.0,927.0,0.0,1,1600.0,0
1039,1039,-0.13088143832485333,-0.1,0.0,1.0,377.0,806.0,0.0,1,1817.0,0
1040,1040,0.4551192057413854,0.5,0.0,0.0,434.0,877.0,0.0,1,1689.0,1
1041,1041,-0.7624622856503307,-0.8,1.0,0.0,446.0,799.0,0.0,0,1755.0,1
1042,1042,0.02028834254261047,0.0,0.0,0.0,416.0,545.0,0.0,1,2039.0,1
1043,1043,-0.4542168834355274,-0.5,1.0,0.0,398.0,954.0,0.0,0,1648.0,1
1044,1044,0.14964734270101843,0.1,0.0,0.0,284.0,812.0,1.0,0,-1036.0,0
1045,1045,0.7536517456061517,0.8,1.0,1.0,456.0,526.0,0.0,0,2018.0,0
1046,1046,-0.5692487263595412,-0.6,0.0,1.0,440.0,544.0,0.0,1,2016.0,0
1047,1047,-0.2525034764587978,-0.3,1.0,0.0,253.0,731.0,0.0,0,2016.0,1
1048,1048,0.3531914371258459,0.4,1.0,1.0,320.0,902.0,0.0,0,1778.0,0
1049,1049,0.18059413361571697,0.2,0.0,0.0,491.0,587.0,0.0,1,1922.0,1
1050,1050,-0.02180428294902015,-0.0,0.0,1.0,462.0,827.0,0.0,1,1711.0,0
1051,1051,0.3194969312544974,0.3,0.0,0.0,486.0,568.0,0.0,1,1946.0,1
1052,1052,0.599006921616582,0.6,1.0,1.0,277.0,944.0,0.0,0,1779.0,0
1053,1053,-0.49063268815906996,-0.5,1.0,0.0,359.0,600.0,0.0,0,2041.0,1
1054,1054,0.2855995344382044,0.3,0.0,0.0,310.0,990.0,0.0,1,1700.0,1
1055,1055,0.7381229395378225,0.7,1.0,1.0,483.0,850.0,0.0,0,1667.0,0
1056,1056,0.7679336683069841,0.8,0.0,0.0,297.0,967.0,0.0,1,1736.0,1
1057,1057,-0.5656060942694424,-0.6,0.0,1.0,390.0,862.0,0.0,1,1748.0,0
1058,1058,-0.6640849196162184,-0.7,1.0,0.0,266.0,570.0,0.0,0,2164.0,1
1059,1059,-0.7902082303503886,-0.8,0.0,1.0,355.0,853.0,0.0,1,1792.0,0
1060,1060,0.40418115971584945,0.4,1.0,1.0,353.0,823.0,0.0,0,1824.0,0
1061,1061,0.26265558375188813,0.3,1.0,1.0,339.0,513.0,0.0,0,2148.0,0
1062,1062,-0.46341583367185074,-0.5,0.0,1.0,412.0,825.0,0.0,1,1763.0,0
1063,1063,-0.22266704540540094,-0.2,1.0,0.0,482.0,641.0,0.0,0,1877.0,1
1064,1064,0.888672020728776,0.9,0.0,0.0,479.0,659.0,0.0,1,1862.0,1
1065,1065,0.2663148032155028,0.3,1.0,1.0,375.0,516.0,0.0,0,2109.0,0
1066,1066,-0.21324514104049697,-0.2,0.0,1.0,287.0,602.0,0.0,1,2111.0,0
1067,1067,0.40435341743295294,0.4,1.0,1.0,425.0,596.0,0.0,0,1979.0,0
1068,1068,0.6703849652481128,0.7,1.0,1.0,287.0,999.0,1.0,1,-1266.0,1
1069,1069,-0.5158905200892083,-0.5,1.0,0.0,468.0,660.0,0.0,0,1872.0,1
1070,1070,-0.7653305520019562,-0.8,1.0,0.0,460.0,888.0,0.0,0,1652.0,1
1071,1071,-0.23059872751241683,-0.2,1.0,0.0,389.0,528.0,0.0,0,2083.0,1
1072,1072,-0.6312153719712276,-0.6,1.0,0.0,406.0,737.0,0.0,0,1857.0,1
1073,1073,-0.776653011027934,-0.8,1.0,0.0,443.0,822.0,1.0,1,-1115.0,0
1074,1074,0.40362120481763764,0.4,1.0,1.0,366.0,967.0,0.0,0,1667.0,0
1075,1075,-0.5879574917779293,-0.6,0.0,1.0,257.0,540.0,0.0,1,2203.0,0
1076,1076,-0.13635117682824538,-0.1,1.0,0.0,268.0,936.0,0.0,0,1796.0,1
1077,1077,0.6702054612726435,0.7,1.0,1.0,473.0,540.0,0.0,0,1987.0,0
1078,1078,-0.20574169799563125,-0.2,1.0,0.0,473.0,771.0,0.0,0,1756.0,1
1079,1079,0.44637620886840457,0.4,1.0,1.0,337.0,568.0,0.0,0,2095.0,0
1080,1080,-0.4076814141946699,-0.4,1.0,0.0,465.0,584.0,0.0,0,1951.0,1
1081,1081,0.22241011701157476,0.2,0.0,0.0,364.0,558.0,0.0,1,2078.0,1
1082,1082,-0.5453699046088292,-0.5,1.0,0.0,290.0,686.0,0.0,0,2024.0,1
1083,1083,0.7770408816425974,0.8,0.0,0.0,475.0,978.0,0.0,1,1547.0,1
1084,1084,-0.4896055375457842,-0.5,0.0,1.0,378.0,947.0,0.0,1,1675.0,0
1085,1085,0.5334235117537552,0.5,1.0,1.0,447.0,797.0,0.0,0,1756.0,0
1086,1086,0.2921506256002758,0.3,1.0,1.0,434.0,962.0,1.0,1,-1136.0,1
1087,1087,0.28161641003067517,0.3,1.0,1.0,256.0,901.0,0.0,0,1843.0,0
1088,1088,-0.018620339843941514,-0.0,0.0,1.0,389.0,805.0,0.0,1,1806.0,0
1089,1089,0.7811331954372346,0.8,0.0,0.0,380.0,606.0,0.0,1,2014.0,1
1090,1090,-0.11244979001095834,-0.1,1.0,0.0,345.0,908.0,1.0,1,-1063.0,0
1091,1091,-0.2928802179460812,-0.3,0.0,1.0,448.0,571.0,1.0,0,-879.0,1
1092,1092,-0.7233282490346895,-0.7,0.0,1.0,320.0,685.0,1.0,0,-775.0,1
1093,1093,0.6280557285774458,0.6,1.0,1.0,418.0,933.0,0.0,0,-1211.0,0
1094,1094,0.4597713079902529,0.5,1.0,1.0,325.0,950.0,0.0,0,1725.0,0
1095,1095,0.4275324597385922,0.4,1.0,1.0,479.0,864.0,1.0,1,-1243.0,1
1096,1096,-0.5754782763972013,-0.6,1.0,0.0,395.0,915.0,0.0,0,1690.0,1
1097,1097,-0.22955036697643627,-0.2,0.0,1.0,479.0,753.0,0.0,1,1768.0,0
1098,1098,0.2252109053622139,0.2,1.0,1.0,285.0,735.0,1.0,1,-920.0,1
1099,1099,0.29272396553417834,0.3,0.0,0.0,494.0,720.0,0.0,1,1786.0,1
1100,1100,0.45497845623185185,0.5,0.0,0.0,254.0,922.0,0.0,1,1824.0,1
1101,1101,0.8199370362922823,0.8,0.0,0.0,391.0,534.0,0.0,1,2075.0,1
1102,1102,0.06978773649009662,0.1,0.0,0.0,364.0,564.0,0.0,1,2072.0,1
1103,1103,0.8648241238917823,0.9,1.0,1.0,410.0,804.0,1.0,1,-904.0,1
1104,1104,0.6195863591726604,0.6,1.0,1.0,269.0,520.0,0.0,0,2211.0,0
1105,1105,0.40537697020492025,0.4,0.0,0.0,288.0,946.0,0.0,1,1766.0,1
1106,1106,-0.2865846076059907,-0.3,0.0,1.0,269.0,759.0,0.0,1,1972.0,0
1107,1107,-0.6759462033397134,-0.7,1.0,0.0,409.0,577.0,0.0,0,2014.0,1
1108,1108,0.1766325522758655,0.2,1.0,1.0,346.0,845.0,0.0,0,1809.0,0
1109,1109,0.7355822832910855,0.7,0.0,0.0,333.0,623.0,0.0,1,2044.0,1
1110,1110,-0.424875181739659,-0.4,1.0,0.0,481.0,836.0,0.0,0,1683.0,1
1111,1111,-0.3992853041876975,-0.4,0.0,1.0,359.0,829.0,0.0,1,1812.0,0
1112,1112,-0.4039396014745278,-0.4,1.0,0.0,315.0,607.0,0.0,0,2078.0,1
1113,1113,0.3384110358863076,0.3,1.0,1.0,468.0,729.0,0.0,0,1803.0,0
1114,1114,0.22244344718626563,0.2,1.0,1.0,486.0,596.0,0.0,0,1918.0,0
1115,1115,0.4221510455849041,0.4,0.0,0.0,400.0,707.0,0.0,1,1893.0,1
1116,1116,-0.8319133614147224,-0.8,1.0,0.0,428.0,761.0,0.0,0,1811.0,1
1117,1117,0.4914753934779489,0.5,1.0,1.0,263.0,672.0,0.0,0,2065.0,0
1118,1118,-0.8490278965145766,-0.8,0.0,1.0,300.0,563.0,0.0,1,2137.0,0
1119,1119,0.6442846241205308,0.6,1.0,1.0,492.0,675.0,0.0,0,1833.0,0
1120,1120,-0.593047606527927,-0.6,1.0,0.0,253.0,738.0,0.0,0,2009.0,1
1121,1121,0.32042010110971153,0.3,0.0,0.0,428.0,699.0,0.0,1,1873.0,1
1122,1122,0.8453169983683461,0.8,1.0,1.0,272.0,855.0,0.0,0,1873.0,0
1123,1123,0.6366483063709557,0.6,0.0,0.0,375.0,578.0,0.0,1,2047.0,1
1124,1124,0.8409993528191512,0.8,1.0,1.0,358.0,824.0,0.0,0,1818.0,0
1125,1125,-0.6893940929518418,-0.7,0.0,1.0,298.0,660.0,0.0,1,2042.0,0
1126,1126,-0.7463030488968625,-0.7,1.0,0.0,340.0,834.0,0.0,0,1826.0,1
1127,1127,0.7877455700964361,0.8,1.0,1.0,289.0,670.0,0.0,0,2041.0,0
1128,1128,-0.7750607509195626,-0.8,1.0,0.0,409.0,553.0,0.0,0,2038.0,1
1129,1129,0.27457884885114814,0.3,1.0,1.0,285.0,911.0,0.0,0,1804.0,0
1130,1130,-0.413427908532602,-0.4,0.0,1.0,383.0,976.0,0.0,1,1641.0,0
1131,1131,0.600658189781803,0.6,0.0,0.0,338.0,649.0,0.0,1,2013.0,1
1132,1132,-0.4966740262062836,-0.5,0.0,1.0,477.0,972.0,0.0,1,1551.0,0
1133,1133,0.1309609930032113,0.1,0.0,0.0,401.0,620.0,0.0,1,1979.0,1
1134,1134,0.8776961057806917,0.9,1.0,1.0,289.0,863.0,0.0,0,1848.0,0
1135,1135,-0.25647674314136304,-0.3,0.0,1.0,322.0,883.0,1.0,0,-1025.0,1
1136,1136,-0.41865305546427445,-0.4,1.0,0.0,497.0,869.0,1.0,1,-1046.0,0
1137,1137,-0.7122728443290797,-0.7,1.0,0.0,309.0,540.0,0.0,0,2151.0,1
1138,1138,-0.1464059471575283,-0.1,0.0,1.0,391.0,518.0,0.0,1,-569.0,0
1139,1139,0.1644591442082769,0.2,1.0,1.0,314.0,865.0,0.0,0,1821.0,0
1140,1140,-0.20717603682534347,-0.2,0.0,1.0,372.0,949.0,0.0,1,1679.0,0
1141,1141,0.8975392291841456,0.9,1.0,1.0,477.0,616.0,0.0,0,1907.0,0
1142,1142,0.0507047062078283,0.1,1.0,1.0,292.0,576.0,0.0,0,2132.0,0
1143,1143,0.32872207613278637,0.3,1.0,1.0,465.0,827.0,0.0,0,1708.0,0
1144,1144,0.4280337938105364,0.4,1.0,1.0,338.0,534.0,0.0,0,2128.0,0
1145,1145,-0.7954957036471598,-0.8,1.0,0.0,345.0,612.0,0.0,0,2043.0,1
1146,1146,-0.8681955883558795,-0.9,1.0,0.0,489.0,702.0,1.0,1,-1021.0,0
1147,1147,-0.19811636225301077,-0.2,0.0,1.0,450.0,747.0,0.0,1,1803.0,0
1148,1148,-0.35810334878831906,-0.4,1.0,0.0,404.0,513.0,0.0,0,2083.0,1
1149,1149,0.43581382843428706,0.4,1.0,1.0,379.0,907.0,0.0,0,1714.0,0
1150,1150,-0.390156110583058,-0.4,0.0,1.0,352.0,887.0,0.0,1,1761.0,0
1151,1151,-0.34636954922678875,-0.3,1.0,0.0,352.0,717.0,0.0,0,1931.0,1
1152,1152,0.7826950049117359,0.8,1.0,1.0,408.0,776.0,0.0,0,1816.0,0
1153,1153,-0.7718057937506382,-0.8,0.0,1.0,383.0,653.0,1.0,0,-916.0,1
1154,1154,-0.31830657038251753,-0.3,0.0,1.0,382.0,681.0,0.0,1,1937.0,0
1155,1155,0.8721230324666521,0.9,0.0,0.0,306.0,503.0,0.0,1,2191.0,1
1156,1156,-0.3264402668464217,-0.3,0.0,1.0,489.0,931.0,0.0,1,1580.0,0
1157,1157,0.7698041797889189,0.8,0.0,0.0,326.0,746.0,0.0,1,1928.0,1
1158,1158,-0.27266079131846543,-0.3,1.0,0.0,486.0,618.0,0.0,0,1896.0,1
1159,1159,0.4985080107495804,0.5,1.0,1.0,456.0,603.0,0.0,0,1941.0,0
1160,1160,-0.7829463135671821,-0.8,0.0,1.0,326.0,971.0,0.0,1,1703.0,0
1161,1161,0.7555300517320503,0.8,1.0,1.0,329.0,653.0,0.0,0,2018.0,0
1162,1162,-0.8152504152611308,-0.8,0.0,1.0,438.0,536.0,0.0,1,2026.0,0
1163,1163,0.618181686624505,0.6,0.0,0.0,345.0,674.0,0.0,1,1981.0,1
1164,1164,0.08731138417707296,0.1,1.0,1.0,308.0,959.0,0.0,0,1733.0,0
1165,1165,0.7160637443161829,0.7,1.0,1.0,469.0,715.0,0.0,0,1816.0,0
1166,1166,-0.8071083540734024,-0.8,1.0,0.0,455.0,750.0,0.0,0,1795.0,1
1167,1167,-0.8020198788390729,-0.8,1.0,0.0,475.0,732.0,0.0,0,1793.0,1
1168,1168,-0.6897247111971472,-0.7,0.0,1.0,344.0,850.0,0.0,1,1806.0,0
1169,1169,-0.7890404172963854,-0.8,0.0,1.0,346.0,892.0,0.0,1,1762.0,0
1170,1170,-0.8189107294871009,-0.8,0.0,1.0,359.0,992.0,0.0,1,1649.0,0
1171,1171,0.8953345990059337,0.9,0.0,0.0,422.0,583.0,0.0,1,1995.0,1
1172,1172,-0.2623663057285387,-0.3,1.0,0.0,432.0,847.0,0.0,0,1721.0,1
1173,1173,0.8048644993193869,0.8,0.0,0.0,268.0,609.0,1.0,0,-697.0,0
1174,1174,-0.08836299710859408,-0.1,0.0,1.0,341.0,518.0,0.0,1,2141.0,0
1175,1175,0.2674795749974491,0.3,0.0,0.0,477.0,756.0,0.0,1,1767.0,1
1176,1176,0.43530686678243125,0.4,1.0,1.0,316.0,692.0,1.0,1,-648.0,1
1177,1177,0.5658858742851715,0.6,1.0,1.0,341.0,827.0,0.0,0,1832.0,0
1178,1178,0.8583382826964924,0.9,1.0,1.0,304.0,838.0,0.0,0,1858.0,0
1179,1179,-0.5188930110644643,-0.5,0.0,1.0,303.0,567.0,0.0,1,2130.0,0
1180,1180,0.06825319979116473,0.1,1.0,1.0,279.0,711.0,0.0,0,2010.0,0
1181,1181,-0.8175801137520082,-0.8,1.0,0.0,449.0,789.0,0.0,0,1762.0,1
1182,1182,-0.48691560022512864,-0.5,0.0,1.0,436.0,770.0,0.0,1,1794.0,0
1183,1183,0.5982033747071859,0.6,0.0,0.0,435.0,622.0,1.0,0,-587.0,0
1184,1184,0.31246469069579696,0.3,1.0,1.0,387.0,976.0,0.0,0,1637.0,0
1185,1185,-0.4020356286051221,-0.4,1.0,0.0,405.0,764.0,0.0,0,1831.0,1
1186,1186,-0.5747879020128659,-0.6,0.0,1.0,279.0,969.0,0.0,1,1752.0,0
1187,1187,-0.7761008861393358,-0.8,1.0,0.0,385.0,723.0,0.0,0,1892.0,1
1188,1188,-0.4417400284245136,-0.4,1.0,0.0,380.0,869.0,0.0,0,1751.0,1
1189,1189,0.27481092155949904,0.3,0.0,0.0,287.0,574.0,0.0,1,2139.0,1
1190,1190,0.5883078765902879,0.6,1.0,1.0,323.0,949.0,0.0,0,1728.0,0
1191,1191,-0.30408971556913733,-0.3,1.0,0.0,259.0,938.0,0.0,0,1803.0,1
1192,1192,0.6820617308416511,0.7,0.0,0.0,369.0,695.0,0.0,1,1936.0,1
1193,1193,0.8993528057140764,0.9,0.0,0.0,269.0,841.0,0.0,1,1890.0,1
1194,1194,-0.4306693557127521,-0.4,0.0,1.0,259.0,611.0,0.0,1,2130.0,0
1195,1195,0.2305292617378728,0.2,1.0,1.0,381.0,724.0,0.0,0,1895.0,0
1196,1196,0.07522199082328784,0.1,1.0,1.0,292.0,971.0,0.0,0,1737.0,0
1197,1197,-0.4869976649823997,-0.5,1.0,0.0,261.0,967.0,0.0,0,1772.0,1
1198,1198,-0.7900564372960861,-0.8,0.0,1.0,332.0,721.0,1.0,0,-703.0,1
1199,1199,0.02699764943121341,0.0,1.0,1.0,443.0,617.0,0.0,0,1940.0,0
1200,1200,-0.8221615663128746,-0.8,0.0,1.0,277.0,671.0,0.0,1,2052.0,0
1201,1201,0.24020911880349016,0.2,0.0,0.0,398.0,500.0,0.0,1,2102.0,1
1202,1202,0.4280674018482339,0.4,0.0,0.0,407.0,753.0,0.0,1,-1120.0,1
1203,1203,0.2838265261366476,0.3,1.0,1.0,387.0,775.0,0.0,0,1838.0,0
1204,1204,-0.48145743568413263,-0.5,1.0,0.0,349.0,890.0,0.0,0,1761.0,1
1205,1205,-0.44943151304255313,-0.4,1.0,0.0,469.0,779.0,0.0,0,1752.0,1
1206,1206,-0.5649788435216849,-0.6,0.0,1.0,308.0,866.0,0.0,1,1826.0,0
1207,1207,-0.2472014807812809,-0.2,1.0,0.0,412.0,647.0,0.0,0,1941.0,1
1208,1208,0.5332839286740602,0.5,1.0,1.0,324.0,638.0,0.0,0,2038.0,0
1209,1209,0.1234795222573043,0.1,0.0,0.0,284.0,622.0,0.0,1,2094.0,1
1210,1210,0.5844884792397232,0.6,1.0,1.0,421.0,993.0,0.0,0,1586.0,0
1211,1211,0.23263334797299462,0.2,0.0,0.0,433.0,864.0,0.0,1,1703.0,1
1212,1212,0.8432882335534552,0.8,1.0,1.0,383.0,586.0,0.0,0,2031.0,0
1213,1213,-0.14063713286884405,-0.1,0.0,1.0,458.0,505.0,0.0,1,2037.0,0
1214,1214,-0.8373091192776864,-0.8,1.0,0.0,499.0,750.0,0.0,0,1751.0,1
1215,1215,0.3629848141655082,0.4,0.0,0.0,378.0,590.0,0.0,1,2032.0,1
1216,1216,-0.3624222156626761,-0.4,1.0,0.0,480.0,532.0,0.0,0,1988.0,1
1217,1217,0.5073828952844907,0.5,1.0,1.0,280.0,934.0,0.0,0,1786.0,0
1218,1218,0.26117300587863046,0.3,1.0,1.0,352.0,677.0,0.0,0,1971.0,0
1219,1219,-0.45412457242253884,-0.5,0.0,1.0,253.0,910.0,0.0,1,1837.0,0
1220,1220,-0.05892062991106439,-0.1,1.0,0.0,487.0,728.0,0.0,0,1785.0,1
1221,1221,0.8499400929730946,0.8,1.0,1.0,379.0,726.0,0.0,0,1895.0,0
1222,1222,-0.5262638989759043,-0.5,0.0,1.0,289.0,872.0,0.0,1,1839.0,0
1223,1223,-0.19969357203401328,-0.2,1.0,0.0,372.0,576.0,0.0,0,2052.0,1
1224,1224,0.39349293426743304,0.4,0.0,0.0,368.0,922.0,0.0,1,1710.0,1
1225,1225,0.6580607031602571,0.7,1.0,1.0,314.0,826.0,0.0,0,1860.0,0
1226,1226,-0.11842727021339672,-0.1,0.0,1.0,470.0,941.0,0.0,1,1589.0,0
1227,1227,-0.6110474791177323,-0.6,1.0,0.0,445.0,634.0,0.0,0,1921.0,1
1228,1228,-0.1830240880404681,-0.2,0.0,1.0,251.0,684.0,0.0,1,2065.0,0
1229,1229,-0.23135452287443403,-0.2,1.0,0.0,455.0,690.0,0.0,0,1855.0,1
1230,1230,0.34483191896419163,0.3,1.0,1.0,399.0,523.0,0.0,0,-672.0,0
1231,1231,-0.1332462670069532,-0.1,0.0,1.0,280.0,735.0,0.0,1,1985.0,0
1232,1232,0.1148144147279152,0.1,0.0,0.0,336.0,527.0,0.0,1,2137.0,1
1233,1233,-0.8452533862995928,-0.8,0.0,1.0,298.0,653.0,0.0,1,2049.0,0
1234,1234,-0.44527635172926416,-0.4,0.0,1.0,438.0,856.0,0.0,1,1706.0,0
1235,1235,-0.05994701969167948,-0.1,1.0,0.0,422.0,984.0,0.0,0,1594.0,1
1236,1236,-0.07374874177277357,-0.1,1.0,0.0,283.0,652.0,0.0,0,2065.0,1
1237,1237,-0.6258686242781201,-0.6,0.0,1.0,335.0,540.0,0.0,1,2125.0,0
1238,1238,-0.2097071212433207,-0.2,0.0,1.0,455.0,615.0,0.0,1,1930.0,0
1239,1239,-0.36869280744510613,-0.4,0.0,1.0,480.0,812.0,0.0,1,1708.0,0
1240,1240,-0.14546983696173232,-0.1,0.0,1.0,338.0,504.0,0.0,1,2158.0,0
1241,1241,0.7375366262231166,0.7,0.0,0.0,329.0,881.0,0.0,1,1790.0,1
1242,1242,0.6886500846517979,0.7,0.0,0.0,458.0,910.0,0.0,1,1632.0,1
1243,1243,-0.759475652916551,-0.8,1.0,0.0,250.0,889.0,0.0,0,1861.0,1
1244,1244,-0.5769590444321189,-0.6,0.0,1.0,471.0,543.0,0.0,1,1986.0,0
1245,1245,0.3568972925532733,0.4,1.0,1.0,327.0,725.0,0.0,0,1948.0,0
1246,1246,-0.3689079725496579,-0.4,1.0,0.0,298.0,613.0,0.0,0,2089.0,1
1247,1247,0.5236838406490137,0.5,1.0,1.0,284.0,979.0,0.0,0,1737.0,0
1248,1248,0.5812241892583322,0.6,0.0,0.0,340.0,696.0,0.0,1,1964.0,1
1249,1249,0.504015048435751,0.5,0.0,0.0,308.0,710.0,0.0,1,1982.0,1
1250,1250,0.4984122284450002,0.5,0.0,0.0,300.0,547.0,0.0,1,2153.0,1
1251,1251,-0.06568693952658544,-0.1,1.0,0.0,438.0,954.0,0.0,0,1608.0,1
1252,1252,-0.7297855803875475,-0.7,1.0,0.0,340.0,601.0,0.0,0,2059.0,1
1253,1253,0.2714490767609553,0.3,0.0,0.0,386.0,723.0,0.0,1,1891.0,1
1254,1254,-0.46941372914163576,-0.5,0.0,1.0,372.0,568.0,1.0,0,-820.0,1
1255,1255,-0.39145523372479285,-0.4,0.0,1.0,399.0,828.0,0.0,1,1773.0,0
1256,1256,0.7675212020439329,0.8,1.0,1.0,286.0,982.0,0.0,0,1732.0,0
1257,1257,0.5719830047279998,0.6,0.0,0.0,261.0,911.0,0.0,1,1828.0,1
1258,1258,-0.7288249723115198,-0.7,1.0,0.0,271.0,782.0,0.0,0,1947.0,1
1259,1259,-0.41062573282810644,-0.4,0.0,1.0,407.0,861.0,0.0,1,1732.0,0
1260,1260,-0.20848887338704825,-0.2,1.0,0.0,431.0,703.0,0.0,0,1866.0,1
1261,1261,-0.013840567493065836,-0.0,0.0,1.0,290.0,532.0,0.0,1,2178.0,0
1262,1262,-0.49985593204992773,-0.5,1.0,0.0,384.0,750.0,0.0,0,1866.0,1
1263,1263,-0.5361939006941361,-0.5,0.0,1.0,274.0,853.0,0.0,1,1873.0,0
1264,1264,-0.34767254944211434,-0.3,1.0,0.0,381.0,691.0,0.0,0,1928.0,1
1265,1265,-0.8601276239992005,-0.9,1.0,0.0,363.0,851.0,0.0,0,1786.0,1
1266,1266,-0.02388798249357371,-0.0,0.0,1.0,483.0,905.0,0.0,1,1612.0,0
1267,1267,-0.41240442399688654,-0.4,1.0,0.0,313.0,771.0,0.0,0,1916.0,1
1268,1268,0.35002491287823034,0.4,1.0,1.0,326.0,660.0,0.0,0,2014.0,0
1269,1269,-0.13270193658345564,-0.1,0.0,1.0,449.0,941.0,0.0,1,1610.0,0
1270,1270,0.010011959485916377,0.0,1.0,1.0,293.0,699.0,0.0,0,2008.0,0
1271,1271,0.0974770336716606,0.1,1.0,1.0,293.0,858.0,0.0,0,1849.0,0
1272,1272,0.7666545438438969,0.8,1.0,1.0,309.0,740.0,0.0,0,1951.0,0
1273,1273,0.34562855167437634,0.3,1.0,1.0,335.0,613.0,0.0,0,2052.0,0
1274,1274,-0.6615171283660838,-0.7,1.0,0.0,250.0,856.0,0.0,0,1894.0,1
1275,1275,-0.86364415614412,-0.9,0.0,1.0,357.0,511.0,0.0,1,2132.0,0
1276,1276,-0.18728793675548716,-0.2,0.0,1.0,311.0,602.0,0.0,1,2087.0,0
1277,1277,-0.5074106160409363,-0.5,0.0,1.0,495.0,965.0,0.0,1,1540.0,0
1278,1278,0.4296786625190422,0.4,0.0,0.0,428.0,637.0,0.0,1,1935.0,1
1279,1279,-0.8847537950665465,-0.9,0.0,1.0,486.0,873.0,0.0,1,1641.0,0
1280,1280,0.8064916796794511,0.8,0.0,0.0,423.0,880.0,0.0,1,1697.0,1
1281,1281,-0.7263673524328197,-0.7,1.0,0.0,453.0,603.0,0.0,0,1944.0,1
1282,1282,-0.8201011078365332,-0.8,1.0,0.0,444.0,517.0,0.0,0,2039.0,1
1283,1283,0.8832960682218204,0.9,0.0,0.0,275.0,941.0,0.0,1,1784.0,1
1284,1284,0.8248131104067761,0.8,0.0,0.0,271.0,600.0,0.0,1,2129.0,1
1285,1285,-0.608475433079029,-0.6,0.0,1.0,330.0,813.0,0.0,1,1857.0,0
1286,1286,-0.21637356515377126,-0.2,1.0,0.0,430.0,945.0,0.0,0,1625.0,1
1287,1287,-0.34890585969490706,-0.3,1.0,0.0,405.0,741.0,0.0,0,1854.0,1
1288,1288,0.4790665542802274,0.5,1.0,1.0,270.0,533.0,0.0,0,2197.0,0
1289,1289,0.5142636801706134,0.5,0.0,0.0,465.0,594.0,1.0,0,-909.0,0
1290,1290,0.4212211277457779,0.4,1.0,1.0,391.0,566.0,0.0,0,2043.0,0
1291,1291,0.7873647543596675,0.8,0.0,0.0,253.0,555.0,0.0,1,2192.0,1
1292,1292,-0.851048246480132,-0.9,0.0,1.0,299.0,960.0,0.0,1,1741.0,0
1293,1293,0.7293154847338338,0.7,1.0,1.0,482.0,611.0,0.0,0,1907.0,0
1294,1294,0.6191349524951241,0.6,1.0,1.0,255.0,921.0,0.0,0,1824.0,0
1295,1295,0.4455150867997816,0.4,1.0,1.0,353.0,906.0,0.0,0,1741.0,0
1296,1296,0.294943896497316,0.3,0.0,0.0,481.0,597.0,1.0,0,-958.0,0
1297,1297,0.6431017808046443,0.6,0.0,0.0,386.0,889.0,0.0,1,1725.0,1
1298,1298,0.4124939017245334,0.4,0.0,0.0,365.0,626.0,0.0,1,2009.0,1
1299,1299,0.18137392039172895,0.2,0.0,0.0,250.0,550.0,0.0,1,2200.0,1
1300,1300,-0.26054596994402557,-0.3,1.0,0.0,403.0,701.0,0.0,0,1896.0,1
1301,1301,-0.6342188376703439,-0.6,0.0,1.0,433.0,921.0,0.0,1,1646.0,0
1302,1302,0.2672770582459846,0.3,1.0,1.0,386.0,693.0,0.0,0,1921.0,0
1303,1303,-0.24719198370842943,-0.2,1.0,0.0,257.0,582.0,0.0,0,2161.0,1
1304,1304,-0.1328416943473506,-0.1,0.0,1.0,370.0,843.0,0.0,1,1787.0,0
1305,1305,-0.3940430371559468,-0.4,0.0,1.0,324.0,836.0,0.0,1,1840.0,0
1306,1306,-0.11086363235766605,-0.1,0.0,1.0,439.0,571.0,0.0,1,1990.0,0
1307,1307,-0.6923664399187631,-0.7,1.0,0.0,381.0,610.0,0.0,0,2009.0,1
1308,1308,0.690877307740346,0.7,0.0,0.0,352.0,545.0,0.0,1,2103.0,1
1309,1309,0.18691652619886379,0.2,1.0,1.0,492.0,692.0,0.0,0,1816.0,0
1310,1310,-0.6180254836161407,-0.6,0.0,1.0,351.0,629.0,0.0,1,2020.0,0
1311,1311,-0.7095288886255889,-0.7,1.0,0.0,419.0,585.0,0.0,0,1996.0,1
1312,1312,-0.034891981706643316,-0.0,0.0,1.0,462.0,711.0,0.0,1,1827.0,0
1313,1313,0.4981683521696657,0.5,0.0,0.0,369.0,520.0,1.0,0,-689.0,0
1314,1314,0.44896055398496604,0.4,0.0,0.0,466.0,718.0,0.0,1,1816.0,1
1315,1315,-0.7670617785791791,-0.8,0.0,1.0,303.0,888.0,0.0,1,1809.0,0
1316,1316,0.3976795445313207,0.4,0.0,0.0,263.0,696.0,0.0,1,2041.0,1
1317,1317,-0.8929440288721232,-0.9,0.0,1.0,338.0,711.0,0.0,1,1951.0,0
1318,1318,0.5298512664744685,0.5,1.0,1.0,477.0,591.0,0.0,0,-738.0,0
1319,1319,-0.025738846795377746,-0.0,1.0,0.0,433.0,827.0,0.0,0,1740.0,1
1320,1320,-0.029566948985581543,-0.0,1.0,0.0,435.0,733.0,0.0,0,1832.0,1
1321,1321,-0.6114941645928142,-0.6,1.0,0.0,442.0,921.0,0.0,0,1637.0,1
1322,1322,-0.5512551996764614,-0.6,1.0,0.0,475.0,512.0,0.0,0,2013.0,1
1323,1323,-0.15941596317747242,-0.2,1.0,0.0,298.0,994.0,0.0,0,1708.0,1
1324,1324,-0.37871814798446457,-0.4,1.0,0.0,446.0,946.0,1.0,1,-1222.0,0
1325,1325,0.23031918196249224,0.2,0.0,0.0,429.0,580.0,0.0,1,1991.0,1
1326,1326,-0.7454971364210533,-0.7,0.0,1.0,467.0,977.0,1.0,0,-1134.0,1
1327,1327,-0.30570122231427665,-0.3,0.0,1.0,474.0,671.0,0.0,1,1855.0,0
1328,1328,0.48510469853923033,0.5,1.0,1.0,299.0,881.0,0.0,0,1820.0,0
1329,1329,-0.7370767322824096,-0.7,0.0,1.0,322.0,837.0,0.0,1,1841.0,0
1330,1330,-0.6902180618473163,-0.7,0.0,1.0,397.0,882.0,0.0,1,1721.0,0
1331,1331,0.2820456082898398,0.3,1.0,1.0,404.0,819.0,0.0,0,1777.0,0
1332,1332,0.6084829177467007,0.6,0.0,0.0,309.0,545.0,0.0,1,2146.0,1
1333,1333,-0.28830217500943733,-0.3,0.0,1.0,491.0,887.0,0.0,1,1622.0,0
1334,1334,-0.17082884812591492,-0.2,0.0,1.0,255.0,557.0,0.0,1,2188.0,0
1335,1335,0.8067162353853047,0.8,0.0,0.0,375.0,900.0,0.0,1,1725.0,1
1336,1336,0.6062971741760993,0.6,1.0,1.0,257.0,621.0,1.0,1,-608.0,1
1337,1337,-0.8871171509624641,-0.9,1.0,0.0,451.0,875.0,0.0,0,1674.0,1
1338,1338,-0.8573617801457498,-0.9,1.0,0.0,471.0,584.0,0.0,0,1945.0,1
1339,1339,0.1425671391580935,0.1,0.0,0.0,458.0,565.0,0.0,1,1977.0,1
1340,1340,0.19950719173136477,0.2,1.0,1.0,376.0,540.0,0.0,0,2084.0,0
1341,1341,-0.2659109916574036,-0.3,1.0,0.0,358.0,502.0,0.0,0,2140.0,1
1342,1342,0.28551794694246524,0.3,1.0,1.0,450.0,872.0,0.0,0,1678.0,0
1343,1343,0.6128518927755059,0.6,0.0,0.0,471.0,523.0,0.0,1,2006.0,1
1344,1344,0.09439726690332395,0.1,0.0,0.0,410.0,921.0,0.0,1,1669.0,1
1345,1345,0.8566285655669602,0.9,0.0,0.0,338.0,951.0,1.0,0,-1079.0,0
1346,1346,-0.5374353095207229,-0.5,1.0,0.0,493.0,991.0,0.0,0,1516.0,1
1347,1347,0.5196021081689447,0.5,1.0,1.0,337.0,742.0,0.0,0,1921.0,0
1348,1348,-0.3258456557181717,-0.3,0.0,1.0,474.0,672.0,0.0,1,1854.0,0
1349,1349,-0.6884824360350801,-0.7,1.0,0.0,306.0,989.0,0.0,0,1705.0,1
1350,1350,0.32438701951114723,0.3,1.0,1.0,277.0,519.0,0.0,0,2204.0,0
1351,1351,-0.8335609173588578,-0.8,0.0,1.0,454.0,537.0,0.0,1,2009.0,0
1352,1352,-0.3618656856106638,-0.4,1.0,0.0,455.0,733.0,1.0,1,-1088.0,0
1353,1353,-0.8169877680826264,-0.8,1.0,0.0,475.0,539.0,0.0,0,1986.0,1
1354,1354,-0.70484374916336,-0.7,1.0,0.0,392.0,966.0,0.0,0,1642.0,1
1355,1355,-0.2619648386306027,-0.3,0.0,1.0,298.0,751.0,0.0,1,1951.0,0
1356,1356,-0.09891559639398273,-0.1,0.0,1.0,321.0,581.0,0.0,1,2098.0,0
1357,1357,-0.3952703034535734,-0.4,1.0,0.0,411.0,601.0,0.0,0,1988.0,1
1358,1358,-0.426290555619184,-0.4,0.0,1.0,257.0,650.0,0.0,1,2093.0,0
1359,1359,-0.7515324438772595,-0.8,1.0,0.0,259.0,533.0,0.0,0,2208.0,1
1360,1360,0.056187405140890045,0.1,1.0,1.0,396.0,646.0,0.0,0,1958.0,0
1361,1361,0.11071181586011025,0.1,1.0,1.0,427.0,676.0,1.0,1,-1043.0,1
1362,1362,0.10644921300230215,0.1,0.0,0.0,325.0,649.0,0.0,1,2026.0,1
1363,1363,-0.3763248705534491,-0.4,0.0,1.0,354.0,888.0,1.0,0,-1002.0,1
1364,1364,0.8923860964150206,0.9,0.0,0.0,285.0,729.0,0.0,1,1986.0,1
1365,1365,-0.8031186105939166,-0.8,1.0,0.0,381.0,567.0,0.0,0,2052.0,1
1366,1366,-0.0469859696120819,-0.0,0.0,1.0,436.0,893.0,0.0,1,1671.0,0
1367,1367,0.13041611592204128,0.1,0.0,0.0,378.0,567.0,0.0,1,2055.0,1
1368,1368,-0.8376662236955137,-0.8,1.0,0.0,475.0,645.0,1.0,1,-730.0,0
1369,1369,0.6895146664062534,0.7,1.0,1.0,329.0,790.0,0.0,0,1881.0,0
1370,1370,-0.5787636222940742,-0.6,1.0,0.0,368.0,810.0,0.0,0,1822.0,1
1371,1371,-0.7746718750194175,-0.8,0.0,1.0,348.0,500.0,1.0,0,-588.0,1
1372,1372,0.4452159912416268,0.4,1.0,1.0,344.0,730.0,0.0,0,1926.0,0
1373,1373,0.26370178957193746,0.3,0.0,0.0,405.0,769.0,0.0,1,1826.0,1
1374,1374,-0.3203661384804054,-0.3,0.0,1.0,435.0,991.0,0.0,1,1574.0,0
1375,1375,0.45846815451713374,0.5,0.0,0.0,328.0,847.0,0.0,1,1825.0,1
1376,1376,0.3437007003410707,0.3,1.0,1.0,346.0,577.0,0.0,0,2077.0,0
1377,1377,-0.7144069524902341,-0.7,1.0,0.0,402.0,779.0,0.0,0,1819.0,1
1378,1378,0.7974302219488537,0.8,0.0,0.0,267.0,904.0,0.0,1,1829.0,1
1379,1379,0.03420030882558711,0.0,1.0,1.0,485.0,724.0,0.0,0,1791.0,0
1380,1380,0.3036546208904797,0.3,0.0,0.0,283.0,629.0,0.0,1,2088.0,1
1381,1381,0.5217841684353594,0.5,1.0,1.0,466.0,785.0,0.0,0,1749.0,0
1382,1382,0.5897438153005611,0.6,1.0,1.0,317.0,894.0,0.0,0,1789.0,0
1383,1383,0.26703398509831267,0.3,0.0,0.0,409.0,503.0,0.0,1,2088.0,1
1384,1384,-0.8956098885226634,-0.9,0.0,1.0,491.0,620.0,0.0,1,1889.0,0
1385,1385,-0.6828406749347131,-0.7,1.0,0.0,299.0,715.0,0.0,0,1986.0,1
1386,1386,-0.049489883830660886,-0.0,1.0,0.0,272.0,916.0,0.0,0,1812.0,1
1387,1387,0.6432576818572088,0.6,0.0,0.0,368.0,885.0,0.0,1,1747.0,1
1388,1388,0.44333893433115257,0.4,1.0,1.0,372.0,746.0,0.0,0,1882.0,0
1389,1389,-0.28789163279411667,-0.3,0.0,1.0,352.0,649.0,0.0,1,1999.0,0
1390,1390,-0.7225876954135619,-0.7,0.0,1.0,379.0,622.0,0.0,1,1999.0,0
1391,1391,-0.42115687345531355,-0.4,0.0,1.0,256.0,652.0,0.0,1,2092.0,0
1392,1392,-0.736090404073741,-0.7,0.0,1.0,332.0,619.0,0.0,1,2049.0,0
1393,1393,-0.7152596832467759,-0.7,0.0,1.0,455.0,518.0,0.0,1,2027.0,0
1394,1394,-0.8174256964479759,-0.8,0.0,1.0,267.0,886.0,0.0,1,1847.0,0
1395,1395,0.2757250563420751,0.3,1.0,1.0,253.0,599.0,0.0,0,2148.0,0
1396,1396,-0.22990194183554813,-0.2,1.0,0.0,307.0,673.0,0.0,0,2020.0,1
1397,1397,-0.648250162231554,-0.6,0.0,1.0,293.0,883.0,0.0,1,1824.0,0
1398,1398,0.3130360516561522,0.3,1.0,1.0,367.0,527.0,0.0,0,2106.0,0
1399,1399,0.2782565829459761,0.3,1.0,1.0,480.0,682.0,0.0,0,1838.0,0
1400,1400,0.2001132190357745,0.2,1.0,1.0,341.0,806.0,0.0,0,1853.0,0
1401,1401,-0.7138994329980757,-0.7,0.0,1.0,272.0,997.0,0.0,1,1731.0,0
1402,1402,0.5748532998810597,0.6,0.0,0.0,296.0,732.0,0.0,1,1972.0,1
1403,1403,0.5054102215556434,0.5,0.0,0.0,279.0,989.0,0.0,1,1732.0,1
1404,1404,0.7053968016065949,0.7,1.0,1.0,386.0,545.0,0.0,0,2069.0,0
1405,1405,-0.7562668549425076,-0.8,0.0,1.0,281.0,810.0,1.0,0,-781.0,1
1406,1406,-0.5069463184988885,-0.5,1.0,0.0,496.0,770.0,0.0,0,1734.0,1
1407,1407,0.6101574724174786,0.6,0.0,0.0,345.0,974.0,1.0,0,-1249.0,0
1408,1408,0.8787121295824348,0.9,1.0,1.0,328.0,673.0,0.0,0,1999.0,0
1409,1409,-0.6307784550252833,-0.6,0.0,1.0,351.0,534.0,0.0,1,2115.0,0
1410,1410,0.3316617067591766,0.3,0.0,0.0,290.0,854.0,0.0,1,1856.0,1
1411,1411,0.7900366019565398,0.8,0.0,0.0,280.0,985.0,0.0,1,1735.0,1
1412,1412,0.227277177068392,0.2,0.0,0.0,371.0,986.0,0.0,1,1643.0,1
1413,1413,0.43127371233680256,0.4,0.0,0.0,316.0,624.0,0.0,1,2060.0,1
1414,1414,0.07189751904109987,0.1,0.0,0.0,461.0,560.0,1.0,0,-801.0,0
1415,1415,-0.4913771570890257,-0.5,0.0,1.0,316.0,787.0,0.0,1,1897.0,0
1416,1416,-0.10480874905307958,-0.1,1.0,0.0,270.0,647.0,0.0,0,2083.0,1
1417,1417,0.06948282436729836,0.1,0.0,0.0,480.0,968.0,0.0,1,1552.0,1
1418,1418,0.6890729534791332,0.7,0.0,0.0,282.0,760.0,0.0,1,-432.0,1
1419,1419,-0.5253084909080921,-0.5,0.0,1.0,251.0,617.0,0.0,1,2132.0,0
1420,1420,0.29064282818640963,0.3,0.0,0.0,292.0,504.0,0.0,1,2204.0,1
1421,1421,0.677359563627096,0.7,0.0,0.0,387.0,615.0,0.0,1,1998.0,1
1422,1422,0.5502294462033913,0.6,0.0,0.0,417.0,517.0,0.0,1,2066.0,1
1423,1423,0.036058391613442264,0.0,1.0,1.0,425.0,939.0,0.0,0,1636.0,0
1424,1424,-0.35458719325149946,-0.4,1.0,0.0,334.0,793.0,0.0,0,1873.0,1
1425,1425,-0.38672812631780074,-0.4,0.0,1.0,377.0,828.0,0.0,1,1795.0,0
1426,1426,-0.04631139038776655,-0.0,0.0,1.0,320.0,784.0,0.0,1,1896.0,0
1427,1427,0.2909679305107772,0.3,0.0,0.0,470.0,844.0,0.0,1,1686.0,1
1428,1428,-0.846424457696621,-0.8,0.0,1.0,445.0,659.0,0.0,1,1896.0,0
1429,1429,-0.8285575131453742,-0.8,0.0,1.0,414.0,969.0,0.0,1,1617.0,0
1430,1430,0.6951368740722478,0.7,1.0,1.0,455.0,743.0,0.0,0,1802.0,0
1431,1431,-0.003115306813407659,-0.0,0.0,1.0,271.0,895.0,0.0,1,1834.0,0
1432,1432,0.17463510233118573,0.2,1.0,1.0,333.0,968.0,0.0,0,1699.0,0
1433,1433,-0.8353202255270352,-0.8,1.0,0.0,499.0,751.0,0.0,0,1750.0,1
1434,1434,-0.07166300474264098,-0.1,1.0,0.0,465.0,678.0,0.0,0,1857.0,1
1435,1435,-0.012110941614285164,-0.0,0.0,1.0,479.0,649.0,0.0,1,1872.0,0
1436,1436,0.8675568307447646,0.9,1.0,1.0,479.0,542.0,0.0,0,1979.0,0
1437,1437,0.879236269935579,0.9,0.0,0.0,329.0,706.0,0.0,1,1965.0,1
1438,1438,0.1416943924634705,0.1,0.0,0.0,283.0,577.0,0.0,1,2140.0,1
1439,1439,0.6955193351549179,0.7,1.0,1.0,454.0,984.0,0.0,0,1562.0,0
1440,1440,-0.7327600956225849,-0.7,0.0,1.0,385.0,725.0,0.0,1,1890.0,0
1441,1441,0.862908841506859,0.9,0.0,0.0,356.0,938.0,0.0,1,1706.0,1
1442,1442,0.8771141354484707,0.9,1.0,1.0,490.0,716.0,0.0,0,1794.0,0
1443,1443,0.47880048597663627,0.5,0.0,0.0,493.0,773.0,0.0,1,1734.0,1
1444,1444,-0.1530622141884067,-0.2,0.0,1.0,349.0,946.0,0.0,1,1705.0,0
1445,1445,-0.3033054450928587,-0.3,1.0,0.0,358.0,574.0,0.0,0,2068.0,1
1446,1446,0.6836309042071632,0.7,0.0,0.0,345.0,898.0,0.0,1,1757.0,1
1447,1447,0.027123139940843366,0.0,1.0,1.0,477.0,688.0,0.0,0,1835.0,0
1448,1448,-0.5095970384915639,-0.5,1.0,0.0,394.0,808.0,0.0,0,1798.0,1
1449,1449,-0.691251895415741,-0.7,1.0,0.0,350.0,769.0,0.0,0,1881.0,1
1450,1450,0.3675369916249819,0.4,1.0,1.0,419.0,600.0,0.0,0,1981.0,0
1451,1451,0.40627691108565556,0.4,0.0,0.0,481.0,831.0,0.0,1,1688.0,1
1452,1452,-0.31820562285806864,-0.3,1.0,0.0,381.0,560.0,0.0,0,2059.0,1
1453,1453,0.5663687326413377,0.6,0.0,0.0,298.0,640.0,0.0,1,2062.0,1
1454,1454,-0.03987920238609677,-0.0,1.0,0.0,341.0,582.0,0.0,0,2077.0,1
1455,1455,-0.8096809731520632,-0.8,0.0,1.0,412.0,725.0,0.0,1,1863.0,0
1456,1456,-0.4293928921752078,-0.4,1.0,0.0,304.0,784.0,0.0,0,1912.0,1
1457,1457,0.6627353770463792,0.7,1.0,1.0,481.0,869.0,0.0,0,1650.0,0
1458,1458,-0.4352288400189232,-0.4,0.0,1.0,368.0,509.0,0.0,1,2123.0,0
1459,1459,0.4474839199433839,0.4,0.0,0.0,492.0,985.0,0.0,1,1523.0,1
1460,1460,-0.6465566482818816,-0.6,0.0,1.0,283.0,745.0,0.0,1,1972.0,0
1461,1461,-0.18003450375902552,-0.2,1.0,0.0,472.0,756.0,0.0,0,1772.0,1
1462,1462,-0.5622402289589779,-0.6,1.0,0.0,297.0,798.0,0.0,0,1905.0,1
1463,1463,0.2101386981563228,0.2,1.0,1.0,470.0,942.0,0.0,0,1588.0,0
1464,1464,0.7150160599942604,0.7,0.0,0.0,461.0,962.0,0.0,1,1577.0,1
1465,1465,0.6590047252386276,0.7,0.0,0.0,368.0,815.0,0.0,1,1817.0,1
1466,1466,-0.6398757031903739,-0.6,0.0,1.0,306.0,982.0,0.0,1,1712.0,0
1467,1467,-0.5869834981187028,-0.6,0.0,1.0,458.0,585.0,0.0,1,1957.0,0
1468,1468,0.2853642282036942,0.3,1.0,1.0,381.0,687.0,0.0,0,1932.0,0
1469,1469,0.7450773820054611,0.7,0.0,0.0,416.0,868.0,0.0,1,1716.0,1
1470,1470,0.4581244875731084,0.5,1.0,1.0,479.0,600.0,0.0,0,1921.0,0
