,trial,coherence,coherence_bin,green_side,correct_side,target_onset,checker_onset,decision,green_decision,decision_time,correct_decision
0,0,-0.8895313510695481,-0.9,0.0,1.0,275.0,892.0,1.0,0,163.0,1
1,1,0.1365262468659042,0.1,1.0,1.0,450.0,997.0,1.0,1,1553.0,1
2,2,-0.19031626777261645,-0.2,1.0,0.0,452.0,704.0,0.0,0,724.0,1
3,3,0.14980799340568585,0.1,0.0,0.0,309.0,795.0,0.0,1,1416.0,1
4,4,0.6296152452311757,0.6,1.0,1.0,281.0,612.0,1.0,1,257.0,1
5,5,-0.14765278400765525,-0.1,1.0,0.0,391.0,805.0,0.0,0,1804.0,1
6,6,-0.6247134251087118,-0.6,0.0,1.0,431.0,930.0,1.0,0,149.0,1
7,7,-0.8773271871258805,-0.9,1.0,0.0,409.0,581.0,0.0,0,280.0,1
8,8,0.29344164052560584,0.3,1.0,1.0,265.0,563.0,1.0,1,1222.0,1
9,9,-0.455315705442862,-0.5,0.0,1.0,336.0,687.0,1.0,0,447.0,1
10,10,0.6110155511454068,0.6,0.0,0.0,493.0,702.0,0.0,1,875.0,1
11,11,0.7726994892104037,0.8,1.0,1.0,420.0,868.0,1.0,1,162.0,1
12,12,0.6016103913377068,0.6,0.0,0.0,281.0,596.0,0.0,1,583.0,1
13,13,-0.21719979800700373,-0.2,1.0,0.0,317.0,888.0,0.0,0,1545.0,1
14,14,0.1627362206934716,0.2,0.0,0.0,330.0,745.0,0.0,1,1565.0,1
15,15,0.8744723961196265,0.9,1.0,1.0,410.0,624.0,1.0,1,226.0,1
16,16,-0.7398111786376702,-0.7,0.0,1.0,461.0,717.0,1.0,0,212.0,1
17,17,0.37823565592157704,0.4,0.0,0.0,369.0,766.0,0.0,1,215.0,1
18,18,-0.6373019771151456,-0.6,1.0,0.0,306.0,834.0,0.0,0,450.0,1
19,19,-0.3525371384184771,-0.4,1.0,0.0,415.0,503.0,0.0,0,612.0,1
20,20,0.4121227157378301,0.4,1.0,1.0,451.0,553.0,1.0,1,1276.0,1
21,21,-0.7819338743791772,-0.8,1.0,0.0,302.0,554.0,0.0,0,194.0,1
22,22,-0.01703370389531267,-0.0,0.0,1.0,278.0,743.0,0.0,1,1979.0,0
23,23,-0.25639055031464864,-0.3,1.0,0.0,342.0,941.0,0.0,0,807.0,1
24,24,0.7747265595549843,0.8,1.0,1.0,394.0,796.0,1.0,1,230.0,1
25,25,-0.3008427036847795,-0.3,1.0,0.0,443.0,878.0,0.0,0,1459.0,1
26,26,0.3393350041813922,0.3,1.0,1.0,405.0,545.0,1.0,1,320.0,1
27,27,-0.5325428572125408,-0.5,1.0,0.0,499.0,699.0,0.0,0,542.0,1
28,28,0.8629189242728482,0.9,0.0,0.0,317.0,844.0,0.0,1,239.0,1
29,29,0.10701413794607928,0.1,0.0,0.0,299.0,604.0,0.0,1,2097.0,1
30,30,-0.4492313465161799,-0.4,0.0,1.0,381.0,817.0,1.0,0,352.0,1
31,31,0.5436358977089976,0.5,0.0,0.0,304.0,512.0,0.0,1,254.0,1
32,32,0.5739358121659287,0.6,1.0,1.0,499.0,666.0,1.0,1,995.0,1
33,33,-0.04873673617091012,-0.0,0.0,1.0,268.0,517.0,1.0,0,745.0,1
34,34,-0.2261424471425183,-0.2,1.0,0.0,487.0,783.0,0.0,0,740.0,1
35,35,0.1338551760880512,0.1,1.0,1.0,283.0,633.0,1.0,1,2084.0,1
36,36,-0.07105803848876568,-0.1,1.0,0.0,344.0,921.0,0.0,0,1735.0,1
37,37,0.7249334705149554,0.7,1.0,1.0,344.0,819.0,1.0,1,287.0,1
38,38,0.39486574529717255,0.4,1.0,1.0,368.0,725.0,1.0,1,647.0,1
39,39,-0.2932823648492321,-0.3,1.0,0.0,492.0,776.0,0.0,0,1182.0,1
40,40,-0.7826769011777654,-0.8,0.0,1.0,310.0,858.0,1.0,0,242.0,1
41,41,0.6158401715192506,0.6,1.0,1.0,279.0,801.0,1.0,1,160.0,1
42,42,0.18769592424516868,0.2,0.0,0.0,310.0,533.0,0.0,1,757.0,1
43,43,0.7129166329734559,0.7,1.0,1.0,439.0,968.0,1.0,1,213.0,1
44,44,0.14912398720452746,0.1,0.0,0.0,295.0,505.0,0.0,1,2200.0,1
45,45,0.43726266028244754,0.4,0.0,0.0,414.0,503.0,0.0,1,543.0,1
46,46,-0.6909424759927532,-0.7,1.0,0.0,266.0,796.0,0.0,0,468.0,1
47,47,-0.2456038480253444,-0.2,1.0,0.0,320.0,702.0,0.0,0,498.0,1
48,48,0.7054845792060532,0.7,0.0,0.0,322.0,792.0,0.0,1,276.0,1
49,49,0.2238911533886786,0.2,0.0,0.0,355.0,877.0,0.0,1,458.0,1
50,50,-0.5983190810901802,-0.6,0.0,1.0,408.0,666.0,1.0,0,226.0,1
51,51,0.42809623354278903,0.4,0.0,0.0,416.0,812.0,0.0,1,212.0,1
52,52,-0.029731071554647936,-0.0,1.0,0.0,427.0,545.0,0.0,0,1268.0,1
53,53,0.7946040225957843,0.8,0.0,0.0,395.0,817.0,0.0,1,248.0,1
54,54,0.11621355394076505,0.1,0.0,0.0,458.0,547.0,0.0,1,1995.0,1
55,55,0.04933385067796647,0.0,1.0,1.0,394.0,820.0,1.0,1,1786.0,1
56,56,-0.7205369882948787,-0.7,1.0,0.0,399.0,810.0,0.0,0,211.0,1
57,57,-0.5661455689738132,-0.6,1.0,0.0,282.0,701.0,0.0,0,337.0,1
58,58,-0.4934545568163218,-0.5,0.0,1.0,478.0,834.0,1.0,0,528.0,1
59,59,-0.5971855959982937,-0.6,1.0,0.0,453.0,733.0,0.0,0,864.0,1
60,60,-0.1263062683432371,-0.1,1.0,0.0,405.0,811.0,0.0,0,1784.0,1
61,61,-0.4195302540142275,-0.4,1.0,0.0,271.0,956.0,0.0,0,573.0,1
62,62,0.547393266128282,0.5,0.0,0.0,282.0,547.0,0.0,1,221.0,1
63,63,-0.05834913922343499,-0.1,0.0,1.0,281.0,888.0,1.0,0,301.0,1
64,64,0.24903626154882963,0.2,1.0,1.0,261.0,918.0,1.0,1,351.0,1
65,65,0.3637823091798821,0.4,1.0,1.0,441.0,553.0,1.0,1,1116.0,1
66,66,0.2034941859049545,0.2,1.0,1.0,325.0,815.0,1.0,1,470.0,1
67,67,-0.16648429108939633,-0.2,0.0,1.0,283.0,762.0,1.0,0,805.0,1
68,68,-0.5595426295108716,-0.6,0.0,1.0,462.0,663.0,1.0,0,155.0,1
69,69,-0.8234802641574077,-0.8,0.0,1.0,308.0,591.0,1.0,0,171.0,1
70,70,0.3164225790487555,0.3,0.0,0.0,483.0,898.0,0.0,1,769.0,1
71,71,0.6500642316553958,0.7,1.0,1.0,488.0,884.0,1.0,1,298.0,1
72,72,-0.16124537523260163,-0.2,1.0,0.0,357.0,583.0,0.0,0,920.0,1
73,73,-0.11343629706911385,-0.1,0.0,1.0,371.0,833.0,1.0,0,1796.0,1
74,74,-0.8009849989960687,-0.8,0.0,1.0,315.0,897.0,1.0,0,148.0,1
75,75,0.8746788827930981,0.9,1.0,1.0,253.0,845.0,1.0,1,102.0,1
76,76,-0.12197727725022733,-0.1,1.0,0.0,360.0,823.0,0.0,0,477.0,1
77,77,0.2331561546449249,0.2,1.0,1.0,409.0,936.0,1.0,1,345.0,1
78,78,-0.2410060043077039,-0.2,0.0,1.0,476.0,643.0,1.0,0,771.0,1
79,79,-0.19864723114377536,-0.2,0.0,1.0,432.0,848.0,1.0,0,510.0,1
80,80,0.6444967896011354,0.6,1.0,1.0,376.0,891.0,1.0,1,273.0,1
81,81,0.2582284858330398,0.3,1.0,1.0,428.0,956.0,1.0,1,676.0,1
82,82,-0.41776918958830456,-0.4,0.0,1.0,280.0,702.0,1.0,0,788.0,1
83,83,0.8574727454183918,0.9,1.0,1.0,405.0,950.0,1.0,1,145.0,1
84,84,-0.18369199096879474,-0.2,1.0,0.0,405.0,833.0,0.0,0,222.0,1
85,85,-0.23513516936955625,-0.2,0.0,1.0,413.0,885.0,1.0,0,832.0,1
86,86,0.4747389566232566,0.5,1.0,1.0,342.0,560.0,1.0,1,548.0,1
87,87,-0.19139188510691096,-0.2,1.0,0.0,459.0,597.0,0.0,0,1784.0,1
88,88,0.07237495885626255,0.1,0.0,0.0,415.0,911.0,0.0,1,1674.0,1
89,89,0.1760852124044726,0.2,0.0,0.0,376.0,938.0,0.0,1,896.0,1
90,90,-0.4747564308987358,-0.5,1.0,0.0,289.0,886.0,0.0,0,415.0,1
91,91,-0.06181429956487183,-0.1,1.0,0.0,291.0,919.0,0.0,0,1460.0,1
92,92,-0.29593883036434243,-0.3,1.0,0.0,400.0,723.0,0.0,0,617.0,1
93,93,-0.8250818659515756,-0.8,1.0,0.0,477.0,627.0,0.0,0,336.0,1
94,94,0.07119347012387,0.1,1.0,1.0,473.0,608.0,1.0,1,1639.0,1
95,95,-0.3765208734790392,-0.4,1.0,0.0,433.0,563.0,0.0,0,1224.0,1
96,96,-0.8911494605382292,-0.9,0.0,1.0,259.0,801.0,1.0,0,190.0,1
97,97,0.2771998931203633,0.3,0.0,0.0,357.0,750.0,0.0,1,203.0,1
98,98,-0.16743771522487172,-0.2,1.0,0.0,310.0,989.0,0.0,0,1111.0,1
99,99,-0.3249719362264166,-0.3,0.0,1.0,432.0,944.0,1.0,0,334.0,1
100,100,0.7637757497274639,0.8,0.0,0.0,409.0,636.0,0.0,1,165.0,1
101,101,0.8756495825863068,0.9,1.0,1.0,331.0,719.0,1.0,1,190.0,1
102,102,0.8162468902670227,0.8,1.0,1.0,475.0,578.0,1.0,1,307.0,1
103,103,-0.05428395006072062,-0.1,0.0,1.0,378.0,644.0,1.0,0,1978.0,1
104,104,0.10404259247218806,0.1,0.0,0.0,278.0,655.0,0.0,1,257.0,1
105,105,-0.16151335547874002,-0.2,1.0,0.0,370.0,872.0,0.0,0,1468.0,1
106,106,0.049846212812415525,0.0,0.0,0.0,434.0,828.0,0.0,1,1738.0,1
107,107,-0.2909472294893547,-0.3,1.0,0.0,491.0,518.0,0.0,0,1991.0,1
108,108,-0.34692133299775596,-0.3,1.0,0.0,468.0,530.0,0.0,0,402.0,1
109,109,-0.6990778413610294,-0.7,0.0,1.0,403.0,697.0,1.0,0,220.0,1
110,110,-0.6795068113634231,-0.7,0.0,1.0,394.0,730.0,1.0,0,256.0,1
111,111,-0.25090563049295633,-0.3,1.0,0.0,311.0,810.0,0.0,0,609.0,1
112,112,-0.3581236971679004,-0.4,0.0,1.0,444.0,879.0,1.0,0,527.0,1
113,113,0.14613789559384427,0.1,1.0,1.0,342.0,872.0,1.0,1,456.0,1
114,114,-0.667247520823411,-0.7,0.0,1.0,493.0,657.0,1.0,0,420.0,1
115,115,-0.04817217975199295,-0.0,0.0,1.0,272.0,570.0,1.0,0,2158.0,1
116,116,0.576795500719853,0.6,0.0,0.0,447.0,983.0,0.0,1,270.0,1
117,117,-0.4200850937361715,-0.4,0.0,1.0,392.0,702.0,1.0,0,356.0,1
118,118,-0.24870567747158945,-0.2,0.0,1.0,257.0,893.0,1.0,0,1780.0,1
119,119,0.7845775435656069,0.8,1.0,1.0,333.0,501.0,1.0,1,166.0,1
120,120,0.5871293762987378,0.6,0.0,0.0,426.0,707.0,0.0,1,447.0,1
121,121,0.6944640438298703,0.7,1.0,1.0,397.0,855.0,1.0,1,198.0,1
122,122,-0.6548069474874083,-0.7,1.0,0.0,339.0,760.0,0.0,0,171.0,1
123,123,-0.8649904316995546,-0.9,1.0,0.0,327.0,985.0,0.0,0,248.0,1
124,124,-0.1465368822578903,-0.1,0.0,1.0,287.0,865.0,1.0,0,1518.0,1
125,125,0.1913106796652938,0.2,0.0,0.0,324.0,724.0,0.0,1,1952.0,1
126,126,0.6042929507419755,0.6,0.0,0.0,368.0,856.0,0.0,1,236.0,1
127,127,0.6728168030244758,0.7,0.0,0.0,448.0,638.0,0.0,1,154.0,1
128,128,0.2816367002752639,0.3,0.0,0.0,478.0,524.0,0.0,1,648.0,1
129,129,0.05754170444301843,0.1,1.0,1.0,316.0,916.0,1.0,1,1768.0,1
130,130,0.8920331335450761,0.9,1.0,1.0,359.0,983.0,1.0,1,118.0,1
131,131,0.07055287028327462,0.1,1.0,1.0,299.0,860.0,1.0,1,1161.0,1
132,132,0.31735512946937516,0.3,1.0,1.0,343.0,923.0,1.0,1,444.0,1
133,133,0.7142506600363786,0.7,0.0,0.0,363.0,750.0,0.0,1,287.0,1
134,134,-0.36547265792249073,-0.4,0.0,1.0,494.0,740.0,1.0,0,336.0,1
135,135,-0.03977073801294795,-0.0,1.0,0.0,476.0,535.0,0.0,0,1989.0,1
136,136,0.3685527451808658,0.4,0.0,0.0,378.0,887.0,0.0,1,735.0,1
137,137,0.16125361015290973,0.2,1.0,1.0,434.0,579.0,1.0,1,457.0,1
138,138,-0.6509279011478453,-0.7,1.0,0.0,380.0,993.0,0.0,0,357.0,1
139,139,-0.4940988305152477,-0.5,0.0,1.0,334.0,796.0,1.0,0,330.0,1
140,140,0.6227234368926694,0.6,1.0,1.0,271.0,693.0,1.0,1,236.0,1
141,141,-0.5452574890252142,-0.5,0.0,1.0,355.0,665.0,1.0,0,240.0,1
142,142,-0.3564582601968578,-0.4,1.0,0.0,348.0,786.0,0.0,0,376.0,1
143,143,0.2274067365651281,0.2,0.0,0.0,275.0,599.0,0.0,1,2126.0,1
144,144,0.6680987690527086,0.7,0.0,0.0,334.0,508.0,0.0,1,258.0,1
145,145,-0.7847399306450571,-0.8,1.0,0.0,358.0,630.0,0.0,0,312.0,1
146,146,0.1325540579854766,0.1,0.0,0.0,402.0,906.0,0.0,1,1692.0,1
147,147,-0.6017027060201012,-0.6,0.0,1.0,271.0,731.0,1.0,0,358.0,1
148,148,0.21808510522265456,0.2,0.0,0.0,307.0,509.0,0.0,1,464.0,1
149,149,-0.05733448369926297,-0.1,1.0,0.0,397.0,589.0,0.0,0,1684.0,1
150,150,-0.10345772607542669,-0.1,0.0,1.0,268.0,977.0,1.0,0,1755.0,1
151,151,0.2711154188045327,0.3,1.0,1.0,322.0,770.0,1.0,1,668.0,1
152,152,-0.4422282364796751,-0.4,1.0,0.0,300.0,942.0,0.0,0,568.0,1
153,153,-0.29705645531136127,-0.3,1.0,0.0,290.0,628.0,0.0,0,1072.0,1
154,154,-0.7039484782810693,-0.7,0.0,1.0,497.0,831.0,1.0,0,152.0,1
155,155,-0.6835213139056258,-0.7,1.0,0.0,278.0,657.0,0.0,0,185.0,1
156,156,0.09583437168526954,0.1,1.0,1.0,277.0,607.0,1.0,1,1336.0,1
157,157,-0.0821919598361397,-0.1,1.0,0.0,379.0,982.0,1.0,1,1639.0,0
158,158,-0.4542048562859433,-0.5,0.0,1.0,367.0,969.0,1.0,0,714.0,1
159,159,-0.5229108928579627,-0.5,1.0,0.0,345.0,972.0,0.0,0,503.0,1
160,160,-0.7123658081973316,-0.7,1.0,0.0,352.0,633.0,0.0,0,295.0,1
161,161,0.49001664269320877,0.5,0.0,0.0,398.0,821.0,0.0,1,411.0,1
162,162,-0.30418524476806375,-0.3,1.0,0.0,431.0,757.0,0.0,0,822.0,1
163,163,0.5168454538259702,0.5,1.0,1.0,405.0,624.0,1.0,1,421.0,1
164,164,0.7403554773899707,0.7,0.0,0.0,434.0,693.0,0.0,1,63.0,1
165,165,-0.11623793620793532,-0.1,0.0,1.0,453.0,551.0,1.0,0,1996.0,1
166,166,-0.8962213152312537,-0.9,0.0,1.0,252.0,801.0,1.0,0,237.0,1
167,167,-0.11957358079083136,-0.1,0.0,1.0,455.0,993.0,1.0,0,632.0,1
168,168,-0.8352499742703027,-0.8,0.0,1.0,358.0,548.0,1.0,0,144.0,1
169,169,0.2937106563473143,0.3,0.0,0.0,319.0,726.0,0.0,1,1205.0,1
170,170,-0.6384791508446953,-0.6,0.0,1.0,496.0,857.0,1.0,0,97.0,1
171,171,-0.6332510412247101,-0.6,1.0,0.0,252.0,930.0,0.0,0,338.0,1
172,172,-0.8000761306950459,-0.8,1.0,0.0,422.0,947.0,0.0,0,301.0,1
173,173,-0.6220930637225379,-0.6,0.0,1.0,329.0,641.0,1.0,0,130.0,1
174,174,-0.5678882924415891,-0.6,1.0,0.0,303.0,638.0,0.0,0,199.0,1
175,175,0.7128386889070012,0.7,1.0,1.0,455.0,823.0,1.0,1,352.0,1
176,176,0.621769230991667,0.6,1.0,1.0,284.0,504.0,1.0,1,572.0,1
177,177,-0.1512002229588597,-0.2,0.0,1.0,272.0,872.0,1.0,0,1856.0,1
178,178,0.4239328866390625,0.4,1.0,1.0,380.0,607.0,1.0,1,173.0,1
179,179,-0.3821968973458528,-0.4,1.0,0.0,282.0,896.0,0.0,0,1372.0,1
180,180,-0.682893296481404,-0.7,1.0,0.0,302.0,572.0,0.0,0,336.0,1
181,181,-0.05354250388369497,-0.1,1.0,0.0,408.0,748.0,0.0,0,1844.0,1
182,182,0.614514635436816,0.6,0.0,0.0,375.0,609.0,0.0,1,206.0,1
183,183,0.16016041233850753,0.2,0.0,0.0,446.0,562.0,0.0,1,1992.0,1
184,184,-0.15492522419183907,-0.2,1.0,0.0,494.0,929.0,0.0,0,757.0,1
185,185,-0.8883901628062316,-0.9,0.0,1.0,311.0,502.0,1.0,0,227.0,1
186,186,-0.721417765258275,-0.7,1.0,0.0,339.0,931.0,0.0,0,370.0,1
187,187,-0.06872406789523644,-0.1,0.0,1.0,326.0,589.0,1.0,0,2085.0,1
188,188,-0.34844382832866017,-0.3,0.0,1.0,289.0,573.0,1.0,0,298.0,1
189,189,-0.6473558226742986,-0.6,0.0,1.0,459.0,865.0,1.0,0,626.0,1
190,190,-0.0824401853463943,-0.1,0.0,1.0,323.0,928.0,1.0,0,1159.0,1
191,191,0.022486014204049387,0.0,1.0,1.0,415.0,566.0,0.0,0,2019.0,0
192,192,-0.29512965665337143,-0.3,0.0,1.0,496.0,937.0,1.0,0,677.0,1
193,193,-0.032010646856978076,-0.0,1.0,0.0,429.0,864.0,0.0,0,1707.0,1
194,194,0.3535242390082386,0.4,1.0,1.0,449.0,811.0,1.0,1,350.0,1
195,195,-0.45372914852341123,-0.5,0.0,1.0,434.0,671.0,1.0,0,255.0,1
196,196,0.8741368488486475,0.9,0.0,0.0,446.0,921.0,0.0,1,183.0,1
197,197,-0.5504888954780001,-0.6,1.0,0.0,351.0,906.0,0.0,0,393.0,1
198,198,-0.5690055117835094,-0.6,0.0,1.0,448.0,754.0,1.0,0,318.0,1
199,199,0.8121875284565304,0.8,0.0,0.0,277.0,652.0,0.0,1,111.0,1
200,200,-0.2972033071492073,-0.3,0.0,1.0,393.0,952.0,1.0,0,1165.0,1
201,201,0.4657412438215772,0.5,1.0,1.0,342.0,829.0,1.0,1,199.0,1
202,202,0.6706202463617791,0.7,1.0,1.0,347.0,779.0,1.0,1,254.0,1
203,203,-0.8160877567070507,-0.8,0.0,1.0,340.0,593.0,1.0,0,377.0,1
204,204,0.14723271483527445,0.1,0.0,0.0,427.0,633.0,0.0,1,1280.0,1
205,205,-0.38931144366626447,-0.4,1.0,0.0,415.0,737.0,0.0,0,608.0,1
206,206,0.3221990451537645,0.3,1.0,1.0,366.0,839.0,1.0,1,895.0,1
207,207,-0.30061299413524945,-0.3,0.0,1.0,269.0,633.0,1.0,0,298.0,1
208,208,-0.23327236113261907,-0.2,0.0,1.0,255.0,591.0,1.0,0,1714.0,1
209,209,0.25357449403416965,0.3,1.0,1.0,442.0,501.0,1.0,1,217.0,1
210,210,0.1412452078980394,0.1,1.0,1.0,492.0,666.0,1.0,1,1842.0,1
211,211,0.746680210604261,0.7,0.0,0.0,275.0,899.0,0.0,1,266.0,1
212,212,-0.3060558068911241,-0.3,1.0,0.0,380.0,979.0,0.0,0,721.0,1
213,213,-0.6996563276478159,-0.7,1.0,0.0,274.0,781.0,0.0,0,55.0,1
214,214,-0.7595820689685618,-0.8,0.0,1.0,459.0,537.0,1.0,0,454.0,1
215,215,0.3301684722938142,0.3,0.0,0.0,384.0,630.0,0.0,1,1476.0,1
216,216,-0.4427921175131078,-0.4,0.0,1.0,415.0,850.0,1.0,0,185.0,1
217,217,0.5648055211867437,0.6,0.0,0.0,477.0,841.0,0.0,1,152.0,1
218,218,0.5601288159808283,0.6,0.0,0.0,331.0,637.0,0.0,1,252.0,1
219,219,-0.4377193955294781,-0.4,1.0,0.0,405.0,628.0,0.0,0,307.0,1
220,220,0.040687481773525214,0.0,0.0,0.0,381.0,730.0,1.0,0,1889.0,0
221,221,0.7608766930319489,0.8,0.0,0.0,318.0,891.0,0.0,1,251.0,1
222,222,0.39063699009655883,0.4,0.0,0.0,479.0,536.0,0.0,1,215.0,1
223,223,-0.5237835695085571,-0.5,0.0,1.0,336.0,811.0,1.0,0,233.0,1
224,224,-0.2298287250260712,-0.2,0.0,1.0,401.0,626.0,1.0,0,543.0,1
225,225,0.49494301214619163,0.5,0.0,0.0,388.0,534.0,0.0,1,228.0,1
226,226,-0.2858470715365392,-0.3,0.0,1.0,384.0,859.0,1.0,0,1107.0,1
227,227,-0.3480940310352616,-0.3,1.0,0.0,426.0,727.0,0.0,0,837.0,1
228,228,-0.32981955279267683,-0.3,0.0,1.0,333.0,904.0,1.0,0,473.0,1
229,229,-0.1956431415906541,-0.2,1.0,0.0,418.0,714.0,0.0,0,1358.0,1
230,230,0.5998530388623428,0.6,1.0,1.0,386.0,993.0,1.0,1,101.0,1
231,231,0.7369631112702285,0.7,1.0,1.0,304.0,938.0,1.0,1,368.0,1
232,232,-0.5302262239096434,-0.5,1.0,0.0,285.0,892.0,0.0,0,973.0,1
233,233,-0.5388855675504263,-0.5,0.0,1.0,303.0,935.0,1.0,0,102.0,1
234,234,0.08921553239976798,0.1,1.0,1.0,491.0,633.0,1.0,1,1876.0,1
235,235,0.7585244081921644,0.8,0.0,0.0,402.0,522.0,0.0,1,136.0,1
236,236,-0.5898757470414834,-0.6,0.0,1.0,411.0,918.0,1.0,0,571.0,1
237,237,0.45889788331082404,0.5,1.0,1.0,392.0,871.0,1.0,1,517.0,1
238,238,-0.6100716111715565,-0.6,1.0,0.0,312.0,861.0,0.0,0,137.0,1
239,239,0.7048878882184754,0.7,1.0,1.0,444.0,521.0,1.0,1,695.0,1
240,240,0.8534893677299898,0.9,1.0,1.0,339.0,623.0,1.0,1,188.0,1
241,241,-0.42838986611347724,-0.4,0.0,1.0,405.0,894.0,1.0,0,321.0,1
242,242,0.2639861458805849,0.3,1.0,1.0,447.0,550.0,1.0,1,963.0,1
243,243,0.8269301750919268,0.8,0.0,0.0,465.0,511.0,0.0,1,214.0,1
244,244,0.8351902464873565,0.8,1.0,1.0,256.0,730.0,1.0,1,384.0,1
245,245,-0.8659246738605392,-0.9,1.0,0.0,437.0,578.0,0.0,0,305.0,1
246,246,-0.5727198533520617,-0.6,1.0,0.0,415.0,767.0,0.0,0,578.0,1
247,247,-0.406244695763666,-0.4,1.0,0.0,293.0,773.0,0.0,0,514.0,1
248,248,0.7995721449516787,0.8,0.0,0.0,356.0,880.0,0.0,1,214.0,1
249,249,0.7315451118266608,0.7,0.0,0.0,440.0,542.0,0.0,1,248.0,1
250,250,-0.23411640939795908,-0.2,0.0,1.0,486.0,572.0,1.0,0,402.0,1
251,251,0.18112928255187033,0.2,0.0,0.0,263.0,594.0,0.0,1,1833.0,1
252,252,0.8888256540463962,0.9,0.0,0.0,483.0,546.0,0.0,1,281.0,1
253,253,0.4657265948391688,0.5,1.0,1.0,262.0,503.0,1.0,1,455.0,1
254,254,-0.5324872631626931,-0.5,1.0,0.0,402.0,508.0,0.0,0,340.0,1
255,255,-0.5189284545963666,-0.5,1.0,0.0,478.0,803.0,0.0,0,679.0,1
256,256,0.04218571574805685,0.0,1.0,1.0,349.0,870.0,0.0,0,1781.0,0
257,257,0.851612755991879,0.9,1.0,1.0,339.0,683.0,1.0,1,298.0,1
258,258,-0.5275663810502687,-0.5,1.0,0.0,365.0,991.0,0.0,0,244.0,1
259,259,-0.15458039375698296,-0.2,0.0,1.0,271.0,681.0,1.0,0,2048.0,1
260,260,-0.13678532025787848,-0.1,1.0,0.0,252.0,947.0,0.0,0,1571.0,1
261,261,-0.32104562135856496,-0.3,1.0,0.0,327.0,732.0,0.0,0,1171.0,1
262,262,-0.8555472566045783,-0.9,0.0,1.0,457.0,956.0,1.0,0,87.0,1
263,263,0.7432797019728387,0.7,1.0,1.0,364.0,931.0,1.0,1,105.0,1
264,264,-0.29672804560030364,-0.3,0.0,1.0,250.0,797.0,1.0,0,423.0,1
265,265,-0.4450722711291986,-0.4,0.0,1.0,450.0,722.0,1.0,0,498.0,1
266,266,0.13258500007467056,0.1,1.0,1.0,424.0,633.0,1.0,1,723.0,1
267,267,-0.44031313276690937,-0.4,1.0,0.0,378.0,827.0,0.0,0,245.0,1
268,268,-0.1931992664611376,-0.2,1.0,0.0,387.0,749.0,0.0,0,824.0,1
269,269,-0.7864608914948571,-0.8,0.0,1.0,272.0,927.0,1.0,0,191.0,1
270,270,-0.6279555950387604,-0.6,0.0,1.0,352.0,696.0,1.0,0,232.0,1
271,271,-0.15985192536686843,-0.2,1.0,0.0,307.0,709.0,0.0,0,1844.0,1
272,272,-0.8535115772048689,-0.9,1.0,0.0,346.0,572.0,0.0,0,322.0,1
273,273,0.7499476416827956,0.7,0.0,0.0,255.0,660.0,0.0,1,295.0,1
274,274,0.012445354658217833,0.0,0.0,0.0,381.0,929.0,0.0,1,1690.0,1
275,275,0.21556478821742353,0.2,0.0,0.0,318.0,806.0,0.0,1,946.0,1
276,276,-0.5179731805667558,-0.5,1.0,0.0,262.0,717.0,0.0,0,181.0,1
277,277,-0.10590709578597313,-0.1,1.0,0.0,308.0,681.0,0.0,0,2011.0,1
278,278,-0.8068064226777654,-0.8,1.0,0.0,290.0,997.0,0.0,0,343.0,1
279,279,0.12181921126676387,0.1,1.0,1.0,311.0,554.0,1.0,1,2135.0,1
280,280,-0.7861526515586135,-0.8,0.0,1.0,439.0,739.0,1.0,0,192.0,1
281,281,0.6485120987059595,0.6,0.0,0.0,268.0,833.0,0.0,1,249.0,1
282,282,-0.8400475997291224,-0.8,1.0,0.0,426.0,870.0,0.0,0,534.0,1
283,283,0.11340625269867532,0.1,0.0,0.0,454.0,528.0,0.0,1,468.0,1
284,284,-0.030691381892920755,-0.0,0.0,1.0,313.0,799.0,0.0,1,8.0,0
285,285,-0.7757880634235744,-0.8,1.0,0.0,415.0,647.0,0.0,0,148.0,1
286,286,0.39167775953812434,0.4,0.0,0.0,459.0,809.0,0.0,1,352.0,1
287,287,0.7672499679548014,0.8,0.0,0.0,457.0,677.0,0.0,1,326.0,1
288,288,-0.3527586066045276,-0.4,0.0,1.0,405.0,789.0,1.0,0,286.0,1
289,289,0.45595758928464913,0.5,1.0,1.0,377.0,784.0,1.0,1,249.0,1
290,290,0.06387062204998584,0.1,0.0,0.0,497.0,578.0,0.0,1,1925.0,1
291,291,-0.4175096947025559,-0.4,1.0,0.0,253.0,552.0,0.0,0,505.0,1
292,292,-0.3945173564578003,-0.4,0.0,1.0,464.0,700.0,1.0,0,376.0,1
293,293,-0.06899452554557339,-0.1,0.0,1.0,286.0,894.0,1.0,0,1090.0,1
294,294,0.6854745600877487,0.7,0.0,0.0,442.0,762.0,0.0,1,266.0,1
295,295,-0.5502406095952779,-0.6,1.0,0.0,446.0,562.0,0.0,0,702.0,1
296,296,0.7229491928226911,0.7,1.0,1.0,402.0,906.0,1.0,1,232.0,1
297,297,0.03509309601886179,0.0,0.0,0.0,287.0,866.0,0.0,1,1317.0,1
298,298,-0.7987158050412412,-0.8,0.0,1.0,288.0,767.0,1.0,0,365.0,1
299,299,-0.8539652935041224,-0.9,1.0,0.0,485.0,536.0,0.0,0,739.0,1
300,300,0.1856039001551283,0.2,1.0,1.0,436.0,573.0,1.0,1,701.0,1
301,301,-0.6303494567968517,-0.6,0.0,1.0,260.0,639.0,1.0,0,311.0,1
302,302,0.29925791442910155,0.3,0.0,0.0,378.0,779.0,0.0,1,603.0,1
303,303,-0.7975621661224073,-0.8,0.0,1.0,310.0,985.0,1.0,0,175.0,1
304,304,0.5040780676046933,0.5,1.0,1.0,475.0,985.0,1.0,1,640.0,1
305,305,-0.8912489878292482,-0.9,0.0,1.0,270.0,840.0,1.0,0,150.0,1
306,306,-0.30151320945248905,-0.3,0.0,1.0,363.0,512.0,1.0,0,315.0,1
307,307,-0.8724012194039045,-0.9,1.0,0.0,407.0,935.0,0.0,0,148.0,1
308,308,-0.6600941082389664,-0.7,0.0,1.0,474.0,583.0,1.0,0,603.0,1
309,309,-0.8565382122869932,-0.9,1.0,0.0,406.0,607.0,0.0,0,197.0,1
310,310,0.05555580403720661,0.1,0.0,0.0,415.0,541.0,0.0,1,384.0,1
311,311,0.1366165236172524,0.1,1.0,1.0,415.0,615.0,0.0,0,1970.0,0
312,312,-0.1985767495801829,-0.2,0.0,1.0,320.0,550.0,1.0,0,870.0,1
313,313,-0.2238688597749089,-0.2,1.0,0.0,276.0,584.0,0.0,0,1270.0,1
314,314,0.5957521799514814,0.6,0.0,0.0,328.0,812.0,0.0,1,160.0,1
315,315,-0.12038342009645087,-0.1,0.0,1.0,377.0,586.0,1.0,0,1697.0,1
316,316,0.8314181471829906,0.8,0.0,0.0,495.0,959.0,0.0,1,226.0,1
317,317,0.8572717729825595,0.9,0.0,0.0,337.0,635.0,0.0,1,198.0,1
318,318,0.6011022123412474,0.6,1.0,1.0,313.0,508.0,1.0,1,239.0,1
319,319,-0.7153957857404601,-0.7,0.0,1.0,332.0,852.0,1.0,0,126.0,1
320,320,0.7472695198590514,0.7,1.0,1.0,415.0,701.0,1.0,1,754.0,1
321,321,0.14523681152890033,0.1,1.0,1.0,409.0,616.0,1.0,1,1975.0,1
322,322,-0.4607536575270547,-0.5,1.0,0.0,278.0,706.0,0.0,0,1836.0,1
323,323,-0.6940398318925227,-0.7,0.0,1.0,441.0,519.0,1.0,0,250.0,1
324,324,-0.6828031268782209,-0.7,0.0,1.0,483.0,619.0,1.0,0,128.0,1
325,325,-0.8117769997471205,-0.8,0.0,1.0,289.0,973.0,1.0,0,108.0,1
326,326,-0.6339581700751928,-0.6,0.0,1.0,434.0,935.0,1.0,0,221.0,1
327,327,-0.02258325471003675,-0.0,0.0,1.0,286.0,913.0,1.0,0,1801.0,1
328,328,0.04546863227959175,0.0,0.0,0.0,384.0,880.0,0.0,1,1736.0,1
329,329,-0.7802913856361742,-0.8,0.0,1.0,380.0,714.0,1.0,0,186.0,1
330,330,0.7173893587188668,0.7,0.0,0.0,321.0,675.0,0.0,1,164.0,1
331,331,-0.4163208195454465,-0.4,0.0,1.0,458.0,533.0,1.0,0,589.0,1
332,332,0.2536069821807493,0.3,1.0,1.0,479.0,888.0,1.0,1,1263.0,1
333,333,-0.7733782376404995,-0.8,1.0,0.0,481.0,995.0,0.0,0,374.0,1
334,334,0.5467038333297335,0.5,0.0,0.0,408.0,627.0,0.0,1,165.0,1
335,335,0.13091090279119888,0.1,0.0,0.0,342.0,508.0,0.0,1,2150.0,1
336,336,-0.7553906398306791,-0.8,0.0,1.0,429.0,673.0,1.0,0,228.0,1
337,337,0.8207502095554197,0.8,0.0,0.0,257.0,893.0,0.0,1,130.0,1
338,338,0.8113135030687885,0.8,0.0,0.0,402.0,738.0,0.0,1,220.0,1
339,339,-0.6476775373601584,-0.6,0.0,1.0,302.0,629.0,1.0,0,169.0,1
340,340,-0.5918147412057804,-0.6,0.0,1.0,435.0,999.0,1.0,0,176.0,1
341,341,-0.8506127069014956,-0.9,0.0,1.0,379.0,988.0,1.0,0,213.0,1
342,342,0.6391124369171645,0.6,0.0,0.0,368.0,914.0,0.0,1,188.0,1
343,343,0.26996099908436844,0.3,1.0,1.0,474.0,636.0,1.0,1,1030.0,1
344,344,0.32568797416825,0.3,0.0,0.0,365.0,561.0,0.0,1,494.0,1
345,345,0.7728576316048416,0.8,0.0,0.0,474.0,813.0,0.0,1,133.0,1
346,346,0.24762081416567672,0.2,1.0,1.0,471.0,911.0,1.0,1,1618.0,1
347,347,-0.7505950173124954,-0.8,1.0,0.0,434.0,658.0,0.0,0,708.0,1
348,348,-0.5070891685638932,-0.5,1.0,0.0,443.0,829.0,0.0,0,338.0,1
349,349,0.7070623207525571,0.7,0.0,0.0,421.0,528.0,0.0,1,161.0,1
350,350,0.5873148064904533,0.6,1.0,1.0,414.0,742.0,1.0,1,244.0,1
351,351,-0.40511133174177155,-0.4,1.0,0.0,436.0,604.0,0.0,0,950.0,1
352,352,-0.7972286687409,-0.8,0.0,1.0,376.0,814.0,0.0,1,-110.0,0
353,353,-0.5230644021418077,-0.5,0.0,1.0,256.0,971.0,1.0,0,183.0,1
354,354,0.3379780220404879,0.3,0.0,0.0,280.0,894.0,0.0,1,596.0,1
355,355,-0.6323602406728479,-0.6,0.0,1.0,460.0,726.0,1.0,0,284.0,1
356,356,0.10053002753622498,0.1,1.0,1.0,251.0,783.0,1.0,1,1966.0,1
357,357,-0.6676729012262103,-0.7,0.0,1.0,373.0,889.0,1.0,0,158.0,1
358,358,-0.007390562484362984,-0.0,0.0,1.0,346.0,583.0,1.0,0,2071.0,1
359,359,0.3546959424414836,0.4,1.0,1.0,423.0,961.0,1.0,1,296.0,1
360,360,-0.13279644977947413,-0.1,1.0,0.0,278.0,948.0,0.0,0,584.0,1
361,361,0.8793482172995063,0.9,1.0,1.0,364.0,626.0,1.0,1,150.0,1
362,362,0.6954357328876816,0.7,0.0,0.0,380.0,931.0,0.0,1,209.0,1
363,363,0.0012140942909347752,0.0,1.0,1.0,397.0,990.0,1.0,1,-137.0,1
364,364,-0.5744316123630795,-0.6,0.0,1.0,475.0,732.0,1.0,0,173.0,1
365,365,-0.7937747019439825,-0.8,0.0,1.0,255.0,793.0,1.0,0,132.0,1
366,366,-0.03864760075302154,-0.0,1.0,0.0,323.0,943.0,0.0,0,1734.0,1
367,367,-0.2505579477211455,-0.3,0.0,1.0,376.0,728.0,1.0,0,1046.0,1
368,368,0.19359376387855487,0.2,0.0,0.0,336.0,601.0,0.0,1,373.0,1
369,369,-0.4734593060938665,-0.5,0.0,1.0,318.0,783.0,1.0,0,259.0,1
370,370,0.802097106582902,0.8,1.0,1.0,254.0,995.0,1.0,1,101.0,1
371,371,-0.1926065552165649,-0.2,0.0,1.0,324.0,872.0,1.0,0,1344.0,1
372,372,0.3123761151565819,0.3,1.0,1.0,464.0,994.0,1.0,1,922.0,1
373,373,-0.28990660071293817,-0.3,1.0,0.0,394.0,756.0,0.0,0,980.0,1
374,374,-0.01980872011937096,-0.0,1.0,0.0,310.0,932.0,1.0,1,1758.0,0
375,375,0.14922711948495915,0.1,0.0,0.0,390.0,664.0,0.0,1,1946.0,1
376,376,-0.5268814936371866,-0.5,0.0,1.0,250.0,760.0,1.0,0,390.0,1
377,377,-0.5487682577416777,-0.5,0.0,1.0,416.0,592.0,1.0,0,212.0,1
378,378,0.569363836636504,0.6,1.0,1.0,355.0,572.0,1.0,1,363.0,1
379,379,-0.38668212856259465,-0.4,1.0,0.0,324.0,843.0,0.0,0,683.0,1
380,380,-0.31488939918656056,-0.3,0.0,1.0,441.0,666.0,1.0,0,533.0,1
381,381,-0.1880437417231472,-0.2,0.0,1.0,497.0,951.0,1.0,0,1552.0,1
382,382,-0.6952484653155139,-0.7,0.0,1.0,287.0,874.0,1.0,0,279.0,1
383,383,-0.6428120035960592,-0.6,1.0,0.0,437.0,813.0,0.0,0,220.0,1
384,384,-0.5513836850642502,-0.6,1.0,0.0,265.0,752.0,0.0,0,243.0,1
385,385,-0.5619584860324438,-0.6,0.0,1.0,331.0,533.0,1.0,0,186.0,1
386,386,0.2098576687533068,0.2,0.0,0.0,319.0,816.0,0.0,1,895.0,1
387,387,-0.06739271210250919,-0.1,1.0,0.0,487.0,818.0,1.0,1,1695.0,0
388,388,0.15282085646154286,0.2,1.0,1.0,414.0,652.0,1.0,1,144.0,1
389,389,-0.5238567671632886,-0.5,1.0,0.0,492.0,537.0,0.0,0,201.0,1
390,390,0.6425254511524251,0.6,1.0,1.0,455.0,500.0,1.0,1,175.0,1
391,391,-0.7202544381124878,-0.7,1.0,0.0,311.0,797.0,0.0,0,172.0,1
392,392,0.8205572184452664,0.8,0.0,0.0,407.0,584.0,0.0,1,249.0,1
393,393,-0.14091454916387247,-0.1,0.0,1.0,375.0,657.0,1.0,0,678.0,1
394,394,0.6057633076114958,0.6,0.0,0.0,436.0,764.0,0.0,1,140.0,1
395,395,-0.45020193734550873,-0.5,0.0,1.0,258.0,811.0,1.0,0,211.0,1
396,396,0.290437705529378,0.3,0.0,0.0,393.0,551.0,0.0,1,836.0,1
397,397,-0.8834166379345317,-0.9,1.0,0.0,289.0,828.0,0.0,0,363.0,1
398,398,-0.6713890388919463,-0.7,0.0,1.0,385.0,966.0,1.0,0,239.0,1
399,399,0.20558108638055794,0.2,1.0,1.0,259.0,561.0,1.0,1,910.0,1
400,400,0.8018788813978294,0.8,1.0,1.0,430.0,891.0,1.0,1,359.0,1
401,401,-0.8798800553299907,-0.9,1.0,0.0,398.0,551.0,0.0,0,301.0,1
402,402,-0.6194692239226869,-0.6,0.0,1.0,491.0,946.0,1.0,0,283.0,1
403,403,0.8605977913800368,0.9,0.0,0.0,301.0,610.0,0.0,1,369.0,1
404,404,-0.5670170604982745,-0.6,0.0,1.0,407.0,731.0,1.0,0,292.0,1
405,405,-0.07464582003024534,-0.1,0.0,1.0,392.0,685.0,1.0,0,1923.0,1
406,406,0.8549254830571152,0.9,1.0,1.0,306.0,927.0,1.0,1,147.0,1
407,407,0.31231356744462857,0.3,1.0,1.0,420.0,679.0,1.0,1,571.0,1
408,408,0.6419552041172091,0.6,0.0,0.0,291.0,954.0,0.0,1,165.0,1
409,409,-0.5276428130494824,-0.5,1.0,0.0,344.0,571.0,0.0,0,445.0,1
410,410,-0.05411613362155865,-0.1,1.0,0.0,308.0,774.0,0.0,0,628.0,1
411,411,-0.2995973251322642,-0.3,1.0,0.0,275.0,813.0,0.0,0,292.0,1
412,412,0.6607951450164554,0.7,1.0,1.0,324.0,981.0,1.0,1,525.0,1
413,413,-0.37507925872080417,-0.4,1.0,0.0,436.0,963.0,0.0,0,561.0,1
414,414,0.28835219292980063,0.3,1.0,1.0,307.0,894.0,1.0,1,779.0,1
415,415,0.46961944378368836,0.5,1.0,1.0,452.0,568.0,1.0,1,560.0,1
416,416,0.754789791261035,0.8,1.0,1.0,396.0,931.0,1.0,1,383.0,1
417,417,0.3288532597332622,0.3,0.0,0.0,300.0,690.0,0.0,1,130.0,1
418,418,-0.5635188559520281,-0.6,0.0,1.0,441.0,996.0,1.0,0,203.0,1
419,419,0.5800909015892174,0.6,0.0,0.0,325.0,981.0,0.0,1,134.0,1
420,420,-0.3598868679183038,-0.4,0.0,1.0,328.0,835.0,1.0,0,817.0,1
421,421,0.41372796340066753,0.4,0.0,0.0,322.0,908.0,0.0,1,610.0,1
422,422,0.4018715963367764,0.4,1.0,1.0,370.0,808.0,1.0,1,522.0,1
423,423,0.42086168830978277,0.4,0.0,0.0,369.0,666.0,0.0,1,295.0,1
424,424,0.21942347751292324,0.2,0.0,0.0,250.0,543.0,0.0,1,967.0,1
425,425,0.13244394641255675,0.1,1.0,1.0,297.0,724.0,1.0,1,1829.0,1
426,426,0.8930723065196419,0.9,0.0,0.0,367.0,689.0,0.0,1,254.0,1
427,427,-0.5527209230814322,-0.6,0.0,1.0,390.0,655.0,1.0,0,675.0,1
428,428,-0.11735665564490405,-0.1,0.0,1.0,298.0,820.0,1.0,0,1862.0,1
429,429,0.42163588743460256,0.4,1.0,1.0,486.0,723.0,1.0,1,381.0,1
430,430,0.19362131290703644,0.2,1.0,1.0,337.0,757.0,1.0,1,526.0,1
431,431,-0.37854272797387467,-0.4,0.0,1.0,424.0,932.0,1.0,0,754.0,1
432,432,0.4143441789206962,0.4,0.0,0.0,422.0,640.0,0.0,1,408.0,1
433,433,0.6820191374000882,0.7,0.0,0.0,366.0,665.0,0.0,1,129.0,1
434,434,-0.8551299693796648,-0.9,0.0,1.0,475.0,724.0,1.0,0,161.0,1
435,435,-0.7336234954316121,-0.7,1.0,0.0,462.0,673.0,0.0,0,455.0,1
436,436,0.45083964960758227,0.5,0.0,0.0,319.0,678.0,0.0,1,503.0,1
437,437,0.5449990553213889,0.5,1.0,1.0,338.0,998.0,1.0,1,504.0,1
438,438,0.8643977912772022,0.9,0.0,0.0,369.0,699.0,0.0,1,182.0,1
439,439,0.35850013713471773,0.4,1.0,1.0,267.0,939.0,1.0,1,174.0,1
440,440,-0.8945412867364166,-0.9,1.0,0.0,295.0,981.0,0.0,0,374.0,1
441,441,0.7914253382685977,0.8,0.0,0.0,290.0,817.0,0.0,1,253.0,1
442,442,-0.47154395825005174,-0.5,1.0,0.0,385.0,676.0,0.0,0,339.0,1
443,443,-0.049438622222954476,-0.0,1.0,0.0,415.0,639.0,1.0,1,826.0,0
444,444,0.7923100692047856,0.8,1.0,1.0,330.0,671.0,1.0,1,249.0,1
445,445,0.6341956321919079,0.6,0.0,0.0,271.0,855.0,0.0,1,214.0,1
446,446,0.22603848277658523,0.2,0.0,0.0,469.0,621.0,0.0,1,1520.0,1
447,447,-0.1887863742945971,-0.2,0.0,1.0,395.0,965.0,1.0,0,450.0,1
448,448,-0.5455988132090364,-0.5,1.0,0.0,451.0,962.0,0.0,0,267.0,1
449,449,0.7591780345421678,0.8,1.0,1.0,296.0,772.0,1.0,1,222.0,1
450,450,0.7461797212396036,0.7,0.0,0.0,443.0,933.0,0.0,1,284.0,1
451,451,0.02450847953878177,0.0,1.0,1.0,335.0,624.0,1.0,1,141.0,1
452,452,-0.43769004710632314,-0.4,0.0,1.0,494.0,911.0,1.0,0,475.0,1
453,453,0.026511886708785792,0.0,1.0,1.0,330.0,581.0,1.0,1,2089.0,1
454,454,-0.5905017023008049,-0.6,0.0,1.0,378.0,872.0,1.0,0,400.0,1
455,455,0.7909165367951051,0.8,0.0,0.0,462.0,644.0,0.0,1,104.0,1
456,456,0.6161883252666828,0.6,1.0,1.0,394.0,707.0,1.0,1,269.0,1
457,457,0.3170423789028677,0.3,0.0,0.0,429.0,539.0,0.0,1,432.0,1
458,458,-0.11382408640457897,-0.1,0.0,1.0,386.0,661.0,1.0,0,1933.0,1
459,459,-0.40735327368127444,-0.4,1.0,0.0,274.0,676.0,0.0,0,320.0,1
460,460,-0.6567682141363058,-0.7,1.0,0.0,467.0,846.0,0.0,0,267.0,1
461,461,0.8441326078895556,0.8,1.0,1.0,447.0,832.0,1.0,1,391.0,1
462,462,0.6925480767745994,0.7,0.0,0.0,380.0,858.0,0.0,1,202.0,1
463,463,0.6208575341797097,0.6,0.0,0.0,281.0,763.0,0.0,1,156.0,1
464,464,-0.856170886976907,-0.9,1.0,0.0,320.0,914.0,0.0,0,116.0,1
465,465,0.8594369543909338,0.9,1.0,1.0,359.0,539.0,1.0,1,302.0,1
466,466,0.1947474363196039,0.2,1.0,1.0,375.0,822.0,1.0,1,253.0,1
467,467,0.8473094960282009,0.8,1.0,1.0,424.0,519.0,1.0,1,237.0,1
468,468,-0.09352948686632045,-0.1,0.0,1.0,285.0,902.0,1.0,0,313.0,1
469,469,-0.26242450273321305,-0.3,0.0,1.0,482.0,620.0,1.0,0,428.0,1
470,470,0.781137815748462,0.8,1.0,1.0,367.0,828.0,1.0,1,375.0,1
471,471,-0.48510709401192964,-0.5,0.0,1.0,269.0,746.0,1.0,0,285.0,1
472,472,-0.6118402518579167,-0.6,1.0,0.0,376.0,755.0,0.0,0,189.0,1
473,473,0.5121139816557504,0.5,0.0,0.0,372.0,936.0,0.0,1,352.0,1
474,474,0.5859218708545805,0.6,0.0,0.0,309.0,926.0,0.0,1,285.0,1
475,475,0.8072820876820163,0.8,0.0,0.0,257.0,999.0,0.0,1,214.0,1
476,476,0.2483048501272248,0.2,1.0,1.0,469.0,633.0,1.0,1,718.0,1
477,477,-0.353426544449592,-0.4,0.0,1.0,366.0,994.0,1.0,0,1070.0,1
478,478,-0.6082174702228815,-0.6,0.0,1.0,469.0,776.0,1.0,0,235.0,1
479,479,0.7194601837455951,0.7,1.0,1.0,387.0,891.0,1.0,1,202.0,1
480,480,0.12726039065714356,0.1,1.0,1.0,328.0,721.0,1.0,1,331.0,1
481,481,0.7726077796545788,0.8,1.0,1.0,456.0,793.0,1.0,1,311.0,1
482,482,0.03444220604709902,0.0,0.0,0.0,322.0,715.0,0.0,1,1963.0,1
483,483,-0.14429443675826537,-0.1,0.0,1.0,262.0,589.0,1.0,0,1119.0,1
484,484,-0.40529142380114425,-0.4,0.0,1.0,488.0,718.0,1.0,0,204.0,1
485,485,-0.8808427326187732,-0.9,0.0,1.0,307.0,813.0,1.0,0,200.0,1
486,486,0.8108596184015814,0.8,0.0,0.0,264.0,814.0,0.0,1,192.0,1
487,487,0.7484186351101704,0.7,0.0,0.0,458.0,839.0,0.0,1,313.0,1
488,488,0.724745145042983,0.7,1.0,1.0,373.0,583.0,1.0,1,154.0,1
489,489,0.3142293105794257,0.3,0.0,0.0,453.0,867.0,0.0,1,530.0,1
490,490,-0.6863777846741219,-0.7,0.0,1.0,452.0,822.0,1.0,0,256.0,1
491,491,0.4551203310571207,0.5,0.0,0.0,437.0,773.0,0.0,1,190.0,1
492,492,0.21869855926758353,0.2,0.0,0.0,433.0,508.0,0.0,1,1189.0,1
493,493,0.053236641390179806,0.1,1.0,1.0,304.0,756.0,1.0,1,230.0,1
494,494,0.599398964500888,0.6,0.0,0.0,459.0,566.0,0.0,1,265.0,1
495,495,0.6647764824952073,0.7,0.0,0.0,378.0,955.0,0.0,1,347.0,1
496,496,-0.892680858119447,-0.9,1.0,0.0,326.0,812.0,0.0,0,212.0,1
497,497,0.801947058435181,0.8,0.0,0.0,256.0,724.0,0.0,1,180.0,1
498,498,0.2809291074411383,0.3,1.0,1.0,291.0,944.0,1.0,1,125.0,1
499,499,-0.6327799844883766,-0.6,0.0,1.0,480.0,564.0,1.0,0,226.0,1
500,500,-0.740616285204565,-0.7,1.0,0.0,338.0,801.0,0.0,0,211.0,1
501,501,0.6679681442575768,0.7,1.0,1.0,271.0,571.0,1.0,1,198.0,1
502,502,-0.11743920466320978,-0.1,0.0,1.0,364.0,724.0,1.0,0,1322.0,1
503,503,-0.2509912962812807,-0.3,1.0,0.0,318.0,628.0,0.0,0,1484.0,1
504,504,0.841295260314923,0.8,1.0,1.0,347.0,816.0,1.0,1,217.0,1
505,505,0.5636127629842483,0.6,1.0,1.0,274.0,527.0,1.0,1,559.0,1
506,506,-0.026338930360525925,-0.0,1.0,0.0,317.0,622.0,0.0,0,611.0,1
507,507,-0.7478235675530984,-0.7,0.0,1.0,332.0,686.0,1.0,0,212.0,1
508,508,-0.09488507706667137,-0.1,1.0,0.0,419.0,597.0,0.0,0,1984.0,1
509,509,-0.7305620915809747,-0.7,0.0,1.0,282.0,514.0,1.0,0,184.0,1
510,510,-0.6792937515267982,-0.7,0.0,1.0,290.0,799.0,1.0,0,101.0,1
511,511,0.03378654058564312,0.0,1.0,1.0,381.0,930.0,1.0,1,1689.0,1
512,512,0.09703366976615613,0.1,0.0,0.0,440.0,745.0,0.0,1,1815.0,1
513,513,0.8966208113585933,0.9,1.0,1.0,265.0,663.0,1.0,1,222.0,1
514,514,0.028098038503195255,0.0,1.0,1.0,394.0,644.0,1.0,1,772.0,1
515,515,0.7348715901220478,0.7,0.0,0.0,423.0,911.0,0.0,1,236.0,1
516,516,-0.6811179551447394,-0.7,1.0,0.0,484.0,816.0,0.0,0,610.0,1
517,517,-0.6969863992792936,-0.7,1.0,0.0,489.0,671.0,0.0,0,230.0,1
518,518,0.5358389971810321,0.5,0.0,0.0,310.0,829.0,0.0,1,621.0,1
519,519,0.5702755174613926,0.6,0.0,0.0,451.0,688.0,0.0,1,321.0,1
520,520,0.1900664557010875,0.2,0.0,0.0,441.0,915.0,0.0,1,894.0,1
521,521,0.8122177894546346,0.8,0.0,0.0,466.0,580.0,0.0,1,144.0,1
522,522,0.17031767306443013,0.2,0.0,0.0,441.0,976.0,0.0,1,493.0,1
523,523,-0.8351043407565095,-0.8,1.0,0.0,349.0,994.0,0.0,0,297.0,1
524,524,0.5360301698212998,0.5,1.0,1.0,279.0,598.0,1.0,1,503.0,1
525,525,-0.013717213498807945,-0.0,1.0,0.0,349.0,724.0,1.0,1,1927.0,0
526,526,-0.42336634179764776,-0.4,1.0,0.0,415.0,689.0,0.0,0,576.0,1
527,527,-0.0837561835048275,-0.1,0.0,1.0,468.0,701.0,0.0,1,1831.0,0
528,528,-0.3398760201379133,-0.3,0.0,1.0,324.0,651.0,1.0,0,395.0,1
529,529,0.027560465556920266,0.0,0.0,0.0,363.0,509.0,0.0,1,2128.0,1
530,530,-0.26229094602511893,-0.3,0.0,1.0,483.0,824.0,1.0,0,423.0,1
531,531,0.5632208981729817,0.6,0.0,0.0,449.0,725.0,0.0,1,486.0,1
532,532,-0.17577281065805317,-0.2,0.0,1.0,467.0,700.0,1.0,0,1673.0,1
533,533,0.5353805668840536,0.5,0.0,0.0,309.0,550.0,0.0,1,391.0,1
534,534,0.7385074839669884,0.7,1.0,1.0,371.0,781.0,1.0,1,268.0,1
535,535,-0.6613124297570758,-0.7,1.0,0.0,449.0,514.0,0.0,0,187.0,1
536,536,0.6880117362214416,0.7,0.0,0.0,403.0,767.0,0.0,1,280.0,1
537,537,0.46162537812175153,0.5,1.0,1.0,304.0,946.0,1.0,1,430.0,1
538,538,-0.1330833681760012,-0.1,1.0,0.0,250.0,841.0,0.0,0,1529.0,1
539,539,-0.7126904346983898,-0.7,1.0,0.0,498.0,993.0,0.0,0,159.0,1
540,540,0.5358258574221259,0.5,0.0,0.0,281.0,817.0,0.0,1,632.0,1
541,541,-0.5549055120904172,-0.6,0.0,1.0,404.0,631.0,1.0,0,225.0,1
542,542,0.8079990894573595,0.8,1.0,1.0,453.0,595.0,1.0,1,222.0,1
543,543,-0.6901856276119271,-0.7,1.0,0.0,319.0,842.0,0.0,0,399.0,1
544,544,0.282789185808931,0.3,0.0,0.0,439.0,967.0,0.0,1,494.0,1
545,545,0.06539992405366235,0.1,1.0,1.0,394.0,870.0,1.0,1,1736.0,1
546,546,0.8834424001678113,0.9,0.0,0.0,320.0,527.0,0.0,1,163.0,1
547,547,0.1595699304312702,0.2,1.0,1.0,461.0,821.0,1.0,1,1418.0,1
548,548,-0.261416427878445,-0.3,1.0,0.0,435.0,658.0,0.0,0,1447.0,1
549,549,0.7020935094024111,0.7,0.0,0.0,265.0,958.0,0.0,1,237.0,1
550,550,-0.2548762758655805,-0.3,0.0,1.0,383.0,594.0,1.0,0,563.0,1
551,551,0.8794469874228864,0.9,0.0,0.0,318.0,695.0,0.0,1,307.0,1
552,552,0.708246125136759,0.7,1.0,1.0,474.0,703.0,1.0,1,193.0,1
553,553,-0.55772412633516,-0.6,0.0,1.0,341.0,929.0,1.0,0,350.0,1
554,554,0.5573060851562518,0.6,1.0,1.0,300.0,582.0,1.0,1,308.0,1
555,555,0.2397393804016138,0.2,1.0,1.0,455.0,727.0,1.0,1,948.0,1
556,556,0.5815062924576607,0.6,0.0,0.0,319.0,958.0,0.0,1,473.0,1
557,557,-0.020526782929938037,-0.0,0.0,1.0,339.0,711.0,1.0,0,1950.0,1
558,558,0.3261979419561495,0.3,0.0,0.0,444.0,574.0,0.0,1,722.0,1
559,559,-0.48718283478244917,-0.5,0.0,1.0,306.0,979.0,1.0,0,345.0,1
560,560,0.28298217032142337,0.3,1.0,1.0,465.0,709.0,1.0,1,686.0,1
561,561,-0.4051115876015723,-0.4,1.0,0.0,278.0,761.0,0.0,0,671.0,1
562,562,0.43434109477182015,0.4,0.0,0.0,257.0,611.0,0.0,1,892.0,1
563,563,-0.335726607040833,-0.3,1.0,0.0,374.0,729.0,0.0,0,657.0,1
564,564,0.13642889618192122,0.1,0.0,0.0,255.0,905.0,0.0,1,1840.0,1
565,565,0.8768654984416672,0.9,1.0,1.0,335.0,883.0,1.0,1,262.0,1
566,566,0.8880264210296921,0.9,0.0,0.0,481.0,804.0,0.0,1,185.0,1
567,567,-0.33448793960799184,-0.3,0.0,1.0,334.0,893.0,1.0,0,293.0,1
568,568,0.007555871686037108,0.0,1.0,1.0,297.0,520.0,1.0,1,2183.0,1
569,569,-0.7385775324951948,-0.7,0.0,1.0,353.0,839.0,1.0,0,288.0,1
570,570,-0.546280990990551,-0.5,1.0,0.0,333.0,995.0,0.0,0,232.0,1
571,571,0.5813327525321418,0.6,0.0,0.0,347.0,868.0,0.0,1,205.0,1
572,572,-0.7317546833495183,-0.7,0.0,1.0,329.0,577.0,1.0,0,124.0,1
573,573,0.6018124302800368,0.6,0.0,0.0,477.0,567.0,0.0,1,336.0,1
574,574,0.5282195719625887,0.5,0.0,0.0,311.0,594.0,0.0,1,135.0,1
575,575,-0.808495777968668,-0.8,1.0,0.0,411.0,989.0,0.0,0,380.0,1
576,576,0.3883635345574471,0.4,0.0,0.0,429.0,576.0,0.0,1,395.0,1
577,577,0.8482704248224425,0.8,1.0,1.0,396.0,524.0,1.0,1,380.0,1
578,578,0.8938980386107293,0.9,0.0,0.0,490.0,824.0,0.0,1,156.0,1
579,579,0.7942251126615231,0.8,1.0,1.0,467.0,903.0,1.0,1,130.0,1
580,580,0.7661009947935814,0.8,1.0,1.0,315.0,866.0,1.0,1,259.0,1
581,581,0.47611487759114535,0.5,0.0,0.0,357.0,644.0,0.0,1,249.0,1
582,582,0.4994502493377285,0.5,1.0,1.0,293.0,793.0,1.0,1,514.0,1
583,583,-0.6760317520911985,-0.7,0.0,1.0,295.0,912.0,1.0,0,403.0,1
584,584,-0.1832437987928235,-0.2,0.0,1.0,261.0,675.0,1.0,0,994.0,1
585,585,0.6893474139714059,0.7,1.0,1.0,292.0,881.0,1.0,1,137.0,1
586,586,-0.02551921676810076,-0.0,0.0,1.0,272.0,815.0,0.0,1,1913.0,0
587,587,-0.7676108413042215,-0.8,0.0,1.0,475.0,500.0,1.0,0,165.0,1
588,588,-0.08446389605730853,-0.1,1.0,0.0,413.0,501.0,0.0,0,2086.0,1
589,589,0.080498249403815,0.1,1.0,1.0,455.0,895.0,1.0,1,1650.0,1
590,590,0.12933653453773764,0.1,0.0,0.0,378.0,589.0,0.0,1,2033.0,1
591,591,-0.8583080048573571,-0.9,1.0,0.0,442.0,965.0,0.0,0,183.0,1
592,592,0.7891290610291287,0.8,1.0,1.0,266.0,598.0,1.0,1,216.0,1
593,593,-0.8254555088971912,-0.8,1.0,0.0,264.0,906.0,0.0,0,580.0,1
594,594,0.5212908464952152,0.5,0.0,0.0,399.0,509.0,0.0,1,272.0,1
595,595,-0.5018608847235435,-0.5,1.0,0.0,469.0,570.0,0.0,0,331.0,1
596,596,-0.036062931572191426,-0.0,1.0,0.0,380.0,768.0,0.0,0,1852.0,1
597,597,-0.4678776164616032,-0.5,0.0,1.0,285.0,694.0,0.0,1,-39.0,0
598,598,-0.02372749585052636,-0.0,0.0,1.0,251.0,948.0,1.0,0,1411.0,1
599,599,-0.5794406941825238,-0.6,1.0,0.0,373.0,964.0,0.0,0,163.0,1
600,600,0.011263589882345215,0.0,0.0,0.0,481.0,795.0,1.0,0,1724.0,0
601,601,0.43566524812225016,0.4,1.0,1.0,466.0,997.0,1.0,1,377.0,1
602,602,-0.048453474717847334,-0.0,1.0,0.0,499.0,530.0,0.0,0,1971.0,1
603,603,-0.2500170882260221,-0.3,1.0,0.0,256.0,588.0,0.0,0,336.0,1
604,604,-0.6835903528755873,-0.7,0.0,1.0,462.0,603.0,1.0,0,205.0,1
605,605,0.1947264095321618,0.2,0.0,0.0,307.0,986.0,0.0,1,687.0,1
606,606,0.6351513459182127,0.6,0.0,0.0,399.0,739.0,0.0,1,352.0,1
607,607,0.6735426283427709,0.7,0.0,0.0,315.0,785.0,0.0,1,170.0,1
608,608,-0.605103247121693,-0.6,1.0,0.0,349.0,695.0,0.0,0,516.0,1
609,609,0.815625944592362,0.8,1.0,1.0,317.0,887.0,1.0,1,106.0,1
610,610,-0.025498458145253755,-0.0,0.0,1.0,320.0,881.0,1.0,0,1799.0,1
611,611,0.056880629753799816,0.1,0.0,0.0,400.0,679.0,1.0,0,1921.0,0
612,612,0.7761425568483326,0.8,0.0,0.0,271.0,802.0,0.0,1,147.0,1
613,613,-0.2513756547727827,-0.3,0.0,1.0,352.0,561.0,1.0,0,2087.0,1
614,614,0.7947237607163574,0.8,1.0,1.0,260.0,720.0,1.0,1,310.0,1
615,615,0.5616526654725366,0.6,1.0,1.0,400.0,526.0,1.0,1,424.0,1
616,616,-0.6734683175532654,-0.7,0.0,1.0,472.0,561.0,1.0,0,357.0,1
617,617,0.38650790322038164,0.4,1.0,1.0,427.0,500.0,1.0,1,603.0,1
618,618,0.26982724940056635,0.3,0.0,0.0,332.0,666.0,0.0,1,1242.0,1
619,619,0.8853667367304724,0.9,1.0,1.0,304.0,566.0,1.0,1,210.0,1
620,620,0.10868269468546188,0.1,0.0,0.0,304.0,664.0,0.0,1,1192.0,1
621,621,0.038159659113633615,0.0,1.0,1.0,388.0,911.0,1.0,1,1701.0,1
622,622,0.8166814970558914,0.8,1.0,1.0,378.0,508.0,1.0,1,564.0,1
623,623,-0.20214724127969763,-0.2,1.0,0.0,302.0,661.0,0.0,0,317.0,1
624,624,-0.776857772846787,-0.8,1.0,0.0,305.0,502.0,0.0,0,133.0,1
625,625,-0.5119684919579027,-0.5,1.0,0.0,368.0,919.0,0.0,0,253.0,1
626,626,0.6616337410431062,0.7,0.0,0.0,356.0,919.0,0.0,1,265.0,1
627,627,-0.4233072868845787,-0.4,0.0,1.0,426.0,956.0,1.0,0,208.0,1
628,628,-0.6741355058345224,-0.7,0.0,1.0,371.0,784.0,1.0,0,205.0,1
629,629,0.4356759850102131,0.4,0.0,0.0,374.0,753.0,0.0,1,263.0,1
630,630,-0.6310665945061291,-0.6,1.0,0.0,435.0,877.0,0.0,0,158.0,1
631,631,-0.6012511334598025,-0.6,1.0,0.0,334.0,543.0,0.0,0,273.0,1
632,632,-0.1392535623844824,-0.1,1.0,0.0,343.0,986.0,0.0,0,161.0,1
633,633,-0.18142416872048273,-0.2,0.0,1.0,394.0,559.0,1.0,0,427.0,1
634,634,-0.29529903528702706,-0.3,0.0,1.0,339.0,808.0,1.0,0,1013.0,1
635,635,0.8895958225963913,0.9,0.0,0.0,370.0,706.0,0.0,1,194.0,1
636,636,0.738717938872384,0.7,0.0,0.0,283.0,831.0,0.0,1,276.0,1
637,637,-0.7503036315093076,-0.8,1.0,0.0,483.0,797.0,0.0,0,150.0,1
638,638,0.4775628387917564,0.5,1.0,1.0,292.0,593.0,1.0,1,455.0,1
639,639,-0.14268746426466028,-0.1,1.0,0.0,312.0,909.0,0.0,0,1779.0,1
640,640,-0.4743501613109926,-0.5,0.0,1.0,317.0,748.0,1.0,0,105.0,1
641,641,0.6713466699268363,0.7,0.0,0.0,267.0,841.0,0.0,1,192.0,1
642,642,0.8769460273056603,0.9,0.0,0.0,289.0,941.0,0.0,1,160.0,1
643,643,0.14254466094842344,0.1,1.0,1.0,466.0,635.0,1.0,1,1899.0,1
644,644,-0.888351165122022,-0.9,0.0,1.0,394.0,697.0,1.0,0,169.0,1
645,645,-0.848618588284628,-0.8,0.0,1.0,414.0,911.0,1.0,0,185.0,1
646,646,-0.4653895898359622,-0.5,0.0,1.0,321.0,596.0,1.0,0,293.0,1
647,647,0.7301767731121939,0.7,0.0,0.0,329.0,692.0,0.0,1,299.0,1
648,648,0.6646403681463332,0.7,0.0,0.0,310.0,768.0,0.0,1,132.0,1
649,649,-0.22250927628107586,-0.2,1.0,0.0,414.0,857.0,0.0,0,909.0,1
650,650,0.5656384043564914,0.6,1.0,1.0,304.0,977.0,1.0,1,99.0,1
651,651,-0.17327454170004086,-0.2,1.0,0.0,266.0,669.0,0.0,0,295.0,1
652,652,0.5066899736671177,0.5,0.0,0.0,261.0,891.0,0.0,1,38.0,1
653,653,-0.11328191600934145,-0.1,0.0,1.0,408.0,724.0,1.0,0,1438.0,1
654,654,0.780983001567923,0.8,0.0,0.0,287.0,578.0,0.0,1,335.0,1
655,655,0.31090267653557746,0.3,0.0,0.0,390.0,624.0,0.0,1,256.0,1
656,656,-0.8453884090256922,-0.8,1.0,0.0,430.0,895.0,0.0,0,435.0,1
657,657,-0.048851562824970496,-0.0,0.0,1.0,278.0,912.0,1.0,0,1160.0,1
658,658,-0.3066628446586177,-0.3,0.0,1.0,432.0,869.0,1.0,0,669.0,1
659,659,-0.1585526164223937,-0.2,1.0,0.0,408.0,835.0,0.0,0,1757.0,1
660,660,0.13980491818959073,0.1,0.0,0.0,461.0,575.0,0.0,1,1964.0,1
661,661,-0.8853989875034589,-0.9,1.0,0.0,258.0,600.0,0.0,0,112.0,1
662,662,-0.2894636568675488,-0.3,1.0,0.0,395.0,906.0,0.0,0,299.0,1
663,663,-0.054993183270731105,-0.1,0.0,1.0,343.0,837.0,1.0,0,1820.0,1
664,664,0.6148144986000753,0.6,1.0,1.0,479.0,992.0,1.0,1,279.0,1
665,665,-0.2311566387736893,-0.2,0.0,1.0,311.0,744.0,1.0,0,285.0,1
666,666,0.5849509219729422,0.6,0.0,0.0,356.0,545.0,0.0,1,669.0,1
667,667,-0.7486569858983058,-0.7,1.0,0.0,463.0,893.0,0.0,0,384.0,1
668,668,0.05190118322393411,0.1,1.0,1.0,254.0,983.0,1.0,1,1763.0,1
669,669,-0.4764666501372034,-0.5,1.0,0.0,317.0,501.0,0.0,0,1452.0,1
670,670,0.7232255464843852,0.7,1.0,1.0,474.0,638.0,1.0,1,128.0,1
671,671,-0.7527519321596063,-0.8,0.0,1.0,264.0,505.0,1.0,0,461.0,1
672,672,0.709003403272665,0.7,0.0,0.0,282.0,518.0,0.0,1,160.0,1
673,673,0.8429078868546583,0.8,0.0,0.0,262.0,896.0,0.0,1,172.0,1
674,674,0.4057600937543929,0.4,0.0,0.0,430.0,595.0,0.0,1,205.0,1
675,675,0.2631848306249186,0.3,0.0,0.0,260.0,740.0,0.0,1,560.0,1
676,676,0.7154433033672792,0.7,0.0,0.0,358.0,849.0,0.0,1,493.0,1
677,677,0.32108141892590025,0.3,1.0,1.0,459.0,660.0,1.0,1,311.0,1
678,678,-0.096581241169018,-0.1,1.0,0.0,329.0,934.0,0.0,0,1737.0,1
679,679,-0.6243025631392713,-0.6,0.0,1.0,407.0,975.0,1.0,0,188.0,1
680,680,-0.19169968383513958,-0.2,0.0,1.0,454.0,650.0,1.0,0,1896.0,1
681,681,-0.5900141663845957,-0.6,0.0,1.0,379.0,769.0,1.0,0,512.0,1
682,682,0.38990808789779796,0.4,1.0,1.0,429.0,780.0,1.0,1,-19.0,1
683,683,-0.20832766387610535,-0.2,1.0,0.0,423.0,522.0,0.0,0,475.0,1
684,684,0.6015355709907143,0.6,0.0,0.0,362.0,517.0,0.0,1,271.0,1
685,685,0.8544517372722452,0.9,0.0,0.0,255.0,807.0,0.0,1,118.0,1
686,686,-0.8141318287239843,-0.8,0.0,1.0,382.0,664.0,1.0,0,94.0,1
687,687,-0.09525384945599791,-0.1,1.0,0.0,492.0,905.0,1.0,1,973.0,0
688,688,-0.7443910036306258,-0.7,0.0,1.0,274.0,957.0,1.0,0,129.0,1
689,689,0.4104707318923645,0.4,0.0,0.0,413.0,976.0,0.0,1,131.0,1
690,690,0.8912396032972637,0.9,1.0,1.0,438.0,780.0,1.0,1,92.0,1
691,691,-0.5041725637730052,-0.5,0.0,1.0,316.0,550.0,1.0,0,434.0,1
692,692,0.6160987936903698,0.6,1.0,1.0,312.0,505.0,1.0,1,713.0,1
693,693,0.09878108646480677,0.1,0.0,0.0,473.0,550.0,0.0,1,1977.0,1
694,694,0.5501610626679306,0.6,1.0,1.0,363.0,617.0,1.0,1,170.0,1
695,695,-0.41058281399624735,-0.4,1.0,0.0,428.0,777.0,0.0,0,105.0,1
696,696,0.5203949329788667,0.5,1.0,1.0,421.0,924.0,1.0,1,315.0,1
697,697,-0.3976285923619335,-0.4,1.0,0.0,403.0,699.0,0.0,0,828.0,1
698,698,-0.14846832850590508,-0.1,1.0,0.0,331.0,789.0,0.0,0,270.0,1
699,699,0.49909954090050446,0.5,0.0,0.0,292.0,555.0,0.0,1,533.0,1
700,700,0.8353738596914674,0.8,1.0,1.0,399.0,543.0,1.0,1,238.0,1
701,701,-0.6460758463964933,-0.6,1.0,0.0,389.0,831.0,0.0,0,440.0,1
702,702,0.5690077448165883,0.6,0.0,0.0,372.0,600.0,0.0,1,198.0,1
703,703,-0.8719830143785051,-0.9,1.0,0.0,360.0,547.0,0.0,0,183.0,1
704,704,-0.7062183768941865,-0.7,0.0,1.0,364.0,996.0,1.0,0,420.0,1
705,705,0.15771986768261714,0.2,1.0,1.0,283.0,747.0,1.0,1,1970.0,1
706,706,0.44462358276921987,0.4,1.0,1.0,252.0,813.0,1.0,1,345.0,1
707,707,-0.0023696805003053933,-0.0,0.0,1.0,448.0,712.0,1.0,0,1840.0,1
708,708,-0.45990677173325767,-0.5,1.0,0.0,404.0,526.0,0.0,0,440.0,1
709,709,-0.6494900232412677,-0.6,0.0,1.0,411.0,753.0,1.0,0,-54.0,1
710,710,0.04229208486880687,0.0,1.0,1.0,290.0,723.0,1.0,1,817.0,1
711,711,-0.3881296377180211,-0.4,0.0,1.0,450.0,729.0,1.0,0,481.0,1
712,712,-0.24956510918215602,-0.2,0.0,1.0,413.0,672.0,1.0,0,765.0,1
713,713,0.010525213641555009,0.0,1.0,1.0,342.0,833.0,1.0,1,1825.0,1
714,714,0.009143320799495758,0.0,1.0,1.0,435.0,754.0,1.0,1,1811.0,1
715,715,0.07345103282892818,0.1,0.0,0.0,366.0,939.0,0.0,1,1695.0,1
716,716,0.20508192860232854,0.2,1.0,1.0,400.0,696.0,1.0,1,554.0,1
717,717,-0.6502149285573587,-0.7,1.0,0.0,384.0,977.0,0.0,0,139.0,1
718,718,0.8184661000326997,0.8,1.0,1.0,474.0,706.0,1.0,1,170.0,1
719,719,0.4612872415078396,0.5,1.0,1.0,455.0,948.0,1.0,1,677.0,1
720,720,0.012194844034883356,0.0,1.0,1.0,460.0,592.0,1.0,1,1948.0,1
721,721,-0.1445152245755077,-0.1,0.0,1.0,495.0,794.0,1.0,0,621.0,1
722,722,0.8639798717884434,0.9,1.0,1.0,278.0,692.0,1.0,1,80.0,1
723,723,0.2673996411077314,0.3,0.0,0.0,272.0,879.0,0.0,1,699.0,1
724,724,0.5818043916276975,0.6,1.0,1.0,448.0,813.0,1.0,1,159.0,1
725,725,-0.049769341168935166,-0.0,0.0,1.0,270.0,980.0,1.0,0,1750.0,1
726,726,0.566656879460211,0.6,0.0,0.0,353.0,795.0,0.0,1,312.0,1
727,727,0.7924961135663463,0.8,0.0,0.0,405.0,577.0,0.0,1,168.0,1
728,728,0.736876783894748,0.7,1.0,1.0,440.0,851.0,1.0,1,179.0,1
729,729,0.32654740088928,0.3,0.0,0.0,442.0,920.0,0.0,1,128.0,1
730,730,-0.4512585013704378,-0.5,1.0,0.0,486.0,883.0,0.0,0,441.0,1
731,731,-0.027813210842976832,-0.0,1.0,0.0,390.0,587.0,1.0,1,2023.0,0
732,732,0.40213881162288867,0.4,1.0,1.0,272.0,921.0,1.0,1,517.0,1
733,733,0.7940375916259649,0.8,1.0,1.0,473.0,885.0,1.0,1,392.0,1
734,734,-0.8070365198321856,-0.8,1.0,0.0,352.0,713.0,0.0,0,605.0,1
735,735,-0.713078036674015,-0.7,0.0,1.0,322.0,734.0,1.0,0,284.0,1
736,736,0.7156713461096235,0.7,1.0,1.0,377.0,742.0,1.0,1,211.0,1
737,737,-0.7416815265185034,-0.7,1.0,0.0,372.0,682.0,0.0,0,226.0,1
738,738,-0.13697857666540914,-0.1,0.0,1.0,462.0,605.0,1.0,0,1433.0,1
739,739,0.029284154442799193,0.0,1.0,1.0,440.0,712.0,1.0,1,1848.0,1
740,740,0.43886309622695585,0.4,1.0,1.0,340.0,716.0,1.0,1,534.0,1
741,741,-0.3272633982482339,-0.3,0.0,1.0,374.0,863.0,1.0,0,233.0,1
742,742,-0.30147980626746185,-0.3,1.0,0.0,410.0,721.0,0.0,0,609.0,1
743,743,-0.5756374787205545,-0.6,1.0,0.0,280.0,929.0,0.0,0,671.0,1
744,744,0.17746529290783075,0.2,0.0,0.0,266.0,872.0,0.0,1,1862.0,1
745,745,0.614790435873047,0.6,0.0,0.0,321.0,541.0,0.0,1,428.0,1
746,746,0.406757289518347,0.4,1.0,1.0,263.0,912.0,1.0,1,555.0,1
747,747,0.675017481427605,0.7,0.0,0.0,305.0,934.0,0.0,1,351.0,1
748,748,-0.4825993887475813,-0.5,0.0,1.0,347.0,666.0,1.0,0,267.0,1
749,749,-0.6680496120960895,-0.7,1.0,0.0,279.0,968.0,0.0,0,153.0,1
750,750,-0.4793461715926201,-0.5,1.0,0.0,273.0,976.0,0.0,0,141.0,1
751,751,0.3525497702794852,0.4,1.0,1.0,446.0,930.0,1.0,1,364.0,1
752,752,-0.5590778673423509,-0.6,1.0,0.0,344.0,546.0,0.0,0,1210.0,1
753,753,-0.20618956889886886,-0.2,0.0,1.0,339.0,971.0,1.0,0,820.0,1
754,754,0.02933100391027721,0.0,1.0,1.0,417.0,731.0,1.0,1,1852.0,1
755,755,0.872622365898373,0.9,0.0,0.0,313.0,597.0,0.0,1,110.0,1
756,756,-0.14990023086160786,-0.1,1.0,0.0,266.0,956.0,0.0,0,1338.0,1
757,757,0.5925971893865375,0.6,0.0,0.0,395.0,852.0,0.0,1,473.0,1
758,758,-0.7854764867678418,-0.8,0.0,1.0,465.0,855.0,1.0,0,1030.0,1
759,759,-0.8507180105791486,-0.9,0.0,1.0,345.0,705.0,1.0,0,130.0,1
760,760,-0.8547079795761501,-0.9,1.0,0.0,465.0,892.0,0.0,0,293.0,1
761,761,0.824667308266907,0.8,1.0,1.0,398.0,911.0,1.0,1,201.0,1
762,762,-0.7314549254011611,-0.7,1.0,0.0,445.0,822.0,0.0,0,113.0,1
763,763,0.7412171149192469,0.7,1.0,1.0,433.0,684.0,1.0,1,103.0,1
764,764,0.6550182307540676,0.7,0.0,0.0,356.0,990.0,0.0,1,244.0,1
765,765,-0.16388434617429037,-0.2,0.0,1.0,404.0,551.0,1.0,0,705.0,1
766,766,0.42285862149899855,0.4,0.0,0.0,432.0,595.0,0.0,1,363.0,1
767,767,-0.6315820683625544,-0.6,1.0,0.0,438.0,783.0,0.0,0,349.0,1
768,768,0.10530837351786626,0.1,0.0,0.0,449.0,852.0,0.0,1,1699.0,1
769,769,-0.05620757733300252,-0.1,0.0,1.0,376.0,952.0,1.0,0,642.0,1
770,770,-0.6012604688960375,-0.6,1.0,0.0,457.0,923.0,0.0,0,170.0,1
771,771,0.7335863160932149,0.7,1.0,1.0,353.0,556.0,1.0,1,391.0,1
772,772,0.04196062707205239,0.0,1.0,1.0,486.0,947.0,0.0,0,1567.0,0
773,773,0.5752281219752252,0.6,1.0,1.0,471.0,641.0,1.0,1,198.0,1
774,774,-0.5076323177893849,-0.5,0.0,1.0,277.0,546.0,1.0,0,747.0,1
775,775,0.6053606822446479,0.6,0.0,0.0,471.0,971.0,0.0,1,238.0,1
776,776,0.4122334975751668,0.4,0.0,0.0,453.0,727.0,0.0,1,1680.0,1
777,777,0.5734453475086011,0.6,1.0,1.0,336.0,880.0,1.0,1,174.0,1
778,778,-0.7232428363220496,-0.7,0.0,1.0,464.0,748.0,1.0,0,328.0,1
779,779,0.1613799117620084,0.2,0.0,0.0,411.0,804.0,0.0,1,1085.0,1
780,780,0.3201730891057154,0.3,1.0,1.0,331.0,790.0,1.0,1,479.0,1
781,781,0.01104037195501717,0.0,1.0,1.0,314.0,741.0,0.0,0,1945.0,0
782,782,-0.8783858458930537,-0.9,0.0,1.0,343.0,518.0,1.0,0,269.0,1
783,783,0.7530178771144759,0.8,0.0,0.0,304.0,983.0,0.0,1,303.0,1
784,784,0.1106920501040124,0.1,1.0,1.0,445.0,718.0,1.0,1,327.0,1
785,785,-0.003839396088830882,-0.0,1.0,0.0,433.0,961.0,0.0,0,1606.0,1
786,786,0.3520608964111863,0.4,1.0,1.0,371.0,644.0,1.0,1,1045.0,1
787,787,-0.8562214733566209,-0.9,1.0,0.0,369.0,767.0,0.0,0,224.0,1
788,788,-0.02652574206884173,-0.0,1.0,0.0,412.0,576.0,0.0,0,2012.0,1
789,789,0.8932264482224715,0.9,1.0,1.0,455.0,810.0,1.0,1,155.0,1
790,790,0.3157999675502158,0.3,1.0,1.0,413.0,517.0,1.0,1,720.0,1
791,791,-0.200122819267206,-0.2,1.0,0.0,359.0,574.0,0.0,0,567.0,1
792,792,-0.3757872370787163,-0.4,1.0,0.0,452.0,869.0,0.0,0,229.0,1
793,793,-0.5929577109603634,-0.6,1.0,0.0,497.0,845.0,0.0,0,218.0,1
794,794,0.37215957435900193,0.4,1.0,1.0,347.0,832.0,1.0,1,1561.0,1
795,795,0.6825183924515809,0.7,1.0,1.0,422.0,993.0,1.0,1,215.0,1
796,796,0.7765152894720443,0.8,0.0,0.0,329.0,897.0,0.0,1,84.0,1
797,797,-0.2774827284978987,-0.3,0.0,1.0,309.0,684.0,1.0,0,1117.0,1
798,798,0.711352712215121,0.7,1.0,1.0,338.0,776.0,1.0,1,386.0,1
799,799,-0.36155968494593593,-0.4,1.0,0.0,289.0,798.0,0.0,0,793.0,1
800,800,-0.7652301393566154,-0.8,0.0,1.0,276.0,607.0,1.0,0,317.0,1
801,801,0.3950746021719108,0.4,1.0,1.0,313.0,786.0,1.0,1,641.0,1
802,802,-0.041945394806436775,-0.0,1.0,0.0,488.0,705.0,0.0,0,1807.0,1
803,803,0.26365467050115765,0.3,0.0,0.0,336.0,559.0,0.0,1,1865.0,1
804,804,0.30251045965561374,0.3,0.0,0.0,410.0,765.0,0.0,1,1825.0,1
805,805,0.7500704999062949,0.8,1.0,1.0,285.0,995.0,1.0,1,190.0,1
806,806,0.3007067274703089,0.3,0.0,0.0,258.0,573.0,0.0,1,609.0,1
807,807,0.2944314613017055,0.3,0.0,0.0,317.0,824.0,0.0,1,239.0,1
808,808,-0.6133131220463883,-0.6,0.0,1.0,482.0,768.0,1.0,0,220.0,1
809,809,0.7812897395396784,0.8,0.0,0.0,450.0,818.0,0.0,1,212.0,1
810,810,0.8116919402946062,0.8,1.0,1.0,467.0,796.0,1.0,1,307.0,1
811,811,0.32503923105386046,0.3,0.0,0.0,493.0,556.0,0.0,1,741.0,1
812,812,0.11424109253334647,0.1,0.0,0.0,394.0,632.0,0.0,1,1564.0,1
813,813,0.3706296881327983,0.4,1.0,1.0,279.0,867.0,1.0,1,164.0,1
814,814,-0.6874380923889435,-0.7,1.0,0.0,436.0,895.0,0.0,0,689.0,1
815,815,0.33297637743930586,0.3,1.0,1.0,315.0,733.0,1.0,1,532.0,1
816,816,0.31077236861729574,0.3,0.0,0.0,343.0,699.0,0.0,1,398.0,1
817,817,0.5799478258814516,0.6,0.0,0.0,263.0,697.0,0.0,1,210.0,1
818,818,-0.5555318289317276,-0.6,1.0,0.0,314.0,685.0,0.0,0,381.0,1
819,819,-0.7325464386988816,-0.7,1.0,0.0,264.0,824.0,0.0,0,222.0,1
820,820,-0.5857820084377316,-0.6,0.0,1.0,484.0,773.0,1.0,0,263.0,1
821,821,0.44763351013143804,0.4,0.0,0.0,356.0,979.0,0.0,1,145.0,1
822,822,0.8852418878427727,0.9,1.0,1.0,391.0,536.0,1.0,1,503.0,1
823,823,0.3780452165702225,0.4,0.0,0.0,310.0,784.0,0.0,1,276.0,1
824,824,-0.621911540613088,-0.6,1.0,0.0,371.0,964.0,0.0,0,75.0,1
825,825,0.4338033283669812,0.4,0.0,0.0,422.0,673.0,0.0,1,665.0,1
826,826,-0.014996138248875246,-0.0,0.0,1.0,466.0,727.0,1.0,0,1807.0,1
827,827,0.6362790366128676,0.6,1.0,1.0,435.0,569.0,1.0,1,236.0,1
828,828,-0.6805575244509575,-0.7,1.0,0.0,429.0,597.0,0.0,0,1014.0,1
829,829,0.14594374833524693,0.1,0.0,0.0,491.0,550.0,0.0,1,369.0,1
830,830,-0.8908368547213332,-0.9,0.0,1.0,302.0,935.0,1.0,0,53.0,1
831,831,-0.6772705026242719,-0.7,0.0,1.0,382.0,922.0,1.0,0,126.0,1
832,832,0.2619542045142774,0.3,1.0,1.0,254.0,847.0,1.0,1,609.0,1
833,833,-0.7720418366294713,-0.8,1.0,0.0,448.0,557.0,0.0,0,215.0,1
834,834,-0.5341788752741958,-0.5,1.0,0.0,488.0,524.0,0.0,0,608.0,1
835,835,-0.6313319990205304,-0.6,0.0,1.0,436.0,612.0,1.0,0,312.0,1
836,836,-0.8434360169551817,-0.8,1.0,0.0,284.0,571.0,0.0,0,195.0,1
837,837,0.5505880956744965,0.6,0.0,0.0,418.0,671.0,0.0,1,451.0,1
838,838,-0.29356232855367514,-0.3,1.0,0.0,379.0,973.0,0.0,0,268.0,1
839,839,-0.6578121715643219,-0.7,1.0,0.0,298.0,634.0,0.0,0,248.0,1
840,840,0.6031103991942942,0.6,1.0,1.0,339.0,687.0,1.0,1,244.0,1
841,841,0.6428457065445218,0.6,0.0,0.0,416.0,673.0,0.0,1,151.0,1
842,842,-0.5320223387964083,-0.5,1.0,0.0,405.0,586.0,0.0,0,739.0,1
843,843,0.8377311929313581,0.8,1.0,1.0,312.0,516.0,1.0,1,592.0,1
844,844,-0.26502406665810785,-0.3,1.0,0.0,444.0,558.0,0.0,0,518.0,1
845,845,-0.3568897498123591,-0.4,0.0,1.0,298.0,894.0,1.0,0,408.0,1
846,846,-0.2302271903507772,-0.2,0.0,1.0,470.0,551.0,1.0,0,229.0,1
847,847,0.8658558695977078,0.9,1.0,1.0,288.0,936.0,1.0,1,236.0,1
848,848,0.09393937783726514,0.1,1.0,1.0,441.0,651.0,1.0,1,1508.0,1
849,849,0.2282114070678446,0.2,1.0,1.0,486.0,744.0,1.0,1,240.0,1
850,850,0.5027973765218735,0.5,1.0,1.0,446.0,891.0,1.0,1,483.0,1
851,851,0.08191404979833028,0.1,1.0,1.0,414.0,600.0,1.0,1,1986.0,1
852,852,-0.5197758789840901,-0.5,1.0,0.0,277.0,915.0,0.0,0,438.0,1
853,853,-0.5579444591147468,-0.6,0.0,1.0,278.0,995.0,1.0,0,97.0,1
854,854,-0.17819795345177725,-0.2,1.0,0.0,270.0,970.0,0.0,0,770.0,1
855,855,0.011872774013530263,0.0,1.0,1.0,429.0,871.0,1.0,1,1450.0,1
856,856,-0.4065497747842673,-0.4,1.0,0.0,256.0,599.0,0.0,0,385.0,1
857,857,0.7226386086219457,0.7,1.0,1.0,305.0,990.0,1.0,1,215.0,1
858,858,-0.14153532896310073,-0.1,1.0,0.0,452.0,507.0,0.0,0,461.0,1
859,859,-0.7713307912730469,-0.8,0.0,1.0,451.0,759.0,1.0,0,480.0,1
860,860,0.20397706267361426,0.2,1.0,1.0,367.0,899.0,1.0,1,294.0,1
861,861,-0.6166449082821941,-0.6,1.0,0.0,266.0,691.0,0.0,0,183.0,1
862,862,0.6920738233586973,0.7,0.0,0.0,303.0,926.0,0.0,1,91.0,1
863,863,-0.08997993873310184,-0.1,0.0,1.0,401.0,957.0,1.0,0,1642.0,1
864,864,0.023728747696971864,0.0,0.0,0.0,310.0,885.0,1.0,0,1805.0,0
865,865,-0.3530486182462659,-0.4,0.0,1.0,412.0,671.0,1.0,0,687.0,1
866,866,0.714799462055257,0.7,0.0,0.0,434.0,890.0,0.0,1,366.0,1
867,867,0.5869426960960539,0.6,1.0,1.0,437.0,737.0,1.0,1,396.0,1
868,868,-0.4853625249906834,-0.5,1.0,0.0,425.0,598.0,0.0,0,237.0,1
869,869,0.4710366704465495,0.5,1.0,1.0,293.0,572.0,1.0,1,545.0,1
870,870,-0.322558757729451,-0.3,1.0,0.0,498.0,768.0,0.0,0,394.0,1
871,871,-0.4341670685158282,-0.4,0.0,1.0,288.0,751.0,1.0,0,221.0,1
872,872,-0.7404680209311735,-0.7,1.0,0.0,417.0,777.0,0.0,0,486.0,1
873,873,-0.6293473850972232,-0.6,1.0,0.0,424.0,520.0,0.0,0,656.0,1
874,874,-0.22083461737448318,-0.2,1.0,0.0,432.0,546.0,0.0,0,412.0,1
875,875,-0.7178052886237798,-0.7,1.0,0.0,390.0,734.0,0.0,0,296.0,1
876,876,0.007815538656390286,0.0,0.0,0.0,445.0,606.0,0.0,1,1949.0,1
877,877,0.1346586152729029,0.1,0.0,0.0,394.0,839.0,0.0,1,1307.0,1
878,878,-0.7865027727532451,-0.8,0.0,1.0,303.0,862.0,1.0,0,205.0,1
879,879,0.4518231869212662,0.5,0.0,0.0,432.0,889.0,0.0,1,609.0,1
880,880,0.015859586028100447,0.0,1.0,1.0,449.0,853.0,1.0,1,1698.0,1
881,881,0.3722531300168025,0.4,1.0,1.0,266.0,948.0,1.0,1,446.0,1
882,882,0.41509818152209366,0.4,0.0,0.0,276.0,670.0,0.0,1,74.0,1
883,883,-0.8397493972769285,-0.8,0.0,1.0,345.0,613.0,1.0,0,192.0,1
884,884,0.5754425125349182,0.6,0.0,0.0,260.0,867.0,0.0,1,203.0,1
885,885,0.3782447339457994,0.4,1.0,1.0,483.0,607.0,1.0,1,620.0,1
886,886,-0.7508500502506932,-0.8,0.0,1.0,452.0,596.0,1.0,0,322.0,1
887,887,-0.8493486760756596,-0.8,1.0,0.0,483.0,757.0,0.0,0,500.0,1
888,888,-0.14173617258651994,-0.1,1.0,0.0,254.0,829.0,0.0,0,1027.0,1
889,889,0.4669987343005041,0.5,1.0,1.0,269.0,765.0,1.0,1,696.0,1
890,890,-0.051848512213741316,-0.1,1.0,0.0,359.0,943.0,1.0,1,1698.0,0
891,891,-0.8387313633609005,-0.8,1.0,0.0,410.0,746.0,0.0,0,244.0,1
892,892,-0.462066337338586,-0.5,0.0,1.0,370.0,970.0,1.0,0,570.0,1
893,893,0.3575184736732405,0.4,1.0,1.0,251.0,993.0,1.0,1,266.0,1
894,894,0.6214281329112529,0.6,1.0,1.0,383.0,887.0,1.0,1,250.0,1
895,895,-0.06512686398443923,-0.1,1.0,0.0,497.0,776.0,0.0,0,1727.0,1
896,896,-0.3199992752127584,-0.3,1.0,0.0,450.0,718.0,0.0,0,372.0,1
897,897,-0.04719385024073908,-0.0,0.0,1.0,334.0,804.0,1.0,0,1862.0,1
898,898,0.6121582294794269,0.6,1.0,1.0,391.0,710.0,1.0,1,299.0,1
899,899,0.6427580833984811,0.6,0.0,0.0,369.0,891.0,0.0,1,170.0,1
900,900,-0.2992125032272297,-0.3,0.0,1.0,379.0,938.0,1.0,0,593.0,1
901,901,-0.7149076816780421,-0.7,1.0,0.0,462.0,612.0,0.0,0,96.0,1
902,902,-0.52320366118214,-0.5,1.0,0.0,416.0,890.0,0.0,0,314.0,1
903,903,0.7070957636846508,0.7,0.0,0.0,406.0,982.0,0.0,1,372.0,1
904,904,0.7946782709253847,0.8,0.0,0.0,324.0,673.0,0.0,1,123.0,1
905,905,-0.006157657652637094,-0.0,0.0,1.0,439.0,780.0,1.0,0,1571.0,1
906,906,-0.7455040299567857,-0.7,0.0,1.0,344.0,642.0,1.0,0,194.0,1
907,907,0.23997184531148175,0.2,0.0,0.0,400.0,620.0,0.0,1,-10.0,1
908,908,0.7707377310591582,0.8,0.0,0.0,472.0,786.0,0.0,1,402.0,1
909,909,0.47061276223649473,0.5,0.0,0.0,256.0,597.0,0.0,1,947.0,1
910,910,0.8082381020425561,0.8,1.0,1.0,361.0,616.0,1.0,1,253.0,1
911,911,-0.5911678414170849,-0.6,1.0,0.0,438.0,588.0,0.0,0,974.0,1
912,912,-0.25772123285041304,-0.3,0.0,1.0,411.0,885.0,1.0,0,1074.0,1
913,913,-0.2965668155445411,-0.3,0.0,1.0,412.0,914.0,1.0,0,364.0,1
914,914,0.3540996961430981,0.4,0.0,0.0,390.0,582.0,0.0,1,948.0,1
915,915,0.8758229701303081,0.9,0.0,0.0,250.0,501.0,0.0,1,179.0,1
916,916,0.4008702006818393,0.4,1.0,1.0,290.0,626.0,1.0,1,524.0,1
917,917,0.32359331136874336,0.3,0.0,0.0,476.0,820.0,0.0,1,614.0,1
918,918,0.8228732191825857,0.8,0.0,0.0,497.0,971.0,0.0,1,232.0,1
919,919,0.17339936127355415,0.2,0.0,0.0,384.0,887.0,0.0,1,709.0,1
920,920,0.0950652325212673,0.1,1.0,1.0,369.0,675.0,1.0,1,1356.0,1
921,921,0.22167066458171736,0.2,0.0,0.0,406.0,550.0,0.0,1,824.0,1
922,922,-0.0678558492198853,-0.1,0.0,1.0,253.0,647.0,1.0,0,2080.0,1
923,923,-0.30626266644013966,-0.3,0.0,1.0,308.0,865.0,1.0,0,307.0,1
924,924,-0.17407382177042197,-0.2,0.0,1.0,499.0,566.0,1.0,0,1225.0,1
925,925,0.23936453357914156,0.2,1.0,1.0,495.0,512.0,1.0,1,983.0,1
926,926,-0.5572580302421257,-0.6,0.0,1.0,446.0,723.0,1.0,0,241.0,1
927,927,-0.7762362283488992,-0.8,1.0,0.0,492.0,518.0,0.0,0,630.0,1
928,928,-0.6011292589271968,-0.6,0.0,1.0,366.0,744.0,1.0,0,400.0,1
929,929,-0.3619655907049901,-0.4,1.0,0.0,455.0,923.0,0.0,0,632.0,1
930,930,-0.8578725992923556,-0.9,0.0,1.0,327.0,714.0,1.0,0,149.0,1
931,931,-0.2853802120677409,-0.3,0.0,1.0,284.0,632.0,1.0,0,394.0,1
932,932,0.8784978630746688,0.9,1.0,1.0,377.0,656.0,1.0,1,217.0,1
933,933,0.767039805200071,0.8,0.0,0.0,482.0,520.0,0.0,1,168.0,1
934,934,-0.6561937164513147,-0.7,0.0,1.0,314.0,891.0,1.0,0,525.0,1
935,935,-0.680963535785138,-0.7,0.0,1.0,495.0,662.0,1.0,0,333.0,1
936,936,-0.5742734329565642,-0.6,1.0,0.0,307.0,767.0,0.0,0,1176.0,1
937,937,0.5062077064265101,0.5,1.0,1.0,440.0,978.0,1.0,1,882.0,1
938,938,0.6618055280820921,0.7,0.0,0.0,353.0,902.0,0.0,1,205.0,1
939,939,0.5554416980758697,0.6,0.0,0.0,335.0,774.0,0.0,1,371.0,1
940,940,-0.818764269346698,-0.8,1.0,0.0,488.0,931.0,0.0,0,261.0,1
941,941,-0.8480312166019297,-0.8,1.0,0.0,366.0,663.0,0.0,0,181.0,1
942,942,0.5537112440402413,0.6,1.0,1.0,465.0,935.0,1.0,1,50.0,1
943,943,-0.8897954295829918,-0.9,1.0,0.0,316.0,525.0,0.0,0,179.0,1
944,944,0.8826860206765553,0.9,1.0,1.0,378.0,612.0,1.0,1,230.0,1
945,945,0.6122041020219814,0.6,1.0,1.0,484.0,568.0,1.0,1,398.0,1
946,946,-0.6607653889361523,-0.7,1.0,0.0,352.0,808.0,0.0,0,440.0,1
947,947,-0.6646254945871103,-0.7,1.0,0.0,424.0,991.0,0.0,0,325.0,1
948,948,0.4911422489836895,0.5,0.0,0.0,493.0,691.0,0.0,1,126.0,1
949,949,0.07292808691123975,0.1,0.0,0.0,451.0,655.0,0.0,1,1894.0,1
950,950,0.0023887660606355388,0.0,0.0,0.0,329.0,767.0,1.0,0,1904.0,0
951,951,-0.7335477520467903,-0.7,0.0,1.0,400.0,642.0,1.0,0,208.0,1
952,952,0.7886703375694258,0.8,0.0,0.0,462.0,848.0,0.0,1,70.0,1
953,953,0.6474384600142885,0.6,0.0,0.0,437.0,924.0,0.0,1,139.0,1
954,954,-0.06590195048170877,-0.1,0.0,1.0,346.0,976.0,1.0,0,1678.0,1
955,955,0.13439902357469735,0.1,1.0,1.0,364.0,579.0,1.0,1,2057.0,1
956,956,0.7215515443217567,0.7,0.0,0.0,286.0,948.0,0.0,1,136.0,1
957,957,-0.7884270532199044,-0.8,0.0,1.0,366.0,914.0,1.0,0,150.0,1
958,958,0.5579395626690812,0.6,0.0,0.0,429.0,663.0,0.0,1,438.0,1
959,959,-0.41858738513688304,-0.4,0.0,1.0,363.0,726.0,1.0,0,61.0,1
960,960,0.5930072729333359,0.6,0.0,0.0,308.0,546.0,0.0,1,286.0,1
961,961,0.6184433002323301,0.6,0.0,0.0,267.0,785.0,0.0,1,128.0,1
962,962,0.39268967971478597,0.4,1.0,1.0,475.0,644.0,1.0,1,391.0,1
963,963,0.4921905067108513,0.5,1.0,1.0,324.0,520.0,1.0,1,1446.0,1
964,964,-0.8695000888163456,-0.9,1.0,0.0,397.0,561.0,0.0,0,302.0,1
965,965,-0.8574909689555341,-0.9,0.0,1.0,320.0,745.0,1.0,0,305.0,1
966,966,0.32772500321370235,0.3,1.0,1.0,423.0,955.0,1.0,1,742.0,1
967,967,-0.7537355996033972,-0.8,1.0,0.0,342.0,930.0,0.0,0,338.0,1
968,968,0.5996489539274706,0.6,1.0,1.0,271.0,562.0,1.0,1,357.0,1
969,969,0.19995852944781356,0.2,0.0,0.0,334.0,949.0,0.0,1,527.0,1
970,970,-0.0921174230626377,-0.1,0.0,1.0,316.0,612.0,1.0,0,2072.0,1
971,971,0.8757736438503602,0.9,1.0,1.0,446.0,549.0,1.0,1,105.0,1
972,972,0.8097610085729953,0.8,0.0,0.0,414.0,893.0,0.0,1,273.0,1
973,973,-0.1686285444915946,-0.2,1.0,0.0,302.0,693.0,0.0,0,2005.0,1
974,974,0.6542376568862939,0.7,0.0,0.0,405.0,810.0,0.0,1,395.0,1
975,975,-0.8472742569283651,-0.8,1.0,0.0,256.0,935.0,0.0,0,439.0,1
976,976,0.20341463063620846,0.2,0.0,0.0,383.0,765.0,0.0,1,1422.0,1
977,977,-0.8585193441058935,-0.9,0.0,1.0,418.0,661.0,1.0,0,371.0,1
978,978,0.6505185200268552,0.7,1.0,1.0,285.0,853.0,1.0,1,242.0,1
979,979,0.18481289469620898,0.2,1.0,1.0,405.0,866.0,1.0,1,1729.0,1
980,980,0.5244236005166992,0.5,0.0,0.0,318.0,949.0,0.0,1,613.0,1
981,981,-0.402286878217894,-0.4,1.0,0.0,455.0,999.0,0.0,0,656.0,1
982,982,-0.7290788243064404,-0.7,0.0,1.0,279.0,924.0,1.0,0,187.0,1
983,983,0.4996848618083448,0.5,1.0,1.0,457.0,723.0,1.0,1,510.0,1
984,984,0.7319233888178415,0.7,0.0,0.0,340.0,941.0,0.0,1,239.0,1
985,985,-0.7902551254107371,-0.8,0.0,1.0,409.0,581.0,1.0,0,190.0,1
986,986,-0.1426934716536129,-0.1,1.0,0.0,413.0,673.0,0.0,0,1914.0,1
987,987,-0.8885795805792108,-0.9,0.0,1.0,314.0,743.0,1.0,0,483.0,1
988,988,0.051366104945381186,0.1,1.0,1.0,263.0,953.0,1.0,1,1784.0,1
989,989,0.5593698286288916,0.6,1.0,1.0,337.0,552.0,1.0,1,411.0,1
990,990,-0.3464298696363415,-0.3,0.0,1.0,432.0,551.0,1.0,0,667.0,1
991,991,0.4260553295090109,0.4,1.0,1.0,454.0,671.0,1.0,1,405.0,1
992,992,0.6228801120103528,0.6,1.0,1.0,346.0,713.0,1.0,1,271.0,1
993,993,0.20151209931934588,0.2,0.0,0.0,435.0,565.0,0.0,1,830.0,1
994,994,0.10146641794214617,0.1,1.0,1.0,486.0,914.0,1.0,1,1600.0,1
995,995,-0.6107068699239471,-0.6,0.0,1.0,450.0,686.0,1.0,0,344.0,1
996,996,-0.22688650592900106,-0.2,1.0,0.0,370.0,854.0,0.0,0,696.0,1
997,997,-0.7176750168628447,-0.7,0.0,1.0,376.0,783.0,1.0,0,801.0,1
998,998,0.08834232087538507,0.1,0.0,0.0,310.0,932.0,0.0,1,258.0,1
999,999,-0.4721787482018735,-0.5,1.0,0.0,251.0,672.0,0.0,0,337.0,1
1000,1000,-0.3973820727067936,-0.4,1.0,0.0,365.0,858.0,0.0,0,397.0,1
1001,1001,-0.21187178805278073,-0.2,1.0,0.0,399.0,502.0,0.0,0,1949.0,1
1002,1002,0.551172319827883,0.6,1.0,1.0,373.0,784.0,1.0,1,393.0,1
1003,1003,-0.5304826108914955,-0.5,1.0,0.0,395.0,698.0,0.0,0,347.0,1
1004,1004,-0.8128943035729014,-0.8,1.0,0.0,492.0,624.0,0.0,0,264.0,1
1005,1005,0.22805263765704076,0.2,0.0,0.0,329.0,533.0,0.0,1,268.0,1
1006,1006,-0.7857698187477499,-0.8,0.0,1.0,303.0,812.0,1.0,0,295.0,1
1007,1007,0.022155193830095787,0.0,0.0,0.0,422.0,605.0,1.0,0,1973.0,0
1008,1008,0.8816685868900395,0.9,1.0,1.0,393.0,770.0,1.0,1,207.0,1
1009,1009,-0.17639337004193878,-0.2,1.0,0.0,402.0,515.0,0.0,0,1123.0,1
1010,1010,0.6188011549247424,0.6,0.0,0.0,286.0,811.0,0.0,1,493.0,1
1011,1011,-0.35989878233100203,-0.4,1.0,0.0,453.0,983.0,0.0,0,504.0,1
1012,1012,-0.2909156426000453,-0.3,1.0,0.0,261.0,791.0,0.0,0,348.0,1
1013,1013,-0.8880264834620979,-0.9,1.0,0.0,433.0,716.0,0.0,0,221.0,1
1014,1014,-0.6222923772767683,-0.6,0.0,1.0,480.0,632.0,1.0,0,278.0,1
1015,1015,0.3122309285777659,0.3,0.0,0.0,318.0,857.0,0.0,1,385.0,1
1016,1016,-0.6068403891872404,-0.6,1.0,0.0,345.0,760.0,0.0,0,845.0,1
1017,1017,0.5482659380243916,0.5,0.0,0.0,264.0,748.0,0.0,1,118.0,1
1018,1018,0.5389467734432253,0.5,0.0,0.0,253.0,693.0,0.0,1,314.0,1
1019,1019,-0.3338129200178631,-0.3,0.0,1.0,448.0,517.0,1.0,0,745.0,1
1020,1020,0.362597411037097,0.4,1.0,1.0,340.0,614.0,1.0,1,436.0,1
1021,1021,0.33689561528375134,0.3,0.0,0.0,493.0,505.0,0.0,1,722.0,1
1022,1022,-0.11282849004243523,-0.1,1.0,0.0,451.0,840.0,0.0,0,1179.0,1
1023,1023,0.4126392253644503,0.4,0.0,0.0,391.0,992.0,0.0,1,327.0,1
1024,1024,0.6447185856613303,0.6,1.0,1.0,488.0,649.0,1.0,1,273.0,1
1025,1025,-0.24583618956083841,-0.2,1.0,0.0,366.0,512.0,0.0,0,952.0,1
1026,1026,-0.001133581336539513,-0.0,0.0,1.0,369.0,949.0,0.0,1,1682.0,0
1027,1027,-0.7994945648418631,-0.8,0.0,1.0,494.0,744.0,1.0,0,132.0,1
1028,1028,0.6525132897975506,0.7,0.0,0.0,400.0,680.0,0.0,1,70.0,1
1029,1029,-0.8257797744123513,-0.8,0.0,1.0,464.0,935.0,1.0,0,121.0,1
1030,1030,0.15053138822359802,0.2,1.0,1.0,289.0,572.0,1.0,1,1149.0,1
1031,1031,-0.6257622011980376,-0.6,0.0,1.0,435.0,944.0,1.0,0,431.0,1
1032,1032,0.8660906117896475,0.9,1.0,1.0,417.0,688.0,1.0,1,225.0,1
1033,1033,0.5929773757594939,0.6,0.0,0.0,392.0,639.0,0.0,1,399.0,1
1034,1034,-0.6730272294697441,-0.7,1.0,0.0,462.0,940.0,0.0,0,208.0,1
1035,1035,0.6524359545593349,0.7,0.0,0.0,251.0,629.0,0.0,1,210.0,1
1036,1036,-0.18581606646178817,-0.2,1.0,0.0,440.0,724.0,0.0,0,656.0,1
1037,1037,0.43594953313011986,0.4,1.0,1.0,383.0,545.0,1.0,1,232.0,1
1038,1038,0.4120796224868949,0.4,1.0,1.0,274.0,731.0,1.0,1,885.0,1
1039,1039,-0.1609010030133311,-0.2,0.0,1.0,456.0,518.0,1.0,0,1536.0,1
1040,1040,0.8227910239779422,0.8,0.0,0.0,449.0,767.0,0.0,1,104.0,1
1041,1041,0.190355287301203,0.2,0.0,0.0,379.0,845.0,0.0,1,636.0,1
1042,1042,-0.3269425026201981,-0.3,1.0,0.0,373.0,954.0,0.0,0,743.0,1
1043,1043,-0.5288901159132486,-0.5,0.0,1.0,455.0,505.0,1.0,0,240.0,1
1044,1044,0.7688572850747394,0.8,0.0,0.0,314.0,784.0,0.0,1,152.0,1
1045,1045,-0.29512915263529316,-0.3,0.0,1.0,389.0,648.0,1.0,0,433.0,1
1046,1046,-0.17974353419265543,-0.2,1.0,0.0,417.0,810.0,0.0,0,783.0,1
1047,1047,-0.49522992732257887,-0.5,0.0,1.0,351.0,950.0,1.0,0,149.0,1
1048,1048,-0.5703804400210211,-0.6,1.0,0.0,296.0,733.0,0.0,0,411.0,1
1049,1049,0.13009291608524964,0.1,0.0,0.0,468.0,897.0,0.0,1,1635.0,1
1050,1050,0.2727789312497012,0.3,0.0,0.0,435.0,736.0,0.0,1,309.0,1
1051,1051,0.7142704700624923,0.7,0.0,0.0,351.0,632.0,0.0,1,247.0,1
1052,1052,0.045574078574829424,0.0,1.0,1.0,486.0,582.0,0.0,0,1932.0,0
1053,1053,0.15303477922559383,0.2,0.0,0.0,397.0,696.0,0.0,1,1327.0,1
1054,1054,0.7230512831650396,0.7,0.0,0.0,410.0,769.0,0.0,1,241.0,1
1055,1055,-0.023196525478267338,-0.0,1.0,0.0,418.0,642.0,1.0,1,1940.0,0
1056,1056,0.08426545638560357,0.1,1.0,1.0,490.0,797.0,1.0,1,1713.0,1
1057,1057,0.13940252473127546,0.1,0.0,0.0,348.0,800.0,0.0,1,1852.0,1
1058,1058,0.725339540871606,0.7,0.0,0.0,276.0,729.0,0.0,1,195.0,1
1059,1059,0.3802071795049994,0.4,0.0,0.0,404.0,505.0,0.0,1,501.0,1
1060,1060,0.25491047859779103,0.3,0.0,0.0,303.0,620.0,0.0,1,2077.0,1
1061,1061,-0.7945699172767378,-0.8,1.0,0.0,466.0,502.0,0.0,0,292.0,1
1062,1062,-0.3604920447055264,-0.4,0.0,1.0,482.0,624.0,1.0,0,374.0,1
1063,1063,0.19639915849804324,0.2,0.0,0.0,378.0,548.0,0.0,1,1474.0,1
1064,1064,0.7016957527478668,0.7,0.0,0.0,451.0,631.0,0.0,1,238.0,1
1065,1065,0.7535694312874769,0.8,0.0,0.0,358.0,562.0,0.0,1,250.0,1
1066,1066,-0.11401274539224882,-0.1,1.0,0.0,450.0,889.0,0.0,0,881.0,1
1067,1067,0.33933341048116683,0.3,1.0,1.0,443.0,938.0,1.0,1,479.0,1
1068,1068,0.4524078282367249,0.5,0.0,0.0,324.0,643.0,0.0,1,293.0,1
1069,1069,0.7441464331856121,0.7,0.0,0.0,487.0,508.0,0.0,1,165.0,1
1070,1070,-0.6659603681511845,-0.7,1.0,0.0,335.0,818.0,0.0,0,167.0,1
1071,1071,-0.5172046691347607,-0.5,0.0,1.0,337.0,533.0,1.0,0,560.0,1
1072,1072,0.6448092368024795,0.6,1.0,1.0,419.0,739.0,1.0,1,202.0,1
1073,1073,0.3978255210769913,0.4,0.0,0.0,398.0,518.0,0.0,1,274.0,1
1074,1074,-0.4717928025455279,-0.5,1.0,0.0,495.0,784.0,0.0,0,201.0,1
1075,1075,0.5047030720073483,0.5,0.0,0.0,368.0,564.0,0.0,1,368.0,1
1076,1076,-0.4382333561434562,-0.4,1.0,0.0,414.0,537.0,0.0,0,209.0,1
1077,1077,-0.7478154705340742,-0.7,1.0,0.0,280.0,675.0,0.0,0,205.0,1
1078,1078,-0.823788670543326,-0.8,0.0,1.0,350.0,587.0,1.0,0,123.0,1
1079,1079,0.19465748132219474,0.2,0.0,0.0,491.0,526.0,0.0,1,1863.0,1
1080,1080,-0.7309927546886235,-0.7,0.0,1.0,339.0,759.0,1.0,0,262.0,1
1081,1081,0.7491547945156264,0.7,0.0,0.0,463.0,509.0,0.0,1,498.0,1
1082,1082,0.3432043976441831,0.3,0.0,0.0,494.0,898.0,0.0,1,558.0,1
1083,1083,0.03441166513377547,0.0,1.0,1.0,252.0,893.0,1.0,1,1855.0,1
1084,1084,0.6639480740347615,0.7,0.0,0.0,384.0,913.0,0.0,1,753.0,1
1085,1085,-0.035837872648648905,-0.0,0.0,1.0,477.0,822.0,1.0,0,1701.0,1
1086,1086,0.7081211066669947,0.7,0.0,0.0,322.0,696.0,0.0,1,152.0,1
1087,1087,0.5051513055447702,0.5,0.0,0.0,349.0,917.0,0.0,1,394.0,1
1088,1088,0.4732581234794996,0.5,0.0,0.0,393.0,761.0,0.0,1,256.0,1
1089,1089,0.48242987728903797,0.5,1.0,1.0,408.0,822.0,1.0,1,290.0,1
1090,1090,0.3405288940999768,0.3,1.0,1.0,372.0,774.0,1.0,1,194.0,1
1091,1091,-0.7256271114751467,-0.7,1.0,0.0,422.0,910.0,0.0,0,288.0,1
1092,1092,-0.5754033094586797,-0.6,0.0,1.0,475.0,629.0,1.0,0,476.0,1
1093,1093,-0.2088305703890354,-0.2,1.0,0.0,413.0,928.0,0.0,0,409.0,1
1094,1094,0.52037436374239,0.5,0.0,0.0,343.0,786.0,0.0,1,291.0,1
1095,1095,0.3635952285323597,0.4,0.0,0.0,471.0,845.0,0.0,1,564.0,1
1096,1096,-0.6812934750847208,-0.7,0.0,1.0,269.0,583.0,1.0,0,168.0,1
1097,1097,-0.8927560310544878,-0.9,1.0,0.0,438.0,943.0,0.0,0,239.0,1
1098,1098,-0.4062291165233016,-0.4,1.0,0.0,445.0,559.0,0.0,0,606.0,1
1099,1099,-0.23603540913323307,-0.2,0.0,1.0,296.0,920.0,1.0,0,494.0,1
1100,1100,-0.4989601566369894,-0.5,0.0,1.0,281.0,552.0,1.0,0,577.0,1
1101,1101,0.38118529056471495,0.4,1.0,1.0,380.0,556.0,1.0,1,314.0,1
1102,1102,-0.5929067697915876,-0.6,1.0,0.0,361.0,604.0,0.0,0,455.0,1
1103,1103,0.5778584787953639,0.6,0.0,0.0,398.0,685.0,0.0,1,267.0,1
1104,1104,-0.747869264544879,-0.7,1.0,0.0,310.0,574.0,0.0,0,796.0,1
1105,1105,-0.13669070655974835,-0.1,1.0,0.0,496.0,773.0,0.0,0,1731.0,1
1106,1106,0.504439125271929,0.5,1.0,1.0,312.0,690.0,1.0,1,318.0,1
1107,1107,0.7491723759480985,0.7,1.0,1.0,375.0,521.0,1.0,1,294.0,1
1108,1108,-0.8340317622085718,-0.8,1.0,0.0,286.0,725.0,0.0,0,269.0,1
1109,1109,-0.336509984978122,-0.3,1.0,0.0,337.0,992.0,0.0,0,391.0,1
1110,1110,-0.4506692569759369,-0.5,0.0,1.0,316.0,834.0,1.0,0,420.0,1
1111,1111,0.3740597824643287,0.4,1.0,1.0,342.0,615.0,1.0,1,833.0,1
1112,1112,0.6006334539497985,0.6,1.0,1.0,261.0,767.0,1.0,1,432.0,1
1113,1113,0.5862598352741529,0.6,1.0,1.0,468.0,732.0,1.0,1,150.0,1
1114,1114,-0.22992769597631568,-0.2,1.0,0.0,363.0,555.0,0.0,0,972.0,1
1115,1115,-0.8274178738686832,-0.8,0.0,1.0,395.0,887.0,1.0,0,208.0,1
1116,1116,0.4686150160996908,0.5,1.0,1.0,252.0,905.0,1.0,1,413.0,1
1117,1117,0.010915851871085791,0.0,0.0,0.0,275.0,741.0,0.0,1,1984.0,1
1118,1118,-0.6452608329762675,-0.6,1.0,0.0,466.0,611.0,0.0,0,503.0,1
1119,1119,0.2756735083187828,0.3,1.0,1.0,268.0,838.0,1.0,1,484.0,1
1120,1120,0.7931673917645604,0.8,0.0,0.0,304.0,981.0,0.0,1,195.0,1
1121,1121,-0.4580118078556659,-0.5,0.0,1.0,347.0,525.0,1.0,0,238.0,1
1122,1122,0.41169109276136917,0.4,0.0,0.0,418.0,894.0,0.0,1,198.0,1
1123,1123,-0.5373610834981288,-0.5,0.0,1.0,375.0,867.0,1.0,0,188.0,1
1124,1124,0.45183664819225566,0.5,1.0,1.0,287.0,929.0,1.0,1,394.0,1
1125,1125,-0.13788456526805715,-0.1,1.0,0.0,460.0,758.0,0.0,0,1782.0,1
1126,1126,-0.18459401698300626,-0.2,1.0,0.0,254.0,747.0,0.0,0,779.0,1
1127,1127,-0.6654260765981355,-0.7,1.0,0.0,329.0,717.0,0.0,0,274.0,1
1128,1128,-0.4245029061303794,-0.4,0.0,1.0,375.0,754.0,1.0,0,1161.0,1
1129,1129,-0.8498115031747022,-0.8,1.0,0.0,268.0,933.0,0.0,0,279.0,1
1130,1130,-0.5137447549471785,-0.5,0.0,1.0,494.0,760.0,1.0,0,386.0,1
1131,1131,-0.3969058673528483,-0.4,0.0,1.0,441.0,856.0,1.0,0,1313.0,1
1132,1132,0.34606425476361447,0.3,1.0,1.0,288.0,631.0,1.0,1,621.0,1
1133,1133,-0.8439100349242773,-0.8,1.0,0.0,358.0,607.0,0.0,0,125.0,1
1134,1134,0.6049954812631654,0.6,0.0,0.0,307.0,565.0,0.0,1,628.0,1
1135,1135,-0.7118188308591853,-0.7,0.0,1.0,492.0,886.0,1.0,0,172.0,1
1136,1136,0.6355880281413545,0.6,1.0,1.0,381.0,909.0,1.0,1,360.0,1
1137,1137,0.4460132673529117,0.4,1.0,1.0,416.0,990.0,1.0,1,154.0,1
1138,1138,-0.38333694430887766,-0.4,1.0,0.0,328.0,904.0,0.0,0,518.0,1
1139,1139,0.5209843015637999,0.5,1.0,1.0,444.0,656.0,1.0,1,1460.0,1
1140,1140,-0.6270938407044832,-0.6,0.0,1.0,459.0,960.0,1.0,0,111.0,1
1141,1141,-0.11863489924405901,-0.1,0.0,1.0,487.0,604.0,1.0,0,1909.0,1
1142,1142,-0.8072006815461551,-0.8,0.0,1.0,257.0,631.0,1.0,0,212.0,1
1143,1143,0.679061057092042,0.7,1.0,1.0,352.0,892.0,1.0,1,226.0,1
1144,1144,0.09367605580523719,0.1,0.0,0.0,284.0,515.0,0.0,1,2201.0,1
1145,1145,0.11497335814263832,0.1,0.0,0.0,290.0,902.0,0.0,1,1808.0,1
1146,1146,0.3588443428032543,0.4,1.0,1.0,439.0,590.0,1.0,1,381.0,1
1147,1147,-0.17265601930527774,-0.2,0.0,1.0,271.0,820.0,1.0,0,369.0,1
1148,1148,0.4149119740099313,0.4,1.0,1.0,443.0,571.0,1.0,1,636.0,1
1149,1149,0.6525782867971573,0.7,0.0,0.0,295.0,738.0,0.0,1,377.0,1
1150,1150,0.3504486462407871,0.4,0.0,0.0,464.0,884.0,0.0,1,362.0,1
1151,1151,-0.5034623815593716,-0.5,1.0,0.0,449.0,929.0,0.0,0,282.0,1
1152,1152,0.021072864233513955,0.0,0.0,0.0,373.0,660.0,1.0,0,1967.0,0
1153,1153,0.8196277904488577,0.8,0.0,0.0,332.0,954.0,0.0,1,274.0,1
1154,1154,0.8959451190702744,0.9,0.0,0.0,317.0,788.0,0.0,1,95.0,1
1155,1155,-0.8168154254177824,-0.8,0.0,1.0,331.0,767.0,1.0,0,162.0,1
1156,1156,-0.10978400519399367,-0.1,1.0,0.0,313.0,560.0,0.0,0,2127.0,1
1157,1157,-0.07133354705613248,-0.1,0.0,1.0,359.0,510.0,1.0,0,2131.0,1
1158,1158,0.7348581528614083,0.7,0.0,0.0,292.0,904.0,0.0,1,144.0,1
1159,1159,-0.0962900581430397,-0.1,0.0,1.0,465.0,845.0,1.0,0,1690.0,1
1160,1160,-0.035387471465702536,-0.0,0.0,1.0,358.0,846.0,1.0,0,1796.0,1
1161,1161,0.32348964612158404,0.3,1.0,1.0,258.0,926.0,1.0,1,1466.0,1
1162,1162,-0.6473557590366289,-0.6,0.0,1.0,302.0,745.0,1.0,0,183.0,1
1163,1163,0.8406233042873873,0.8,0.0,0.0,444.0,504.0,0.0,1,342.0,1
1164,1164,0.7676034660161014,0.8,0.0,0.0,486.0,838.0,0.0,1,206.0,1
1165,1165,-0.3642890704823888,-0.4,0.0,1.0,442.0,679.0,1.0,0,369.0,1
1166,1166,0.8550411494538114,0.9,1.0,1.0,483.0,529.0,1.0,1,218.0,1
1167,1167,-0.15824649547104808,-0.2,0.0,1.0,297.0,989.0,1.0,0,644.0,1
1168,1168,-0.45232664496038777,-0.5,1.0,0.0,335.0,743.0,0.0,0,302.0,1
1169,1169,0.6515266367546949,0.7,1.0,1.0,251.0,644.0,1.0,1,295.0,1
1170,1170,0.2343749773646674,0.2,1.0,1.0,386.0,808.0,1.0,1,246.0,1
1171,1171,-0.7216854864356467,-0.7,0.0,1.0,372.0,766.0,1.0,0,172.0,1
1172,1172,0.17338197494569074,0.2,0.0,0.0,304.0,512.0,0.0,1,414.0,1
1173,1173,0.6002029888111554,0.6,1.0,1.0,320.0,751.0,1.0,1,229.0,1
1174,1174,-0.6496454027650207,-0.6,1.0,0.0,484.0,703.0,0.0,0,383.0,1
1175,1175,-0.5563259299767062,-0.6,0.0,1.0,495.0,610.0,1.0,0,455.0,1
1176,1176,0.15660058120368647,0.2,0.0,0.0,498.0,887.0,0.0,1,1615.0,1
1177,1177,0.8811576713996273,0.9,0.0,0.0,370.0,920.0,0.0,1,330.0,1
1178,1178,-0.6688360033589531,-0.7,1.0,0.0,315.0,626.0,0.0,0,299.0,1
1179,1179,-0.3937503146979109,-0.4,1.0,0.0,374.0,912.0,0.0,0,554.0,1
1180,1180,-0.48963478180431774,-0.5,1.0,0.0,448.0,568.0,0.0,0,444.0,1
1181,1181,-0.5294700882483583,-0.5,1.0,0.0,335.0,952.0,0.0,0,413.0,1
1182,1182,-0.21512097835823962,-0.2,0.0,1.0,344.0,580.0,1.0,0,756.0,1
1183,1183,-0.0037190426531833465,-0.0,0.0,1.0,256.0,559.0,0.0,1,2185.0,0
1184,1184,0.07588463521827815,0.1,1.0,1.0,478.0,544.0,1.0,1,1138.0,1
1185,1185,-0.8736448325727114,-0.9,0.0,1.0,340.0,841.0,1.0,0,239.0,1
1186,1186,0.5153455489316564,0.5,1.0,1.0,454.0,601.0,1.0,1,575.0,1
1187,1187,-0.09656405445407035,-0.1,0.0,1.0,410.0,608.0,1.0,0,632.0,1
1188,1188,0.06460359105225255,0.1,0.0,0.0,361.0,712.0,0.0,1,1927.0,1
1189,1189,0.1788535364261189,0.2,0.0,0.0,370.0,506.0,0.0,1,2124.0,1
1190,1190,0.872825949883059,0.9,1.0,1.0,279.0,520.0,1.0,1,271.0,1
1191,1191,0.8586816571781805,0.9,0.0,0.0,255.0,967.0,0.0,1,258.0,1
1192,1192,-0.11536867862892786,-0.1,1.0,0.0,324.0,523.0,0.0,0,2153.0,1
1193,1193,0.7681396122072505,0.8,0.0,0.0,295.0,648.0,0.0,1,207.0,1
1194,1194,-0.06582861631397141,-0.1,0.0,1.0,373.0,929.0,1.0,0,1698.0,1
1195,1195,0.8199444581470176,0.8,1.0,1.0,415.0,895.0,1.0,1,90.0,1
1196,1196,0.19370143248671134,0.2,1.0,1.0,286.0,837.0,1.0,1,357.0,1
1197,1197,-0.4203113121947706,-0.4,1.0,0.0,479.0,632.0,0.0,0,399.0,1
1198,1198,0.2695479089300713,0.3,1.0,1.0,333.0,722.0,1.0,1,1235.0,1
1199,1199,0.18471811809962613,0.2,0.0,0.0,468.0,668.0,0.0,1,1304.0,1
1200,1200,0.36518131549602606,0.4,1.0,1.0,435.0,734.0,1.0,1,621.0,1
1201,1201,-0.17126582859457828,-0.2,0.0,1.0,286.0,881.0,1.0,0,1833.0,1
1202,1202,0.8457956191863863,0.8,0.0,0.0,291.0,806.0,0.0,1,223.0,1
1203,1203,-0.7818243930064016,-0.8,1.0,0.0,337.0,574.0,0.0,0,229.0,1
1204,1204,0.6316126654892901,0.6,1.0,1.0,262.0,557.0,1.0,1,341.0,1
1205,1205,0.5896647460122254,0.6,1.0,1.0,269.0,756.0,1.0,1,225.0,1
1206,1206,-0.06599445986131491,-0.1,0.0,1.0,464.0,695.0,1.0,0,1681.0,1
1207,1207,-0.12378805087178923,-0.1,1.0,0.0,294.0,519.0,0.0,0,2187.0,1
1208,1208,0.1899492428528199,0.2,1.0,1.0,270.0,883.0,1.0,1,1847.0,1
1209,1209,0.608291119897523,0.6,1.0,1.0,325.0,676.0,1.0,1,129.0,1
1210,1210,-0.38716436802163323,-0.4,0.0,1.0,347.0,853.0,1.0,0,420.0,1
1211,1211,0.5750032430121709,0.6,0.0,0.0,495.0,949.0,0.0,1,186.0,1
1212,1212,-0.6501948493317499,-0.7,0.0,1.0,391.0,867.0,1.0,0,212.0,1
1213,1213,0.7197880197210375,0.7,1.0,1.0,304.0,877.0,1.0,1,109.0,1
1214,1214,-0.35687649202490845,-0.4,1.0,0.0,381.0,916.0,0.0,0,283.0,1
1215,1215,0.3942273425783088,0.4,1.0,1.0,383.0,739.0,1.0,1,408.0,1
1216,1216,0.21571863799725544,0.2,1.0,1.0,381.0,927.0,1.0,1,1692.0,1
1217,1217,-0.2073565758827518,-0.2,0.0,1.0,355.0,898.0,1.0,0,1747.0,1
1218,1218,0.4390355742916604,0.4,0.0,0.0,262.0,821.0,0.0,1,357.0,1
1219,1219,0.43652805763133273,0.4,0.0,0.0,328.0,891.0,0.0,1,391.0,1
1220,1220,0.8348042669230756,0.8,0.0,0.0,353.0,762.0,0.0,1,335.0,1
1221,1221,-0.8073203439456149,-0.8,0.0,1.0,436.0,934.0,1.0,0,240.0,1
1222,1222,0.42461813648343594,0.4,1.0,1.0,378.0,575.0,1.0,1,1157.0,1
1223,1223,0.15510253460028223,0.2,1.0,1.0,258.0,569.0,1.0,1,1613.0,1
1224,1224,-0.018365678495449456,-0.0,0.0,1.0,423.0,812.0,0.0,1,1765.0,0
1225,1225,-0.133719702602632,-0.1,1.0,0.0,492.0,806.0,0.0,0,932.0,1
1226,1226,0.3081223486318657,0.3,1.0,1.0,335.0,579.0,1.0,1,596.0,1
1227,1227,0.5612991896292877,0.6,1.0,1.0,294.0,827.0,1.0,1,249.0,1
1228,1228,-0.22691888223680878,-0.2,1.0,0.0,413.0,932.0,0.0,0,625.0,1
1229,1229,-0.3712524655204681,-0.4,0.0,1.0,381.0,728.0,1.0,0,481.0,1
1230,1230,-0.3517086866706779,-0.4,1.0,0.0,490.0,893.0,0.0,0,337.0,1
1231,1231,0.8573898855730498,0.9,1.0,1.0,474.0,728.0,1.0,1,168.0,1
1232,1232,0.05343254365607153,0.1,0.0,0.0,481.0,991.0,0.0,1,1528.0,1
1233,1233,0.12068435379908282,0.1,0.0,0.0,326.0,550.0,0.0,1,2124.0,1
1234,1234,0.07154159844287511,0.1,0.0,0.0,418.0,636.0,0.0,1,1946.0,1
1235,1235,-0.2721750540309117,-0.3,1.0,0.0,285.0,910.0,0.0,0,445.0,1
1236,1236,-0.7048498108542437,-0.7,1.0,0.0,346.0,569.0,0.0,0,515.0,1
1237,1237,0.383316288559456,0.4,1.0,1.0,344.0,584.0,1.0,1,402.0,1
1238,1238,0.5961230074128757,0.6,1.0,1.0,434.0,538.0,1.0,1,118.0,1
1239,1239,-0.6260706286982858,-0.6,1.0,0.0,306.0,609.0,0.0,0,245.0,1
1240,1240,0.6411698777420841,0.6,0.0,0.0,292.0,977.0,0.0,1,221.0,1
1241,1241,0.009845690700740706,0.0,0.0,0.0,283.0,774.0,1.0,0,1943.0,0
1242,1242,0.12599714906119452,0.1,0.0,0.0,270.0,699.0,0.0,1,1081.0,1
1243,1243,-0.4838484127322809,-0.5,1.0,0.0,412.0,561.0,0.0,0,617.0,1
1244,1244,0.3973540977739384,0.4,0.0,0.0,387.0,560.0,0.0,1,623.0,1
1245,1245,-0.4816345984533691,-0.5,0.0,1.0,404.0,799.0,1.0,0,527.0,1
1246,1246,0.6768929729759533,0.7,0.0,0.0,350.0,964.0,0.0,1,96.0,1
1247,1247,-0.1024702817500629,-0.1,1.0,0.0,326.0,669.0,0.0,0,2005.0,1
1248,1248,-0.2313283028877282,-0.2,1.0,0.0,443.0,811.0,0.0,0,1016.0,1
1249,1249,-0.0953823414066084,-0.1,1.0,0.0,345.0,725.0,0.0,0,1930.0,1
1250,1250,0.8117613404647305,0.8,1.0,1.0,492.0,891.0,1.0,1,247.0,1
1251,1251,0.8717875337418258,0.9,0.0,0.0,324.0,886.0,0.0,1,270.0,1
1252,1252,0.6756801335241508,0.7,1.0,1.0,412.0,976.0,1.0,1,152.0,1
1253,1253,-0.7013573515395383,-0.7,0.0,1.0,417.0,618.0,1.0,0,295.0,1
1254,1254,-0.6855772263147777,-0.7,1.0,0.0,421.0,905.0,0.0,0,244.0,1
1255,1255,0.8234030387159758,0.8,0.0,0.0,451.0,845.0,0.0,1,244.0,1
1256,1256,0.6973949179979341,0.7,1.0,1.0,379.0,646.0,1.0,1,305.0,1
1257,1257,-0.8219418746562435,-0.8,0.0,1.0,391.0,861.0,1.0,0,158.0,1
1258,1258,0.8966101294411434,0.9,1.0,1.0,341.0,929.0,1.0,1,720.0,1
1259,1259,0.6545445131672499,0.7,1.0,1.0,393.0,745.0,1.0,1,172.0,1
1260,1260,0.8442389247820105,0.8,0.0,0.0,405.0,873.0,0.0,1,132.0,1
1261,1261,0.08782379317258782,0.1,0.0,0.0,336.0,878.0,0.0,1,966.0,1
1262,1262,0.15639221307507245,0.2,1.0,1.0,265.0,861.0,1.0,1,984.0,1
1263,1263,-0.6023372034916417,-0.6,0.0,1.0,398.0,891.0,1.0,0,381.0,1
1264,1264,-0.3817902682074099,-0.4,0.0,1.0,371.0,994.0,1.0,0,555.0,1
1265,1265,-0.02590696284927141,-0.0,0.0,1.0,359.0,622.0,1.0,0,2019.0,1
1266,1266,-0.29143113123081,-0.3,0.0,1.0,273.0,965.0,1.0,0,752.0,1
1267,1267,0.01223583459883082,0.0,0.0,0.0,442.0,957.0,0.0,1,1601.0,1
1268,1268,0.3932132912671623,0.4,0.0,0.0,263.0,763.0,0.0,1,394.0,1
1269,1269,-0.734439840891984,-0.7,0.0,1.0,380.0,812.0,1.0,0,288.0,1
1270,1270,0.8134383889055746,0.8,0.0,0.0,324.0,789.0,0.0,1,67.0,1
1271,1271,-0.8260853567636706,-0.8,1.0,0.0,424.0,650.0,0.0,0,216.0,1
1272,1272,-0.48666088872365004,-0.5,1.0,0.0,323.0,680.0,0.0,0,257.0,1
1273,1273,-0.35135069177933487,-0.4,1.0,0.0,402.0,894.0,0.0,0,684.0,1
1274,1274,-0.817358600427189,-0.8,0.0,1.0,423.0,750.0,1.0,0,147.0,1
1275,1275,-0.5621933248441278,-0.6,0.0,1.0,251.0,831.0,1.0,0,168.0,1
1276,1276,-0.5502692638577609,-0.6,0.0,1.0,326.0,599.0,1.0,0,335.0,1
1277,1277,-0.8859784909685188,-0.9,0.0,1.0,473.0,894.0,1.0,0,103.0,1
1278,1278,-0.48519049671962955,-0.5,0.0,1.0,355.0,982.0,1.0,0,303.0,1
1279,1279,-0.38742547488786816,-0.4,0.0,1.0,471.0,936.0,1.0,0,363.0,1
1280,1280,-0.4123060758122032,-0.4,1.0,0.0,493.0,709.0,0.0,0,388.0,1
1281,1281,-0.4316781243656341,-0.4,0.0,1.0,458.0,637.0,1.0,0,865.0,1
1282,1282,-0.001203982561487682,-0.0,0.0,1.0,282.0,805.0,0.0,1,293.0,0
1283,1283,0.5177787461708824,0.5,0.0,0.0,483.0,990.0,0.0,1,467.0,1
1284,1284,-0.7471888538527668,-0.7,1.0,0.0,251.0,815.0,0.0,0,404.0,1
1285,1285,0.4381963152258773,0.4,1.0,1.0,369.0,766.0,1.0,1,365.0,1
1286,1286,-0.7338894540743005,-0.7,1.0,0.0,306.0,865.0,0.0,0,289.0,1
1287,1287,0.07195271300035966,0.1,1.0,1.0,307.0,985.0,1.0,1,1708.0,1
1288,1288,0.8991142894041689,0.9,1.0,1.0,344.0,728.0,1.0,1,208.0,1
1289,1289,0.7283219136791698,0.7,1.0,1.0,337.0,964.0,0.0,0,-1.0,0
1290,1290,0.0409208025466109,0.0,1.0,1.0,288.0,552.0,1.0,1,2160.0,1
1291,1291,0.24440531718658176,0.2,1.0,1.0,480.0,805.0,1.0,1,1345.0,1
1292,1292,-0.34203590504948045,-0.3,0.0,1.0,420.0,851.0,1.0,0,419.0,1
1293,1293,0.69892732660605,0.7,0.0,0.0,420.0,857.0,0.0,1,123.0,1
1294,1294,-0.8608912632866199,-0.9,1.0,0.0,313.0,628.0,0.0,0,239.0,1
1295,1295,-0.041012185224614583,-0.0,1.0,0.0,401.0,829.0,0.0,0,1770.0,1
1296,1296,0.31033574029323063,0.3,1.0,1.0,370.0,533.0,1.0,1,977.0,1
1297,1297,0.07244026691583816,0.1,0.0,0.0,385.0,551.0,0.0,1,2064.0,1
1298,1298,0.7532745113215861,0.8,1.0,1.0,353.0,914.0,1.0,1,243.0,1
1299,1299,0.8685189049348946,0.9,0.0,0.0,412.0,802.0,0.0,1,126.0,1
1300,1300,0.570987732310554,0.6,0.0,0.0,414.0,800.0,0.0,1,-64.0,1
1301,1301,-0.18453927560261463,-0.2,0.0,1.0,389.0,799.0,1.0,0,452.0,1
1302,1302,0.870663331382776,0.9,0.0,0.0,347.0,685.0,0.0,1,178.0,1
1303,1303,-0.8271613045086346,-0.8,0.0,1.0,297.0,698.0,1.0,0,265.0,1
1304,1304,0.19620149719884494,0.2,0.0,0.0,317.0,619.0,0.0,1,1724.0,1
1305,1305,0.5776611387938774,0.6,1.0,1.0,388.0,774.0,1.0,1,268.0,1
1306,1306,-0.7408986925108665,-0.7,0.0,1.0,329.0,924.0,1.0,0,147.0,1
1307,1307,0.675775988127857,0.7,1.0,1.0,338.0,750.0,1.0,1,302.0,1
1308,1308,0.27141789083695766,0.3,1.0,1.0,447.0,686.0,1.0,1,917.0,1
1309,1309,-0.08251202439979133,-0.1,0.0,1.0,358.0,895.0,0.0,1,1747.0,0
1310,1310,0.05731935712822955,0.1,0.0,0.0,282.0,797.0,1.0,0,1921.0,0
1311,1311,0.045449688425524326,0.0,0.0,0.0,283.0,675.0,0.0,1,2042.0,1
1312,1312,0.4567087484923117,0.5,1.0,1.0,298.0,527.0,1.0,1,415.0,1
1313,1313,-0.216734146546115,-0.2,1.0,0.0,305.0,951.0,0.0,0,714.0,1
1314,1314,-0.7739216423987006,-0.8,1.0,0.0,348.0,921.0,0.0,0,211.0,1
1315,1315,0.08127910931485904,0.1,0.0,0.0,313.0,893.0,0.0,1,1794.0,1
1316,1316,0.5452956720207071,0.5,0.0,0.0,365.0,878.0,0.0,1,57.0,1
1317,1317,-0.3755045982878372,-0.4,1.0,0.0,393.0,664.0,0.0,0,133.0,1
1318,1318,-0.11239824850979685,-0.1,1.0,0.0,346.0,682.0,0.0,0,1322.0,1
1319,1319,-0.5007925154666817,-0.5,1.0,0.0,375.0,978.0,0.0,0,577.0,1
1320,1320,-0.8207809987766422,-0.8,1.0,0.0,307.0,748.0,0.0,0,225.0,1
1321,1321,0.7548101367653285,0.8,1.0,1.0,378.0,550.0,1.0,1,172.0,1
1322,1322,-0.5025873860089668,-0.5,0.0,1.0,444.0,782.0,1.0,0,174.0,1
1323,1323,0.2665762575845084,0.3,1.0,1.0,359.0,858.0,1.0,1,213.0,1
1324,1324,-0.5002120668370234,-0.5,0.0,1.0,449.0,917.0,1.0,0,984.0,1
1325,1325,-0.7125108226022283,-0.7,0.0,1.0,385.0,844.0,1.0,0,251.0,1
1326,1326,-0.20760787438377137,-0.2,1.0,0.0,387.0,970.0,0.0,0,173.0,1
1327,1327,-0.11441873095109323,-0.1,1.0,0.0,455.0,758.0,0.0,0,627.0,1
1328,1328,0.24257095144123075,0.2,1.0,1.0,360.0,719.0,1.0,1,631.0,1
1329,1329,0.3253594214390926,0.3,1.0,1.0,440.0,601.0,1.0,1,559.0,1
1330,1330,0.7137971270521647,0.7,1.0,1.0,449.0,781.0,1.0,1,340.0,1
1331,1331,-0.5581795006164538,-0.6,0.0,1.0,478.0,704.0,1.0,0,358.0,1
1332,1332,0.04002211686259283,0.0,0.0,0.0,499.0,750.0,0.0,1,1751.0,1
1333,1333,0.5093839789984128,0.5,0.0,0.0,468.0,768.0,0.0,1,274.0,1
1334,1334,0.8441075549229892,0.8,1.0,1.0,395.0,771.0,1.0,1,284.0,1
1335,1335,-0.8158290006047642,-0.8,1.0,0.0,445.0,503.0,0.0,0,322.0,1
1336,1336,-0.8180609026777206,-0.8,0.0,1.0,295.0,981.0,1.0,0,104.0,1
1337,1337,-0.4367473813241214,-0.4,1.0,0.0,269.0,578.0,0.0,0,1483.0,1
1338,1338,-0.728037969718011,-0.7,0.0,1.0,424.0,783.0,1.0,0,143.0,1
1339,1339,0.7073840436113686,0.7,1.0,1.0,336.0,607.0,1.0,1,597.0,1
1340,1340,-0.8212562312419626,-0.8,0.0,1.0,430.0,852.0,1.0,0,338.0,1
1341,1341,-0.4015682762402743,-0.4,1.0,0.0,400.0,981.0,0.0,0,1029.0,1
1342,1342,0.19655097860660808,0.2,1.0,1.0,421.0,780.0,1.0,1,239.0,1
1343,1343,-0.3793466067146205,-0.4,1.0,0.0,285.0,597.0,0.0,0,278.0,1
1344,1344,0.6644623047431851,0.7,1.0,1.0,360.0,713.0,1.0,1,147.0,1
1345,1345,0.3988035214101949,0.4,1.0,1.0,394.0,906.0,1.0,1,250.0,1
1346,1346,0.6046517533903649,0.6,0.0,0.0,494.0,612.0,0.0,1,234.0,1
1347,1347,0.4866297831696099,0.5,1.0,1.0,353.0,596.0,1.0,1,501.0,1
1348,1348,-0.5411591614239795,-0.5,1.0,0.0,360.0,658.0,0.0,0,452.0,1
1349,1349,0.4745481614076871,0.5,0.0,0.0,399.0,723.0,0.0,1,328.0,1
1350,1350,0.04940210670511003,0.0,0.0,0.0,265.0,623.0,1.0,0,2112.0,0
1351,1351,-0.42470496769363736,-0.4,1.0,0.0,321.0,884.0,0.0,0,165.0,1
1352,1352,-0.1602098682144112,-0.2,0.0,1.0,272.0,842.0,1.0,0,1886.0,1
1353,1353,-0.4535441086399151,-0.5,1.0,0.0,486.0,583.0,0.0,0,671.0,1
1354,1354,-0.6804916687665241,-0.7,1.0,0.0,288.0,782.0,0.0,0,290.0,1
1355,1355,0.7872985496689285,0.8,0.0,0.0,413.0,904.0,0.0,1,213.0,1
1356,1356,-0.27293581876118334,-0.3,1.0,0.0,285.0,531.0,0.0,0,774.0,1
1357,1357,-0.8317690730873718,-0.8,1.0,0.0,303.0,522.0,0.0,0,405.0,1
1358,1358,0.39012716456568086,0.4,1.0,1.0,373.0,966.0,1.0,1,1661.0,1
1359,1359,-0.1346860169102948,-0.1,0.0,1.0,336.0,578.0,1.0,0,416.0,1
1360,1360,-0.14971545390691066,-0.1,1.0,0.0,343.0,695.0,0.0,0,1372.0,1
1361,1361,0.2503073120072278,0.3,0.0,0.0,432.0,856.0,0.0,1,1712.0,1
1362,1362,-0.16302035310774488,-0.2,0.0,1.0,447.0,905.0,1.0,0,468.0,1
1363,1363,-0.22707584261681413,-0.2,0.0,1.0,355.0,822.0,1.0,0,813.0,1
1364,1364,0.7752632802047724,0.8,0.0,0.0,315.0,782.0,0.0,1,203.0,1
1365,1365,0.5639197864293662,0.6,0.0,0.0,450.0,957.0,0.0,1,293.0,1
1366,1366,0.8607485186814202,0.9,1.0,1.0,420.0,800.0,1.0,1,210.0,1
1367,1367,0.29460251982928465,0.3,0.0,0.0,484.0,920.0,0.0,1,596.0,1
1368,1368,-0.8145599718025779,-0.8,1.0,0.0,316.0,961.0,0.0,0,293.0,1
1369,1369,-0.48386723973158,-0.5,0.0,1.0,481.0,559.0,1.0,0,560.0,1
1370,1370,-0.3936680583261538,-0.4,1.0,0.0,381.0,868.0,0.0,0,651.0,1
1371,1371,0.828215245018855,0.8,0.0,0.0,335.0,759.0,0.0,1,196.0,1
1372,1372,-0.8769376333718184,-0.9,1.0,0.0,373.0,641.0,0.0,0,376.0,1
1373,1373,-0.09661045832934467,-0.1,0.0,1.0,495.0,587.0,1.0,0,1918.0,1
1374,1374,-0.6751356342554469,-0.7,0.0,1.0,498.0,969.0,1.0,0,313.0,1
1375,1375,-0.3944138860164995,-0.4,1.0,0.0,345.0,616.0,0.0,0,869.0,1
1376,1376,-0.6749949879546833,-0.7,0.0,1.0,284.0,960.0,1.0,0,216.0,1
1377,1377,-0.598078725800693,-0.6,0.0,1.0,330.0,859.0,1.0,0,361.0,1
1378,1378,-0.8441971186939169,-0.8,0.0,1.0,464.0,761.0,1.0,0,145.0,1
1379,1379,0.18130349528193823,0.2,0.0,0.0,308.0,930.0,0.0,1,262.0,1
1380,1380,-0.651573513298631,-0.7,0.0,1.0,387.0,945.0,1.0,0,158.0,1
1381,1381,-0.7280050479967115,-0.7,0.0,1.0,260.0,693.0,1.0,0,357.0,1
1382,1382,0.42270620941035075,0.4,1.0,1.0,328.0,984.0,1.0,1,268.0,1
1383,1383,0.3359126449193618,0.3,0.0,0.0,329.0,551.0,0.0,1,240.0,1
1384,1384,0.05679396670572623,0.1,0.0,0.0,394.0,841.0,0.0,1,1765.0,1
1385,1385,-0.38104101433784454,-0.4,0.0,1.0,406.0,920.0,1.0,0,1054.0,1
1386,1386,0.39322419194255487,0.4,0.0,0.0,308.0,914.0,0.0,1,398.0,1
1387,1387,0.10496228036834132,0.1,0.0,0.0,311.0,850.0,0.0,1,1839.0,1
1388,1388,-0.8340871113856178,-0.8,1.0,0.0,416.0,709.0,0.0,0,315.0,1
1389,1389,-0.14523100425381685,-0.1,1.0,0.0,306.0,810.0,0.0,0,1834.0,1
1390,1390,0.3508066741171513,0.4,0.0,0.0,420.0,572.0,0.0,1,428.0,1
1391,1391,-0.823890420111668,-0.8,1.0,0.0,386.0,510.0,0.0,0,314.0,1
1392,1392,-0.05038771694870636,-0.1,1.0,0.0,396.0,735.0,0.0,0,1869.0,1
1393,1393,0.06276351996744756,0.1,0.0,0.0,318.0,720.0,1.0,0,1962.0,0
1394,1394,-0.1526470140730516,-0.2,1.0,0.0,375.0,842.0,0.0,0,463.0,1
1395,1395,-0.7634765459581087,-0.8,0.0,1.0,279.0,643.0,1.0,0,228.0,1
1396,1396,0.7680871480191608,0.8,1.0,1.0,318.0,599.0,1.0,1,213.0,1
1397,1397,0.41429618115343547,0.4,0.0,0.0,298.0,620.0,0.0,1,742.0,1
1398,1398,-0.28544528315412443,-0.3,0.0,1.0,362.0,530.0,1.0,0,458.0,1
1399,1399,0.5812976939043774,0.6,1.0,1.0,379.0,689.0,1.0,1,222.0,1
1400,1400,0.43958577655423536,0.4,0.0,0.0,411.0,704.0,0.0,1,475.0,1
1401,1401,0.46073672953381684,0.5,1.0,1.0,255.0,592.0,1.0,1,1263.0,1
1402,1402,0.5813700589066227,0.6,0.0,0.0,465.0,580.0,0.0,1,145.0,1
1403,1403,0.012945647253567616,0.0,1.0,1.0,255.0,858.0,0.0,0,1887.0,0
1404,1404,0.5718841922317236,0.6,1.0,1.0,369.0,594.0,1.0,1,367.0,1
1405,1405,0.513941383762995,0.5,1.0,1.0,326.0,729.0,1.0,1,215.0,1
1406,1406,-0.011352818979975088,-0.0,1.0,0.0,477.0,814.0,1.0,1,1709.0,0
1407,1407,-0.07906261918438573,-0.1,0.0,1.0,431.0,972.0,1.0,0,1067.0,1
1408,1408,-0.8283779019510243,-0.8,1.0,0.0,437.0,756.0,0.0,0,197.0,1
1409,1409,0.16395318197082875,0.2,1.0,1.0,424.0,886.0,1.0,1,1690.0,1
1410,1410,0.1612356432683838,0.2,1.0,1.0,314.0,533.0,1.0,1,2153.0,1
1411,1411,0.42590024083338307,0.4,1.0,1.0,273.0,864.0,1.0,1,1553.0,1
1412,1412,0.7265355663353316,0.7,1.0,1.0,457.0,649.0,1.0,1,244.0,1
1413,1413,0.7545565663866171,0.8,1.0,1.0,358.0,815.0,1.0,1,257.0,1
1414,1414,0.8709566963867751,0.9,0.0,0.0,338.0,592.0,0.0,1,160.0,1
1415,1415,-0.36146938897609926,-0.4,1.0,0.0,402.0,906.0,0.0,0,362.0,1
1416,1416,-0.22164808943142567,-0.2,1.0,0.0,457.0,841.0,0.0,0,632.0,1
1417,1417,-0.042312305788443805,-0.0,1.0,0.0,452.0,854.0,1.0,1,1694.0,0
1418,1418,0.7313126989499531,0.7,1.0,1.0,498.0,951.0,1.0,1,471.0,1
1419,1419,0.4576852129142911,0.5,0.0,0.0,492.0,701.0,0.0,1,317.0,1
1420,1420,-0.5460077331346631,-0.5,0.0,1.0,484.0,920.0,1.0,0,196.0,1
1421,1421,-0.8993765976388086,-0.9,0.0,1.0,284.0,656.0,1.0,0,170.0,1
1422,1422,0.46450720663823664,0.5,0.0,0.0,451.0,565.0,0.0,1,254.0,1
1423,1423,0.7456646837843183,0.7,0.0,0.0,421.0,623.0,0.0,1,236.0,1
1424,1424,0.33248568687915225,0.3,0.0,0.0,380.0,932.0,0.0,1,538.0,1
1425,1425,-0.016627642863969894,-0.0,1.0,0.0,261.0,874.0,0.0,0,1865.0,1
1426,1426,-0.16536762345815037,-0.2,0.0,1.0,495.0,646.0,1.0,0,1859.0,1
1427,1427,0.1407142219584726,0.1,1.0,1.0,492.0,835.0,1.0,1,1673.0,1
1428,1428,-0.7370180209958317,-0.7,0.0,1.0,334.0,506.0,1.0,0,380.0,1
1429,1429,-0.2920285691813953,-0.3,1.0,0.0,453.0,736.0,0.0,0,271.0,1
1430,1430,-0.411529202488697,-0.4,1.0,0.0,366.0,927.0,0.0,0,237.0,1
1431,1431,0.2506310808303315,0.3,0.0,0.0,265.0,767.0,0.0,1,1458.0,1
1432,1432,0.3646235138411694,0.4,0.0,0.0,331.0,892.0,0.0,1,677.0,1
1433,1433,-0.56220744037577,-0.6,1.0,0.0,305.0,700.0,0.0,0,815.0,1
1434,1434,-0.8089881021544282,-0.8,1.0,0.0,470.0,928.0,0.0,0,142.0,1
1435,1435,-0.8649539221913657,-0.9,1.0,0.0,332.0,671.0,0.0,0,1137.0,1
1436,1436,0.11845091339731562,0.1,0.0,0.0,261.0,907.0,0.0,1,1812.0,1
1437,1437,-0.20430748324271453,-0.2,1.0,0.0,446.0,968.0,0.0,0,1236.0,1
1438,1438,0.29203417215376526,0.3,0.0,0.0,454.0,750.0,0.0,1,796.0,1
1439,1439,0.6077961695440696,0.6,1.0,1.0,301.0,703.0,1.0,1,336.0,1
1440,1440,-0.43387071048104225,-0.4,0.0,1.0,314.0,739.0,1.0,0,297.0,1
1441,1441,0.4748672208772974,0.5,1.0,1.0,358.0,841.0,1.0,1,381.0,1
1442,1442,0.21928973328346302,0.2,0.0,0.0,488.0,509.0,0.0,1,393.0,1
1443,1443,-0.1787132931520592,-0.2,1.0,0.0,418.0,829.0,0.0,0,873.0,1
1444,1444,-0.5708056612291351,-0.6,0.0,1.0,371.0,673.0,1.0,0,366.0,1
1445,1445,0.45544174227285505,0.5,1.0,1.0,466.0,807.0,1.0,1,267.0,1
1446,1446,-0.416650018779405,-0.4,1.0,0.0,364.0,682.0,0.0,0,184.0,1
1447,1447,-0.7735020814590877,-0.8,1.0,0.0,334.0,958.0,0.0,0,218.0,1
1448,1448,0.11594984348676574,0.1,1.0,1.0,343.0,899.0,1.0,1,658.0,1
1449,1449,0.8401316096052568,0.8,0.0,0.0,446.0,562.0,0.0,1,172.0,1
1450,1450,-0.7574129147994582,-0.8,1.0,0.0,305.0,743.0,0.0,0,182.0,1
1451,1451,-0.2060434304627795,-0.2,0.0,1.0,382.0,656.0,1.0,0,1522.0,1
1452,1452,0.22480754398020675,0.2,0.0,0.0,395.0,502.0,0.0,1,1593.0,1
1453,1453,-0.0753521782236779,-0.1,0.0,1.0,405.0,777.0,1.0,0,1818.0,1
1454,1454,0.7244827309552321,0.7,0.0,0.0,414.0,897.0,0.0,1,279.0,1
1455,1455,-0.07058766359857949,-0.1,1.0,0.0,494.0,580.0,0.0,0,1926.0,1
1456,1456,-0.4735805697888431,-0.5,0.0,1.0,425.0,861.0,1.0,0,444.0,1
1457,1457,-0.6100552324305359,-0.6,1.0,0.0,270.0,633.0,0.0,0,457.0,1
1458,1458,-0.07236068974793641,-0.1,1.0,0.0,258.0,500.0,0.0,0,1212.0,1
1459,1459,0.672858887621327,0.7,0.0,0.0,441.0,984.0,0.0,1,185.0,1
1460,1460,0.06081031637070555,0.1,0.0,0.0,441.0,548.0,0.0,1,2011.0,1
1461,1461,-0.03846099658894553,-0.0,1.0,0.0,395.0,999.0,0.0,0,1606.0,1
1462,1462,0.4365390465129696,0.4,1.0,1.0,251.0,582.0,1.0,1,597.0,1
1463,1463,0.44348686429729833,0.4,1.0,1.0,421.0,826.0,1.0,1,313.0,1
1464,1464,-0.8847035399654962,-0.9,1.0,0.0,302.0,989.0,0.0,0,189.0,1
1465,1465,-0.19538435092518358,-0.2,1.0,0.0,296.0,909.0,0.0,0,605.0,1
1466,1466,-0.4157905608969798,-0.4,1.0,0.0,402.0,931.0,0.0,0,277.0,1
1467,1467,0.8274029988085664,0.8,1.0,1.0,261.0,866.0,1.0,1,233.0,1
1468,1468,-0.7309113559939967,-0.7,1.0,0.0,345.0,680.0,0.0,0,155.0,1
1469,1469,-0.0317098972777744,-0.0,1.0,0.0,430.0,870.0,0.0,0,1700.0,1
1470,1470,-0.18768678954601337,-0.2,1.0,0.0,487.0,904.0,0.0,0,559.0,1
1471,1471,-0.26459932005402487,-0.3,1.0,0.0,255.0,640.0,0.0,0,425.0,1
1472,1472,0.6275910527842673,0.6,0.0,0.0,311.0,760.0,0.0,1,189.0,1
1473,1473,0.1831023647678257,0.2,0.0,0.0,381.0,959.0,0.0,1,770.0,1
1474,1474,-0.0443776233569968,-0.0,0.0,1.0,402.0,993.0,1.0,0,1605.0,1
1475,1475,0.18035054030191533,0.2,0.0,0.0,309.0,741.0,0.0,1,1950.0,1
1476,1476,-0.7240487624525462,-0.7,1.0,0.0,480.0,965.0,0.0,0,235.0,1
1477,1477,0.059796133375564664,0.1,0.0,0.0,358.0,833.0,0.0,1,1809.0,1
1478,1478,0.5551336711898173,0.6,0.0,0.0,326.0,528.0,0.0,1,446.0,1
1479,1479,0.36934531629140455,0.4,0.0,0.0,323.0,763.0,0.0,1,674.0,1
1480,1480,0.302321162435934,0.3,0.0,0.0,410.0,589.0,0.0,1,491.0,1
1481,1481,-0.41046066025726263,-0.4,1.0,0.0,440.0,647.0,0.0,0,623.0,1
1482,1482,-0.6579941145547765,-0.7,0.0,1.0,313.0,707.0,1.0,0,170.0,1
1483,1483,-0.011302236233928897,-0.0,1.0,0.0,404.0,837.0,0.0,0,1059.0,1
1484,1484,0.009534092056936005,0.0,0.0,0.0,293.0,905.0,1.0,0,1802.0,0
1485,1485,0.40938101357543977,0.4,1.0,1.0,326.0,963.0,1.0,1,571.0,1
1486,1486,-0.1252833072461501,-0.1,1.0,0.0,274.0,605.0,0.0,0,2121.0,1
1487,1487,-0.4748312446027583,-0.5,1.0,0.0,489.0,963.0,0.0,0,448.0,1
1488,1488,0.7447910489599322,0.7,0.0,0.0,299.0,780.0,0.0,1,91.0,1
1489,1489,-0.5709640428356784,-0.6,0.0,1.0,281.0,618.0,1.0,0,461.0,1
