,trial,coherence,coherence_bin,green_side,correct_side,target_onset,checker_onset,decision,green_decision,decision_time,correct_decision
0,0,0.7714457540288934,0.8,1.0,1.0,470.0,900.0,1.0,1,100.0,1
1,1,0.10622501367764559,0.1,1.0,1.0,477.0,675.0,1.0,1,2718.0,1
2,2,-0.10502925942800145,-0.1,0.0,1.0,296.0,661.0,1.0,0,543.0,1
3,3,-0.4372566205383376,-0.4,1.0,0.0,483.0,888.0,0.0,0,2699.0,1
4,4,0.8894355183268551,0.9,1.0,1.0,429.0,637.0,1.0,1,164.0,1
5,5,-0.7848335808650638,-0.8,0.0,1.0,468.0,981.0,1.0,0,201.0,1
6,6,0.32986892551577063,0.3,0.0,0.0,256.0,886.0,1.0,0,3858.0,0
7,7,0.46474878090471605,0.5,0.0,0.0,356.0,971.0,0.0,1,463.0,1
8,8,0.15184213812344416,0.2,1.0,1.0,465.0,660.0,1.0,1,1295.0,1
9,9,0.625076961356502,0.6,1.0,1.0,339.0,624.0,1.0,1,-53.0,1
10,10,-0.5625538906241769,-0.6,0.0,1.0,495.0,527.0,1.0,0,388.0,1
11,11,-0.36918743584437796,-0.4,1.0,0.0,348.0,923.0,0.0,0,1649.0,1
12,12,-0.802153661152305,-0.8,0.0,1.0,304.0,836.0,1.0,0,80.0,1
13,13,-0.2141265796582975,-0.2,0.0,1.0,270.0,796.0,1.0,0,884.0,1
14,14,0.05269628188644493,0.1,0.0,0.0,483.0,764.0,1.0,0,123.0,0
15,15,0.6955279960769963,0.7,1.0,1.0,441.0,785.0,1.0,1,-216.0,1
16,16,0.2478852963177186,0.2,0.0,0.0,312.0,830.0,0.0,1,2248.0,1
17,17,-0.8796540885577152,-0.9,0.0,1.0,482.0,546.0,1.0,0,-48.0,1
18,18,0.0701881470756085,0.1,1.0,1.0,499.0,750.0,1.0,1,1241.0,1
19,19,0.5851661998782224,0.6,1.0,1.0,386.0,793.0,1.0,1,131.0,1
20,20,0.24437434262849267,0.2,1.0,1.0,450.0,930.0,1.0,1,430.0,1
21,21,-0.04547545444562351,-0.0,1.0,0.0,267.0,719.0,0.0,0,4014.0,1
22,22,-0.44886613668201586,-0.4,1.0,0.0,494.0,675.0,0.0,0,1671.0,1
23,23,-0.5838100109512738,-0.6,0.0,1.0,436.0,633.0,1.0,0,-109.0,1
24,24,0.6405238172557685,0.6,1.0,1.0,483.0,968.0,1.0,1,289.0,1
25,25,0.6732871368205969,0.7,0.0,0.0,251.0,768.0,0.0,1,541.0,1
26,26,0.35725086513243964,0.4,0.0,0.0,292.0,571.0,0.0,1,687.0,1
27,27,0.7227711096048145,0.7,0.0,0.0,275.0,911.0,0.0,1,534.0,1
28,28,-0.30021861659329296,-0.3,0.0,1.0,321.0,880.0,1.0,0,489.0,1
29,29,0.6327464192014348,0.6,1.0,1.0,269.0,860.0,1.0,1,91.0,1
30,30,-0.45734326288583327,-0.5,0.0,1.0,395.0,731.0,1.0,0,584.0,1
31,31,0.8547184824798885,0.9,0.0,0.0,262.0,955.0,0.0,1,503.0,1
32,32,0.7330036581249072,0.7,1.0,1.0,300.0,740.0,1.0,1,100.0,1
33,33,-0.5654809861002428,-0.6,1.0,0.0,254.0,947.0,0.0,0,1809.0,1
34,34,-0.7023983802951357,-0.7,0.0,1.0,276.0,578.0,1.0,0,716.0,1
35,35,-0.09559031989039612,-0.1,0.0,1.0,474.0,545.0,1.0,0,511.0,1
36,36,0.3233086477192656,0.3,0.0,0.0,443.0,563.0,0.0,1,1844.0,1
37,37,0.03982382492620462,0.0,0.0,0.0,428.0,584.0,1.0,0,2738.0,0
38,38,0.13768776141749262,0.1,0.0,0.0,327.0,793.0,1.0,0,230.0,0
39,39,-0.7067554519792139,-0.7,1.0,0.0,267.0,731.0,0.0,0,812.0,1
40,40,0.8722016653735637,0.9,0.0,0.0,288.0,736.0,0.0,1,466.0,1
41,41,0.682807154241397,0.7,1.0,1.0,320.0,505.0,1.0,1,505.0,1
42,42,-0.6565368944561265,-0.7,0.0,1.0,342.0,808.0,1.0,0,320.0,1
43,43,-0.1758070809782869,-0.2,1.0,0.0,276.0,991.0,1.0,1,3733.0,0
44,44,0.34026244647620685,0.3,1.0,1.0,282.0,796.0,1.0,1,382.0,1
45,45,0.8772289475422347,0.9,1.0,1.0,362.0,637.0,1.0,1,-159.0,1
46,46,-0.6697909180132021,-0.7,1.0,0.0,349.0,696.0,0.0,0,925.0,1
47,47,0.8122517306895986,0.8,1.0,1.0,497.0,907.0,1.0,1,226.0,1
48,48,0.06719488065410717,0.1,1.0,1.0,459.0,616.0,1.0,1,-445.0,1
49,49,0.6804440185527988,0.7,1.0,1.0,403.0,916.0,1.0,1,251.0,1
50,50,-0.27258507182830194,-0.3,0.0,1.0,400.0,998.0,1.0,0,172.0,1
51,51,0.7415198686440206,0.7,0.0,0.0,490.0,760.0,0.0,1,220.0,1
52,52,0.6677641437590515,0.7,1.0,1.0,362.0,528.0,1.0,1,350.0,1
53,53,0.45861692697418655,0.5,0.0,0.0,336.0,648.0,0.0,1,766.0,1
54,54,0.4358300430272749,0.4,1.0,1.0,384.0,867.0,1.0,1,429.0,1
55,55,-0.1562935975574542,-0.2,1.0,0.0,372.0,741.0,0.0,0,3887.0,1
56,56,0.048510231480375365,0.0,0.0,0.0,424.0,526.0,1.0,0,4050.0,0
57,57,-0.7113376826354374,-0.7,1.0,0.0,289.0,958.0,0.0,0,1453.0,1
58,58,-0.19191846101845766,-0.2,0.0,1.0,278.0,635.0,1.0,0,2877.0,1
59,59,0.20113105425578748,0.2,1.0,1.0,397.0,742.0,1.0,1,461.0,1
60,60,0.7387986782001311,0.7,0.0,0.0,441.0,699.0,0.0,1,610.0,1
61,61,0.41979023937956506,0.4,1.0,1.0,402.0,687.0,1.0,1,211.0,1
62,62,0.0037085544153009353,0.0,1.0,1.0,436.0,975.0,1.0,1,2039.0,1
63,63,-0.5146677302315944,-0.5,1.0,0.0,481.0,786.0,0.0,0,1193.0,1
64,64,0.5876155936961912,0.6,1.0,1.0,358.0,820.0,1.0,1,262.0,1
65,65,0.29497963251439685,0.3,1.0,1.0,436.0,840.0,1.0,1,1244.0,1
66,66,-0.7670883007991164,-0.8,1.0,0.0,275.0,962.0,0.0,0,593.0,1
67,67,0.6672146893393262,0.7,1.0,1.0,295.0,977.0,1.0,1,298.0,1
68,68,-0.4569329266450178,-0.5,0.0,1.0,300.0,745.0,1.0,0,-55.0,1
69,69,-0.6318546961718756,-0.6,0.0,1.0,289.0,549.0,1.0,0,102.0,1
70,70,0.3435708906383498,0.3,1.0,1.0,341.0,950.0,1.0,1,379.0,1
71,71,0.09277671549997657,0.1,1.0,1.0,341.0,641.0,1.0,1,1078.0,1
72,72,-0.26018407410851263,-0.3,0.0,1.0,482.0,736.0,1.0,0,-248.0,1
73,73,-0.4004204440907917,-0.4,0.0,1.0,463.0,735.0,1.0,0,222.0,1
74,74,0.24760743556854192,0.2,1.0,1.0,435.0,960.0,1.0,1,1005.0,1
75,75,-0.32367547294190835,-0.3,0.0,1.0,436.0,809.0,1.0,0,1035.0,1
76,76,0.21564283060709555,0.2,1.0,1.0,420.0,836.0,1.0,1,294.0,1
77,77,0.6754985911966039,0.7,1.0,1.0,373.0,632.0,1.0,1,195.0,1
78,78,0.4197385187665986,0.4,0.0,0.0,416.0,893.0,0.0,1,1131.0,1
79,79,0.7835407431027331,0.8,0.0,0.0,394.0,917.0,0.0,1,259.0,1
80,80,-0.4087451476273701,-0.4,0.0,1.0,465.0,692.0,1.0,0,83.0,1
81,81,0.037454647557154885,0.0,0.0,0.0,460.0,651.0,1.0,0,1519.0,0
82,82,0.5655164120195203,0.6,1.0,1.0,380.0,849.0,1.0,1,251.0,1
83,83,0.12401841830605231,0.1,1.0,1.0,417.0,581.0,1.0,1,562.0,1
84,84,-0.27553334058063517,-0.3,0.0,1.0,313.0,918.0,1.0,0,539.0,1
85,85,-0.4808360626215827,-0.5,1.0,0.0,257.0,895.0,0.0,0,1418.0,1
86,86,0.8764989418684334,0.9,0.0,0.0,485.0,611.0,0.0,1,524.0,1
87,87,-0.5107263434393925,-0.5,0.0,1.0,469.0,722.0,1.0,0,629.0,1
88,88,-0.843102004353974,-0.8,0.0,1.0,394.0,903.0,1.0,0,783.0,1
89,89,0.3803598509913416,0.4,1.0,1.0,487.0,918.0,1.0,1,155.0,1
90,90,-0.20269788088755492,-0.2,1.0,0.0,291.0,834.0,0.0,0,3875.0,1
91,91,0.5191294884133849,0.5,1.0,1.0,433.0,873.0,1.0,1,484.0,1
92,92,-0.24716389009112727,-0.2,1.0,0.0,305.0,677.0,1.0,1,4018.0,0
93,93,-0.10922347446082792,-0.1,0.0,1.0,391.0,732.0,1.0,0,767.0,1
94,94,0.8928737309463112,0.9,1.0,1.0,458.0,842.0,1.0,1,370.0,1
95,95,0.3502843843953526,0.4,0.0,0.0,305.0,919.0,0.0,1,1176.0,1
96,96,0.6955538831610327,0.7,0.0,0.0,288.0,716.0,0.0,1,436.0,1
97,97,-0.7347452823704548,-0.7,0.0,1.0,444.0,753.0,1.0,0,173.0,1
98,98,-0.6686219712651776,-0.7,1.0,0.0,348.0,936.0,1.0,1,-324.0,0
99,99,0.7366572087134363,0.7,0.0,0.0,265.0,725.0,0.0,1,300.0,1
100,100,0.4340182879594684,0.4,1.0,1.0,487.0,767.0,1.0,1,586.0,1
101,101,0.8954333613212718,0.9,0.0,0.0,281.0,568.0,0.0,1,211.0,1
102,102,0.39787525140725843,0.4,0.0,0.0,484.0,907.0,0.0,1,1309.0,1
103,103,0.1343434383751959,0.1,1.0,1.0,259.0,950.0,1.0,1,861.0,1
104,104,0.33436222705562557,0.3,1.0,1.0,270.0,514.0,1.0,1,196.0,1
105,105,0.21193644647961618,0.2,0.0,0.0,281.0,783.0,0.0,1,1986.0,1
106,106,0.12546102489447597,0.1,0.0,0.0,345.0,766.0,1.0,0,3029.0,0
107,107,0.7163411110282513,0.7,0.0,0.0,359.0,560.0,0.0,1,131.0,1
108,108,0.16906854712188613,0.2,1.0,1.0,363.0,584.0,1.0,1,703.0,1
109,109,-0.07103499424292892,-0.1,0.0,1.0,414.0,675.0,1.0,0,1001.0,1
110,110,0.41653447511877995,0.4,1.0,1.0,272.0,744.0,1.0,1,-16.0,1
111,111,-0.7038989055855922,-0.7,1.0,0.0,370.0,842.0,0.0,0,648.0,1
112,112,0.26414026560094006,0.3,1.0,1.0,435.0,736.0,1.0,1,359.0,1
113,113,-0.48842145971955037,-0.5,0.0,1.0,298.0,616.0,1.0,0,386.0,1
114,114,0.5918036505734191,0.6,0.0,0.0,305.0,624.0,0.0,1,671.0,1
115,115,0.3201218072723221,0.3,0.0,0.0,308.0,992.0,0.0,1,1110.0,1
116,116,0.6155563802583831,0.6,0.0,0.0,473.0,775.0,0.0,1,892.0,1
117,117,-0.21873732235322485,-0.2,0.0,1.0,339.0,778.0,1.0,0,523.0,1
118,118,-0.23497833318277994,-0.2,1.0,0.0,348.0,594.0,0.0,0,3548.0,1
119,119,0.47357436339552683,0.5,0.0,0.0,380.0,959.0,0.0,1,281.0,1
120,120,0.7063414153589153,0.7,0.0,0.0,490.0,995.0,0.0,1,355.0,1
121,121,0.7491147366917837,0.7,1.0,1.0,307.0,947.0,1.0,1,206.0,1
122,122,0.8116153130726173,0.8,1.0,1.0,464.0,855.0,1.0,1,651.0,1
123,123,-0.5018193077914175,-0.5,1.0,0.0,393.0,830.0,0.0,0,1607.0,1
124,124,-0.10659592140682295,-0.1,0.0,1.0,387.0,512.0,1.0,0,231.0,1
125,125,-0.7669306783852937,-0.8,1.0,0.0,364.0,713.0,0.0,0,363.0,1
126,126,-0.014428720511647564,-0.0,0.0,1.0,277.0,865.0,1.0,0,3858.0,1
127,127,-0.6858601395543693,-0.7,1.0,0.0,438.0,721.0,0.0,0,921.0,1
128,128,0.430532858138697,0.4,0.0,0.0,315.0,640.0,0.0,1,1315.0,1
129,129,0.29806391539786514,0.3,0.0,0.0,459.0,882.0,0.0,1,1779.0,1
130,130,0.4755141618220756,0.5,1.0,1.0,354.0,714.0,1.0,1,232.0,1
131,131,-0.7761235195220002,-0.8,0.0,1.0,286.0,763.0,1.0,0,181.0,1
132,132,-0.08101918148513176,-0.1,1.0,0.0,487.0,720.0,0.0,0,3063.0,1
133,133,0.02278269477035999,0.0,0.0,0.0,304.0,975.0,0.0,1,581.0,1
134,134,-0.2786112099199134,-0.3,0.0,1.0,484.0,568.0,1.0,0,608.0,1
135,135,0.8238389364505175,0.8,0.0,0.0,335.0,817.0,0.0,1,318.0,1
136,136,-0.5288696846964323,-0.5,1.0,0.0,403.0,784.0,0.0,0,273.0,1
137,137,-0.7006758174962413,-0.7,1.0,0.0,263.0,887.0,0.0,0,1040.0,1
138,138,0.8522947495449539,0.9,1.0,1.0,300.0,629.0,1.0,1,71.0,1
139,139,-0.6747251876142057,-0.7,0.0,1.0,402.0,592.0,1.0,0,326.0,1
140,140,0.8684194104293465,0.9,0.0,0.0,306.0,615.0,0.0,1,499.0,1
141,141,0.06364087625895021,0.1,0.0,0.0,420.0,648.0,1.0,0,-118.0,0
142,142,-0.5159464695288689,-0.5,1.0,0.0,461.0,849.0,0.0,0,1120.0,1
143,143,-0.05805372352673899,-0.1,1.0,0.0,274.0,988.0,1.0,1,3598.0,0
144,144,-0.5730568493425976,-0.6,0.0,1.0,256.0,817.0,1.0,0,647.0,1
145,145,0.7727914883819454,0.8,1.0,1.0,372.0,741.0,1.0,1,147.0,1
146,146,0.8792409059585974,0.9,0.0,0.0,427.0,518.0,0.0,1,525.0,1
147,147,0.04418910477331939,0.0,0.0,0.0,393.0,540.0,1.0,0,1017.0,0
148,148,-0.6091073010666548,-0.6,0.0,1.0,288.0,870.0,1.0,0,362.0,1
149,149,-0.6186348804792994,-0.6,0.0,1.0,351.0,778.0,1.0,0,21.0,1
150,150,-0.1099396626323288,-0.1,1.0,0.0,393.0,562.0,0.0,0,4045.0,1
151,151,0.817712441162756,0.8,0.0,0.0,392.0,685.0,0.0,1,823.0,1
152,152,-0.7331099922631894,-0.7,0.0,1.0,467.0,929.0,1.0,0,-386.0,1
153,153,0.6684741281617393,0.7,0.0,0.0,405.0,927.0,1.0,0,-362.0,0
154,154,-0.8075589971809609,-0.8,1.0,0.0,365.0,562.0,0.0,0,1523.0,1
155,155,-0.5221349150672687,-0.5,0.0,1.0,383.0,544.0,1.0,0,123.0,1
156,156,0.41344476189637536,0.4,0.0,0.0,484.0,653.0,0.0,1,373.0,1
157,157,-0.3413879634936835,-0.3,1.0,0.0,479.0,686.0,0.0,0,2135.0,1
158,158,-0.7534265815398649,-0.8,1.0,0.0,283.0,981.0,0.0,0,1576.0,1
159,159,-0.42845406996739743,-0.4,1.0,0.0,392.0,568.0,0.0,0,2920.0,1
160,160,0.682232090167349,0.7,0.0,0.0,347.0,771.0,0.0,1,252.0,1
161,161,0.6937534314944346,0.7,0.0,0.0,306.0,951.0,0.0,1,483.0,1
162,162,0.6282358712630908,0.6,1.0,1.0,407.0,944.0,1.0,1,-181.0,1
163,163,-0.5384258881540802,-0.5,0.0,1.0,413.0,898.0,1.0,0,549.0,1
164,164,0.801838256818289,0.8,1.0,1.0,370.0,976.0,1.0,1,-116.0,1
165,165,-0.8297046730128393,-0.8,0.0,1.0,272.0,574.0,1.0,0,514.0,1
166,166,-0.08501322788630905,-0.1,1.0,0.0,370.0,574.0,1.0,1,2086.0,0
167,167,-0.4170846190069581,-0.4,0.0,1.0,405.0,863.0,1.0,0,-318.0,1
168,168,0.3367192509063389,0.3,0.0,0.0,477.0,987.0,0.0,1,656.0,1
169,169,-0.0839275458833848,-0.1,1.0,0.0,287.0,501.0,1.0,1,852.0,0
170,170,0.8255686388213023,0.8,1.0,1.0,252.0,996.0,1.0,1,622.0,1
171,171,0.596121206034833,0.6,0.0,0.0,259.0,580.0,0.0,1,381.0,1
172,172,-0.5521305366627355,-0.6,0.0,1.0,347.0,545.0,1.0,0,928.0,1
173,173,-0.7670662978091509,-0.8,0.0,1.0,486.0,605.0,1.0,0,499.0,1
174,174,-0.5018942775990545,-0.5,1.0,0.0,341.0,500.0,0.0,0,1299.0,1
175,175,0.6723699010182357,0.7,0.0,0.0,447.0,910.0,0.0,1,383.0,1
176,176,-0.27581371573013935,-0.3,0.0,1.0,495.0,800.0,1.0,0,785.0,1
177,177,-0.8336865959862844,-0.8,0.0,1.0,455.0,828.0,1.0,0,117.0,1
178,178,0.4141772333324153,0.4,1.0,1.0,435.0,503.0,1.0,1,642.0,1
179,179,0.22807172788076502,0.2,1.0,1.0,331.0,559.0,1.0,1,1760.0,1
180,180,0.24552951868189743,0.2,1.0,1.0,318.0,749.0,1.0,1,123.0,1
181,181,0.249134812045129,0.2,0.0,0.0,472.0,943.0,0.0,1,2235.0,1
182,182,0.13428107390962174,0.1,1.0,1.0,364.0,549.0,1.0,1,1157.0,1
183,183,0.16587303597496195,0.2,1.0,1.0,305.0,947.0,1.0,1,388.0,1
184,184,-0.8963047172624239,-0.9,1.0,0.0,479.0,580.0,0.0,0,1041.0,1
185,185,0.36016901692147896,0.4,1.0,1.0,397.0,603.0,1.0,1,320.0,1
186,186,0.10449191714051287,0.1,1.0,1.0,298.0,908.0,1.0,1,-56.0,1
187,187,0.7652490892342615,0.8,0.0,0.0,430.0,649.0,0.0,1,131.0,1
188,188,-0.5648130606328333,-0.6,1.0,0.0,483.0,505.0,0.0,0,482.0,1
189,189,0.29237083135003983,0.3,1.0,1.0,363.0,916.0,1.0,1,561.0,1
190,190,-0.5253210164658939,-0.5,0.0,1.0,365.0,514.0,1.0,0,191.0,1
191,191,0.42805469459524026,0.4,0.0,0.0,431.0,788.0,0.0,1,411.0,1
192,192,-0.2662393922791877,-0.3,1.0,0.0,268.0,560.0,0.0,0,4162.0,1
193,193,0.5421205487439645,0.5,1.0,1.0,497.0,832.0,1.0,1,641.0,1
194,194,0.2447786036428411,0.2,1.0,1.0,490.0,982.0,1.0,1,778.0,1
195,195,-0.5024666777817333,-0.5,0.0,1.0,339.0,821.0,1.0,0,310.0,1
196,196,0.5729162414321177,0.6,0.0,0.0,269.0,570.0,0.0,1,261.0,1
197,197,-0.6619133281408747,-0.7,1.0,0.0,374.0,760.0,0.0,0,486.0,1
198,198,0.5775458595613053,0.6,1.0,1.0,350.0,510.0,1.0,1,310.0,1
199,199,0.0994976821291067,0.1,0.0,0.0,304.0,717.0,1.0,0,3979.0,0
200,200,-0.5598799228402986,-0.6,0.0,1.0,323.0,520.0,1.0,0,237.0,1
201,201,-0.40685905985634746,-0.4,1.0,0.0,430.0,983.0,1.0,1,-33.0,0
202,202,-0.14734467376487037,-0.1,1.0,0.0,486.0,825.0,0.0,0,3549.0,1
203,203,0.33132368985968463,0.3,0.0,0.0,294.0,736.0,0.0,1,550.0,1
204,204,0.2315875453979782,0.2,0.0,0.0,361.0,582.0,0.0,1,707.0,1
205,205,-0.8081445733158893,-0.8,1.0,0.0,473.0,764.0,0.0,0,1123.0,1
206,206,-0.24676876282405202,-0.2,0.0,1.0,473.0,742.0,1.0,0,385.0,1
207,207,0.7440387673421088,0.7,1.0,1.0,411.0,743.0,1.0,1,206.0,1
208,208,-0.7601384845369255,-0.8,1.0,0.0,304.0,912.0,0.0,0,564.0,1
209,209,0.5644322772333631,0.6,0.0,0.0,317.0,624.0,0.0,1,1359.0,1
210,210,0.5143935846406077,0.5,0.0,0.0,434.0,946.0,1.0,0,-260.0,0
211,211,0.20936026874985558,0.2,0.0,0.0,359.0,854.0,1.0,0,7.0,0
212,212,-0.7120093973221104,-0.7,1.0,0.0,255.0,554.0,0.0,0,491.0,1
213,213,-0.10808769609776347,-0.1,0.0,1.0,299.0,642.0,1.0,0,2489.0,1
214,214,-0.21632014364050633,-0.2,0.0,1.0,480.0,560.0,1.0,0,1030.0,1
215,215,0.4559789669929447,0.5,0.0,0.0,371.0,942.0,0.0,1,587.0,1
216,216,0.7117750050313522,0.7,1.0,1.0,461.0,742.0,1.0,1,247.0,1
217,217,0.2913812779025736,0.3,1.0,1.0,279.0,578.0,1.0,1,543.0,1
218,218,0.12255593702801171,0.1,0.0,0.0,488.0,978.0,0.0,1,2584.0,1
219,219,-0.6591512641221061,-0.7,1.0,0.0,289.0,575.0,0.0,0,966.0,1
220,220,0.5454426236678912,0.5,1.0,1.0,406.0,590.0,1.0,1,514.0,1
221,221,-0.3203434910129028,-0.3,1.0,0.0,334.0,507.0,0.0,0,4159.0,1
222,222,-0.3299198723466582,-0.3,0.0,1.0,402.0,548.0,1.0,0,430.0,1
223,223,-0.12179788183558649,-0.1,0.0,1.0,421.0,892.0,1.0,0,77.0,1
224,224,0.4739631216456529,0.5,0.0,0.0,334.0,716.0,0.0,1,80.0,1
225,225,-0.0490982728927537,-0.0,0.0,1.0,260.0,577.0,1.0,0,953.0,1
226,226,-0.6722947075009647,-0.7,1.0,0.0,489.0,656.0,1.0,1,-175.0,0
227,227,0.5661928404920135,0.6,0.0,0.0,355.0,659.0,0.0,1,496.0,1
228,228,0.013413957997026271,0.0,0.0,0.0,449.0,594.0,1.0,0,1857.0,0
229,229,-0.15407808109268561,-0.2,1.0,0.0,398.0,651.0,0.0,0,3951.0,1
230,230,-0.3411753859723058,-0.3,1.0,0.0,269.0,560.0,0.0,0,2081.0,1
231,231,0.38220189895942325,0.4,1.0,1.0,330.0,926.0,1.0,1,654.0,1
232,232,-0.7805617197371744,-0.8,1.0,0.0,338.0,665.0,0.0,0,587.0,1
233,233,0.8958029783561273,0.9,0.0,0.0,277.0,937.0,0.0,1,166.0,1
234,234,-0.1928155086194565,-0.2,0.0,1.0,425.0,817.0,1.0,0,698.0,1
235,235,-0.3261008087093543,-0.3,0.0,1.0,342.0,870.0,1.0,0,938.0,1
236,236,0.6287291531957094,0.6,0.0,0.0,498.0,774.0,0.0,1,538.0,1
237,237,-0.301800608640869,-0.3,1.0,0.0,474.0,711.0,0.0,0,1965.0,1
238,238,-0.126322564720728,-0.1,1.0,0.0,439.0,827.0,1.0,1,614.0,0
239,239,-0.009444363930261268,-0.0,0.0,1.0,375.0,816.0,1.0,0,-101.0,1
240,240,0.06728809765785515,0.1,0.0,0.0,448.0,956.0,1.0,0,-574.0,0
241,241,0.45985112514267834,0.5,0.0,0.0,396.0,820.0,1.0,0,-476.0,0
242,242,0.01337748965273211,0.0,1.0,1.0,315.0,542.0,1.0,1,973.0,1
243,243,0.37095679757446287,0.4,0.0,0.0,343.0,882.0,0.0,1,565.0,1
244,244,0.5010058243817858,0.5,1.0,1.0,377.0,688.0,1.0,1,325.0,1
245,245,0.5328242240584343,0.5,0.0,0.0,407.0,781.0,0.0,1,712.0,1
246,246,-0.8095751276125341,-0.8,1.0,0.0,378.0,875.0,0.0,0,397.0,1
247,247,-0.5921527793976928,-0.6,1.0,0.0,386.0,513.0,0.0,0,1261.0,1
248,248,-0.1602986898535711,-0.2,0.0,1.0,466.0,626.0,1.0,0,-2.0,1
249,249,0.017327256584446116,0.0,1.0,1.0,268.0,981.0,1.0,1,1891.0,1
250,250,0.09396526263142424,0.1,1.0,1.0,417.0,584.0,1.0,1,-111.0,1
251,251,-0.22213798313877986,-0.2,0.0,1.0,262.0,998.0,1.0,0,1000.0,1
252,252,0.5320356223531338,0.5,1.0,1.0,447.0,586.0,1.0,1,617.0,1
253,253,-0.29547644372521564,-0.3,1.0,0.0,429.0,985.0,0.0,0,3196.0,1
254,254,0.030148513129194643,0.0,1.0,1.0,250.0,786.0,1.0,1,964.0,1
255,255,-0.6765860052486338,-0.7,1.0,0.0,352.0,681.0,0.0,0,667.0,1
256,256,0.6668546043136566,0.7,1.0,1.0,274.0,686.0,1.0,1,90.0,1
257,257,0.040133944241245945,0.0,1.0,1.0,445.0,956.0,1.0,1,-421.0,1
258,258,0.7339572277333221,0.7,1.0,1.0,413.0,809.0,1.0,1,608.0,1
259,259,0.8381129851010033,0.8,1.0,1.0,361.0,594.0,1.0,1,1005.0,1
260,260,-0.5377857217429083,-0.5,1.0,0.0,325.0,538.0,0.0,0,1047.0,1
261,261,0.7855847107685142,0.8,1.0,1.0,298.0,796.0,1.0,1,356.0,1
262,262,0.33495246060104933,0.3,0.0,0.0,479.0,979.0,0.0,1,842.0,1
263,263,0.8855680618586038,0.9,0.0,0.0,417.0,852.0,0.0,1,221.0,1
264,264,-0.23064979130771657,-0.2,0.0,1.0,321.0,892.0,1.0,0,247.0,1
265,265,0.02780010609873551,0.0,1.0,1.0,431.0,556.0,1.0,1,1023.0,1
266,266,-0.810801495367295,-0.8,1.0,0.0,448.0,889.0,0.0,0,583.0,1
267,267,-0.6033460257303125,-0.6,0.0,1.0,448.0,914.0,1.0,0,328.0,1
268,268,-0.37313795191061394,-0.4,1.0,0.0,336.0,681.0,0.0,0,2283.0,1
269,269,0.6351608247736099,0.6,0.0,0.0,287.0,685.0,0.0,1,908.0,1
270,270,-0.09096284469748217,-0.1,1.0,0.0,377.0,599.0,0.0,0,4024.0,1
271,271,0.027542914728648227,0.0,1.0,1.0,333.0,584.0,1.0,1,83.0,1
272,272,0.2584482240641294,0.3,0.0,0.0,336.0,764.0,0.0,1,1170.0,1
273,273,0.6725202361004813,0.7,0.0,0.0,422.0,644.0,0.0,1,444.0,1
274,274,-0.07863425933798063,-0.1,1.0,0.0,361.0,512.0,0.0,0,4127.0,1
275,275,-0.38745028351366384,-0.4,0.0,1.0,458.0,930.0,1.0,0,372.0,1
276,276,0.44973545975323115,0.4,1.0,1.0,405.0,738.0,1.0,1,297.0,1
277,277,-0.3602775931791553,-0.4,0.0,1.0,487.0,856.0,1.0,0,657.0,1
278,278,0.09399427327154242,0.1,1.0,1.0,308.0,664.0,1.0,1,518.0,1
279,279,0.793305324725086,0.8,0.0,0.0,435.0,737.0,0.0,1,548.0,1
280,280,-0.6636688682426649,-0.7,1.0,0.0,406.0,622.0,0.0,0,862.0,1
281,281,0.7163250964538131,0.7,0.0,0.0,451.0,864.0,0.0,1,365.0,1
282,282,-0.4583336516409836,-0.5,1.0,0.0,389.0,513.0,0.0,0,1208.0,1
283,283,0.4770105937102268,0.5,0.0,0.0,268.0,567.0,0.0,1,485.0,1
284,284,0.8892497094562847,0.9,1.0,1.0,301.0,662.0,1.0,1,217.0,1
285,285,-0.7505760509577104,-0.8,0.0,1.0,469.0,822.0,1.0,0,-341.0,1
286,286,0.7186603991493853,0.7,0.0,0.0,343.0,892.0,0.0,1,155.0,1
287,287,-0.36839585492945637,-0.4,1.0,0.0,382.0,604.0,0.0,0,1294.0,1
288,288,-0.7112477453796353,-0.7,0.0,1.0,494.0,972.0,1.0,0,-46.0,1
289,289,0.4313409729867289,0.4,0.0,0.0,319.0,815.0,0.0,1,826.0,1
290,290,0.3731366544318929,0.4,1.0,1.0,289.0,709.0,1.0,1,412.0,1
291,291,0.7746612000575196,0.8,0.0,0.0,387.0,969.0,0.0,1,224.0,1
292,292,0.09631561106975972,0.1,0.0,0.0,468.0,582.0,1.0,0,3950.0,0
293,293,0.4266762154287834,0.4,0.0,0.0,433.0,748.0,0.0,1,499.0,1
294,294,0.0536482660672809,0.1,1.0,1.0,384.0,618.0,1.0,1,1878.0,1
295,295,-0.35556888598466607,-0.4,1.0,0.0,273.0,720.0,0.0,0,3257.0,1
296,296,0.5407634162859146,0.5,0.0,0.0,447.0,542.0,0.0,1,1741.0,1
297,297,-0.7293381319969974,-0.7,0.0,1.0,401.0,879.0,1.0,0,120.0,1
298,298,-0.6755273444081944,-0.7,1.0,0.0,374.0,500.0,0.0,0,1256.0,1
299,299,-0.1571433843454464,-0.2,0.0,1.0,263.0,534.0,1.0,0,473.0,1
300,300,-0.6517464873806262,-0.7,1.0,0.0,419.0,990.0,0.0,0,421.0,1
301,301,-0.15637374631890932,-0.2,1.0,0.0,462.0,939.0,1.0,1,3599.0,0
302,302,0.13216495717048204,0.1,1.0,1.0,382.0,626.0,1.0,1,322.0,1
303,303,-0.43352557385865237,-0.4,1.0,0.0,493.0,912.0,0.0,0,1375.0,1
304,304,0.6842658652368968,0.7,0.0,0.0,382.0,864.0,0.0,1,384.0,1
305,305,0.500891079709522,0.5,0.0,0.0,293.0,653.0,0.0,1,344.0,1
306,306,0.3650091229353919,0.4,1.0,1.0,280.0,543.0,1.0,1,337.0,1
307,307,-0.6660280491461785,-0.7,1.0,0.0,436.0,702.0,0.0,0,312.0,1
308,308,-0.7929757955015,-0.8,1.0,0.0,264.0,591.0,0.0,0,345.0,1
309,309,-0.5890783982454229,-0.6,0.0,1.0,314.0,528.0,1.0,0,588.0,1
310,310,-0.48708174533660414,-0.5,1.0,0.0,287.0,794.0,0.0,0,599.0,1
311,311,0.8112600490371088,0.8,0.0,0.0,400.0,514.0,0.0,1,706.0,1
312,312,-0.4688505414170476,-0.5,1.0,0.0,367.0,678.0,0.0,0,1305.0,1
313,313,0.600824549402189,0.6,0.0,0.0,325.0,843.0,0.0,1,602.0,1
314,314,0.41079596958001396,0.4,1.0,1.0,496.0,800.0,1.0,1,694.0,1
315,315,-0.43914739738214065,-0.4,1.0,0.0,408.0,598.0,0.0,0,3874.0,1
316,316,0.31528790873020796,0.3,0.0,0.0,287.0,715.0,0.0,1,848.0,1
317,317,0.4404909546362329,0.4,1.0,1.0,355.0,779.0,1.0,1,-114.0,1
318,318,-0.49525237843448605,-0.5,1.0,0.0,419.0,862.0,0.0,0,539.0,1
319,319,-0.28653500636914586,-0.3,0.0,1.0,490.0,500.0,1.0,0,410.0,1
320,320,-0.25742897816558996,-0.3,0.0,1.0,349.0,917.0,1.0,0,84.0,1
321,321,-0.4774202959517257,-0.5,0.0,1.0,395.0,723.0,1.0,0,-218.0,1
322,322,-0.7472749794226544,-0.7,0.0,1.0,467.0,833.0,1.0,0,510.0,1
323,323,-0.5933687405284216,-0.6,0.0,1.0,362.0,748.0,1.0,0,170.0,1
324,324,-0.14673802235225852,-0.1,0.0,1.0,272.0,949.0,1.0,0,719.0,1
325,325,-0.5414315108757594,-0.5,0.0,1.0,456.0,947.0,1.0,0,997.0,1
326,326,0.2656494403095421,0.3,0.0,0.0,363.0,698.0,0.0,1,-231.0,1
327,327,-0.35336779047544875,-0.4,0.0,1.0,329.0,532.0,1.0,0,159.0,1
328,328,-0.8564786387595258,-0.9,1.0,0.0,251.0,770.0,1.0,1,-41.0,0
329,329,0.01799802295573616,0.0,1.0,1.0,325.0,918.0,1.0,1,-583.0,1
330,330,0.4307463896694884,0.4,0.0,0.0,352.0,995.0,0.0,1,673.0,1
331,331,0.2903499374223447,0.3,1.0,1.0,350.0,988.0,1.0,1,212.0,1
332,332,-0.5677045940239687,-0.6,0.0,1.0,350.0,521.0,1.0,0,469.0,1
333,333,0.35819718218284125,0.4,0.0,0.0,316.0,792.0,0.0,1,842.0,1
334,334,0.5466993010772828,0.5,1.0,1.0,346.0,889.0,1.0,1,305.0,1
335,335,0.36126830888060824,0.4,0.0,0.0,291.0,603.0,0.0,1,2306.0,1
336,336,-0.7051601605646219,-0.7,0.0,1.0,342.0,787.0,0.0,1,-579.0,0
337,337,-0.7643217388642256,-0.8,0.0,1.0,388.0,697.0,1.0,0,625.0,1
338,338,-0.22262016478800506,-0.2,1.0,0.0,392.0,637.0,0.0,0,3971.0,1
339,339,0.28705016327733757,0.3,0.0,0.0,392.0,638.0,0.0,1,1230.0,1
340,340,-0.038522974750923145,-0.0,1.0,0.0,255.0,590.0,1.0,1,345.0,0
341,341,-0.019853941384757157,-0.0,1.0,0.0,268.0,917.0,1.0,1,835.0,0
342,342,-0.3055437766688075,-0.3,1.0,0.0,335.0,747.0,0.0,0,1638.0,1
343,343,0.847764057041342,0.8,1.0,1.0,267.0,580.0,1.0,1,213.0,1
344,344,-0.26734798797880877,-0.3,0.0,1.0,465.0,642.0,1.0,0,503.0,1
345,345,-0.10114876812094342,-0.1,1.0,0.0,468.0,944.0,1.0,1,3588.0,0
346,346,0.8420685303312528,0.8,1.0,1.0,436.0,770.0,1.0,1,284.0,1
347,347,-0.38833399947660274,-0.4,1.0,0.0,252.0,606.0,0.0,0,2482.0,1
348,348,0.14095007276885585,0.1,1.0,1.0,479.0,711.0,1.0,1,890.0,1
349,349,0.7996957266098516,0.8,1.0,1.0,438.0,973.0,1.0,1,859.0,1
350,350,-0.814754501616756,-0.8,0.0,1.0,408.0,634.0,1.0,0,548.0,1
351,351,0.888048490739683,0.9,1.0,1.0,392.0,730.0,1.0,1,418.0,1
352,352,0.15387166513226103,0.2,0.0,0.0,456.0,757.0,1.0,0,3567.0,0
353,353,-0.10648812305809208,-0.1,0.0,1.0,259.0,822.0,1.0,0,3919.0,1
354,354,-0.3648787487161126,-0.4,1.0,0.0,416.0,794.0,0.0,0,1200.0,1
355,355,-0.8620769726234244,-0.9,0.0,1.0,295.0,779.0,1.0,0,-354.0,1
356,356,-0.2936765100788322,-0.3,0.0,1.0,435.0,696.0,1.0,0,339.0,1
357,357,0.6065291799943185,0.6,0.0,0.0,425.0,824.0,0.0,1,521.0,1
358,358,0.6148965535952576,0.6,1.0,1.0,281.0,955.0,1.0,1,84.0,1
359,359,-0.1647137598272832,-0.2,1.0,0.0,421.0,936.0,1.0,1,2073.0,0
360,360,-0.2250639248946983,-0.2,0.0,1.0,419.0,932.0,1.0,0,299.0,1
361,361,-0.10415450826935613,-0.1,0.0,1.0,429.0,621.0,1.0,0,1040.0,1
362,362,0.6479245793338319,0.6,0.0,0.0,415.0,604.0,0.0,1,401.0,1
363,363,-0.40725636884988,-0.4,0.0,1.0,475.0,903.0,1.0,0,472.0,1
364,364,-0.2654372226515036,-0.3,1.0,0.0,455.0,724.0,0.0,0,301.0,1
365,365,0.5832771248368768,0.6,1.0,1.0,417.0,914.0,1.0,1,509.0,1
366,366,0.6524779333609657,0.7,1.0,1.0,320.0,628.0,1.0,1,112.0,1
367,367,-0.3693732006703879,-0.4,0.0,1.0,363.0,855.0,1.0,0,22.0,1
368,368,0.49631077855058126,0.5,1.0,1.0,480.0,793.0,1.0,1,647.0,1
369,369,-0.11452905009104497,-0.1,0.0,1.0,478.0,747.0,1.0,0,1095.0,1
370,370,-0.28139851771370605,-0.3,1.0,0.0,452.0,766.0,0.0,0,3782.0,1
371,371,0.5695166479431183,0.6,0.0,0.0,438.0,904.0,0.0,1,458.0,1
372,372,-0.3646623091594523,-0.4,1.0,0.0,332.0,611.0,0.0,0,987.0,1
373,373,0.29702489008188226,0.3,1.0,1.0,301.0,553.0,1.0,1,876.0,1
374,374,0.2786694783611158,0.3,0.0,0.0,420.0,910.0,0.0,1,2330.0,1
375,375,-0.16865620602260012,-0.2,1.0,0.0,288.0,788.0,1.0,1,-136.0,0
376,376,0.25445001217155483,0.3,0.0,0.0,486.0,550.0,0.0,1,894.0,1
377,377,0.21232516403561108,0.2,1.0,1.0,408.0,721.0,1.0,1,-39.0,1
378,378,0.3884669353371114,0.4,1.0,1.0,486.0,618.0,1.0,1,276.0,1
379,379,-0.5112709542885483,-0.5,0.0,1.0,438.0,894.0,1.0,0,-302.0,1
380,380,-0.7907904849835805,-0.8,0.0,1.0,441.0,871.0,1.0,0,-232.0,1
381,381,0.880133427620238,0.9,1.0,1.0,267.0,956.0,1.0,1,167.0,1
382,382,0.40557051974055536,0.4,1.0,1.0,394.0,576.0,1.0,1,90.0,1
383,383,-0.263780902843726,-0.3,0.0,1.0,372.0,572.0,1.0,0,356.0,1
384,384,0.37500234375606933,0.4,1.0,1.0,431.0,793.0,1.0,1,506.0,1
385,385,-0.46319404737170866,-0.5,0.0,1.0,436.0,994.0,1.0,0,220.0,1
386,386,0.666895408986908,0.7,0.0,0.0,291.0,846.0,0.0,1,573.0,1
387,387,0.012141101608988403,0.0,1.0,1.0,288.0,635.0,1.0,1,1417.0,1
388,388,0.14029182474162505,0.1,0.0,0.0,303.0,828.0,0.0,1,2759.0,1
389,389,0.38744491655297486,0.4,1.0,1.0,369.0,778.0,1.0,1,303.0,1
390,390,0.35811387616879686,0.4,1.0,1.0,325.0,766.0,1.0,1,159.0,1
391,391,0.5601250608615901,0.6,1.0,1.0,296.0,637.0,1.0,1,-63.0,1
392,392,0.8232591212037829,0.8,1.0,1.0,274.0,712.0,1.0,1,504.0,1
393,393,-0.591294254548852,-0.6,1.0,0.0,432.0,696.0,0.0,0,672.0,1
394,394,-0.5760883850771229,-0.6,1.0,0.0,250.0,571.0,0.0,0,319.0,1
395,395,-0.12748285481694488,-0.1,0.0,1.0,463.0,959.0,1.0,0,-122.0,1
396,396,0.6442798477752442,0.6,1.0,1.0,457.0,888.0,1.0,1,175.0,1
397,397,-0.8822703942704838,-0.9,0.0,1.0,355.0,636.0,1.0,0,89.0,1
398,398,-0.5549129850626733,-0.6,0.0,1.0,446.0,544.0,1.0,0,910.0,1
399,399,-0.5141330742228107,-0.5,1.0,0.0,293.0,842.0,1.0,1,-205.0,0
400,400,-0.17173205393031954,-0.2,1.0,0.0,477.0,931.0,0.0,0,3592.0,1
401,401,-0.1324877241746697,-0.1,1.0,0.0,299.0,764.0,1.0,1,3937.0,0
402,402,0.6575881405748797,0.7,0.0,0.0,482.0,884.0,1.0,0,-136.0,0
403,403,-0.08915303916817807,-0.1,1.0,0.0,467.0,795.0,1.0,1,1588.0,0
404,404,0.8694540181703857,0.9,1.0,1.0,279.0,779.0,1.0,1,42.0,1
405,405,-0.2601140205651292,-0.3,0.0,1.0,470.0,662.0,1.0,0,68.0,1
406,406,0.8294008121540527,0.8,0.0,0.0,474.0,602.0,0.0,1,494.0,1
407,407,-0.2947415833117827,-0.3,0.0,1.0,337.0,908.0,1.0,0,1295.0,1
408,408,-0.5340360208544466,-0.5,0.0,1.0,295.0,970.0,1.0,0,15.0,1
409,409,0.4156320743666869,0.4,0.0,0.0,297.0,945.0,0.0,1,-382.0,1
410,410,-0.12336338087250176,-0.1,1.0,0.0,372.0,991.0,1.0,1,-223.0,0
411,411,-0.3826345843395642,-0.4,1.0,0.0,316.0,813.0,0.0,0,1531.0,1
412,412,-0.6477003996090787,-0.6,1.0,0.0,418.0,618.0,0.0,0,2194.0,1
413,413,-0.8773336346828835,-0.9,0.0,1.0,378.0,926.0,1.0,0,436.0,1
414,414,-0.37986539458232993,-0.4,0.0,1.0,345.0,537.0,1.0,0,568.0,1
415,415,-0.5661135792154415,-0.6,0.0,1.0,498.0,543.0,1.0,0,659.0,1
416,416,0.19692475911991536,0.2,0.0,0.0,265.0,575.0,0.0,1,1040.0,1
417,417,0.025645412755349484,0.0,1.0,1.0,391.0,626.0,1.0,1,843.0,1
418,418,-0.0643054243884722,-0.1,0.0,1.0,306.0,766.0,0.0,1,-72.0,0
419,419,0.5683905862523199,0.6,1.0,1.0,285.0,866.0,1.0,1,959.0,1
420,420,-0.6810449733831915,-0.7,1.0,0.0,326.0,506.0,0.0,0,658.0,1
421,421,0.6650210177343457,0.7,1.0,1.0,459.0,878.0,1.0,1,83.0,1
422,422,-0.8519625318062065,-0.9,1.0,0.0,302.0,611.0,0.0,0,227.0,1
423,423,-0.7693502738849863,-0.8,0.0,1.0,459.0,583.0,1.0,0,128.0,1
424,424,0.8651942448884881,0.9,0.0,0.0,455.0,793.0,0.0,1,202.0,1
425,425,0.38837202917599234,0.4,1.0,1.0,485.0,659.0,1.0,1,36.0,1
426,426,-0.5338049878144475,-0.5,1.0,0.0,477.0,965.0,1.0,1,-422.0,0
427,427,-0.055511463243704706,-0.1,1.0,0.0,258.0,713.0,1.0,1,509.0,0
428,428,-0.7739631266386379,-0.8,0.0,1.0,488.0,793.0,1.0,0,839.0,1
429,429,0.8782668085050801,0.9,1.0,1.0,294.0,713.0,1.0,1,293.0,1
430,430,-0.46609400157249686,-0.5,1.0,0.0,262.0,594.0,0.0,0,554.0,1
431,431,-0.8546879553825312,-0.9,1.0,0.0,451.0,650.0,0.0,0,239.0,1
432,432,0.22660300604631034,0.2,1.0,1.0,437.0,744.0,1.0,1,289.0,1
433,433,0.7598023897553979,0.8,0.0,0.0,366.0,855.0,0.0,1,549.0,1
434,434,0.026338215051704528,0.0,0.0,0.0,276.0,987.0,1.0,0,-293.0,0
435,435,0.35496500488301697,0.4,1.0,1.0,297.0,665.0,1.0,1,388.0,1
436,436,-0.6769104107615471,-0.7,1.0,0.0,450.0,648.0,0.0,0,862.0,1
437,437,-0.20173425729220196,-0.2,1.0,0.0,495.0,551.0,0.0,0,3954.0,1
438,438,-0.4775388408361123,-0.5,0.0,1.0,363.0,520.0,1.0,0,257.0,1
439,439,0.465900782063737,0.5,0.0,0.0,311.0,851.0,1.0,0,-172.0,0
440,440,0.6453928371013281,0.6,0.0,0.0,280.0,896.0,0.0,1,364.0,1
441,441,0.2049027511530629,0.2,1.0,1.0,469.0,892.0,1.0,1,-551.0,1
442,442,-0.7606160290922408,-0.8,0.0,1.0,420.0,623.0,1.0,0,77.0,1
443,443,0.7384347532754304,0.7,1.0,1.0,398.0,626.0,1.0,1,436.0,1
444,444,0.46477378052265206,0.5,1.0,1.0,399.0,977.0,1.0,1,-496.0,1
445,445,0.5837216949623304,0.6,0.0,0.0,475.0,873.0,1.0,0,-258.0,0
446,446,0.847982584800257,0.8,0.0,0.0,443.0,764.0,0.0,1,253.0,1
447,447,0.11311471896578518,0.1,1.0,1.0,467.0,976.0,1.0,1,1287.0,1
448,448,0.35283487495846233,0.4,0.0,0.0,262.0,937.0,0.0,1,1761.0,1
449,449,-0.8678891863170227,-0.9,0.0,1.0,448.0,908.0,1.0,0,204.0,1
450,450,-0.6602809254658208,-0.7,1.0,0.0,436.0,631.0,0.0,0,463.0,1
451,451,0.024905022031699753,0.0,0.0,0.0,433.0,989.0,1.0,0,3578.0,0
452,452,-0.45094526112840433,-0.5,1.0,0.0,317.0,513.0,0.0,0,2890.0,1
453,453,0.6385037905104932,0.6,0.0,0.0,338.0,927.0,0.0,1,545.0,1
454,454,0.8220408554502073,0.8,0.0,0.0,411.0,840.0,0.0,1,339.0,1
455,455,0.8398903531520737,0.8,1.0,1.0,390.0,545.0,1.0,1,115.0,1
456,456,0.4405425249103919,0.4,0.0,0.0,255.0,918.0,0.0,1,627.0,1
457,457,0.8495082095609366,0.8,1.0,1.0,356.0,689.0,1.0,1,225.0,1
458,458,0.6712240717610046,0.7,0.0,0.0,424.0,559.0,0.0,1,337.0,1
459,459,0.3215228297117335,0.3,0.0,0.0,434.0,920.0,0.0,1,1276.0,1
460,460,-0.26837091196706486,-0.3,0.0,1.0,328.0,671.0,1.0,0,691.0,1
461,461,-0.2633325650092415,-0.3,0.0,1.0,388.0,982.0,1.0,0,140.0,1
462,462,-0.6718973412769463,-0.7,1.0,0.0,428.0,775.0,0.0,0,947.0,1
463,463,-0.34232124850714585,-0.3,1.0,0.0,265.0,516.0,0.0,0,1439.0,1
464,464,-0.4389226142029255,-0.4,0.0,1.0,437.0,946.0,1.0,0,467.0,1
465,465,-0.7500024944023107,-0.8,1.0,0.0,291.0,790.0,0.0,0,59.0,1
466,466,0.3333438003368391,0.3,1.0,1.0,423.0,609.0,1.0,1,668.0,1
467,467,-0.03203468838170043,-0.0,0.0,1.0,338.0,556.0,1.0,0,2176.0,1
468,468,-0.7550889154035373,-0.8,0.0,1.0,350.0,599.0,1.0,0,721.0,1
469,469,-0.8604589141405826,-0.9,1.0,0.0,493.0,556.0,0.0,0,1181.0,1
470,470,-0.1923220781259708,-0.2,0.0,1.0,272.0,692.0,1.0,0,546.0,1
471,471,-0.30168898801176824,-0.3,0.0,1.0,308.0,589.0,1.0,0,813.0,1
472,472,-0.8752341738889426,-0.9,1.0,0.0,438.0,853.0,0.0,0,1069.0,1
473,473,-0.7834112117943774,-0.8,0.0,1.0,254.0,949.0,1.0,0,287.0,1
474,474,0.8097634265447183,0.8,0.0,0.0,292.0,816.0,0.0,1,1242.0,1
475,475,0.8016436126261367,0.8,1.0,1.0,262.0,998.0,1.0,1,540.0,1
476,476,-0.6206476748933805,-0.6,1.0,0.0,410.0,681.0,0.0,0,429.0,1
477,477,-0.07357647817773538,-0.1,1.0,0.0,432.0,881.0,1.0,1,-323.0,0
478,478,-0.1637312220191538,-0.2,0.0,1.0,483.0,582.0,1.0,0,795.0,1
479,479,-0.7394953634576594,-0.7,0.0,1.0,391.0,861.0,1.0,0,-92.0,1
480,480,0.7945129031995105,0.8,1.0,1.0,307.0,565.0,1.0,1,178.0,1
481,481,0.5878967554819231,0.6,1.0,1.0,391.0,823.0,1.0,1,236.0,1
482,482,-0.4280463705071818,-0.4,0.0,1.0,473.0,813.0,1.0,0,-56.0,1
483,483,-0.7552994368543038,-0.8,0.0,1.0,429.0,936.0,1.0,0,405.0,1
484,484,-0.8386194590261623,-0.8,0.0,1.0,489.0,718.0,1.0,0,103.0,1
485,485,0.017890705030698117,0.0,0.0,0.0,449.0,796.0,1.0,0,195.0,0
486,486,-0.2110082509977349,-0.2,0.0,1.0,352.0,744.0,1.0,0,794.0,1
487,487,-0.8123685827370755,-0.8,1.0,0.0,278.0,514.0,0.0,0,508.0,1
488,488,0.7189475374451474,0.7,1.0,1.0,373.0,525.0,1.0,1,382.0,1
489,489,0.8153991783818816,0.8,1.0,1.0,310.0,980.0,1.0,1,350.0,1
490,490,0.13570859609889052,0.1,0.0,0.0,351.0,865.0,0.0,1,3784.0,1
491,491,-0.24553380864948304,-0.2,0.0,1.0,344.0,525.0,1.0,0,1011.0,1
492,492,0.09238261788619673,0.1,1.0,1.0,412.0,848.0,1.0,1,-220.0,1
493,493,-0.20784624550072772,-0.2,0.0,1.0,367.0,587.0,1.0,0,1346.0,1
494,494,-0.44972243065713435,-0.4,0.0,1.0,499.0,603.0,1.0,0,1258.0,1
495,495,0.003581220902532989,0.0,1.0,1.0,315.0,865.0,1.0,1,3820.0,1
496,496,0.11235346731645957,0.1,1.0,1.0,458.0,653.0,1.0,1,429.0,1
497,497,0.8270679746498611,0.8,1.0,1.0,299.0,913.0,1.0,1,278.0,1
498,498,-0.8864950002874448,-0.9,0.0,1.0,257.0,826.0,1.0,0,117.0,1
499,499,-0.4925983681717012,-0.5,0.0,1.0,368.0,613.0,1.0,0,419.0,1
500,500,0.8647546329799835,0.9,0.0,0.0,475.0,981.0,0.0,1,464.0,1
501,501,0.6889838722629672,0.7,0.0,0.0,441.0,956.0,0.0,1,713.0,1
502,502,0.3832764879708287,0.4,0.0,0.0,491.0,663.0,0.0,1,-274.0,1
503,503,0.872456839311493,0.9,0.0,0.0,488.0,632.0,0.0,1,550.0,1
504,504,0.2991237350272725,0.3,0.0,0.0,326.0,736.0,0.0,1,568.0,1
505,505,0.39339395079994854,0.4,0.0,0.0,496.0,947.0,0.0,1,487.0,1
506,506,0.4550938274980453,0.5,0.0,0.0,391.0,778.0,0.0,1,481.0,1
507,507,0.2764043957159187,0.3,1.0,1.0,304.0,872.0,1.0,1,594.0,1
508,508,-0.34056928405558295,-0.3,0.0,1.0,294.0,941.0,1.0,0,235.0,1
509,509,0.07207195907935082,0.1,1.0,1.0,351.0,824.0,1.0,1,-225.0,1
510,510,0.5972311582080764,0.6,1.0,1.0,289.0,895.0,1.0,1,376.0,1
511,511,-0.18459306842697076,-0.2,0.0,1.0,462.0,521.0,1.0,0,2467.0,1
512,512,-0.5670293162990061,-0.6,1.0,0.0,300.0,992.0,0.0,0,428.0,1
513,513,0.8462321303362582,0.8,1.0,1.0,339.0,683.0,1.0,1,-222.0,1
514,514,-0.877471351846299,-0.9,0.0,1.0,457.0,884.0,1.0,0,669.0,1
515,515,0.7660609054483737,0.8,1.0,1.0,310.0,625.0,1.0,1,155.0,1
516,516,0.33316843356496884,0.3,0.0,0.0,325.0,869.0,1.0,0,-364.0,0
517,517,-0.6608007812880874,-0.7,1.0,0.0,422.0,771.0,0.0,0,427.0,1
518,518,-0.011600558354782464,-0.0,1.0,0.0,276.0,832.0,1.0,1,2302.0,0
519,519,0.5689069819629907,0.6,0.0,0.0,411.0,936.0,0.0,1,633.0,1
520,520,0.5901069395692801,0.6,0.0,0.0,392.0,578.0,0.0,1,550.0,1
521,521,-0.821883759920944,-0.8,0.0,1.0,428.0,635.0,1.0,0,357.0,1
522,522,-0.4088792243522248,-0.4,0.0,1.0,291.0,853.0,1.0,0,236.0,1
523,523,-0.26644400518848255,-0.3,1.0,0.0,480.0,960.0,0.0,0,3560.0,1
524,524,-0.18830225631089748,-0.2,1.0,0.0,412.0,574.0,0.0,0,1254.0,1
525,525,-0.7891402163630372,-0.8,0.0,1.0,496.0,777.0,1.0,0,957.0,1
526,526,0.7534513312826822,0.8,1.0,1.0,332.0,929.0,1.0,1,219.0,1
527,527,-0.12065013587336981,-0.1,1.0,0.0,255.0,922.0,0.0,0,3823.0,1
528,528,-0.24223095814437223,-0.2,1.0,0.0,415.0,782.0,0.0,0,2493.0,1
529,529,0.6397502737574353,0.6,1.0,1.0,271.0,585.0,1.0,1,684.0,1
530,530,0.1256694721578201,0.1,1.0,1.0,267.0,596.0,1.0,1,577.0,1
531,531,-0.26392823289397915,-0.3,0.0,1.0,343.0,579.0,1.0,0,568.0,1
532,532,-0.7728978576377771,-0.8,1.0,0.0,454.0,524.0,0.0,0,952.0,1
533,533,0.4422902069245841,0.4,0.0,0.0,421.0,560.0,0.0,1,809.0,1
534,534,0.8605759867803352,0.9,1.0,1.0,410.0,561.0,1.0,1,649.0,1
535,535,-0.12489107773380081,-0.1,0.0,1.0,343.0,886.0,1.0,0,721.0,1
536,536,0.41809722651058856,0.4,0.0,0.0,420.0,657.0,0.0,1,1483.0,1
537,537,-0.31835591003614216,-0.3,0.0,1.0,329.0,671.0,0.0,1,-200.0,0
538,538,-0.3510781554548812,-0.4,0.0,1.0,272.0,657.0,1.0,0,241.0,1
539,539,0.2992745308633368,0.3,1.0,1.0,403.0,566.0,1.0,1,621.0,1
540,540,-0.781934986557531,-0.8,0.0,1.0,289.0,664.0,1.0,0,447.0,1
541,541,0.37901930519311156,0.4,1.0,1.0,420.0,749.0,1.0,1,791.0,1
542,542,0.6147268295868754,0.6,0.0,0.0,284.0,602.0,0.0,1,434.0,1
543,543,-0.774623388219728,-0.8,1.0,0.0,278.0,753.0,0.0,0,379.0,1
544,544,-0.5023125215042312,-0.5,1.0,0.0,320.0,543.0,0.0,0,2987.0,1
545,545,0.8424858656084299,0.8,0.0,0.0,443.0,883.0,0.0,1,404.0,1
546,546,-0.8111164320041163,-0.8,1.0,0.0,390.0,587.0,0.0,0,373.0,1
547,547,-0.055251190442523246,-0.1,0.0,1.0,499.0,904.0,1.0,0,-203.0,1
548,548,-0.2610930901173293,-0.3,0.0,1.0,482.0,852.0,1.0,0,-34.0,1
549,549,0.17526546827345413,0.2,1.0,1.0,389.0,728.0,1.0,1,2803.0,1
550,550,0.8838947080143001,0.9,0.0,0.0,426.0,753.0,0.0,1,311.0,1
551,551,0.3812116057390945,0.4,1.0,1.0,322.0,536.0,1.0,1,1082.0,1
552,552,-0.6444469436539842,-0.6,1.0,0.0,308.0,646.0,0.0,0,1566.0,1
553,553,0.23884569793707822,0.2,1.0,1.0,309.0,686.0,1.0,1,915.0,1
554,554,-0.09125160091421924,-0.1,0.0,1.0,456.0,604.0,1.0,0,770.0,1
555,555,0.8390145515122226,0.8,0.0,0.0,256.0,505.0,0.0,1,339.0,1
556,556,-0.4917518644684148,-0.5,1.0,0.0,362.0,721.0,0.0,0,737.0,1
557,557,-0.3970875062017464,-0.4,1.0,0.0,381.0,641.0,0.0,0,3158.0,1
558,558,-0.060231732891411705,-0.1,0.0,1.0,481.0,819.0,1.0,0,1230.0,1
559,559,-0.8105163540460361,-0.8,1.0,0.0,310.0,874.0,0.0,0,816.0,1
560,560,-0.28561201273607484,-0.3,1.0,0.0,263.0,660.0,0.0,0,1237.0,1
561,561,-0.8861527743373097,-0.9,1.0,0.0,316.0,808.0,0.0,0,216.0,1
562,562,0.7027060832788893,0.7,0.0,0.0,452.0,980.0,0.0,1,538.0,1
563,563,0.29431393123402405,0.3,0.0,0.0,467.0,809.0,0.0,1,564.0,1
564,564,-0.3844396577841964,-0.4,1.0,0.0,281.0,981.0,0.0,0,938.0,1
565,565,-0.6380410456339354,-0.6,1.0,0.0,451.0,559.0,0.0,0,1070.0,1
566,566,0.5122485075051318,0.5,0.0,0.0,380.0,959.0,0.0,1,1611.0,1
567,567,-0.6192360705776397,-0.6,1.0,0.0,321.0,597.0,0.0,0,1632.0,1
568,568,-0.3079394052354619,-0.3,1.0,0.0,361.0,681.0,0.0,0,698.0,1
569,569,0.8430275595518427,0.8,1.0,1.0,432.0,944.0,1.0,1,184.0,1
570,570,-0.4033934822379408,-0.4,1.0,0.0,365.0,919.0,0.0,0,3716.0,1
571,571,0.7768806781540373,0.8,0.0,0.0,268.0,600.0,0.0,1,142.0,1
572,572,0.7408807056966898,0.7,0.0,0.0,263.0,952.0,0.0,1,235.0,1
573,573,-0.5558184496495342,-0.6,0.0,1.0,335.0,677.0,1.0,0,228.0,1
574,574,-0.5590991403485084,-0.6,1.0,0.0,393.0,517.0,0.0,0,150.0,1
575,575,-0.32007292101174145,-0.3,0.0,1.0,384.0,669.0,1.0,0,1977.0,1
576,576,-0.3176584985729738,-0.3,1.0,0.0,380.0,939.0,0.0,0,121.0,1
577,577,-0.1737979528469752,-0.2,0.0,1.0,365.0,895.0,1.0,0,140.0,1
578,578,-0.5112465555492276,-0.5,0.0,1.0,478.0,677.0,1.0,0,675.0,1
579,579,-0.42142942670518285,-0.4,1.0,0.0,321.0,682.0,0.0,0,1887.0,1
580,580,-0.8145733387689307,-0.8,1.0,0.0,283.0,547.0,0.0,0,1180.0,1
581,581,-0.06700754911482698,-0.1,0.0,1.0,471.0,966.0,1.0,0,1943.0,1
582,582,0.42546702507195644,0.4,0.0,0.0,325.0,513.0,0.0,1,912.0,1
583,583,0.19839145021669513,0.2,0.0,0.0,416.0,648.0,0.0,1,1656.0,1
584,584,-0.31710165189803496,-0.3,0.0,1.0,488.0,891.0,1.0,0,191.0,1
585,585,0.8540671391351199,0.9,0.0,0.0,256.0,714.0,0.0,1,540.0,1
586,586,0.2741138752163951,0.3,1.0,1.0,447.0,984.0,1.0,1,1999.0,1
587,587,-0.6030445235936008,-0.6,0.0,1.0,446.0,623.0,1.0,0,431.0,1
588,588,0.8434991634837873,0.8,0.0,0.0,365.0,817.0,0.0,1,458.0,1
589,589,0.1460028389683098,0.1,1.0,1.0,297.0,894.0,1.0,1,999.0,1
590,590,-0.012434551242411218,-0.0,1.0,0.0,348.0,732.0,1.0,1,3920.0,0
591,591,0.6119229844388597,0.6,0.0,0.0,424.0,807.0,0.0,1,279.0,1
592,592,-0.6044156403379348,-0.6,1.0,0.0,289.0,852.0,0.0,0,679.0,1
593,593,-0.2833448109421739,-0.3,1.0,0.0,488.0,929.0,0.0,0,2463.0,1
594,594,0.6988618646376717,0.7,0.0,0.0,451.0,794.0,0.0,1,335.0,1
595,595,-0.3453449428086136,-0.3,0.0,1.0,427.0,687.0,1.0,0,436.0,1
596,596,0.8324964030836087,0.8,0.0,0.0,357.0,945.0,0.0,1,258.0,1
597,597,-0.8371924145788026,-0.8,0.0,1.0,374.0,737.0,1.0,0,359.0,1
598,598,-0.2269712277873861,-0.2,1.0,0.0,265.0,932.0,0.0,0,2973.0,1
599,599,0.6910179146411143,0.7,0.0,0.0,454.0,767.0,0.0,1,129.0,1
600,600,-0.7190712036663338,-0.7,0.0,1.0,420.0,768.0,1.0,0,362.0,1
601,601,0.1326272768657336,0.1,0.0,0.0,313.0,998.0,0.0,1,399.0,1
602,602,0.7024402316048982,0.7,1.0,1.0,291.0,678.0,1.0,1,321.0,1
603,603,-0.17210404932491952,-0.2,0.0,1.0,387.0,757.0,1.0,0,206.0,1
604,604,0.18686827242681037,0.2,0.0,0.0,435.0,628.0,0.0,1,1777.0,1
605,605,0.683813723468483,0.7,0.0,0.0,392.0,822.0,0.0,1,276.0,1
606,606,-0.728873252245697,-0.7,1.0,0.0,299.0,870.0,0.0,0,1081.0,1
607,607,-0.7626373948202837,-0.8,1.0,0.0,269.0,625.0,0.0,0,716.0,1
608,608,-0.8007156737017023,-0.8,1.0,0.0,427.0,823.0,0.0,0,520.0,1
609,609,-0.23491436594031345,-0.2,0.0,1.0,334.0,624.0,1.0,0,-108.0,1
610,610,0.2872461006587569,0.3,1.0,1.0,446.0,619.0,1.0,1,695.0,1
611,611,0.08495504538020682,0.1,1.0,1.0,438.0,978.0,1.0,1,3374.0,1
612,612,-0.34093227950034954,-0.3,0.0,1.0,342.0,952.0,1.0,0,56.0,1
613,613,0.7621071725382639,0.8,0.0,0.0,294.0,663.0,0.0,1,493.0,1
614,614,-0.3308114366202075,-0.3,0.0,1.0,453.0,765.0,1.0,0,-58.0,1
615,615,0.32079160300267595,0.3,0.0,0.0,294.0,673.0,0.0,1,1033.0,1
616,616,0.27863148680339334,0.3,1.0,1.0,367.0,606.0,1.0,1,517.0,1
617,617,-0.6935735758191788,-0.7,0.0,1.0,407.0,641.0,1.0,0,872.0,1
618,618,-0.16600629197066707,-0.2,0.0,1.0,344.0,643.0,1.0,0,1203.0,1
619,619,-0.17685743422857525,-0.2,0.0,1.0,410.0,553.0,1.0,0,737.0,1
620,620,0.7396836051736569,0.7,0.0,0.0,401.0,961.0,0.0,1,218.0,1
621,621,-0.5871835147954457,-0.6,1.0,0.0,362.0,749.0,0.0,0,1469.0,1
622,622,-0.10266054140303249,-0.1,1.0,0.0,369.0,694.0,0.0,0,3937.0,1
623,623,0.36199557174320784,0.4,0.0,0.0,427.0,514.0,0.0,1,1379.0,1
624,624,0.6867016327061907,0.7,0.0,0.0,336.0,761.0,0.0,1,183.0,1
625,625,0.31245777421160537,0.3,0.0,0.0,477.0,514.0,0.0,1,709.0,1
626,626,0.8647781218277854,0.9,0.0,0.0,295.0,681.0,0.0,1,394.0,1
627,627,-0.47258318531746385,-0.5,1.0,0.0,394.0,860.0,1.0,1,-74.0,0
628,628,0.5343803842836691,0.5,0.0,0.0,355.0,982.0,1.0,0,-87.0,0
629,629,-0.4574825977734254,-0.5,0.0,1.0,264.0,507.0,1.0,0,339.0,1
630,630,-0.1949090903202354,-0.2,0.0,1.0,318.0,552.0,1.0,0,460.0,1
631,631,0.6491330040304305,0.6,0.0,0.0,418.0,575.0,0.0,1,787.0,1
632,632,-0.0450927823710392,-0.0,0.0,1.0,346.0,543.0,1.0,0,2271.0,1
633,633,0.6208210638504078,0.6,0.0,0.0,488.0,963.0,0.0,1,609.0,1
634,634,0.8484876541143217,0.8,0.0,0.0,296.0,697.0,0.0,1,587.0,1
635,635,-0.6075643977273266,-0.6,0.0,1.0,450.0,673.0,1.0,0,687.0,1
636,636,0.010621049890799927,0.0,1.0,1.0,267.0,574.0,0.0,0,4159.0,0
637,637,0.8555206640922567,0.9,0.0,0.0,425.0,768.0,0.0,1,187.0,1
638,638,-0.462613472316831,-0.5,0.0,1.0,256.0,930.0,1.0,0,-676.0,1
639,639,-0.8890852426091806,-0.9,0.0,1.0,455.0,878.0,1.0,0,7.0,1
640,640,-0.5665847413203877,-0.6,0.0,1.0,375.0,735.0,0.0,1,-70.0,0
641,641,0.36788416557392745,0.4,0.0,0.0,497.0,648.0,0.0,1,1055.0,1
642,642,-0.24886564738596628,-0.2,0.0,1.0,375.0,673.0,0.0,1,-248.0,0
643,643,-0.642490184388407,-0.6,1.0,0.0,369.0,598.0,0.0,0,843.0,1
644,644,0.6483559536216773,0.6,0.0,0.0,319.0,651.0,0.0,1,160.0,1
645,645,-0.5937300375100427,-0.6,1.0,0.0,412.0,530.0,0.0,0,758.0,1
646,646,-0.23789532543469794,-0.2,0.0,1.0,377.0,577.0,1.0,0,586.0,1
647,647,0.44636375145011853,0.4,0.0,0.0,352.0,606.0,0.0,1,2142.0,1
648,648,0.7462949810229361,0.7,1.0,1.0,498.0,845.0,1.0,1,227.0,1
649,649,-0.640849850990437,-0.6,1.0,0.0,279.0,791.0,0.0,0,990.0,1
650,650,-0.7294862875279473,-0.7,0.0,1.0,391.0,686.0,1.0,0,473.0,1
651,651,0.6132162859789337,0.6,1.0,1.0,415.0,974.0,1.0,1,51.0,1
652,652,0.6585893794950567,0.7,0.0,0.0,284.0,597.0,0.0,1,269.0,1
653,653,0.7435075952293922,0.7,0.0,0.0,420.0,955.0,0.0,1,305.0,1
654,654,-0.5047841372951033,-0.5,1.0,0.0,391.0,713.0,0.0,0,1296.0,1
655,655,0.518768636748237,0.5,0.0,0.0,286.0,761.0,0.0,1,513.0,1
656,656,0.8022794288601963,0.8,0.0,0.0,333.0,612.0,0.0,1,785.0,1
657,657,-0.20388251738549035,-0.2,0.0,1.0,288.0,787.0,1.0,0,1635.0,1
658,658,0.1168899975065486,0.1,0.0,0.0,418.0,749.0,0.0,1,3833.0,1
659,659,0.2755042596730358,0.3,1.0,1.0,348.0,909.0,1.0,1,683.0,1
660,660,-0.3098759232214484,-0.3,0.0,1.0,320.0,531.0,1.0,0,599.0,1
661,661,-0.8969015953328875,-0.9,0.0,1.0,255.0,887.0,1.0,0,88.0,1
662,662,-0.060886354656733754,-0.1,0.0,1.0,434.0,950.0,1.0,0,2196.0,1
663,663,-0.5162462978227232,-0.5,0.0,1.0,358.0,952.0,1.0,0,-450.0,1
664,664,-0.8222245032863071,-0.8,1.0,0.0,449.0,717.0,0.0,0,784.0,1
665,665,-0.6403292898374787,-0.6,0.0,1.0,312.0,848.0,1.0,0,860.0,1
666,666,0.5919641077163947,0.6,0.0,0.0,487.0,828.0,0.0,1,675.0,1
667,667,0.21504769791495748,0.2,0.0,0.0,279.0,708.0,0.0,1,1853.0,1
668,668,-0.2371844573929256,-0.2,0.0,1.0,418.0,673.0,1.0,0,249.0,1
669,669,0.5227981038056236,0.5,1.0,1.0,429.0,924.0,1.0,1,227.0,1
670,670,0.10504032276173836,0.1,1.0,1.0,382.0,605.0,1.0,1,353.0,1
671,671,-0.3203069039351668,-0.3,1.0,0.0,265.0,913.0,0.0,0,3822.0,1
672,672,-0.05283959643552205,-0.1,0.0,1.0,466.0,992.0,1.0,0,-198.0,1
673,673,0.8425528800773548,0.8,1.0,1.0,336.0,975.0,1.0,1,259.0,1
674,674,0.7674882845286765,0.8,1.0,1.0,429.0,945.0,1.0,1,146.0,1
675,675,-0.6595410894850636,-0.7,0.0,1.0,460.0,649.0,1.0,0,481.0,1
676,676,0.14290259937432037,0.1,1.0,1.0,469.0,796.0,1.0,1,805.0,1
677,677,0.8358279427062377,0.8,1.0,1.0,481.0,606.0,1.0,1,343.0,1
678,678,-0.3849760271193632,-0.4,0.0,1.0,305.0,662.0,1.0,0,473.0,1
679,679,-0.41546570258319543,-0.4,0.0,1.0,374.0,944.0,1.0,0,122.0,1
680,680,0.833534738035007,0.8,1.0,1.0,303.0,687.0,1.0,1,140.0,1
681,681,-0.4658784429936245,-0.5,1.0,0.0,433.0,910.0,0.0,0,1237.0,1
682,682,0.82786629583188,0.8,1.0,1.0,262.0,742.0,1.0,1,76.0,1
683,683,-0.44448737090955276,-0.4,0.0,1.0,454.0,832.0,1.0,0,144.0,1
684,684,-0.49676159574574313,-0.5,0.0,1.0,281.0,848.0,1.0,0,391.0,1
685,685,-0.022204613397615036,-0.0,0.0,1.0,341.0,607.0,1.0,0,3682.0,1
686,686,0.39932693208543923,0.4,0.0,0.0,417.0,893.0,0.0,1,-220.0,1
687,687,-0.6752898069509562,-0.7,0.0,1.0,323.0,540.0,1.0,0,577.0,1
688,688,-0.044682675567734864,-0.0,1.0,0.0,425.0,962.0,1.0,1,3613.0,0
689,689,0.7382394257513744,0.7,0.0,0.0,463.0,523.0,0.0,1,554.0,1
690,690,-0.570440029669718,-0.6,0.0,1.0,392.0,961.0,1.0,0,-403.0,1
691,691,-0.5765569700617874,-0.6,1.0,0.0,422.0,917.0,1.0,1,-209.0,0
692,692,-0.5300188383949938,-0.5,1.0,0.0,489.0,816.0,0.0,0,2385.0,1
693,693,-0.22614511808671756,-0.2,0.0,1.0,250.0,944.0,1.0,0,296.0,1
694,694,0.8409393140846578,0.8,1.0,1.0,467.0,753.0,1.0,1,-170.0,1
695,695,0.2650500603631386,0.3,1.0,1.0,301.0,957.0,1.0,1,1212.0,1
696,696,0.6374123074361054,0.6,1.0,1.0,396.0,868.0,1.0,1,26.0,1
697,697,0.4813832453333119,0.5,0.0,0.0,415.0,807.0,0.0,1,868.0,1
698,698,0.36761636836916833,0.4,1.0,1.0,286.0,782.0,1.0,1,362.0,1
699,699,-0.5113366353184722,-0.5,0.0,1.0,270.0,837.0,1.0,0,253.0,1
700,700,0.6074421231926638,0.6,0.0,0.0,426.0,937.0,0.0,1,727.0,1
701,701,0.05638545303700415,0.1,1.0,1.0,423.0,755.0,1.0,1,1272.0,1
702,702,0.7079846886447388,0.7,0.0,0.0,498.0,986.0,0.0,1,736.0,1
703,703,-0.12852772393389034,-0.1,0.0,1.0,357.0,909.0,1.0,0,1224.0,1
704,704,-0.3391159419341985,-0.3,0.0,1.0,288.0,631.0,1.0,0,661.0,1
705,705,-0.7963478443908735,-0.8,1.0,0.0,312.0,606.0,0.0,0,982.0,1
706,706,0.7371766071336056,0.7,0.0,0.0,382.0,951.0,1.0,0,-93.0,0
707,707,0.01671851986167816,0.0,1.0,1.0,464.0,576.0,1.0,1,1810.0,1
708,708,0.6183052374334884,0.6,1.0,1.0,398.0,590.0,1.0,1,2.0,1
709,709,0.036663773781001274,0.0,1.0,1.0,462.0,604.0,1.0,1,3934.0,1
710,710,-0.3884158737035329,-0.4,0.0,1.0,289.0,973.0,1.0,0,888.0,1
711,711,-0.6631267742349143,-0.7,1.0,0.0,332.0,666.0,0.0,0,882.0,1
712,712,-0.5696816583757924,-0.6,1.0,0.0,398.0,598.0,0.0,0,1064.0,1
713,713,-0.0031917045418875523,-0.0,0.0,1.0,479.0,954.0,1.0,0,-63.0,1
714,714,-0.8569218573054466,-0.9,1.0,0.0,299.0,833.0,0.0,0,1118.0,1
715,715,0.27641907770951,0.3,0.0,0.0,455.0,836.0,0.0,1,659.0,1
716,716,-0.7577186850012988,-0.8,0.0,1.0,317.0,577.0,1.0,0,566.0,1
717,717,-0.29653393551202845,-0.3,1.0,0.0,288.0,633.0,0.0,0,4079.0,1
718,718,0.7661033351422962,0.8,1.0,1.0,459.0,584.0,1.0,1,167.0,1
719,719,0.7394354643913735,0.7,1.0,1.0,480.0,715.0,1.0,1,225.0,1
720,720,-0.5088079143838291,-0.5,1.0,0.0,279.0,634.0,0.0,0,527.0,1
721,721,0.8934807694965085,0.9,1.0,1.0,346.0,766.0,1.0,1,188.0,1
722,722,0.1782013599245914,0.2,1.0,1.0,491.0,998.0,1.0,1,-39.0,1
723,723,0.37967215184553027,0.4,1.0,1.0,423.0,983.0,1.0,1,154.0,1
724,724,-0.8064864979034809,-0.8,1.0,0.0,386.0,853.0,0.0,0,1571.0,1
725,725,0.06541644553817905,0.1,0.0,0.0,309.0,616.0,1.0,0,2175.0,0
726,726,-0.8534082658906869,-0.9,0.0,1.0,352.0,933.0,1.0,0,145.0,1
727,727,0.5933516762969259,0.6,1.0,1.0,286.0,870.0,1.0,1,-46.0,1
728,728,0.4875282519928156,0.5,1.0,1.0,389.0,511.0,1.0,1,620.0,1
729,729,-0.5232430656211922,-0.5,1.0,0.0,393.0,977.0,0.0,0,410.0,1
730,730,-0.07220465880513283,-0.1,0.0,1.0,256.0,661.0,1.0,0,683.0,1
731,731,0.551721277836594,0.6,0.0,0.0,468.0,686.0,0.0,1,426.0,1
732,732,-0.7522956427487496,-0.8,1.0,0.0,285.0,578.0,0.0,0,767.0,1
733,733,0.3971381807719182,0.4,1.0,1.0,475.0,590.0,1.0,1,385.0,1
734,734,-0.22796147870718175,-0.2,1.0,0.0,332.0,892.0,0.0,0,3776.0,1
735,735,-0.5066466381371915,-0.5,0.0,1.0,412.0,627.0,1.0,0,-59.0,1
736,736,0.8915008920033612,0.9,0.0,0.0,397.0,818.0,0.0,1,-425.0,1
737,737,-0.7076732020520743,-0.7,0.0,1.0,261.0,628.0,1.0,0,921.0,1
738,738,-0.36343148792013547,-0.4,0.0,1.0,439.0,923.0,1.0,0,-132.0,1
739,739,-0.3236979095949025,-0.3,0.0,1.0,466.0,537.0,1.0,0,1807.0,1
740,740,0.17718694382225897,0.2,0.0,0.0,323.0,577.0,0.0,1,4100.0,1
741,741,-0.28817032527504083,-0.3,1.0,0.0,476.0,564.0,0.0,0,3950.0,1
742,742,0.86794060535219,0.9,0.0,0.0,362.0,783.0,0.0,1,345.0,1
743,743,-0.8055206076147057,-0.8,0.0,1.0,380.0,574.0,1.0,0,226.0,1
744,744,-0.2898652954943489,-0.3,0.0,1.0,407.0,714.0,1.0,0,249.0,1
745,745,0.04538427378782861,0.0,0.0,0.0,290.0,727.0,0.0,1,723.0,1
746,746,0.48589278535197133,0.5,1.0,1.0,310.0,544.0,1.0,1,266.0,1
747,747,0.1113069125120768,0.1,0.0,0.0,318.0,795.0,0.0,1,3887.0,1
748,748,-0.3295621513749405,-0.3,1.0,0.0,340.0,850.0,0.0,0,3640.0,1
749,749,0.6128380159161405,0.6,1.0,1.0,397.0,902.0,1.0,1,51.0,1
750,750,0.2763687066291852,0.3,1.0,1.0,299.0,575.0,1.0,1,426.0,1
751,751,-0.21587835589536974,-0.2,1.0,0.0,304.0,553.0,0.0,0,4143.0,1
752,752,0.29860967660133675,0.3,0.0,0.0,474.0,596.0,1.0,0,150.0,0
753,753,0.6430758882451445,0.6,0.0,0.0,281.0,992.0,1.0,0,-473.0,0
754,754,0.5976035893260302,0.6,1.0,1.0,426.0,969.0,1.0,1,455.0,1
755,755,0.2507696701609249,0.3,1.0,1.0,317.0,570.0,1.0,1,193.0,1
756,756,0.03716108176273358,0.0,0.0,0.0,448.0,730.0,1.0,0,3822.0,0
757,757,-0.6618221265211518,-0.7,0.0,1.0,256.0,817.0,1.0,0,597.0,1
758,758,0.018354493014563156,0.0,0.0,0.0,382.0,572.0,0.0,1,2576.0,1
759,759,0.8208987164914169,0.8,0.0,0.0,406.0,914.0,0.0,1,400.0,1
760,760,-0.2563707053278096,-0.3,1.0,0.0,363.0,846.0,0.0,0,1651.0,1
761,761,-0.8433241050541233,-0.8,1.0,0.0,367.0,994.0,0.0,0,899.0,1
762,762,-0.5964475208360089,-0.6,1.0,0.0,287.0,959.0,1.0,1,-336.0,0
763,763,-0.003326194047672315,-0.0,0.0,1.0,327.0,549.0,1.0,0,824.0,1
764,764,-0.8125211578318993,-0.8,0.0,1.0,459.0,663.0,1.0,0,168.0,1
765,765,0.33052136204409843,0.3,1.0,1.0,293.0,871.0,1.0,1,-404.0,1
766,766,0.8113585100520316,0.8,1.0,1.0,317.0,689.0,0.0,0,974.0,0
767,767,0.5362027886810857,0.5,0.0,0.0,465.0,776.0,0.0,1,829.0,1
768,768,0.17262697513405334,0.2,1.0,1.0,318.0,994.0,1.0,1,728.0,1
769,769,-0.802241732199439,-0.8,1.0,0.0,432.0,666.0,0.0,0,582.0,1
770,770,0.6153180637590233,0.6,1.0,1.0,346.0,568.0,1.0,1,386.0,1
771,771,-0.6661568116916061,-0.7,0.0,1.0,293.0,606.0,1.0,0,341.0,1
772,772,0.3404970680268561,0.3,1.0,1.0,364.0,592.0,1.0,1,224.0,1
773,773,-0.5120303740560406,-0.5,1.0,0.0,376.0,899.0,1.0,1,-335.0,0
774,774,-0.17097814194821037,-0.2,0.0,1.0,366.0,767.0,1.0,0,537.0,1
775,775,-0.5818898329987593,-0.6,1.0,0.0,480.0,948.0,0.0,0,2422.0,1
776,776,-0.5916118097988888,-0.6,0.0,1.0,285.0,609.0,1.0,0,316.0,1
777,777,0.7589213040868953,0.8,1.0,1.0,439.0,533.0,1.0,1,218.0,1
778,778,0.4743871129289926,0.5,1.0,1.0,486.0,797.0,1.0,1,-163.0,1
779,779,-0.6102810287003755,-0.6,1.0,0.0,276.0,803.0,0.0,0,1581.0,1
780,780,0.10193690629697072,0.1,1.0,1.0,263.0,634.0,1.0,1,1143.0,1
781,781,-0.3182302574516974,-0.3,0.0,1.0,417.0,599.0,1.0,0,234.0,1
782,782,-0.1779873601259484,-0.2,0.0,1.0,408.0,515.0,1.0,0,1117.0,1
783,783,0.6701390881875987,0.7,0.0,0.0,442.0,657.0,0.0,1,451.0,1
784,784,-0.4136605429902189,-0.4,0.0,1.0,423.0,814.0,1.0,0,63.0,1
785,785,-0.3846128844099753,-0.4,0.0,1.0,482.0,929.0,1.0,0,419.0,1
786,786,0.8231731690223564,0.8,1.0,1.0,399.0,967.0,1.0,1,144.0,1
787,787,-0.7828974815216849,-0.8,0.0,1.0,485.0,919.0,1.0,0,336.0,1
788,788,0.5256954635674128,0.5,0.0,0.0,376.0,571.0,0.0,1,813.0,1
789,789,0.31142220693831824,0.3,0.0,0.0,299.0,654.0,1.0,0,277.0,0
790,790,0.6217868998481325,0.6,1.0,1.0,467.0,714.0,1.0,1,169.0,1
791,791,0.34802864304286396,0.3,0.0,0.0,307.0,596.0,0.0,1,777.0,1
792,792,0.43036905182789653,0.4,0.0,0.0,279.0,955.0,1.0,0,-624.0,0
793,793,-0.3100549074757031,-0.3,1.0,0.0,270.0,864.0,1.0,1,-304.0,0
794,794,0.2510143479940966,0.3,1.0,1.0,313.0,575.0,1.0,1,592.0,1
795,795,0.25593425446782214,0.3,0.0,0.0,418.0,738.0,0.0,1,214.0,1
796,796,-0.6476876889953616,-0.6,0.0,1.0,319.0,634.0,1.0,0,787.0,1
797,797,-0.10661903762992542,-0.1,0.0,1.0,485.0,626.0,1.0,0,1749.0,1
798,798,0.8226489516176635,0.8,1.0,1.0,445.0,696.0,1.0,1,339.0,1
799,799,0.5431690045941794,0.5,1.0,1.0,254.0,820.0,1.0,1,776.0,1
800,800,0.17460430636851265,0.2,1.0,1.0,479.0,878.0,1.0,1,2563.0,1
801,801,0.6380827026779682,0.6,0.0,0.0,327.0,870.0,0.0,1,293.0,1
802,802,-0.6040937345138631,-0.6,0.0,1.0,336.0,812.0,1.0,0,562.0,1
803,803,0.42111501791800177,0.4,0.0,0.0,316.0,746.0,0.0,1,1848.0,1
804,804,0.17958466793440253,0.2,0.0,0.0,460.0,589.0,0.0,1,-209.0,1
805,805,-0.30396771086469065,-0.3,1.0,0.0,386.0,958.0,0.0,0,1666.0,1
806,806,0.6710367289774367,0.7,0.0,0.0,472.0,898.0,0.0,1,300.0,1
807,807,0.6269688123330136,0.6,0.0,0.0,332.0,981.0,0.0,1,697.0,1
808,808,-0.4792267117648319,-0.5,0.0,1.0,370.0,939.0,1.0,0,471.0,1
809,809,0.405031576245921,0.4,1.0,1.0,291.0,890.0,1.0,1,529.0,1
810,810,0.6580067606806538,0.7,1.0,1.0,303.0,636.0,1.0,1,401.0,1
811,811,-0.8768449896559334,-0.9,0.0,1.0,492.0,514.0,1.0,0,514.0,1
812,812,-0.5679500826565935,-0.6,0.0,1.0,468.0,605.0,1.0,0,-73.0,1
813,813,0.6987155243845166,0.7,1.0,1.0,275.0,706.0,1.0,1,49.0,1
814,814,0.8410510179655947,0.8,1.0,1.0,455.0,602.0,1.0,1,783.0,1
815,815,0.5155048807058508,0.5,0.0,0.0,411.0,611.0,0.0,1,1638.0,1
816,816,-0.00047485907763478163,-0.0,0.0,1.0,465.0,575.0,1.0,0,870.0,1
817,817,-0.45644555109291934,-0.5,0.0,1.0,346.0,539.0,1.0,0,905.0,1
818,818,-0.8823528640573218,-0.9,1.0,0.0,366.0,599.0,0.0,0,675.0,1
819,819,-0.6019134055269099,-0.6,0.0,1.0,409.0,919.0,0.0,1,-198.0,0
820,820,-0.41225761130927935,-0.4,1.0,0.0,448.0,984.0,0.0,0,918.0,1
821,821,0.1746654839078411,0.2,0.0,0.0,397.0,509.0,0.0,1,3014.0,1
822,822,0.8813716288048873,0.9,0.0,0.0,330.0,611.0,0.0,1,819.0,1
823,823,-0.6384033327037866,-0.6,0.0,1.0,481.0,736.0,1.0,0,263.0,1
824,824,0.15419281687784603,0.2,1.0,1.0,297.0,601.0,1.0,1,622.0,1
825,825,-0.26629551244472915,-0.3,0.0,1.0,358.0,794.0,1.0,0,108.0,1
826,826,-0.1336408720038843,-0.1,1.0,0.0,313.0,844.0,0.0,0,2633.0,1
827,827,0.4129862035200601,0.4,0.0,0.0,288.0,542.0,0.0,1,980.0,1
828,828,-0.15898866802536382,-0.2,0.0,1.0,270.0,764.0,1.0,0,2386.0,1
829,829,0.13867409852713453,0.1,1.0,1.0,470.0,809.0,1.0,1,521.0,1
830,830,0.894835018827051,0.9,1.0,1.0,406.0,898.0,1.0,1,-34.0,1
831,831,-0.8495304316844791,-0.8,1.0,0.0,365.0,628.0,0.0,0,517.0,1
832,832,0.4411595873749782,0.4,1.0,1.0,441.0,817.0,1.0,1,322.0,1
833,833,0.3523245279164998,0.4,1.0,1.0,269.0,940.0,1.0,1,581.0,1
834,834,-0.3156204270197409,-0.3,0.0,1.0,258.0,811.0,1.0,0,171.0,1
835,835,0.7217948839154752,0.7,0.0,0.0,399.0,589.0,0.0,1,122.0,1
836,836,0.31771335098287035,0.3,0.0,0.0,388.0,797.0,0.0,1,1565.0,1
837,837,0.30348792155773563,0.3,0.0,0.0,452.0,810.0,0.0,1,218.0,1
838,838,-0.3930945734433847,-0.4,0.0,1.0,337.0,625.0,1.0,0,-182.0,1
839,839,-0.18638247512847794,-0.2,0.0,1.0,498.0,945.0,1.0,0,1127.0,1
840,840,-0.44114467780254824,-0.4,0.0,1.0,279.0,810.0,1.0,0,331.0,1
841,841,0.8290476778487813,0.8,0.0,0.0,395.0,577.0,0.0,1,518.0,1
842,842,0.7006151526808221,0.7,0.0,0.0,312.0,596.0,0.0,1,732.0,1
843,843,0.805235177419717,0.8,1.0,1.0,381.0,854.0,1.0,1,515.0,1
844,844,0.7032489795215967,0.7,1.0,1.0,281.0,558.0,1.0,1,691.0,1
845,845,0.6572809103591116,0.7,1.0,1.0,384.0,589.0,1.0,1,337.0,1
846,846,-0.2601067889205716,-0.3,0.0,1.0,400.0,641.0,1.0,0,389.0,1
847,847,-0.17440559517214704,-0.2,0.0,1.0,356.0,582.0,1.0,0,-38.0,1
848,848,-0.7411080956537893,-0.7,1.0,0.0,485.0,923.0,1.0,1,-718.0,0
849,849,0.30153304615897814,0.3,0.0,0.0,318.0,722.0,0.0,1,480.0,1
850,850,0.6240155500150836,0.6,0.0,0.0,265.0,921.0,0.0,1,444.0,1
851,851,-0.4654250798748545,-0.5,1.0,0.0,334.0,631.0,0.0,0,1035.0,1
852,852,0.3298215036507942,0.3,1.0,1.0,481.0,963.0,1.0,1,136.0,1
853,853,0.7130469924083339,0.7,0.0,0.0,396.0,926.0,0.0,1,748.0,1
854,854,0.2190319017415404,0.2,1.0,1.0,436.0,976.0,1.0,1,778.0,1
855,855,-0.32146125336990994,-0.3,0.0,1.0,476.0,696.0,1.0,0,718.0,1
856,856,-0.1846441696357627,-0.2,1.0,0.0,373.0,891.0,0.0,0,2706.0,1
857,857,-0.46539858415199253,-0.5,0.0,1.0,288.0,619.0,1.0,0,413.0,1
858,858,0.6696721820582875,0.7,0.0,0.0,343.0,841.0,0.0,1,716.0,1
859,859,-0.5301830567527954,-0.5,0.0,1.0,293.0,574.0,1.0,0,-197.0,1
860,860,-0.21573783199441043,-0.2,0.0,1.0,499.0,808.0,1.0,0,553.0,1
861,861,0.7440481024966442,0.7,0.0,0.0,484.0,924.0,0.0,1,212.0,1
862,862,-0.7201140871855366,-0.7,0.0,1.0,417.0,938.0,1.0,0,235.0,1
863,863,0.1911725610622378,0.2,0.0,0.0,441.0,819.0,1.0,0,3740.0,0
864,864,0.3871747984073056,0.4,1.0,1.0,375.0,816.0,1.0,1,379.0,1
865,865,0.27969957838625936,0.3,0.0,0.0,319.0,895.0,1.0,0,-184.0,0
866,866,0.5909434435362658,0.6,0.0,0.0,449.0,859.0,0.0,1,852.0,1
867,867,-0.5479058533372244,-0.5,1.0,0.0,389.0,851.0,0.0,0,690.0,1
868,868,0.7374378474983693,0.7,1.0,1.0,370.0,970.0,1.0,1,190.0,1
869,869,0.3413283803409314,0.3,0.0,0.0,276.0,841.0,0.0,1,763.0,1
870,870,-0.5934593581314059,-0.6,0.0,1.0,492.0,839.0,1.0,0,959.0,1
871,871,-0.29687322522676307,-0.3,0.0,1.0,416.0,857.0,1.0,0,897.0,1
872,872,-0.12624471024587047,-0.1,1.0,0.0,345.0,955.0,0.0,0,3700.0,1
873,873,0.24196485220516284,0.2,0.0,0.0,386.0,672.0,1.0,0,262.0,0
874,874,-0.24226525990175096,-0.2,1.0,0.0,304.0,991.0,0.0,0,3705.0,1
875,875,0.6096140266301643,0.6,0.0,0.0,326.0,625.0,0.0,1,369.0,1
876,876,0.6311780300505329,0.6,1.0,1.0,410.0,614.0,1.0,1,596.0,1
877,877,0.41148365265598696,0.4,0.0,0.0,368.0,827.0,0.0,1,465.0,1
878,878,-0.20161065663789113,-0.2,0.0,1.0,329.0,664.0,1.0,0,577.0,1
879,879,0.03584643330336024,0.0,0.0,0.0,303.0,553.0,1.0,0,1814.0,0
880,880,-0.6786648960933431,-0.7,1.0,0.0,269.0,911.0,0.0,0,380.0,1
881,881,-0.8414641459371612,-0.8,1.0,0.0,417.0,696.0,0.0,0,507.0,1
882,882,-0.5932571415805048,-0.6,0.0,1.0,469.0,643.0,1.0,0,108.0,1
883,883,-0.19985308523607848,-0.2,0.0,1.0,484.0,953.0,1.0,0,143.0,1
884,884,-0.710521086757874,-0.7,0.0,1.0,442.0,928.0,1.0,0,-30.0,1
885,885,-0.30460712237818877,-0.3,1.0,0.0,360.0,537.0,0.0,0,4103.0,1
886,886,-0.19826931179119145,-0.2,1.0,0.0,341.0,746.0,0.0,0,2113.0,1
887,887,0.28091211787395876,0.3,1.0,1.0,255.0,680.0,1.0,1,865.0,1
888,888,0.0789019331824502,0.1,0.0,0.0,495.0,757.0,1.0,0,-312.0,0
889,889,-0.8630235716060827,-0.9,1.0,0.0,479.0,861.0,0.0,0,460.0,1
890,890,-0.5729174890932018,-0.6,1.0,0.0,460.0,848.0,1.0,1,-408.0,0
891,891,-0.8831330347469584,-0.9,1.0,0.0,354.0,939.0,0.0,0,837.0,1
892,892,0.0683936927861617,0.1,1.0,1.0,428.0,630.0,1.0,1,2932.0,1
893,893,0.2379873854103346,0.2,0.0,0.0,377.0,727.0,0.0,1,1996.0,1
894,894,-0.12696041527030377,-0.1,1.0,0.0,283.0,876.0,1.0,1,-509.0,0
895,895,-0.7922023015333716,-0.8,0.0,1.0,369.0,722.0,1.0,0,619.0,1
896,896,-0.5131653627992951,-0.5,1.0,0.0,290.0,560.0,0.0,0,3010.0,1
897,897,-0.2532780224739861,-0.3,0.0,1.0,308.0,643.0,1.0,0,1459.0,1
898,898,-0.48366084384241464,-0.5,1.0,0.0,469.0,590.0,1.0,1,191.0,0
899,899,-0.12471779613817147,-0.1,0.0,1.0,371.0,683.0,1.0,0,36.0,1
900,900,-0.568334401807493,-0.6,1.0,0.0,462.0,876.0,0.0,0,892.0,1
901,901,-0.4280962722009526,-0.4,0.0,1.0,388.0,572.0,1.0,0,400.0,1
902,902,-0.7393046024104851,-0.7,1.0,0.0,336.0,654.0,0.0,0,1030.0,1
903,903,0.5724602730655127,0.6,0.0,0.0,493.0,645.0,0.0,1,892.0,1
904,904,0.02102642667225496,0.0,1.0,1.0,438.0,968.0,1.0,1,2914.0,1
905,905,0.21657819274277268,0.2,1.0,1.0,370.0,778.0,1.0,1,382.0,1
906,906,0.6895793797239368,0.7,0.0,0.0,315.0,753.0,0.0,1,762.0,1
907,907,0.7448475102509008,0.7,1.0,1.0,406.0,608.0,1.0,1,666.0,1
908,908,0.27786618347827485,0.3,0.0,0.0,450.0,786.0,1.0,0,-316.0,0
909,909,-0.07808031717875974,-0.1,1.0,0.0,467.0,996.0,1.0,1,27.0,0
910,910,0.08498868400781301,0.1,1.0,1.0,450.0,586.0,1.0,1,384.0,1
911,911,-0.8020064217148551,-0.8,0.0,1.0,300.0,749.0,1.0,0,291.0,1
912,912,-0.022692490548627542,-0.0,0.0,1.0,289.0,929.0,1.0,0,-158.0,1
913,913,-0.12068149056726829,-0.1,0.0,1.0,301.0,867.0,1.0,0,2812.0,1
914,914,-0.39744275601766565,-0.4,0.0,1.0,357.0,959.0,1.0,0,684.0,1
915,915,0.1646070849643303,0.2,1.0,1.0,324.0,698.0,1.0,1,-332.0,1
916,916,0.39585019125100585,0.4,0.0,0.0,469.0,934.0,0.0,1,987.0,1
917,917,0.7831894258527176,0.8,0.0,0.0,437.0,841.0,1.0,0,22.0,0
918,918,0.046367980968626155,0.0,0.0,0.0,299.0,668.0,1.0,0,613.0,0
919,919,0.8312717752338238,0.8,0.0,0.0,458.0,800.0,0.0,1,462.0,1
920,920,-0.7012901100509203,-0.7,0.0,1.0,464.0,898.0,1.0,0,128.0,1
921,921,-0.29402628407012243,-0.3,0.0,1.0,369.0,691.0,1.0,0,90.0,1
922,922,0.1727945562340666,0.2,1.0,1.0,272.0,838.0,1.0,1,920.0,1
923,923,0.3140937981812909,0.3,1.0,1.0,255.0,923.0,1.0,1,2652.0,1
924,924,-0.6217859041403725,-0.6,1.0,0.0,459.0,548.0,0.0,0,703.0,1
925,925,0.4835464631582559,0.5,0.0,0.0,363.0,885.0,1.0,0,-528.0,0
926,926,0.11096269607785259,0.1,1.0,1.0,471.0,998.0,1.0,1,1241.0,1
927,927,-0.6908876339338023,-0.7,1.0,0.0,406.0,873.0,0.0,0,381.0,1
928,928,0.35360489513827675,0.4,0.0,0.0,361.0,969.0,0.0,1,2390.0,1
929,929,0.5121417917898649,0.5,0.0,0.0,420.0,720.0,0.0,1,470.0,1
930,930,-0.19537434777527196,-0.2,1.0,0.0,280.0,968.0,1.0,1,3752.0,0
931,931,-0.2859219312463265,-0.3,0.0,1.0,481.0,935.0,1.0,0,244.0,1
932,932,-0.09434523330656641,-0.1,0.0,1.0,296.0,629.0,1.0,0,1285.0,1
933,933,-0.5764138033121018,-0.6,0.0,1.0,300.0,891.0,1.0,0,419.0,1
934,934,-0.3885266597238567,-0.4,1.0,0.0,300.0,955.0,0.0,0,2845.0,1
935,935,0.05129709181742037,0.1,1.0,1.0,315.0,987.0,1.0,1,-202.0,1
936,936,-0.7271457246542117,-0.7,1.0,0.0,449.0,630.0,0.0,0,541.0,1
937,937,0.298359932660902,0.3,0.0,0.0,477.0,664.0,0.0,1,929.0,1
938,938,-0.06827295380731058,-0.1,1.0,0.0,404.0,745.0,1.0,1,401.0,0
939,939,0.2701917567343236,0.3,1.0,1.0,267.0,932.0,1.0,1,121.0,1
940,940,0.3015658234169235,0.3,0.0,0.0,451.0,898.0,0.0,1,891.0,1
941,941,0.23642867237019216,0.2,1.0,1.0,408.0,508.0,1.0,1,594.0,1
942,942,0.7103768271657761,0.7,0.0,0.0,307.0,534.0,0.0,1,489.0,1
943,943,0.19181955102939485,0.2,1.0,1.0,305.0,649.0,1.0,1,-354.0,1
944,944,-0.022299165076026806,-0.0,0.0,1.0,468.0,615.0,1.0,0,1937.0,1
945,945,0.8163193861265209,0.8,1.0,1.0,457.0,649.0,1.0,1,234.0,1
946,946,0.7916015745320216,0.8,0.0,0.0,400.0,832.0,0.0,1,448.0,1
947,947,0.6142501354937328,0.6,1.0,1.0,482.0,589.0,1.0,1,149.0,1
948,948,0.13344685730199324,0.1,0.0,0.0,421.0,889.0,0.0,1,-130.0,1
949,949,-0.16900745348629043,-0.2,0.0,1.0,450.0,779.0,0.0,1,-29.0,0
950,950,0.3932557956432977,0.4,0.0,0.0,405.0,734.0,0.0,1,611.0,1
951,951,0.7478589307488496,0.7,0.0,0.0,419.0,643.0,0.0,1,-62.0,1
952,952,-0.7517918462676394,-0.8,1.0,0.0,485.0,667.0,0.0,0,278.0,1
953,953,-0.681857630999906,-0.7,0.0,1.0,467.0,991.0,1.0,0,222.0,1
954,954,0.5501093419427553,0.6,0.0,0.0,377.0,969.0,0.0,1,634.0,1
955,955,0.60418867396239,0.6,0.0,0.0,475.0,882.0,0.0,1,943.0,1
956,956,-0.8008355947841476,-0.8,0.0,1.0,378.0,832.0,1.0,0,140.0,1
957,957,0.6257044196979712,0.6,0.0,0.0,323.0,818.0,0.0,1,169.0,1
958,958,0.4033837359190079,0.4,0.0,0.0,265.0,962.0,1.0,0,143.0,0
959,959,-0.20677918098814985,-0.2,1.0,0.0,407.0,922.0,1.0,1,-129.0,0
960,960,-0.8532771134400069,-0.9,0.0,1.0,443.0,955.0,0.0,1,-758.0,0
961,961,0.8237666395419262,0.8,0.0,0.0,407.0,636.0,0.0,1,1267.0,1
962,962,-0.006739338993472677,-0.0,1.0,0.0,310.0,732.0,1.0,1,2448.0,0
963,963,-0.5624772853294677,-0.6,1.0,0.0,379.0,761.0,0.0,0,730.0,1
964,964,0.6176404241678567,0.6,0.0,0.0,306.0,929.0,0.0,1,1265.0,1
965,965,-0.8916578142175073,-0.9,1.0,0.0,329.0,532.0,0.0,0,849.0,1
966,966,0.4438404098417369,0.4,1.0,1.0,409.0,869.0,1.0,1,42.0,1
967,967,-0.6187706709357814,-0.6,1.0,0.0,390.0,563.0,0.0,0,847.0,1
968,968,0.0968018089832966,0.1,1.0,1.0,281.0,987.0,1.0,1,-458.0,1
969,969,0.5119669019466274,0.5,0.0,0.0,497.0,946.0,0.0,1,547.0,1
970,970,-0.4455941613403212,-0.4,0.0,1.0,287.0,801.0,1.0,0,472.0,1
971,971,0.7317818065849832,0.7,0.0,0.0,280.0,687.0,0.0,1,823.0,1
972,972,-0.6914069261493314,-0.7,0.0,1.0,404.0,646.0,1.0,0,150.0,1
973,973,0.2274670296137019,0.2,1.0,1.0,398.0,761.0,1.0,1,1241.0,1
974,974,-0.4791636919494933,-0.5,1.0,0.0,470.0,606.0,0.0,0,974.0,1
975,975,0.06200249882017628,0.1,0.0,0.0,485.0,797.0,0.0,1,1228.0,1
976,976,0.10804725524767422,0.1,1.0,1.0,346.0,828.0,1.0,1,6.0,1
977,977,0.4176098015438817,0.4,0.0,0.0,367.0,849.0,0.0,1,914.0,1
978,978,0.6280336543254857,0.6,1.0,1.0,309.0,807.0,1.0,1,254.0,1
979,979,0.5256287096802456,0.5,1.0,1.0,494.0,634.0,1.0,1,162.0,1
980,980,-0.7542973333639991,-0.8,0.0,1.0,266.0,890.0,1.0,0,264.0,1
981,981,-0.6613986881858106,-0.7,1.0,0.0,446.0,690.0,0.0,0,954.0,1
982,982,-0.8137676145361098,-0.8,0.0,1.0,429.0,816.0,1.0,0,135.0,1
983,983,-0.6545891204915817,-0.7,1.0,0.0,355.0,622.0,0.0,0,963.0,1
984,984,0.012809164129776729,0.0,1.0,1.0,385.0,969.0,1.0,1,1376.0,1
985,985,-0.6204617501345915,-0.6,0.0,1.0,479.0,808.0,1.0,0,213.0,1
986,986,0.6699702020375834,0.7,1.0,1.0,380.0,776.0,1.0,1,174.0,1
987,987,0.17090369800924166,0.2,1.0,1.0,267.0,830.0,1.0,1,713.0,1
988,988,0.8054430411718937,0.8,1.0,1.0,482.0,723.0,1.0,1,125.0,1
989,989,0.31575282579014374,0.3,1.0,1.0,270.0,669.0,1.0,1,781.0,1
990,990,0.5355640905345646,0.5,0.0,0.0,459.0,933.0,0.0,1,658.0,1
991,991,0.3182023910484456,0.3,1.0,1.0,451.0,640.0,1.0,1,519.0,1
992,992,0.4694725907964469,0.5,1.0,1.0,438.0,746.0,1.0,1,476.0,1
993,993,-0.8129401519474808,-0.8,0.0,1.0,379.0,958.0,1.0,0,403.0,1
994,994,-0.45293733895595256,-0.5,0.0,1.0,325.0,694.0,1.0,0,351.0,1
995,995,0.24217718531147125,0.2,0.0,0.0,335.0,765.0,1.0,0,80.0,0
996,996,0.3157420086388031,0.3,1.0,1.0,452.0,573.0,1.0,1,135.0,1
997,997,-0.7638641555396916,-0.8,0.0,1.0,498.0,621.0,1.0,0,151.0,1
998,998,-0.8334647543889471,-0.8,0.0,1.0,426.0,891.0,1.0,0,3.0,1
999,999,0.6507786362621407,0.7,0.0,0.0,272.0,704.0,0.0,1,184.0,1
1000,1000,-0.4400485383510473,-0.4,1.0,0.0,397.0,717.0,1.0,1,-154.0,0
1001,1001,0.03965318072669444,0.0,1.0,1.0,455.0,997.0,1.0,1,68.0,1
1002,1002,0.3645931917031461,0.4,0.0,0.0,441.0,502.0,0.0,1,317.0,1
1003,1003,0.5834692251914305,0.6,0.0,0.0,321.0,970.0,0.0,1,-181.0,1
1004,1004,-0.3806888407476171,-0.4,0.0,1.0,419.0,938.0,1.0,0,933.0,1
1005,1005,-0.8839520198361107,-0.9,1.0,0.0,494.0,895.0,0.0,0,571.0,1
1006,1006,-0.029993591390742425,-0.0,0.0,1.0,274.0,597.0,1.0,0,1119.0,1
1007,1007,0.48629504898374265,0.5,0.0,0.0,433.0,838.0,0.0,1,889.0,1
1008,1008,-0.45378681622056377,-0.5,0.0,1.0,394.0,725.0,1.0,0,131.0,1
1009,1009,-0.28311233852809914,-0.3,0.0,1.0,487.0,658.0,1.0,0,175.0,1
1010,1010,0.14076841231287285,0.1,0.0,0.0,296.0,827.0,0.0,1,3877.0,1
1011,1011,0.5095257144632653,0.5,0.0,0.0,491.0,902.0,0.0,1,647.0,1
1012,1012,0.2578637159292826,0.3,1.0,1.0,322.0,778.0,1.0,1,680.0,1
1013,1013,0.08790085034940598,0.1,1.0,1.0,317.0,822.0,1.0,1,1751.0,1
1014,1014,0.7449228743592008,0.7,1.0,1.0,370.0,582.0,1.0,1,438.0,1
1015,1015,-0.001291759093012268,-0.0,1.0,0.0,307.0,846.0,1.0,1,347.0,0
1016,1016,-0.09946506582982373,-0.1,1.0,0.0,266.0,940.0,1.0,1,3794.0,0
1017,1017,-0.5897360263836998,-0.6,1.0,0.0,297.0,664.0,0.0,0,1409.0,1
1018,1018,0.7184102758298302,0.7,0.0,0.0,386.0,522.0,0.0,1,392.0,1
1019,1019,-0.6417904637201108,-0.6,0.0,1.0,422.0,988.0,1.0,0,380.0,1
1020,1020,-0.7621836629255375,-0.8,0.0,1.0,380.0,999.0,0.0,1,-309.0,0
1021,1021,0.16004685473881397,0.2,1.0,1.0,462.0,944.0,1.0,1,394.0,1
1022,1022,0.7754870788213891,0.8,0.0,0.0,381.0,930.0,0.0,1,-191.0,1
1023,1023,-0.8696342179365514,-0.9,1.0,0.0,403.0,831.0,0.0,0,336.0,1
1024,1024,-0.027543877072761402,-0.0,1.0,0.0,336.0,747.0,1.0,1,3917.0,0
1025,1025,0.6046190769850378,0.6,0.0,0.0,400.0,747.0,0.0,1,1153.0,1
1026,1026,0.36989400233920045,0.4,1.0,1.0,281.0,789.0,1.0,1,230.0,1
1027,1027,0.1650399304437714,0.2,0.0,0.0,320.0,651.0,1.0,0,4029.0,0
1028,1028,0.6877298975061278,0.7,1.0,1.0,315.0,917.0,1.0,1,108.0,1
1029,1029,0.4048384079729318,0.4,1.0,1.0,494.0,776.0,1.0,1,800.0,1
1030,1030,0.5433169955927789,0.5,1.0,1.0,403.0,821.0,1.0,1,316.0,1
1031,1031,-0.07062681360228762,-0.1,1.0,0.0,400.0,981.0,1.0,1,3619.0,0
1032,1032,-0.7190774442602827,-0.7,0.0,1.0,322.0,964.0,1.0,0,214.0,1
1033,1033,-0.8693673742305044,-0.9,0.0,1.0,343.0,925.0,1.0,0,752.0,1
1034,1034,-0.2140857308548687,-0.2,1.0,0.0,390.0,996.0,0.0,0,2894.0,1
1035,1035,-0.6259673561079233,-0.6,1.0,0.0,485.0,780.0,0.0,0,1145.0,1
1036,1036,-0.2368175635065305,-0.2,1.0,0.0,390.0,847.0,0.0,0,3763.0,1
1037,1037,-0.6121866640058153,-0.6,0.0,1.0,462.0,836.0,1.0,0,142.0,1
1038,1038,-0.03212839387697508,-0.0,0.0,1.0,326.0,705.0,1.0,0,3619.0,1
1039,1039,0.5346069936262204,0.5,0.0,0.0,430.0,539.0,0.0,1,501.0,1
1040,1040,-0.3590181984604659,-0.4,1.0,0.0,264.0,907.0,0.0,0,439.0,1
1041,1041,0.2659284790429365,0.3,0.0,0.0,440.0,778.0,1.0,0,92.0,0
1042,1042,0.06740119534522693,0.1,0.0,0.0,319.0,892.0,1.0,0,2979.0,0
1043,1043,0.10082120830254737,0.1,0.0,0.0,398.0,796.0,1.0,0,3806.0,0
1044,1044,-0.7849299128791546,-0.8,1.0,0.0,412.0,825.0,0.0,0,663.0,1
1045,1045,0.6586854643790244,0.7,1.0,1.0,442.0,915.0,1.0,1,433.0,1
1046,1046,-0.11704200714142388,-0.1,1.0,0.0,318.0,950.0,0.0,0,3732.0,1
1047,1047,-0.18881716609884702,-0.2,1.0,0.0,304.0,741.0,0.0,0,3955.0,1
1048,1048,-0.6574282747348354,-0.7,1.0,0.0,332.0,907.0,0.0,0,641.0,1
1049,1049,-0.04381611261091922,-0.0,1.0,0.0,271.0,591.0,1.0,1,498.0,0
1050,1050,-0.5635762621656742,-0.6,1.0,0.0,252.0,654.0,0.0,0,1044.0,1
1051,1051,0.732243297425699,0.7,0.0,0.0,471.0,725.0,0.0,1,534.0,1
1052,1052,-0.45446400114403795,-0.5,1.0,0.0,429.0,786.0,0.0,0,675.0,1
1053,1053,0.7628149933719289,0.8,0.0,0.0,319.0,581.0,1.0,0,-90.0,0
1054,1054,-0.7833962089352984,-0.8,0.0,1.0,426.0,683.0,1.0,0,541.0,1
1055,1055,-0.26918397460948496,-0.3,0.0,1.0,436.0,748.0,1.0,0,1476.0,1
1056,1056,-0.03570156387066348,-0.0,1.0,0.0,437.0,863.0,1.0,1,3700.0,0
1057,1057,-0.24086250247968988,-0.2,0.0,1.0,344.0,578.0,1.0,0,1238.0,1
1058,1058,0.036006991778542385,0.0,1.0,1.0,407.0,946.0,1.0,1,1427.0,1
1059,1059,0.16727751215121678,0.2,0.0,0.0,385.0,947.0,1.0,0,428.0,0
1060,1060,0.38507334948955363,0.4,0.0,0.0,418.0,558.0,0.0,1,834.0,1
1061,1061,-0.24491620243052614,-0.2,1.0,0.0,339.0,948.0,1.0,1,-467.0,0
1062,1062,0.8882611398968795,0.9,0.0,0.0,274.0,806.0,0.0,1,370.0,1
1063,1063,-0.4181043552330077,-0.4,0.0,1.0,457.0,526.0,1.0,0,327.0,1
1064,1064,0.8586672970910597,0.9,1.0,1.0,471.0,922.0,1.0,1,797.0,1
1065,1065,-0.7356795174667925,-0.7,1.0,0.0,308.0,500.0,0.0,0,1282.0,1
1066,1066,0.5116554772925911,0.5,0.0,0.0,429.0,982.0,0.0,1,579.0,1
1067,1067,0.4743145746730736,0.5,1.0,1.0,308.0,812.0,1.0,1,220.0,1
1068,1068,-0.39711540727987993,-0.4,1.0,0.0,383.0,754.0,0.0,0,3013.0,1
1069,1069,-0.8909074756309379,-0.9,0.0,1.0,429.0,525.0,1.0,0,126.0,1
1070,1070,0.20779929962152688,0.2,0.0,0.0,338.0,840.0,1.0,0,2932.0,0
1071,1071,0.8379687194210338,0.8,0.0,0.0,356.0,852.0,0.0,1,422.0,1
1072,1072,-0.6550499808224765,-0.7,1.0,0.0,465.0,697.0,0.0,0,2748.0,1
1073,1073,0.7051229723535467,0.7,1.0,1.0,306.0,806.0,1.0,1,428.0,1
1074,1074,-0.8060874137957705,-0.8,1.0,0.0,442.0,840.0,1.0,1,-312.0,0
1075,1075,0.44564402321150365,0.4,0.0,0.0,317.0,525.0,0.0,1,828.0,1
1076,1076,0.301499939252473,0.3,0.0,0.0,477.0,850.0,0.0,1,1863.0,1
1077,1077,-0.1884516530671949,-0.2,0.0,1.0,408.0,549.0,1.0,0,1103.0,1
1078,1078,-0.7173478021319317,-0.7,0.0,1.0,262.0,647.0,1.0,0,821.0,1
1079,1079,-0.3871641005128499,-0.4,1.0,0.0,397.0,876.0,0.0,0,2427.0,1
1080,1080,-0.6616729307381076,-0.7,1.0,0.0,318.0,614.0,0.0,0,768.0,1
1081,1081,0.5548952117293883,0.6,0.0,0.0,417.0,839.0,0.0,1,244.0,1
1082,1082,-0.5753504531520274,-0.6,0.0,1.0,394.0,619.0,1.0,0,647.0,1
1083,1083,0.7508590585508027,0.8,0.0,0.0,421.0,557.0,0.0,1,272.0,1
1084,1084,-0.7888989292814353,-0.8,1.0,0.0,282.0,833.0,0.0,0,725.0,1
1085,1085,0.5479886811936315,0.5,1.0,1.0,285.0,670.0,1.0,1,-85.0,1
1086,1086,0.7286078529825123,0.7,1.0,1.0,429.0,672.0,1.0,1,849.0,1
1087,1087,-0.27719340725175734,-0.3,1.0,0.0,301.0,614.0,0.0,0,3425.0,1
1088,1088,0.7361121631045348,0.7,1.0,1.0,478.0,957.0,1.0,1,115.0,1
1089,1089,-0.7002204331054377,-0.7,0.0,1.0,454.0,994.0,1.0,0,92.0,1
1090,1090,0.8401633782208658,0.8,1.0,1.0,489.0,565.0,1.0,1,346.0,1
1091,1091,0.29388224851950306,0.3,1.0,1.0,298.0,819.0,1.0,1,273.0,1
1092,1092,-0.2479788884179055,-0.2,0.0,1.0,307.0,866.0,1.0,0,597.0,1
1093,1093,-0.8627857278967674,-0.9,1.0,0.0,342.0,805.0,0.0,0,803.0,1
1094,1094,0.5514285106947344,0.6,0.0,0.0,336.0,993.0,0.0,1,551.0,1
1095,1095,-0.17124539630224733,-0.2,0.0,1.0,356.0,605.0,1.0,0,1349.0,1
1096,1096,-0.6157068626702955,-0.6,0.0,1.0,323.0,745.0,1.0,0,832.0,1
1097,1097,-0.13967380740529878,-0.1,1.0,0.0,308.0,843.0,0.0,0,629.0,1
1098,1098,-0.7377510752039291,-0.7,1.0,0.0,391.0,974.0,0.0,0,405.0,1
1099,1099,-0.08820985064865527,-0.1,1.0,0.0,437.0,717.0,1.0,1,3846.0,0
1100,1100,0.14822440812468918,0.1,1.0,1.0,461.0,905.0,1.0,1,1834.0,1
1101,1101,-0.8233076262371787,-0.8,1.0,0.0,302.0,633.0,0.0,0,395.0,1
1102,1102,0.784285899178531,0.8,1.0,1.0,403.0,535.0,1.0,1,732.0,1
1103,1103,0.21617140373442167,0.2,0.0,0.0,417.0,647.0,1.0,0,-14.0,0
1104,1104,0.1751898430664568,0.2,1.0,1.0,360.0,523.0,1.0,1,1407.0,1
1105,1105,-0.3181371990748326,-0.3,0.0,1.0,444.0,898.0,1.0,0,408.0,1
1106,1106,0.5732139198585494,0.6,0.0,0.0,419.0,577.0,0.0,1,394.0,1
1107,1107,0.610750830710363,0.6,0.0,0.0,356.0,720.0,0.0,1,354.0,1
1108,1108,0.30151977150317555,0.3,1.0,1.0,464.0,561.0,1.0,1,175.0,1
1109,1109,0.5718115078694442,0.6,0.0,0.0,314.0,932.0,0.0,1,714.0,1
1110,1110,0.039711033661896655,0.0,0.0,0.0,378.0,666.0,1.0,0,1036.0,0
1111,1111,0.6352821699190446,0.6,1.0,1.0,391.0,694.0,1.0,1,265.0,1
1112,1112,-0.2712865113165126,-0.3,1.0,0.0,314.0,649.0,0.0,0,847.0,1
1113,1113,0.4709999751478292,0.5,0.0,0.0,416.0,854.0,0.0,1,530.0,1
1114,1114,0.38072766712499095,0.4,0.0,0.0,279.0,599.0,0.0,1,1172.0,1
1115,1115,-0.6047850369633185,-0.6,1.0,0.0,256.0,876.0,1.0,1,-392.0,0
1116,1116,-0.6851500767016874,-0.7,0.0,1.0,320.0,647.0,1.0,0,673.0,1
1117,1117,-0.5134171150914981,-0.5,0.0,1.0,288.0,604.0,1.0,0,138.0,1
1118,1118,-0.6060442344830579,-0.6,0.0,1.0,494.0,912.0,1.0,0,404.0,1
1119,1119,0.7960324188307574,0.8,1.0,1.0,469.0,632.0,1.0,1,609.0,1
1120,1120,-0.4756585309841493,-0.5,0.0,1.0,447.0,816.0,1.0,0,327.0,1
1121,1121,-0.6349309115669157,-0.6,0.0,1.0,473.0,615.0,1.0,0,512.0,1
1122,1122,0.533298520948778,0.5,1.0,1.0,308.0,789.0,1.0,1,233.0,1
1123,1123,-0.630387257957501,-0.6,1.0,0.0,254.0,791.0,0.0,0,645.0,1
1124,1124,-0.40198337848483984,-0.4,1.0,0.0,415.0,567.0,0.0,0,3498.0,1
1125,1125,-0.26762605589970956,-0.3,1.0,0.0,481.0,870.0,0.0,0,1369.0,1
1126,1126,-0.8587453926013162,-0.9,1.0,0.0,269.0,973.0,0.0,0,668.0,1
1127,1127,-0.7561021126094382,-0.8,1.0,0.0,354.0,970.0,0.0,0,-594.0,1
1128,1128,0.7988135292881532,0.8,1.0,1.0,434.0,967.0,1.0,1,119.0,1
1129,1129,-0.46274169328478093,-0.5,0.0,1.0,447.0,691.0,1.0,0,582.0,1
1130,1130,-0.7911850232749911,-0.8,1.0,0.0,298.0,524.0,0.0,0,528.0,1
1131,1131,-0.49371394847552214,-0.5,1.0,0.0,352.0,975.0,0.0,0,913.0,1
1132,1132,0.09939226542538415,0.1,0.0,0.0,378.0,572.0,0.0,1,4040.0,1
1133,1133,0.4395782527480877,0.4,0.0,0.0,483.0,553.0,0.0,1,674.0,1
1134,1134,-0.7321050149803412,-0.7,1.0,0.0,279.0,979.0,1.0,1,-378.0,0
1135,1135,-0.029678999445329257,-0.0,0.0,1.0,416.0,658.0,1.0,0,2776.0,1
1136,1136,0.8647930402273826,0.9,0.0,0.0,485.0,600.0,0.0,1,435.0,1
1137,1137,-0.42428411496123236,-0.4,1.0,0.0,412.0,579.0,0.0,0,2499.0,1
1138,1138,-0.8587584789031417,-0.9,0.0,1.0,408.0,893.0,1.0,0,529.0,1
1139,1139,-0.7188744308542322,-0.7,0.0,1.0,485.0,721.0,1.0,0,544.0,1
1140,1140,0.771910544817698,0.8,1.0,1.0,384.0,572.0,1.0,1,314.0,1
1141,1141,-0.18269587072205473,-0.2,0.0,1.0,369.0,932.0,1.0,0,2839.0,1
1142,1142,0.8527827446378721,0.9,1.0,1.0,437.0,756.0,1.0,1,107.0,1
1143,1143,-0.5517708603881946,-0.6,0.0,1.0,334.0,711.0,1.0,0,335.0,1
1144,1144,0.6707247975043414,0.7,1.0,1.0,384.0,787.0,1.0,1,259.0,1
1145,1145,0.5306109092543848,0.5,0.0,0.0,472.0,760.0,0.0,1,738.0,1
1146,1146,0.17378712995203427,0.2,0.0,0.0,252.0,871.0,0.0,1,3137.0,1
1147,1147,-0.5205457353053162,-0.5,0.0,1.0,275.0,709.0,1.0,0,406.0,1
1148,1148,0.08150475802029233,0.1,1.0,1.0,320.0,671.0,1.0,1,549.0,1
1149,1149,-0.3469819361923949,-0.3,1.0,0.0,358.0,757.0,0.0,0,3885.0,1
1150,1150,0.6526887371276494,0.7,1.0,1.0,298.0,832.0,1.0,1,340.0,1
1151,1151,0.8412094343998239,0.8,0.0,0.0,271.0,998.0,0.0,1,581.0,1
1152,1152,0.35285645177602765,0.4,0.0,0.0,335.0,720.0,0.0,1,1645.0,1
1153,1153,0.34058258588576995,0.3,1.0,1.0,473.0,598.0,1.0,1,389.0,1
1154,1154,-0.38348345050211885,-0.4,1.0,0.0,298.0,878.0,0.0,0,484.0,1
1155,1155,-0.8462464495062252,-0.8,1.0,0.0,253.0,707.0,0.0,0,460.0,1
1156,1156,0.30525913930986126,0.3,0.0,0.0,357.0,622.0,0.0,1,1951.0,1
1157,1157,-0.6843965460419612,-0.7,1.0,0.0,349.0,515.0,0.0,0,1056.0,1
1158,1158,0.8767580069876778,0.9,1.0,1.0,436.0,704.0,1.0,1,260.0,1
1159,1159,0.10819920877623457,0.1,1.0,1.0,367.0,619.0,1.0,1,844.0,1
1160,1160,-0.08324501173318077,-0.1,0.0,1.0,350.0,783.0,1.0,0,1237.0,1
1161,1161,0.5145864761428268,0.5,1.0,1.0,256.0,663.0,1.0,1,201.0,1
1162,1162,0.4837564897760266,0.5,1.0,1.0,356.0,843.0,1.0,1,101.0,1
1163,1163,0.46701747399346305,0.5,0.0,0.0,296.0,601.0,0.0,1,643.0,1
1164,1164,-0.5566203052656997,-0.6,1.0,0.0,338.0,910.0,0.0,0,792.0,1
1165,1165,0.6447835159476739,0.6,1.0,1.0,305.0,573.0,1.0,1,-128.0,1
1166,1166,0.6327419082307372,0.6,1.0,1.0,343.0,801.0,1.0,1,146.0,1
1167,1167,0.07724307969655664,0.1,0.0,0.0,269.0,922.0,0.0,1,-531.0,1
1168,1168,0.03267180503410183,0.0,1.0,1.0,386.0,772.0,1.0,1,3842.0,1
1169,1169,-0.7393741877648827,-0.7,0.0,1.0,285.0,631.0,1.0,0,114.0,1
1170,1170,0.5535238881512411,0.6,0.0,0.0,278.0,996.0,0.0,1,1336.0,1
1171,1171,-0.26061407911103807,-0.3,1.0,0.0,333.0,830.0,0.0,0,3837.0,1
1172,1172,0.32930203356303267,0.3,0.0,0.0,266.0,962.0,1.0,0,-298.0,0
1173,1173,-0.6409938039254045,-0.6,0.0,1.0,329.0,501.0,1.0,0,180.0,1
1174,1174,0.03370580311897309,0.0,0.0,0.0,269.0,916.0,1.0,0,-225.0,0
1175,1175,0.059953294550265435,0.1,0.0,0.0,335.0,864.0,1.0,0,-139.0,0
1176,1176,-0.14485301063945866,-0.1,1.0,0.0,415.0,772.0,0.0,0,1033.0,1
1177,1177,-0.5157120039696848,-0.5,0.0,1.0,306.0,542.0,1.0,0,1422.0,1
1178,1178,0.8090471864662242,0.8,0.0,0.0,372.0,882.0,0.0,1,226.0,1
1179,1179,0.8027245489942677,0.8,1.0,1.0,291.0,529.0,1.0,1,260.0,1
1180,1180,0.6908765116635459,0.7,0.0,0.0,441.0,605.0,0.0,1,454.0,1
1181,1181,-0.6475191617425712,-0.6,1.0,0.0,405.0,910.0,0.0,0,295.0,1
1182,1182,-0.19725582412443476,-0.2,0.0,1.0,306.0,846.0,1.0,0,438.0,1
1183,1183,-0.8381427958561388,-0.8,0.0,1.0,367.0,595.0,1.0,0,218.0,1
1184,1184,0.009242310947038312,0.0,1.0,1.0,352.0,571.0,0.0,0,3057.0,0
1185,1185,0.6452276011600596,0.6,1.0,1.0,307.0,847.0,1.0,1,36.0,1
1186,1186,-0.569352088712944,-0.6,0.0,1.0,329.0,978.0,1.0,0,363.0,1
1187,1187,0.16049293673487675,0.2,1.0,1.0,398.0,547.0,1.0,1,605.0,1
1188,1188,-0.5481148435500933,-0.5,0.0,1.0,488.0,675.0,1.0,0,1567.0,1
1189,1189,-0.020194918516344584,-0.0,1.0,0.0,303.0,783.0,1.0,1,544.0,0
1190,1190,0.28312343338909274,0.3,1.0,1.0,307.0,917.0,1.0,1,146.0,1
1191,1191,0.5266697968276394,0.5,1.0,1.0,351.0,720.0,1.0,1,209.0,1
1192,1192,-0.6200782155110238,-0.6,0.0,1.0,430.0,565.0,1.0,0,315.0,1
1193,1193,0.15975714990105228,0.2,1.0,1.0,322.0,721.0,1.0,1,947.0,1
1194,1194,-0.38017891260873815,-0.4,0.0,1.0,487.0,781.0,1.0,0,622.0,1
1195,1195,-0.2133836734558613,-0.2,1.0,0.0,402.0,593.0,0.0,0,2455.0,1
1196,1196,0.37804880509086736,0.4,1.0,1.0,282.0,507.0,1.0,1,731.0,1
1197,1197,0.005449902963809428,0.0,0.0,0.0,368.0,678.0,0.0,1,244.0,1
1198,1198,-0.19291707321104745,-0.2,0.0,1.0,473.0,726.0,1.0,0,-69.0,1
1199,1199,0.25483935830380544,0.3,1.0,1.0,498.0,790.0,1.0,1,2142.0,1
1200,1200,0.21445942085383962,0.2,0.0,0.0,268.0,979.0,0.0,1,933.0,1
1201,1201,-0.5727710945729445,-0.6,0.0,1.0,441.0,705.0,1.0,0,-406.0,1
1202,1202,-0.4030516920809056,-0.4,0.0,1.0,354.0,560.0,1.0,0,316.0,1
1203,1203,0.3217598188520777,0.3,1.0,1.0,267.0,791.0,1.0,1,762.0,1
1204,1204,0.7005210481172021,0.7,1.0,1.0,437.0,971.0,1.0,1,162.0,1
1205,1205,-0.1554007129640821,-0.2,0.0,1.0,428.0,895.0,1.0,0,767.0,1
1206,1206,0.847191272063251,0.8,1.0,1.0,428.0,887.0,1.0,1,145.0,1
1207,1207,-0.4535300467329323,-0.5,0.0,1.0,402.0,961.0,1.0,0,387.0,1
1208,1208,-0.5709521335753158,-0.6,1.0,0.0,489.0,521.0,0.0,0,650.0,1
1209,1209,-0.3868497759376287,-0.4,0.0,1.0,384.0,956.0,1.0,0,390.0,1
1210,1210,-0.2856122154522228,-0.3,0.0,1.0,442.0,614.0,1.0,0,764.0,1
1211,1211,0.26513423013681237,0.3,0.0,0.0,386.0,835.0,1.0,0,-241.0,0
1212,1212,-0.44705103964273335,-0.4,1.0,0.0,475.0,733.0,0.0,0,542.0,1
1213,1213,0.3780224729311633,0.4,1.0,1.0,397.0,808.0,1.0,1,565.0,1
1214,1214,0.41205677208846014,0.4,0.0,0.0,490.0,908.0,0.0,1,1092.0,1
1215,1215,-0.7146364953311436,-0.7,1.0,0.0,456.0,925.0,1.0,1,-111.0,0
1216,1216,-0.11694982402096199,-0.1,1.0,0.0,342.0,796.0,1.0,1,-8.0,0
1217,1217,0.6337313597824655,0.6,1.0,1.0,393.0,756.0,1.0,1,101.0,1
1218,1218,-0.045724728452680385,-0.0,0.0,1.0,439.0,509.0,1.0,0,442.0,1
1219,1219,0.37890581967267944,0.4,0.0,0.0,482.0,534.0,0.0,1,344.0,1
1220,1220,0.46858189168887476,0.5,1.0,1.0,425.0,726.0,1.0,1,139.0,1
1221,1221,0.552470013555623,0.6,1.0,1.0,357.0,560.0,1.0,1,193.0,1
1222,1222,0.589855833853881,0.6,1.0,1.0,463.0,904.0,1.0,1,703.0,1
1223,1223,0.7883585877436651,0.8,0.0,0.0,251.0,679.0,1.0,0,-180.0,0
1224,1224,-0.7420519493038837,-0.7,1.0,0.0,353.0,609.0,0.0,0,698.0,1
1225,1225,-0.2045727320095473,-0.2,1.0,0.0,282.0,638.0,1.0,1,1260.0,0
1226,1226,0.058441793441317835,0.1,1.0,1.0,344.0,982.0,1.0,1,894.0,1
1227,1227,0.46526318325897653,0.5,0.0,0.0,296.0,544.0,0.0,1,1490.0,1
1228,1228,-0.13445838598550075,-0.1,0.0,1.0,323.0,604.0,1.0,0,3623.0,1
1229,1229,0.33341584084202147,0.3,0.0,0.0,379.0,889.0,0.0,1,162.0,1
1230,1230,-0.896968078396623,-0.9,0.0,1.0,262.0,860.0,1.0,0,638.0,1
1231,1231,0.0017417670545583075,0.0,1.0,1.0,257.0,819.0,1.0,1,1844.0,1
1232,1232,0.6411173103426157,0.6,0.0,0.0,379.0,828.0,0.0,1,783.0,1
1233,1233,0.4441504861689979,0.4,0.0,0.0,274.0,819.0,1.0,0,527.0,0
1234,1234,0.19850223279445378,0.2,0.0,0.0,251.0,560.0,0.0,1,1209.0,1
1235,1235,0.7144420142222617,0.7,1.0,1.0,466.0,739.0,1.0,1,305.0,1
1236,1236,0.13522431502261767,0.1,0.0,0.0,302.0,698.0,0.0,1,2640.0,1
1237,1237,0.4264102795503101,0.4,0.0,0.0,373.0,687.0,0.0,1,570.0,1
1238,1238,-0.7132318028735152,-0.7,1.0,0.0,495.0,604.0,0.0,0,781.0,1
1239,1239,-0.8054566221513209,-0.8,0.0,1.0,313.0,565.0,1.0,0,22.0,1
1240,1240,0.3935011158863658,0.4,1.0,1.0,426.0,881.0,1.0,1,603.0,1
1241,1241,-0.6339058002370472,-0.6,1.0,0.0,360.0,704.0,0.0,0,796.0,1
1242,1242,-0.5892071582831897,-0.6,0.0,1.0,303.0,937.0,1.0,0,120.0,1
1243,1243,-0.4791341806117304,-0.5,0.0,1.0,413.0,582.0,1.0,0,335.0,1
1244,1244,-0.8249864266710575,-0.8,0.0,1.0,277.0,649.0,1.0,0,-246.0,1
1245,1245,0.6475710189841656,0.6,1.0,1.0,359.0,724.0,1.0,1,437.0,1
1246,1246,-0.06233045444668317,-0.1,1.0,0.0,353.0,608.0,1.0,1,4039.0,0
1247,1247,-0.5011733893373884,-0.5,1.0,0.0,401.0,930.0,0.0,0,1609.0,1
1248,1248,0.6729524208458156,0.7,1.0,1.0,291.0,858.0,1.0,1,331.0,1
1249,1249,-0.017630704368530314,-0.0,1.0,0.0,353.0,706.0,1.0,1,611.0,0
1250,1250,-0.44648034837912126,-0.4,0.0,1.0,407.0,904.0,0.0,1,-371.0,0
1251,1251,0.38344033264223565,0.4,1.0,1.0,404.0,815.0,1.0,1,461.0,1
1252,1252,0.44206148870148654,0.4,1.0,1.0,424.0,650.0,1.0,1,296.0,1
1253,1253,0.8423800480516429,0.8,0.0,0.0,440.0,690.0,0.0,1,940.0,1
1254,1254,0.5398339833354361,0.5,1.0,1.0,317.0,832.0,1.0,1,281.0,1
1255,1255,-0.3117756324679736,-0.3,1.0,0.0,271.0,604.0,0.0,0,925.0,1
1256,1256,0.09282856246216442,0.1,0.0,0.0,495.0,685.0,0.0,1,580.0,1
1257,1257,-0.151725379215785,-0.2,0.0,1.0,427.0,750.0,1.0,0,1133.0,1
1258,1258,-0.8959477899182314,-0.9,0.0,1.0,335.0,563.0,1.0,0,202.0,1
1259,1259,-0.2697207816379662,-0.3,1.0,0.0,342.0,845.0,0.0,0,1213.0,1
1260,1260,0.3137964603619484,0.3,0.0,0.0,442.0,747.0,0.0,1,791.0,1
1261,1261,0.8931552194316178,0.9,1.0,1.0,483.0,681.0,1.0,1,356.0,1
1262,1262,-0.04503986790227499,-0.0,0.0,1.0,387.0,858.0,1.0,0,275.0,1
1263,1263,0.14762161130929485,0.1,0.0,0.0,457.0,910.0,1.0,0,3633.0,0
1264,1264,0.85261626497121,0.9,1.0,1.0,390.0,727.0,1.0,1,353.0,1
1265,1265,-0.23531841418978094,-0.2,0.0,1.0,464.0,678.0,1.0,0,548.0,1
1266,1266,-0.513083848574822,-0.5,1.0,0.0,452.0,559.0,0.0,0,539.0,1
1267,1267,0.5625584060952361,0.6,1.0,1.0,382.0,941.0,1.0,1,387.0,1
1268,1268,-0.7784240640134059,-0.8,0.0,1.0,423.0,877.0,1.0,0,430.0,1
1269,1269,0.33768261822619705,0.3,0.0,0.0,354.0,578.0,0.0,1,1868.0,1
1270,1270,0.8362564405368115,0.8,1.0,1.0,281.0,712.0,1.0,1,177.0,1
1271,1271,0.4637769582718735,0.5,0.0,0.0,366.0,521.0,0.0,1,763.0,1
1272,1272,-0.2923408414596984,-0.3,1.0,0.0,460.0,674.0,0.0,0,2896.0,1
1273,1273,-0.02229253213980298,-0.0,1.0,0.0,472.0,701.0,0.0,0,3827.0,1
1274,1274,0.18984311687681898,0.2,1.0,1.0,438.0,768.0,1.0,1,-276.0,1
1275,1275,-0.09632901444315045,-0.1,1.0,0.0,471.0,746.0,1.0,1,3783.0,0
1276,1276,-0.2920746292734243,-0.3,0.0,1.0,369.0,974.0,1.0,0,567.0,1
1277,1277,0.6498627492177703,0.6,0.0,0.0,394.0,843.0,0.0,1,473.0,1
1278,1278,0.5625788910686208,0.6,0.0,0.0,331.0,996.0,0.0,1,473.0,1
1279,1279,0.6009060335242701,0.6,0.0,0.0,272.0,924.0,0.0,1,484.0,1
1280,1280,-0.6141029879989952,-0.6,0.0,1.0,384.0,510.0,1.0,0,66.0,1
1281,1281,0.5463375236242388,0.5,1.0,1.0,401.0,892.0,1.0,1,537.0,1
1282,1282,-0.4116191094277724,-0.4,0.0,1.0,255.0,526.0,1.0,0,729.0,1
1283,1283,-0.3935716170686294,-0.4,0.0,1.0,324.0,636.0,1.0,0,630.0,1
1284,1284,-0.07178774239743124,-0.1,0.0,1.0,428.0,674.0,1.0,0,1488.0,1
1285,1285,0.13216853183138022,0.1,0.0,0.0,352.0,785.0,0.0,1,1613.0,1
1286,1286,0.1277735153957199,0.1,0.0,0.0,473.0,743.0,1.0,0,1254.0,0
1287,1287,0.12680900104850334,0.1,1.0,1.0,430.0,833.0,1.0,1,447.0,1
1288,1288,0.698391928434729,0.7,1.0,1.0,307.0,875.0,1.0,1,298.0,1
1289,1289,0.7191096377124543,0.7,1.0,1.0,263.0,846.0,1.0,1,211.0,1
1290,1290,0.21364709956119265,0.2,1.0,1.0,379.0,623.0,1.0,1,708.0,1
1291,1291,0.260688988576104,0.3,1.0,1.0,453.0,805.0,1.0,1,252.0,1
1292,1292,0.42866555801214445,0.4,1.0,1.0,495.0,904.0,1.0,1,221.0,1
1293,1293,0.21821441885622683,0.2,0.0,0.0,335.0,932.0,0.0,1,693.0,1
1294,1294,0.6324990403028675,0.6,0.0,0.0,476.0,861.0,0.0,1,293.0,1
1295,1295,0.2976654900945922,0.3,0.0,0.0,497.0,752.0,0.0,1,461.0,1
1296,1296,0.672245957877217,0.7,1.0,1.0,252.0,861.0,1.0,1,527.0,1
1297,1297,0.29087179469566127,0.3,0.0,0.0,384.0,883.0,0.0,1,3233.0,1
1298,1298,-0.6049000646539392,-0.6,1.0,0.0,274.0,865.0,0.0,0,741.0,1
1299,1299,0.6432595175385488,0.6,0.0,0.0,316.0,781.0,0.0,1,633.0,1
1300,1300,0.6118428054648107,0.6,1.0,1.0,261.0,600.0,1.0,1,99.0,1
1301,1301,-0.32410513380412076,-0.3,0.0,1.0,264.0,937.0,1.0,0,1229.0,1
1302,1302,0.31322699925119435,0.3,0.0,0.0,423.0,577.0,0.0,1,2640.0,1
1303,1303,-0.6428954842495416,-0.6,0.0,1.0,351.0,660.0,1.0,0,629.0,1
1304,1304,0.3682327325083873,0.4,0.0,0.0,421.0,773.0,0.0,1,706.0,1
1305,1305,0.8187537008821136,0.8,0.0,0.0,419.0,819.0,0.0,1,422.0,1
1306,1306,0.6047104647462064,0.6,1.0,1.0,307.0,743.0,1.0,1,220.0,1
1307,1307,-0.8218437120472903,-0.8,1.0,0.0,320.0,969.0,0.0,0,791.0,1
1308,1308,-0.11738991194952775,-0.1,1.0,0.0,477.0,954.0,1.0,1,2369.0,0
1309,1309,0.2541371895142278,0.3,1.0,1.0,439.0,926.0,1.0,1,615.0,1
1310,1310,-0.4441740921341591,-0.4,0.0,1.0,483.0,509.0,1.0,0,248.0,1
1311,1311,-0.3979873950284939,-0.4,0.0,1.0,428.0,874.0,1.0,0,498.0,1
1312,1312,-0.2927897757315293,-0.3,1.0,0.0,479.0,677.0,0.0,0,3844.0,1
1313,1313,0.330666683592456,0.3,0.0,0.0,287.0,898.0,0.0,1,2285.0,1
1314,1314,-0.3150804587855671,-0.3,1.0,0.0,378.0,627.0,0.0,0,855.0,1
1315,1315,-0.4797801402653064,-0.5,1.0,0.0,321.0,590.0,0.0,0,719.0,1
1316,1316,0.09817783188662843,0.1,0.0,0.0,411.0,518.0,0.0,1,681.0,1
1317,1317,-0.7252711416127702,-0.7,1.0,0.0,387.0,629.0,0.0,0,444.0,1
1318,1318,-0.4480420861277301,-0.4,0.0,1.0,298.0,584.0,0.0,1,-132.0,0
1319,1319,-0.59399196807591,-0.6,1.0,0.0,485.0,662.0,0.0,0,853.0,1
1320,1320,-0.5497345618565298,-0.5,1.0,0.0,413.0,514.0,0.0,0,693.0,1
1321,1321,0.18895419332997399,0.2,1.0,1.0,263.0,840.0,1.0,1,687.0,1
1322,1322,-0.4003028449058223,-0.4,0.0,1.0,381.0,715.0,1.0,0,124.0,1
1323,1323,-0.248476819355682,-0.2,1.0,0.0,410.0,586.0,0.0,0,4004.0,1
1324,1324,0.7850560536218757,0.8,0.0,0.0,257.0,952.0,0.0,1,651.0,1
1325,1325,-0.440255370233928,-0.4,0.0,1.0,280.0,751.0,1.0,0,39.0,1
1326,1326,0.6191102897199393,0.6,0.0,0.0,315.0,966.0,1.0,0,-191.0,0
1327,1327,-0.6360194049210388,-0.6,0.0,1.0,346.0,692.0,1.0,0,102.0,1
1328,1328,0.0498364230758247,0.0,0.0,0.0,340.0,682.0,1.0,0,608.0,0
1329,1329,-0.4009525692782698,-0.4,1.0,0.0,425.0,923.0,1.0,1,-618.0,0
1330,1330,0.8282686174230428,0.8,1.0,1.0,330.0,619.0,1.0,1,141.0,1
1331,1331,0.4597228403647403,0.5,0.0,0.0,332.0,520.0,0.0,1,888.0,1
1332,1332,-0.4460226424388754,-0.4,1.0,0.0,444.0,624.0,0.0,0,2862.0,1
1333,1333,-0.2577134406223277,-0.3,1.0,0.0,340.0,700.0,0.0,0,3300.0,1
1334,1334,-0.39559641576971616,-0.4,1.0,0.0,493.0,674.0,1.0,1,23.0,0
1335,1335,0.29116978558203865,0.3,1.0,1.0,416.0,511.0,1.0,1,313.0,1
1336,1336,-0.799950589172568,-0.8,1.0,0.0,288.0,805.0,0.0,0,477.0,1
1337,1337,-0.6527910311365983,-0.7,1.0,0.0,281.0,726.0,0.0,0,243.0,1
1338,1338,0.8364070828584246,0.8,0.0,0.0,337.0,591.0,0.0,1,1042.0,1
1339,1339,-0.8262044823864609,-0.8,0.0,1.0,394.0,959.0,1.0,0,177.0,1
1340,1340,-0.40342083351518726,-0.4,0.0,1.0,397.0,528.0,1.0,0,1255.0,1
1341,1341,-0.13983519244614728,-0.1,0.0,1.0,377.0,812.0,1.0,0,821.0,1
1342,1342,0.8298958739351253,0.8,0.0,0.0,290.0,780.0,0.0,1,530.0,1
1343,1343,0.4774772188100628,0.5,0.0,0.0,429.0,781.0,1.0,0,-110.0,0
1344,1344,-0.12918553707853364,-0.1,1.0,0.0,452.0,711.0,0.0,0,1077.0,1
1345,1345,0.8218437223890421,0.8,1.0,1.0,318.0,884.0,1.0,1,188.0,1
1346,1346,-0.517170562648218,-0.5,0.0,1.0,354.0,678.0,1.0,0,1018.0,1
1347,1347,-0.3935882963703118,-0.4,0.0,1.0,257.0,966.0,1.0,0,1437.0,1
1348,1348,-0.31723651556771004,-0.3,1.0,0.0,487.0,758.0,1.0,1,-385.0,0
1349,1349,-0.5788829181764111,-0.6,0.0,1.0,480.0,565.0,1.0,0,125.0,1
1350,1350,0.6754495298742248,0.7,0.0,0.0,253.0,851.0,0.0,1,156.0,1
1351,1351,-0.47486679586173897,-0.5,1.0,0.0,285.0,522.0,1.0,1,-167.0,0
1352,1352,0.6105418817722011,0.6,0.0,0.0,312.0,538.0,0.0,1,280.0,1
1353,1353,-0.5428446200466156,-0.5,0.0,1.0,272.0,577.0,1.0,0,211.0,1
1354,1354,0.3000217537499491,0.3,1.0,1.0,329.0,974.0,1.0,1,127.0,1
1355,1355,0.8070635314503779,0.8,0.0,0.0,375.0,678.0,1.0,0,-143.0,0
1356,1356,-0.5367000747345232,-0.5,1.0,0.0,330.0,943.0,0.0,0,547.0,1
1357,1357,0.06341640569671059,0.1,0.0,0.0,441.0,714.0,1.0,0,805.0,0
1358,1358,-0.6694473182303815,-0.7,0.0,1.0,287.0,791.0,1.0,0,882.0,1
1359,1359,-0.4953306618733891,-0.5,1.0,0.0,294.0,616.0,0.0,0,330.0,1
1360,1360,-0.819990768724569,-0.8,1.0,0.0,310.0,886.0,0.0,0,454.0,1
1361,1361,-0.033637490749935606,-0.0,1.0,0.0,494.0,515.0,0.0,0,3001.0,1
1362,1362,-0.6446804609081377,-0.6,0.0,1.0,467.0,781.0,1.0,0,132.0,1
1363,1363,0.10368760349140371,0.1,1.0,1.0,454.0,713.0,1.0,1,2933.0,1
1364,1364,0.07901778778290802,0.1,0.0,0.0,324.0,679.0,1.0,0,3997.0,0
1365,1365,-0.8898187503133945,-0.9,0.0,1.0,275.0,690.0,1.0,0,165.0,1
1366,1366,-0.408318804036378,-0.4,0.0,1.0,278.0,818.0,0.0,1,-366.0,0
1367,1367,0.1517609495131237,0.2,0.0,0.0,474.0,876.0,0.0,1,1300.0,1
1368,1368,0.07864243627808765,0.1,0.0,0.0,442.0,666.0,1.0,0,3892.0,0
1369,1369,-0.42379067907844487,-0.4,1.0,0.0,253.0,922.0,0.0,0,3655.0,1
1370,1370,-0.6386283607811207,-0.6,1.0,0.0,285.0,711.0,0.0,0,1834.0,1
1371,1371,-0.349410017124403,-0.3,0.0,1.0,288.0,834.0,1.0,0,348.0,1
1372,1372,0.3328315306934958,0.3,1.0,1.0,410.0,945.0,1.0,1,915.0,1
1373,1373,-0.6964305918149322,-0.7,0.0,1.0,423.0,749.0,1.0,0,398.0,1
1374,1374,0.27515993252727744,0.3,0.0,0.0,394.0,774.0,1.0,0,32.0,0
1375,1375,0.5647054728854249,0.6,0.0,0.0,310.0,863.0,0.0,1,197.0,1
1376,1376,-0.005422625056176189,-0.0,1.0,0.0,425.0,779.0,1.0,1,1876.0,0
1377,1377,0.5645180106848494,0.6,1.0,1.0,417.0,628.0,1.0,1,165.0,1
1378,1378,0.7764699192398851,0.8,0.0,0.0,446.0,807.0,0.0,1,217.0,1
1379,1379,0.6404739032825176,0.6,1.0,1.0,414.0,666.0,1.0,1,-320.0,1
1380,1380,-0.18211883959316444,-0.2,0.0,1.0,397.0,920.0,1.0,0,-407.0,1
1381,1381,-0.06575876952355941,-0.1,1.0,0.0,263.0,890.0,1.0,1,3847.0,0
1382,1382,0.03127975752366785,0.0,1.0,1.0,264.0,918.0,1.0,1,968.0,1
1383,1383,0.6305654722990385,0.6,0.0,0.0,373.0,519.0,0.0,1,-362.0,1
1384,1384,0.20795472743923804,0.2,1.0,1.0,271.0,989.0,1.0,1,1670.0,1
1385,1385,0.7813028248107835,0.8,0.0,0.0,301.0,812.0,0.0,1,567.0,1
1386,1386,-0.15232672298075123,-0.2,1.0,0.0,332.0,502.0,1.0,1,636.0,0
1387,1387,-0.8442374398890702,-0.8,0.0,1.0,405.0,785.0,1.0,0,440.0,1
1388,1388,-0.1711108246776425,-0.2,0.0,1.0,270.0,834.0,1.0,0,1356.0,1
1389,1389,-0.5951881719176244,-0.6,1.0,0.0,490.0,604.0,0.0,0,1396.0,1
1390,1390,0.2489774028923074,0.2,1.0,1.0,257.0,953.0,1.0,1,650.0,1
1391,1391,-0.7209506405273127,-0.7,0.0,1.0,431.0,719.0,1.0,0,70.0,1
1392,1392,-0.6586454507991064,-0.7,0.0,1.0,323.0,965.0,1.0,0,232.0,1
1393,1393,-0.07594225796835519,-0.1,0.0,1.0,333.0,726.0,1.0,0,1961.0,1
1394,1394,0.2462935183168259,0.2,0.0,0.0,474.0,929.0,1.0,0,-13.0,0
1395,1395,-0.37092717621116467,-0.4,0.0,1.0,348.0,670.0,1.0,0,662.0,1
1396,1396,0.6137340523597693,0.6,0.0,0.0,296.0,513.0,1.0,0,-49.0,0
1397,1397,0.28649304029808664,0.3,1.0,1.0,261.0,873.0,1.0,1,2016.0,1
1398,1398,-0.19677739084871437,-0.2,0.0,1.0,262.0,599.0,1.0,0,799.0,1
1399,1399,-0.10253734321755903,-0.1,1.0,0.0,286.0,609.0,0.0,0,4105.0,1
1400,1400,0.8817414897949335,0.9,0.0,0.0,257.0,721.0,0.0,1,342.0,1
1401,1401,-0.16342022965044112,-0.2,0.0,1.0,325.0,980.0,1.0,0,675.0,1
1402,1402,0.6361676428325288,0.6,0.0,0.0,397.0,510.0,0.0,1,513.0,1
1403,1403,-0.13216188828201825,-0.1,0.0,1.0,378.0,895.0,1.0,0,617.0,1
1404,1404,0.028033445033360582,0.0,0.0,0.0,403.0,969.0,0.0,1,2108.0,1
1405,1405,0.34353998545837616,0.3,1.0,1.0,450.0,809.0,1.0,1,241.0,1
1406,1406,-0.059439037249217175,-0.1,0.0,1.0,488.0,848.0,1.0,0,3664.0,1
1407,1407,-0.8076404121262781,-0.8,0.0,1.0,416.0,866.0,1.0,0,158.0,1
1408,1408,-0.7034831476334649,-0.7,0.0,1.0,276.0,700.0,1.0,0,-206.0,1
1409,1409,0.16092604813664046,0.2,0.0,0.0,282.0,987.0,1.0,0,-589.0,0
1410,1410,0.41925837557734347,0.4,1.0,1.0,256.0,553.0,1.0,1,451.0,1
1411,1411,0.43466088151906523,0.4,1.0,1.0,407.0,671.0,1.0,1,862.0,1
1412,1412,-0.2893978389044395,-0.3,0.0,1.0,273.0,565.0,1.0,0,442.0,1
1413,1413,0.13159802080619165,0.1,0.0,0.0,254.0,664.0,0.0,1,782.0,1
1414,1414,0.047560661988629294,0.0,0.0,0.0,326.0,880.0,1.0,0,584.0,0
1415,1415,-0.15404785635171092,-0.2,0.0,1.0,428.0,508.0,1.0,0,534.0,1
1416,1416,0.7994989930931368,0.8,0.0,0.0,483.0,751.0,0.0,1,216.0,1
1417,1417,0.4377951382763029,0.4,1.0,1.0,421.0,667.0,1.0,1,512.0,1
1418,1418,0.8657718030154719,0.9,0.0,0.0,399.0,925.0,0.0,1,226.0,1
1419,1419,0.8408301310145855,0.8,0.0,0.0,393.0,834.0,0.0,1,433.0,1
1420,1420,-0.0749740024798321,-0.1,0.0,1.0,271.0,828.0,1.0,0,3901.0,1
1421,1421,-0.677455788159556,-0.7,0.0,1.0,335.0,962.0,1.0,0,-207.0,1
1422,1422,-0.8972871550494875,-0.9,1.0,0.0,332.0,812.0,0.0,0,916.0,1
1423,1423,-0.4627771707116446,-0.5,0.0,1.0,358.0,520.0,1.0,0,92.0,1
1424,1424,-0.7291164804786391,-0.7,0.0,1.0,381.0,533.0,1.0,0,186.0,1
1425,1425,0.16301615953769166,0.2,1.0,1.0,316.0,560.0,1.0,1,694.0,1
1426,1426,0.08542154734488105,0.1,0.0,0.0,466.0,891.0,1.0,0,383.0,0
1427,1427,0.6241706262018324,0.6,1.0,1.0,290.0,526.0,1.0,1,264.0,1
1428,1428,0.7661288864073278,0.8,0.0,0.0,479.0,675.0,0.0,1,436.0,1
1429,1429,-0.07190440617430927,-0.1,0.0,1.0,429.0,661.0,1.0,0,680.0,1
1430,1430,0.505101561686664,0.5,1.0,1.0,265.0,566.0,1.0,1,219.0,1
1431,1431,0.8282488301722754,0.8,1.0,1.0,474.0,921.0,1.0,1,505.0,1
1432,1432,0.7092127661168263,0.7,0.0,0.0,363.0,502.0,0.0,1,395.0,1
1433,1433,0.7840351678472263,0.8,1.0,1.0,362.0,682.0,1.0,1,326.0,1
1434,1434,-0.37397809781654745,-0.4,0.0,1.0,284.0,502.0,1.0,0,424.0,1
1435,1435,0.3475869728685018,0.3,0.0,0.0,251.0,758.0,0.0,1,1811.0,1
1436,1436,0.040865597449917246,0.0,0.0,0.0,470.0,632.0,1.0,0,538.0,0
1437,1437,0.8855133026761922,0.9,0.0,0.0,313.0,554.0,0.0,1,443.0,1
1438,1438,0.6413744082530676,0.6,1.0,1.0,306.0,855.0,1.0,1,729.0,1
1439,1439,0.18584159138616096,0.2,1.0,1.0,470.0,972.0,1.0,1,1798.0,1
1440,1440,0.4235635337267737,0.4,1.0,1.0,264.0,767.0,1.0,1,-101.0,1
1441,1441,0.7940521775980133,0.8,0.0,0.0,399.0,898.0,0.0,1,153.0,1
1442,1442,0.6376879148376723,0.6,1.0,1.0,298.0,876.0,1.0,1,496.0,1
1443,1443,-0.7423205564270742,-0.7,0.0,1.0,439.0,607.0,1.0,0,364.0,1
1444,1444,-0.13445750711239923,-0.1,1.0,0.0,261.0,550.0,1.0,1,4189.0,0
1445,1445,0.4290733557943035,0.4,0.0,0.0,445.0,540.0,0.0,1,145.0,1
1446,1446,0.36446845965106,0.4,0.0,0.0,271.0,673.0,0.0,1,1156.0,1
1447,1447,-0.2148329490412315,-0.2,1.0,0.0,279.0,820.0,1.0,1,3901.0,0
1448,1448,0.8268341405683256,0.8,1.0,1.0,343.0,689.0,1.0,1,568.0,1
1449,1449,0.24553865846448486,0.2,1.0,1.0,306.0,893.0,1.0,1,221.0,1
1450,1450,0.3175245624441668,0.3,1.0,1.0,343.0,846.0,1.0,1,401.0,1
1451,1451,0.8352859039044292,0.8,1.0,1.0,313.0,565.0,1.0,1,722.0,1
1452,1452,-0.6650843353622304,-0.7,0.0,1.0,296.0,731.0,1.0,0,243.0,1
1453,1453,-0.15231542697769263,-0.2,0.0,1.0,296.0,978.0,1.0,0,766.0,1
1454,1454,-0.6437341326565043,-0.6,0.0,1.0,276.0,619.0,1.0,0,325.0,1
1455,1455,-0.39488983316039417,-0.4,0.0,1.0,464.0,790.0,1.0,0,406.0,1
1456,1456,0.37832226068113395,0.4,1.0,1.0,355.0,873.0,1.0,1,-8.0,1
1457,1457,0.5371436671614224,0.5,0.0,0.0,330.0,873.0,0.0,1,887.0,1
1458,1458,0.7917627413541249,0.8,1.0,1.0,282.0,638.0,1.0,1,180.0,1
1459,1459,-0.017565995451255367,-0.0,0.0,1.0,347.0,689.0,1.0,0,424.0,1
1460,1460,-0.3297444375891655,-0.3,1.0,0.0,300.0,655.0,0.0,0,1905.0,1
1461,1461,0.8210826845715281,0.8,0.0,0.0,447.0,699.0,1.0,0,-496.0,0
1462,1462,-0.3501610290856001,-0.4,0.0,1.0,257.0,565.0,1.0,0,278.0,1
1463,1463,0.5519236246938818,0.6,1.0,1.0,449.0,560.0,1.0,1,331.0,1
1464,1464,0.7078282096547702,0.7,1.0,1.0,392.0,706.0,1.0,1,442.0,1
1465,1465,-0.40072090760975465,-0.4,1.0,0.0,273.0,968.0,0.0,0,1119.0,1
1466,1466,0.3413793007157978,0.3,1.0,1.0,495.0,609.0,1.0,1,-254.0,1
1467,1467,-0.4865484939863371,-0.5,0.0,1.0,371.0,965.0,1.0,0,74.0,1
1468,1468,-0.6293029174357987,-0.6,0.0,1.0,414.0,833.0,1.0,0,183.0,1
1469,1469,0.43641770564439,0.4,0.0,0.0,356.0,979.0,1.0,0,-365.0,0
1470,1470,-0.42560324840155156,-0.4,0.0,1.0,332.0,587.0,1.0,0,1081.0,1
1471,1471,0.1298203826182559,0.1,0.0,0.0,397.0,967.0,0.0,1,2966.0,1
1472,1472,-0.866704442329735,-0.9,1.0,0.0,439.0,748.0,0.0,0,433.0,1
1473,1473,-0.14099708289567237,-0.1,0.0,1.0,387.0,634.0,1.0,0,1239.0,1
1474,1474,0.08269168033964658,0.1,0.0,0.0,424.0,836.0,1.0,0,-480.0,0
1475,1475,-0.14842008938530604,-0.1,0.0,1.0,482.0,835.0,1.0,0,2963.0,1
1476,1476,0.6943305540746246,0.7,1.0,1.0,489.0,569.0,1.0,1,412.0,1
1477,1477,0.7328103339923985,0.7,1.0,1.0,420.0,795.0,1.0,1,265.0,1
1478,1478,-0.7673669923374772,-0.8,0.0,1.0,394.0,793.0,1.0,0,253.0,1
1479,1479,-0.46552001087552963,-0.5,0.0,1.0,295.0,945.0,1.0,0,220.0,1
1480,1480,-0.189174395883153,-0.2,1.0,0.0,430.0,614.0,1.0,1,3956.0,0
1481,1481,-0.1216807159584411,-0.1,1.0,0.0,389.0,877.0,1.0,1,-326.0,0
1482,1482,0.42753090879217204,0.4,0.0,0.0,311.0,502.0,0.0,1,1827.0,1
1483,1483,-0.08540084306348472,-0.1,1.0,0.0,261.0,759.0,1.0,1,240.0,0
1484,1484,-0.46661990016147553,-0.5,1.0,0.0,396.0,586.0,0.0,0,808.0,1
1485,1485,-0.15446331215816245,-0.2,0.0,1.0,262.0,971.0,1.0,0,937.0,1
1486,1486,-0.8883574316082729,-0.9,0.0,1.0,267.0,749.0,1.0,0,504.0,1
1487,1487,-0.44231719280449283,-0.4,1.0,0.0,475.0,614.0,0.0,0,1841.0,1
