,trial,coherence,coherence_bin,green_side,correct_side,target_onset,checker_onset,decision,green_decision,decision_time,correct_decision
0,0,-0.09128618745549899,-0.1,0.0,1.0,348.0,525.0,0.0,1,4127.0,0
1,1,-0.8501911394893101,-0.9,0.0,1.0,293.0,714.0,0.0,1,3993.0,0
2,2,0.8803423556618301,0.9,1.0,1.0,441.0,659.0,0.0,0,3900.0,0
3,3,-0.6819127058301563,-0.7,0.0,1.0,277.0,830.0,0.0,1,3893.0,0
4,4,0.5018762351142759,0.5,1.0,1.0,269.0,765.0,0.0,0,-824.0,0
5,5,0.2824729235631055,0.3,1.0,1.0,352.0,575.0,0.0,0,4073.0,0
6,6,0.3683253454176775,0.4,1.0,1.0,339.0,945.0,0.0,0,3716.0,0
7,7,-0.2425847388827681,-0.2,0.0,1.0,262.0,931.0,0.0,1,3807.0,0
8,8,0.2928197552711612,0.3,1.0,1.0,471.0,752.0,0.0,0,3777.0,0
9,9,-0.3058324445296581,-0.3,0.0,1.0,295.0,606.0,0.0,1,4099.0,0
10,10,0.2291396329608434,0.2,0.0,0.0,493.0,646.0,0.0,1,3861.0,1
11,11,-0.7967560215887632,-0.8,0.0,1.0,451.0,734.0,0.0,1,3815.0,0
12,12,0.6197392797753695,0.6,0.0,0.0,300.0,557.0,0.0,1,4143.0,1
13,13,0.43218163246389374,0.4,0.0,0.0,329.0,659.0,1.0,0,-518.0,0
14,14,-0.2583221125194828,-0.3,0.0,1.0,477.0,770.0,1.0,0,-777.0,1
15,15,0.8751544611315424,0.9,0.0,0.0,250.0,890.0,1.0,0,-1100.0,0
16,16,-0.3092038835514427,-0.3,0.0,1.0,458.0,993.0,0.0,1,-1431.0,0
17,17,-0.7732626662362366,-0.8,0.0,1.0,308.0,928.0,0.0,1,3764.0,0
18,18,-0.5191526668196611,-0.5,1.0,0.0,339.0,793.0,0.0,0,3868.0,1
19,19,0.31676133771934356,0.3,1.0,1.0,310.0,707.0,1.0,1,-967.0,1
20,20,0.355891250603794,0.4,1.0,1.0,408.0,999.0,0.0,0,3593.0,0
21,21,0.8167981132944483,0.8,1.0,1.0,408.0,786.0,0.0,0,3806.0,0
22,22,0.8226215018203967,0.8,1.0,1.0,450.0,691.0,0.0,0,3859.0,0
23,23,0.8786702652568809,0.9,1.0,1.0,388.0,859.0,0.0,0,3753.0,0
24,24,0.19056028699417527,0.2,0.0,0.0,449.0,712.0,0.0,1,3839.0,1
25,25,-0.47041160046677233,-0.5,0.0,1.0,461.0,899.0,0.0,1,3640.0,0
26,26,-0.2772632604564794,-0.3,1.0,0.0,268.0,778.0,0.0,0,3954.0,1
27,27,-0.7091290748039019,-0.7,1.0,0.0,494.0,688.0,0.0,0,3818.0,1
28,28,0.7914137298641036,0.8,0.0,0.0,452.0,972.0,0.0,1,3576.0,1
29,29,0.6555922859801248,0.7,1.0,1.0,377.0,755.0,0.0,0,3868.0,0
30,30,0.8207923234634927,0.8,1.0,1.0,288.0,740.0,0.0,0,3972.0,0
31,31,0.8651558926655437,0.9,0.0,0.0,490.0,720.0,0.0,1,3790.0,1
32,32,0.7616384501144765,0.8,0.0,0.0,394.0,974.0,0.0,1,3632.0,1
33,33,0.8975659335471454,0.9,1.0,1.0,473.0,718.0,0.0,0,3809.0,0
34,34,-0.4183457893230048,-0.4,0.0,1.0,385.0,620.0,0.0,1,3995.0,0
35,35,0.22449023557581194,0.2,1.0,1.0,282.0,650.0,0.0,0,4068.0,0
36,36,0.4229944368535018,0.4,1.0,1.0,378.0,798.0,0.0,0,3824.0,0
37,37,-0.291642920942242,-0.3,1.0,0.0,313.0,509.0,0.0,0,4178.0,1
38,38,-0.1422828580851182,-0.1,1.0,0.0,262.0,797.0,0.0,0,3941.0,1
39,39,-0.47382231723982643,-0.5,1.0,0.0,386.0,549.0,0.0,0,4065.0,1
40,40,0.29534498813075805,0.3,0.0,0.0,493.0,549.0,0.0,1,-632.0,1
41,41,-0.848863483643048,-0.8,0.0,1.0,290.0,581.0,0.0,1,4129.0,0
42,42,0.12422303384736699,0.1,1.0,1.0,261.0,679.0,0.0,0,4060.0,0
43,43,0.583275453293936,0.6,1.0,1.0,333.0,792.0,0.0,0,3875.0,0
44,44,0.17107369864008481,0.2,0.0,0.0,468.0,579.0,0.0,1,3953.0,1
45,45,-0.3519518493037177,-0.4,0.0,1.0,288.0,861.0,1.0,0,-1009.0,1
46,46,-0.8453475691659191,-0.8,0.0,1.0,388.0,894.0,0.0,1,3718.0,0
47,47,0.43762796364383705,0.4,0.0,0.0,476.0,767.0,0.0,1,-863.0,1
48,48,-0.8004773807847229,-0.8,1.0,0.0,361.0,961.0,0.0,0,3678.0,1
49,49,-0.7516472842855696,-0.8,1.0,0.0,304.0,583.0,0.0,0,4113.0,1
50,50,-0.10011744491624208,-0.1,1.0,0.0,444.0,822.0,0.0,0,-926.0,1
51,51,-0.4714059641646271,-0.5,0.0,1.0,317.0,914.0,0.0,1,3769.0,0
52,52,-0.8530512692314786,-0.9,1.0,0.0,330.0,863.0,0.0,0,3807.0,1
53,53,-0.651664344134109,-0.7,1.0,0.0,365.0,720.0,0.0,0,3915.0,1
54,54,-0.7086253397335726,-0.7,0.0,1.0,322.0,938.0,0.0,1,3740.0,0
55,55,-0.017019992129088224,-0.0,1.0,0.0,287.0,822.0,0.0,0,3891.0,1
56,56,-0.14033180850753002,-0.1,1.0,0.0,270.0,995.0,0.0,0,3735.0,1
57,57,0.6344139665400218,0.6,1.0,1.0,384.0,673.0,0.0,0,3943.0,0
58,58,0.12614798711703845,0.1,0.0,0.0,483.0,730.0,0.0,1,3787.0,1
59,59,0.8418738455453522,0.8,0.0,0.0,389.0,637.0,0.0,1,3974.0,1
60,60,0.8301018979099596,0.8,1.0,1.0,414.0,974.0,0.0,0,3612.0,0
61,61,0.7615053297835103,0.8,0.0,0.0,429.0,618.0,0.0,1,3953.0,1
62,62,0.5926838633034773,0.6,1.0,1.0,440.0,762.0,0.0,0,3798.0,0
63,63,0.6965311535021269,0.7,0.0,0.0,421.0,544.0,0.0,1,4035.0,1
64,64,-0.30434061960247316,-0.3,1.0,0.0,492.0,805.0,1.0,1,-1177.0,0
65,65,0.3076985903270807,0.3,1.0,1.0,351.0,584.0,1.0,1,-765.0,1
66,66,-0.21277182911523884,-0.2,0.0,1.0,444.0,826.0,0.0,1,-1260.0,0
67,67,0.33679319949208575,0.3,1.0,1.0,260.0,988.0,0.0,0,3752.0,0
68,68,0.4860342846734701,0.5,0.0,0.0,479.0,741.0,0.0,1,3780.0,1
69,69,0.017851300230915523,0.0,1.0,1.0,440.0,968.0,0.0,0,3592.0,0
70,70,0.2402137736647404,0.2,0.0,0.0,337.0,645.0,0.0,1,4018.0,1
71,71,-0.8563473242404325,-0.9,0.0,1.0,396.0,595.0,0.0,1,4009.0,0
72,72,-0.5652162033486661,-0.6,0.0,1.0,275.0,873.0,1.0,0,-558.0,1
73,73,0.3738709855929806,0.4,0.0,0.0,463.0,688.0,0.0,1,-1071.0,1
74,74,0.48614476147561503,0.5,0.0,0.0,345.0,860.0,0.0,1,3795.0,1
75,75,0.8034173156785204,0.8,0.0,0.0,418.0,851.0,0.0,1,3731.0,1
76,76,-0.03420348879359569,-0.0,0.0,1.0,418.0,611.0,0.0,1,3971.0,0
77,77,-0.29958411510044136,-0.3,0.0,1.0,491.0,706.0,0.0,1,3803.0,0
78,78,0.8530838521949343,0.9,0.0,0.0,431.0,949.0,0.0,1,3620.0,1
79,79,-0.6443347048496646,-0.6,0.0,1.0,458.0,665.0,0.0,1,3877.0,0
80,80,-0.5100387770783026,-0.5,0.0,1.0,484.0,541.0,0.0,1,3975.0,0
81,81,-0.5688890974781675,-0.6,1.0,0.0,430.0,803.0,1.0,1,-893.0,0
82,82,0.1991107853708226,0.2,0.0,0.0,293.0,988.0,0.0,1,3719.0,1
83,83,-0.5907032253261009,-0.6,1.0,0.0,306.0,719.0,0.0,0,3975.0,1
84,84,0.41013366064036305,0.4,1.0,1.0,451.0,982.0,0.0,0,3567.0,0
85,85,-0.807571942297884,-0.8,1.0,0.0,344.0,831.0,1.0,1,-1155.0,0
86,86,0.8200922277510335,0.8,1.0,1.0,383.0,625.0,0.0,0,3992.0,0
87,87,0.570630122092323,0.6,0.0,0.0,386.0,993.0,0.0,1,3621.0,1
88,88,0.10552502717306245,0.1,1.0,1.0,301.0,941.0,0.0,0,3758.0,0
89,89,0.30983335817719293,0.3,1.0,1.0,347.0,955.0,0.0,0,-922.0,0
90,90,-0.7956379487097042,-0.8,0.0,1.0,252.0,792.0,0.0,1,3956.0,0
91,91,0.8538176621764954,0.9,0.0,0.0,389.0,683.0,0.0,1,-592.0,1
92,92,-0.5539696270823156,-0.6,0.0,1.0,350.0,890.0,0.0,1,3760.0,0
93,93,-0.5570929148684192,-0.6,1.0,0.0,317.0,962.0,1.0,1,-689.0,0
94,94,0.7240916836338741,0.7,0.0,0.0,423.0,912.0,0.0,1,3665.0,1
95,95,-0.8705952800149966,-0.9,1.0,0.0,385.0,986.0,0.0,0,3629.0,1
96,96,0.4395788095278158,0.4,1.0,1.0,309.0,901.0,0.0,0,3790.0,0
97,97,-0.26163413858872964,-0.3,0.0,1.0,386.0,640.0,1.0,0,-976.0,1
98,98,-0.1844912800245,-0.2,0.0,1.0,458.0,621.0,0.0,1,3921.0,0
99,99,-0.6064003039718111,-0.6,0.0,1.0,292.0,630.0,0.0,1,4078.0,0
100,100,-0.5892619566626478,-0.6,1.0,0.0,377.0,598.0,0.0,0,4025.0,1
101,101,-0.031241788613700194,-0.0,0.0,1.0,462.0,866.0,0.0,1,3672.0,0
102,102,0.8058752184051275,0.8,0.0,0.0,478.0,540.0,1.0,0,-948.0,0
103,103,0.6970976404788437,0.7,1.0,1.0,255.0,661.0,0.0,0,-726.0,0
104,104,0.352255253976549,0.4,0.0,0.0,461.0,639.0,0.0,1,3900.0,1
105,105,0.6336062590236214,0.6,1.0,1.0,272.0,747.0,0.0,0,3981.0,0
106,106,0.8718841992201266,0.9,0.0,0.0,331.0,583.0,0.0,1,4086.0,1
107,107,-0.13322917629891973,-0.1,1.0,0.0,338.0,501.0,0.0,0,4161.0,1
108,108,-0.5287526431345022,-0.5,1.0,0.0,373.0,846.0,0.0,0,3781.0,1
109,109,-0.2681433823720827,-0.3,0.0,1.0,359.0,825.0,0.0,1,3816.0,0
110,110,0.7784221950768572,0.8,0.0,0.0,384.0,705.0,0.0,1,-1009.0,1
111,111,-0.2811868813369983,-0.3,0.0,1.0,261.0,992.0,0.0,1,3747.0,0
112,112,0.7967397923581215,0.8,0.0,0.0,406.0,633.0,1.0,0,-949.0,0
113,113,0.1752784651306597,0.2,1.0,1.0,289.0,815.0,0.0,0,-1014.0,0
114,114,0.22561053176421553,0.2,0.0,0.0,272.0,713.0,0.0,1,4015.0,1
115,115,0.07424922398400735,0.1,0.0,0.0,263.0,576.0,1.0,0,-839.0,0
116,116,0.32893774723386227,0.3,1.0,1.0,427.0,767.0,1.0,1,-1014.0,1
117,117,-0.3442384279144315,-0.3,1.0,0.0,467.0,756.0,0.0,0,3777.0,1
118,118,-0.5808211310300218,-0.6,1.0,0.0,318.0,771.0,0.0,0,3911.0,1
119,119,-0.5626463103430865,-0.6,1.0,0.0,484.0,529.0,0.0,0,3987.0,1
120,120,0.5699451706544519,0.6,0.0,0.0,320.0,898.0,0.0,1,3782.0,1
121,121,0.2657877024703562,0.3,1.0,1.0,281.0,615.0,0.0,0,4104.0,0
122,122,-0.3164027029960996,-0.3,0.0,1.0,490.0,969.0,1.0,0,-1449.0,1
123,123,0.604555538675123,0.6,1.0,1.0,258.0,853.0,0.0,0,3889.0,0
124,124,-0.5886326375113496,-0.6,0.0,1.0,403.0,508.0,0.0,1,4089.0,0
125,125,0.8853153619749577,0.9,0.0,0.0,321.0,978.0,0.0,1,3701.0,1
126,126,-0.47471692996162934,-0.5,0.0,1.0,446.0,680.0,0.0,1,3874.0,0
127,127,0.7542855642652145,0.8,0.0,0.0,486.0,912.0,0.0,1,3602.0,1
128,128,0.6560920296190323,0.7,1.0,1.0,393.0,773.0,0.0,0,3834.0,0
129,129,0.0059779944769997595,0.0,1.0,1.0,337.0,592.0,1.0,1,-299.0,1
130,130,0.4359354078677836,0.4,1.0,1.0,423.0,946.0,0.0,0,3631.0,0
131,131,-0.2665309413372189,-0.3,0.0,1.0,389.0,518.0,1.0,0,-617.0,1
132,132,-0.21216651527837505,-0.2,1.0,0.0,284.0,772.0,0.0,0,3944.0,1
133,133,0.5254025361383511,0.5,0.0,0.0,369.0,584.0,0.0,1,4047.0,1
134,134,-0.16235177265681178,-0.2,1.0,0.0,377.0,805.0,0.0,0,3818.0,1
135,135,-0.01911187952820581,-0.0,0.0,1.0,404.0,903.0,0.0,1,3693.0,0
136,136,-0.5151602061410189,-0.5,0.0,1.0,388.0,778.0,0.0,1,3834.0,0
137,137,0.36915101651345583,0.4,1.0,1.0,463.0,775.0,0.0,0,3762.0,0
138,138,-0.4141474178018443,-0.4,1.0,0.0,383.0,730.0,0.0,0,3887.0,1
139,139,-0.45391719010294607,-0.5,0.0,1.0,474.0,909.0,0.0,1,3617.0,0
140,140,-0.6967892457233433,-0.7,0.0,1.0,257.0,891.0,1.0,0,-1048.0,1
141,141,-0.5508884079867249,-0.6,0.0,1.0,433.0,979.0,0.0,1,3588.0,0
142,142,0.6719851277238064,0.7,1.0,1.0,379.0,827.0,0.0,0,3794.0,0
143,143,-0.6241000626273352,-0.6,1.0,0.0,478.0,800.0,1.0,1,-1168.0,0
144,144,0.02709864448490129,0.0,1.0,1.0,423.0,615.0,0.0,0,3962.0,0
145,145,-0.8927988941590924,-0.9,1.0,0.0,440.0,971.0,0.0,0,3589.0,1
146,146,-0.47434017811913026,-0.5,0.0,1.0,392.0,603.0,0.0,1,4005.0,0
147,147,-0.4648508506748783,-0.5,1.0,0.0,370.0,625.0,0.0,0,4005.0,1
148,148,-0.11716890282380554,-0.1,1.0,0.0,379.0,900.0,0.0,0,3721.0,1
149,149,-0.4270306848832643,-0.4,1.0,0.0,481.0,582.0,1.0,1,-373.0,0
150,150,-0.22128737731181303,-0.2,1.0,0.0,273.0,868.0,0.0,0,-901.0,1
151,151,0.19983304756991116,0.2,0.0,0.0,396.0,947.0,0.0,1,-1033.0,1
152,152,-0.2798787751301697,-0.3,1.0,0.0,311.0,789.0,1.0,1,-1000.0,0
153,153,-0.4743603680643853,-0.5,1.0,0.0,356.0,506.0,0.0,0,4138.0,1
154,154,-0.3702518667677359,-0.4,1.0,0.0,441.0,718.0,0.0,0,3841.0,1
155,155,-0.38228914003006564,-0.4,0.0,1.0,319.0,720.0,0.0,1,-889.0,0
156,156,-0.6679575233905791,-0.7,1.0,0.0,347.0,976.0,0.0,0,3677.0,1
157,157,0.5395349083869133,0.5,1.0,1.0,255.0,869.0,0.0,0,3876.0,0
158,158,-0.8991782042691692,-0.9,0.0,1.0,380.0,725.0,0.0,1,3895.0,0
159,159,-0.09424282636871273,-0.1,1.0,0.0,375.0,828.0,0.0,0,3797.0,1
160,160,0.5277682121907991,0.5,1.0,1.0,371.0,888.0,0.0,0,3741.0,0
161,161,-0.5856275415686844,-0.6,1.0,0.0,340.0,768.0,0.0,0,3892.0,1
162,162,-0.8987642226875967,-0.9,0.0,1.0,416.0,926.0,0.0,1,-1062.0,0
163,163,-0.5618515523559428,-0.6,1.0,0.0,381.0,552.0,0.0,0,4067.0,1
164,164,-0.7444296743306849,-0.7,1.0,0.0,461.0,832.0,0.0,0,3707.0,1
165,165,-0.29310324908200114,-0.3,1.0,0.0,296.0,723.0,0.0,0,3981.0,1
166,166,-0.30483906408965644,-0.3,1.0,0.0,495.0,967.0,1.0,1,-882.0,0
167,167,-0.719132147976705,-0.7,1.0,0.0,453.0,908.0,0.0,0,-1221.0,1
168,168,-0.8997069918702743,-0.9,1.0,0.0,424.0,788.0,0.0,0,3788.0,1
169,169,0.6968059159520638,0.7,0.0,0.0,379.0,904.0,0.0,1,3717.0,1
170,170,-0.3260992527384676,-0.3,0.0,1.0,466.0,529.0,0.0,1,4005.0,0
171,171,-0.7932292386451373,-0.8,0.0,1.0,284.0,951.0,0.0,1,-1105.0,0
172,172,-0.017116940218927956,-0.0,0.0,1.0,392.0,506.0,0.0,1,4102.0,0
173,173,-0.5260448509512357,-0.5,0.0,1.0,261.0,838.0,0.0,1,-969.0,0
174,174,-0.31725176210395956,-0.3,0.0,1.0,264.0,612.0,0.0,1,4124.0,0
175,175,-0.3810149254487377,-0.4,0.0,1.0,258.0,892.0,0.0,1,3850.0,0
176,176,-0.755634672474174,-0.8,1.0,0.0,418.0,978.0,0.0,0,3604.0,1
177,177,-0.7922860793847466,-0.8,0.0,1.0,251.0,652.0,0.0,1,4097.0,0
178,178,0.8135080947659811,0.8,1.0,1.0,470.0,676.0,0.0,0,3854.0,0
179,179,0.8867139245599657,0.9,0.0,0.0,455.0,607.0,0.0,1,3938.0,1
180,180,-0.08525610711941012,-0.1,0.0,1.0,395.0,800.0,1.0,0,-755.0,1
181,181,-0.2968483475600079,-0.3,1.0,0.0,319.0,520.0,0.0,0,4161.0,1
182,182,0.4063039809920056,0.4,0.0,0.0,389.0,771.0,0.0,1,3840.0,1
183,183,0.6915862818119515,0.7,1.0,1.0,274.0,917.0,0.0,0,3809.0,0
184,184,0.37890039975013423,0.4,0.0,0.0,437.0,571.0,1.0,0,-818.0,0
185,185,0.05166201868902087,0.1,0.0,0.0,424.0,542.0,0.0,1,4034.0,1
186,186,0.25715310466173447,0.3,0.0,0.0,430.0,874.0,0.0,1,-1274.0,1
187,187,-0.2765596500532289,-0.3,0.0,1.0,265.0,981.0,0.0,1,-1236.0,0
188,188,0.5185962486752008,0.5,0.0,0.0,499.0,874.0,1.0,0,-743.0,0
189,189,0.018804789991327286,0.0,1.0,1.0,379.0,767.0,0.0,0,3854.0,0
190,190,0.7902286801563673,0.8,1.0,1.0,419.0,766.0,0.0,0,3815.0,0
191,191,-0.837545576252169,-0.8,0.0,1.0,414.0,661.0,0.0,1,3925.0,0
192,192,0.5997308304940799,0.6,1.0,1.0,275.0,720.0,0.0,0,4005.0,0
193,193,-0.21850714387521897,-0.2,0.0,1.0,320.0,748.0,1.0,0,-1038.0,1
194,194,0.06479321317864217,0.1,0.0,0.0,262.0,838.0,0.0,1,3900.0,1
195,195,0.5264294591675128,0.5,0.0,0.0,480.0,826.0,0.0,1,-1116.0,1
196,196,0.16832553506943715,0.2,1.0,1.0,423.0,679.0,0.0,0,3898.0,0
197,197,0.36491021656574996,0.4,1.0,1.0,280.0,765.0,0.0,0,3955.0,0
198,198,0.464017363988218,0.5,0.0,0.0,302.0,855.0,1.0,0,-1157.0,0
199,199,0.12481174507237813,0.1,0.0,0.0,460.0,701.0,1.0,0,-1051.0,0
200,200,-0.06113877707103621,-0.1,0.0,1.0,471.0,549.0,0.0,1,-690.0,0
201,201,-0.8663191973124422,-0.9,1.0,0.0,438.0,600.0,0.0,0,3962.0,1
202,202,-0.21928745202090905,-0.2,1.0,0.0,451.0,734.0,0.0,0,-1085.0,1
203,203,-0.7388314976676332,-0.7,1.0,0.0,280.0,972.0,0.0,0,3748.0,1
204,204,0.8453224633446154,0.8,1.0,1.0,401.0,567.0,0.0,0,4032.0,0
205,205,-0.519668292492489,-0.5,0.0,1.0,352.0,697.0,1.0,0,-969.0,1
206,206,0.5567261231163502,0.6,0.0,0.0,368.0,671.0,1.0,0,-819.0,0
207,207,-0.6998742286822043,-0.7,1.0,0.0,361.0,634.0,0.0,0,4005.0,1
208,208,0.7561895759522143,0.8,0.0,0.0,390.0,756.0,0.0,1,3854.0,1
209,209,-0.24984745976048983,-0.2,1.0,0.0,465.0,714.0,0.0,0,3821.0,1
210,210,-0.612965166648564,-0.6,1.0,0.0,292.0,962.0,0.0,0,3746.0,1
211,211,0.06545330327115029,0.1,0.0,0.0,318.0,623.0,0.0,1,4059.0,1
212,212,0.6452726715822091,0.6,1.0,1.0,471.0,943.0,0.0,0,3586.0,0
213,213,-0.5955978418416323,-0.6,1.0,0.0,265.0,759.0,0.0,0,3976.0,1
214,214,-0.1621039993250184,-0.2,1.0,0.0,307.0,575.0,0.0,0,4118.0,1
215,215,-0.412269752799931,-0.4,1.0,0.0,271.0,948.0,0.0,0,3781.0,1
216,216,0.42376392211459757,0.4,1.0,1.0,325.0,608.0,0.0,0,-783.0,0
217,217,-0.2942599464201947,-0.3,0.0,1.0,332.0,694.0,0.0,1,3974.0,0
218,218,0.42764316340101216,0.4,0.0,0.0,372.0,712.0,0.0,1,-1014.0,1
219,219,0.8716785304910352,0.9,0.0,0.0,360.0,933.0,0.0,1,3707.0,1
220,220,0.34027598007901105,0.3,0.0,0.0,398.0,622.0,0.0,1,3980.0,1
221,221,-0.07072924020594462,-0.1,0.0,1.0,411.0,715.0,0.0,1,3874.0,0
222,222,-0.7981538802227771,-0.8,1.0,0.0,265.0,829.0,0.0,0,3906.0,1
223,223,0.4447775165726099,0.4,0.0,0.0,450.0,793.0,0.0,1,3757.0,1
224,224,0.11668890425521428,0.1,1.0,1.0,453.0,554.0,0.0,0,3993.0,0
225,225,-0.47201161800943053,-0.5,1.0,0.0,343.0,903.0,0.0,0,-1226.0,1
226,226,-0.3921193395269087,-0.4,0.0,1.0,463.0,635.0,0.0,1,3902.0,0
227,227,-0.8671470312568655,-0.9,1.0,0.0,474.0,955.0,0.0,0,3571.0,1
228,228,-0.7331502679452321,-0.7,1.0,0.0,429.0,869.0,0.0,0,3702.0,1
229,229,-0.7128489906247488,-0.7,0.0,1.0,485.0,810.0,0.0,1,3705.0,0
230,230,0.8863511491942394,0.9,0.0,0.0,437.0,561.0,0.0,1,4002.0,1
231,231,-0.23439693125386885,-0.2,0.0,1.0,314.0,588.0,0.0,1,4098.0,0
232,232,0.03683515375964597,0.0,1.0,1.0,298.0,531.0,0.0,0,4171.0,0
233,233,-0.2722166122644837,-0.3,1.0,0.0,344.0,787.0,0.0,0,3869.0,1
234,234,0.3557543285447854,0.4,0.0,0.0,292.0,807.0,0.0,1,-579.0,1
235,235,-0.622278802942104,-0.6,1.0,0.0,450.0,914.0,1.0,1,-1304.0,0
236,236,-0.4868458151561176,-0.5,0.0,1.0,417.0,903.0,0.0,1,3680.0,0
237,237,0.4043915948009279,0.4,0.0,0.0,496.0,835.0,0.0,1,-1301.0,1
238,238,-0.30718188025450033,-0.3,0.0,1.0,481.0,998.0,0.0,1,3521.0,0
239,239,0.4416455505701259,0.4,0.0,0.0,385.0,764.0,0.0,1,3851.0,1
240,240,0.17234820814551643,0.2,1.0,1.0,395.0,946.0,0.0,0,3659.0,0
241,241,-0.8047662738655337,-0.8,0.0,1.0,458.0,627.0,1.0,0,-1045.0,1
242,242,0.2189001832952241,0.2,0.0,0.0,415.0,797.0,0.0,1,3788.0,1
243,243,-0.5056784175129228,-0.5,0.0,1.0,469.0,643.0,0.0,1,3888.0,0
244,244,0.8143506312787699,0.8,1.0,1.0,314.0,819.0,0.0,0,3867.0,0
245,245,-0.3778857476659597,-0.4,1.0,0.0,394.0,909.0,0.0,0,3697.0,1
246,246,0.41109804976682696,0.4,1.0,1.0,401.0,881.0,1.0,1,-1192.0,1
247,247,0.6548520376144858,0.7,1.0,1.0,459.0,596.0,0.0,0,3945.0,0
248,248,-0.829807481257764,-0.8,0.0,1.0,353.0,858.0,0.0,1,3789.0,0
249,249,-0.29181453394123813,-0.3,0.0,1.0,383.0,786.0,0.0,1,3831.0,0
250,250,0.6456898745018217,0.6,0.0,0.0,256.0,998.0,0.0,1,3746.0,1
251,251,-0.7744477529948629,-0.8,1.0,0.0,336.0,927.0,0.0,0,3737.0,1
252,252,-0.34644768081590427,-0.3,1.0,0.0,332.0,694.0,0.0,0,3974.0,1
253,253,0.3347965736263304,0.3,0.0,0.0,472.0,651.0,0.0,1,3877.0,1
254,254,0.15930018515639455,0.2,1.0,1.0,393.0,593.0,0.0,0,4014.0,0
255,255,-0.056698194783993294,-0.1,1.0,0.0,406.0,797.0,0.0,0,3797.0,1
256,256,-0.10743182185357958,-0.1,0.0,1.0,370.0,774.0,0.0,1,3856.0,0
257,257,0.6929657798909635,0.7,1.0,1.0,362.0,893.0,0.0,0,3745.0,0
258,258,0.4236158176496442,0.4,1.0,1.0,412.0,697.0,0.0,0,3891.0,0
259,259,-0.6584075062439918,-0.7,0.0,1.0,275.0,722.0,0.0,1,4003.0,0
260,260,0.8082082544567303,0.8,0.0,0.0,285.0,934.0,0.0,1,3781.0,1
261,261,0.26478966981286545,0.3,1.0,1.0,320.0,732.0,0.0,0,-782.0,0
262,262,-0.23193759470696818,-0.2,1.0,0.0,484.0,974.0,1.0,1,-1098.0,0
263,263,0.4483643507955636,0.4,0.0,0.0,434.0,718.0,0.0,1,3848.0,1
264,264,0.41222792576482636,0.4,0.0,0.0,370.0,870.0,0.0,1,3760.0,1
265,265,0.4808438669975611,0.5,0.0,0.0,291.0,795.0,0.0,1,3914.0,1
266,266,0.27857451866183724,0.3,0.0,0.0,468.0,650.0,0.0,1,3882.0,1
267,267,0.05031328034962124,0.1,0.0,0.0,388.0,886.0,0.0,1,3726.0,1
268,268,0.1282660878340377,0.1,0.0,0.0,405.0,718.0,1.0,0,-1113.0,0
269,269,0.5421655396516342,0.5,0.0,0.0,252.0,845.0,1.0,0,-1007.0,0
270,270,-0.40286947457610384,-0.4,0.0,1.0,454.0,800.0,0.0,1,3746.0,0
271,271,-0.6334911220354507,-0.6,1.0,0.0,397.0,642.0,0.0,0,3961.0,1
272,272,-0.8323084270048486,-0.8,0.0,1.0,426.0,833.0,0.0,1,3741.0,0
273,273,0.7111126987721103,0.7,1.0,1.0,322.0,975.0,1.0,1,-1027.0,1
274,274,-0.16156051938256377,-0.2,1.0,0.0,285.0,637.0,0.0,0,4078.0,1
275,275,-0.6515762179206579,-0.7,1.0,0.0,488.0,658.0,0.0,0,3854.0,1
276,276,0.49846931516416537,0.5,1.0,1.0,250.0,572.0,0.0,0,4178.0,0
277,277,0.7790630580132342,0.8,0.0,0.0,414.0,795.0,0.0,1,-1139.0,1
278,278,0.7485901240941996,0.7,0.0,0.0,368.0,996.0,0.0,1,-1254.0,1
279,279,-0.1727872344436765,-0.2,0.0,1.0,266.0,803.0,0.0,1,-1029.0,0
280,280,0.5441480116972935,0.5,0.0,0.0,252.0,889.0,0.0,1,3859.0,1
281,281,-0.4570839300996464,-0.5,1.0,0.0,487.0,671.0,0.0,0,3842.0,1
282,282,-0.2727067497215746,-0.3,0.0,1.0,348.0,562.0,0.0,1,4090.0,0
283,283,0.35339860106411225,0.4,1.0,1.0,415.0,756.0,0.0,0,3829.0,0
284,284,0.2463765577051028,0.2,0.0,0.0,445.0,601.0,1.0,0,-896.0,0
285,285,0.25508076790827483,0.3,1.0,1.0,274.0,664.0,0.0,0,4062.0,0
286,286,-0.8263665595396302,-0.8,0.0,1.0,472.0,822.0,0.0,1,3706.0,0
287,287,0.38481173586125583,0.4,0.0,0.0,371.0,529.0,0.0,1,4100.0,1
288,288,0.6167825465303564,0.6,0.0,0.0,269.0,515.0,0.0,1,4216.0,1
289,289,0.8265612617952064,0.8,1.0,1.0,453.0,550.0,0.0,0,-523.0,0
290,290,-0.7526414758682982,-0.8,1.0,0.0,411.0,788.0,0.0,0,3801.0,1
291,291,-0.5245629093271409,-0.5,0.0,1.0,479.0,975.0,0.0,1,3546.0,0
292,292,0.7331225980253152,0.7,1.0,1.0,435.0,820.0,0.0,0,3745.0,0
293,293,-0.2882225566074569,-0.3,1.0,0.0,451.0,765.0,0.0,0,-1186.0,1
294,294,-0.03225998906027139,-0.0,1.0,0.0,381.0,679.0,0.0,0,3940.0,1
295,295,-0.8566499631242975,-0.9,1.0,0.0,370.0,797.0,1.0,1,-1157.0,0
296,296,0.12105129785354374,0.1,0.0,0.0,368.0,729.0,0.0,1,3903.0,1
297,297,0.646107148037017,0.6,1.0,1.0,462.0,850.0,1.0,1,-712.0,1
298,298,-0.48631339931125417,-0.5,1.0,0.0,421.0,616.0,0.0,0,3963.0,1
299,299,-0.6580024671272748,-0.7,0.0,1.0,349.0,763.0,0.0,1,3888.0,0
300,300,-0.10293682353492573,-0.1,0.0,1.0,277.0,880.0,0.0,1,3843.0,0
301,301,-0.5179317831946609,-0.5,1.0,0.0,273.0,966.0,0.0,0,-989.0,1
302,302,0.41490113063807266,0.4,0.0,0.0,353.0,705.0,1.0,0,-888.0,0
303,303,-0.8428827798630708,-0.8,0.0,1.0,353.0,508.0,0.0,1,4139.0,0
304,304,-0.6274846899041298,-0.6,0.0,1.0,285.0,813.0,0.0,1,3902.0,0
305,305,0.20561065763293673,0.2,1.0,1.0,439.0,931.0,0.0,0,3630.0,0
306,306,0.5070483090782295,0.5,0.0,0.0,414.0,921.0,0.0,1,3665.0,1
307,307,0.17098578032744094,0.2,0.0,0.0,399.0,863.0,0.0,1,3738.0,1
308,308,-0.26875528020574224,-0.3,1.0,0.0,291.0,667.0,0.0,0,4042.0,1
309,309,-0.4739201115169857,-0.5,1.0,0.0,483.0,823.0,1.0,1,-806.0,0
310,310,-0.8107823730098193,-0.8,0.0,1.0,330.0,971.0,0.0,1,3699.0,0
311,311,0.25789155080511417,0.3,0.0,0.0,352.0,588.0,0.0,1,4060.0,1
312,312,0.5614785630881917,0.6,1.0,1.0,449.0,924.0,0.0,0,3627.0,0
313,313,-0.37089392584481395,-0.4,1.0,0.0,455.0,556.0,0.0,0,3989.0,1
314,314,-0.8949671738883549,-0.9,1.0,0.0,257.0,537.0,0.0,0,4206.0,1
315,315,0.12875824805844605,0.1,1.0,1.0,477.0,773.0,0.0,0,3750.0,0
316,316,-0.5848142181959086,-0.6,0.0,1.0,281.0,520.0,1.0,0,-701.0,1
317,317,0.40910071442426965,0.4,1.0,1.0,407.0,944.0,0.0,0,3649.0,0
318,318,-0.7948161454395478,-0.8,1.0,0.0,406.0,801.0,0.0,0,-1007.0,1
319,319,-0.5603296199395096,-0.6,0.0,1.0,413.0,678.0,0.0,1,-981.0,0
320,320,-0.11503006540911476,-0.1,0.0,1.0,357.0,545.0,0.0,1,4098.0,0
321,321,0.3960038717752289,0.4,1.0,1.0,279.0,883.0,0.0,0,3838.0,0
322,322,-0.8174307194854856,-0.8,1.0,0.0,427.0,524.0,0.0,0,4049.0,1
323,323,0.3132165048892358,0.3,0.0,0.0,454.0,575.0,0.0,1,3971.0,1
324,324,0.6262878502334958,0.6,1.0,1.0,431.0,930.0,0.0,0,-1341.0,0
325,325,0.036896883630082256,0.0,1.0,1.0,415.0,986.0,1.0,1,-1131.0,1
326,326,0.42322178163578605,0.4,0.0,0.0,337.0,736.0,0.0,1,3927.0,1
327,327,0.009284569752586402,0.0,1.0,1.0,347.0,887.0,1.0,1,-1134.0,1
328,328,0.26831175300887045,0.3,1.0,1.0,344.0,641.0,0.0,0,4015.0,0
329,329,-0.7588943190804903,-0.8,0.0,1.0,332.0,816.0,0.0,1,3852.0,0
330,330,0.8222708485488767,0.8,0.0,0.0,374.0,705.0,0.0,1,3921.0,1
331,331,-0.7688973366747653,-0.8,1.0,0.0,379.0,525.0,0.0,0,4096.0,1
332,332,-0.8455323832955126,-0.8,0.0,1.0,330.0,959.0,0.0,1,3711.0,0
333,333,0.14849964364039214,0.1,0.0,0.0,378.0,856.0,1.0,0,-904.0,0
334,334,-0.43290764954812105,-0.4,0.0,1.0,367.0,766.0,0.0,1,3867.0,0
335,335,0.31357046276731426,0.3,1.0,1.0,403.0,813.0,0.0,0,3784.0,0
336,336,0.3912273237767271,0.4,1.0,1.0,291.0,583.0,0.0,0,4126.0,0
337,337,-0.18637120367662008,-0.2,1.0,0.0,338.0,774.0,0.0,0,3888.0,1
338,338,0.3688690359904304,0.4,0.0,0.0,282.0,973.0,0.0,1,3745.0,1
339,339,-0.8957592952864561,-0.9,1.0,0.0,496.0,754.0,0.0,0,-1000.0,1
340,340,0.058343465517862625,0.1,1.0,1.0,318.0,536.0,0.0,0,4146.0,0
341,341,0.5484332734935292,0.5,1.0,1.0,489.0,656.0,0.0,0,3855.0,0
342,342,0.6137692139107608,0.6,1.0,1.0,416.0,918.0,0.0,0,3666.0,0
343,343,-0.3457583737971124,-0.3,0.0,1.0,459.0,901.0,0.0,1,3640.0,0
344,344,0.7327682389492313,0.7,0.0,0.0,482.0,711.0,0.0,1,3807.0,1
345,345,0.17032056012484953,0.2,1.0,1.0,373.0,626.0,0.0,0,-989.0,0
346,346,-0.4883049734934544,-0.5,1.0,0.0,366.0,856.0,0.0,0,3778.0,1
347,347,-0.713705798291226,-0.7,1.0,0.0,434.0,514.0,0.0,0,4052.0,1
348,348,-0.15189363536258738,-0.2,1.0,0.0,289.0,657.0,0.0,0,4054.0,1
349,349,-0.5512709951685406,-0.6,0.0,1.0,430.0,813.0,0.0,1,3757.0,0
350,350,0.166547916530687,0.2,0.0,0.0,350.0,577.0,0.0,1,4073.0,1
351,351,0.09180551396238257,0.1,0.0,0.0,301.0,866.0,0.0,1,3833.0,1
352,352,-0.3911687474685651,-0.4,1.0,0.0,252.0,573.0,0.0,0,4175.0,1
353,353,-0.20867180082450665,-0.2,1.0,0.0,436.0,782.0,0.0,0,3782.0,1
354,354,-0.007979160294729781,-0.0,1.0,0.0,451.0,895.0,0.0,0,3654.0,1
355,355,-0.4201017971218281,-0.4,0.0,1.0,341.0,920.0,0.0,1,-1241.0,0
356,356,-0.566158296269119,-0.6,1.0,0.0,481.0,845.0,0.0,0,-1306.0,1
357,357,0.04930041748343528,0.0,1.0,1.0,317.0,845.0,1.0,1,-1112.0,1
358,358,0.7522216977750836,0.8,1.0,1.0,429.0,604.0,0.0,0,3967.0,0
359,359,0.8134144045400739,0.8,0.0,0.0,463.0,868.0,0.0,1,3669.0,1
360,360,0.7695848737267846,0.8,0.0,0.0,281.0,739.0,0.0,1,3980.0,1
361,361,0.15524617660205042,0.2,0.0,0.0,350.0,966.0,0.0,1,3684.0,1
362,362,-0.060430303469835245,-0.1,1.0,0.0,389.0,817.0,0.0,0,3794.0,1
363,363,0.7436636470548358,0.7,0.0,0.0,400.0,738.0,0.0,1,3862.0,1
364,364,0.3258785515233037,0.3,1.0,1.0,481.0,763.0,0.0,0,-1144.0,0
365,365,0.4964133442110269,0.5,1.0,1.0,461.0,663.0,0.0,0,3876.0,0
366,366,-0.6224466220453617,-0.6,0.0,1.0,263.0,991.0,0.0,1,3746.0,0
367,367,0.2553211301812074,0.3,0.0,0.0,263.0,558.0,0.0,1,4179.0,1
368,368,0.11504070301386882,0.1,0.0,0.0,268.0,970.0,0.0,1,3762.0,1
369,369,0.07340105247321183,0.1,0.0,0.0,277.0,527.0,1.0,0,-764.0,0
370,370,-0.4245542211224351,-0.4,0.0,1.0,278.0,884.0,1.0,0,-1012.0,1
371,371,-0.0243988148987494,-0.0,1.0,0.0,266.0,906.0,0.0,0,3828.0,1
372,372,-0.8239675443018333,-0.8,0.0,1.0,371.0,829.0,0.0,1,3800.0,0
373,373,0.41665364834621943,0.4,0.0,0.0,283.0,671.0,0.0,1,4046.0,1
374,374,-0.8170432503034465,-0.8,0.0,1.0,481.0,937.0,1.0,0,-1188.0,1
375,375,0.7878918080246281,0.8,1.0,1.0,477.0,500.0,0.0,0,4023.0,0
376,376,0.5582936905727548,0.6,0.0,0.0,310.0,504.0,0.0,1,4186.0,1
377,377,0.11307667415639566,0.1,1.0,1.0,398.0,567.0,0.0,0,4035.0,0
378,378,-0.5061688017093267,-0.5,0.0,1.0,338.0,912.0,0.0,1,3750.0,0
379,379,-0.1449589208930646,-0.1,0.0,1.0,258.0,870.0,0.0,1,3872.0,0
380,380,-0.7688673288798746,-0.8,0.0,1.0,469.0,990.0,0.0,1,3541.0,0
381,381,-0.8501924604045353,-0.9,1.0,0.0,300.0,634.0,0.0,0,4066.0,1
382,382,-0.6931245380441071,-0.7,0.0,1.0,424.0,804.0,0.0,1,3772.0,0
383,383,0.5745685009129239,0.6,1.0,1.0,296.0,565.0,0.0,0,4139.0,0
384,384,0.33729947070534394,0.3,1.0,1.0,459.0,740.0,0.0,0,3801.0,0
385,385,-0.16091062887311314,-0.2,1.0,0.0,349.0,906.0,0.0,0,3745.0,1
386,386,0.6500734730000416,0.7,1.0,1.0,355.0,546.0,1.0,1,-751.0,1
387,387,0.29512517435680985,0.3,1.0,1.0,311.0,635.0,0.0,0,4054.0,0
388,388,0.003105692059884979,0.0,0.0,0.0,426.0,883.0,0.0,1,3691.0,1
389,389,-0.3843473929693172,-0.4,0.0,1.0,436.0,648.0,0.0,1,3916.0,0
390,390,0.7938404431744494,0.8,0.0,0.0,448.0,503.0,0.0,1,-401.0,1
391,391,-0.06178346987296024,-0.1,1.0,0.0,392.0,595.0,0.0,0,4013.0,1
392,392,-0.5314270720073779,-0.5,1.0,0.0,338.0,746.0,0.0,0,-874.0,1
393,393,0.33096845913339756,0.3,0.0,0.0,345.0,837.0,0.0,1,3818.0,1
394,394,0.7657799765267862,0.8,0.0,0.0,328.0,991.0,0.0,1,3681.0,1
395,395,-0.22146067322378327,-0.2,0.0,1.0,350.0,733.0,0.0,1,3917.0,0
396,396,-0.5057338582670483,-0.5,0.0,1.0,411.0,506.0,1.0,0,-887.0,1
397,397,0.005625783708988807,0.0,1.0,1.0,300.0,984.0,0.0,0,-804.0,0
398,398,0.6449671289300373,0.6,0.0,0.0,282.0,830.0,0.0,1,3888.0,1
399,399,-0.7209272343587871,-0.7,0.0,1.0,422.0,608.0,1.0,0,-640.0,1
400,400,0.29960209052919773,0.3,0.0,0.0,362.0,769.0,1.0,0,-1031.0,0
401,401,0.14318774971642945,0.1,0.0,0.0,483.0,582.0,0.0,1,3935.0,1
402,402,-0.09699950870929108,-0.1,1.0,0.0,440.0,903.0,0.0,0,-1073.0,1
403,403,-0.32791164445434284,-0.3,1.0,0.0,375.0,568.0,0.0,0,-743.0,1
404,404,-0.8343629537774016,-0.8,0.0,1.0,491.0,545.0,0.0,1,-1006.0,0
405,405,-0.13000230864750872,-0.1,0.0,1.0,453.0,656.0,0.0,1,3891.0,0
406,406,0.26208895154671963,0.3,1.0,1.0,302.0,975.0,0.0,0,-547.0,0
407,407,-0.5080794722129147,-0.5,1.0,0.0,379.0,771.0,0.0,0,-760.0,1
408,408,-0.29020916371595395,-0.3,0.0,1.0,489.0,747.0,0.0,1,3764.0,0
409,409,-0.2732500588567526,-0.3,0.0,1.0,430.0,637.0,0.0,1,3933.0,0
410,410,-0.3521134991228436,-0.4,0.0,1.0,290.0,713.0,0.0,1,3997.0,0
411,411,-0.09311059391803123,-0.1,1.0,0.0,362.0,762.0,0.0,0,3876.0,1
412,412,-0.3483418988619825,-0.3,1.0,0.0,372.0,745.0,0.0,0,3883.0,1
413,413,0.21202165099896397,0.2,1.0,1.0,268.0,509.0,0.0,0,4223.0,0
414,414,0.7598483317382955,0.8,1.0,1.0,397.0,930.0,0.0,0,3673.0,0
415,415,-0.28177685723629775,-0.3,1.0,0.0,314.0,846.0,0.0,0,3840.0,1
416,416,-0.06861034447989245,-0.1,0.0,1.0,442.0,571.0,0.0,1,3987.0,0
417,417,-0.48641811838371163,-0.5,0.0,1.0,304.0,707.0,0.0,1,3989.0,0
418,418,0.6178452718512489,0.6,1.0,1.0,275.0,662.0,0.0,0,4063.0,0
419,419,-0.6424705903290688,-0.6,1.0,0.0,278.0,643.0,0.0,0,4079.0,1
420,420,-0.7963429319599417,-0.8,1.0,0.0,319.0,591.0,0.0,0,4090.0,1
421,421,-0.8013013932860932,-0.8,1.0,0.0,255.0,585.0,0.0,0,4160.0,1
422,422,0.3983826165920731,0.4,0.0,0.0,412.0,561.0,0.0,1,397.0,1
423,423,-0.1449567591958404,-0.1,0.0,1.0,494.0,562.0,0.0,1,3944.0,0
424,424,-0.20442601953251316,-0.2,0.0,1.0,257.0,559.0,0.0,1,4184.0,0
425,425,0.14666550363332187,0.1,0.0,0.0,457.0,674.0,0.0,1,3869.0,1
426,426,0.2996679474732512,0.3,1.0,1.0,291.0,840.0,0.0,0,-961.0,0
427,427,-0.5356607669257352,-0.5,1.0,0.0,399.0,937.0,0.0,0,-1186.0,1
428,428,-0.4351977179996207,-0.4,1.0,0.0,441.0,851.0,0.0,0,3708.0,1
429,429,-0.1208218837168149,-0.1,1.0,0.0,355.0,748.0,0.0,0,3897.0,1
430,430,-0.4708913323009999,-0.5,1.0,0.0,415.0,597.0,0.0,0,3988.0,1
431,431,-0.7477825022268817,-0.7,0.0,1.0,377.0,617.0,0.0,1,4006.0,0
432,432,0.5665264222476035,0.6,1.0,1.0,288.0,932.0,0.0,0,3780.0,0
433,433,0.6762436204791787,0.7,0.0,0.0,283.0,605.0,0.0,1,4112.0,1
434,434,-0.17048318312901012,-0.2,1.0,0.0,278.0,905.0,0.0,0,-873.0,1
435,435,0.7580535744651035,0.8,1.0,1.0,347.0,896.0,0.0,0,3757.0,0
436,436,-0.547502962549834,-0.5,0.0,1.0,291.0,811.0,0.0,1,-1082.0,0
437,437,-0.44792410226702806,-0.4,1.0,0.0,455.0,907.0,0.0,0,3638.0,1
438,438,0.04951032743661288,0.0,0.0,0.0,392.0,527.0,0.0,1,4081.0,1
439,439,0.7430093421997045,0.7,1.0,1.0,302.0,757.0,0.0,0,-709.0,0
440,440,-0.32663846484290116,-0.3,1.0,0.0,392.0,690.0,0.0,0,3918.0,1
441,441,0.6844372416006487,0.7,1.0,1.0,395.0,737.0,0.0,0,3868.0,0
442,442,-0.08334068766061609,-0.1,0.0,1.0,330.0,735.0,0.0,1,3935.0,0
443,443,0.19156013766700097,0.2,0.0,0.0,282.0,874.0,0.0,1,3844.0,1
444,444,0.8729403103187735,0.9,1.0,1.0,324.0,795.0,0.0,0,3881.0,0
445,445,0.7898790719330419,0.8,1.0,1.0,425.0,738.0,0.0,0,3837.0,0
446,446,0.6901767243485456,0.7,0.0,0.0,394.0,756.0,0.0,1,3850.0,1
447,447,0.3046995069238859,0.3,1.0,1.0,250.0,513.0,0.0,0,4237.0,0
448,448,0.1741370633098357,0.2,0.0,0.0,467.0,810.0,0.0,1,3723.0,1
449,449,0.7224527357144658,0.7,1.0,1.0,458.0,539.0,0.0,0,4003.0,0
450,450,0.6187987528498612,0.6,0.0,0.0,393.0,619.0,0.0,1,3988.0,1
451,451,-0.1484774636173254,-0.1,1.0,0.0,453.0,949.0,0.0,0,3598.0,1
452,452,-0.7371993341691891,-0.7,0.0,1.0,431.0,723.0,0.0,1,3846.0,0
453,453,-0.5078633818330078,-0.5,1.0,0.0,448.0,780.0,0.0,0,3772.0,1
454,454,0.022649066327867673,0.0,0.0,0.0,494.0,544.0,0.0,1,3962.0,1
455,455,0.6765210783172332,0.7,0.0,0.0,411.0,617.0,1.0,0,-998.0,0
456,456,-0.3304256227554371,-0.3,1.0,0.0,419.0,911.0,0.0,0,3670.0,1
457,457,-0.6947600965841141,-0.7,0.0,1.0,286.0,753.0,0.0,1,3961.0,0
458,458,0.6730562610100662,0.7,1.0,1.0,355.0,887.0,1.0,1,-1082.0,1
459,459,-0.2725619819780515,-0.3,0.0,1.0,444.0,601.0,0.0,1,3955.0,0
460,460,0.182952924618477,0.2,0.0,0.0,406.0,698.0,0.0,1,3896.0,1
461,461,-0.4447584651787336,-0.4,0.0,1.0,282.0,723.0,1.0,0,-955.0,1
462,462,-0.7314314547098352,-0.7,1.0,0.0,484.0,529.0,0.0,0,3987.0,1
463,463,-0.4893797954756797,-0.5,0.0,1.0,312.0,790.0,1.0,0,-512.0,1
464,464,0.10931128574801707,0.1,1.0,1.0,385.0,615.0,0.0,0,4000.0,0
465,465,0.49944765972453775,0.5,1.0,1.0,306.0,810.0,0.0,0,-1066.0,0
466,466,0.3019195006200207,0.3,0.0,0.0,257.0,890.0,0.0,1,3853.0,1
467,467,0.7587270868736328,0.8,0.0,0.0,415.0,928.0,0.0,1,3657.0,1
468,468,0.3461854312803615,0.3,0.0,0.0,349.0,867.0,0.0,1,3784.0,1
469,469,0.24170263454682062,0.2,0.0,0.0,268.0,848.0,0.0,1,3884.0,1
470,470,-0.593793302850196,-0.6,1.0,0.0,475.0,736.0,0.0,0,3789.0,1
471,471,-0.6238513849846832,-0.6,1.0,0.0,305.0,531.0,0.0,0,4164.0,1
472,472,-0.37914876998168723,-0.4,0.0,1.0,263.0,508.0,0.0,1,4229.0,0
473,473,0.3831778217113958,0.4,0.0,0.0,461.0,587.0,0.0,1,-998.0,1
474,474,-0.21039461180659003,-0.2,1.0,0.0,379.0,923.0,0.0,0,3698.0,1
475,475,-0.2748123769952724,-0.3,1.0,0.0,357.0,763.0,0.0,0,3880.0,1
476,476,-0.49131299744204343,-0.5,1.0,0.0,462.0,996.0,0.0,0,-1168.0,1
477,477,0.20685056263829715,0.2,1.0,1.0,319.0,679.0,0.0,0,4002.0,0
478,478,0.828234081244391,0.8,0.0,0.0,266.0,961.0,0.0,1,3773.0,1
479,479,0.08861791086974724,0.1,1.0,1.0,423.0,643.0,0.0,0,3934.0,0
480,480,0.21544750301047866,0.2,0.0,0.0,318.0,888.0,1.0,0,-1126.0,0
481,481,0.48454473844730817,0.5,0.0,0.0,426.0,537.0,0.0,1,-633.0,1
482,482,0.007403605039940864,0.0,0.0,0.0,488.0,757.0,0.0,1,3755.0,1
483,483,0.7068263024116096,0.7,1.0,1.0,410.0,908.0,1.0,1,-1258.0,1
484,484,-0.8544943095977787,-0.9,0.0,1.0,433.0,556.0,0.0,1,4011.0,0
485,485,-0.6048615093910363,-0.6,0.0,1.0,288.0,875.0,0.0,1,3837.0,0
486,486,-0.07742385431778531,-0.1,1.0,0.0,445.0,804.0,0.0,0,3751.0,1
487,487,0.4634450805955955,0.5,0.0,0.0,367.0,546.0,0.0,1,4087.0,1
488,488,0.12471577844267168,0.1,1.0,1.0,451.0,877.0,0.0,0,3672.0,0
489,489,-0.5386732208933396,-0.5,0.0,1.0,279.0,880.0,0.0,1,3841.0,0
490,490,0.012546705557775817,0.0,1.0,1.0,345.0,688.0,0.0,0,3967.0,0
491,491,0.6100364432202877,0.6,0.0,0.0,336.0,980.0,0.0,1,3684.0,1
492,492,0.8952154073501747,0.9,1.0,1.0,335.0,957.0,1.0,1,-832.0,1
493,493,0.3672597199745834,0.4,1.0,1.0,300.0,665.0,0.0,0,4035.0,0
494,494,0.512646796638269,0.5,0.0,0.0,459.0,946.0,0.0,1,3595.0,1
495,495,0.4827319910062281,0.5,1.0,1.0,401.0,912.0,0.0,0,3687.0,0
496,496,0.4860926333814729,0.5,1.0,1.0,486.0,702.0,0.0,0,3812.0,0
497,497,-0.11998320426681208,-0.1,0.0,1.0,485.0,634.0,0.0,1,3881.0,0
498,498,-0.299142634485257,-0.3,0.0,1.0,408.0,564.0,0.0,1,4028.0,0
499,499,-0.2804161856036306,-0.3,1.0,0.0,407.0,632.0,0.0,0,3961.0,1
500,500,0.8979512837506537,0.9,1.0,1.0,385.0,514.0,0.0,0,-869.0,0
501,501,0.7477356668491576,0.7,0.0,0.0,443.0,805.0,0.0,1,3752.0,1
502,502,0.8100385266680915,0.8,1.0,1.0,417.0,586.0,0.0,0,3997.0,0
503,503,-0.6404847175041348,-0.6,1.0,0.0,283.0,888.0,0.0,0,3829.0,1
504,504,-0.6958656822328353,-0.7,1.0,0.0,336.0,538.0,0.0,0,4126.0,1
505,505,-0.2614414456825018,-0.3,1.0,0.0,473.0,910.0,0.0,0,3617.0,1
506,506,0.28942090854156943,0.3,0.0,0.0,483.0,588.0,0.0,1,3929.0,1
507,507,-0.4043758821444154,-0.4,0.0,1.0,397.0,552.0,0.0,1,4051.0,0
508,508,-0.24505566183439698,-0.2,0.0,1.0,384.0,869.0,0.0,1,3747.0,0
509,509,-0.08842077750896549,-0.1,0.0,1.0,428.0,535.0,0.0,1,-793.0,0
510,510,-0.5760026948127747,-0.6,0.0,1.0,268.0,884.0,0.0,1,3848.0,0
511,511,0.013422635184763165,0.0,1.0,1.0,347.0,798.0,1.0,1,-615.0,1
512,512,-0.8460970651282258,-0.8,0.0,1.0,455.0,884.0,0.0,1,3661.0,0
513,513,0.49965296346305366,0.5,0.0,0.0,326.0,752.0,0.0,1,3922.0,1
514,514,0.7417918334743866,0.7,1.0,1.0,304.0,901.0,0.0,0,3795.0,0
515,515,0.7156555737960218,0.7,0.0,0.0,342.0,868.0,0.0,1,3790.0,1
516,516,0.13616235738103832,0.1,0.0,0.0,327.0,830.0,0.0,1,3843.0,1
517,517,0.6303702171959696,0.6,1.0,1.0,301.0,833.0,0.0,0,3866.0,0
518,518,-0.20433642260951945,-0.2,1.0,0.0,383.0,526.0,0.0,0,4091.0,1
519,519,-0.8814862062674291,-0.9,1.0,0.0,270.0,507.0,0.0,0,4223.0,1
520,520,-0.6709732781995907,-0.7,1.0,0.0,276.0,789.0,0.0,0,3935.0,1
521,521,-0.5779061232296495,-0.6,0.0,1.0,310.0,977.0,0.0,1,3713.0,0
522,522,-0.1900848730238519,-0.2,0.0,1.0,346.0,718.0,0.0,1,3936.0,0
523,523,-0.31414265099343186,-0.3,1.0,0.0,340.0,713.0,0.0,0,3947.0,1
524,524,0.875435591487025,0.9,1.0,1.0,256.0,914.0,0.0,0,3830.0,0
525,525,-0.5080460662891829,-0.5,1.0,0.0,336.0,789.0,1.0,1,-1065.0,0
526,526,0.4298824414821779,0.4,0.0,0.0,293.0,892.0,0.0,1,-495.0,1
527,527,0.24516348102246066,0.2,1.0,1.0,446.0,998.0,0.0,0,3556.0,0
528,528,0.7869660263423556,0.8,1.0,1.0,481.0,723.0,0.0,0,3796.0,0
529,529,-0.6781454889175361,-0.7,1.0,0.0,347.0,762.0,0.0,0,-859.0,1
530,530,-0.16996240399859208,-0.2,1.0,0.0,465.0,660.0,0.0,0,3875.0,1
531,531,-0.3857555367199429,-0.4,1.0,0.0,449.0,752.0,1.0,1,-681.0,0
532,532,0.4965434191280661,0.5,0.0,0.0,499.0,701.0,0.0,1,3800.0,1
533,533,0.795432460572962,0.8,1.0,1.0,362.0,585.0,0.0,0,4053.0,0
534,534,0.8639024440216697,0.9,1.0,1.0,352.0,953.0,1.0,1,-875.0,1
535,535,0.19827441063018403,0.2,1.0,1.0,257.0,649.0,0.0,0,4094.0,0
536,536,-0.1678712907630031,-0.2,1.0,0.0,343.0,910.0,1.0,1,-1193.0,0
537,537,0.41772755698224884,0.4,1.0,1.0,346.0,857.0,1.0,1,-1153.0,1
538,538,0.21423500080761892,0.2,1.0,1.0,361.0,722.0,0.0,0,3917.0,0
539,539,-0.8292089868211553,-0.8,0.0,1.0,340.0,759.0,0.0,1,3901.0,0
540,540,0.07966773761410328,0.1,0.0,0.0,348.0,901.0,0.0,1,3751.0,1
541,541,-0.003500922702042497,-0.0,1.0,0.0,354.0,640.0,1.0,1,-424.0,0
542,542,-0.2868024681564064,-0.3,1.0,0.0,302.0,704.0,0.0,0,3994.0,1
543,543,0.17768331970667062,0.2,0.0,0.0,476.0,633.0,0.0,1,3891.0,1
544,544,-0.460677191493849,-0.5,0.0,1.0,301.0,652.0,0.0,1,4047.0,0
545,545,-0.8593441567039435,-0.9,0.0,1.0,276.0,820.0,0.0,1,3904.0,0
546,546,0.11076211212379283,0.1,0.0,0.0,259.0,628.0,0.0,1,4113.0,1
547,547,-0.5126851992250688,-0.5,0.0,1.0,256.0,983.0,0.0,1,3761.0,0
548,548,-0.4994553216249453,-0.5,0.0,1.0,409.0,784.0,0.0,1,-1173.0,0
549,549,-0.6635764089402781,-0.7,0.0,1.0,492.0,815.0,0.0,1,3693.0,0
550,550,0.5995003688968804,0.6,1.0,1.0,400.0,763.0,0.0,0,3837.0,0
551,551,-0.045243696908139786,-0.0,1.0,0.0,310.0,945.0,0.0,0,3745.0,1
552,552,0.11200597683326075,0.1,1.0,1.0,485.0,544.0,0.0,0,3971.0,0
553,553,0.47868917246967146,0.5,0.0,0.0,262.0,547.0,1.0,0,-619.0,0
554,554,0.5892023392651792,0.6,1.0,1.0,401.0,981.0,0.0,0,3618.0,0
555,555,0.3512525478716416,0.4,1.0,1.0,284.0,553.0,0.0,0,4163.0,0
556,556,-0.4216200292487933,-0.4,0.0,1.0,310.0,503.0,0.0,1,4187.0,0
557,557,0.12662970039364396,0.1,0.0,0.0,372.0,764.0,1.0,0,-1036.0,0
558,558,0.611888000558327,0.6,1.0,1.0,448.0,653.0,0.0,0,3899.0,0
559,559,-0.6422672285530491,-0.6,1.0,0.0,409.0,892.0,0.0,0,3699.0,1
560,560,-0.31008332926271176,-0.3,1.0,0.0,253.0,526.0,1.0,1,-709.0,0
561,561,-0.10538200949200549,-0.1,1.0,0.0,378.0,614.0,0.0,0,4008.0,1
562,562,0.23505098726388585,0.2,0.0,0.0,290.0,981.0,0.0,1,3729.0,1
563,563,0.10145191685435118,0.1,0.0,0.0,429.0,667.0,0.0,1,-956.0,1
564,564,-0.7587505962776717,-0.8,1.0,0.0,431.0,738.0,0.0,0,3831.0,1
565,565,0.6965445778422173,0.7,1.0,1.0,354.0,866.0,0.0,0,3780.0,0
566,566,0.6951594485864142,0.7,1.0,1.0,277.0,745.0,0.0,0,3978.0,0
567,567,-0.8133455505215165,-0.8,0.0,1.0,406.0,934.0,0.0,1,3660.0,0
568,568,-0.09863259682197156,-0.1,0.0,1.0,446.0,687.0,0.0,1,3867.0,0
569,569,0.7586049903596376,0.8,1.0,1.0,347.0,629.0,0.0,0,-886.0,0
570,570,0.13767871434967238,0.1,0.0,0.0,470.0,632.0,0.0,1,3898.0,1
571,571,0.17609204364881992,0.2,1.0,1.0,295.0,886.0,1.0,1,-701.0,1
572,572,0.0912761494687232,0.1,0.0,0.0,308.0,658.0,0.0,1,4034.0,1
573,573,0.7177949740685697,0.7,1.0,1.0,443.0,828.0,0.0,0,-1131.0,0
574,574,-0.26282522422367605,-0.3,1.0,0.0,270.0,610.0,0.0,0,4120.0,1
575,575,-0.6071821192296457,-0.6,1.0,0.0,353.0,749.0,0.0,0,3898.0,1
576,576,0.19174557773906276,0.2,0.0,0.0,281.0,851.0,0.0,1,3868.0,1
577,577,0.5388575435822437,0.5,1.0,1.0,358.0,804.0,0.0,0,3838.0,0
578,578,-0.7565064518029588,-0.8,1.0,0.0,409.0,935.0,0.0,0,-1274.0,1
579,579,-0.48534106792996456,-0.5,0.0,1.0,466.0,583.0,0.0,1,-739.0,0
580,580,0.29362251803893213,0.3,0.0,0.0,381.0,589.0,0.0,1,4030.0,1
581,581,-0.5214407654844802,-0.5,0.0,1.0,453.0,661.0,0.0,1,3886.0,0
582,582,-0.7141638964985789,-0.7,0.0,1.0,384.0,551.0,0.0,1,4065.0,0
583,583,-0.16139912215830932,-0.2,0.0,1.0,267.0,781.0,0.0,1,3952.0,0
584,584,0.5764824461869628,0.6,1.0,1.0,363.0,652.0,0.0,0,3985.0,0
585,585,0.4938165917422487,0.5,1.0,1.0,271.0,595.0,0.0,0,4134.0,0
586,586,0.7087371964144672,0.7,1.0,1.0,251.0,676.0,0.0,0,4073.0,0
587,587,-0.6098667310537342,-0.6,1.0,0.0,459.0,699.0,0.0,0,3842.0,1
588,588,0.758174107009984,0.8,1.0,1.0,282.0,644.0,0.0,0,4074.0,0
589,589,-0.8131470207366338,-0.8,0.0,1.0,385.0,999.0,1.0,0,-1364.0,1
590,590,-0.6947652743963129,-0.7,0.0,1.0,421.0,853.0,0.0,1,3726.0,0
591,591,-0.07070963565077937,-0.1,1.0,0.0,460.0,534.0,0.0,0,4006.0,1
592,592,0.649786447043437,0.6,1.0,1.0,490.0,932.0,0.0,0,3578.0,0
593,593,0.1570865934507678,0.2,0.0,0.0,489.0,711.0,0.0,1,3800.0,1
594,594,-0.8378285038842419,-0.8,1.0,0.0,357.0,625.0,0.0,0,4018.0,1
595,595,0.7078137669254762,0.7,1.0,1.0,389.0,698.0,0.0,0,3913.0,0
596,596,-0.7436500831246219,-0.7,1.0,0.0,381.0,630.0,0.0,0,3989.0,1
597,597,-0.4187783746157539,-0.4,0.0,1.0,322.0,619.0,0.0,1,4059.0,0
598,598,-0.19848481524211492,-0.2,1.0,0.0,443.0,565.0,0.0,0,3992.0,1
599,599,0.6359366796772691,0.6,0.0,0.0,486.0,652.0,0.0,1,3862.0,1
600,600,-0.07074442848398477,-0.1,0.0,1.0,261.0,663.0,0.0,1,4076.0,0
601,601,-0.3895986622964279,-0.4,1.0,0.0,381.0,958.0,1.0,1,-1319.0,0
602,602,0.28087232782206806,0.3,0.0,0.0,408.0,886.0,0.0,1,3706.0,1
603,603,-0.2520075307102616,-0.3,1.0,0.0,293.0,661.0,1.0,1,-924.0,0
604,604,-0.5387028678768127,-0.5,0.0,1.0,291.0,588.0,0.0,1,4121.0,0
605,605,-0.7524023790508042,-0.8,1.0,0.0,280.0,899.0,0.0,0,-679.0,1
606,606,-0.25703544758414176,-0.3,0.0,1.0,436.0,637.0,0.0,1,3927.0,0
607,607,-0.8368298514543479,-0.8,1.0,0.0,315.0,966.0,0.0,0,3719.0,1
608,608,0.028860302483066258,0.0,0.0,0.0,275.0,660.0,0.0,1,4065.0,1
609,609,0.5931961650478988,0.6,0.0,0.0,429.0,734.0,0.0,1,3837.0,1
610,610,0.34528660610584494,0.3,0.0,0.0,301.0,591.0,0.0,1,4108.0,1
611,611,-0.7350159932080655,-0.7,1.0,0.0,444.0,716.0,0.0,0,3840.0,1
612,612,0.7584237610216819,0.8,1.0,1.0,408.0,979.0,0.0,0,3613.0,0
613,613,0.04015568759135091,0.0,1.0,1.0,261.0,947.0,0.0,0,3792.0,0
614,614,0.18817733544120208,0.2,0.0,0.0,470.0,963.0,0.0,1,3567.0,1
615,615,-0.17958144792576347,-0.2,0.0,1.0,327.0,674.0,0.0,1,3999.0,0
616,616,0.258096509838989,0.3,1.0,1.0,274.0,769.0,0.0,0,3957.0,0
617,617,-0.27565210211332525,-0.3,1.0,0.0,286.0,632.0,0.0,0,4082.0,1
618,618,-0.785029217011707,-0.8,0.0,1.0,377.0,621.0,0.0,1,4002.0,0
619,619,0.7002410775637743,0.7,0.0,0.0,340.0,523.0,0.0,1,4137.0,1
620,620,0.23751449163381,0.2,1.0,1.0,459.0,889.0,0.0,0,3652.0,0
621,621,0.15196205040644217,0.2,1.0,1.0,363.0,832.0,0.0,0,3805.0,0
622,622,-0.7565335827942105,-0.8,0.0,1.0,407.0,841.0,0.0,1,3752.0,0
623,623,0.6851185915657508,0.7,0.0,0.0,422.0,558.0,0.0,1,4020.0,1
624,624,0.010793135749729621,0.0,1.0,1.0,272.0,719.0,0.0,0,4009.0,0
625,625,-0.23748083023386568,-0.2,0.0,1.0,434.0,826.0,0.0,1,3740.0,0
626,626,0.6369446850350692,0.6,0.0,0.0,359.0,729.0,0.0,1,-508.0,1
627,627,-0.3249029544228401,-0.3,1.0,0.0,386.0,751.0,0.0,0,3863.0,1
628,628,0.20159582188723213,0.2,0.0,0.0,378.0,659.0,0.0,1,3963.0,1
629,629,0.3719735014699429,0.4,0.0,0.0,492.0,771.0,0.0,1,-1243.0,1
630,630,0.16181855350943486,0.2,0.0,0.0,462.0,801.0,1.0,0,-1153.0,0
631,631,-0.6437743655191652,-0.6,1.0,0.0,328.0,975.0,0.0,0,3697.0,1
632,632,-0.5006175694555158,-0.5,0.0,1.0,343.0,688.0,0.0,1,3969.0,0
633,633,-0.8529118351930965,-0.9,1.0,0.0,293.0,543.0,0.0,0,4164.0,1
634,634,0.0582919372947166,0.1,0.0,0.0,441.0,536.0,1.0,0,-907.0,0
635,635,-0.6796518851229121,-0.7,0.0,1.0,396.0,577.0,0.0,1,4027.0,0
636,636,0.6582789456438599,0.7,1.0,1.0,438.0,716.0,0.0,0,3846.0,0
637,637,0.14323729293413512,0.1,0.0,0.0,378.0,964.0,0.0,1,3658.0,1
638,638,0.8115416194160788,0.8,1.0,1.0,311.0,811.0,0.0,0,3878.0,0
639,639,-0.09934267521044426,-0.1,0.0,1.0,277.0,804.0,0.0,1,3919.0,0
640,640,0.8549674403331239,0.9,1.0,1.0,319.0,917.0,0.0,0,3764.0,0
641,641,0.4145366337983606,0.4,1.0,1.0,487.0,660.0,1.0,1,-1087.0,1
642,642,-0.726956758545329,-0.7,0.0,1.0,272.0,991.0,0.0,1,3737.0,0
643,643,0.010714009409275582,0.0,1.0,1.0,367.0,966.0,0.0,0,3667.0,0
644,644,-0.4258492205975005,-0.4,0.0,1.0,442.0,989.0,0.0,1,-1231.0,0
645,645,-0.5158209394786624,-0.5,0.0,1.0,312.0,822.0,0.0,1,3866.0,0
646,646,-0.6895081284625971,-0.7,1.0,0.0,472.0,850.0,0.0,0,-1192.0,1
647,647,0.32694988484852294,0.3,0.0,0.0,485.0,652.0,0.0,1,3863.0,1
648,648,-0.8506028798763428,-0.9,0.0,1.0,441.0,610.0,0.0,1,3949.0,0
649,649,-0.024976191107973555,-0.0,0.0,1.0,388.0,622.0,0.0,1,-240.0,0
650,650,-0.21594338910869793,-0.2,1.0,0.0,451.0,694.0,0.0,0,3855.0,1
651,651,-0.3217319600400067,-0.3,0.0,1.0,346.0,506.0,0.0,1,4148.0,0
652,652,0.2522516891889056,0.3,1.0,1.0,453.0,534.0,1.0,1,-507.0,1
653,653,-0.8356676075776536,-0.8,1.0,0.0,449.0,991.0,0.0,0,3560.0,1
654,654,0.007910727355189162,0.0,0.0,0.0,262.0,776.0,0.0,1,3962.0,1
655,655,0.4828244892503687,0.5,0.0,0.0,406.0,547.0,0.0,1,4047.0,1
656,656,-0.8534617523327024,-0.9,1.0,0.0,279.0,743.0,0.0,0,-902.0,1
657,657,-0.7739898873066635,-0.8,1.0,0.0,272.0,683.0,0.0,0,4045.0,1
658,658,-0.8280532616521654,-0.8,0.0,1.0,399.0,706.0,0.0,1,3895.0,0
659,659,0.39553978776012777,0.4,0.0,0.0,250.0,855.0,0.0,1,3895.0,1
660,660,0.4476744156382987,0.4,1.0,1.0,470.0,999.0,0.0,0,3531.0,0
661,661,0.6217748638835566,0.6,1.0,1.0,424.0,868.0,0.0,0,3708.0,0
662,662,0.2373291829787053,0.2,1.0,1.0,274.0,872.0,0.0,0,3854.0,0
663,663,0.5123993591130095,0.5,0.0,0.0,333.0,679.0,0.0,1,3988.0,1
664,664,-0.8316626129279505,-0.8,1.0,0.0,372.0,660.0,0.0,0,3968.0,1
665,665,0.2940113194564359,0.3,0.0,0.0,294.0,950.0,0.0,1,3756.0,1
666,666,0.2955360126529277,0.3,1.0,1.0,269.0,850.0,1.0,1,-1069.0,1
667,667,0.45810724073276365,0.5,0.0,0.0,309.0,912.0,1.0,0,-711.0,0
668,668,0.07542673416663359,0.1,0.0,0.0,396.0,910.0,0.0,1,3694.0,1
669,669,0.242140144601931,0.2,1.0,1.0,252.0,533.0,0.0,0,-585.0,0
670,670,-0.33985000458467085,-0.3,1.0,0.0,401.0,874.0,0.0,0,3725.0,1
671,671,-0.30242376351607336,-0.3,1.0,0.0,429.0,928.0,0.0,0,-1357.0,1
672,672,-0.3199182210775694,-0.3,1.0,0.0,404.0,533.0,0.0,0,4063.0,1
673,673,-0.045697040913310505,-0.0,0.0,1.0,462.0,936.0,0.0,1,3602.0,0
674,674,0.4360142660098306,0.4,1.0,1.0,331.0,884.0,0.0,0,3785.0,0
675,675,-0.8052814481161832,-0.8,1.0,0.0,421.0,986.0,0.0,0,3593.0,1
676,676,0.8572993474841087,0.9,0.0,0.0,392.0,631.0,0.0,1,3977.0,1
677,677,0.3394584174698695,0.3,1.0,1.0,401.0,543.0,0.0,0,4056.0,0
678,678,-0.8940812180675928,-0.9,1.0,0.0,275.0,687.0,1.0,1,-862.0,0
679,679,-0.5160074170749502,-0.5,1.0,0.0,329.0,844.0,0.0,0,3827.0,1
680,680,0.6996066621447273,0.7,0.0,0.0,379.0,682.0,0.0,1,3939.0,1
681,681,0.5311221241075316,0.5,0.0,0.0,490.0,810.0,0.0,1,3700.0,1
682,682,0.8730859384641257,0.9,1.0,1.0,351.0,735.0,1.0,1,-1066.0,1
683,683,0.15025740419843114,0.2,1.0,1.0,448.0,638.0,0.0,0,-996.0,0
684,684,0.8537387119620398,0.9,1.0,1.0,309.0,778.0,0.0,0,-997.0,0
685,685,-0.16045942808064362,-0.2,0.0,1.0,446.0,926.0,1.0,0,-1222.0,1
686,686,0.7937528119226146,0.8,1.0,1.0,406.0,835.0,0.0,0,3759.0,0
687,687,0.2583974242483623,0.3,0.0,0.0,317.0,693.0,0.0,1,3990.0,1
688,688,-0.6576090883496761,-0.7,1.0,0.0,316.0,679.0,0.0,0,4005.0,1
689,689,-0.32378552333196386,-0.3,1.0,0.0,260.0,788.0,0.0,0,3952.0,1
690,690,0.5324322600273167,0.5,1.0,1.0,385.0,605.0,0.0,0,4010.0,0
691,691,-0.6899212831297006,-0.7,1.0,0.0,496.0,577.0,0.0,0,3927.0,1
692,692,0.6766021799635648,0.7,0.0,0.0,276.0,969.0,0.0,1,3755.0,1
693,693,0.8928620637994845,0.9,1.0,1.0,404.0,770.0,0.0,0,3826.0,0
694,694,-0.26043661096241344,-0.3,1.0,0.0,446.0,823.0,1.0,1,-579.0,0
695,695,-0.27174230725528303,-0.3,1.0,0.0,434.0,581.0,0.0,0,3985.0,1
696,696,0.2068244373951892,0.2,0.0,0.0,309.0,765.0,0.0,1,3926.0,1
697,697,0.6917888098501174,0.7,0.0,0.0,347.0,616.0,1.0,0,-933.0,0
698,698,0.42211222839190976,0.4,0.0,0.0,320.0,591.0,0.0,1,4089.0,1
699,699,0.666388682953346,0.7,0.0,0.0,383.0,988.0,0.0,1,3629.0,1
700,700,-0.6257639268474869,-0.6,1.0,0.0,376.0,552.0,0.0,0,4072.0,1
701,701,-0.562267246685866,-0.6,0.0,1.0,462.0,504.0,0.0,1,-936.0,0
702,702,0.3681994722901051,0.4,0.0,0.0,286.0,732.0,0.0,1,3982.0,1
703,703,-0.8005963643321033,-0.8,1.0,0.0,479.0,768.0,0.0,0,3753.0,1
704,704,0.542684227554105,0.5,0.0,0.0,412.0,726.0,0.0,1,3862.0,1
705,705,0.04877909991829321,0.0,1.0,1.0,398.0,772.0,1.0,1,-1170.0,1
706,706,0.45871286273552336,0.5,1.0,1.0,470.0,841.0,0.0,0,3689.0,0
707,707,-0.6686017253173508,-0.7,0.0,1.0,301.0,644.0,0.0,1,4055.0,0
708,708,-0.8304910821430834,-0.8,1.0,0.0,439.0,886.0,0.0,0,3675.0,1
709,709,-0.5063498651138834,-0.5,0.0,1.0,431.0,850.0,1.0,0,-1211.0,1
710,710,-0.6266587494767167,-0.6,1.0,0.0,461.0,595.0,0.0,0,3944.0,1
711,711,-0.7100281047302364,-0.7,0.0,1.0,463.0,908.0,0.0,1,3629.0,0
712,712,0.08169602968003487,0.1,0.0,0.0,296.0,720.0,0.0,1,3984.0,1
713,713,0.8486417649026202,0.8,1.0,1.0,302.0,902.0,0.0,0,-804.0,0
714,714,0.43629407302853485,0.4,1.0,1.0,300.0,837.0,0.0,0,3863.0,0
715,715,-0.5221379764978473,-0.5,0.0,1.0,339.0,746.0,0.0,1,3915.0,0
716,716,-0.12371659829090575,-0.1,0.0,1.0,307.0,940.0,0.0,1,3753.0,0
717,717,0.17695077724300223,0.2,0.0,0.0,323.0,788.0,0.0,1,3889.0,1
718,718,0.29196902294700344,0.3,0.0,0.0,439.0,665.0,0.0,1,3896.0,1
719,719,0.7982918233484232,0.8,0.0,0.0,258.0,540.0,0.0,1,4202.0,1
720,720,-0.39673852610160387,-0.4,0.0,1.0,265.0,664.0,0.0,1,4071.0,0
721,721,-0.7387259224412001,-0.7,0.0,1.0,396.0,597.0,0.0,1,4007.0,0
722,722,-0.8324959851355618,-0.8,0.0,1.0,486.0,858.0,0.0,1,3656.0,0
723,723,-0.6914687709606748,-0.7,1.0,0.0,404.0,618.0,0.0,0,3978.0,1
724,724,-0.8582151478685939,-0.9,0.0,1.0,466.0,660.0,0.0,1,-946.0,0
725,725,0.06914817081780666,0.1,0.0,0.0,387.0,590.0,0.0,1,4023.0,1
726,726,-0.7489539054463138,-0.7,0.0,1.0,316.0,934.0,0.0,1,3750.0,0
727,727,-0.1307716473606675,-0.1,0.0,1.0,344.0,512.0,0.0,1,-616.0,0
728,728,0.885248647018766,0.9,0.0,0.0,392.0,655.0,0.0,1,3953.0,1
729,729,0.7125054863699151,0.7,1.0,1.0,457.0,687.0,0.0,0,3856.0,0
730,730,-0.29947955640525215,-0.3,1.0,0.0,267.0,784.0,0.0,0,3949.0,1
731,731,-0.523639200621697,-0.5,1.0,0.0,315.0,705.0,0.0,0,3980.0,1
732,732,-0.8438741323904448,-0.8,0.0,1.0,294.0,757.0,0.0,1,-931.0,0
733,733,0.17556407518918615,0.2,1.0,1.0,310.0,642.0,0.0,0,4048.0,0
734,734,-0.23601408545309566,-0.2,0.0,1.0,499.0,881.0,0.0,1,3620.0,0
735,735,-0.5105283093061628,-0.5,0.0,1.0,404.0,818.0,0.0,1,3778.0,0
736,736,0.3450153005493518,0.3,0.0,0.0,279.0,664.0,0.0,1,4057.0,1
737,737,-0.2808079514430416,-0.3,0.0,1.0,359.0,648.0,1.0,0,-697.0,1
738,738,-0.3558694585525478,-0.4,0.0,1.0,280.0,610.0,0.0,1,4110.0,0
739,739,-0.8519581801493996,-0.9,1.0,0.0,323.0,509.0,1.0,1,-302.0,0
740,740,-0.8199077708084828,-0.8,0.0,1.0,369.0,535.0,0.0,1,4096.0,0
741,741,-0.28059499956599965,-0.3,1.0,0.0,443.0,964.0,0.0,0,3593.0,1
742,742,-0.2866385568318949,-0.3,0.0,1.0,323.0,536.0,0.0,1,4141.0,0
743,743,0.5248458037711085,0.5,1.0,1.0,419.0,722.0,0.0,0,3859.0,0
744,744,0.8385602065897394,0.8,1.0,1.0,328.0,970.0,1.0,1,-1028.0,1
745,745,-0.17018854604226208,-0.2,0.0,1.0,378.0,521.0,0.0,1,-839.0,0
746,746,-0.11192048182573233,-0.1,0.0,1.0,383.0,807.0,1.0,0,-930.0,1
747,747,-0.3010563146966704,-0.3,1.0,0.0,299.0,692.0,1.0,1,-511.0,0
748,748,-0.8252384803319599,-0.8,0.0,1.0,423.0,507.0,0.0,1,4070.0,0
749,749,0.8180308372959485,0.8,1.0,1.0,382.0,524.0,0.0,0,-846.0,0
750,750,0.8957559768823878,0.9,1.0,1.0,459.0,706.0,0.0,0,3835.0,0
751,751,-0.09136320855498714,-0.1,0.0,1.0,389.0,736.0,0.0,1,3875.0,0
752,752,-0.3595383806244231,-0.4,0.0,1.0,482.0,983.0,0.0,1,3535.0,0
753,753,-0.6893571026817384,-0.7,0.0,1.0,301.0,935.0,0.0,1,3764.0,0
754,754,0.7809597384938439,0.8,1.0,1.0,446.0,658.0,1.0,1,-634.0,1
755,755,0.6806613682464587,0.7,0.0,0.0,284.0,674.0,0.0,1,4042.0,1
756,756,-0.13055205057238128,-0.1,1.0,0.0,293.0,951.0,0.0,0,3756.0,1
757,757,-0.7827033099112525,-0.8,1.0,0.0,496.0,666.0,0.0,0,3838.0,1
758,758,0.8870265049378404,0.9,1.0,1.0,434.0,639.0,1.0,1,-1053.0,1
759,759,0.8073488911740035,0.8,1.0,1.0,448.0,577.0,0.0,0,3975.0,0
760,760,0.7351464792089447,0.7,1.0,1.0,423.0,911.0,0.0,0,3666.0,0
761,761,-0.6604838492235385,-0.7,0.0,1.0,477.0,816.0,0.0,1,-1263.0,0
762,762,-0.011516811841698615,-0.0,0.0,1.0,445.0,510.0,0.0,1,-265.0,0
763,763,-0.529524970599963,-0.5,0.0,1.0,480.0,746.0,0.0,1,3774.0,0
764,764,0.14255853774515226,0.1,1.0,1.0,404.0,800.0,0.0,0,3796.0,0
765,765,-0.6128713751622901,-0.6,0.0,1.0,314.0,520.0,0.0,1,-734.0,0
766,766,-0.5320333878310333,-0.5,0.0,1.0,470.0,907.0,0.0,1,3623.0,0
767,767,0.5788352164777707,0.6,1.0,1.0,318.0,957.0,0.0,0,-1275.0,0
768,768,-0.1423270104268094,-0.1,0.0,1.0,421.0,606.0,0.0,1,3973.0,0
769,769,0.6008896839823298,0.6,0.0,0.0,263.0,985.0,0.0,1,-1248.0,1
770,770,-0.41085492425778863,-0.4,0.0,1.0,288.0,573.0,0.0,1,4139.0,0
771,771,-0.13575564492596515,-0.1,1.0,0.0,462.0,866.0,0.0,0,3672.0,1
772,772,0.0077356918761083415,0.0,0.0,0.0,425.0,995.0,0.0,1,3580.0,1
773,773,0.07743283512793708,0.1,1.0,1.0,336.0,971.0,0.0,0,3693.0,0
774,774,-0.8866432119175893,-0.9,1.0,0.0,447.0,517.0,0.0,0,4036.0,1
775,775,-0.28189370997418084,-0.3,1.0,0.0,323.0,934.0,1.0,1,-797.0,0
776,776,-0.5456922167991025,-0.5,1.0,0.0,446.0,843.0,0.0,0,3711.0,1
777,777,0.35281376365221806,0.4,1.0,1.0,257.0,552.0,0.0,0,4191.0,0
778,778,-0.6750171818096611,-0.7,1.0,0.0,380.0,655.0,0.0,0,3965.0,1
779,779,0.2413061796077366,0.2,1.0,1.0,285.0,980.0,0.0,0,3735.0,0
780,780,0.25919667826297343,0.3,0.0,0.0,396.0,784.0,0.0,1,3820.0,1
781,781,0.07032566591328815,0.1,0.0,0.0,464.0,909.0,0.0,1,-1043.0,1
782,782,-0.5939801226394674,-0.6,1.0,0.0,300.0,957.0,0.0,0,3743.0,1
783,783,-0.5291699177338508,-0.5,0.0,1.0,326.0,564.0,0.0,1,4110.0,0
784,784,0.39463295069702375,0.4,1.0,1.0,472.0,548.0,0.0,0,-1010.0,0
785,785,-0.4063278568324273,-0.4,0.0,1.0,327.0,618.0,0.0,1,4055.0,0
786,786,0.3872250640145286,0.4,1.0,1.0,335.0,959.0,0.0,0,3706.0,0
787,787,0.3534842363731324,0.4,0.0,0.0,275.0,607.0,1.0,0,-272.0,0
788,788,0.2115961668277887,0.2,0.0,0.0,370.0,541.0,1.0,0,-681.0,0
789,789,0.8271994007780868,0.8,1.0,1.0,424.0,802.0,0.0,0,3774.0,0
790,790,-0.10221677139999141,-0.1,1.0,0.0,353.0,832.0,0.0,0,3815.0,1
791,791,0.4031613885876063,0.4,0.0,0.0,330.0,760.0,0.0,1,3910.0,1
792,792,-0.4907943083775158,-0.5,1.0,0.0,459.0,822.0,0.0,0,3719.0,1
793,793,-0.6680500995057111,-0.7,1.0,0.0,421.0,719.0,0.0,0,3860.0,1
794,794,0.16947779734715163,0.2,0.0,0.0,393.0,626.0,0.0,1,-749.0,1
795,795,-0.47936252318472805,-0.5,1.0,0.0,346.0,876.0,0.0,0,3778.0,1
796,796,-0.2569066790215927,-0.3,0.0,1.0,457.0,913.0,1.0,0,-1200.0,1
797,797,0.2729585104673261,0.3,0.0,0.0,389.0,671.0,0.0,1,3940.0,1
798,798,-0.8115622464201948,-0.8,0.0,1.0,382.0,690.0,0.0,1,3928.0,0
799,799,0.27293142647402935,0.3,0.0,0.0,294.0,891.0,0.0,1,3815.0,1
800,800,0.1317517827067759,0.1,0.0,0.0,289.0,541.0,0.0,1,4170.0,1
801,801,-0.692430417359845,-0.7,0.0,1.0,452.0,629.0,0.0,1,3919.0,0
802,802,-0.8274296616232611,-0.8,1.0,0.0,348.0,689.0,0.0,0,-207.0,1
803,803,-0.6581999679496773,-0.7,1.0,0.0,361.0,949.0,0.0,0,3690.0,1
804,804,-0.43412411301040815,-0.4,1.0,0.0,272.0,854.0,0.0,0,3874.0,1
805,805,-0.003423262151534767,-0.0,1.0,0.0,498.0,529.0,0.0,0,3973.0,1
806,806,0.6762008456622995,0.7,1.0,1.0,386.0,936.0,0.0,0,3678.0,0
807,807,-0.14289278235022984,-0.1,1.0,0.0,324.0,859.0,0.0,0,3817.0,1
808,808,0.37122050516173044,0.4,1.0,1.0,304.0,602.0,0.0,0,4094.0,0
809,809,0.31258677614546826,0.3,1.0,1.0,380.0,766.0,0.0,0,3854.0,0
810,810,-0.8928027371047212,-0.9,1.0,0.0,328.0,505.0,0.0,0,4167.0,1
811,811,0.6748687391777902,0.7,0.0,0.0,410.0,640.0,1.0,0,-980.0,0
812,812,-0.592564843464164,-0.6,0.0,1.0,452.0,719.0,0.0,1,3829.0,0
813,813,0.040868679367563,0.0,0.0,0.0,252.0,945.0,0.0,1,3803.0,1
814,814,0.38738103824579306,0.4,1.0,1.0,350.0,968.0,0.0,0,3682.0,0
815,815,-0.5582729532502371,-0.6,0.0,1.0,360.0,575.0,0.0,1,4065.0,0
816,816,0.0869363083625525,0.1,1.0,1.0,368.0,559.0,0.0,0,4073.0,0
817,817,0.5452574886730813,0.5,0.0,0.0,401.0,515.0,1.0,0,-786.0,0
818,818,-0.8016711226197837,-0.8,0.0,1.0,336.0,946.0,0.0,1,3718.0,0
819,819,-0.33483558282271,-0.3,1.0,0.0,473.0,515.0,0.0,0,4012.0,1
820,820,-0.6667090820704487,-0.7,0.0,1.0,405.0,623.0,0.0,1,3972.0,0
821,821,0.16706785067687402,0.2,1.0,1.0,485.0,923.0,0.0,0,3592.0,0
822,822,0.07691072657008835,0.1,1.0,1.0,396.0,793.0,0.0,0,3811.0,0
823,823,0.6535382668326334,0.7,1.0,1.0,457.0,613.0,1.0,1,-960.0,1
824,824,0.6354601274994734,0.6,1.0,1.0,475.0,780.0,0.0,0,-1205.0,0
825,825,0.7570075743769716,0.8,1.0,1.0,337.0,914.0,0.0,0,-1171.0,0
826,826,0.624652378212161,0.6,0.0,0.0,382.0,959.0,0.0,1,3659.0,1
827,827,-0.3509174251554442,-0.4,0.0,1.0,288.0,734.0,0.0,1,3978.0,0
828,828,0.0223255847761209,0.0,0.0,0.0,412.0,974.0,0.0,1,3614.0,1
829,829,-0.07856646929851796,-0.1,0.0,1.0,470.0,735.0,0.0,1,3795.0,0
830,830,-0.5258879863695443,-0.5,0.0,1.0,473.0,624.0,0.0,1,3903.0,0
831,831,0.14543696540052486,0.1,0.0,0.0,256.0,950.0,0.0,1,3794.0,1
832,832,0.45764583953091187,0.5,0.0,0.0,275.0,875.0,0.0,1,3850.0,1
833,833,0.6955841497909986,0.7,0.0,0.0,348.0,664.0,0.0,1,3988.0,1
834,834,-0.7440046275459504,-0.7,1.0,0.0,418.0,698.0,0.0,0,3884.0,1
835,835,0.304907748223919,0.3,0.0,0.0,354.0,641.0,0.0,1,4005.0,1
836,836,0.4145436845581657,0.4,1.0,1.0,317.0,684.0,0.0,0,-961.0,0
837,837,-0.41081324859205864,-0.4,0.0,1.0,251.0,596.0,0.0,1,4153.0,0
838,838,0.44408917284149785,0.4,1.0,1.0,416.0,845.0,1.0,1,-1221.0,1
839,839,-0.22204534234725015,-0.2,1.0,0.0,478.0,822.0,0.0,0,3700.0,1
840,840,0.450474232783454,0.5,1.0,1.0,354.0,671.0,0.0,0,3975.0,0
841,841,0.7013067655478579,0.7,1.0,1.0,412.0,669.0,0.0,0,3919.0,0
842,842,-0.4054206194476503,-0.4,1.0,0.0,465.0,647.0,0.0,0,3888.0,1
843,843,0.5702793967422449,0.6,0.0,0.0,485.0,867.0,0.0,1,3648.0,1
844,844,0.021945248040186494,0.0,0.0,0.0,336.0,926.0,1.0,0,-382.0,0
845,845,-0.035126403833908415,-0.0,1.0,0.0,426.0,788.0,0.0,0,3786.0,1
846,846,0.5335368855539783,0.5,0.0,0.0,383.0,653.0,0.0,1,3964.0,1
847,847,0.5553453227244735,0.6,1.0,1.0,290.0,721.0,0.0,0,3989.0,0
848,848,0.4184000761441439,0.4,1.0,1.0,496.0,543.0,0.0,0,3961.0,0
849,849,-0.8297308335518673,-0.8,1.0,0.0,328.0,802.0,0.0,0,3870.0,1
850,850,0.7967738279471469,0.8,0.0,0.0,480.0,555.0,0.0,1,3965.0,1
851,851,-0.19852675917727491,-0.2,1.0,0.0,455.0,590.0,0.0,0,-925.0,1
852,852,0.6215469168456057,0.6,1.0,1.0,434.0,539.0,0.0,0,4027.0,0
853,853,-0.21685636233621408,-0.2,0.0,1.0,415.0,767.0,0.0,1,3818.0,0
854,854,-0.54911678434284,-0.5,0.0,1.0,429.0,765.0,0.0,1,3806.0,0
855,855,-0.31933011819263535,-0.3,1.0,0.0,381.0,813.0,1.0,1,-404.0,0
856,856,0.006235368148085896,0.0,0.0,0.0,391.0,616.0,0.0,1,3993.0,1
857,857,-0.4276496208079595,-0.4,1.0,0.0,376.0,849.0,0.0,0,3775.0,1
858,858,-0.42871787097056635,-0.4,1.0,0.0,489.0,779.0,0.0,0,3732.0,1
859,859,-0.5118835402717821,-0.5,1.0,0.0,498.0,785.0,0.0,0,3717.0,1
860,860,-0.4006936302042769,-0.4,0.0,1.0,367.0,547.0,0.0,1,4086.0,0
861,861,0.7324073145898212,0.7,0.0,0.0,307.0,687.0,0.0,1,4006.0,1
862,862,-0.5849322029526833,-0.6,1.0,0.0,382.0,955.0,1.0,1,-1217.0,0
863,863,-0.17350429097608377,-0.2,1.0,0.0,391.0,549.0,0.0,0,4060.0,1
864,864,0.6344601584395505,0.6,1.0,1.0,374.0,683.0,0.0,0,3943.0,0
865,865,-0.42426238286959067,-0.4,1.0,0.0,282.0,867.0,0.0,0,3851.0,1
866,866,0.6771497765555999,0.7,1.0,1.0,290.0,768.0,0.0,0,3942.0,0
867,867,-0.28995682014918445,-0.3,1.0,0.0,375.0,668.0,0.0,0,3957.0,1
868,868,-0.7800679710022159,-0.8,0.0,1.0,394.0,558.0,0.0,1,4048.0,0
869,869,0.009679100850409128,0.0,1.0,1.0,443.0,558.0,0.0,0,3999.0,0
870,870,0.8610321161753095,0.9,1.0,1.0,322.0,994.0,0.0,0,3684.0,0
871,871,0.5603727110888291,0.6,0.0,0.0,498.0,856.0,0.0,1,3646.0,1
872,872,-0.21769492992097628,-0.2,1.0,0.0,369.0,672.0,1.0,1,-851.0,0
873,873,0.6902042675226053,0.7,0.0,0.0,415.0,999.0,0.0,1,3586.0,1
874,874,0.5235006533072283,0.5,0.0,0.0,351.0,870.0,0.0,1,3779.0,1
875,875,0.5640573828652345,0.6,0.0,0.0,415.0,938.0,0.0,1,3647.0,1
876,876,-0.7046484889502305,-0.7,1.0,0.0,461.0,870.0,0.0,0,3669.0,1
877,877,-0.493920008463094,-0.5,0.0,1.0,493.0,693.0,0.0,1,3814.0,0
878,878,-0.0738509230078439,-0.1,0.0,1.0,306.0,854.0,0.0,1,3840.0,0
879,879,0.678433603730897,0.7,1.0,1.0,436.0,958.0,0.0,0,3606.0,0
880,880,0.20257835617375985,0.2,1.0,1.0,369.0,611.0,0.0,0,4020.0,0
881,881,0.634177835004209,0.6,1.0,1.0,361.0,818.0,1.0,1,-979.0,1
882,882,-0.6995011433526688,-0.7,1.0,0.0,416.0,664.0,0.0,0,3920.0,1
883,883,-0.489742161590236,-0.5,1.0,0.0,298.0,532.0,0.0,0,4170.0,1
884,884,-0.6865485853648565,-0.7,1.0,0.0,425.0,970.0,0.0,0,3605.0,1
885,885,0.818273280962024,0.8,1.0,1.0,385.0,908.0,0.0,0,3707.0,0
886,886,0.08443899104860264,0.1,0.0,0.0,487.0,645.0,1.0,0,-612.0,0
887,887,-0.6263524289563092,-0.6,0.0,1.0,321.0,754.0,0.0,1,3925.0,0
888,888,0.3462371382771413,0.3,0.0,0.0,427.0,578.0,0.0,1,3995.0,1
889,889,0.6521987767047553,0.7,0.0,0.0,336.0,635.0,0.0,1,4029.0,1
890,890,0.4397444129400113,0.4,0.0,0.0,412.0,702.0,0.0,1,3886.0,1
891,891,0.4253648102549735,0.4,0.0,0.0,279.0,972.0,0.0,1,3749.0,1
892,892,0.05308481439212376,0.1,0.0,0.0,343.0,632.0,0.0,1,4025.0,1
893,893,-0.48782160642104155,-0.5,1.0,0.0,432.0,922.0,0.0,0,-734.0,1
894,894,0.8161933144281063,0.8,1.0,1.0,427.0,581.0,1.0,1,-988.0,1
895,895,-0.3052077054949076,-0.3,0.0,1.0,386.0,810.0,1.0,0,-466.0,1
896,896,0.5974628731711743,0.6,1.0,1.0,319.0,914.0,0.0,0,3767.0,0
897,897,0.2769412837429409,0.3,0.0,0.0,330.0,736.0,0.0,1,3934.0,1
898,898,0.8449037078503644,0.8,0.0,0.0,481.0,741.0,0.0,1,3778.0,1
899,899,-0.01626831554361252,-0.0,0.0,1.0,333.0,615.0,0.0,1,4052.0,0
900,900,0.14842342249275176,0.1,0.0,0.0,271.0,832.0,1.0,0,-1013.0,0
901,901,0.32044322504900713,0.3,1.0,1.0,325.0,747.0,0.0,0,3928.0,0
902,902,0.5767069480531964,0.6,0.0,0.0,468.0,906.0,0.0,1,3626.0,1
903,903,-0.398066202550862,-0.4,1.0,0.0,259.0,718.0,1.0,1,-917.0,0
904,904,-0.20760279763576794,-0.2,1.0,0.0,253.0,815.0,1.0,1,-938.0,0
905,905,0.4982505516390551,0.5,1.0,1.0,391.0,747.0,0.0,0,3862.0,0
906,906,0.14699316082999558,0.1,1.0,1.0,339.0,966.0,0.0,0,3695.0,0
907,907,-0.335052041255691,-0.3,0.0,1.0,337.0,932.0,0.0,1,3731.0,0
908,908,0.4130741463392037,0.4,0.0,0.0,263.0,611.0,0.0,1,4126.0,1
909,909,-0.47635718156697626,-0.5,1.0,0.0,313.0,711.0,0.0,0,-944.0,1
910,910,-0.181783717286073,-0.2,1.0,0.0,355.0,678.0,0.0,0,3967.0,1
911,911,0.7038764073077951,0.7,0.0,0.0,400.0,768.0,0.0,1,3832.0,1
912,912,0.858244130167538,0.9,1.0,1.0,369.0,699.0,0.0,0,3932.0,0
913,913,-0.058430303043001564,-0.1,0.0,1.0,336.0,833.0,0.0,1,3831.0,0
914,914,0.510122795340774,0.5,1.0,1.0,316.0,656.0,0.0,0,4028.0,0
915,915,-0.19285660563055773,-0.2,1.0,0.0,386.0,637.0,0.0,0,3977.0,1
916,916,-0.27521476825507196,-0.3,1.0,0.0,263.0,756.0,1.0,1,-669.0,0
917,917,-0.7993821351696042,-0.8,1.0,0.0,440.0,512.0,0.0,0,4048.0,1
918,918,0.733800493259653,0.7,1.0,1.0,261.0,521.0,0.0,0,-662.0,0
919,919,-0.5449422277602514,-0.5,1.0,0.0,307.0,894.0,0.0,0,3799.0,1
920,920,-0.03285231108180575,-0.0,1.0,0.0,273.0,562.0,0.0,0,4165.0,1
921,921,0.6395664670405835,0.6,0.0,0.0,383.0,782.0,0.0,1,3835.0,1
922,922,0.16857012875982014,0.2,1.0,1.0,296.0,905.0,0.0,0,3799.0,0
923,923,0.5519564204417232,0.6,0.0,0.0,332.0,968.0,0.0,1,3700.0,1
924,924,0.4814901894493774,0.5,1.0,1.0,425.0,845.0,0.0,0,3730.0,0
925,925,-0.5423493658113805,-0.5,0.0,1.0,461.0,947.0,0.0,1,3592.0,0
926,926,0.396223372904022,0.4,0.0,0.0,448.0,898.0,0.0,1,3654.0,1
927,927,-0.4448074520390835,-0.4,1.0,0.0,284.0,929.0,1.0,1,-743.0,0
928,928,-0.2693410668135824,-0.3,1.0,0.0,327.0,586.0,0.0,0,-753.0,1
929,929,-0.31196167387675633,-0.3,0.0,1.0,428.0,715.0,1.0,0,-993.0,1
930,930,0.3639882973039906,0.4,0.0,0.0,388.0,564.0,0.0,1,4048.0,1
931,931,-0.834967193548576,-0.8,1.0,0.0,389.0,672.0,0.0,0,-1051.0,1
932,932,0.1976819213248423,0.2,1.0,1.0,400.0,644.0,0.0,0,3956.0,0
933,933,-0.30749019664922594,-0.3,0.0,1.0,341.0,580.0,1.0,0,-771.0,1
934,934,0.4155232364864515,0.4,1.0,1.0,293.0,604.0,0.0,0,4103.0,0
935,935,-0.3276579677005108,-0.3,0.0,1.0,441.0,903.0,0.0,1,3656.0,0
936,936,-0.5622601939264203,-0.6,0.0,1.0,431.0,713.0,0.0,1,-1114.0,0
937,937,0.3972817368840763,0.4,0.0,0.0,383.0,587.0,0.0,1,4030.0,1
938,938,-0.18835688531042394,-0.2,1.0,0.0,343.0,768.0,0.0,0,-591.0,1
939,939,-0.4310286296269512,-0.4,1.0,0.0,313.0,505.0,1.0,1,-778.0,0
940,940,0.8850810472897027,0.9,1.0,1.0,496.0,898.0,0.0,0,3606.0,0
941,941,0.05043232060131331,0.1,0.0,0.0,450.0,577.0,0.0,1,3973.0,1
942,942,-0.2955584849618069,-0.3,0.0,1.0,423.0,864.0,0.0,1,3713.0,0
943,943,0.21165665205213824,0.2,0.0,0.0,429.0,584.0,0.0,1,3987.0,1
944,944,0.5006387480209203,0.5,1.0,1.0,266.0,826.0,0.0,0,3908.0,0
945,945,-0.02034940756782433,-0.0,0.0,1.0,385.0,800.0,1.0,0,-1055.0,1
946,946,-0.6907023077981971,-0.7,1.0,0.0,384.0,852.0,0.0,0,3764.0,1
947,947,-0.14682303918862938,-0.1,1.0,0.0,476.0,515.0,0.0,0,4009.0,1
948,948,0.614488450296847,0.6,1.0,1.0,291.0,915.0,0.0,0,3794.0,0
949,949,-0.5195719859455759,-0.5,0.0,1.0,344.0,890.0,0.0,1,3766.0,0
950,950,-0.32346332556538726,-0.3,0.0,1.0,321.0,600.0,0.0,1,4079.0,0
951,951,0.39153620357573826,0.4,1.0,1.0,264.0,847.0,0.0,0,3889.0,0
952,952,0.12016286056269998,0.1,1.0,1.0,438.0,780.0,1.0,1,-658.0,1
953,953,0.67212086176445,0.7,0.0,0.0,251.0,599.0,0.0,1,4150.0,1
954,954,0.8873133791541014,0.9,1.0,1.0,331.0,669.0,0.0,0,4000.0,0
955,955,-0.2784178488115733,-0.3,1.0,0.0,395.0,726.0,0.0,0,3879.0,1
956,956,0.8982792692475637,0.9,1.0,1.0,319.0,925.0,0.0,0,3756.0,0
957,957,0.3911591784075955,0.4,1.0,1.0,355.0,538.0,0.0,0,4107.0,0
958,958,-0.10767781826291756,-0.1,1.0,0.0,321.0,735.0,0.0,0,3944.0,1
959,959,-0.761315848454116,-0.8,0.0,1.0,310.0,777.0,0.0,1,3913.0,0
960,960,-0.6154139107099494,-0.6,1.0,0.0,337.0,995.0,0.0,0,-1182.0,1
961,961,-0.28316212983455424,-0.3,1.0,0.0,305.0,554.0,0.0,0,4141.0,1
962,962,-0.3686557960329858,-0.4,0.0,1.0,385.0,567.0,0.0,1,4048.0,0
963,963,-0.4796201247520851,-0.5,1.0,0.0,321.0,739.0,0.0,0,3940.0,1
964,964,0.09338942732136302,0.1,1.0,1.0,262.0,646.0,0.0,0,-288.0,0
965,965,-0.7519908117347576,-0.8,1.0,0.0,403.0,993.0,1.0,1,-1206.0,0
966,966,0.5753400214133025,0.6,1.0,1.0,323.0,808.0,0.0,0,3869.0,0
967,967,0.27350056071167483,0.3,1.0,1.0,425.0,610.0,0.0,0,3965.0,0
968,968,-0.07251803976283688,-0.1,1.0,0.0,477.0,636.0,0.0,0,-663.0,1
969,969,0.047612404757610416,0.0,0.0,0.0,267.0,576.0,0.0,1,4157.0,1
970,970,-0.4177612145231753,-0.4,1.0,0.0,473.0,784.0,0.0,0,3743.0,1
971,971,-0.24116163617886577,-0.2,0.0,1.0,437.0,876.0,0.0,1,-823.0,0
972,972,-0.7158712797128515,-0.7,0.0,1.0,291.0,842.0,0.0,1,3867.0,0
973,973,-0.8099561388897669,-0.8,1.0,0.0,259.0,640.0,0.0,0,4101.0,1
974,974,0.5487522802679218,0.5,1.0,1.0,319.0,884.0,0.0,0,-1073.0,0
975,975,-0.0572118055986659,-0.1,0.0,1.0,382.0,652.0,0.0,1,3966.0,0
976,976,-0.06807916130600533,-0.1,0.0,1.0,449.0,629.0,0.0,1,3922.0,0
977,977,-0.45353802217888234,-0.5,1.0,0.0,282.0,921.0,0.0,0,3797.0,1
978,978,-0.17444631406847333,-0.2,1.0,0.0,437.0,539.0,0.0,0,-866.0,1
979,979,-0.599963315107158,-0.6,1.0,0.0,382.0,575.0,1.0,1,-757.0,0
980,980,0.18514049910259633,0.2,0.0,0.0,388.0,559.0,0.0,1,4053.0,1
981,981,-0.16204014194865524,-0.2,1.0,0.0,294.0,795.0,0.0,0,3911.0,1
982,982,0.40606604926280954,0.4,1.0,1.0,454.0,579.0,0.0,0,3967.0,0
983,983,0.17653113805125875,0.2,0.0,0.0,274.0,654.0,0.0,1,4072.0,1
984,984,0.6707086840219766,0.7,0.0,0.0,275.0,517.0,0.0,1,4208.0,1
985,985,-0.048342433908407534,-0.0,0.0,1.0,305.0,841.0,0.0,1,3854.0,0
986,986,0.6025313636907513,0.6,1.0,1.0,426.0,649.0,0.0,0,3925.0,0
987,987,0.4457190369806555,0.4,0.0,0.0,347.0,775.0,0.0,1,3878.0,1
988,988,-0.36446280140237064,-0.4,0.0,1.0,283.0,836.0,0.0,1,3881.0,0
989,989,-0.5587249709641788,-0.6,1.0,0.0,462.0,797.0,0.0,0,3741.0,1
990,990,-0.4027638255738088,-0.4,0.0,1.0,280.0,626.0,0.0,1,4094.0,0
991,991,-0.34946561919342556,-0.3,1.0,0.0,331.0,911.0,0.0,0,3758.0,1
992,992,-0.42095634352809297,-0.4,0.0,1.0,472.0,984.0,0.0,1,3544.0,0
993,993,0.4815278815786469,0.5,1.0,1.0,275.0,752.0,0.0,0,3973.0,0
994,994,-0.4104098204294334,-0.4,0.0,1.0,368.0,536.0,1.0,0,-784.0,1
995,995,-0.7376375502661813,-0.7,0.0,1.0,413.0,703.0,1.0,0,-1036.0,1
996,996,-0.16516159917330242,-0.2,1.0,0.0,322.0,593.0,0.0,0,4085.0,1
997,997,-0.38418347840674505,-0.4,1.0,0.0,418.0,786.0,0.0,0,3796.0,1
998,998,-0.5151543777777807,-0.5,0.0,1.0,335.0,528.0,0.0,1,4137.0,0
999,999,-0.4060810083574458,-0.4,1.0,0.0,323.0,901.0,0.0,0,3776.0,1
1000,1000,0.44081857788450496,0.4,1.0,1.0,458.0,838.0,0.0,0,3704.0,0
1001,1001,0.17045443634660928,0.2,1.0,1.0,473.0,711.0,0.0,0,3816.0,0
1002,1002,-0.22176280103450607,-0.2,0.0,1.0,305.0,785.0,0.0,1,3910.0,0
1003,1003,-0.06870074293844919,-0.1,0.0,1.0,438.0,696.0,0.0,1,3866.0,0
1004,1004,0.7897171313258572,0.8,1.0,1.0,373.0,794.0,1.0,1,-997.0,1
1005,1005,0.6957261301166416,0.7,1.0,1.0,443.0,569.0,0.0,0,3988.0,0
1006,1006,-0.030967312252150325,-0.0,0.0,1.0,319.0,709.0,0.0,1,3972.0,0
1007,1007,0.23073460131140477,0.2,1.0,1.0,467.0,910.0,1.0,1,-1327.0,1
1008,1008,-0.14499694555709586,-0.1,1.0,0.0,436.0,792.0,0.0,0,3772.0,1
1009,1009,-0.7363096462278335,-0.7,1.0,0.0,290.0,726.0,0.0,0,3984.0,1
1010,1010,0.6976693082443116,0.7,1.0,1.0,369.0,796.0,0.0,0,3835.0,0
1011,1011,0.02849806699230195,0.0,0.0,0.0,289.0,982.0,0.0,1,3729.0,1
1012,1012,0.3782738397000879,0.4,1.0,1.0,421.0,525.0,0.0,0,4054.0,0
1013,1013,-0.4942770032275344,-0.5,0.0,1.0,335.0,620.0,0.0,1,4045.0,0
1014,1014,-0.8358857159725389,-0.8,1.0,0.0,358.0,966.0,0.0,0,3676.0,1
1015,1015,0.8068944879499648,0.8,0.0,0.0,343.0,513.0,0.0,1,4144.0,1
1016,1016,-0.42389099683929615,-0.4,0.0,1.0,354.0,684.0,0.0,1,3962.0,0
1017,1017,0.30861168199742484,0.3,0.0,0.0,263.0,751.0,0.0,1,3986.0,1
1018,1018,-0.021149878567194413,-0.0,1.0,0.0,494.0,583.0,0.0,0,-1067.0,1
1019,1019,0.7896590358529124,0.8,0.0,0.0,318.0,668.0,0.0,1,4014.0,1
1020,1020,0.5125762451486223,0.5,1.0,1.0,325.0,752.0,0.0,0,-1057.0,0
1021,1021,-0.8568155436448686,-0.9,0.0,1.0,297.0,749.0,0.0,1,-596.0,0
1022,1022,-0.4104112634713872,-0.4,0.0,1.0,385.0,546.0,0.0,1,4069.0,0
1023,1023,-0.5826078117512629,-0.6,0.0,1.0,496.0,573.0,0.0,1,3931.0,0
1024,1024,0.526144547683633,0.5,0.0,0.0,481.0,842.0,0.0,1,3677.0,1
1025,1025,0.05116339834618511,0.1,1.0,1.0,341.0,525.0,1.0,1,-796.0,1
1026,1026,0.2241222513169191,0.2,0.0,0.0,416.0,756.0,0.0,1,3828.0,1
1027,1027,-0.7016040533778394,-0.7,0.0,1.0,343.0,818.0,0.0,1,3839.0,0
1028,1028,0.7952572493000184,0.8,0.0,0.0,377.0,828.0,0.0,1,3795.0,1
1029,1029,-0.33689403343224156,-0.3,1.0,0.0,488.0,723.0,0.0,0,3789.0,1
1030,1030,-0.30738707888744354,-0.3,0.0,1.0,321.0,963.0,0.0,1,3716.0,0
1031,1031,-0.8695105473894773,-0.9,0.0,1.0,391.0,507.0,0.0,1,4102.0,0
1032,1032,-0.6981632317769327,-0.7,1.0,0.0,298.0,594.0,0.0,0,-852.0,1
1033,1033,0.29112770508233077,0.3,0.0,0.0,295.0,780.0,0.0,1,-995.0,1
1034,1034,-0.3434452130152307,-0.3,0.0,1.0,484.0,558.0,0.0,1,-802.0,0
1035,1035,0.5688003594348959,0.6,1.0,1.0,257.0,946.0,0.0,0,3797.0,0
1036,1036,-0.4335439882000107,-0.4,0.0,1.0,439.0,631.0,0.0,1,3930.0,0
1037,1037,-0.4373038576691133,-0.4,1.0,0.0,488.0,577.0,0.0,0,3935.0,1
1038,1038,-0.6031518539710441,-0.6,1.0,0.0,405.0,663.0,0.0,0,3932.0,1
1039,1039,0.2342899004234128,0.2,1.0,1.0,481.0,607.0,0.0,0,3912.0,0
1040,1040,-0.1062285930306347,-0.1,1.0,0.0,461.0,565.0,0.0,0,3974.0,1
1041,1041,-0.12655745132769303,-0.1,1.0,0.0,403.0,562.0,0.0,0,4035.0,1
1042,1042,0.5252450914949099,0.5,1.0,1.0,304.0,908.0,1.0,1,-1162.0,1
1043,1043,0.04889503051557986,0.0,0.0,0.0,258.0,889.0,0.0,1,3853.0,1
1044,1044,-0.11298446925296923,-0.1,0.0,1.0,367.0,698.0,0.0,1,3935.0,0
1045,1045,-0.08776481283923177,-0.1,1.0,0.0,317.0,995.0,0.0,0,3688.0,1
1046,1046,-9.352167216747365e-05,-0.0,1.0,0.0,331.0,908.0,0.0,0,3761.0,1
1047,1047,0.2893051381583239,0.3,0.0,0.0,414.0,892.0,0.0,1,3694.0,1
1048,1048,0.29195375865666817,0.3,1.0,1.0,384.0,706.0,0.0,0,3910.0,0
1049,1049,0.44390055629328995,0.4,1.0,1.0,443.0,994.0,0.0,0,3563.0,0
1050,1050,0.24668680931023979,0.2,0.0,0.0,356.0,590.0,0.0,1,4054.0,1
1051,1051,-0.3125918212045059,-0.3,0.0,1.0,416.0,673.0,1.0,0,-939.0,1
1052,1052,0.25729972816201785,0.3,1.0,1.0,351.0,671.0,0.0,0,3978.0,0
1053,1053,0.4845453776131613,0.5,1.0,1.0,493.0,641.0,0.0,0,3866.0,0
1054,1054,0.3965691950418936,0.4,1.0,1.0,403.0,896.0,0.0,0,3701.0,0
1055,1055,0.4277754252378291,0.4,1.0,1.0,261.0,900.0,0.0,0,3839.0,0
1056,1056,-0.5399892257909445,-0.5,1.0,0.0,476.0,891.0,0.0,0,3633.0,1
1057,1057,0.5510488459783817,0.6,0.0,0.0,374.0,796.0,0.0,1,3830.0,1
1058,1058,-0.059213574298049965,-0.1,0.0,1.0,456.0,837.0,1.0,0,-943.0,1
1059,1059,-0.6208675543714626,-0.6,0.0,1.0,495.0,824.0,0.0,1,3681.0,0
1060,1060,0.2364874512205174,0.2,0.0,0.0,281.0,649.0,0.0,1,4070.0,1
1061,1061,0.14446390912839424,0.1,0.0,0.0,335.0,794.0,0.0,1,-899.0,1
1062,1062,-0.8730592555466249,-0.9,1.0,0.0,269.0,879.0,0.0,0,-968.0,1
1063,1063,0.17521812872728548,0.2,0.0,0.0,413.0,743.0,0.0,1,3844.0,1
1064,1064,-0.04404848624096713,-0.0,1.0,0.0,339.0,682.0,0.0,0,3979.0,1
1065,1065,-0.6559250149762614,-0.7,1.0,0.0,392.0,776.0,0.0,0,-1168.0,1
1066,1066,0.16743780406446074,0.2,1.0,1.0,372.0,544.0,0.0,0,4084.0,0
1067,1067,0.6984641866915914,0.7,1.0,1.0,305.0,778.0,0.0,0,3917.0,0
1068,1068,-0.012132080871974704,-0.0,1.0,0.0,333.0,857.0,0.0,0,-1060.0,1
1069,1069,0.17954556542150224,0.2,0.0,0.0,309.0,902.0,0.0,1,3789.0,1
1070,1070,0.020596566470830857,0.0,0.0,0.0,253.0,955.0,1.0,0,-1118.0,0
1071,1071,-0.5568476963166848,-0.6,1.0,0.0,464.0,548.0,0.0,0,3988.0,1
1072,1072,-0.049454761347091036,-0.0,1.0,0.0,271.0,717.0,0.0,0,4012.0,1
1073,1073,0.15367212144765963,0.2,0.0,0.0,480.0,771.0,0.0,1,3749.0,1
1074,1074,-0.5393956162716731,-0.5,1.0,0.0,379.0,815.0,0.0,0,3806.0,1
1075,1075,0.7151733081487183,0.7,0.0,0.0,338.0,916.0,0.0,1,-1004.0,1
1076,1076,0.23766082401092448,0.2,1.0,1.0,478.0,580.0,0.0,0,3942.0,0
1077,1077,-0.5926148150797468,-0.6,0.0,1.0,465.0,561.0,0.0,1,3974.0,0
1078,1078,-0.7421574906347498,-0.7,1.0,0.0,362.0,616.0,0.0,0,4022.0,1
1079,1079,0.14383967167194356,0.1,0.0,0.0,306.0,840.0,0.0,1,3854.0,1
1080,1080,-0.7272191680264609,-0.7,1.0,0.0,421.0,938.0,0.0,0,3641.0,1
1081,1081,-0.7998872020413533,-0.8,1.0,0.0,476.0,578.0,0.0,0,3946.0,1
1082,1082,0.00985863123119557,0.0,0.0,0.0,399.0,991.0,0.0,1,3610.0,1
1083,1083,-0.7784466260014711,-0.8,0.0,1.0,407.0,853.0,0.0,1,3740.0,0
1084,1084,-0.81649187628043,-0.8,1.0,0.0,264.0,641.0,0.0,0,4095.0,1
1085,1085,-0.48618332442318457,-0.5,0.0,1.0,251.0,712.0,0.0,1,-943.0,0
1086,1086,0.761084980805164,0.8,0.0,0.0,375.0,759.0,0.0,1,3866.0,1
1087,1087,-0.3503262543488279,-0.4,0.0,1.0,339.0,710.0,1.0,0,-839.0,1
1088,1088,0.642110340464494,0.6,1.0,1.0,315.0,972.0,1.0,1,-1267.0,1
1089,1089,-0.2358704451733722,-0.2,0.0,1.0,342.0,865.0,0.0,1,3793.0,0
1090,1090,0.10358591075593193,0.1,0.0,0.0,283.0,881.0,1.0,0,-964.0,0
1091,1091,0.5637597028730233,0.6,0.0,0.0,284.0,549.0,0.0,1,4167.0,1
1092,1092,-0.23646840949386883,-0.2,1.0,0.0,383.0,861.0,0.0,0,3756.0,1
1093,1093,0.754472785076502,0.8,1.0,1.0,478.0,972.0,0.0,0,3550.0,0
1094,1094,0.19772028266901243,0.2,0.0,0.0,407.0,606.0,0.0,1,3987.0,1
1095,1095,0.7102293851934541,0.7,1.0,1.0,495.0,950.0,0.0,0,3555.0,0
1096,1096,-0.291225493207508,-0.3,0.0,1.0,335.0,787.0,0.0,1,3878.0,0
1097,1097,0.048810125009489,0.0,1.0,1.0,439.0,849.0,0.0,0,3712.0,0
1098,1098,-0.3843910453382482,-0.4,1.0,0.0,355.0,679.0,0.0,0,-984.0,1
1099,1099,-0.10280564393994396,-0.1,1.0,0.0,321.0,620.0,0.0,0,4059.0,1
1100,1100,0.6398187424971459,0.6,1.0,1.0,377.0,790.0,1.0,1,-1077.0,1
1101,1101,0.23162102025395404,0.2,1.0,1.0,252.0,533.0,0.0,0,4215.0,0
1102,1102,-0.4385573311056389,-0.4,1.0,0.0,296.0,916.0,0.0,0,3788.0,1
1103,1103,0.3879044349536468,0.4,0.0,0.0,449.0,937.0,0.0,1,3614.0,1
1104,1104,0.20368213880353114,0.2,1.0,1.0,413.0,828.0,0.0,0,3759.0,0
1105,1105,-0.6975523757734612,-0.7,0.0,1.0,470.0,620.0,0.0,1,3910.0,0
1106,1106,-0.14406221892358317,-0.1,1.0,0.0,329.0,810.0,0.0,0,3861.0,1
1107,1107,-0.5703210435735041,-0.6,1.0,0.0,444.0,560.0,0.0,0,3996.0,1
1108,1108,0.0769714223051079,0.1,1.0,1.0,333.0,868.0,0.0,0,3799.0,0
1109,1109,0.584222152222999,0.6,1.0,1.0,433.0,936.0,0.0,0,-1359.0,0
1110,1110,0.0867378489300491,0.1,1.0,1.0,414.0,586.0,0.0,0,4000.0,0
1111,1111,0.7786573750682589,0.8,1.0,1.0,303.0,654.0,0.0,0,4043.0,0
1112,1112,0.12708559178584522,0.1,0.0,0.0,256.0,802.0,0.0,1,3942.0,1
1113,1113,0.4267062923962893,0.4,0.0,0.0,383.0,960.0,0.0,1,3657.0,1
1114,1114,0.517622751261886,0.5,1.0,1.0,309.0,547.0,0.0,0,4144.0,0
1115,1115,0.15899363720797022,0.2,1.0,1.0,256.0,875.0,1.0,1,-1121.0,1
1116,1116,0.5006398743045267,0.5,1.0,1.0,302.0,775.0,0.0,0,3923.0,0
1117,1117,0.33717320272732876,0.3,1.0,1.0,335.0,852.0,0.0,0,-1087.0,0
1118,1118,-0.3082372520029488,-0.3,1.0,0.0,308.0,670.0,0.0,0,4022.0,1
1119,1119,-0.6734931381027152,-0.7,1.0,0.0,369.0,989.0,0.0,0,-978.0,1
1120,1120,0.24796950082177915,0.2,1.0,1.0,452.0,561.0,0.0,0,3987.0,0
1121,1121,0.7045144017390738,0.7,0.0,0.0,342.0,889.0,0.0,1,3769.0,1
1122,1122,0.5608945073784789,0.6,1.0,1.0,395.0,904.0,0.0,0,3701.0,0
1123,1123,0.8588031697608965,0.9,0.0,0.0,453.0,905.0,0.0,1,3642.0,1
1124,1124,0.26824085049982005,0.3,0.0,0.0,427.0,748.0,0.0,1,3825.0,1
1125,1125,-0.7074004974369361,-0.7,1.0,0.0,372.0,731.0,0.0,0,3897.0,1
1126,1126,-0.2211462083935284,-0.2,0.0,1.0,450.0,890.0,0.0,1,3660.0,0
1127,1127,-0.72392383382311,-0.7,1.0,0.0,267.0,940.0,0.0,0,3793.0,1
1128,1128,-0.7952129076189691,-0.8,0.0,1.0,409.0,653.0,1.0,0,-812.0,1
1129,1129,0.22025097186494846,0.2,1.0,1.0,405.0,733.0,0.0,0,3862.0,0
1130,1130,-0.16629221503219616,-0.2,1.0,0.0,298.0,601.0,0.0,0,4101.0,1
1131,1131,0.7147943528775861,0.7,1.0,1.0,360.0,725.0,0.0,0,3915.0,0
1132,1132,-0.12233674801811456,-0.1,0.0,1.0,471.0,965.0,0.0,1,3564.0,0
1133,1133,-0.5321204063391621,-0.5,0.0,1.0,492.0,812.0,0.0,1,3696.0,0
1134,1134,-0.7103976633559861,-0.7,1.0,0.0,395.0,645.0,1.0,1,-960.0,0
1135,1135,0.08605537105580852,0.1,1.0,1.0,316.0,970.0,0.0,0,3714.0,0
1136,1136,-0.8118433799164987,-0.8,1.0,0.0,417.0,783.0,0.0,0,-1140.0,1
1137,1137,-0.8962682773007618,-0.9,0.0,1.0,276.0,921.0,0.0,1,3803.0,0
1138,1138,0.6673699453037022,0.7,0.0,0.0,301.0,590.0,0.0,1,4109.0,1
1139,1139,0.15180472124972832,0.2,1.0,1.0,258.0,901.0,1.0,1,-959.0,1
1140,1140,-0.8710339453834346,-0.9,1.0,0.0,406.0,929.0,0.0,0,3665.0,1
1141,1141,-0.07918536010886645,-0.1,0.0,1.0,330.0,980.0,0.0,1,3690.0,0
1142,1142,-0.13301483553965932,-0.1,0.0,1.0,309.0,780.0,0.0,1,3911.0,0
1143,1143,0.36955129918782836,0.4,0.0,0.0,307.0,696.0,0.0,1,3997.0,1
1144,1144,-0.7249272977573835,-0.7,1.0,0.0,377.0,999.0,0.0,0,3624.0,1
1145,1145,0.3204572250364438,0.3,1.0,1.0,381.0,664.0,1.0,1,-1005.0,1
1146,1146,0.2600178083038397,0.3,0.0,0.0,345.0,746.0,0.0,1,3909.0,1
1147,1147,-0.5988221997382709,-0.6,1.0,0.0,490.0,612.0,0.0,0,3898.0,1
1148,1148,-0.642985768148119,-0.6,1.0,0.0,300.0,718.0,0.0,0,-998.0,1
1149,1149,0.4597260944637279,0.5,0.0,0.0,313.0,759.0,0.0,1,-922.0,1
1150,1150,-0.7015765930726054,-0.7,1.0,0.0,284.0,528.0,0.0,0,4188.0,1
1151,1151,0.3434466965023505,0.3,1.0,1.0,445.0,822.0,0.0,0,3733.0,0
1152,1152,-0.769669458038932,-0.8,0.0,1.0,328.0,550.0,0.0,1,-878.0,0
1153,1153,-0.20205801228824916,-0.2,1.0,0.0,348.0,752.0,0.0,0,3900.0,1
1154,1154,-0.4847509009330906,-0.5,0.0,1.0,354.0,986.0,0.0,1,3660.0,0
1155,1155,0.20643795218135763,0.2,0.0,0.0,323.0,854.0,0.0,1,3823.0,1
1156,1156,0.21234766686674977,0.2,1.0,1.0,315.0,767.0,0.0,0,-1042.0,0
1157,1157,0.8870954621395738,0.9,0.0,0.0,420.0,714.0,0.0,1,3866.0,1
1158,1158,0.5154805077337689,0.5,1.0,1.0,321.0,989.0,0.0,0,3690.0,0
1159,1159,0.6940350015883655,0.7,1.0,1.0,410.0,555.0,0.0,0,4035.0,0
1160,1160,0.5223543036864736,0.5,1.0,1.0,387.0,854.0,0.0,0,3759.0,0
1161,1161,-0.7997605569730989,-0.8,1.0,0.0,272.0,761.0,0.0,0,3967.0,1
1162,1162,-0.40401632972188173,-0.4,0.0,1.0,279.0,904.0,1.0,0,-1183.0,1
1163,1163,-0.7275037917568623,-0.7,0.0,1.0,372.0,641.0,0.0,1,3987.0,0
1164,1164,0.5128470562183435,0.5,0.0,0.0,462.0,741.0,0.0,1,3797.0,1
1165,1165,-0.5106653192466383,-0.5,0.0,1.0,327.0,985.0,0.0,1,3688.0,0
1166,1166,0.38424809936480064,0.4,1.0,1.0,309.0,799.0,0.0,0,3892.0,0
1167,1167,0.4660350992423844,0.5,1.0,1.0,310.0,586.0,1.0,1,-746.0,1
1168,1168,0.04805209702062274,0.0,0.0,0.0,312.0,541.0,0.0,1,4147.0,1
1169,1169,-0.7453118693964892,-0.7,1.0,0.0,314.0,599.0,0.0,0,4087.0,1
1170,1170,-0.6809077232321153,-0.7,0.0,1.0,391.0,737.0,0.0,1,-1078.0,0
1171,1171,-0.5355120644953222,-0.5,0.0,1.0,324.0,750.0,0.0,1,3926.0,0
1172,1172,-0.33510379725790773,-0.3,0.0,1.0,466.0,661.0,0.0,1,3873.0,0
1173,1173,-0.6859697566048197,-0.7,0.0,1.0,307.0,639.0,0.0,1,4054.0,0
1174,1174,-0.33491954891410924,-0.3,0.0,1.0,397.0,814.0,0.0,1,3789.0,0
1175,1175,0.6622596783223483,0.7,1.0,1.0,313.0,653.0,0.0,0,4034.0,0
1176,1176,-0.8965298368309426,-0.9,0.0,1.0,430.0,931.0,0.0,1,-951.0,0
1177,1177,-0.06299386094441561,-0.1,1.0,0.0,434.0,548.0,0.0,0,4018.0,1
1178,1178,0.21743066031546132,0.2,0.0,0.0,287.0,860.0,0.0,1,-1097.0,1
1179,1179,-0.32621166191200235,-0.3,0.0,1.0,399.0,871.0,0.0,1,3730.0,0
1180,1180,-0.5846799918352038,-0.6,0.0,1.0,463.0,990.0,0.0,1,3547.0,0
1181,1181,0.5567998064977925,0.6,1.0,1.0,306.0,502.0,0.0,0,4192.0,0
1182,1182,-0.20405213036468894,-0.2,0.0,1.0,349.0,984.0,1.0,0,-1223.0,1
1183,1183,0.29256869086428805,0.3,0.0,0.0,441.0,749.0,0.0,1,3810.0,1
1184,1184,-0.4395149069655375,-0.4,0.0,1.0,407.0,529.0,0.0,1,4064.0,0
1185,1185,-0.0898053590811082,-0.1,1.0,0.0,252.0,522.0,0.0,0,4226.0,1
1186,1186,0.4135413981256336,0.4,0.0,0.0,423.0,771.0,1.0,0,-504.0,0
1187,1187,-0.7426843103293438,-0.7,1.0,0.0,361.0,970.0,0.0,0,3669.0,1
1188,1188,0.8042035903904364,0.8,1.0,1.0,321.0,997.0,1.0,1,-678.0,1
1189,1189,-0.16105074091578842,-0.2,0.0,1.0,282.0,975.0,0.0,1,3743.0,0
1190,1190,-0.02559462855179362,-0.0,1.0,0.0,367.0,981.0,0.0,0,-1298.0,1
1191,1191,0.8796591735309031,0.9,1.0,1.0,343.0,778.0,0.0,0,-1031.0,0
1192,1192,0.8213473181115533,0.8,1.0,1.0,363.0,570.0,0.0,0,4067.0,0
1193,1193,0.37761796126601077,0.4,1.0,1.0,375.0,811.0,0.0,0,3814.0,0
1194,1194,-0.7291307066151896,-0.7,0.0,1.0,374.0,815.0,0.0,1,-1109.0,0
1195,1195,0.7123082298288125,0.7,1.0,1.0,294.0,580.0,0.0,0,-714.0,0
1196,1196,0.5745927692065699,0.6,1.0,1.0,353.0,816.0,0.0,0,3831.0,0
1197,1197,-0.8726464079235482,-0.9,0.0,1.0,331.0,534.0,0.0,1,-495.0,0
1198,1198,-0.4807463999684404,-0.5,1.0,0.0,372.0,810.0,0.0,0,3818.0,1
1199,1199,0.10382562436966747,0.1,1.0,1.0,420.0,648.0,0.0,0,3932.0,0
1200,1200,0.8666339367513872,0.9,1.0,1.0,353.0,978.0,1.0,1,-1261.0,1
1201,1201,0.6832934608616154,0.7,0.0,0.0,349.0,598.0,0.0,1,-937.0,1
1202,1202,0.06940012350060454,0.1,1.0,1.0,329.0,502.0,0.0,0,4169.0,0
1203,1203,0.6661232038615296,0.7,1.0,1.0,337.0,774.0,0.0,0,3889.0,0
1204,1204,-0.7741757028756475,-0.8,1.0,0.0,405.0,723.0,0.0,0,3872.0,1
1205,1205,0.24614510348910212,0.2,1.0,1.0,485.0,641.0,1.0,1,-1116.0,1
1206,1206,0.42072852482135714,0.4,1.0,1.0,428.0,728.0,0.0,0,3844.0,0
1207,1207,-0.6193292345338157,-0.6,1.0,0.0,472.0,592.0,0.0,0,3936.0,1
1208,1208,0.4991181994567363,0.5,1.0,1.0,324.0,767.0,0.0,0,3909.0,0
1209,1209,0.5152887245234078,0.5,0.0,0.0,421.0,930.0,0.0,1,-1281.0,1
1210,1210,0.004713810479714642,0.0,1.0,1.0,357.0,952.0,0.0,0,3691.0,0
1211,1211,0.4657625362257599,0.5,1.0,1.0,377.0,647.0,0.0,0,3976.0,0
1212,1212,-0.09309670368285838,-0.1,1.0,0.0,426.0,577.0,0.0,0,3997.0,1
1213,1213,0.014003438821349246,0.0,1.0,1.0,357.0,529.0,0.0,0,4114.0,0
1214,1214,0.5011975399740635,0.5,1.0,1.0,423.0,741.0,0.0,0,3836.0,0
1215,1215,0.028264089493909572,0.0,0.0,0.0,495.0,938.0,0.0,1,3567.0,1
1216,1216,0.5140388718545713,0.5,0.0,0.0,293.0,871.0,0.0,1,3836.0,1
1217,1217,0.5270940280755433,0.5,0.0,0.0,429.0,519.0,0.0,1,4052.0,1
1218,1218,0.8638334007536353,0.9,1.0,1.0,336.0,738.0,0.0,0,3926.0,0
1219,1219,-0.19186643465881414,-0.2,1.0,0.0,369.0,702.0,0.0,0,3929.0,1
1220,1220,-0.005372298022902955,-0.0,0.0,1.0,394.0,600.0,0.0,1,4006.0,0
1221,1221,0.5223419616771668,0.5,1.0,1.0,462.0,799.0,0.0,0,3739.0,0
1222,1222,0.5194441560881894,0.5,0.0,0.0,276.0,719.0,0.0,1,-975.0,1
1223,1223,0.06118139811644929,0.1,1.0,1.0,471.0,547.0,1.0,1,-858.0,1
1224,1224,-0.02152168244517183,-0.0,0.0,1.0,443.0,641.0,0.0,1,3916.0,0
1225,1225,-0.6455754372489821,-0.6,0.0,1.0,486.0,649.0,0.0,1,3865.0,0
1226,1226,-0.6504122369162179,-0.7,1.0,0.0,473.0,941.0,0.0,0,3586.0,1
1227,1227,0.8620759290353927,0.9,1.0,1.0,433.0,696.0,1.0,1,-269.0,1
1228,1228,0.4545027706337811,0.5,1.0,1.0,449.0,555.0,1.0,1,-1004.0,1
1229,1229,0.22444894460845066,0.2,0.0,0.0,275.0,784.0,0.0,1,3941.0,1
1230,1230,0.3291649506634936,0.3,1.0,1.0,343.0,966.0,0.0,0,3691.0,0
1231,1231,-0.8194946211832658,-0.8,1.0,0.0,326.0,831.0,0.0,0,3843.0,1
1232,1232,-0.7797709999056442,-0.8,0.0,1.0,310.0,835.0,0.0,1,3855.0,0
1233,1233,-0.47369798006985364,-0.5,0.0,1.0,255.0,899.0,0.0,1,3846.0,0
1234,1234,-0.852119851227548,-0.9,0.0,1.0,306.0,993.0,1.0,0,-1279.0,1
1235,1235,-0.36534100805149305,-0.4,0.0,1.0,368.0,864.0,0.0,1,3768.0,0
1236,1236,-0.8472192076636816,-0.8,0.0,1.0,288.0,509.0,0.0,1,4203.0,0
1237,1237,0.34752400879707,0.3,1.0,1.0,392.0,981.0,0.0,0,3627.0,0
1238,1238,0.14419033528152136,0.1,1.0,1.0,429.0,998.0,0.0,0,-1347.0,0
1239,1239,0.5848931215243757,0.6,0.0,0.0,424.0,749.0,0.0,1,3827.0,1
1240,1240,-0.8834180510101426,-0.9,0.0,1.0,328.0,841.0,0.0,1,3831.0,0
1241,1241,0.06623905787639639,0.1,0.0,0.0,268.0,527.0,0.0,1,4205.0,1
1242,1242,-0.8617857402948539,-0.9,1.0,0.0,433.0,574.0,0.0,0,-957.0,1
1243,1243,0.6207566515417512,0.6,1.0,1.0,465.0,722.0,0.0,0,3813.0,0
1244,1244,-0.7709950594120193,-0.8,0.0,1.0,416.0,991.0,0.0,1,-1327.0,0
1245,1245,-0.1641780018754896,-0.2,1.0,0.0,364.0,964.0,0.0,0,3672.0,1
1246,1246,0.19713531179247135,0.2,1.0,1.0,485.0,665.0,0.0,0,3850.0,0
1247,1247,-0.15751990232886115,-0.2,1.0,0.0,413.0,995.0,0.0,0,3592.0,1
1248,1248,-0.8528679250943857,-0.9,0.0,1.0,370.0,537.0,0.0,1,4093.0,0
1249,1249,-0.5589426585115346,-0.6,1.0,0.0,352.0,875.0,0.0,0,3773.0,1
1250,1250,0.12219871047711661,0.1,0.0,0.0,365.0,667.0,0.0,1,-1022.0,1
1251,1251,-0.8421609754876127,-0.8,0.0,1.0,477.0,775.0,0.0,1,3748.0,0
1252,1252,-0.7296021471062866,-0.7,1.0,0.0,283.0,948.0,0.0,0,3769.0,1
1253,1253,0.6088044801243088,0.6,0.0,0.0,322.0,868.0,0.0,1,3810.0,1
1254,1254,-0.042897855375739646,-0.0,0.0,1.0,471.0,583.0,1.0,0,-974.0,1
1255,1255,0.5730427870943143,0.6,0.0,0.0,280.0,546.0,0.0,1,-766.0,1
1256,1256,0.28355313704092266,0.3,1.0,1.0,330.0,549.0,0.0,0,4121.0,0
1257,1257,-0.4872223426511733,-0.5,0.0,1.0,352.0,650.0,1.0,0,-912.0,1
1258,1258,0.16808077236823926,0.2,1.0,1.0,421.0,851.0,0.0,0,3728.0,0
1259,1259,-0.4359899502374001,-0.4,1.0,0.0,280.0,708.0,0.0,0,-628.0,1
1260,1260,-0.4445180567055949,-0.4,1.0,0.0,451.0,897.0,0.0,0,3652.0,1
1261,1261,-0.8924504301906604,-0.9,1.0,0.0,449.0,672.0,1.0,1,-1091.0,0
1262,1262,0.6934368265147045,0.7,1.0,1.0,445.0,910.0,0.0,0,3645.0,0
1263,1263,0.17397977267451437,0.2,1.0,1.0,385.0,888.0,0.0,0,3727.0,0
1264,1264,0.7777809896209581,0.8,0.0,0.0,482.0,669.0,0.0,1,3849.0,1
1265,1265,-0.8606107587770715,-0.9,1.0,0.0,355.0,804.0,0.0,0,3841.0,1
1266,1266,-0.49307237702811535,-0.5,0.0,1.0,265.0,702.0,0.0,1,4033.0,0
1267,1267,-0.3404682865571359,-0.3,1.0,0.0,468.0,992.0,0.0,0,3540.0,1
1268,1268,-0.24163896499637105,-0.2,1.0,0.0,367.0,881.0,0.0,0,3752.0,1
1269,1269,-0.16737204182188192,-0.2,0.0,1.0,302.0,902.0,0.0,1,3796.0,0
1270,1270,0.2281252069777978,0.2,1.0,1.0,365.0,712.0,0.0,0,3923.0,0
1271,1271,0.7184194907714591,0.7,1.0,1.0,297.0,573.0,0.0,0,4130.0,0
1272,1272,0.01698077348201954,0.0,0.0,0.0,296.0,794.0,0.0,1,3910.0,1
1273,1273,-0.38839690668045346,-0.4,0.0,1.0,400.0,833.0,0.0,1,3767.0,0
1274,1274,-0.5117350931012339,-0.5,1.0,0.0,478.0,555.0,1.0,1,-1033.0,0
1275,1275,0.5879822260829167,0.6,0.0,0.0,378.0,565.0,0.0,1,4057.0,1
1276,1276,0.5407450852198753,0.5,0.0,0.0,492.0,944.0,0.0,1,3564.0,1
1277,1277,0.8108839498502768,0.8,1.0,1.0,417.0,934.0,0.0,0,3649.0,0
1278,1278,0.5136177053282053,0.5,1.0,1.0,298.0,616.0,0.0,0,-824.0,0
1279,1279,0.727855516378506,0.7,0.0,0.0,319.0,716.0,0.0,1,3965.0,1
1280,1280,-0.05262636074294613,-0.1,0.0,1.0,362.0,796.0,0.0,1,3842.0,0
1281,1281,0.48458803524811966,0.5,0.0,0.0,346.0,684.0,0.0,1,3970.0,1
1282,1282,-0.5362445151302242,-0.5,1.0,0.0,460.0,717.0,0.0,0,3823.0,1
1283,1283,0.1453076693884071,0.1,1.0,1.0,330.0,986.0,0.0,0,-1246.0,0
1284,1284,-0.350039860909637,-0.4,0.0,1.0,252.0,777.0,0.0,1,3971.0,0
1285,1285,0.30026208426106404,0.3,1.0,1.0,408.0,804.0,0.0,0,3788.0,0
1286,1286,-0.5600030573965685,-0.6,1.0,0.0,337.0,783.0,0.0,0,3880.0,1
1287,1287,0.0800818964857003,0.1,0.0,0.0,334.0,908.0,0.0,1,3758.0,1
1288,1288,0.6697582862206485,0.7,1.0,1.0,460.0,561.0,0.0,0,3979.0,0
1289,1289,-0.7413084995162459,-0.7,1.0,0.0,360.0,929.0,0.0,0,3711.0,1
1290,1290,0.5481195014603312,0.5,0.0,0.0,345.0,877.0,0.0,1,3778.0,1
1291,1291,-0.2523161528448197,-0.3,1.0,0.0,373.0,824.0,0.0,0,3803.0,1
1292,1292,-0.2645442837292298,-0.3,1.0,0.0,344.0,985.0,0.0,0,3671.0,1
1293,1293,-0.32227204358120365,-0.3,0.0,1.0,349.0,599.0,0.0,1,4052.0,0
1294,1294,0.8231122106021594,0.8,0.0,0.0,414.0,548.0,0.0,1,4038.0,1
1295,1295,-0.4179819643519366,-0.4,0.0,1.0,304.0,806.0,0.0,1,3890.0,0
1296,1296,-0.6782352331110065,-0.7,0.0,1.0,252.0,953.0,0.0,1,3795.0,0
1297,1297,0.3524090576726414,0.4,1.0,1.0,323.0,748.0,0.0,0,3929.0,0
1298,1298,0.32769964214484804,0.3,1.0,1.0,403.0,842.0,0.0,0,3755.0,0
1299,1299,-0.8678041062384082,-0.9,0.0,1.0,299.0,610.0,0.0,1,4091.0,0
1300,1300,-0.6857630466563421,-0.7,0.0,1.0,453.0,799.0,0.0,1,3748.0,0
1301,1301,0.4602262843183299,0.5,0.0,0.0,326.0,547.0,1.0,0,-783.0,0
1302,1302,0.17989907710350128,0.2,0.0,0.0,306.0,509.0,0.0,1,4185.0,1
1303,1303,-0.06792228478631701,-0.1,0.0,1.0,478.0,701.0,0.0,1,-919.0,0
1304,1304,0.44978379211559216,0.4,0.0,0.0,318.0,512.0,0.0,1,4170.0,1
1305,1305,-0.39924425242452855,-0.4,0.0,1.0,483.0,698.0,0.0,1,3819.0,0
1306,1306,0.16938589777865165,0.2,0.0,0.0,483.0,866.0,0.0,1,3651.0,1
1307,1307,-0.6682249385145707,-0.7,1.0,0.0,327.0,804.0,0.0,0,3869.0,1
1308,1308,0.7155332437513547,0.7,0.0,0.0,356.0,973.0,0.0,1,3671.0,1
1309,1309,0.04936701055335502,0.0,0.0,0.0,472.0,855.0,0.0,1,-1227.0,1
1310,1310,0.5735475197109444,0.6,0.0,0.0,383.0,953.0,0.0,1,3664.0,1
1311,1311,-0.6265845219973571,-0.6,0.0,1.0,251.0,842.0,0.0,1,-553.0,0
1312,1312,-0.4405885740658452,-0.4,1.0,0.0,450.0,955.0,0.0,0,3595.0,1
1313,1313,0.12398860066063488,0.1,0.0,0.0,321.0,547.0,0.0,1,4132.0,1
1314,1314,0.15352462213086782,0.2,0.0,0.0,301.0,688.0,0.0,1,4011.0,1
1315,1315,0.24544285503836394,0.2,0.0,0.0,290.0,737.0,0.0,1,3973.0,1
1316,1316,0.6985509169164262,0.7,1.0,1.0,463.0,892.0,0.0,0,3645.0,0
1317,1317,-0.7530914591278399,-0.8,1.0,0.0,497.0,651.0,0.0,0,-758.0,1
1318,1318,-0.8831069040924605,-0.9,1.0,0.0,362.0,667.0,0.0,0,3971.0,1
1319,1319,-0.059476019266986535,-0.1,1.0,0.0,491.0,847.0,0.0,0,-1148.0,1
1320,1320,-0.23611815715809603,-0.2,1.0,0.0,464.0,506.0,0.0,0,4030.0,1
1321,1321,0.5199373577343688,0.5,1.0,1.0,339.0,887.0,1.0,1,-1126.0,1
1322,1322,-0.6368547040693482,-0.6,1.0,0.0,434.0,507.0,0.0,0,4059.0,1
1323,1323,0.26087787608567237,0.3,1.0,1.0,303.0,759.0,0.0,0,3938.0,0
1324,1324,0.6852432372122473,0.7,0.0,0.0,264.0,706.0,0.0,1,-870.0,1
1325,1325,0.28196072489452517,0.3,1.0,1.0,279.0,732.0,0.0,0,3989.0,0
1326,1326,0.041311187579227804,0.0,0.0,0.0,273.0,591.0,0.0,1,4136.0,1
1327,1327,0.5549305461784996,0.6,1.0,1.0,419.0,546.0,0.0,0,-455.0,0
1328,1328,0.149714489455835,0.1,0.0,0.0,349.0,883.0,0.0,1,-1112.0,1
1329,1329,0.19737075146664596,0.2,1.0,1.0,413.0,541.0,0.0,0,-444.0,0
1330,1330,-0.24350174855185636,-0.2,0.0,1.0,265.0,855.0,0.0,1,3880.0,0
1331,1331,-0.10076169144797775,-0.1,0.0,1.0,279.0,991.0,0.0,1,3730.0,0
1332,1332,0.28954525797649266,0.3,1.0,1.0,444.0,888.0,0.0,0,3668.0,0
1333,1333,-0.47890100932118834,-0.5,0.0,1.0,301.0,693.0,1.0,0,-344.0,1
1334,1334,0.4582354301453776,0.5,1.0,1.0,352.0,663.0,0.0,0,3985.0,0
1335,1335,-0.5634188651252408,-0.6,0.0,1.0,362.0,949.0,0.0,1,3689.0,0
1336,1336,-0.09822186393254373,-0.1,1.0,0.0,262.0,941.0,0.0,0,-1133.0,1
1337,1337,0.25111130965146156,0.3,0.0,0.0,277.0,726.0,1.0,0,-793.0,0
1338,1338,-0.4427706202440455,-0.4,0.0,1.0,309.0,656.0,0.0,1,4035.0,0
1339,1339,-0.8563144067168822,-0.9,1.0,0.0,336.0,798.0,0.0,0,3866.0,1
1340,1340,0.15144138001172947,0.2,0.0,0.0,361.0,719.0,0.0,1,3920.0,1
1341,1341,-0.06272912592398894,-0.1,1.0,0.0,355.0,855.0,0.0,0,3790.0,1
1342,1342,-0.0644919296796973,-0.1,1.0,0.0,371.0,579.0,0.0,0,4050.0,1
1343,1343,-0.5050771902726677,-0.5,1.0,0.0,330.0,524.0,1.0,1,-764.0,0
1344,1344,-0.6293646577698254,-0.6,1.0,0.0,274.0,980.0,0.0,0,3746.0,1
1345,1345,-0.16244645734770502,-0.2,1.0,0.0,268.0,803.0,0.0,0,3929.0,1
1346,1346,-0.8871120319374598,-0.9,0.0,1.0,282.0,787.0,0.0,1,3931.0,0
1347,1347,0.3037061741546926,0.3,1.0,1.0,331.0,974.0,0.0,0,3695.0,0
1348,1348,0.8914927080442164,0.9,0.0,0.0,457.0,788.0,0.0,1,3755.0,1
1349,1349,-0.2234758822500098,-0.2,1.0,0.0,338.0,850.0,0.0,0,-658.0,1
1350,1350,-0.6603440837860818,-0.7,0.0,1.0,443.0,883.0,0.0,1,3674.0,0
1351,1351,-0.4171544448470834,-0.4,0.0,1.0,278.0,836.0,0.0,1,3886.0,0
1352,1352,0.21591123102453025,0.2,1.0,1.0,345.0,989.0,0.0,0,-1194.0,0
1353,1353,-0.0002748166327599666,-0.0,0.0,1.0,467.0,788.0,0.0,1,3745.0,0
1354,1354,-0.7199346468703297,-0.7,1.0,0.0,274.0,756.0,0.0,0,3970.0,1
1355,1355,0.5898871789719272,0.6,1.0,1.0,286.0,530.0,0.0,0,4184.0,0
1356,1356,-0.23543675397379127,-0.2,1.0,0.0,423.0,547.0,0.0,0,4030.0,1
1357,1357,-0.3489798829890266,-0.3,1.0,0.0,439.0,759.0,0.0,0,3802.0,1
1358,1358,0.29278053979678653,0.3,1.0,1.0,404.0,753.0,0.0,0,-1097.0,0
1359,1359,0.6443678551899207,0.6,1.0,1.0,256.0,616.0,1.0,1,-722.0,1
1360,1360,-0.06860767243521815,-0.1,1.0,0.0,428.0,879.0,0.0,0,3693.0,1
1361,1361,-0.6417684745538272,-0.6,1.0,0.0,380.0,836.0,0.0,0,3784.0,1
1362,1362,0.5984097757534991,0.6,1.0,1.0,303.0,962.0,1.0,1,-1205.0,1
1363,1363,0.5089230853263792,0.5,0.0,0.0,350.0,870.0,1.0,0,-1070.0,0
1364,1364,0.2641991975336445,0.3,1.0,1.0,290.0,559.0,0.0,0,4151.0,0
1365,1365,0.7495981515708231,0.7,0.0,0.0,403.0,519.0,0.0,1,4078.0,1
1366,1366,-0.10160825077624058,-0.1,1.0,0.0,361.0,746.0,0.0,0,3893.0,1
1367,1367,0.7626089077581798,0.8,0.0,0.0,367.0,718.0,0.0,1,3915.0,1
1368,1368,-0.7017602501442188,-0.7,1.0,0.0,410.0,775.0,0.0,0,3815.0,1
1369,1369,-0.515466390067483,-0.5,0.0,1.0,328.0,720.0,0.0,1,3952.0,0
1370,1370,-0.5582253684492047,-0.6,1.0,0.0,373.0,574.0,0.0,0,-857.0,1
1371,1371,-0.866011178663466,-0.9,1.0,0.0,331.0,546.0,0.0,0,-647.0,1
1372,1372,0.8186377493960947,0.8,1.0,1.0,372.0,732.0,0.0,0,3896.0,0
1373,1373,0.7583736712909898,0.8,1.0,1.0,327.0,761.0,0.0,0,3912.0,0
1374,1374,-0.36907747000913504,-0.4,1.0,0.0,326.0,765.0,0.0,0,3909.0,1
1375,1375,-0.4991341485614755,-0.5,0.0,1.0,391.0,791.0,0.0,1,-1152.0,0
1376,1376,-0.01518256699396947,-0.0,1.0,0.0,406.0,906.0,0.0,0,3688.0,1
1377,1377,-0.36945687374845126,-0.4,1.0,0.0,432.0,868.0,1.0,1,-1260.0,0
1378,1378,0.5535973571641281,0.6,0.0,0.0,267.0,787.0,0.0,1,3946.0,1
1379,1379,-0.5851957448440462,-0.6,1.0,0.0,383.0,925.0,1.0,1,-1228.0,0
1380,1380,0.6362015072736996,0.6,1.0,1.0,324.0,886.0,0.0,0,3790.0,0
1381,1381,0.7184008413052957,0.7,0.0,0.0,260.0,538.0,0.0,1,-758.0,1
1382,1382,-0.35516054079541126,-0.4,1.0,0.0,341.0,765.0,0.0,0,3894.0,1
1383,1383,-0.2599070368719646,-0.3,0.0,1.0,285.0,564.0,0.0,1,4151.0,0
1384,1384,-0.13072492867685925,-0.1,1.0,0.0,296.0,624.0,0.0,0,4080.0,1
1385,1385,0.07144087338976013,0.1,1.0,1.0,430.0,580.0,1.0,1,-900.0,1
1386,1386,-0.16199356875273763,-0.2,1.0,0.0,389.0,555.0,0.0,0,4056.0,1
1387,1387,0.5658854015731886,0.6,1.0,1.0,339.0,914.0,0.0,0,-1113.0,0
1388,1388,0.536209191981407,0.5,0.0,0.0,357.0,856.0,0.0,1,3787.0,1
1389,1389,0.6989023171878327,0.7,0.0,0.0,304.0,974.0,0.0,1,3722.0,1
1390,1390,-0.14344730863574662,-0.1,0.0,1.0,446.0,692.0,0.0,1,3862.0,0
1391,1391,-0.2843522312115726,-0.3,1.0,0.0,256.0,859.0,0.0,0,3885.0,1
1392,1392,0.3445192434302121,0.3,0.0,0.0,393.0,951.0,0.0,1,3656.0,1
1393,1393,0.5493834221338886,0.5,0.0,0.0,466.0,741.0,0.0,1,-1177.0,1
1394,1394,-0.1787688271044946,-0.2,1.0,0.0,374.0,777.0,1.0,1,-801.0,0
1395,1395,-0.8086167608659921,-0.8,1.0,0.0,338.0,518.0,0.0,0,4144.0,1
1396,1396,-0.2739245383806327,-0.3,0.0,1.0,379.0,755.0,0.0,1,3866.0,0
1397,1397,0.2529001874854152,0.3,1.0,1.0,324.0,777.0,0.0,0,3899.0,0
1398,1398,-0.8426923141874819,-0.8,1.0,0.0,496.0,531.0,0.0,0,3973.0,1
1399,1399,-0.838519003972042,-0.8,0.0,1.0,283.0,824.0,0.0,1,3893.0,0
1400,1400,-0.27506772954832603,-0.3,0.0,1.0,467.0,569.0,0.0,1,3964.0,0
1401,1401,0.5892837816451949,0.6,1.0,1.0,470.0,733.0,0.0,0,3797.0,0
1402,1402,-0.5353963832411329,-0.5,0.0,1.0,465.0,560.0,0.0,1,3975.0,0
1403,1403,0.03385119547334847,0.0,0.0,0.0,399.0,726.0,0.0,1,3875.0,1
1404,1404,0.4419399069164426,0.4,0.0,0.0,450.0,826.0,0.0,1,-1276.0,1
1405,1405,-0.1941458970338823,-0.2,0.0,1.0,480.0,673.0,0.0,1,3847.0,0
1406,1406,-0.66399428040079,-0.7,1.0,0.0,251.0,730.0,0.0,0,4019.0,1
1407,1407,-0.4244091468188143,-0.4,1.0,0.0,295.0,634.0,0.0,0,4071.0,1
1408,1408,-0.5120825594727634,-0.5,1.0,0.0,275.0,703.0,1.0,1,-888.0,0
1409,1409,-0.01777189683282676,-0.0,1.0,0.0,320.0,763.0,0.0,0,3917.0,1
1410,1410,0.37369065956467307,0.4,1.0,1.0,285.0,910.0,0.0,0,-575.0,0
1411,1411,0.5049219028242872,0.5,0.0,0.0,289.0,582.0,0.0,1,-821.0,1
1412,1412,0.6661896956022525,0.7,1.0,1.0,298.0,948.0,0.0,0,3754.0,0
1413,1413,0.6419793832208084,0.6,1.0,1.0,335.0,698.0,0.0,0,-683.0,0
1414,1414,0.8828920650653539,0.9,1.0,1.0,264.0,946.0,0.0,0,3790.0,0
1415,1415,0.10996163844080853,0.1,1.0,1.0,403.0,846.0,0.0,0,3751.0,0
1416,1416,-0.6401000206010012,-0.6,1.0,0.0,312.0,679.0,0.0,0,4009.0,1
1417,1417,-0.7487830657798568,-0.7,1.0,0.0,475.0,594.0,0.0,0,3931.0,1
1418,1418,0.3278336179947309,0.3,0.0,0.0,345.0,752.0,0.0,1,3903.0,1
1419,1419,-0.4113226630407757,-0.4,0.0,1.0,349.0,977.0,0.0,1,3674.0,0
1420,1420,0.1905369470743531,0.2,0.0,0.0,474.0,820.0,0.0,1,3706.0,1
1421,1421,-0.1535962413013665,-0.2,1.0,0.0,293.0,644.0,0.0,0,4063.0,1
1422,1422,0.6576945534365334,0.7,0.0,0.0,422.0,595.0,0.0,1,3983.0,1
1423,1423,0.13928302199441667,0.1,0.0,0.0,497.0,936.0,0.0,1,3567.0,1
1424,1424,0.8823580360264675,0.9,0.0,0.0,409.0,867.0,0.0,1,3724.0,1
1425,1425,-0.44120062776489877,-0.4,1.0,0.0,462.0,919.0,0.0,0,-1331.0,1
1426,1426,0.43147001013001385,0.4,1.0,1.0,398.0,862.0,0.0,0,3740.0,0
1427,1427,-0.7728617242864648,-0.8,1.0,0.0,396.0,567.0,0.0,0,4037.0,1
1428,1428,-0.3698519272130486,-0.4,1.0,0.0,260.0,642.0,0.0,0,4098.0,1
1429,1429,-0.5291823156837387,-0.5,1.0,0.0,415.0,974.0,1.0,1,-1299.0,0
1430,1430,-0.8410422590717229,-0.8,0.0,1.0,257.0,616.0,0.0,1,4127.0,0
1431,1431,-0.4626185564787816,-0.5,0.0,1.0,475.0,744.0,0.0,1,3781.0,0
1432,1432,0.21473800328972625,0.2,1.0,1.0,261.0,601.0,0.0,0,4138.0,0
1433,1433,0.3655279376861952,0.4,1.0,1.0,430.0,901.0,0.0,0,-1311.0,0
1434,1434,-0.37979158888315834,-0.4,1.0,0.0,261.0,696.0,0.0,0,4043.0,1
1435,1435,0.836658444143029,0.8,1.0,1.0,472.0,630.0,0.0,0,-1092.0,0
1436,1436,-0.45034317422494674,-0.5,1.0,0.0,287.0,891.0,0.0,0,3822.0,1
1437,1437,-0.4451653582948841,-0.4,0.0,1.0,305.0,653.0,0.0,1,4042.0,0
1438,1438,-0.08333902098222212,-0.1,0.0,1.0,279.0,633.0,0.0,1,4088.0,0
1439,1439,0.7565795795993803,0.8,1.0,1.0,363.0,720.0,0.0,0,3917.0,0
1440,1440,0.8190311599018946,0.8,0.0,0.0,379.0,538.0,0.0,1,4083.0,1
1441,1441,-0.48109782172701054,-0.5,1.0,0.0,379.0,729.0,1.0,1,-1068.0,0
1442,1442,-0.4739263057573119,-0.5,1.0,0.0,336.0,980.0,0.0,0,3684.0,1
1443,1443,0.04793046085391284,0.0,0.0,0.0,471.0,581.0,0.0,1,3948.0,1
1444,1444,-0.607719604878736,-0.6,1.0,0.0,446.0,716.0,0.0,0,3838.0,1
1445,1445,-0.21421446434610747,-0.2,0.0,1.0,487.0,716.0,1.0,0,-853.0,1
1446,1446,-0.5904146334025284,-0.6,1.0,0.0,478.0,616.0,0.0,0,3906.0,1
1447,1447,-0.437609043236461,-0.4,1.0,0.0,435.0,640.0,0.0,0,3925.0,1
1448,1448,-0.20156108137046747,-0.2,1.0,0.0,274.0,761.0,0.0,0,3965.0,1
1449,1449,0.6649887147114403,0.7,0.0,0.0,440.0,885.0,0.0,1,3675.0,1
1450,1450,-0.8243661909688089,-0.8,1.0,0.0,389.0,764.0,0.0,0,3847.0,1
1451,1451,-0.5235618239140507,-0.5,0.0,1.0,275.0,578.0,0.0,1,-843.0,0
1452,1452,-0.3532205760653948,-0.4,1.0,0.0,359.0,876.0,0.0,0,-1005.0,1
1453,1453,-0.10248019141679132,-0.1,0.0,1.0,419.0,838.0,0.0,1,3743.0,0
1454,1454,-0.6847206223683706,-0.7,0.0,1.0,453.0,640.0,0.0,1,3907.0,0
1455,1455,0.2068186120906058,0.2,0.0,0.0,394.0,617.0,0.0,1,3989.0,1
1456,1456,-0.8972095460913007,-0.9,0.0,1.0,302.0,761.0,0.0,1,3937.0,0
1457,1457,-0.35188934221309065,-0.4,0.0,1.0,316.0,712.0,0.0,1,3972.0,0
1458,1458,0.5875910011795565,0.6,1.0,1.0,460.0,749.0,0.0,0,3791.0,0
1459,1459,0.28379788883207857,0.3,1.0,1.0,287.0,573.0,0.0,0,-840.0,0
1460,1460,0.6698292052845335,0.7,1.0,1.0,461.0,518.0,0.0,0,4021.0,0
1461,1461,0.037369437121753224,0.0,0.0,0.0,375.0,625.0,0.0,1,4000.0,1
1462,1462,0.6486470821375566,0.6,0.0,0.0,325.0,733.0,0.0,1,3942.0,1
1463,1463,-0.6072070655331689,-0.6,0.0,1.0,310.0,643.0,0.0,1,4047.0,0
1464,1464,-0.7763542184291371,-0.8,1.0,0.0,292.0,735.0,0.0,0,3973.0,1
1465,1465,0.5892505158685623,0.6,1.0,1.0,442.0,928.0,0.0,0,3630.0,0
1466,1466,-0.6834804673262701,-0.7,1.0,0.0,307.0,731.0,0.0,0,3962.0,1
1467,1467,-0.6196998817183735,-0.6,0.0,1.0,372.0,940.0,1.0,0,-1302.0,1
1468,1468,-0.4783175310501499,-0.5,1.0,0.0,385.0,793.0,0.0,0,3822.0,1
1469,1469,-0.5218269492392476,-0.5,1.0,0.0,401.0,932.0,0.0,0,3667.0,1
