,trial,coherence,coherence_bin,green_side,correct_side,target_onset,checker_onset,decision,green_decision,decision_time,correct_decision
0,0,-0.4127098697310405,-0.4,0.0,1.0,466.0,537.0,1.0,0,1017.0,1
1,1,-0.5140020953905549,-0.5,0.0,1.0,284.0,801.0,1.0,0,1915.0,1
2,2,0.3563105260844056,0.4,1.0,1.0,294.0,729.0,1.0,1,-423.0,1
3,3,0.5236121620121518,0.5,0.0,0.0,409.0,897.0,0.0,1,354.0,1
4,4,0.013783425978383779,0.0,0.0,0.0,385.0,791.0,0.0,1,1824.0,1
5,5,0.20488472119336232,0.2,0.0,0.0,459.0,893.0,1.0,0,-542.0,0
6,6,0.5540968902681359,0.6,1.0,1.0,404.0,844.0,1.0,1,-208.0,1
7,7,-0.7832781424307451,-0.8,0.0,1.0,272.0,944.0,1.0,0,-926.0,1
8,8,0.3178315679924394,0.3,0.0,0.0,274.0,744.0,0.0,1,602.0,1
9,9,0.37845520254098075,0.4,0.0,0.0,498.0,886.0,1.0,0,-1044.0,0
10,10,-0.08266822022118747,-0.1,1.0,0.0,347.0,797.0,1.0,1,-34.0,0
11,11,0.421884274487934,0.4,0.0,0.0,462.0,672.0,0.0,1,256.0,1
12,12,0.19990804720521627,0.2,1.0,1.0,284.0,941.0,1.0,1,-35.0,1
13,13,-0.05575363695244018,-0.1,0.0,1.0,426.0,757.0,0.0,1,-193.0,0
14,14,0.525792748454822,0.5,1.0,1.0,415.0,939.0,1.0,1,-1294.0,1
15,15,0.5033252105022009,0.5,1.0,1.0,470.0,625.0,1.0,1,185.0,1
16,16,-0.3384964755090548,-0.3,0.0,1.0,489.0,669.0,1.0,0,412.0,1
17,17,-0.11814711746455975,-0.1,1.0,0.0,441.0,544.0,1.0,1,-125.0,0
18,18,0.3653940262849352,0.4,0.0,0.0,435.0,883.0,1.0,0,772.0,0
19,19,-0.5370929403927787,-0.5,0.0,1.0,375.0,717.0,1.0,0,838.0,1
20,20,-0.6989015928954494,-0.7,1.0,0.0,349.0,918.0,1.0,1,-947.0,0
21,21,0.554453054339945,0.6,1.0,1.0,362.0,860.0,1.0,1,-1122.0,1
22,22,0.46332277757778473,0.5,0.0,0.0,320.0,781.0,0.0,1,929.0,1
23,23,0.4013454749685891,0.4,1.0,1.0,283.0,539.0,1.0,1,-342.0,1
24,24,0.38648991762297,0.4,1.0,1.0,371.0,591.0,1.0,1,-92.0,1
25,25,0.8400612672362094,0.8,0.0,0.0,432.0,793.0,1.0,0,-1145.0,0
26,26,-0.4228460380668678,-0.4,0.0,1.0,405.0,895.0,1.0,0,-560.0,1
27,27,0.49118924122682805,0.5,1.0,1.0,352.0,982.0,1.0,1,376.0,1
28,28,-0.5529658291334942,-0.6,1.0,0.0,332.0,808.0,1.0,1,70.0,0
29,29,0.8668557167982488,0.9,0.0,0.0,470.0,820.0,1.0,0,-140.0,0
30,30,-0.04422382283231985,-0.0,0.0,1.0,322.0,852.0,1.0,0,-744.0,1
31,31,0.28445778679781053,0.3,0.0,0.0,364.0,949.0,0.0,1,797.0,1
32,32,0.6291914903488566,0.6,1.0,1.0,377.0,976.0,1.0,1,-1293.0,1
33,33,-0.20097568801151922,-0.2,1.0,0.0,259.0,686.0,1.0,1,655.0,0
34,34,0.42812680199182906,0.4,0.0,0.0,411.0,990.0,1.0,0,-1261.0,0
35,35,0.42027369981851226,0.4,0.0,0.0,292.0,853.0,0.0,1,-745.0,1
36,36,0.3050310142038658,0.3,0.0,0.0,486.0,952.0,1.0,0,-1358.0,0
37,37,0.33213518218011717,0.3,0.0,0.0,406.0,724.0,1.0,0,860.0,0
38,38,0.6173886345022924,0.6,0.0,0.0,475.0,630.0,1.0,0,-565.0,0
39,39,0.858930449873628,0.9,1.0,1.0,295.0,922.0,1.0,1,483.0,1
40,40,-0.0316197419428339,-0.0,1.0,0.0,294.0,798.0,1.0,1,828.0,0
41,41,-0.27082794978215663,-0.3,1.0,0.0,470.0,555.0,1.0,1,1615.0,0
42,42,-0.16653448110750413,-0.2,0.0,1.0,281.0,501.0,1.0,0,-82.0,1
43,43,-0.7361545666937209,-0.7,1.0,0.0,493.0,867.0,1.0,1,-940.0,0
44,44,0.07947296792436132,0.1,0.0,0.0,361.0,540.0,0.0,1,-751.0,1
45,45,-0.2310433552987209,-0.2,0.0,1.0,269.0,977.0,1.0,0,-1146.0,1
46,46,-0.31044008835074866,-0.3,0.0,1.0,406.0,574.0,0.0,1,2020.0,0
47,47,0.09521997590652331,0.1,0.0,0.0,250.0,502.0,1.0,0,968.0,0
48,48,0.4951592288717753,0.5,1.0,1.0,367.0,917.0,1.0,1,56.0,1
49,49,-0.018086595957339635,-0.0,1.0,0.0,429.0,895.0,1.0,1,-1184.0,0
50,50,-0.7934172365907288,-0.8,1.0,0.0,408.0,678.0,0.0,0,1914.0,1
51,51,0.6324171877931312,0.6,0.0,0.0,333.0,521.0,1.0,0,-84.0,0
52,52,-0.5678335776755999,-0.6,0.0,1.0,321.0,831.0,1.0,0,-172.0,1
53,53,0.8251363998607139,0.8,0.0,0.0,427.0,911.0,1.0,0,-1278.0,0
54,54,0.4951355612882745,0.5,0.0,0.0,496.0,627.0,0.0,1,1747.0,1
55,55,-0.8890779085621543,-0.9,0.0,1.0,412.0,618.0,1.0,0,310.0,1
56,56,0.18337279711791787,0.2,1.0,1.0,341.0,685.0,1.0,1,-926.0,1
57,57,-0.48752341192546955,-0.5,1.0,0.0,336.0,922.0,1.0,1,632.0,0
58,58,0.6678806486503496,0.7,0.0,0.0,323.0,621.0,0.0,1,-124.0,1
59,59,-0.7242035051955664,-0.7,1.0,0.0,382.0,899.0,1.0,1,1719.0,0
60,60,-0.7465674045203751,-0.7,1.0,0.0,298.0,873.0,0.0,0,1829.0,1
61,61,0.22344127876403908,0.2,1.0,1.0,471.0,991.0,1.0,1,198.0,1
62,62,-0.5342531439701068,-0.5,1.0,0.0,428.0,719.0,1.0,1,103.0,0
63,63,-0.7484586920790425,-0.7,0.0,1.0,428.0,514.0,1.0,0,-332.0,1
64,64,-0.44564264087121275,-0.4,1.0,0.0,254.0,580.0,1.0,1,1526.0,0
65,65,-0.8784954871000461,-0.9,0.0,1.0,392.0,597.0,1.0,0,-459.0,1
66,66,0.5060696255774505,0.5,0.0,0.0,380.0,920.0,1.0,0,-220.0,0
67,67,-0.6594610315568407,-0.7,1.0,0.0,400.0,847.0,1.0,1,513.0,0
68,68,0.49779473742355174,0.5,0.0,0.0,273.0,532.0,1.0,0,-375.0,0
69,69,0.4405388168242873,0.4,1.0,1.0,307.0,542.0,1.0,1,-379.0,1
70,70,-0.08861928783903983,-0.1,1.0,0.0,392.0,990.0,1.0,1,-1032.0,0
71,71,-0.030110220259325637,-0.0,1.0,0.0,331.0,812.0,1.0,1,-223.0,0
72,72,-0.8839101734517267,-0.9,0.0,1.0,386.0,858.0,1.0,0,-624.0,1
73,73,0.17178306714907798,0.2,0.0,0.0,470.0,543.0,1.0,0,-553.0,0
74,74,0.34692409576366046,0.3,1.0,1.0,390.0,741.0,1.0,1,-671.0,1
75,75,0.07848970164830982,0.1,1.0,1.0,419.0,615.0,1.0,1,1966.0,1
76,76,-0.1516712705146297,-0.2,0.0,1.0,318.0,558.0,1.0,0,-376.0,1
77,77,0.20362015467937933,0.2,0.0,0.0,286.0,547.0,0.0,1,847.0,1
78,78,-0.20205056439920233,-0.2,0.0,1.0,488.0,672.0,0.0,1,1840.0,0
79,79,0.38757892705087593,0.4,1.0,1.0,328.0,795.0,1.0,1,367.0,1
80,80,-0.8891996820055759,-0.9,0.0,1.0,314.0,548.0,1.0,0,1238.0,1
81,81,-0.4453518249451937,-0.4,0.0,1.0,408.0,592.0,1.0,0,-640.0,1
82,82,-0.7141480853867711,-0.7,1.0,0.0,286.0,895.0,1.0,1,-1171.0,0
83,83,0.343710245823439,0.3,0.0,0.0,294.0,591.0,1.0,0,-325.0,0
84,84,-0.24278704609191248,-0.2,1.0,0.0,454.0,838.0,1.0,1,588.0,0
85,85,0.300469147664261,0.3,1.0,1.0,357.0,703.0,1.0,1,990.0,1
86,86,0.31461523722363227,0.3,0.0,0.0,365.0,822.0,1.0,0,1813.0,0
87,87,-0.8453957249813352,-0.8,0.0,1.0,384.0,846.0,1.0,0,80.0,1
88,88,0.37070206037992526,0.4,1.0,1.0,384.0,878.0,1.0,1,708.0,1
89,89,0.5566732006878662,0.6,1.0,1.0,408.0,988.0,1.0,1,14.0,1
90,90,-0.538456119016165,-0.5,0.0,1.0,281.0,878.0,1.0,0,1801.0,1
91,91,0.49539423076300604,0.5,1.0,1.0,496.0,965.0,1.0,1,-1131.0,1
92,92,-0.5967373181384243,-0.6,1.0,0.0,458.0,618.0,1.0,1,-486.0,0
93,93,0.8781935136832298,0.9,0.0,0.0,395.0,693.0,1.0,0,-38.0,0
94,94,0.6568383770315779,0.7,1.0,1.0,448.0,758.0,1.0,1,-106.0,1
95,95,0.8913262315798253,0.9,0.0,0.0,471.0,969.0,1.0,0,200.0,0
96,96,-0.20968730948516068,-0.2,1.0,0.0,427.0,662.0,0.0,0,1911.0,1
97,97,0.15644901818060164,0.2,1.0,1.0,489.0,841.0,1.0,1,-1280.0,1
98,98,0.6753843152590727,0.7,1.0,1.0,410.0,989.0,1.0,1,-259.0,1
99,99,-0.3856170686026904,-0.4,0.0,1.0,463.0,738.0,1.0,0,-31.0,1
100,100,0.24047906088145854,0.2,0.0,0.0,478.0,527.0,1.0,0,-105.0,0
101,101,-0.4713806823852489,-0.5,0.0,1.0,284.0,676.0,1.0,0,80.0,1
102,102,-0.5143808969067486,-0.5,1.0,0.0,405.0,634.0,0.0,0,1961.0,1
103,103,-0.32786455819742255,-0.3,1.0,0.0,355.0,870.0,1.0,1,975.0,0
104,104,0.3738696725644878,0.4,0.0,0.0,370.0,800.0,1.0,0,1300.0,0
105,105,0.26390435921222,0.3,0.0,0.0,445.0,551.0,1.0,0,-116.0,0
106,106,-0.6165719861172647,-0.6,1.0,0.0,364.0,634.0,1.0,1,-468.0,0
107,107,-0.6177544455967442,-0.6,1.0,0.0,488.0,631.0,1.0,1,-579.0,0
108,108,0.18055839785535321,0.2,0.0,0.0,297.0,965.0,1.0,0,-962.0,0
109,109,0.7513986742493254,0.8,1.0,1.0,268.0,889.0,1.0,1,-1127.0,1
110,110,0.09963808295881926,0.1,1.0,1.0,253.0,539.0,0.0,0,2208.0,0
111,111,0.8414156675468903,0.8,0.0,0.0,447.0,900.0,0.0,1,-117.0,1
112,112,0.5321334541562229,0.5,0.0,0.0,329.0,971.0,0.0,1,430.0,1
113,113,0.670540421871021,0.7,0.0,0.0,336.0,727.0,0.0,1,407.0,1
114,114,-0.7488038418923512,-0.7,1.0,0.0,346.0,768.0,0.0,0,1886.0,1
115,115,0.20811441477247017,0.2,0.0,0.0,337.0,807.0,0.0,1,916.0,1
116,116,-0.7422275240020827,-0.7,1.0,0.0,491.0,994.0,1.0,1,-1395.0,0
117,117,0.08133229259687835,0.1,1.0,1.0,261.0,600.0,1.0,1,-291.0,1
118,118,0.6705979128895924,0.7,0.0,0.0,447.0,626.0,1.0,0,1007.0,0
119,119,0.34559837453854103,0.3,1.0,1.0,300.0,534.0,1.0,1,-824.0,1
120,120,0.7537765270205142,0.8,1.0,1.0,279.0,965.0,1.0,1,-944.0,1
121,121,-0.7759803527417801,-0.8,0.0,1.0,402.0,548.0,1.0,0,90.0,1
122,122,-0.5277530769775799,-0.5,0.0,1.0,325.0,509.0,1.0,0,-214.0,1
123,123,-0.48019403649443426,-0.5,1.0,0.0,254.0,899.0,1.0,1,747.0,0
124,124,-0.8455900374828463,-0.8,0.0,1.0,299.0,744.0,1.0,0,577.0,1
125,125,-0.5429891986032673,-0.5,0.0,1.0,463.0,786.0,1.0,0,1571.0,1
126,126,0.7530386609885286,0.8,0.0,0.0,488.0,858.0,0.0,1,954.0,1
127,127,0.056185643175049815,0.1,1.0,1.0,495.0,720.0,1.0,1,-215.0,1
128,128,-0.3737631784781127,-0.4,1.0,0.0,438.0,501.0,1.0,1,-599.0,0
129,129,0.32267896760188897,0.3,1.0,1.0,386.0,544.0,1.0,1,1560.0,1
130,130,0.3643927846680174,0.4,0.0,0.0,339.0,924.0,1.0,0,-233.0,0
131,131,0.8732634615711147,0.9,0.0,0.0,461.0,971.0,1.0,0,-852.0,0
132,132,-0.018223674083840846,-0.0,1.0,0.0,482.0,748.0,1.0,1,-540.0,0
133,133,-0.4280780116516527,-0.4,0.0,1.0,370.0,544.0,1.0,0,2086.0,1
134,134,-0.8361278417060612,-0.8,1.0,0.0,328.0,660.0,1.0,1,-538.0,0
135,135,-0.6051970709798364,-0.6,1.0,0.0,414.0,516.0,0.0,0,980.0,1
136,136,0.5082686355338485,0.5,0.0,0.0,357.0,867.0,1.0,0,-1164.0,0
137,137,-0.4726782984768933,-0.5,1.0,0.0,499.0,762.0,1.0,1,1029.0,0
138,138,0.027090833455933327,0.0,0.0,0.0,480.0,762.0,1.0,0,-32.0,0
139,139,-0.18215280840681236,-0.2,1.0,0.0,368.0,839.0,1.0,1,323.0,0
140,140,-0.7026350166318599,-0.7,0.0,1.0,251.0,918.0,1.0,0,21.0,1
141,141,-0.6573706544571105,-0.7,1.0,0.0,257.0,528.0,0.0,0,2215.0,1
142,142,-0.2543129021404198,-0.3,1.0,0.0,392.0,519.0,1.0,1,-371.0,0
143,143,0.00335957445025703,0.0,0.0,0.0,357.0,799.0,0.0,1,1844.0,1
144,144,-0.649661434434038,-0.6,1.0,0.0,295.0,696.0,1.0,1,-411.0,0
145,145,0.2575184865256125,0.3,0.0,0.0,337.0,687.0,1.0,0,-914.0,0
146,146,-0.18359371770544197,-0.2,0.0,1.0,323.0,809.0,0.0,1,-122.0,0
147,147,-0.5995760729327915,-0.6,1.0,0.0,419.0,719.0,1.0,1,1622.0,0
148,148,-0.2577816659318196,-0.3,0.0,1.0,397.0,741.0,1.0,0,682.0,1
149,149,0.7055629499784356,0.7,0.0,0.0,362.0,722.0,1.0,0,-1044.0,0
150,150,-0.8454147195962215,-0.8,1.0,0.0,421.0,586.0,1.0,1,13.0,0
151,151,0.6790647808590907,0.7,1.0,1.0,352.0,806.0,1.0,1,-438.0,1
152,152,0.30898560186793944,0.3,0.0,0.0,329.0,579.0,1.0,0,-118.0,0
153,153,-0.6519957313962821,-0.7,1.0,0.0,296.0,575.0,0.0,0,2129.0,1
154,154,0.3802464728242977,0.4,1.0,1.0,468.0,808.0,1.0,1,-636.0,1
155,155,-0.15149366349829796,-0.2,1.0,0.0,436.0,824.0,1.0,1,-660.0,0
156,156,-0.526125139696593,-0.5,1.0,0.0,459.0,772.0,0.0,0,1769.0,1
157,157,0.269067095921535,0.3,1.0,1.0,255.0,886.0,1.0,1,-511.0,1
158,158,-0.40618024334863795,-0.4,1.0,0.0,334.0,603.0,1.0,1,-847.0,0
159,159,-0.01613871890645613,-0.0,0.0,1.0,369.0,697.0,1.0,0,1314.0,1
160,160,0.09658207692637233,0.1,0.0,0.0,287.0,643.0,1.0,0,1330.0,0
161,161,0.43410821826930557,0.4,1.0,1.0,493.0,523.0,1.0,1,-116.0,1
162,162,-0.6659984370084906,-0.7,1.0,0.0,361.0,738.0,1.0,1,1591.0,0
163,163,-0.48936955248778163,-0.5,0.0,1.0,402.0,592.0,1.0,0,976.0,1
164,164,-0.7832215746801449,-0.8,0.0,1.0,396.0,950.0,1.0,0,-536.0,1
165,165,0.02808041108690984,0.0,0.0,0.0,431.0,621.0,1.0,0,-132.0,0
166,166,0.17285623231549352,0.2,1.0,1.0,449.0,724.0,1.0,1,537.0,1
167,167,0.43059714056696585,0.4,0.0,0.0,486.0,537.0,1.0,0,27.0,0
168,168,0.14170258818985604,0.1,1.0,1.0,468.0,578.0,1.0,1,1564.0,1
169,169,-0.4913845442396209,-0.5,0.0,1.0,314.0,954.0,0.0,1,2.0,0
170,170,0.1050147696173348,0.1,1.0,1.0,488.0,591.0,1.0,1,-889.0,1
171,171,-0.8845668836263485,-0.9,1.0,0.0,413.0,740.0,0.0,0,1087.0,1
172,172,0.4929303697310098,0.5,0.0,0.0,371.0,887.0,1.0,0,402.0,0
173,173,0.09367382488123843,0.1,0.0,0.0,346.0,778.0,1.0,0,-444.0,0
174,174,-0.19237182166559985,-0.2,0.0,1.0,374.0,900.0,0.0,1,-94.0,0
175,175,0.2530544663114752,0.3,1.0,1.0,309.0,507.0,1.0,1,1034.0,1
176,176,-0.29631896712123484,-0.3,0.0,1.0,409.0,935.0,0.0,1,286.0,0
177,177,0.3165024941118254,0.3,1.0,1.0,350.0,623.0,0.0,0,-763.0,0
178,178,-0.2095574951167517,-0.2,1.0,0.0,482.0,525.0,1.0,1,1993.0,0
179,179,-0.032352915717453135,-0.0,1.0,0.0,428.0,861.0,1.0,1,501.0,0
180,180,-0.20931521685423693,-0.2,0.0,1.0,277.0,518.0,1.0,0,-755.0,1
181,181,0.0074133974804757585,0.0,1.0,1.0,266.0,915.0,0.0,0,1819.0,0
182,182,0.38628966365362005,0.4,1.0,1.0,473.0,802.0,1.0,1,1075.0,1
183,183,-0.09868200281718231,-0.1,1.0,0.0,465.0,874.0,1.0,1,-379.0,0
184,184,-0.13987268612253367,-0.1,1.0,0.0,436.0,927.0,1.0,1,-83.0,0
185,185,-0.30192633896892973,-0.3,1.0,0.0,483.0,811.0,1.0,1,-574.0,0
186,186,0.39102085960382993,0.4,1.0,1.0,377.0,534.0,1.0,1,1989.0,1
187,187,0.37938484845004694,0.4,1.0,1.0,346.0,853.0,1.0,1,991.0,1
188,188,0.8428866717650721,0.8,1.0,1.0,438.0,567.0,1.0,1,765.0,1
189,189,0.1845900891947102,0.2,1.0,1.0,301.0,894.0,1.0,1,-555.0,1
190,190,0.5511680980248793,0.6,1.0,1.0,320.0,741.0,1.0,1,1249.0,1
191,191,0.8277332108148706,0.8,0.0,0.0,254.0,645.0,0.0,1,431.0,1
192,192,-0.23028169057340986,-0.2,1.0,0.0,308.0,762.0,1.0,1,-1050.0,0
193,193,-0.5888729991479131,-0.6,0.0,1.0,342.0,564.0,1.0,0,-616.0,1
194,194,0.19082527956581952,0.2,0.0,0.0,309.0,989.0,1.0,0,-1288.0,0
195,195,-0.44232012847128466,-0.4,1.0,0.0,315.0,882.0,1.0,1,-1047.0,0
196,196,0.10444238933245342,0.1,0.0,0.0,399.0,716.0,1.0,0,75.0,0
197,197,-0.8163394299838992,-0.8,1.0,0.0,321.0,951.0,0.0,0,1728.0,1
198,198,-0.44141801253592583,-0.4,1.0,0.0,292.0,521.0,1.0,1,1017.0,0
199,199,0.7744123788458427,0.8,0.0,0.0,421.0,810.0,1.0,0,-1041.0,0
200,200,0.38733873974570077,0.4,1.0,1.0,486.0,851.0,1.0,1,3.0,1
201,201,-0.2541645249745357,-0.3,1.0,0.0,377.0,603.0,0.0,0,2020.0,1
202,202,0.4591787946860336,0.5,0.0,0.0,323.0,622.0,1.0,0,-545.0,0
203,203,-0.8349017422320424,-0.8,0.0,1.0,258.0,880.0,1.0,0,1862.0,1
204,204,0.7379313977954852,0.7,1.0,1.0,279.0,939.0,0.0,0,1092.0,0
205,205,-0.11362060254089557,-0.1,1.0,0.0,475.0,817.0,1.0,1,48.0,0
206,206,0.011123053211942624,0.0,1.0,1.0,398.0,733.0,1.0,1,-991.0,1
207,207,-0.6056141269531303,-0.6,1.0,0.0,363.0,837.0,1.0,1,-1040.0,0
208,208,0.8597321217640995,0.9,0.0,0.0,454.0,762.0,1.0,0,1174.0,0
209,209,-0.05114221683368336,-0.1,0.0,1.0,289.0,935.0,1.0,0,-944.0,1
210,210,-0.04452287357664109,-0.0,1.0,0.0,466.0,716.0,1.0,1,-2.0,0
211,211,-0.25346951584416266,-0.3,1.0,0.0,456.0,907.0,1.0,1,-673.0,0
212,212,0.01293431568424197,0.0,0.0,0.0,294.0,870.0,1.0,0,16.0,0
213,213,0.1575595556597943,0.2,0.0,0.0,465.0,917.0,1.0,0,-1002.0,0
214,214,-0.8228667605054085,-0.8,0.0,1.0,413.0,817.0,1.0,0,-540.0,1
215,215,0.14422409062950636,0.1,1.0,1.0,487.0,994.0,1.0,1,949.0,1
216,216,0.5205369080854546,0.5,0.0,0.0,271.0,631.0,0.0,1,1038.0,1
217,217,0.3577829089953727,0.4,1.0,1.0,463.0,585.0,1.0,1,-128.0,1
218,218,0.44884902065463017,0.4,0.0,0.0,495.0,578.0,1.0,0,197.0,0
219,219,0.8470146458493971,0.8,0.0,0.0,398.0,683.0,0.0,1,1069.0,1
220,220,0.8285744494044335,0.8,1.0,1.0,415.0,584.0,1.0,1,1761.0,1
221,221,0.1740429787241523,0.2,1.0,1.0,488.0,838.0,1.0,1,974.0,1
222,222,0.6225126018995181,0.6,1.0,1.0,441.0,972.0,1.0,1,-803.0,1
223,223,0.7604525721733161,0.8,1.0,1.0,271.0,585.0,1.0,1,2144.0,1
224,224,-0.06306512920443264,-0.1,0.0,1.0,368.0,549.0,0.0,1,1623.0,0
225,225,0.5754887055629546,0.6,1.0,1.0,258.0,867.0,1.0,1,-735.0,1
226,226,-0.39154272797457956,-0.4,1.0,0.0,399.0,744.0,1.0,1,-1043.0,0
227,227,0.8152635882404361,0.8,1.0,1.0,269.0,911.0,1.0,1,780.0,1
228,228,0.37190490680992705,0.4,0.0,0.0,414.0,517.0,1.0,0,359.0,0
229,229,0.6268306482083722,0.6,1.0,1.0,390.0,536.0,1.0,1,-856.0,1
230,230,-0.16853429067705006,-0.2,1.0,0.0,293.0,685.0,0.0,0,2022.0,1
231,231,0.31950113084750853,0.3,1.0,1.0,383.0,812.0,1.0,1,-1165.0,1
232,232,0.5607103263957979,0.6,0.0,0.0,385.0,548.0,1.0,0,-483.0,0
233,233,0.5165592560749342,0.5,0.0,0.0,297.0,757.0,1.0,0,-474.0,0
234,234,0.15456890995060635,0.2,1.0,1.0,444.0,532.0,0.0,0,2024.0,0
235,235,0.7425294934346033,0.7,1.0,1.0,472.0,625.0,1.0,1,-1037.0,1
236,236,0.40687474772892973,0.4,0.0,0.0,260.0,584.0,1.0,0,-834.0,0
237,237,0.1726232171355807,0.2,0.0,0.0,428.0,897.0,1.0,0,1675.0,0
238,238,0.20163718548126675,0.2,0.0,0.0,383.0,827.0,1.0,0,1790.0,0
239,239,-0.6303347428228512,-0.6,1.0,0.0,334.0,838.0,0.0,0,1828.0,1
240,240,0.4097831625926075,0.4,0.0,0.0,428.0,520.0,0.0,1,372.0,1
241,241,0.4969239779212814,0.5,0.0,0.0,356.0,617.0,1.0,0,1397.0,0
242,242,0.18522899893636902,0.2,1.0,1.0,336.0,967.0,1.0,1,1077.0,1
243,243,0.3896657399545448,0.4,0.0,0.0,303.0,848.0,1.0,0,69.0,0
244,244,-0.762621165689553,-0.8,1.0,0.0,289.0,504.0,1.0,1,1797.0,0
245,245,-0.12155332563530907,-0.1,1.0,0.0,393.0,772.0,1.0,1,-665.0,0
246,246,0.060928382149220583,0.1,1.0,1.0,424.0,814.0,1.0,1,-1058.0,1
247,247,-0.6568950931710236,-0.7,0.0,1.0,265.0,850.0,1.0,0,-975.0,1
248,248,-0.019312427467630733,-0.0,0.0,1.0,257.0,943.0,1.0,0,830.0,1
249,249,-0.8991857009303696,-0.9,0.0,1.0,386.0,700.0,1.0,0,1914.0,1
250,250,0.6909688765241323,0.7,0.0,0.0,482.0,694.0,0.0,1,1414.0,1
251,251,-0.8210565991557714,-0.8,1.0,0.0,469.0,704.0,1.0,1,-343.0,0
252,252,-0.8998650582870014,-0.9,1.0,0.0,383.0,545.0,1.0,1,-258.0,0
253,253,-0.8312736539458748,-0.8,0.0,1.0,261.0,675.0,1.0,0,-436.0,1
254,254,-0.306350968563721,-0.3,1.0,0.0,251.0,751.0,1.0,1,-302.0,0
255,255,0.4577509539662793,0.5,0.0,0.0,257.0,502.0,0.0,1,-229.0,1
256,256,-0.17695724072575814,-0.2,0.0,1.0,440.0,856.0,0.0,1,1704.0,0
257,257,0.8457070973006225,0.8,1.0,1.0,410.0,546.0,1.0,1,-166.0,1
258,258,0.006814654919007124,0.0,1.0,1.0,265.0,919.0,1.0,1,-1124.0,1
259,259,0.22590777321265187,0.2,0.0,0.0,350.0,827.0,1.0,0,-877.0,0
260,260,0.8954482888874841,0.9,0.0,0.0,413.0,933.0,0.0,1,954.0,1
261,261,0.20545072666246555,0.2,1.0,1.0,414.0,663.0,1.0,1,-597.0,1
262,262,0.13831880320619183,0.1,1.0,1.0,407.0,732.0,1.0,1,-1089.0,1
263,263,0.5186076883629879,0.5,1.0,1.0,406.0,649.0,1.0,1,595.0,1
264,264,0.5202999586398259,0.5,1.0,1.0,448.0,984.0,1.0,1,-1162.0,1
265,265,0.5276824985957044,0.5,0.0,0.0,282.0,507.0,1.0,0,-749.0,0
266,266,-0.8740857630470512,-0.9,0.0,1.0,433.0,966.0,1.0,0,-1079.0,1
267,267,0.5972620034846948,0.6,0.0,0.0,469.0,909.0,1.0,0,322.0,0
268,268,0.877549990718859,0.9,1.0,1.0,408.0,540.0,1.0,1,-298.0,1
269,269,0.8356210918393571,0.8,1.0,1.0,395.0,831.0,1.0,1,-1126.0,1
270,270,-0.40844452215421184,-0.4,0.0,1.0,335.0,858.0,1.0,0,-13.0,1
271,271,-0.035859241263328845,-0.0,0.0,1.0,411.0,612.0,1.0,0,-283.0,1
272,272,-0.7843267720249109,-0.8,1.0,0.0,451.0,565.0,0.0,0,1984.0,1
273,273,0.4964893342880218,0.5,1.0,1.0,410.0,788.0,1.0,1,-1098.0,1
274,274,-0.35344562936710033,-0.4,0.0,1.0,317.0,532.0,1.0,0,-279.0,1
275,275,-0.6823710770882752,-0.7,1.0,0.0,287.0,551.0,0.0,0,2162.0,1
276,276,0.35299503293536183,0.4,0.0,0.0,460.0,679.0,0.0,1,1231.0,1
277,277,-0.35191089512617046,-0.4,0.0,1.0,439.0,988.0,1.0,0,-1017.0,1
278,278,-0.3436705585216602,-0.3,1.0,0.0,428.0,953.0,1.0,1,1619.0,0
279,279,0.8675078975912675,0.9,0.0,0.0,337.0,682.0,0.0,1,1191.0,1
280,280,0.7235991982171167,0.7,1.0,1.0,421.0,753.0,1.0,1,-1024.0,1
281,281,-0.012957957623584204,-0.0,0.0,1.0,335.0,622.0,1.0,0,-77.0,1
282,282,0.42596848412554655,0.4,1.0,1.0,350.0,972.0,1.0,1,-1252.0,1
283,283,0.7954540430317073,0.8,0.0,0.0,441.0,874.0,1.0,0,-25.0,0
284,284,-0.5720680616010612,-0.6,1.0,0.0,421.0,514.0,0.0,0,2065.0,1
285,285,-0.8941007135818781,-0.9,0.0,1.0,371.0,866.0,1.0,0,1053.0,1
286,286,0.2771743411231652,0.3,1.0,1.0,318.0,914.0,1.0,1,1348.0,1
287,287,-0.3873894485442153,-0.4,1.0,0.0,429.0,724.0,1.0,1,-283.0,0
288,288,-0.6813779713353612,-0.7,0.0,1.0,292.0,545.0,1.0,0,-827.0,1
289,289,0.5684237002181208,0.6,1.0,1.0,253.0,558.0,1.0,1,1059.0,1
290,290,-0.3306368470096068,-0.3,1.0,0.0,318.0,841.0,1.0,1,1411.0,0
291,291,-0.8349974895110421,-0.8,0.0,1.0,447.0,543.0,1.0,0,550.0,1
292,292,-0.8449042965595993,-0.8,1.0,0.0,371.0,881.0,1.0,1,1588.0,0
293,293,-0.2974515172405642,-0.3,1.0,0.0,491.0,957.0,1.0,1,1552.0,0
294,294,0.45330260475117046,0.5,0.0,0.0,334.0,851.0,1.0,0,-1075.0,0
295,295,-0.10166576492618251,-0.1,0.0,1.0,385.0,702.0,1.0,0,-407.0,1
296,296,-0.6868125227799342,-0.7,0.0,1.0,402.0,629.0,1.0,0,-751.0,1
297,297,0.27593312100689793,0.3,0.0,0.0,294.0,853.0,0.0,1,1853.0,1
298,298,0.071510628411671,0.1,0.0,0.0,441.0,664.0,0.0,1,1815.0,1
299,299,0.729475003308414,0.7,0.0,0.0,439.0,885.0,1.0,0,1206.0,0
300,300,0.12101665858106714,0.1,1.0,1.0,443.0,562.0,1.0,1,1035.0,1
301,301,-0.33860208312650286,-0.3,0.0,1.0,279.0,726.0,1.0,0,605.0,1
302,302,-0.8703609387479685,-0.9,1.0,0.0,296.0,580.0,1.0,1,-806.0,0
303,303,0.48484045104261,0.5,1.0,1.0,361.0,550.0,1.0,1,959.0,1
304,304,0.8361902446424586,0.8,0.0,0.0,401.0,556.0,1.0,0,83.0,0
305,305,0.27661764610244843,0.3,1.0,1.0,348.0,686.0,1.0,1,1966.0,1
306,306,-0.845465020491455,-0.8,0.0,1.0,389.0,537.0,0.0,1,2074.0,0
307,307,-0.06103773748968455,-0.1,0.0,1.0,261.0,900.0,1.0,0,-561.0,1
308,308,0.521097427988111,0.5,0.0,0.0,258.0,522.0,0.0,1,1140.0,1
309,309,0.8581148423220731,0.9,1.0,1.0,410.0,926.0,1.0,1,-1256.0,1
310,310,0.5868598449536481,0.6,1.0,1.0,426.0,905.0,1.0,1,-1221.0,1
311,311,-0.24827241852301218,-0.2,0.0,1.0,309.0,725.0,1.0,0,-964.0,1
312,312,-0.5686879986602325,-0.6,1.0,0.0,277.0,767.0,0.0,0,-674.0,1
313,313,-0.3622326481249285,-0.4,0.0,1.0,425.0,981.0,1.0,0,-926.0,1
314,314,0.748094202993581,0.7,1.0,1.0,327.0,552.0,1.0,1,431.0,1
315,315,0.6158497265958659,0.6,1.0,1.0,457.0,624.0,1.0,1,659.0,1
316,316,-0.37564744290734686,-0.4,0.0,1.0,356.0,642.0,0.0,1,-368.0,0
317,317,-0.5517587730870837,-0.6,1.0,0.0,469.0,627.0,0.0,0,1904.0,1
318,318,0.1321884181497136,0.1,1.0,1.0,381.0,823.0,1.0,1,446.0,1
319,319,-0.07872545738299663,-0.1,0.0,1.0,343.0,816.0,1.0,0,-449.0,1
320,320,-0.667505776211434,-0.7,1.0,0.0,285.0,652.0,1.0,1,-837.0,0
321,321,-0.6575750416693,-0.7,0.0,1.0,392.0,815.0,1.0,0,353.0,1
322,322,0.8908380341735321,0.9,0.0,0.0,328.0,801.0,0.0,1,-239.0,1
323,323,0.14358844745425625,0.1,0.0,0.0,420.0,601.0,0.0,1,1979.0,1
324,324,0.26718383883655317,0.3,1.0,1.0,443.0,776.0,1.0,1,1541.0,1
325,325,0.39017118286662844,0.4,0.0,0.0,412.0,991.0,1.0,0,-973.0,0
326,326,-0.749177567184148,-0.7,1.0,0.0,494.0,562.0,0.0,0,1944.0,1
327,327,0.26182683681537233,0.3,0.0,0.0,400.0,667.0,1.0,0,-417.0,0
328,328,-0.7503281341195855,-0.8,0.0,1.0,254.0,809.0,0.0,1,1937.0,0
329,329,0.7258156782770185,0.7,0.0,0.0,296.0,546.0,0.0,1,68.0,1
330,330,-0.24728072515637223,-0.2,0.0,1.0,299.0,628.0,1.0,0,583.0,1
331,331,0.6442198058325285,0.6,1.0,1.0,424.0,839.0,1.0,1,587.0,1
332,332,0.7128961996238844,0.7,1.0,1.0,426.0,553.0,1.0,1,1811.0,1
333,333,0.4615522958288999,0.5,0.0,0.0,405.0,581.0,1.0,0,-836.0,0
334,334,0.12224701254830694,0.1,1.0,1.0,496.0,505.0,1.0,1,-281.0,1
335,335,0.8029105838655125,0.8,0.0,0.0,304.0,832.0,1.0,0,-726.0,0
336,336,-0.7637815591714104,-0.8,0.0,1.0,294.0,528.0,1.0,0,18.0,1
337,337,0.6423365840685259,0.6,1.0,1.0,333.0,523.0,1.0,1,304.0,1
338,338,0.027668101209427087,0.0,0.0,0.0,476.0,785.0,0.0,1,1739.0,1
339,339,0.04932445950866016,0.0,0.0,0.0,385.0,662.0,1.0,0,1453.0,0
340,340,-0.30832735451163396,-0.3,1.0,0.0,277.0,861.0,1.0,1,-148.0,0
341,341,-0.11365239043579267,-0.1,1.0,0.0,492.0,972.0,1.0,1,-1334.0,0
342,342,-0.4527462258568193,-0.5,0.0,1.0,393.0,508.0,0.0,1,229.0,0
343,343,-0.5219744756758664,-0.5,1.0,0.0,372.0,755.0,1.0,1,-277.0,0
344,344,-0.796587587593784,-0.8,0.0,1.0,396.0,537.0,1.0,0,1987.0,1
345,345,0.4375460721199057,0.4,0.0,0.0,424.0,754.0,1.0,0,-898.0,0
346,346,0.8866342493990002,0.9,0.0,0.0,269.0,709.0,1.0,0,-668.0,0
347,347,-0.8773123029726898,-0.9,0.0,1.0,361.0,524.0,1.0,0,1335.0,1
348,348,0.5791370958155987,0.6,1.0,1.0,281.0,750.0,1.0,1,-751.0,1
349,349,0.5331751855117436,0.5,0.0,0.0,490.0,722.0,1.0,0,-1032.0,0
350,350,-0.07523848698429514,-0.1,1.0,0.0,405.0,886.0,1.0,1,-371.0,0
351,351,0.22241267990079006,0.2,1.0,1.0,368.0,518.0,1.0,1,1854.0,1
352,352,-0.44757447851149873,-0.4,1.0,0.0,487.0,534.0,1.0,1,1659.0,0
353,353,-0.15691188926439725,-0.2,1.0,0.0,347.0,905.0,1.0,1,1398.0,0
354,354,0.26786613365380385,0.3,1.0,1.0,450.0,601.0,1.0,1,-951.0,1
355,355,0.4407653617416195,0.4,0.0,0.0,328.0,802.0,0.0,1,1870.0,1
356,356,0.10945394499714267,0.1,1.0,1.0,446.0,666.0,1.0,1,-1102.0,1
357,357,-0.2227489796602068,-0.2,0.0,1.0,354.0,810.0,1.0,0,-614.0,1
358,358,-0.355818019209191,-0.4,0.0,1.0,407.0,517.0,0.0,1,2076.0,0
359,359,0.5805701367700421,0.6,0.0,0.0,446.0,688.0,1.0,0,1826.0,0
360,360,0.16777586299557623,0.2,1.0,1.0,492.0,670.0,1.0,1,-82.0,1
361,361,-0.2949419418970991,-0.3,1.0,0.0,265.0,500.0,1.0,1,1435.0,0
362,362,0.41122167349016625,0.4,0.0,0.0,442.0,520.0,1.0,0,-832.0,0
363,363,-0.3790864401467485,-0.4,0.0,1.0,270.0,930.0,1.0,0,1330.0,1
364,364,0.28226211437962256,0.3,1.0,1.0,437.0,871.0,1.0,1,-868.0,1
365,365,-0.5542019205280994,-0.6,0.0,1.0,333.0,564.0,0.0,1,2103.0,0
366,366,0.6055881915410147,0.6,0.0,0.0,306.0,917.0,1.0,0,507.0,0
367,367,-0.5553563841475901,-0.6,0.0,1.0,355.0,611.0,0.0,1,2034.0,0
368,368,0.5442217204233227,0.5,1.0,1.0,468.0,565.0,1.0,1,357.0,1
369,369,0.26577178994599404,0.3,1.0,1.0,386.0,890.0,1.0,1,904.0,1
370,370,-0.5351148089064173,-0.5,1.0,0.0,309.0,944.0,1.0,1,-1023.0,0
371,371,0.23933273107551678,0.2,0.0,0.0,300.0,687.0,1.0,0,-907.0,0
372,372,0.7278485162268234,0.7,1.0,1.0,450.0,958.0,1.0,1,1592.0,1
373,373,0.2824352937225961,0.3,1.0,1.0,394.0,764.0,1.0,1,32.0,1
374,374,-0.27759599884894015,-0.3,1.0,0.0,276.0,523.0,1.0,1,221.0,0
375,375,0.6360834113154509,0.6,0.0,0.0,431.0,524.0,0.0,1,1265.0,1
376,376,0.16797496217139007,0.2,1.0,1.0,336.0,557.0,1.0,1,-873.0,1
377,377,0.5388240341249056,0.5,0.0,0.0,489.0,753.0,0.0,1,1758.0,1
378,378,-0.2170347840587593,-0.2,0.0,1.0,498.0,639.0,1.0,0,113.0,1
379,379,0.34321330372318115,0.3,1.0,1.0,483.0,759.0,1.0,1,-252.0,1
380,380,0.8841037594122046,0.9,0.0,0.0,338.0,937.0,1.0,0,65.0,0
381,381,0.201731765228509,0.2,1.0,1.0,324.0,741.0,1.0,1,-745.0,1
382,382,-0.8353084207209971,-0.8,1.0,0.0,337.0,935.0,0.0,0,1728.0,1
383,383,-0.2640771783882546,-0.3,1.0,0.0,441.0,539.0,1.0,1,1400.0,0
384,384,0.5943186470113361,0.6,1.0,1.0,293.0,788.0,1.0,1,869.0,1
385,385,-0.6242198595594384,-0.6,0.0,1.0,268.0,736.0,1.0,0,836.0,1
386,386,0.33268103859201903,0.3,1.0,1.0,390.0,913.0,1.0,1,-1293.0,1
387,387,-0.11167653055800131,-0.1,0.0,1.0,330.0,925.0,1.0,0,-385.0,1
388,388,0.7366231095856027,0.7,1.0,1.0,270.0,958.0,1.0,1,-868.0,1
389,389,0.5277253810567294,0.5,0.0,0.0,361.0,908.0,1.0,0,-309.0,0
390,390,0.3725871779055655,0.4,1.0,1.0,348.0,543.0,1.0,1,1389.0,1
391,391,0.46449089285027234,0.5,0.0,0.0,310.0,886.0,0.0,1,484.0,1
392,392,-0.3049347599742043,-0.3,1.0,0.0,397.0,670.0,0.0,0,1933.0,1
393,393,-0.40251782268181674,-0.4,1.0,0.0,355.0,637.0,1.0,1,2008.0,0
394,394,0.30832282772558195,0.3,1.0,1.0,432.0,832.0,1.0,1,-644.0,1
395,395,-0.09435592613470434,-0.1,1.0,0.0,480.0,931.0,1.0,1,299.0,0
396,396,-0.8509841952426853,-0.9,0.0,1.0,342.0,666.0,1.0,0,1992.0,1
397,397,0.33279047916834703,0.3,0.0,0.0,348.0,993.0,0.0,1,1659.0,1
398,398,-0.6847138268188299,-0.7,0.0,1.0,289.0,648.0,1.0,0,-147.0,1
399,399,0.6701165819107456,0.7,0.0,0.0,444.0,581.0,1.0,0,-985.0,0
400,400,0.6390982370537542,0.6,1.0,1.0,456.0,667.0,1.0,1,-1083.0,1
401,401,-0.4836727584740677,-0.5,0.0,1.0,327.0,981.0,1.0,0,1262.0,1
402,402,0.8868350633819851,0.9,0.0,0.0,396.0,533.0,0.0,1,651.0,1
403,403,0.4574079221287092,0.5,1.0,1.0,363.0,752.0,1.0,1,-675.0,1
404,404,0.7986439312951602,0.8,0.0,0.0,490.0,515.0,1.0,0,-345.0,0
405,405,-0.57618720901946,-0.6,1.0,0.0,418.0,899.0,0.0,0,1683.0,1
406,406,-0.15611657411885027,-0.2,1.0,0.0,275.0,624.0,1.0,1,651.0,0
407,407,-0.2862098838118562,-0.3,0.0,1.0,282.0,717.0,1.0,0,2001.0,1
408,408,-0.6744192755204161,-0.7,0.0,1.0,286.0,813.0,0.0,1,1901.0,0
409,409,0.3261334881048047,0.3,1.0,1.0,479.0,941.0,1.0,1,-1400.0,1
410,410,0.1061630337371754,0.1,0.0,0.0,339.0,675.0,1.0,0,-584.0,0
411,411,0.6597339937127206,0.7,1.0,1.0,279.0,542.0,1.0,1,289.0,1
412,412,-0.8968307331674844,-0.9,1.0,0.0,445.0,618.0,1.0,1,-93.0,0
413,413,-0.6931615400276329,-0.7,0.0,1.0,309.0,635.0,1.0,0,126.0,1
414,414,0.15271051464933383,0.2,0.0,0.0,416.0,961.0,1.0,0,-1257.0,0
415,415,-0.6441793583851743,-0.6,1.0,0.0,482.0,886.0,1.0,1,222.0,0
416,416,-0.5751921935231707,-0.6,0.0,1.0,396.0,543.0,0.0,1,941.0,0
417,417,0.6974699619453498,0.7,0.0,0.0,279.0,744.0,1.0,0,-873.0,0
418,418,0.7610998383639979,0.8,1.0,1.0,322.0,861.0,1.0,1,-1153.0,1
419,419,-0.49288399375559,-0.5,1.0,0.0,430.0,788.0,1.0,1,-818.0,0
420,420,0.23145066229147904,0.2,1.0,1.0,455.0,797.0,1.0,1,-1192.0,1
421,421,0.7157536846021858,0.7,1.0,1.0,313.0,708.0,1.0,1,-621.0,1
422,422,-0.3889290592851785,-0.4,1.0,0.0,294.0,839.0,1.0,1,-503.0,0
423,423,-0.40766378735171305,-0.4,1.0,0.0,253.0,627.0,0.0,0,2120.0,1
424,424,-0.3243537592534451,-0.3,0.0,1.0,301.0,609.0,1.0,0,230.0,1
425,425,-0.5186714937219578,-0.5,0.0,1.0,351.0,545.0,0.0,1,2104.0,0
426,426,0.796430382563755,0.8,0.0,0.0,486.0,661.0,1.0,0,-757.0,0
427,427,0.8122331313521923,0.8,1.0,1.0,375.0,885.0,1.0,1,0.0,1
428,428,-0.1344864208900629,-0.1,1.0,0.0,391.0,503.0,0.0,0,2106.0,1
429,429,0.8354799269961249,0.8,0.0,0.0,303.0,929.0,1.0,0,-872.0,0
430,430,0.7790008294062477,0.8,1.0,1.0,359.0,584.0,1.0,1,-793.0,1
431,431,0.7791218685914963,0.8,1.0,1.0,442.0,990.0,1.0,1,618.0,1
432,432,0.4607449133188527,0.5,1.0,1.0,252.0,703.0,1.0,1,875.0,1
433,433,0.32484422183905226,0.3,0.0,0.0,375.0,856.0,0.0,1,339.0,1
434,434,0.22966686900912847,0.2,0.0,0.0,440.0,764.0,1.0,0,-834.0,0
435,435,0.3487348510223943,0.3,0.0,0.0,340.0,846.0,1.0,0,-586.0,0
436,436,0.6690088512975333,0.7,0.0,0.0,440.0,672.0,0.0,1,1888.0,1
437,437,0.5544519098838322,0.6,0.0,0.0,387.0,574.0,1.0,0,-421.0,0
438,438,0.43423857385315967,0.4,0.0,0.0,256.0,833.0,1.0,0,1351.0,0
439,439,-0.7106697054132742,-0.7,0.0,1.0,467.0,659.0,1.0,0,-366.0,1
440,440,-0.3642540104445299,-0.4,1.0,0.0,276.0,818.0,1.0,1,1536.0,0
441,441,-0.18453898623432707,-0.2,1.0,0.0,457.0,644.0,1.0,1,-391.0,0
442,442,-0.006213894859049551,-0.0,1.0,0.0,482.0,889.0,1.0,1,-1301.0,0
443,443,0.56806132027318,0.6,0.0,0.0,408.0,743.0,0.0,1,1169.0,1
444,444,0.5289971279232163,0.5,0.0,0.0,335.0,927.0,1.0,0,-652.0,0
445,445,0.02546290283540298,0.0,0.0,0.0,423.0,888.0,1.0,0,-931.0,0
446,446,-0.43571346754627566,-0.4,0.0,1.0,291.0,525.0,1.0,0,-646.0,1
447,447,-0.885691744555112,-0.9,0.0,1.0,308.0,822.0,0.0,1,-330.0,0
448,448,0.45745866650645783,0.5,1.0,1.0,254.0,754.0,1.0,1,1992.0,1
449,449,0.05245601057846283,0.1,1.0,1.0,401.0,868.0,1.0,1,-869.0,1
450,450,-0.6408107740793403,-0.6,1.0,0.0,406.0,721.0,1.0,1,1873.0,0
451,451,-0.7312786778768536,-0.7,0.0,1.0,432.0,545.0,1.0,0,163.0,1
452,452,0.8625099994793067,0.9,1.0,1.0,305.0,606.0,1.0,1,-411.0,1
453,453,-0.5072276324849083,-0.5,1.0,0.0,273.0,731.0,1.0,1,316.0,0
454,454,-0.7341153329347464,-0.7,0.0,1.0,375.0,988.0,1.0,0,1637.0,1
455,455,-0.290343283749662,-0.3,1.0,0.0,291.0,610.0,1.0,1,-481.0,0
456,456,-0.4370042762653602,-0.4,1.0,0.0,458.0,817.0,1.0,1,-615.0,0
457,457,0.3026786477470015,0.3,0.0,0.0,433.0,889.0,1.0,0,-792.0,0
458,458,0.7670065618832157,0.8,0.0,0.0,366.0,538.0,0.0,1,-234.0,1
459,459,-0.5649899381536815,-0.6,1.0,0.0,294.0,881.0,1.0,1,-975.0,0
460,460,0.16617447500045268,0.2,0.0,0.0,356.0,712.0,0.0,1,1392.0,1
461,461,0.513624914832122,0.5,0.0,0.0,459.0,881.0,1.0,0,-200.0,0
462,462,0.310784577419703,0.3,1.0,1.0,484.0,750.0,1.0,1,1766.0,1
463,463,-0.004935072571973231,-0.0,0.0,1.0,425.0,546.0,1.0,0,1399.0,1
464,464,-0.7954491261167006,-0.8,0.0,1.0,496.0,748.0,1.0,0,1736.0,1
465,465,-0.8721920024549346,-0.9,0.0,1.0,471.0,970.0,1.0,0,1559.0,1
466,466,-0.2761733533940467,-0.3,0.0,1.0,450.0,806.0,1.0,0,-496.0,1
467,467,0.2665512808246441,0.3,0.0,0.0,412.0,918.0,1.0,0,710.0,0
468,468,-0.027591593911707735,-0.0,1.0,0.0,328.0,805.0,1.0,1,-1053.0,0
469,469,-0.6970709493872991,-0.7,0.0,1.0,499.0,639.0,1.0,0,-688.0,1
470,470,-0.09449958852793539,-0.1,0.0,1.0,393.0,650.0,1.0,0,1647.0,1
471,471,0.7929256176641283,0.8,0.0,0.0,394.0,937.0,0.0,1,849.0,1
472,472,0.723320897416755,0.7,0.0,0.0,401.0,977.0,0.0,1,-268.0,1
473,473,0.08712095714745693,0.1,1.0,1.0,325.0,650.0,0.0,0,2025.0,0
474,474,0.41206614038921174,0.4,0.0,0.0,465.0,724.0,1.0,0,-1179.0,0
475,475,0.6751499489642828,0.7,1.0,1.0,386.0,986.0,1.0,1,-682.0,1
476,476,-0.4167947482271909,-0.4,1.0,0.0,448.0,946.0,0.0,0,1606.0,1
477,477,-0.3697245528651947,-0.4,0.0,1.0,300.0,572.0,1.0,0,1718.0,1
478,478,0.397942003647931,0.4,0.0,0.0,387.0,650.0,0.0,1,483.0,1
479,479,0.2439794667748899,0.2,1.0,1.0,468.0,645.0,1.0,1,-943.0,1
480,480,0.6670900843734507,0.7,1.0,1.0,296.0,631.0,1.0,1,23.0,1
481,481,0.10011467595492352,0.1,1.0,1.0,292.0,952.0,1.0,1,806.0,1
482,482,0.7270479318153696,0.7,1.0,1.0,285.0,615.0,1.0,1,-550.0,1
483,483,-0.288978559112001,-0.3,1.0,0.0,278.0,949.0,1.0,1,-297.0,0
484,484,-0.7569305693258283,-0.8,0.0,1.0,471.0,698.0,0.0,1,1831.0,0
485,485,-0.7962177141712445,-0.8,1.0,0.0,332.0,773.0,0.0,0,1895.0,1
486,486,0.17647259926706116,0.2,0.0,0.0,478.0,564.0,1.0,0,-272.0,0
487,487,-0.006448198393754101,-0.0,1.0,0.0,368.0,865.0,1.0,1,-1153.0,0
488,488,0.29414800642717365,0.3,1.0,1.0,282.0,634.0,1.0,1,624.0,1
489,489,-0.6367047375570082,-0.6,0.0,1.0,493.0,561.0,0.0,1,1946.0,0
490,490,-0.14684075135731411,-0.1,1.0,0.0,314.0,658.0,0.0,0,2028.0,1
491,491,-0.606119118968601,-0.6,0.0,1.0,482.0,698.0,1.0,0,-300.0,1
492,492,-0.10809767464776021,-0.1,1.0,0.0,345.0,908.0,1.0,1,-873.0,0
493,493,-0.04386026416147426,-0.0,1.0,0.0,496.0,838.0,1.0,1,-124.0,0
494,494,-0.37262213473488315,-0.4,1.0,0.0,351.0,907.0,0.0,0,1742.0,1
495,495,-0.7799507941329763,-0.8,1.0,0.0,301.0,640.0,1.0,1,1329.0,0
496,496,0.7270491330009209,0.7,1.0,1.0,442.0,963.0,1.0,1,-865.0,1
497,497,-0.6495085665701394,-0.6,1.0,0.0,468.0,962.0,1.0,1,-1250.0,0
498,498,-0.1903643027387486,-0.2,0.0,1.0,479.0,961.0,1.0,0,830.0,1
499,499,0.5914356188969477,0.6,1.0,1.0,339.0,856.0,1.0,1,1805.0,1
500,500,0.28950388834669083,0.3,1.0,1.0,306.0,512.0,1.0,1,622.0,1
501,501,0.5675384183586635,0.6,1.0,1.0,487.0,899.0,1.0,1,-1006.0,1
502,502,0.5448800857619914,0.5,0.0,0.0,271.0,696.0,1.0,0,-267.0,0
503,503,0.150805752295054,0.2,1.0,1.0,495.0,514.0,1.0,1,-189.0,1
504,504,0.6813740731857519,0.7,1.0,1.0,390.0,794.0,1.0,1,1056.0,1
505,505,0.7931172185127732,0.8,1.0,1.0,433.0,802.0,1.0,1,-805.0,1
506,506,-0.752271253212728,-0.8,1.0,0.0,451.0,891.0,1.0,1,-392.0,0
507,507,0.15347300168723865,0.2,0.0,0.0,301.0,763.0,0.0,1,1936.0,1
508,508,0.6914706156601685,0.7,0.0,0.0,281.0,594.0,0.0,1,445.0,1
509,509,-0.10908652073924918,-0.1,0.0,1.0,252.0,754.0,1.0,0,-986.0,1
510,510,-0.6480099024493851,-0.6,0.0,1.0,372.0,524.0,1.0,0,-886.0,1
511,511,-0.14077495641876336,-0.1,0.0,1.0,468.0,730.0,1.0,0,672.0,1
512,512,-0.8783045844324642,-0.9,1.0,0.0,354.0,659.0,0.0,0,1987.0,1
513,513,0.5320558898487348,0.5,1.0,1.0,451.0,700.0,1.0,1,1589.0,1
514,514,0.7357509625658097,0.7,0.0,0.0,438.0,918.0,0.0,1,594.0,1
515,515,-0.08263838736263895,-0.1,1.0,0.0,303.0,707.0,0.0,0,1990.0,1
516,516,-0.4290741006339502,-0.4,0.0,1.0,285.0,693.0,0.0,1,-288.0,0
517,517,-0.5172463884009042,-0.5,1.0,0.0,473.0,553.0,1.0,1,-196.0,0
518,518,-0.06804320505455042,-0.1,1.0,0.0,496.0,806.0,0.0,0,1698.0,1
519,519,0.34699008879129234,0.3,0.0,0.0,386.0,859.0,1.0,0,-855.0,0
520,520,-0.7354939862834358,-0.7,1.0,0.0,318.0,569.0,0.0,0,2113.0,1
521,521,0.050395973707452524,0.1,1.0,1.0,402.0,664.0,1.0,1,1934.0,1
522,522,-0.6768388698277856,-0.7,1.0,0.0,345.0,530.0,1.0,1,2125.0,0
523,523,0.16854734134705274,0.2,1.0,1.0,288.0,701.0,1.0,1,201.0,1
524,524,-0.7696147284793974,-0.8,0.0,1.0,490.0,568.0,1.0,0,-18.0,1
525,525,-0.3009097643608939,-0.3,1.0,0.0,260.0,580.0,1.0,1,2160.0,0
526,526,-0.8122339711374749,-0.8,0.0,1.0,470.0,663.0,1.0,0,1077.0,1
527,527,-0.639945578218758,-0.6,1.0,0.0,449.0,739.0,1.0,1,-288.0,0
528,528,-0.6268736808279922,-0.6,0.0,1.0,339.0,722.0,1.0,0,-61.0,1
529,529,-0.3234163299045669,-0.3,0.0,1.0,373.0,743.0,1.0,0,334.0,1
530,530,0.6108210097050147,0.6,0.0,0.0,306.0,769.0,0.0,1,625.0,1
531,531,-0.4782844594640842,-0.5,1.0,0.0,263.0,919.0,0.0,0,1158.0,1
532,532,-0.6489260232052764,-0.6,0.0,1.0,326.0,823.0,1.0,0,-739.0,1
533,533,-0.44969116551390437,-0.4,1.0,0.0,356.0,812.0,1.0,1,-1038.0,0
534,534,0.7750654908925297,0.8,0.0,0.0,466.0,780.0,0.0,1,354.0,1
535,535,0.6172175874339433,0.6,0.0,0.0,423.0,552.0,1.0,0,825.0,0
536,536,-0.5481464261388929,-0.5,0.0,1.0,434.0,661.0,0.0,1,1905.0,0
537,537,0.4655818688481629,0.5,0.0,0.0,427.0,985.0,0.0,1,898.0,1
538,538,0.21940248891712122,0.2,0.0,0.0,475.0,723.0,1.0,0,1802.0,0
539,539,-0.7450245231216791,-0.7,0.0,1.0,450.0,787.0,1.0,0,-267.0,1
540,540,-0.6246880085595496,-0.6,1.0,0.0,466.0,938.0,1.0,1,-944.0,0
541,541,-0.49808506932924085,-0.5,0.0,1.0,268.0,536.0,1.0,0,-684.0,1
542,542,0.7722680097693652,0.8,1.0,1.0,458.0,812.0,1.0,1,-660.0,1
543,543,0.45090583754308133,0.5,0.0,0.0,330.0,956.0,1.0,0,114.0,0
544,544,-0.362996525436041,-0.4,0.0,1.0,264.0,715.0,1.0,0,-789.0,1
545,545,-0.589883143218991,-0.6,1.0,0.0,436.0,970.0,1.0,1,-336.0,0
546,546,-0.383865739003182,-0.4,1.0,0.0,441.0,876.0,1.0,1,-267.0,0
547,547,-0.14136793888278143,-0.1,0.0,1.0,484.0,778.0,1.0,0,1738.0,1
548,548,0.44309905052126963,0.4,0.0,0.0,318.0,799.0,0.0,1,523.0,1
549,549,-0.761001159785647,-0.8,1.0,0.0,435.0,781.0,1.0,1,394.0,0
550,550,0.294799982951501,0.3,1.0,1.0,407.0,547.0,1.0,1,-714.0,1
551,551,-0.41139968953007516,-0.4,0.0,1.0,381.0,563.0,1.0,0,226.0,1
552,552,0.38698256291535127,0.4,1.0,1.0,292.0,556.0,1.0,1,-568.0,1
553,553,-0.7202429237708124,-0.7,0.0,1.0,435.0,629.0,0.0,1,1936.0,0
554,554,-0.899598304300236,-0.9,0.0,1.0,387.0,885.0,0.0,1,1728.0,0
555,555,-0.16053228254695096,-0.2,0.0,1.0,463.0,911.0,1.0,0,1626.0,1
556,556,-0.4059381455514746,-0.4,1.0,0.0,460.0,753.0,1.0,1,-923.0,0
557,557,0.6135708961282439,0.6,0.0,0.0,425.0,607.0,0.0,1,358.0,1
558,558,0.025764456579837502,0.0,0.0,0.0,310.0,509.0,0.0,1,2181.0,1
559,559,0.014287699102720985,0.0,0.0,0.0,407.0,668.0,1.0,0,-835.0,0
560,560,0.3023752403746892,0.3,1.0,1.0,346.0,656.0,1.0,1,-972.0,1
561,561,0.3966180709559878,0.4,0.0,0.0,292.0,744.0,0.0,1,1074.0,1
562,562,0.13426206986396416,0.1,0.0,0.0,355.0,523.0,1.0,0,-378.0,0
563,563,-0.024314781131165808,-0.0,0.0,1.0,413.0,576.0,1.0,0,-929.0,1
564,564,0.6829153811072234,0.7,0.0,0.0,254.0,824.0,1.0,0,1822.0,0
565,565,-0.5932883967695605,-0.6,1.0,0.0,284.0,849.0,1.0,1,1867.0,0
566,566,0.029980054316003812,0.0,1.0,1.0,455.0,719.0,1.0,1,-334.0,1
567,567,0.27616121466607113,0.3,0.0,0.0,421.0,740.0,1.0,0,-101.0,0
568,568,-0.44816832794563466,-0.4,1.0,0.0,455.0,765.0,1.0,1,-1170.0,0
569,569,0.5940228266408402,0.6,1.0,1.0,277.0,880.0,1.0,1,-1027.0,1
570,570,-0.10580589584267996,-0.1,1.0,0.0,378.0,570.0,1.0,1,-928.0,0
571,571,0.39674916107944413,0.4,1.0,1.0,383.0,639.0,1.0,1,-992.0,1
572,572,0.5013894980774282,0.5,1.0,1.0,373.0,622.0,1.0,1,305.0,1
573,573,0.7526490947184771,0.8,0.0,0.0,282.0,889.0,1.0,0,1109.0,0
574,574,0.1468371580462361,0.1,0.0,0.0,485.0,771.0,1.0,0,-1206.0,0
575,575,0.5614194767189838,0.6,1.0,1.0,351.0,503.0,1.0,1,-774.0,1
576,576,0.36242434719121264,0.4,0.0,0.0,405.0,578.0,1.0,0,487.0,0
577,577,-0.40698681320925895,-0.4,0.0,1.0,496.0,728.0,1.0,0,-1164.0,1
578,578,0.17143791760917215,0.2,0.0,0.0,351.0,598.0,1.0,0,1141.0,0
579,579,-0.8438148632290413,-0.8,0.0,1.0,286.0,561.0,0.0,1,2153.0,0
580,580,0.3768847487007593,0.4,1.0,1.0,315.0,933.0,1.0,1,-648.0,1
581,581,0.11714662093737116,0.1,0.0,0.0,277.0,740.0,0.0,1,1983.0,1
582,582,0.290574188114581,0.3,0.0,0.0,341.0,858.0,1.0,0,-969.0,0
583,583,0.4758493084670886,0.5,0.0,0.0,258.0,653.0,0.0,1,-331.0,1
584,584,0.8920034380951193,0.9,0.0,0.0,370.0,896.0,0.0,1,-96.0,1
585,585,-0.7670744914846581,-0.8,1.0,0.0,465.0,927.0,1.0,1,-402.0,0
586,586,0.6002777832116294,0.6,1.0,1.0,292.0,957.0,0.0,0,-1009.0,0
587,587,0.27226339680451284,0.3,1.0,1.0,306.0,884.0,1.0,1,-380.0,1
588,588,0.34199285502140675,0.3,0.0,0.0,468.0,692.0,1.0,0,-430.0,0
589,589,0.7675737308084346,0.8,0.0,0.0,473.0,832.0,1.0,0,-1265.0,0
590,590,0.2556922373522047,0.3,1.0,1.0,468.0,873.0,1.0,1,1229.0,1
591,591,-0.6159905569013562,-0.6,0.0,1.0,357.0,930.0,1.0,0,-1077.0,1
592,592,-0.10739456265285863,-0.1,0.0,1.0,264.0,669.0,1.0,0,2067.0,1
593,593,-0.18123898279068107,-0.2,1.0,0.0,400.0,880.0,1.0,1,950.0,0
594,594,-0.18547969827268895,-0.2,0.0,1.0,323.0,534.0,1.0,0,-227.0,1
595,595,-0.7113905787727823,-0.7,1.0,0.0,396.0,582.0,0.0,0,382.0,1
596,596,-0.16172470673489214,-0.2,0.0,1.0,468.0,903.0,1.0,0,269.0,1
597,597,-0.8067475353168835,-0.8,1.0,0.0,270.0,516.0,1.0,1,1364.0,0
598,598,-0.6211645753811572,-0.6,0.0,1.0,338.0,549.0,1.0,0,-767.0,1
599,599,0.5091240082343326,0.5,1.0,1.0,368.0,643.0,1.0,1,-941.0,1
600,600,0.10914841932140507,0.1,0.0,0.0,266.0,882.0,0.0,1,1852.0,1
601,601,0.8244542978702315,0.8,0.0,0.0,254.0,901.0,1.0,0,-175.0,0
602,602,-0.3783546797066156,-0.4,1.0,0.0,345.0,500.0,1.0,1,2155.0,0
603,603,-0.33926525266451224,-0.3,1.0,0.0,301.0,524.0,1.0,1,-205.0,0
604,604,0.535301253683112,0.5,1.0,1.0,495.0,790.0,1.0,1,-225.0,1
605,605,0.6370515707479049,0.6,1.0,1.0,408.0,694.0,1.0,1,528.0,1
606,606,-0.6695769974184587,-0.7,0.0,1.0,479.0,899.0,1.0,0,-648.0,1
607,607,-0.3103643582883445,-0.3,1.0,0.0,372.0,771.0,1.0,1,1297.0,0
608,608,-0.8894704868676699,-0.9,0.0,1.0,448.0,904.0,0.0,1,-452.0,0
609,609,-0.3263842808131521,-0.3,1.0,0.0,347.0,945.0,0.0,0,1708.0,1
610,610,0.14305628359660283,0.1,0.0,0.0,441.0,579.0,1.0,0,-990.0,0
611,611,0.08522512283959971,0.1,1.0,1.0,309.0,747.0,1.0,1,-926.0,1
612,612,0.16133205957042207,0.2,0.0,0.0,489.0,514.0,1.0,0,-943.0,0
613,613,0.12111287504667245,0.1,0.0,0.0,339.0,982.0,0.0,1,919.0,1
614,614,0.5346833575022133,0.5,1.0,1.0,456.0,591.0,1.0,1,853.0,1
615,615,-0.7221768990095152,-0.7,1.0,0.0,257.0,904.0,1.0,1,-881.0,0
616,616,-0.382572362888391,-0.4,0.0,1.0,451.0,774.0,0.0,1,1775.0,0
617,617,0.17343156181522879,0.2,0.0,0.0,350.0,575.0,0.0,1,2075.0,1
618,618,-0.5736079539768482,-0.6,1.0,0.0,417.0,712.0,1.0,1,-529.0,0
619,619,0.8939132731014642,0.9,1.0,1.0,269.0,601.0,1.0,1,-530.0,1
620,620,-0.19979261068664556,-0.2,0.0,1.0,340.0,829.0,1.0,0,-919.0,1
621,621,0.005106658121356689,0.0,0.0,0.0,292.0,850.0,1.0,0,-592.0,0
622,622,-0.29701769112053533,-0.3,1.0,0.0,396.0,598.0,1.0,1,2006.0,0
623,623,0.6906593258456774,0.7,0.0,0.0,301.0,817.0,0.0,1,-338.0,1
624,624,0.012128516438932313,0.0,0.0,0.0,333.0,871.0,1.0,0,-964.0,0
625,625,0.6593788008916001,0.7,0.0,0.0,373.0,680.0,1.0,0,-563.0,0
626,626,0.7772972368352727,0.8,1.0,1.0,274.0,699.0,1.0,1,187.0,1
627,627,0.654653058042784,0.7,1.0,1.0,254.0,550.0,1.0,1,-564.0,1
628,628,-0.31117591858214333,-0.3,0.0,1.0,479.0,565.0,0.0,1,1956.0,0
629,629,-0.5415329260765368,-0.5,0.0,1.0,287.0,974.0,1.0,0,1739.0,1
630,630,0.8737931041873116,0.9,1.0,1.0,442.0,752.0,1.0,1,716.0,1
631,631,0.7774864774609752,0.8,1.0,1.0,355.0,593.0,1.0,1,1242.0,1
632,632,-0.5215827355471128,-0.5,0.0,1.0,382.0,788.0,1.0,0,960.0,1
633,633,0.40891126361829866,0.4,0.0,0.0,257.0,849.0,0.0,1,1034.0,1
634,634,-0.5169737154957443,-0.5,1.0,0.0,355.0,900.0,1.0,1,-615.0,0
635,635,0.341252343380705,0.3,1.0,1.0,422.0,973.0,1.0,1,-775.0,1
636,636,0.07642306586386738,0.1,0.0,0.0,450.0,653.0,0.0,1,1897.0,1
637,637,-0.20073423154970316,-0.2,0.0,1.0,346.0,747.0,1.0,0,377.0,1
638,638,0.3986024983146764,0.4,1.0,1.0,384.0,963.0,1.0,1,513.0,1
639,639,-0.6842388867938693,-0.7,0.0,1.0,361.0,682.0,1.0,0,547.0,1
640,640,-0.5077050162586567,-0.5,0.0,1.0,322.0,767.0,0.0,1,1911.0,0
641,641,0.2595335527718702,0.3,1.0,1.0,445.0,610.0,1.0,1,-875.0,1
642,642,-0.04140814847201413,-0.0,0.0,1.0,293.0,809.0,0.0,1,1898.0,0
643,643,-0.0908417576126056,-0.1,1.0,0.0,413.0,538.0,1.0,1,-591.0,0
644,644,0.3139840522965006,0.3,0.0,0.0,281.0,576.0,1.0,0,-627.0,0
645,645,-0.49637946450478154,-0.5,0.0,1.0,423.0,702.0,1.0,0,405.0,1
646,646,-0.4955936451243425,-0.5,0.0,1.0,459.0,624.0,1.0,0,1917.0,1
647,647,-0.6139828937020013,-0.6,0.0,1.0,318.0,664.0,1.0,0,1148.0,1
648,648,0.08893388381798406,0.1,0.0,0.0,330.0,696.0,1.0,0,24.0,0
649,649,-0.8342475095971266,-0.8,0.0,1.0,279.0,857.0,0.0,1,1864.0,0
650,650,0.3877531365767485,0.4,0.0,0.0,468.0,725.0,1.0,0,-1103.0,0
651,651,-0.16072703878997285,-0.2,0.0,1.0,455.0,574.0,1.0,0,-909.0,1
652,652,0.5376479128519546,0.5,0.0,0.0,287.0,591.0,1.0,0,2122.0,0
653,653,-0.5538353185507203,-0.6,1.0,0.0,426.0,904.0,1.0,1,-780.0,0
654,654,0.8342848780615822,0.8,1.0,1.0,352.0,708.0,1.0,1,90.0,1
655,655,-0.4053877240305814,-0.4,1.0,0.0,424.0,847.0,0.0,0,1729.0,1
656,656,-0.07744444268430117,-0.1,0.0,1.0,484.0,532.0,1.0,0,-406.0,1
657,657,0.26418035867303724,0.3,1.0,1.0,282.0,632.0,0.0,0,2086.0,0
658,658,0.7027115840832744,0.7,0.0,0.0,256.0,967.0,0.0,1,607.0,1
659,659,0.4387165981879294,0.4,1.0,1.0,473.0,672.0,1.0,1,815.0,1
660,660,0.6794398522383837,0.7,0.0,0.0,421.0,962.0,0.0,1,1617.0,1
661,661,-0.7942245746538876,-0.8,0.0,1.0,498.0,731.0,1.0,0,-1199.0,1
662,662,0.7701049717361325,0.8,0.0,0.0,258.0,502.0,1.0,0,520.0,0
663,663,0.750007504624905,0.8,0.0,0.0,343.0,908.0,1.0,0,1749.0,0
664,664,-0.6328318971889995,-0.6,1.0,0.0,480.0,855.0,1.0,1,-1255.0,0
665,665,0.5230385796194498,0.5,1.0,1.0,498.0,562.0,1.0,1,330.0,1
666,666,0.1982012939561456,0.2,1.0,1.0,382.0,787.0,1.0,1,1151.0,1
667,667,0.18122796993601054,0.2,0.0,0.0,253.0,866.0,0.0,1,1881.0,1
668,668,-0.699051045149548,-0.7,0.0,1.0,420.0,693.0,0.0,1,1887.0,0
669,669,-0.2533252031952993,-0.3,0.0,1.0,324.0,607.0,1.0,0,429.0,1
670,670,0.758818197870006,0.8,1.0,1.0,453.0,727.0,1.0,1,-640.0,1
671,671,-0.5583783328457759,-0.6,1.0,0.0,465.0,922.0,1.0,1,733.0,0
672,672,-0.6098785148642103,-0.6,1.0,0.0,494.0,568.0,1.0,1,-282.0,0
673,673,0.5727142607720609,0.6,0.0,0.0,337.0,907.0,1.0,0,-854.0,0
674,674,0.32258951322157314,0.3,1.0,1.0,491.0,993.0,1.0,1,-304.0,1
675,675,0.396799954004183,0.4,1.0,1.0,438.0,796.0,0.0,0,1766.0,0
676,676,0.8785463034332458,0.9,0.0,0.0,380.0,564.0,0.0,1,806.0,1
677,677,-0.033853900110141555,-0.0,0.0,1.0,317.0,876.0,1.0,0,-153.0,1
678,678,0.2714239104628985,0.3,1.0,1.0,353.0,873.0,1.0,1,414.0,1
679,679,-0.3275423940680795,-0.3,1.0,0.0,451.0,749.0,1.0,1,530.0,0
680,680,-0.404863315466703,-0.4,0.0,1.0,432.0,652.0,1.0,0,-954.0,1
681,681,0.5943644989942739,0.6,0.0,0.0,388.0,659.0,0.0,1,1903.0,1
682,682,-0.5986724452893517,-0.6,0.0,1.0,364.0,984.0,0.0,1,-1018.0,0
683,683,-0.316262361860405,-0.3,1.0,0.0,420.0,660.0,1.0,1,-300.0,0
684,684,0.771381472508125,0.8,0.0,0.0,474.0,972.0,1.0,0,904.0,0
685,685,0.031455852933778616,0.0,0.0,0.0,422.0,782.0,1.0,0,-794.0,0
686,686,-0.3316652992447465,-0.3,0.0,1.0,359.0,542.0,1.0,0,649.0,1
687,687,-0.29428601771318574,-0.3,1.0,0.0,479.0,654.0,1.0,1,-223.0,0
688,688,-0.39492595343148207,-0.4,1.0,0.0,383.0,648.0,0.0,0,1969.0,1
689,689,-0.6955038736932837,-0.7,1.0,0.0,278.0,731.0,1.0,1,-779.0,0
690,690,-0.45440120029874365,-0.5,1.0,0.0,270.0,933.0,1.0,1,1797.0,0
691,691,-0.11215913973095559,-0.1,0.0,1.0,427.0,557.0,1.0,0,1566.0,1
692,692,0.40818188079929707,0.4,0.0,0.0,326.0,863.0,0.0,1,1811.0,1
693,693,0.3527886765189504,0.4,1.0,1.0,326.0,888.0,0.0,0,1786.0,0
694,694,0.43131622036022177,0.4,0.0,0.0,461.0,903.0,0.0,1,856.0,1
695,695,0.8545107472129984,0.9,0.0,0.0,369.0,698.0,0.0,1,503.0,1
696,696,0.04977465423957761,0.0,1.0,1.0,367.0,542.0,1.0,1,1931.0,1
697,697,-0.7403521882022737,-0.7,1.0,0.0,255.0,541.0,0.0,0,2204.0,1
698,698,0.2387825404145355,0.2,0.0,0.0,446.0,587.0,1.0,0,-433.0,0
699,699,0.602091364339895,0.6,1.0,1.0,458.0,806.0,1.0,1,-744.0,1
700,700,0.4554604904771492,0.5,1.0,1.0,366.0,734.0,1.0,1,-1080.0,1
701,701,0.06722945292116611,0.1,0.0,0.0,392.0,901.0,1.0,0,-913.0,0
702,702,-0.11763724722376778,-0.1,1.0,0.0,298.0,995.0,1.0,1,-903.0,0
703,703,-0.6814856445835713,-0.7,0.0,1.0,291.0,914.0,1.0,0,135.0,1
704,704,0.3230335479216643,0.3,1.0,1.0,407.0,864.0,1.0,1,159.0,1
705,705,-0.8332178772255325,-0.8,0.0,1.0,266.0,828.0,0.0,1,1906.0,0
706,706,0.8544996066070124,0.9,0.0,0.0,339.0,542.0,1.0,0,-1.0,0
707,707,0.23166833583626067,0.2,1.0,1.0,362.0,854.0,1.0,1,-866.0,1
708,708,0.3199014265654673,0.3,1.0,1.0,433.0,933.0,1.0,1,-1276.0,1
709,709,0.13624271705831215,0.1,1.0,1.0,443.0,684.0,1.0,1,-317.0,1
710,710,-0.23424528002458056,-0.2,1.0,0.0,307.0,536.0,1.0,1,2157.0,0
711,711,-0.3991914417281499,-0.4,1.0,0.0,360.0,515.0,1.0,1,2125.0,0
712,712,0.12238138746687632,0.1,1.0,1.0,465.0,906.0,1.0,1,-651.0,1
713,713,0.5432966703524525,0.5,0.0,0.0,425.0,955.0,1.0,0,-880.0,0
714,714,0.4604190361969399,0.5,1.0,1.0,491.0,992.0,1.0,1,-113.0,1
715,715,-0.23367822143689887,-0.2,0.0,1.0,387.0,558.0,0.0,1,255.0,0
716,716,-0.37367573118421415,-0.4,0.0,1.0,256.0,909.0,1.0,0,125.0,1
717,717,0.129374777596596,0.1,0.0,0.0,474.0,833.0,1.0,0,-1267.0,0
718,718,0.09438815595161165,0.1,1.0,1.0,490.0,615.0,1.0,1,-1035.0,1
719,719,-0.8659715461099278,-0.9,1.0,0.0,331.0,644.0,1.0,1,-535.0,0
720,720,0.514091834743804,0.5,0.0,0.0,357.0,920.0,1.0,0,-657.0,0
721,721,0.7319877078929818,0.7,1.0,1.0,411.0,920.0,1.0,1,749.0,1
722,722,-0.24804700967793636,-0.2,1.0,0.0,444.0,517.0,1.0,1,-601.0,0
723,723,0.46123953615004354,0.5,0.0,0.0,371.0,662.0,1.0,0,-653.0,0
724,724,-0.12924353951772805,-0.1,1.0,0.0,442.0,612.0,1.0,1,476.0,0
725,725,-0.5964916853195465,-0.6,0.0,1.0,394.0,528.0,1.0,0,-472.0,1
726,726,-0.6214639106860168,-0.6,0.0,1.0,380.0,529.0,1.0,0,241.0,1
727,727,0.30160816849177896,0.3,1.0,1.0,391.0,921.0,1.0,1,-302.0,1
728,728,0.6514102540323273,0.7,1.0,1.0,342.0,746.0,1.0,1,-1008.0,1
729,729,0.4097840573972028,0.4,1.0,1.0,462.0,800.0,1.0,1,1398.0,1
730,730,0.03165684019529891,0.0,0.0,0.0,431.0,521.0,1.0,0,2048.0,0
731,731,-0.18693885476704464,-0.2,0.0,1.0,428.0,737.0,0.0,1,1835.0,0
732,732,-0.2650906161831298,-0.3,1.0,0.0,481.0,983.0,1.0,1,-674.0,0
733,733,0.1709558759716282,0.2,0.0,0.0,303.0,882.0,0.0,1,775.0,1
734,734,-0.1861769618919913,-0.2,1.0,0.0,435.0,898.0,1.0,1,157.0,0
735,735,0.3997949806297584,0.4,1.0,1.0,343.0,894.0,1.0,1,1133.0,1
736,736,-0.11358404862535443,-0.1,0.0,1.0,331.0,896.0,1.0,0,-707.0,1
737,737,0.6214631217031746,0.6,1.0,1.0,260.0,788.0,1.0,1,-638.0,1
738,738,-0.40067801533041275,-0.4,0.0,1.0,406.0,907.0,1.0,0,177.0,1
739,739,0.4493820336160518,0.4,1.0,1.0,272.0,828.0,1.0,1,-940.0,1
740,740,-0.897363703456134,-0.9,0.0,1.0,299.0,880.0,1.0,0,-869.0,1
741,741,-0.15480049301674015,-0.2,1.0,0.0,300.0,795.0,1.0,1,-405.0,0
742,742,0.5777460277941432,0.6,0.0,0.0,356.0,699.0,0.0,1,835.0,1
743,743,-0.16985981436102404,-0.2,0.0,1.0,475.0,790.0,1.0,0,-835.0,1
744,744,-0.5792088235555486,-0.6,0.0,1.0,429.0,952.0,1.0,0,-1001.0,1
745,745,-0.5279262673477932,-0.5,0.0,1.0,470.0,658.0,0.0,1,1872.0,0
746,746,-0.6191972911065085,-0.6,1.0,0.0,274.0,891.0,1.0,1,1835.0,0
747,747,0.5832939929304203,0.6,0.0,0.0,355.0,614.0,1.0,0,2031.0,0
748,748,0.8922825896854728,0.9,1.0,1.0,440.0,796.0,1.0,1,564.0,1
749,749,0.11143696055700703,0.1,0.0,0.0,355.0,846.0,0.0,1,739.0,1
750,750,0.37605700000754105,0.4,1.0,1.0,261.0,717.0,1.0,1,872.0,1
751,751,-0.4140797268085418,-0.4,1.0,0.0,379.0,881.0,0.0,0,1740.0,1
752,752,-0.5102908319151254,-0.5,1.0,0.0,434.0,601.0,0.0,0,1965.0,1
753,753,-0.16903205642767138,-0.2,1.0,0.0,304.0,786.0,0.0,0,1910.0,1
754,754,0.5236511334903117,0.5,1.0,1.0,442.0,524.0,1.0,1,74.0,1
755,755,-0.013253164892848113,-0.0,0.0,1.0,445.0,965.0,1.0,0,-1290.0,1
756,756,-0.7802522331639294,-0.8,0.0,1.0,297.0,652.0,1.0,0,-59.0,1
757,757,0.39327876486889657,0.4,1.0,1.0,373.0,866.0,1.0,1,-889.0,1
758,758,-0.11667286150784162,-0.1,0.0,1.0,334.0,517.0,1.0,0,2149.0,1
759,759,0.33336840266613954,0.3,0.0,0.0,274.0,661.0,1.0,0,-305.0,0
760,760,0.5861675132913028,0.6,0.0,0.0,490.0,504.0,0.0,1,16.0,1
761,761,-0.6175401258969764,-0.6,0.0,1.0,333.0,818.0,1.0,0,-591.0,1
762,762,0.7884673691542347,0.8,0.0,0.0,475.0,998.0,1.0,0,-1253.0,0
763,763,-0.5889775185840098,-0.6,1.0,0.0,250.0,632.0,0.0,0,2118.0,1
764,764,-0.3870065806223658,-0.4,1.0,0.0,496.0,923.0,1.0,1,-1419.0,0
765,765,-0.4240716911601889,-0.4,1.0,0.0,340.0,617.0,1.0,1,573.0,0
766,766,0.6892274731002604,0.7,0.0,0.0,492.0,820.0,1.0,0,-362.0,0
767,767,0.013477744608827558,0.0,1.0,1.0,324.0,928.0,0.0,0,1748.0,0
768,768,-0.2816624095754281,-0.3,0.0,1.0,300.0,916.0,1.0,0,-76.0,1
769,769,0.5279641247592303,0.5,0.0,0.0,265.0,520.0,1.0,0,-315.0,0
770,770,0.6815556680942526,0.7,0.0,0.0,301.0,826.0,1.0,0,-527.0,0
771,771,-0.8753927890949137,-0.9,1.0,0.0,297.0,722.0,0.0,0,1981.0,1
772,772,0.8073933768281071,0.8,0.0,0.0,264.0,917.0,0.0,1,649.0,1
773,773,0.5692199518902564,0.6,0.0,0.0,335.0,849.0,1.0,0,556.0,0
774,774,-0.49865864297879886,-0.5,1.0,0.0,389.0,508.0,1.0,1,2103.0,0
775,775,-0.64106942159053,-0.6,0.0,1.0,334.0,500.0,1.0,0,-304.0,1
776,776,-0.6120611844444594,-0.6,1.0,0.0,357.0,798.0,1.0,1,-195.0,0
777,777,-0.053097829019754794,-0.1,1.0,0.0,302.0,559.0,1.0,1,-531.0,0
778,778,0.8668241175251371,0.9,0.0,0.0,358.0,551.0,1.0,0,-159.0,0
779,779,0.864395863166067,0.9,1.0,1.0,342.0,662.0,1.0,1,-44.0,1
780,780,0.09999353625492491,0.1,0.0,0.0,338.0,856.0,0.0,1,1806.0,1
781,781,0.5545307383342316,0.6,0.0,0.0,450.0,949.0,1.0,0,-1399.0,0
782,782,-0.4497697335010466,-0.4,0.0,1.0,366.0,910.0,1.0,0,-1226.0,1
783,783,-0.23890935807167246,-0.2,1.0,0.0,456.0,813.0,0.0,0,1731.0,1
784,784,0.06060146585700965,0.1,1.0,1.0,458.0,597.0,1.0,1,-415.0,1
785,785,-0.4305810640770649,-0.4,0.0,1.0,454.0,953.0,0.0,1,1273.0,0
786,786,0.011222405289457726,0.0,1.0,1.0,399.0,845.0,1.0,1,-204.0,1
787,787,0.35160812425576393,0.4,0.0,0.0,314.0,584.0,1.0,0,1922.0,0
788,788,-0.49955820227408004,-0.5,1.0,0.0,401.0,729.0,1.0,1,-640.0,0
789,789,-0.060123666235171624,-0.1,1.0,0.0,471.0,763.0,1.0,1,606.0,0
790,790,0.24351732388508884,0.2,1.0,1.0,343.0,834.0,1.0,1,1823.0,1
791,791,-0.6768877965955113,-0.7,0.0,1.0,266.0,595.0,0.0,1,2139.0,0
792,792,-0.04826762264569884,-0.0,0.0,1.0,395.0,533.0,1.0,0,432.0,1
793,793,-0.791041920933153,-0.8,1.0,0.0,257.0,679.0,1.0,1,914.0,0
794,794,-0.2965223821351898,-0.3,1.0,0.0,283.0,799.0,1.0,1,-982.0,0
795,795,0.07852162128313978,0.1,0.0,0.0,288.0,887.0,0.0,1,1825.0,1
796,796,0.886258345254166,0.9,0.0,0.0,391.0,512.0,0.0,1,367.0,1
797,797,0.08774879280000691,0.1,0.0,0.0,290.0,561.0,0.0,1,2149.0,1
798,798,-0.7266710810030969,-0.7,1.0,0.0,364.0,928.0,1.0,1,-832.0,0
799,799,0.4315849377250903,0.4,0.0,0.0,383.0,674.0,1.0,0,1943.0,0
800,800,-0.7169303522849929,-0.7,1.0,0.0,457.0,995.0,1.0,1,-1152.0,0
801,801,-0.26533548580417776,-0.3,0.0,1.0,301.0,935.0,1.0,0,-186.0,1
802,802,-0.21277644256613182,-0.2,1.0,0.0,492.0,816.0,1.0,1,-178.0,0
803,803,-0.252487152900286,-0.3,1.0,0.0,395.0,829.0,1.0,1,1776.0,0
804,804,0.18500470839345817,0.2,1.0,1.0,361.0,657.0,1.0,1,-538.0,1
805,805,0.3691251050338801,0.4,0.0,0.0,293.0,743.0,0.0,1,1364.0,1
806,806,-0.6158844148356071,-0.6,0.0,1.0,366.0,526.0,1.0,0,638.0,1
807,807,-0.46814629544399766,-0.5,1.0,0.0,380.0,620.0,1.0,1,10.0,0
808,808,0.06384146947322622,0.1,0.0,0.0,298.0,528.0,1.0,0,1784.0,0
809,809,-0.0792758372435367,-0.1,0.0,1.0,346.0,525.0,1.0,0,-421.0,1
810,810,0.5496427209693574,0.5,0.0,0.0,263.0,984.0,0.0,1,743.0,1
811,811,0.12822567216840441,0.1,1.0,1.0,420.0,958.0,1.0,1,1622.0,1
812,812,0.29636466251677784,0.3,0.0,0.0,320.0,762.0,1.0,0,-22.0,0
813,813,-0.08309016179904671,-0.1,0.0,1.0,354.0,968.0,1.0,0,-1232.0,1
814,814,-0.2862890430955878,-0.3,0.0,1.0,270.0,854.0,0.0,1,1876.0,0
815,815,-0.47890660333519613,-0.5,0.0,1.0,405.0,776.0,1.0,0,-101.0,1
816,816,-0.1674161228457346,-0.2,1.0,0.0,436.0,596.0,1.0,1,-422.0,0
817,817,0.4199789106732056,0.4,1.0,1.0,419.0,940.0,1.0,1,-689.0,1
818,818,0.8914942235962305,0.9,0.0,0.0,308.0,956.0,0.0,1,-364.0,1
819,819,0.6668489118592512,0.7,1.0,1.0,372.0,802.0,1.0,1,1186.0,1
820,820,-0.061252531320695414,-0.1,0.0,1.0,254.0,632.0,1.0,0,-656.0,1
821,821,-0.2633816871616732,-0.3,0.0,1.0,386.0,572.0,0.0,1,2042.0,0
822,822,-0.6041767844259769,-0.6,0.0,1.0,306.0,923.0,1.0,0,-1169.0,1
823,823,-0.32426662077120005,-0.3,0.0,1.0,272.0,683.0,1.0,0,-35.0,1
824,824,0.418274199199265,0.4,1.0,1.0,250.0,599.0,1.0,1,161.0,1
825,825,0.4802934795166426,0.5,1.0,1.0,396.0,611.0,1.0,1,-797.0,1
826,826,-0.010988416254437916,-0.0,0.0,1.0,292.0,719.0,1.0,0,-851.0,1
827,827,-0.4407072571270905,-0.4,1.0,0.0,468.0,616.0,1.0,1,-974.0,0
828,828,0.2856401176950233,0.3,0.0,0.0,253.0,823.0,1.0,0,-116.0,0
829,829,0.4602695385800927,0.5,1.0,1.0,325.0,827.0,1.0,1,638.0,1
830,830,-0.5625740878759815,-0.6,0.0,1.0,455.0,706.0,0.0,1,1839.0,0
831,831,-0.21003001346223815,-0.2,0.0,1.0,388.0,709.0,1.0,0,1163.0,1
832,832,0.167721074459671,0.2,0.0,0.0,346.0,959.0,1.0,0,1695.0,0
833,833,0.2610813764528287,0.3,1.0,1.0,360.0,607.0,1.0,1,-787.0,1
834,834,0.1724084142378145,0.2,1.0,1.0,422.0,613.0,1.0,1,1535.0,1
835,835,0.45924574097922577,0.5,0.0,0.0,379.0,611.0,0.0,1,-30.0,1
836,836,-0.32616986306298223,-0.3,0.0,1.0,387.0,810.0,0.0,1,1803.0,0
837,837,0.30184757016355157,0.3,0.0,0.0,313.0,627.0,1.0,0,1670.0,0
838,838,0.619336271922246,0.6,1.0,1.0,288.0,945.0,1.0,1,227.0,1
839,839,0.06229437142416083,0.1,1.0,1.0,443.0,970.0,1.0,1,1587.0,1
840,840,0.21954822101820348,0.2,0.0,0.0,409.0,839.0,1.0,0,662.0,0
841,841,0.182151145830607,0.2,1.0,1.0,332.0,635.0,1.0,1,893.0,1
842,842,0.3694212869789847,0.4,1.0,1.0,306.0,640.0,0.0,0,2054.0,0
843,843,-0.3502822601455565,-0.4,1.0,0.0,326.0,589.0,1.0,1,2085.0,0
844,844,0.08497970188238957,0.1,1.0,1.0,368.0,539.0,1.0,1,1013.0,1
845,845,0.8975960474455139,0.9,0.0,0.0,438.0,837.0,0.0,1,595.0,1
846,846,-0.4963082301489983,-0.5,1.0,0.0,269.0,644.0,1.0,1,787.0,0
847,847,0.0896090627736128,0.1,1.0,1.0,455.0,531.0,1.0,1,-546.0,1
848,848,-0.5327828303732961,-0.5,1.0,0.0,303.0,649.0,1.0,1,1378.0,0
849,849,-0.8428174341922064,-0.8,0.0,1.0,276.0,893.0,1.0,0,-939.0,1
850,850,0.7460400678955518,0.7,1.0,1.0,484.0,965.0,1.0,1,-1159.0,1
851,851,0.10784594093319166,0.1,1.0,1.0,351.0,831.0,0.0,0,1818.0,0
852,852,-0.7099584613209616,-0.7,1.0,0.0,336.0,704.0,0.0,0,1960.0,1
853,853,0.8536211072954015,0.9,1.0,1.0,313.0,664.0,1.0,1,-537.0,1
854,854,-0.3953433523082692,-0.4,1.0,0.0,331.0,534.0,1.0,1,445.0,0
855,855,0.43544315299615255,0.4,1.0,1.0,397.0,955.0,1.0,1,-22.0,1
856,856,0.7464796109975588,0.7,0.0,0.0,378.0,771.0,0.0,1,1431.0,1
857,857,-0.7718233519353969,-0.8,1.0,0.0,342.0,669.0,1.0,1,-791.0,0
858,858,0.18115560801317143,0.2,0.0,0.0,366.0,901.0,1.0,0,-967.0,0
859,859,0.1878258703740291,0.2,0.0,0.0,279.0,693.0,1.0,0,-452.0,0
860,860,0.05165256367160165,0.1,0.0,0.0,409.0,821.0,1.0,0,120.0,0
861,861,0.6882463880209516,0.7,1.0,1.0,319.0,876.0,1.0,1,1465.0,1
862,862,-0.6360240078792175,-0.6,1.0,0.0,480.0,823.0,1.0,1,1697.0,0
863,863,0.13784679481150353,0.1,0.0,0.0,453.0,567.0,0.0,1,360.0,1
864,864,-0.09248610450366834,-0.1,0.0,1.0,497.0,927.0,1.0,0,-314.0,1
865,865,0.18471157494444135,0.2,1.0,1.0,275.0,900.0,1.0,1,-595.0,1
866,866,0.6911082081332288,0.7,1.0,1.0,350.0,609.0,1.0,1,-869.0,1
867,867,-0.752804788100738,-0.8,1.0,0.0,485.0,642.0,0.0,0,1873.0,1
868,868,-0.37710030195063515,-0.4,0.0,1.0,345.0,609.0,1.0,0,-564.0,1
869,869,-0.35483592399334973,-0.4,1.0,0.0,466.0,829.0,1.0,1,-1115.0,0
870,870,-0.01942824910855756,-0.0,1.0,0.0,431.0,685.0,1.0,1,-596.0,0
871,871,-0.5590401340660398,-0.6,0.0,1.0,337.0,924.0,0.0,1,1739.0,0
872,872,-0.8454778842519516,-0.8,0.0,1.0,288.0,945.0,1.0,0,1087.0,1
873,873,-0.17641169289494762,-0.2,1.0,0.0,268.0,514.0,1.0,1,-332.0,0
874,874,-0.2163962631204156,-0.2,1.0,0.0,406.0,776.0,1.0,1,-312.0,0
875,875,-0.7392103891978685,-0.7,1.0,0.0,269.0,577.0,1.0,1,2154.0,0
876,876,-0.24084007722107037,-0.2,0.0,1.0,479.0,966.0,1.0,0,-505.0,1
877,877,0.1764947272673002,0.2,0.0,0.0,310.0,988.0,0.0,1,-628.0,1
878,878,0.3987962590877764,0.4,1.0,1.0,274.0,665.0,1.0,1,651.0,1
879,879,0.801384294540675,0.8,1.0,1.0,302.0,619.0,1.0,1,-751.0,1
880,880,0.25941354152959895,0.3,0.0,0.0,368.0,837.0,0.0,1,935.0,1
881,881,0.1267744315084779,0.1,0.0,0.0,333.0,815.0,0.0,1,1852.0,1
882,882,-0.3339263907353357,-0.3,1.0,0.0,435.0,698.0,1.0,1,-473.0,0
883,883,0.6636043229588845,0.7,0.0,0.0,276.0,611.0,1.0,0,-617.0,0
884,884,-0.08764058138040742,-0.1,1.0,0.0,440.0,573.0,1.0,1,1987.0,0
885,885,0.5837132550963994,0.6,0.0,0.0,448.0,685.0,0.0,1,657.0,1
886,886,-0.20498556128480216,-0.2,0.0,1.0,327.0,691.0,0.0,1,1982.0,0
887,887,0.49809256843428285,0.5,1.0,1.0,326.0,907.0,1.0,1,-1143.0,1
888,888,0.6209929723611093,0.6,0.0,0.0,400.0,721.0,1.0,0,-1111.0,0
889,889,-0.358749461172857,-0.4,1.0,0.0,288.0,831.0,1.0,1,1301.0,0
890,890,-0.78972387915329,-0.8,1.0,0.0,354.0,826.0,1.0,1,-370.0,0
891,891,0.6284127414508746,0.6,1.0,1.0,295.0,859.0,1.0,1,376.0,1
892,892,-0.09765884558355187,-0.1,1.0,0.0,257.0,706.0,1.0,1,1397.0,0
893,893,-0.3071146580586318,-0.3,1.0,0.0,378.0,887.0,1.0,1,-1185.0,0
894,894,-0.36426048103763775,-0.4,1.0,0.0,321.0,593.0,1.0,1,2086.0,0
895,895,-0.7328522522333074,-0.7,0.0,1.0,464.0,855.0,0.0,1,1681.0,0
896,896,0.882450297875304,0.9,0.0,0.0,314.0,822.0,0.0,1,-76.0,1
897,897,-0.49189377021843333,-0.5,0.0,1.0,363.0,612.0,1.0,0,305.0,1
898,898,0.8842963473496769,0.9,0.0,0.0,315.0,569.0,1.0,0,136.0,0
899,899,0.6556555958946487,0.7,0.0,0.0,337.0,967.0,0.0,1,1216.0,1
900,900,0.061034445698185946,0.1,0.0,0.0,308.0,718.0,1.0,0,1574.0,0
901,901,-0.5620175412061712,-0.6,1.0,0.0,429.0,521.0,0.0,0,2050.0,1
902,902,-0.5554030382139561,-0.6,1.0,0.0,290.0,699.0,0.0,0,2011.0,1
903,903,-0.2942326691948507,-0.3,1.0,0.0,350.0,835.0,1.0,1,45.0,0
904,904,-0.02354149298395103,-0.0,0.0,1.0,464.0,936.0,1.0,0,-330.0,1
905,905,-0.6953783376162268,-0.7,0.0,1.0,359.0,577.0,1.0,0,2064.0,1
906,906,-0.07514789269493927,-0.1,0.0,1.0,463.0,616.0,1.0,0,-979.0,1
907,907,0.4706888591105439,0.5,1.0,1.0,498.0,921.0,1.0,1,-1419.0,1
908,908,-0.028487309827083362,-0.0,1.0,0.0,265.0,576.0,1.0,1,-241.0,0
909,909,0.595617105177973,0.6,0.0,0.0,354.0,534.0,0.0,1,442.0,1
910,910,0.1933085954627477,0.2,1.0,1.0,464.0,608.0,1.0,1,-362.0,1
911,911,0.18119404154449514,0.2,0.0,0.0,376.0,913.0,1.0,0,61.0,0
912,912,-0.5813574037006961,-0.6,0.0,1.0,278.0,656.0,0.0,1,2066.0,0
913,913,0.5004738762014612,0.5,1.0,1.0,461.0,551.0,1.0,1,-1002.0,1
914,914,0.6197176910994754,0.6,1.0,1.0,467.0,648.0,1.0,1,-215.0,1
915,915,0.5488763133410811,0.5,1.0,1.0,339.0,735.0,1.0,1,966.0,1
916,916,-0.3784339208934573,-0.4,1.0,0.0,467.0,523.0,1.0,1,-550.0,0
917,917,-0.16892111565060486,-0.2,0.0,1.0,390.0,894.0,1.0,0,136.0,1
918,918,-0.01181223289799438,-0.0,1.0,0.0,250.0,612.0,1.0,1,-362.0,0
919,919,0.6915483816269995,0.7,0.0,0.0,393.0,593.0,1.0,0,-576.0,0
920,920,0.22709417049865321,0.2,0.0,0.0,389.0,753.0,1.0,0,508.0,0
921,921,0.5682528139798716,0.6,0.0,0.0,450.0,743.0,1.0,0,-883.0,0
922,922,0.18111211981984365,0.2,1.0,1.0,311.0,807.0,1.0,1,1882.0,1
923,923,-0.6634877216271338,-0.7,0.0,1.0,428.0,878.0,1.0,0,-1016.0,1
924,924,-0.14721778697305776,-0.1,0.0,1.0,317.0,873.0,1.0,0,-970.0,1
925,925,0.8549234035428447,0.9,0.0,0.0,345.0,967.0,1.0,0,-902.0,0
926,926,0.38510396274527425,0.4,1.0,1.0,472.0,565.0,1.0,1,-547.0,1
927,927,0.15335967951122875,0.2,0.0,0.0,354.0,824.0,1.0,0,-608.0,0
928,928,-0.17074081691750154,-0.2,0.0,1.0,378.0,962.0,1.0,0,240.0,1
929,929,0.3943378566317187,0.4,1.0,1.0,276.0,542.0,1.0,1,-338.0,1
930,930,0.4129695028431434,0.4,0.0,0.0,452.0,788.0,1.0,0,-710.0,0
931,931,0.2111814445552923,0.2,1.0,1.0,447.0,747.0,1.0,1,306.0,1
932,932,-0.21937470384599322,-0.2,1.0,0.0,372.0,831.0,1.0,1,1787.0,0
933,933,0.1792683755488732,0.2,1.0,1.0,487.0,515.0,1.0,1,238.0,1
934,934,0.252697722588601,0.3,1.0,1.0,261.0,921.0,1.0,1,1078.0,1
935,935,0.8324913324358224,0.8,0.0,0.0,304.0,647.0,1.0,0,39.0,0
936,936,-0.8406787389868856,-0.8,0.0,1.0,304.0,650.0,1.0,0,-934.0,1
937,937,-0.4714459422212089,-0.5,0.0,1.0,457.0,814.0,1.0,0,-861.0,1
938,938,0.541117996873795,0.5,0.0,0.0,370.0,986.0,1.0,0,-616.0,0
939,939,0.2616824785238753,0.3,0.0,0.0,351.0,811.0,1.0,0,-382.0,0
940,940,0.11670251621918137,0.1,1.0,1.0,281.0,699.0,1.0,1,-300.0,1
941,941,-0.7661044658511742,-0.8,0.0,1.0,335.0,700.0,1.0,0,-685.0,1
942,942,-0.08524963502514904,-0.1,1.0,0.0,261.0,553.0,1.0,1,-24.0,0
943,943,-0.33275518712818664,-0.3,1.0,0.0,431.0,507.0,1.0,1,-768.0,0
944,944,0.48752328139533996,0.5,1.0,1.0,405.0,582.0,0.0,0,2013.0,0
945,945,0.7589050957997879,0.8,0.0,0.0,493.0,796.0,1.0,0,-1079.0,0
946,946,0.5750795424213723,0.6,1.0,1.0,310.0,905.0,1.0,1,675.0,1
947,947,-0.15273089862697065,-0.2,1.0,0.0,417.0,899.0,1.0,1,-866.0,0
948,948,-0.15194907130128954,-0.2,1.0,0.0,391.0,560.0,1.0,1,2049.0,0
949,949,0.8347122944896527,0.8,0.0,0.0,257.0,701.0,1.0,0,102.0,0
950,950,0.8303862712343036,0.8,0.0,0.0,492.0,687.0,1.0,0,-739.0,0
951,951,0.678033849640496,0.7,1.0,1.0,299.0,978.0,1.0,1,-1137.0,1
952,952,0.3432996893648289,0.3,1.0,1.0,335.0,624.0,1.0,1,-699.0,1
953,953,0.6778401059330109,0.7,1.0,1.0,415.0,651.0,1.0,1,1304.0,1
954,954,-0.07661810369913302,-0.1,1.0,0.0,442.0,762.0,1.0,1,1506.0,0
955,955,-0.6591459969031761,-0.7,0.0,1.0,444.0,668.0,1.0,0,-432.0,1
956,956,0.3683794273702873,0.4,0.0,0.0,397.0,809.0,1.0,0,-1146.0,0
957,957,0.8712394317154267,0.9,1.0,1.0,280.0,531.0,1.0,1,469.0,1
958,958,0.73732223928083,0.7,1.0,1.0,404.0,597.0,1.0,1,1929.0,1
959,959,-0.8003710894072914,-0.8,0.0,1.0,338.0,964.0,1.0,0,888.0,1
960,960,0.0702104707834793,0.1,0.0,0.0,287.0,582.0,1.0,0,-649.0,0
961,961,0.4440493036154437,0.4,1.0,1.0,350.0,936.0,1.0,1,1404.0,1
962,962,0.35361285337735004,0.4,0.0,0.0,480.0,971.0,0.0,1,-801.0,1
963,963,0.09491589425273761,0.1,1.0,1.0,451.0,836.0,1.0,1,-1077.0,1
964,964,-0.2014553147894973,-0.2,0.0,1.0,299.0,602.0,1.0,0,-611.0,1
965,965,0.04925999942503112,0.0,1.0,1.0,311.0,869.0,1.0,1,-1180.0,1
966,966,-0.46969660915993705,-0.5,1.0,0.0,484.0,873.0,0.0,0,1643.0,1
967,967,0.3523462727017467,0.4,1.0,1.0,479.0,923.0,1.0,1,-1092.0,1
968,968,0.35855410439031765,0.4,1.0,1.0,455.0,987.0,1.0,1,-382.0,1
969,969,-0.12298214290956555,-0.1,1.0,0.0,285.0,540.0,1.0,1,385.0,0
970,970,-0.3434116566614216,-0.3,1.0,0.0,376.0,847.0,1.0,1,-403.0,0
971,971,-0.23785920926394966,-0.2,1.0,0.0,457.0,822.0,0.0,0,1721.0,1
972,972,-0.35276629473948806,-0.4,1.0,0.0,353.0,820.0,1.0,1,-1143.0,0
973,973,0.18353261183716374,0.2,0.0,0.0,410.0,890.0,1.0,0,-290.0,0
974,974,0.3699506608786255,0.4,1.0,1.0,405.0,772.0,1.0,1,-197.0,1
975,975,0.4110831267298948,0.4,1.0,1.0,469.0,601.0,1.0,1,1190.0,1
976,976,0.16076495664497414,0.2,1.0,1.0,266.0,588.0,1.0,1,1676.0,1
977,977,0.85331928243875,0.9,1.0,1.0,265.0,547.0,1.0,1,868.0,1
978,978,0.30417071443787613,0.3,1.0,1.0,251.0,838.0,1.0,1,-1029.0,1
979,979,0.5577413864608282,0.6,0.0,0.0,427.0,605.0,0.0,1,1968.0,1
980,980,-0.8946025217421113,-0.9,1.0,0.0,367.0,532.0,0.0,0,2101.0,1
981,981,-0.5783446897156972,-0.6,1.0,0.0,401.0,732.0,0.0,0,1867.0,1
982,982,0.6735521373011407,0.7,0.0,0.0,472.0,924.0,0.0,1,-6.0,1
983,983,0.23446310462182163,0.2,1.0,1.0,352.0,609.0,1.0,1,-881.0,1
984,984,0.2427028908073544,0.2,1.0,1.0,290.0,741.0,1.0,1,-671.0,1
985,985,0.11435835982089537,0.1,1.0,1.0,400.0,518.0,0.0,0,2082.0,0
986,986,-0.27394147460914064,-0.3,1.0,0.0,394.0,726.0,1.0,1,-490.0,0
987,987,-0.5606799603070252,-0.6,0.0,1.0,412.0,508.0,1.0,0,-300.0,1
988,988,-0.7681342490399525,-0.8,1.0,0.0,434.0,951.0,1.0,1,1615.0,0
989,989,0.8524204348050365,0.9,1.0,1.0,414.0,934.0,1.0,1,-98.0,1
990,990,0.6315239897402672,0.6,0.0,0.0,479.0,590.0,1.0,0,-679.0,0
991,991,-0.6707332651311289,-0.7,0.0,1.0,402.0,564.0,1.0,0,2034.0,1
992,992,0.46754937724395573,0.5,0.0,0.0,483.0,771.0,0.0,1,166.0,1
993,993,-0.3447080914546019,-0.3,1.0,0.0,417.0,770.0,0.0,0,1813.0,1
994,994,-0.04629311201464892,-0.0,0.0,1.0,492.0,803.0,1.0,0,-435.0,1
995,995,0.08230074245422025,0.1,1.0,1.0,326.0,794.0,0.0,0,1880.0,0
996,996,0.39952783337876674,0.4,0.0,0.0,429.0,984.0,1.0,0,-863.0,0
997,997,-0.5089787779826644,-0.5,0.0,1.0,356.0,569.0,1.0,0,365.0,1
998,998,-0.03683918835490263,-0.0,1.0,0.0,384.0,555.0,1.0,1,321.0,0
999,999,-0.5766984958267743,-0.6,0.0,1.0,297.0,861.0,0.0,1,1842.0,0
1000,1000,0.480191738890959,0.5,1.0,1.0,385.0,934.0,1.0,1,-1299.0,1
1001,1001,-0.6902906448283952,-0.7,1.0,0.0,256.0,666.0,1.0,1,48.0,0
1002,1002,0.03955327373344886,0.0,0.0,0.0,450.0,841.0,1.0,0,-1171.0,0
1003,1003,0.22637845042012394,0.2,0.0,0.0,397.0,972.0,1.0,0,-1339.0,0
1004,1004,-0.4304231234046348,-0.4,0.0,1.0,397.0,504.0,1.0,0,-751.0,1
1005,1005,0.2936285247649483,0.3,0.0,0.0,385.0,587.0,1.0,0,1438.0,0
1006,1006,0.056645457447612735,0.1,1.0,1.0,452.0,674.0,1.0,1,1874.0,1
1007,1007,-0.5115371710659424,-0.5,1.0,0.0,288.0,815.0,1.0,1,-583.0,0
1008,1008,-0.7861083959777175,-0.8,0.0,1.0,285.0,751.0,1.0,0,-456.0,1
1009,1009,0.22060669644457132,0.2,1.0,1.0,484.0,735.0,1.0,1,-329.0,1
1010,1010,0.4547901367790058,0.5,1.0,1.0,497.0,741.0,1.0,1,512.0,1
1011,1011,-0.05022152386323331,-0.1,0.0,1.0,369.0,916.0,1.0,0,-1185.0,1
1012,1012,-0.23398940395998635,-0.2,0.0,1.0,262.0,534.0,1.0,0,1104.0,1
1013,1013,-0.405781609740468,-0.4,0.0,1.0,378.0,605.0,1.0,0,1017.0,1
1014,1014,-0.04309370997808326,-0.0,0.0,1.0,404.0,643.0,0.0,1,1953.0,0
1015,1015,-0.6302260455364495,-0.6,0.0,1.0,311.0,766.0,1.0,0,1683.0,1
1016,1016,0.6539861931823291,0.7,0.0,0.0,402.0,720.0,0.0,1,788.0,1
1017,1017,0.6851610948172647,0.7,1.0,1.0,359.0,629.0,1.0,1,122.0,1
1018,1018,-0.07684754260733895,-0.1,1.0,0.0,370.0,880.0,1.0,1,-960.0,0
1019,1019,0.02629843175956692,0.0,0.0,0.0,432.0,764.0,0.0,1,1804.0,1
1020,1020,-0.21459000456214583,-0.2,0.0,1.0,265.0,657.0,1.0,0,-152.0,1
1021,1021,-0.6434899585456879,-0.6,1.0,0.0,417.0,632.0,0.0,0,1951.0,1
1022,1022,0.2141895955919627,0.2,1.0,1.0,296.0,586.0,1.0,1,88.0,1
1023,1023,0.17756921718427565,0.2,1.0,1.0,288.0,790.0,1.0,1,302.0,1
1024,1024,0.7842627645863757,0.8,1.0,1.0,498.0,608.0,1.0,1,-1016.0,1
1025,1025,0.03472402172142497,0.0,1.0,1.0,310.0,509.0,1.0,1,261.0,1
1026,1026,-0.14582531737062188,-0.1,1.0,0.0,284.0,602.0,1.0,1,1744.0,0
1027,1027,-0.8441373528205401,-0.8,1.0,0.0,256.0,710.0,1.0,1,-516.0,0
1028,1028,0.6237659226770199,0.6,1.0,1.0,433.0,604.0,1.0,1,1233.0,1
1029,1029,-0.8113407278672282,-0.8,1.0,0.0,261.0,643.0,1.0,1,2096.0,0
1030,1030,0.5890600857427307,0.6,1.0,1.0,279.0,757.0,1.0,1,-676.0,1
1031,1031,0.40553430087049713,0.4,0.0,0.0,481.0,648.0,0.0,1,1871.0,1
1032,1032,-0.7559796801323296,-0.8,1.0,0.0,322.0,676.0,1.0,1,632.0,0
1033,1033,0.283358826370829,0.3,1.0,1.0,419.0,833.0,1.0,1,-352.0,1
1034,1034,0.6179924825725708,0.6,0.0,0.0,424.0,922.0,1.0,0,-16.0,0
1035,1035,0.05115258246013965,0.1,1.0,1.0,480.0,556.0,0.0,0,1964.0,0
1036,1036,0.78333143692232,0.8,1.0,1.0,314.0,727.0,1.0,1,-651.0,1
1037,1037,0.0082774397153762,0.0,0.0,0.0,370.0,780.0,1.0,0,-920.0,0
1038,1038,-0.3364837660301818,-0.3,1.0,0.0,326.0,666.0,1.0,1,-742.0,0
1039,1039,-0.08661489780002662,-0.1,0.0,1.0,279.0,649.0,1.0,0,-78.0,1
1040,1040,0.520885420494218,0.5,0.0,0.0,491.0,923.0,0.0,1,656.0,1
1041,1041,-0.09165107689093632,-0.1,1.0,0.0,362.0,842.0,1.0,1,706.0,0
1042,1042,-0.14235389746850102,-0.1,1.0,0.0,256.0,682.0,1.0,1,-538.0,0
1043,1043,-0.8098745857824639,-0.8,1.0,0.0,350.0,762.0,1.0,1,-282.0,0
1044,1044,0.8157680204383998,0.8,1.0,1.0,314.0,856.0,1.0,1,190.0,1
1045,1045,-0.3659039722216242,-0.4,1.0,0.0,279.0,832.0,1.0,1,-611.0,0
1046,1046,-0.2439510819594063,-0.2,0.0,1.0,280.0,919.0,1.0,0,1151.0,1
1047,1047,0.1421092025131495,0.1,0.0,0.0,371.0,626.0,1.0,0,-897.0,0
1048,1048,-0.30139910580782725,-0.3,1.0,0.0,400.0,527.0,1.0,1,223.0,0
1049,1049,0.4331199632695807,0.4,1.0,1.0,437.0,800.0,1.0,1,-1127.0,1
1050,1050,0.8930265322234768,0.9,1.0,1.0,266.0,914.0,1.0,1,290.0,1
1051,1051,-0.31480798540893984,-0.3,1.0,0.0,408.0,807.0,1.0,1,145.0,0
1052,1052,0.12925319825021442,0.1,1.0,1.0,281.0,864.0,1.0,1,-945.0,1
1053,1053,0.3516124211179338,0.4,0.0,0.0,332.0,992.0,1.0,0,-1264.0,0
1054,1054,-0.22884152525415713,-0.2,0.0,1.0,403.0,702.0,1.0,0,-815.0,1
1055,1055,0.8630798630751574,0.9,0.0,0.0,380.0,699.0,0.0,1,291.0,1
1056,1056,0.2064087624453198,0.2,0.0,0.0,431.0,833.0,0.0,1,-354.0,1
1057,1057,-0.6140551315576355,-0.6,1.0,0.0,263.0,767.0,1.0,1,1970.0,0
1058,1058,0.37976506710585645,0.4,0.0,0.0,343.0,682.0,1.0,0,-165.0,0
1059,1059,-0.03213199015341672,-0.0,0.0,1.0,475.0,821.0,1.0,0,1654.0,1
1060,1060,0.006409410989402953,0.0,1.0,1.0,268.0,596.0,1.0,1,-834.0,1
1061,1061,0.3181270412207752,0.3,0.0,0.0,305.0,722.0,0.0,1,433.0,1
1062,1062,-0.709973895690136,-0.7,0.0,1.0,321.0,795.0,1.0,0,-326.0,1
1063,1063,0.6715301767754508,0.7,0.0,0.0,348.0,959.0,0.0,1,223.0,1
1064,1064,0.0905889649693028,0.1,1.0,1.0,400.0,745.0,1.0,1,-655.0,1
1065,1065,-0.7965615813693823,-0.8,1.0,0.0,389.0,828.0,0.0,0,1783.0,1
1066,1066,-0.15999506240708994,-0.2,0.0,1.0,314.0,640.0,1.0,0,-704.0,1
1067,1067,0.5863226729672787,0.6,0.0,0.0,252.0,837.0,0.0,1,541.0,1
1068,1068,-0.5720498494411521,-0.6,0.0,1.0,413.0,726.0,1.0,0,-739.0,1
1069,1069,0.1810693650840819,0.2,0.0,0.0,462.0,781.0,0.0,1,1757.0,1
1070,1070,-0.5860494497309993,-0.6,0.0,1.0,468.0,606.0,1.0,0,-794.0,1
1071,1071,0.31947410472473814,0.3,1.0,1.0,277.0,703.0,1.0,1,2020.0,1
1072,1072,-0.6399548806043777,-0.6,0.0,1.0,327.0,958.0,1.0,0,1715.0,1
1073,1073,0.15292600631042352,0.2,1.0,1.0,263.0,734.0,1.0,1,1433.0,1
1074,1074,-0.20349786120975033,-0.2,0.0,1.0,275.0,834.0,0.0,1,-349.0,0
1075,1075,0.33254147394088973,0.3,0.0,0.0,363.0,676.0,0.0,1,1561.0,1
1076,1076,-0.5418580039417912,-0.5,0.0,1.0,317.0,562.0,1.0,0,-259.0,1
1077,1077,-0.05008112698222411,-0.1,0.0,1.0,359.0,900.0,1.0,0,-219.0,1
1078,1078,0.42673819113604494,0.4,1.0,1.0,427.0,856.0,1.0,1,1717.0,1
1079,1079,0.4742428476563091,0.5,1.0,1.0,282.0,752.0,1.0,1,306.0,1
1080,1080,-0.6337041942159463,-0.6,0.0,1.0,487.0,821.0,0.0,1,1692.0,0
1081,1081,-0.29991408737039393,-0.3,1.0,0.0,342.0,979.0,1.0,1,-1271.0,0
1082,1082,0.8292025677177791,0.8,0.0,0.0,477.0,537.0,0.0,1,846.0,1
1083,1083,0.2944707968821688,0.3,0.0,0.0,292.0,628.0,1.0,0,260.0,0
1084,1084,-0.5904147728691509,-0.6,0.0,1.0,499.0,895.0,1.0,0,416.0,1
1085,1085,0.6731357570039714,0.7,0.0,0.0,340.0,672.0,1.0,0,398.0,0
1086,1086,-0.7282635068414253,-0.7,0.0,1.0,292.0,996.0,1.0,0,1712.0,1
1087,1087,0.38367266548098555,0.4,0.0,0.0,454.0,500.0,0.0,1,976.0,1
1088,1088,0.8056793665592822,0.8,1.0,1.0,427.0,617.0,1.0,1,126.0,1
1089,1089,-0.3696367012181544,-0.4,1.0,0.0,468.0,778.0,1.0,1,-726.0,0
1090,1090,-0.282155836225533,-0.3,0.0,1.0,487.0,600.0,1.0,0,-377.0,1
1091,1091,-0.28568931575809275,-0.3,0.0,1.0,283.0,520.0,1.0,0,-713.0,1
1092,1092,-0.481390232067542,-0.5,0.0,1.0,397.0,650.0,1.0,0,-107.0,1
1093,1093,0.7300681288244776,0.7,1.0,1.0,375.0,779.0,0.0,0,1846.0,0
1094,1094,-0.7211500153475057,-0.7,1.0,0.0,260.0,701.0,0.0,0,2039.0,1
1095,1095,0.388605352347689,0.4,0.0,0.0,357.0,890.0,1.0,0,-407.0,0
1096,1096,0.09444819868028409,0.1,1.0,1.0,361.0,680.0,0.0,0,1959.0,0
1097,1097,0.7797799536821975,0.8,0.0,0.0,472.0,530.0,0.0,1,1998.0,1
1098,1098,-0.01789337063942842,-0.0,1.0,0.0,472.0,968.0,1.0,1,-290.0,0
1099,1099,0.24278083209528545,0.2,1.0,1.0,387.0,639.0,1.0,1,-676.0,1
1100,1100,-0.7512027222976372,-0.8,0.0,1.0,486.0,731.0,1.0,0,-357.0,1
1101,1101,0.13363829989123055,0.1,0.0,0.0,339.0,587.0,1.0,0,1724.0,0
1102,1102,0.5342747541764173,0.5,0.0,0.0,476.0,649.0,1.0,0,715.0,0
1103,1103,-0.5575566544786629,-0.6,0.0,1.0,340.0,903.0,1.0,0,-543.0,1
1104,1104,0.617300595145922,0.6,1.0,1.0,499.0,793.0,1.0,1,-112.0,1
1105,1105,-0.36739268368895184,-0.4,0.0,1.0,383.0,589.0,1.0,0,2028.0,1
1106,1106,-0.2755203781380339,-0.3,0.0,1.0,259.0,531.0,1.0,0,2210.0,1
1107,1107,-0.35172994550138525,-0.4,1.0,0.0,307.0,580.0,1.0,1,-857.0,0
1108,1108,-0.4034221245624238,-0.4,0.0,1.0,368.0,853.0,1.0,0,159.0,1
1109,1109,-0.7375731208292313,-0.7,1.0,0.0,426.0,781.0,1.0,1,-977.0,0
1110,1110,-0.385197418298992,-0.4,0.0,1.0,286.0,871.0,1.0,0,-567.0,1
1111,1111,-0.6816265807936402,-0.7,0.0,1.0,359.0,733.0,1.0,0,1308.0,1
1112,1112,0.17163740406047878,0.2,0.0,0.0,366.0,635.0,1.0,0,-591.0,0
1113,1113,0.29227915079548217,0.3,0.0,0.0,443.0,538.0,1.0,0,2019.0,0
1114,1114,-0.5248424556126248,-0.5,0.0,1.0,478.0,897.0,1.0,0,-1235.0,1
1115,1115,0.2589814178646842,0.3,0.0,0.0,342.0,793.0,1.0,0,35.0,0
1116,1116,0.7232200740435787,0.7,1.0,1.0,333.0,809.0,1.0,1,148.0,1
1117,1117,-0.050244006661737006,-0.1,1.0,0.0,321.0,936.0,1.0,1,-897.0,0
1118,1118,0.25314233277240705,0.3,0.0,0.0,354.0,553.0,1.0,0,-767.0,0
1119,1119,-0.5299829638410829,-0.5,1.0,0.0,278.0,819.0,0.0,0,1903.0,1
1120,1120,-0.26255406783595225,-0.3,1.0,0.0,491.0,802.0,1.0,1,-1233.0,0
1121,1121,0.3048955277524833,0.3,0.0,0.0,492.0,613.0,1.0,0,-975.0,0
1122,1122,-0.6620803031227422,-0.7,0.0,1.0,466.0,673.0,0.0,1,1861.0,0
1123,1123,0.808544792918947,0.8,1.0,1.0,372.0,769.0,1.0,1,-821.0,1
1124,1124,-0.3620536468852861,-0.4,0.0,1.0,259.0,562.0,1.0,0,269.0,1
1125,1125,0.6021566565600861,0.6,0.0,0.0,259.0,591.0,1.0,0,-830.0,0
1126,1126,0.5644824590773235,0.6,0.0,0.0,390.0,937.0,1.0,0,-137.0,0
1127,1127,0.8775104452836416,0.9,1.0,1.0,485.0,777.0,1.0,1,1268.0,1
1128,1128,-0.8948590144236254,-0.9,1.0,0.0,307.0,906.0,1.0,1,-263.0,0
1129,1129,0.6653577412876833,0.7,1.0,1.0,488.0,820.0,1.0,1,1362.0,1
1130,1130,-0.16754346333843306,-0.2,0.0,1.0,450.0,856.0,1.0,0,64.0,1
1131,1131,-0.004711650876001339,-0.0,0.0,1.0,345.0,846.0,0.0,1,199.0,0
1132,1132,-0.8974308978025615,-0.9,0.0,1.0,488.0,866.0,1.0,0,-424.0,1
1133,1133,-0.34714927028747566,-0.3,0.0,1.0,305.0,553.0,1.0,0,42.0,1
1134,1134,0.3274975607337117,0.3,1.0,1.0,425.0,534.0,0.0,0,2041.0,0
1135,1135,-0.6416914272702636,-0.6,0.0,1.0,432.0,750.0,1.0,0,-692.0,1
1136,1136,-0.6059133507769248,-0.6,0.0,1.0,295.0,759.0,1.0,0,1136.0,1
1137,1137,0.8654411789036686,0.9,1.0,1.0,421.0,951.0,1.0,1,398.0,1
1138,1138,0.8277706327394444,0.8,0.0,0.0,399.0,744.0,0.0,1,297.0,1
1139,1139,0.47855632654559555,0.5,1.0,1.0,310.0,990.0,1.0,1,-350.0,1
1140,1140,-0.3825272867852234,-0.4,1.0,0.0,450.0,931.0,1.0,1,-251.0,0
1141,1141,-0.2158130819845101,-0.2,1.0,0.0,380.0,582.0,1.0,1,-82.0,0
1142,1142,0.43371086029230865,0.4,0.0,0.0,250.0,818.0,0.0,1,1582.0,1
1143,1143,-0.5162947213472692,-0.5,0.0,1.0,264.0,514.0,0.0,1,2222.0,0
1144,1144,0.15032854802623252,0.2,0.0,0.0,354.0,901.0,0.0,1,1745.0,1
1145,1145,0.8307310486589624,0.8,0.0,0.0,310.0,616.0,0.0,1,624.0,1
1146,1146,-0.4591787937837367,-0.5,0.0,1.0,300.0,775.0,0.0,1,1925.0,0
1147,1147,0.2807085260419605,0.3,1.0,1.0,257.0,547.0,1.0,1,906.0,1
1148,1148,-0.643963301948618,-0.6,0.0,1.0,386.0,998.0,1.0,0,-904.0,1
1149,1149,0.17137725152113792,0.2,1.0,1.0,353.0,769.0,1.0,1,-912.0,1
1150,1150,-0.7682676061096926,-0.8,0.0,1.0,270.0,882.0,0.0,1,1848.0,0
1151,1151,0.34868160802165604,0.3,0.0,0.0,359.0,731.0,1.0,0,220.0,0
1152,1152,-0.5438182971060421,-0.5,1.0,0.0,323.0,695.0,1.0,1,-908.0,0
1153,1153,0.381925653461587,0.4,0.0,0.0,390.0,708.0,1.0,0,1102.0,0
1154,1154,-0.592678142907272,-0.6,0.0,1.0,265.0,552.0,1.0,0,-197.0,1
1155,1155,-0.3635161723793465,-0.4,0.0,1.0,303.0,594.0,1.0,0,293.0,1
1156,1156,-0.6908304441040767,-0.7,0.0,1.0,337.0,532.0,1.0,0,-399.0,1
1157,1157,-0.18101589561319842,-0.2,1.0,0.0,458.0,832.0,1.0,1,1020.0,0
1158,1158,0.3720701744381195,0.4,1.0,1.0,395.0,593.0,0.0,0,2012.0,0
1159,1159,0.344102765192691,0.3,0.0,0.0,261.0,977.0,1.0,0,-1008.0,0
1160,1160,0.28204980726168405,0.3,1.0,1.0,364.0,597.0,1.0,1,-611.0,1
1161,1161,0.5784744699329866,0.6,0.0,0.0,269.0,811.0,1.0,0,130.0,0
1162,1162,0.26124924736974997,0.3,0.0,0.0,304.0,926.0,0.0,1,1480.0,1
1163,1163,0.24475989470430248,0.2,0.0,0.0,258.0,534.0,0.0,1,2208.0,1
1164,1164,-0.4290163946396612,-0.4,0.0,1.0,404.0,623.0,1.0,0,503.0,1
1165,1165,-0.3453886709050662,-0.3,1.0,0.0,420.0,655.0,0.0,0,1925.0,1
1166,1166,-0.7209886942935302,-0.7,0.0,1.0,323.0,984.0,1.0,0,1693.0,1
1167,1167,0.72366293663298,0.7,1.0,1.0,435.0,832.0,1.0,1,173.0,1
1168,1168,0.48544331225801896,0.5,0.0,0.0,364.0,739.0,0.0,1,707.0,1
1169,1169,0.32321616413004983,0.3,0.0,0.0,337.0,636.0,0.0,1,1697.0,1
1170,1170,0.7280459225626082,0.7,1.0,1.0,461.0,548.0,1.0,1,1001.0,1
1171,1171,0.42904320085094405,0.4,1.0,1.0,436.0,800.0,1.0,1,454.0,1
1172,1172,-0.4096596977907063,-0.4,1.0,0.0,321.0,678.0,1.0,1,-679.0,0
1173,1173,-0.7990672474388948,-0.8,0.0,1.0,270.0,977.0,0.0,1,1753.0,0
1174,1174,-0.46660641393727254,-0.5,0.0,1.0,298.0,815.0,1.0,0,1887.0,1
1175,1175,-0.21676513628371374,-0.2,1.0,0.0,286.0,559.0,1.0,1,1485.0,0
1176,1176,-0.17032664596823388,-0.2,0.0,1.0,373.0,688.0,0.0,1,1939.0,0
1177,1177,0.6574845844911031,0.7,0.0,0.0,430.0,713.0,0.0,1,1407.0,1
1178,1178,0.6851423227538119,0.7,1.0,1.0,478.0,587.0,1.0,1,225.0,1
1179,1179,0.10100947194621279,0.1,1.0,1.0,499.0,830.0,1.0,1,-859.0,1
1180,1180,0.37172392900159823,0.4,0.0,0.0,406.0,930.0,0.0,1,1524.0,1
1181,1181,0.8478660263199881,0.8,1.0,1.0,266.0,893.0,1.0,1,-359.0,1
1182,1182,-0.6510923974864067,-0.7,1.0,0.0,328.0,769.0,1.0,1,-177.0,0
1183,1183,0.6684512379006547,0.7,0.0,0.0,422.0,650.0,0.0,1,968.0,1
1184,1184,-0.7168625590233753,-0.7,1.0,0.0,461.0,625.0,1.0,1,304.0,0
1185,1185,0.08809983819789613,0.1,0.0,0.0,453.0,529.0,0.0,1,138.0,1
1186,1186,-0.8690851312131747,-0.9,0.0,1.0,402.0,777.0,1.0,0,1821.0,1
1187,1187,0.2944525859828334,0.3,0.0,0.0,417.0,691.0,1.0,0,-1008.0,0
1188,1188,-0.2801333934572281,-0.3,1.0,0.0,317.0,782.0,1.0,1,-969.0,0
1189,1189,-0.2518910148304062,-0.3,0.0,1.0,478.0,905.0,1.0,0,-1133.0,1
1190,1190,0.3711231296787151,0.4,0.0,0.0,370.0,886.0,0.0,1,474.0,1
1191,1191,0.6279507959573433,0.6,1.0,1.0,332.0,739.0,1.0,1,989.0,1
1192,1192,-0.61863450931767,-0.6,0.0,1.0,370.0,679.0,1.0,0,-529.0,1
1193,1193,-0.6463912892589685,-0.6,0.0,1.0,286.0,613.0,1.0,0,-489.0,1
1194,1194,0.24437317669312175,0.2,1.0,1.0,389.0,751.0,1.0,1,-1120.0,1
1195,1195,-0.405333401243981,-0.4,1.0,0.0,470.0,868.0,1.0,1,-968.0,0
1196,1196,0.7571705858029308,0.8,1.0,1.0,294.0,550.0,1.0,1,296.0,1
1197,1197,-0.8862749112606207,-0.9,1.0,0.0,251.0,693.0,1.0,1,-884.0,0
1198,1198,0.7381819667947876,0.7,1.0,1.0,367.0,735.0,1.0,1,-832.0,1
1199,1199,-0.41605512521144145,-0.4,0.0,1.0,251.0,868.0,1.0,0,-1119.0,1
1200,1200,-0.4395062059539955,-0.4,0.0,1.0,315.0,949.0,1.0,0,-584.0,1
1201,1201,0.3326775262054903,0.3,1.0,1.0,353.0,737.0,0.0,0,1910.0,0
1202,1202,0.21757514976935421,0.2,1.0,1.0,497.0,874.0,1.0,1,-1301.0,1
1203,1203,-0.04223273944457062,-0.0,0.0,1.0,469.0,682.0,1.0,0,-1151.0,1
1204,1204,-0.08761011994240864,-0.1,1.0,0.0,284.0,751.0,1.0,1,-635.0,0
1205,1205,-0.2264851179277817,-0.2,0.0,1.0,364.0,646.0,1.0,0,-470.0,1
1206,1206,0.16624740685897066,0.2,0.0,0.0,417.0,665.0,1.0,0,558.0,0
1207,1207,0.1875243082592185,0.2,1.0,1.0,495.0,629.0,1.0,1,706.0,1
1208,1208,0.8491946232818798,0.8,1.0,1.0,331.0,514.0,1.0,1,75.0,1
1209,1209,-0.8638358682069557,-0.9,1.0,0.0,300.0,517.0,0.0,0,2183.0,1
1210,1210,-0.2986465770854757,-0.3,0.0,1.0,380.0,887.0,1.0,0,663.0,1
1211,1211,-0.8614275453078492,-0.9,1.0,0.0,360.0,571.0,0.0,0,2069.0,1
1212,1212,-0.32439513721396185,-0.3,1.0,0.0,338.0,728.0,1.0,1,814.0,0
1213,1213,0.08015254198509514,0.1,0.0,0.0,417.0,808.0,1.0,0,-415.0,0
1214,1214,0.5317083327705229,0.5,0.0,0.0,334.0,694.0,1.0,0,-748.0,0
1215,1215,0.863779033738267,0.9,1.0,1.0,473.0,557.0,1.0,1,-350.0,1
1216,1216,0.2961224233297123,0.3,0.0,0.0,428.0,673.0,1.0,0,-511.0,0
1217,1217,0.2430801057209787,0.2,0.0,0.0,446.0,520.0,1.0,0,614.0,0
1218,1218,0.37953878933355345,0.4,0.0,0.0,488.0,964.0,1.0,0,-1352.0,0
1219,1219,0.39415301734875186,0.4,1.0,1.0,379.0,965.0,1.0,1,1656.0,1
1220,1220,-0.5102501614649511,-0.5,1.0,0.0,488.0,603.0,1.0,1,-801.0,0
1221,1221,-0.5192468595164152,-0.5,1.0,0.0,463.0,775.0,0.0,0,1762.0,1
1222,1222,-0.5668376466981323,-0.6,1.0,0.0,390.0,971.0,1.0,1,-1281.0,0
1223,1223,0.6314398169307126,0.6,1.0,1.0,300.0,603.0,0.0,0,2097.0,0
1224,1224,0.5748720008637563,0.6,1.0,1.0,449.0,830.0,1.0,1,-1279.0,1
1225,1225,-0.7314176514030608,-0.7,1.0,0.0,380.0,938.0,0.0,0,1682.0,1
1226,1226,0.4100708044388487,0.4,1.0,1.0,461.0,847.0,1.0,1,-548.0,1
1227,1227,0.7464524638677749,0.7,0.0,0.0,454.0,729.0,1.0,0,527.0,0
1228,1228,-0.7931469401725513,-0.8,0.0,1.0,395.0,971.0,1.0,0,-896.0,1
1229,1229,0.8786584228498552,0.9,0.0,0.0,338.0,891.0,1.0,0,-1009.0,0
1230,1230,0.7924416903463177,0.8,0.0,0.0,464.0,803.0,0.0,1,1033.0,1
1231,1231,-0.21461484404133535,-0.2,0.0,1.0,289.0,515.0,1.0,0,1046.0,1
1232,1232,-0.8915921261324894,-0.9,1.0,0.0,428.0,822.0,0.0,0,1750.0,1
1233,1233,0.6448824413320587,0.6,0.0,0.0,442.0,511.0,1.0,0,-103.0,0
1234,1234,-0.37570237506497495,-0.4,0.0,1.0,370.0,921.0,1.0,0,-501.0,1
1235,1235,-0.8352557356097892,-0.8,1.0,0.0,270.0,651.0,1.0,1,-761.0,0
1236,1236,0.6115083262814035,0.6,0.0,0.0,351.0,565.0,1.0,0,-186.0,0
1237,1237,-0.8924199651787806,-0.9,1.0,0.0,300.0,842.0,0.0,0,1858.0,1
1238,1238,0.354167582205552,0.4,1.0,1.0,323.0,794.0,1.0,1,-827.0,1
1239,1239,0.16358463492665642,0.2,1.0,1.0,276.0,893.0,1.0,1,801.0,1
1240,1240,0.8846693965050066,0.9,1.0,1.0,343.0,689.0,0.0,0,1968.0,0
1241,1241,-0.7496730561057768,-0.7,0.0,1.0,321.0,643.0,1.0,0,296.0,1
1242,1242,0.2519865419342239,0.3,0.0,0.0,473.0,987.0,1.0,0,-890.0,0
1243,1243,-0.6243186336206612,-0.6,1.0,0.0,432.0,578.0,0.0,0,1990.0,1
1244,1244,0.10902840943173275,0.1,1.0,1.0,391.0,579.0,1.0,1,1130.0,1
1245,1245,0.34639551484999054,0.3,1.0,1.0,370.0,826.0,1.0,1,-446.0,1
1246,1246,0.6426838532322711,0.6,0.0,0.0,384.0,681.0,1.0,0,-665.0,0
1247,1247,0.5945485650992693,0.6,0.0,0.0,439.0,513.0,1.0,0,-132.0,0
1248,1248,-0.7696325228861376,-0.8,1.0,0.0,458.0,791.0,1.0,1,-429.0,0
1249,1249,-0.10989828280180314,-0.1,0.0,1.0,307.0,962.0,1.0,0,431.0,1
1250,1250,0.49408225411803375,0.5,0.0,0.0,499.0,998.0,1.0,0,-1387.0,0
1251,1251,0.5357835574455189,0.5,1.0,1.0,272.0,600.0,1.0,1,-552.0,1
1252,1252,0.895418460772767,0.9,0.0,0.0,483.0,668.0,0.0,1,1189.0,1
1253,1253,0.6462372372409105,0.6,1.0,1.0,425.0,953.0,1.0,1,-1268.0,1
1254,1254,0.29858189827495407,0.3,1.0,1.0,253.0,512.0,1.0,1,1655.0,1
1255,1255,0.36097562490879154,0.4,0.0,0.0,430.0,611.0,1.0,0,-101.0,0
1256,1256,0.041791380316271276,0.0,1.0,1.0,472.0,778.0,1.0,1,1750.0,1
1257,1257,0.7274651010921783,0.7,0.0,0.0,389.0,925.0,1.0,0,-1094.0,0
1258,1258,0.8632453970126824,0.9,1.0,1.0,319.0,784.0,1.0,1,1047.0,1
1259,1259,0.5408206069259675,0.5,0.0,0.0,350.0,531.0,1.0,0,229.0,0
1260,1260,0.467246240881677,0.5,1.0,1.0,402.0,671.0,1.0,1,-843.0,1
1261,1261,-0.6596520963962078,-0.7,1.0,0.0,250.0,957.0,1.0,1,-737.0,0
1262,1262,-0.6537070760677737,-0.7,1.0,0.0,392.0,986.0,0.0,0,722.0,1
1263,1263,0.339880568080991,0.3,0.0,0.0,320.0,945.0,0.0,1,1735.0,1
1264,1264,0.09940963985202933,0.1,1.0,1.0,407.0,577.0,1.0,1,-694.0,1
1265,1265,0.08853256694677658,0.1,1.0,1.0,402.0,559.0,1.0,1,2039.0,1
1266,1266,0.6086920106216586,0.6,0.0,0.0,314.0,679.0,1.0,0,-683.0,0
1267,1267,-0.47207395082277787,-0.5,1.0,0.0,336.0,999.0,1.0,1,-925.0,0
1268,1268,0.7221290208975782,0.7,0.0,0.0,319.0,910.0,1.0,0,-519.0,0
1269,1269,0.1831136697314989,0.2,0.0,0.0,369.0,718.0,1.0,0,-447.0,0
1270,1270,0.8037377345185203,0.8,1.0,1.0,309.0,771.0,1.0,1,640.0,1
1271,1271,-0.3038232354198336,-0.3,0.0,1.0,317.0,565.0,1.0,0,1088.0,1
1272,1272,-0.5182336366974718,-0.5,1.0,0.0,355.0,503.0,1.0,1,1862.0,0
1273,1273,0.19860918833883867,0.2,1.0,1.0,307.0,795.0,0.0,0,1898.0,0
1274,1274,-0.23430595007514377,-0.2,1.0,0.0,395.0,793.0,0.0,0,1812.0,1
1275,1275,-0.19062593319190113,-0.2,0.0,1.0,289.0,939.0,1.0,0,-38.0,1
1276,1276,0.6188555305823792,0.6,1.0,1.0,476.0,963.0,1.0,1,1561.0,1
1277,1277,0.35027364493431545,0.4,1.0,1.0,421.0,566.0,1.0,1,423.0,1
1278,1278,-0.08075104233122232,-0.1,0.0,1.0,474.0,616.0,1.0,0,1290.0,1
1279,1279,0.751697719119876,0.8,1.0,1.0,471.0,547.0,1.0,1,-378.0,1
1280,1280,0.10428972103317269,0.1,1.0,1.0,480.0,527.0,1.0,1,563.0,1
1281,1281,0.39612842219263544,0.4,1.0,1.0,415.0,565.0,1.0,1,230.0,1
1282,1282,0.46887138513816595,0.5,0.0,0.0,455.0,970.0,0.0,1,1155.0,1
1283,1283,0.8341567855618569,0.8,0.0,0.0,384.0,982.0,0.0,1,1124.0,1
1284,1284,-0.6251230540652433,-0.6,1.0,0.0,487.0,715.0,1.0,1,-132.0,0
1285,1285,0.1692560933273658,0.2,0.0,0.0,319.0,951.0,0.0,1,-550.0,1
1286,1286,0.8102756346152954,0.8,0.0,0.0,302.0,643.0,0.0,1,325.0,1
1287,1287,0.543324903804124,0.5,1.0,1.0,298.0,956.0,0.0,0,1746.0,0
1288,1288,-0.44453203869373836,-0.4,1.0,0.0,265.0,713.0,1.0,1,912.0,0
1289,1289,0.044152126575195405,0.0,0.0,0.0,476.0,631.0,1.0,0,-117.0,0
1290,1290,-0.06969681684919826,-0.1,1.0,0.0,435.0,691.0,1.0,1,1874.0,0
1291,1291,-0.8893137249892368,-0.9,1.0,0.0,451.0,751.0,1.0,1,-1172.0,0
1292,1292,-0.7411645307687953,-0.7,1.0,0.0,451.0,518.0,0.0,0,2031.0,1
1293,1293,0.5310240733136141,0.5,0.0,0.0,378.0,914.0,0.0,1,-102.0,1
1294,1294,-0.5116511718917927,-0.5,1.0,0.0,307.0,575.0,1.0,1,-122.0,0
1295,1295,0.4694942900689708,0.5,1.0,1.0,488.0,817.0,1.0,1,335.0,1
1296,1296,-0.19622106908282855,-0.2,0.0,1.0,273.0,801.0,0.0,1,1926.0,0
1297,1297,-0.7826865554129727,-0.8,1.0,0.0,470.0,786.0,1.0,1,1184.0,0
1298,1298,-0.5379851088563596,-0.5,1.0,0.0,321.0,662.0,0.0,0,2017.0,1
1299,1299,-0.10518232558732954,-0.1,0.0,1.0,488.0,665.0,1.0,0,-323.0,1
1300,1300,-0.18009554341556855,-0.2,0.0,1.0,436.0,646.0,1.0,0,-162.0,1
1301,1301,0.38887488744449705,0.4,1.0,1.0,403.0,799.0,1.0,1,318.0,1
1302,1302,-0.7209785275629672,-0.7,1.0,0.0,267.0,578.0,1.0,1,-785.0,0
1303,1303,0.5406151601843786,0.5,1.0,1.0,457.0,874.0,1.0,1,-731.0,1
1304,1304,0.6441935878090755,0.6,0.0,0.0,302.0,933.0,1.0,0,-1155.0,0
1305,1305,-0.31111261050667105,-0.3,1.0,0.0,457.0,584.0,1.0,1,1959.0,0
1306,1306,0.7479658227325011,0.7,0.0,0.0,342.0,802.0,0.0,1,606.0,1
1307,1307,-0.24852384501424019,-0.2,0.0,1.0,428.0,507.0,1.0,0,945.0,1
1308,1308,0.21560534063054704,0.2,1.0,1.0,314.0,938.0,1.0,1,-712.0,1
1309,1309,0.10825614881616452,0.1,1.0,1.0,311.0,802.0,1.0,1,577.0,1
1310,1310,-0.26106160664109457,-0.3,1.0,0.0,439.0,845.0,1.0,1,-1254.0,0
1311,1311,-0.06403030272739241,-0.1,1.0,0.0,432.0,615.0,0.0,0,1953.0,1
1312,1312,0.6105733500442553,0.6,0.0,0.0,441.0,606.0,1.0,0,-997.0,0
1313,1313,-0.41090443643446045,-0.4,0.0,1.0,291.0,523.0,1.0,0,-674.0,1
1314,1314,0.6280231226411407,0.6,0.0,0.0,468.0,986.0,0.0,1,606.0,1
1315,1315,0.3007051272225386,0.3,1.0,1.0,367.0,737.0,1.0,1,956.0,1
1316,1316,0.3165959336574474,0.3,0.0,0.0,257.0,930.0,0.0,1,1813.0,1
1317,1317,-0.39518934572236997,-0.4,1.0,0.0,322.0,807.0,1.0,1,-269.0,0
1318,1318,-0.15365287115347182,-0.2,1.0,0.0,279.0,984.0,1.0,1,-1153.0,0
1319,1319,-0.710978461181923,-0.7,0.0,1.0,383.0,860.0,1.0,0,-243.0,1
1320,1320,-0.038176583418604526,-0.0,0.0,1.0,278.0,538.0,1.0,0,214.0,1
1321,1321,0.17129893347742142,0.2,0.0,0.0,382.0,858.0,1.0,0,1170.0,0
1322,1322,0.6937367915282108,0.7,1.0,1.0,289.0,906.0,1.0,1,-1055.0,1
1323,1323,-0.027715973895626633,-0.0,0.0,1.0,333.0,926.0,1.0,0,1741.0,1
1324,1324,0.049860070659984546,0.0,1.0,1.0,440.0,949.0,1.0,1,-919.0,1
1325,1325,0.4454221485740647,0.4,0.0,0.0,399.0,817.0,0.0,1,-836.0,1
1326,1326,0.8331173609580224,0.8,0.0,0.0,401.0,587.0,1.0,0,-398.0,0
1327,1327,-0.7463410828355278,-0.7,1.0,0.0,445.0,592.0,0.0,0,1963.0,1
1328,1328,-0.06833016934119907,-0.1,0.0,1.0,368.0,796.0,1.0,0,1206.0,1
1329,1329,0.6520013046259864,0.7,0.0,0.0,403.0,578.0,1.0,0,-271.0,0
1330,1330,-0.8199199282268675,-0.8,0.0,1.0,372.0,713.0,0.0,1,1915.0,0
1331,1331,0.15272188116626173,0.2,0.0,0.0,376.0,514.0,1.0,0,1330.0,0
1332,1332,0.3456097273321318,0.3,0.0,0.0,283.0,784.0,1.0,0,1933.0,0
1333,1333,0.26631316624025925,0.3,1.0,1.0,315.0,975.0,1.0,1,370.0,1
1334,1334,0.42639178279041323,0.4,1.0,1.0,300.0,989.0,1.0,1,-1109.0,1
1335,1335,-0.7735082123487691,-0.8,0.0,1.0,346.0,717.0,1.0,0,447.0,1
1336,1336,-0.3460005351602786,-0.3,0.0,1.0,415.0,790.0,1.0,0,265.0,1
1337,1337,-0.5281564449328346,-0.5,0.0,1.0,389.0,773.0,0.0,1,1838.0,0
1338,1338,0.5595245474016967,0.6,1.0,1.0,411.0,577.0,1.0,1,-988.0,1
1339,1339,0.1234161225237177,0.1,1.0,1.0,465.0,673.0,1.0,1,-158.0,1
1340,1340,0.8797742065995829,0.9,0.0,0.0,463.0,749.0,1.0,0,-1082.0,0
1341,1341,-0.5647454368253042,-0.6,0.0,1.0,477.0,687.0,1.0,0,1096.0,1
1342,1342,0.07087063886721201,0.1,1.0,1.0,453.0,991.0,1.0,1,-1054.0,1
1343,1343,-0.31943791063937566,-0.3,0.0,1.0,435.0,976.0,1.0,0,-1371.0,1
1344,1344,0.793661650823399,0.8,1.0,1.0,319.0,824.0,1.0,1,-393.0,1
1345,1345,-0.028695103567521474,-0.0,1.0,0.0,416.0,886.0,1.0,1,-862.0,0
1346,1346,-0.04531548444929756,-0.0,0.0,1.0,350.0,734.0,1.0,0,256.0,1
1347,1347,0.8435202955104896,0.8,0.0,0.0,360.0,962.0,1.0,0,-1172.0,0
1348,1348,0.07408571248558726,0.1,1.0,1.0,378.0,970.0,1.0,1,-1188.0,1
1349,1349,-0.2978902790896557,-0.3,1.0,0.0,486.0,865.0,1.0,1,-791.0,0
1350,1350,-0.4470536086067265,-0.4,0.0,1.0,349.0,871.0,0.0,1,1780.0,0
1351,1351,-0.1225464321651174,-0.1,0.0,1.0,494.0,661.0,1.0,0,955.0,1
1352,1352,0.6963493100437635,0.7,0.0,0.0,348.0,920.0,0.0,1,1132.0,1
1353,1353,0.49094245336861053,0.5,0.0,0.0,378.0,705.0,1.0,0,-503.0,0
1354,1354,-0.12867456375501507,-0.1,0.0,1.0,260.0,554.0,1.0,0,46.0,1
1355,1355,-0.18827210609140965,-0.2,1.0,0.0,464.0,725.0,0.0,0,1811.0,1
1356,1356,0.21860787536544135,0.2,1.0,1.0,295.0,625.0,1.0,1,520.0,1
1357,1357,0.30736159324992085,0.3,1.0,1.0,266.0,596.0,1.0,1,698.0,1
1358,1358,-0.7648691840627206,-0.8,1.0,0.0,436.0,565.0,0.0,0,1999.0,1
1359,1359,0.004962773308097468,0.0,0.0,0.0,376.0,977.0,1.0,0,-283.0,0
1360,1360,0.38815504312047266,0.4,1.0,1.0,254.0,734.0,1.0,1,-838.0,1
1361,1361,-0.8420254582465716,-0.8,1.0,0.0,342.0,546.0,1.0,1,792.0,0
1362,1362,-0.8354481423437754,-0.8,1.0,0.0,368.0,845.0,1.0,1,-1043.0,0
1363,1363,0.3687265557944365,0.4,0.0,0.0,267.0,668.0,0.0,1,2065.0,1
1364,1364,-0.12521178608291295,-0.1,1.0,0.0,489.0,755.0,1.0,1,346.0,0
1365,1365,0.6901886316472458,0.7,1.0,1.0,416.0,986.0,1.0,1,-1332.0,1
1366,1366,0.11987103166135682,0.1,0.0,0.0,345.0,771.0,1.0,0,-306.0,0
1367,1367,-0.8596224437032512,-0.9,0.0,1.0,487.0,831.0,1.0,0,-128.0,1
1368,1368,0.28631250271867825,0.3,1.0,1.0,465.0,653.0,1.0,1,-988.0,1
1369,1369,0.3123674898742853,0.3,0.0,0.0,434.0,859.0,1.0,0,-133.0,0
1370,1370,0.42871117794770697,0.4,1.0,1.0,370.0,881.0,1.0,1,-1161.0,1
1371,1371,0.32562073026967064,0.3,1.0,1.0,389.0,897.0,1.0,1,-1106.0,1
1372,1372,0.17175454549009161,0.2,0.0,0.0,383.0,612.0,1.0,0,-895.0,0
1373,1373,0.19031052446605978,0.2,1.0,1.0,344.0,582.0,1.0,1,1024.0,1
1374,1374,0.6176315030357843,0.6,0.0,0.0,437.0,961.0,0.0,1,892.0,1
1375,1375,-0.34355881177390746,-0.3,0.0,1.0,459.0,757.0,1.0,0,1784.0,1
1376,1376,0.660201973079294,0.7,1.0,1.0,376.0,624.0,1.0,1,50.0,1
1377,1377,0.41430368923374095,0.4,0.0,0.0,436.0,899.0,1.0,0,505.0,0
1378,1378,-0.23604919792620882,-0.2,0.0,1.0,464.0,638.0,1.0,0,-1062.0,1
1379,1379,-0.19171355544705393,-0.2,0.0,1.0,478.0,515.0,0.0,1,2007.0,0
1380,1380,-0.4247565984391993,-0.4,0.0,1.0,335.0,710.0,1.0,0,-595.0,1
1381,1381,0.24039738664821242,0.2,0.0,0.0,310.0,541.0,1.0,0,1079.0,0
1382,1382,-0.1955060832915625,-0.2,0.0,1.0,261.0,863.0,0.0,1,1876.0,0
1383,1383,0.26649622703622733,0.3,1.0,1.0,437.0,746.0,1.0,1,217.0,1
1384,1384,0.7652048215150465,0.8,1.0,1.0,478.0,871.0,1.0,1,-379.0,1
1385,1385,0.4082618751145398,0.4,1.0,1.0,413.0,851.0,1.0,1,-854.0,1
1386,1386,-0.27856757571422575,-0.3,1.0,0.0,290.0,616.0,1.0,1,-546.0,0
1387,1387,-0.1268273021698625,-0.1,1.0,0.0,480.0,741.0,1.0,1,-881.0,0
1388,1388,0.4347713290352323,0.4,1.0,1.0,289.0,632.0,1.0,1,869.0,1
1389,1389,0.820349540899571,0.8,0.0,0.0,301.0,952.0,1.0,0,157.0,0
1390,1390,-0.3995801668782898,-0.4,0.0,1.0,414.0,831.0,1.0,0,-55.0,1
1391,1391,-0.4122961952983591,-0.4,1.0,0.0,480.0,919.0,1.0,1,-1019.0,0
1392,1392,-0.07615500273837983,-0.1,0.0,1.0,413.0,945.0,1.0,0,362.0,1
1393,1393,-0.14900066201476647,-0.1,1.0,0.0,325.0,802.0,1.0,1,-1047.0,0
1394,1394,-0.1883111750716424,-0.2,1.0,0.0,282.0,834.0,0.0,0,1884.0,1
1395,1395,0.11665953992389844,0.1,0.0,0.0,308.0,532.0,1.0,0,-660.0,0
1396,1396,-0.6963559797116878,-0.7,1.0,0.0,349.0,759.0,0.0,0,1892.0,1
1397,1397,-0.5090363770256582,-0.5,0.0,1.0,473.0,956.0,1.0,0,-279.0,1
1398,1398,0.7767075192873035,0.8,1.0,1.0,431.0,563.0,1.0,1,2006.0,1
1399,1399,0.5481077813779608,0.5,1.0,1.0,369.0,586.0,1.0,1,-275.0,1
1400,1400,0.23512560268431593,0.2,1.0,1.0,324.0,850.0,1.0,1,226.0,1
1401,1401,0.4019621139174966,0.4,1.0,1.0,278.0,872.0,0.0,0,1850.0,0
1402,1402,-0.4497941500890283,-0.4,1.0,0.0,341.0,571.0,1.0,1,-802.0,0
1403,1403,-0.1767871218096505,-0.2,1.0,0.0,413.0,736.0,1.0,1,-159.0,0
1404,1404,-0.7349420440268979,-0.7,1.0,0.0,260.0,759.0,1.0,1,-579.0,0
1405,1405,0.1273967591565245,0.1,1.0,1.0,308.0,719.0,1.0,1,-707.0,1
1406,1406,0.5132908766989609,0.5,1.0,1.0,349.0,848.0,1.0,1,1803.0,1
1407,1407,-0.7492039810121542,-0.7,1.0,0.0,283.0,874.0,1.0,1,-957.0,0
1408,1408,0.7346298388109148,0.7,0.0,0.0,391.0,941.0,1.0,0,-1002.0,0
1409,1409,-0.7302022112577172,-0.7,0.0,1.0,429.0,604.0,0.0,1,1967.0,0
1410,1410,0.13551266174678156,0.1,1.0,1.0,316.0,753.0,1.0,1,-709.0,1
1411,1411,-0.14292592298367102,-0.1,0.0,1.0,332.0,526.0,0.0,1,262.0,0
1412,1412,-0.17979130335078508,-0.2,1.0,0.0,323.0,618.0,1.0,1,-61.0,0
1413,1413,0.05879426748533312,0.1,0.0,0.0,337.0,834.0,1.0,0,-171.0,0
1414,1414,-0.032296396147923234,-0.0,0.0,1.0,304.0,684.0,1.0,0,612.0,1
1415,1415,-0.4736510728187379,-0.5,0.0,1.0,365.0,911.0,0.0,1,1724.0,0
1416,1416,-0.6030279343378109,-0.6,0.0,1.0,371.0,973.0,1.0,0,-384.0,1
1417,1417,0.11237396596976523,0.1,1.0,1.0,354.0,622.0,1.0,1,414.0,1
1418,1418,-0.6941373949256193,-0.7,1.0,0.0,342.0,795.0,1.0,1,-1007.0,0
1419,1419,0.3049458752415214,0.3,0.0,0.0,277.0,916.0,1.0,0,-713.0,0
1420,1420,-0.35904769024605143,-0.4,1.0,0.0,471.0,558.0,1.0,1,1971.0,0
1421,1421,-0.4406457846557818,-0.4,1.0,0.0,369.0,828.0,1.0,1,-107.0,0
1422,1422,-0.822943805015412,-0.8,0.0,1.0,396.0,974.0,0.0,1,1630.0,0
1423,1423,0.715728542569383,0.7,1.0,1.0,313.0,580.0,1.0,1,2107.0,1
1424,1424,0.26532150604295135,0.3,0.0,0.0,372.0,824.0,1.0,0,-436.0,0
1425,1425,-0.49902903785496305,-0.5,0.0,1.0,258.0,667.0,1.0,0,-585.0,1
1426,1426,-0.6343697126357501,-0.6,1.0,0.0,411.0,682.0,0.0,0,1907.0,1
1427,1427,-0.6706274828593133,-0.7,0.0,1.0,415.0,904.0,0.0,1,1681.0,0
1428,1428,0.6784802330114742,0.7,1.0,1.0,427.0,927.0,1.0,1,-1234.0,1
1429,1429,0.5385525997082837,0.5,1.0,1.0,429.0,789.0,1.0,1,812.0,1
1430,1430,-0.6455974149605737,-0.6,0.0,1.0,452.0,816.0,0.0,1,1732.0,0
1431,1431,0.14594656601729683,0.1,0.0,0.0,330.0,757.0,1.0,0,-947.0,0
1432,1432,-0.3961239255590977,-0.4,0.0,1.0,393.0,502.0,1.0,0,405.0,1
1433,1433,-0.07779105906588302,-0.1,0.0,1.0,251.0,650.0,1.0,0,1579.0,1
1434,1434,-0.7505359087263654,-0.8,1.0,0.0,476.0,671.0,0.0,0,1853.0,1
1435,1435,-0.16117046642149968,-0.2,1.0,0.0,492.0,819.0,1.0,1,1339.0,0
1436,1436,0.6536174444495407,0.7,0.0,0.0,328.0,912.0,1.0,0,-940.0,0
1437,1437,0.6839316403966834,0.7,1.0,1.0,332.0,894.0,1.0,1,254.0,1
1438,1438,0.21842748375089294,0.2,0.0,0.0,366.0,752.0,1.0,0,-998.0,0
1439,1439,-0.057405864975011545,-0.1,0.0,1.0,266.0,567.0,0.0,1,2167.0,0
1440,1440,-0.41528438585426775,-0.4,1.0,0.0,302.0,794.0,1.0,1,704.0,0
1441,1441,-0.30784821946711804,-0.3,0.0,1.0,401.0,537.0,1.0,0,1752.0,1
1442,1442,0.1833827971654195,0.2,0.0,0.0,266.0,608.0,1.0,0,-354.0,0
1443,1443,0.7339707979584938,0.7,1.0,1.0,293.0,553.0,1.0,1,-476.0,1
1444,1444,0.23943378179529862,0.2,1.0,1.0,331.0,607.0,1.0,1,-718.0,1
1445,1445,-0.06489533808744274,-0.1,1.0,0.0,263.0,669.0,0.0,0,2068.0,1
1446,1446,0.18994900863533293,0.2,0.0,0.0,469.0,993.0,1.0,0,-1032.0,0
1447,1447,0.3414497500848602,0.3,1.0,1.0,498.0,769.0,1.0,1,-1147.0,1
1448,1448,0.48505594571628163,0.5,0.0,0.0,484.0,905.0,0.0,1,1171.0,1
1449,1449,-0.4573672522097244,-0.5,0.0,1.0,327.0,636.0,1.0,0,-473.0,1
1450,1450,0.5528848290629483,0.6,1.0,1.0,280.0,788.0,1.0,1,1222.0,1
1451,1451,-0.5144270897360896,-0.5,1.0,0.0,392.0,501.0,1.0,1,-303.0,0
1452,1452,-0.5757335228190301,-0.6,1.0,0.0,372.0,760.0,0.0,0,1868.0,1
1453,1453,0.40983045812692354,0.4,0.0,0.0,433.0,589.0,0.0,1,428.0,1
1454,1454,0.7122137536053482,0.7,0.0,0.0,304.0,745.0,0.0,1,771.0,1
1455,1455,-0.7610771599409047,-0.8,0.0,1.0,282.0,511.0,1.0,0,-113.0,1
1456,1456,0.3508177408964551,0.4,1.0,1.0,328.0,620.0,1.0,1,1082.0,1
1457,1457,0.4556997494015814,0.5,1.0,1.0,448.0,915.0,1.0,1,1167.0,1
1458,1458,0.42459378774853007,0.4,1.0,1.0,388.0,872.0,0.0,0,1740.0,0
1459,1459,-0.7497875706940602,-0.7,0.0,1.0,463.0,753.0,1.0,0,-1196.0,1
1460,1460,0.6386918497183139,0.6,0.0,0.0,480.0,837.0,1.0,0,-1277.0,0
1461,1461,-0.376241167253611,-0.4,0.0,1.0,252.0,594.0,1.0,0,-506.0,1
1462,1462,-0.39457678519530937,-0.4,0.0,1.0,348.0,546.0,1.0,0,1076.0,1
1463,1463,-0.8610099039099629,-0.9,0.0,1.0,451.0,949.0,1.0,0,-1320.0,1
1464,1464,0.0477511359732633,0.0,0.0,0.0,348.0,751.0,1.0,0,621.0,0
1465,1465,-0.5966402233238508,-0.6,0.0,1.0,481.0,909.0,0.0,1,-510.0,0
1466,1466,0.35913313179292794,0.4,0.0,0.0,440.0,792.0,1.0,0,378.0,0
1467,1467,0.8363893948070306,0.8,0.0,0.0,254.0,558.0,0.0,1,818.0,1
1468,1468,0.24633664039513514,0.2,1.0,1.0,368.0,559.0,1.0,1,303.0,1
1469,1469,0.20293574501625933,0.2,0.0,0.0,403.0,900.0,0.0,1,1697.0,1
1470,1470,-0.44843334827589365,-0.4,1.0,0.0,275.0,783.0,1.0,1,652.0,0
1471,1471,-0.4267458584949804,-0.4,0.0,1.0,322.0,919.0,1.0,0,-1101.0,1
1472,1472,-0.4557918047737492,-0.5,0.0,1.0,440.0,543.0,1.0,0,1107.0,1
1473,1473,-0.6403896695593643,-0.6,0.0,1.0,304.0,785.0,1.0,0,-119.0,1
1474,1474,0.8396531639220798,0.8,0.0,0.0,443.0,534.0,1.0,0,-667.0,0
1475,1475,-0.31642240757247153,-0.3,0.0,1.0,292.0,603.0,0.0,1,-25.0,0
1476,1476,-0.2860145736713281,-0.3,1.0,0.0,412.0,560.0,0.0,0,2028.0,1
