,trial,coherence,coherence_bin,green_side,correct_side,target_onset,checker_onset,decision,green_decision,decision_time,correct_decision
0,0,0.15754371434855086,0.2,1.0,1.0,498.0,721.0,1.0,1,371.0,1
1,1,0.17844457626722476,0.2,0.0,0.0,260.0,535.0,0.0,1,1615.0,1
2,2,-0.6919049043511118,-0.7,1.0,0.0,398.0,810.0,0.0,0,282.0,1
3,3,-0.10906449253269868,-0.1,1.0,0.0,473.0,690.0,1.0,1,1777.0,0
4,4,-0.7958488418911288,-0.8,1.0,0.0,489.0,842.0,0.0,0,289.0,1
5,5,-0.24310568361543972,-0.2,1.0,0.0,372.0,818.0,0.0,0,720.0,1
6,6,0.6596543859962124,0.7,0.0,0.0,443.0,521.0,0.0,1,176.0,1
7,7,-0.5927605135989158,-0.6,0.0,1.0,432.0,751.0,1.0,0,157.0,1
8,8,-0.5615457604344989,-0.6,1.0,0.0,479.0,847.0,0.0,0,324.0,1
9,9,-0.5927069371869405,-0.6,1.0,0.0,345.0,696.0,0.0,0,179.0,1
10,10,-0.504623663137711,-0.5,1.0,0.0,492.0,888.0,0.0,0,190.0,1
11,11,0.3007992329571526,0.3,1.0,1.0,497.0,904.0,1.0,1,69.0,1
12,12,0.8700241038992521,0.9,0.0,0.0,266.0,853.0,0.0,1,221.0,1
13,13,-0.7576438618198845,-0.8,1.0,0.0,457.0,929.0,0.0,0,124.0,1
14,14,-0.13754331199988568,-0.1,1.0,0.0,489.0,797.0,0.0,0,244.0,1
15,15,0.8886128061760555,0.9,1.0,1.0,495.0,727.0,1.0,1,128.0,1
16,16,-0.6083558231332207,-0.6,0.0,1.0,278.0,953.0,1.0,0,159.0,1
17,17,-0.1453809281310846,-0.1,0.0,1.0,462.0,700.0,1.0,0,1838.0,1
18,18,-0.10310490091091729,-0.1,1.0,0.0,368.0,619.0,1.0,1,2013.0,0
19,19,0.22570924733139497,0.2,0.0,0.0,371.0,664.0,0.0,1,1135.0,1
20,20,0.7125377729415779,0.7,1.0,1.0,252.0,628.0,1.0,1,140.0,1
21,21,-0.0264954606890061,-0.0,1.0,0.0,341.0,786.0,1.0,1,1763.0,0
22,22,-0.4589674274061856,-0.5,1.0,0.0,312.0,770.0,0.0,0,258.0,1
23,23,0.27743578464848595,0.3,1.0,1.0,392.0,884.0,1.0,1,104.0,1
24,24,-0.22778220539285976,-0.2,0.0,1.0,428.0,971.0,1.0,0,331.0,1
25,25,0.2507265834491311,0.3,0.0,0.0,483.0,956.0,0.0,1,521.0,1
26,26,0.5735882962941806,0.6,0.0,0.0,465.0,503.0,0.0,1,242.0,1
27,27,0.03379273480318623,0.0,1.0,1.0,407.0,525.0,1.0,1,518.0,1
28,28,-0.06539888302476193,-0.1,0.0,1.0,489.0,929.0,1.0,0,1582.0,1
29,29,0.567555880546519,0.6,1.0,1.0,305.0,645.0,1.0,1,150.0,1
30,30,0.5958982362700193,0.6,1.0,1.0,344.0,551.0,1.0,1,95.0,1
31,31,-0.7049938690044318,-0.7,0.0,1.0,439.0,951.0,1.0,0,210.0,1
32,32,0.3585321634675166,0.4,0.0,0.0,295.0,779.0,0.0,1,316.0,1
33,33,0.4769980093499032,0.5,0.0,0.0,482.0,832.0,0.0,1,306.0,1
34,34,-0.1920140180787686,-0.2,1.0,0.0,250.0,671.0,0.0,0,699.0,1
35,35,0.4690490988049839,0.5,0.0,0.0,337.0,999.0,0.0,1,314.0,1
36,36,-0.18568421042377126,-0.2,1.0,0.0,468.0,655.0,0.0,0,697.0,1
37,37,-0.6780891854814939,-0.7,0.0,1.0,324.0,797.0,1.0,0,179.0,1
38,38,0.15121171784116993,0.2,1.0,1.0,271.0,724.0,1.0,1,375.0,1
39,39,0.056126852297976204,0.1,0.0,0.0,257.0,508.0,0.0,1,1915.0,1
40,40,-0.8612484295171952,-0.9,1.0,0.0,309.0,659.0,0.0,0,192.0,1
41,41,0.2182134420867642,0.2,0.0,0.0,450.0,724.0,0.0,1,876.0,1
42,42,-0.7699976317579504,-0.8,0.0,1.0,255.0,624.0,1.0,0,141.0,1
43,43,-0.6435534269040695,-0.6,1.0,0.0,279.0,760.0,0.0,0,311.0,1
44,44,0.21079779626108286,0.2,0.0,0.0,379.0,735.0,0.0,1,466.0,1
45,45,0.2920289035685829,0.3,0.0,0.0,395.0,665.0,0.0,1,820.0,1
46,46,-0.1632544758378357,-0.2,0.0,1.0,434.0,823.0,1.0,0,383.0,1
47,47,0.45246769163860534,0.5,1.0,1.0,300.0,576.0,1.0,1,144.0,1
48,48,-0.6523895167404994,-0.7,1.0,0.0,431.0,521.0,0.0,0,328.0,1
49,49,0.6614696624880264,0.7,0.0,0.0,410.0,863.0,0.0,1,307.0,1
50,50,-0.38427254374390074,-0.4,0.0,1.0,272.0,767.0,1.0,0,231.0,1
51,51,-0.4640622702959954,-0.5,1.0,0.0,497.0,610.0,0.0,0,243.0,1
52,52,-0.8649757044553155,-0.9,0.0,1.0,472.0,569.0,1.0,0,99.0,1
53,53,0.7662355926928527,0.8,0.0,0.0,404.0,609.0,0.0,1,277.0,1
54,54,0.7680410812105322,0.8,1.0,1.0,330.0,532.0,1.0,1,198.0,1
55,55,0.028667439019457785,0.0,0.0,0.0,358.0,639.0,0.0,1,2003.0,1
56,56,0.8342537277605514,0.8,0.0,0.0,369.0,581.0,0.0,1,240.0,1
57,57,-0.15666852190592007,-0.2,1.0,0.0,394.0,620.0,0.0,0,1216.0,1
58,58,0.7438790426634129,0.7,1.0,1.0,434.0,844.0,1.0,1,92.0,1
59,59,-0.09232393087035295,-0.1,1.0,0.0,363.0,970.0,0.0,0,1667.0,1
60,60,0.2735490956095058,0.3,1.0,1.0,383.0,642.0,1.0,1,555.0,1
61,61,-0.8984503081583844,-0.9,0.0,1.0,268.0,938.0,1.0,0,54.0,1
62,62,-0.18329355972683503,-0.2,1.0,0.0,375.0,681.0,1.0,1,-116.0,0
63,63,-0.015283686848194478,-0.0,0.0,1.0,381.0,746.0,0.0,1,1873.0,0
64,64,0.33919194905142447,0.3,0.0,0.0,473.0,915.0,0.0,1,742.0,1
65,65,0.6880610603164296,0.7,0.0,0.0,482.0,631.0,0.0,1,217.0,1
66,66,0.8875218710153169,0.9,1.0,1.0,253.0,809.0,1.0,1,98.0,1
67,67,0.026301127733582175,0.0,0.0,0.0,470.0,585.0,0.0,1,1945.0,1
68,68,-0.10280041403934237,-0.1,0.0,1.0,258.0,558.0,1.0,0,2184.0,1
69,69,-0.16344144622629253,-0.2,0.0,1.0,328.0,561.0,1.0,0,1201.0,1
70,70,0.7996479645424984,0.8,1.0,1.0,427.0,696.0,1.0,1,107.0,1
71,71,0.6127078802335676,0.6,0.0,0.0,403.0,970.0,0.0,1,337.0,1
72,72,-0.7762208104660265,-0.8,0.0,1.0,459.0,623.0,1.0,0,158.0,1
73,73,0.2594129908154622,0.3,0.0,0.0,470.0,825.0,0.0,1,1385.0,1
74,74,-0.3558346740999445,-0.4,1.0,0.0,255.0,793.0,0.0,0,92.0,1
75,75,-0.19047948756293587,-0.2,1.0,0.0,300.0,646.0,0.0,0,404.0,1
76,76,0.7793324509522545,0.8,1.0,1.0,250.0,861.0,1.0,1,19.0,1
77,77,0.8345439506835141,0.8,1.0,1.0,356.0,634.0,1.0,1,130.0,1
78,78,-0.11982472412109135,-0.1,1.0,0.0,435.0,811.0,0.0,0,374.0,1
79,79,0.3098676435233817,0.3,0.0,0.0,292.0,864.0,0.0,1,184.0,1
80,80,-0.6398869644474603,-0.6,1.0,0.0,272.0,919.0,0.0,0,259.0,1
81,81,-0.20606290103102887,-0.2,0.0,1.0,349.0,548.0,1.0,0,403.0,1
82,82,-0.5697687725481013,-0.6,1.0,0.0,256.0,973.0,1.0,1,-19.0,0
83,83,-0.504063767135208,-0.5,1.0,0.0,476.0,983.0,0.0,0,131.0,1
84,84,0.5987696868708071,0.6,1.0,1.0,305.0,882.0,1.0,1,133.0,1
85,85,-0.7834320569543836,-0.8,0.0,1.0,470.0,820.0,1.0,0,100.0,1
86,86,0.11694877385861313,0.1,0.0,0.0,445.0,716.0,0.0,1,1699.0,1
87,87,0.10526060756984557,0.1,1.0,1.0,301.0,948.0,1.0,1,201.0,1
88,88,0.39632250549285286,0.4,1.0,1.0,407.0,700.0,1.0,1,253.0,1
89,89,0.47090776910139176,0.5,1.0,1.0,317.0,827.0,1.0,1,166.0,1
90,90,0.7113942057371897,0.7,0.0,0.0,399.0,827.0,0.0,1,104.0,1
91,91,0.6515995683399288,0.7,1.0,1.0,340.0,553.0,1.0,1,177.0,1
92,92,0.4875745687361738,0.5,0.0,0.0,302.0,628.0,0.0,1,280.0,1
93,93,0.02724504716716225,0.0,1.0,1.0,431.0,709.0,1.0,1,470.0,1
94,94,-0.591167983884709,-0.6,1.0,0.0,317.0,919.0,0.0,0,144.0,1
95,95,0.4736461147768024,0.5,1.0,1.0,354.0,990.0,1.0,1,166.0,1
96,96,0.812607909668733,0.8,1.0,1.0,347.0,769.0,1.0,1,24.0,1
97,97,-0.13097344935343114,-0.1,0.0,1.0,446.0,836.0,1.0,0,378.0,1
98,98,0.054464499629853225,0.1,0.0,0.0,380.0,879.0,0.0,1,1741.0,1
99,99,-0.7190930844800393,-0.7,1.0,0.0,366.0,908.0,0.0,0,276.0,1
100,100,-0.7633887237165302,-0.8,0.0,1.0,437.0,599.0,1.0,0,194.0,1
101,101,0.3433441863081813,0.3,1.0,1.0,303.0,695.0,1.0,1,62.0,1
102,102,-0.6907915764078324,-0.7,1.0,0.0,251.0,777.0,0.0,0,212.0,1
103,103,0.38430731756708003,0.4,1.0,1.0,256.0,987.0,1.0,1,-143.0,1
104,104,0.6650397595942371,0.7,0.0,0.0,319.0,973.0,0.0,1,218.0,1
105,105,-0.26419175468242506,-0.3,1.0,0.0,423.0,552.0,0.0,0,495.0,1
106,106,-0.8959467795121269,-0.9,0.0,1.0,365.0,827.0,1.0,0,128.0,1
107,107,0.8718871800162241,0.9,1.0,1.0,451.0,665.0,1.0,1,274.0,1
108,108,0.7918937234681401,0.8,1.0,1.0,354.0,956.0,1.0,1,100.0,1
109,109,0.6969440930422105,0.7,0.0,0.0,364.0,933.0,0.0,1,503.0,1
110,110,0.16549263638794842,0.2,1.0,1.0,490.0,932.0,1.0,1,508.0,1
111,111,0.7113152774831809,0.7,1.0,1.0,384.0,598.0,1.0,1,218.0,1
112,112,-0.46317855310745587,-0.5,1.0,0.0,356.0,645.0,0.0,0,359.0,1
113,113,-0.5991130265004083,-0.6,1.0,0.0,411.0,516.0,0.0,0,243.0,1
114,114,-0.4250269305043864,-0.4,0.0,1.0,271.0,602.0,1.0,0,287.0,1
115,115,-0.03223097687252674,-0.0,0.0,1.0,297.0,865.0,0.0,1,1838.0,0
116,116,-0.3867699364707162,-0.4,1.0,0.0,424.0,865.0,0.0,0,531.0,1
117,117,0.69272064681012,0.7,1.0,1.0,336.0,585.0,1.0,1,129.0,1
118,118,0.739524392512149,0.7,1.0,1.0,319.0,504.0,1.0,1,107.0,1
119,119,0.11697592475949403,0.1,1.0,1.0,306.0,882.0,1.0,1,112.0,1
120,120,0.08522229855161056,0.1,0.0,0.0,269.0,806.0,0.0,1,1315.0,1
121,121,0.21499272621328347,0.2,1.0,1.0,262.0,599.0,1.0,1,79.0,1
122,122,-0.454700246974891,-0.5,0.0,1.0,479.0,591.0,1.0,0,120.0,1
123,123,-0.05572127229563362,-0.1,0.0,1.0,307.0,722.0,1.0,0,1971.0,1
124,124,-0.05944939766552748,-0.1,0.0,1.0,300.0,995.0,1.0,0,1705.0,1
125,125,0.4732762809989829,0.5,0.0,0.0,299.0,908.0,0.0,1,413.0,1
126,126,-0.2938631795161468,-0.3,1.0,0.0,472.0,720.0,0.0,0,618.0,1
127,127,-0.49775780269497943,-0.5,1.0,0.0,469.0,635.0,0.0,0,366.0,1
128,128,0.2516982214648421,0.3,0.0,0.0,297.0,604.0,0.0,1,329.0,1
129,129,0.5355278869240251,0.5,0.0,0.0,370.0,527.0,0.0,1,463.0,1
130,130,0.8212454066827847,0.8,1.0,1.0,480.0,887.0,1.0,1,103.0,1
131,131,0.6105349722459895,0.6,1.0,1.0,283.0,814.0,1.0,1,113.0,1
132,132,0.028894020767823658,0.0,0.0,0.0,297.0,980.0,0.0,1,1723.0,1
133,133,-0.007250541394412058,-0.0,1.0,0.0,495.0,963.0,1.0,1,1542.0,0
134,134,-0.12053375929895838,-0.1,0.0,1.0,430.0,750.0,1.0,0,650.0,1
135,135,-0.05033665121754727,-0.1,1.0,0.0,477.0,595.0,0.0,0,1928.0,1
136,136,-0.7338642955800954,-0.7,1.0,0.0,311.0,546.0,0.0,0,293.0,1
137,137,0.5538602418932334,0.6,0.0,0.0,449.0,615.0,0.0,1,326.0,1
138,138,0.25014083786921015,0.3,1.0,1.0,490.0,604.0,1.0,1,136.0,1
139,139,-0.5282254146549556,-0.5,0.0,1.0,404.0,612.0,1.0,0,474.0,1
140,140,0.8533705484120279,0.9,1.0,1.0,331.0,874.0,1.0,1,115.0,1
141,141,-0.09506038459520272,-0.1,0.0,1.0,250.0,813.0,1.0,0,1337.0,1
142,142,0.33846956125120775,0.3,1.0,1.0,354.0,637.0,1.0,1,239.0,1
143,143,-0.7876701240592482,-0.8,0.0,1.0,426.0,783.0,1.0,0,151.0,1
144,144,0.4538649781625773,0.5,1.0,1.0,342.0,625.0,1.0,1,193.0,1
145,145,-0.7891575905646436,-0.8,0.0,1.0,407.0,954.0,1.0,0,129.0,1
146,146,-0.8807280730803304,-0.9,0.0,1.0,404.0,927.0,1.0,0,289.0,1
147,147,-0.15805004089306463,-0.2,1.0,0.0,259.0,653.0,0.0,0,1018.0,1
148,148,0.47902327803139066,0.5,1.0,1.0,358.0,982.0,1.0,1,-20.0,1
149,149,0.3464296278048654,0.3,0.0,0.0,456.0,858.0,0.0,1,286.0,1
150,150,-0.38662553239573394,-0.4,0.0,1.0,313.0,667.0,1.0,0,100.0,1
151,151,-0.14025001325649644,-0.1,1.0,0.0,256.0,945.0,1.0,1,929.0,0
152,152,-0.16199301652912335,-0.2,1.0,0.0,499.0,914.0,0.0,0,837.0,1
153,153,0.6828763872201072,0.7,0.0,0.0,321.0,723.0,0.0,1,216.0,1
154,154,-0.18797205326920807,-0.2,1.0,0.0,495.0,998.0,0.0,0,767.0,1
155,155,0.5482371826959181,0.5,1.0,1.0,263.0,695.0,1.0,1,62.0,1
156,156,-0.4117241237546588,-0.4,0.0,1.0,343.0,513.0,1.0,0,464.0,1
157,157,0.5393689303155206,0.5,1.0,1.0,418.0,836.0,1.0,1,396.0,1
158,158,-0.7507598919053918,-0.8,0.0,1.0,384.0,618.0,1.0,0,108.0,1
159,159,-0.009932082179137436,-0.0,1.0,0.0,339.0,950.0,0.0,0,711.0,1
160,160,0.5792115080709056,0.6,1.0,1.0,389.0,509.0,1.0,1,142.0,1
161,161,0.14392579018910856,0.1,1.0,1.0,423.0,975.0,1.0,1,-18.0,1
162,162,-0.6583740707883294,-0.7,0.0,1.0,406.0,981.0,1.0,0,183.0,1
163,163,-0.017879925936244656,-0.0,0.0,1.0,482.0,555.0,0.0,1,1963.0,0
164,164,0.486829194343393,0.5,0.0,0.0,338.0,554.0,0.0,1,528.0,1
165,165,-0.4373045115579682,-0.4,1.0,0.0,480.0,766.0,0.0,0,224.0,1
166,166,0.41815669285429313,0.4,1.0,1.0,290.0,702.0,1.0,1,198.0,1
167,167,0.7725740548507775,0.8,1.0,1.0,373.0,647.0,1.0,1,240.0,1
168,168,0.8551581648088599,0.9,0.0,0.0,300.0,695.0,0.0,1,425.0,1
169,169,0.1563420649885382,0.2,1.0,1.0,371.0,502.0,1.0,1,637.0,1
170,170,-0.19917628871241888,-0.2,1.0,0.0,391.0,908.0,0.0,0,431.0,1
171,171,-0.17389712777586863,-0.2,1.0,0.0,347.0,767.0,0.0,0,516.0,1
172,172,-0.12752568796167474,-0.1,0.0,1.0,396.0,953.0,1.0,0,1561.0,1
173,173,0.8587362213083495,0.9,0.0,0.0,394.0,887.0,0.0,1,649.0,1
174,174,-0.19523850051563996,-0.2,0.0,1.0,298.0,805.0,1.0,0,517.0,1
175,175,0.8290320366146683,0.8,0.0,0.0,351.0,931.0,0.0,1,358.0,1
176,176,0.8084934205355397,0.8,0.0,0.0,431.0,982.0,0.0,1,177.0,1
177,177,0.47658832854447575,0.5,1.0,1.0,395.0,534.0,1.0,1,471.0,1
178,178,0.11555439612158425,0.1,0.0,0.0,437.0,946.0,0.0,1,1617.0,1
179,179,-0.572910104878561,-0.6,0.0,1.0,408.0,902.0,1.0,0,280.0,1
180,180,0.7548247195596359,0.8,0.0,0.0,481.0,949.0,0.0,1,120.0,1
181,181,0.5218402126310019,0.5,1.0,1.0,325.0,656.0,1.0,1,29.0,1
182,182,0.03729242327351456,0.0,1.0,1.0,381.0,848.0,1.0,1,471.0,1
183,183,0.39365871135967734,0.4,1.0,1.0,343.0,709.0,1.0,1,128.0,1
184,184,-0.5112704783835993,-0.5,0.0,1.0,450.0,852.0,1.0,0,228.0,1
185,185,0.2420153555450063,0.2,0.0,0.0,359.0,737.0,0.0,1,854.0,1
186,186,-0.0741522138665125,-0.1,1.0,0.0,400.0,736.0,0.0,0,1294.0,1
187,187,-0.39931879688018357,-0.4,0.0,1.0,403.0,558.0,1.0,0,269.0,1
188,188,0.7713644998885839,0.8,0.0,0.0,374.0,513.0,0.0,1,253.0,1
189,189,-0.7826862657028936,-0.8,1.0,0.0,254.0,613.0,0.0,0,83.0,1
190,190,0.6018706642560857,0.6,0.0,0.0,278.0,756.0,0.0,1,326.0,1
191,191,0.6914210990270463,0.7,1.0,1.0,295.0,707.0,1.0,1,128.0,1
192,192,0.6530791746455612,0.7,1.0,1.0,350.0,880.0,1.0,1,210.0,1
193,193,-0.33452464708949103,-0.3,0.0,1.0,466.0,894.0,1.0,0,190.0,1
194,194,0.8536648566935304,0.9,1.0,1.0,451.0,845.0,1.0,1,74.0,1
195,195,-0.6009293987220414,-0.6,0.0,1.0,353.0,814.0,1.0,0,83.0,1
196,196,-0.5645941093606265,-0.6,0.0,1.0,407.0,923.0,1.0,0,90.0,1
197,197,0.06378005892333094,0.1,1.0,1.0,307.0,985.0,1.0,1,-542.0,1
198,198,0.0018844965276982872,0.0,1.0,1.0,288.0,653.0,1.0,1,2059.0,1
199,199,0.2915916373184485,0.3,0.0,0.0,379.0,728.0,0.0,1,423.0,1
200,200,-0.8275400418109656,-0.8,0.0,1.0,360.0,588.0,1.0,0,62.0,1
201,201,-0.8948285605058323,-0.9,0.0,1.0,472.0,713.0,1.0,0,165.0,1
202,202,0.16847063626200132,0.2,0.0,0.0,384.0,781.0,0.0,1,755.0,1
203,203,0.8853171813726987,0.9,0.0,0.0,282.0,628.0,0.0,1,130.0,1
204,204,-0.03700333149475521,-0.0,1.0,0.0,267.0,521.0,1.0,1,1812.0,0
205,205,0.19339981987931865,0.2,1.0,1.0,482.0,728.0,1.0,1,250.0,1
206,206,-0.5128165671468319,-0.5,1.0,0.0,395.0,768.0,0.0,0,307.0,1
207,207,0.5402401203968762,0.5,0.0,0.0,378.0,675.0,0.0,1,697.0,1
208,208,0.5147825965012695,0.5,0.0,0.0,463.0,712.0,0.0,1,215.0,1
209,209,0.6736187718691676,0.7,0.0,0.0,318.0,684.0,0.0,1,278.0,1
210,210,-0.37922925629359017,-0.4,1.0,0.0,442.0,572.0,0.0,0,836.0,1
211,211,-0.29347590761059805,-0.3,1.0,0.0,355.0,510.0,0.0,0,565.0,1
212,212,-0.068818922252743,-0.1,1.0,0.0,363.0,656.0,1.0,1,411.0,0
213,213,0.005491041818810993,0.0,1.0,1.0,463.0,547.0,1.0,1,1710.0,1
214,214,-0.3484719477163414,-0.3,0.0,1.0,291.0,996.0,1.0,0,233.0,1
215,215,-0.6603177970691338,-0.7,1.0,0.0,446.0,533.0,0.0,0,241.0,1
216,216,0.16273931820375054,0.2,0.0,0.0,332.0,892.0,0.0,1,786.0,1
217,217,-0.789572325449749,-0.8,0.0,1.0,498.0,618.0,1.0,0,184.0,1
218,218,0.36469898696775027,0.4,1.0,1.0,255.0,507.0,1.0,1,248.0,1
219,219,0.5732208382051526,0.6,1.0,1.0,447.0,539.0,1.0,1,94.0,1
220,220,-0.44474286501511545,-0.4,0.0,1.0,462.0,576.0,1.0,0,232.0,1
221,221,0.6924715421798674,0.7,1.0,1.0,368.0,900.0,1.0,1,112.0,1
222,222,0.7644517034208985,0.8,1.0,1.0,472.0,809.0,1.0,1,49.0,1
223,223,0.005062974677636833,0.0,1.0,1.0,306.0,712.0,1.0,1,1952.0,1
224,224,-0.4704005489168535,-0.5,0.0,1.0,336.0,842.0,1.0,0,202.0,1
225,225,-0.7530729770283275,-0.8,1.0,0.0,288.0,726.0,0.0,0,196.0,1
226,226,-0.24508476758715136,-0.2,1.0,0.0,436.0,747.0,0.0,0,947.0,1
227,227,-0.8861497762684699,-0.9,0.0,1.0,464.0,879.0,1.0,0,117.0,1
228,228,-0.4297259270870882,-0.4,0.0,1.0,327.0,683.0,1.0,0,300.0,1
229,229,-0.8299469717857492,-0.8,1.0,0.0,301.0,835.0,0.0,0,144.0,1
230,230,0.007795535559726119,0.0,1.0,1.0,282.0,997.0,0.0,0,1721.0,0
231,231,0.49402848844423486,0.5,0.0,0.0,399.0,794.0,0.0,1,287.0,1
232,232,0.053305569427494204,0.1,0.0,0.0,295.0,629.0,0.0,1,2076.0,1
233,233,0.3460884461184598,0.3,0.0,0.0,278.0,733.0,0.0,1,639.0,1
234,234,0.8551842751778006,0.9,0.0,0.0,459.0,797.0,0.0,1,104.0,1
235,235,-0.1285853687260623,-0.1,1.0,0.0,302.0,951.0,0.0,0,857.0,1
236,236,-0.05032915259461812,-0.1,0.0,1.0,342.0,566.0,0.0,1,2092.0,0
237,237,0.023947017458999853,0.0,0.0,0.0,380.0,799.0,0.0,1,1821.0,1
238,238,-0.24933571252746634,-0.2,0.0,1.0,470.0,536.0,1.0,0,164.0,1
239,239,-0.36907042829556824,-0.4,1.0,0.0,300.0,590.0,0.0,0,300.0,1
240,240,-0.6866321775563319,-0.7,1.0,0.0,276.0,627.0,0.0,0,197.0,1
241,241,-0.6444849480443655,-0.6,0.0,1.0,471.0,650.0,1.0,0,149.0,1
242,242,0.7011530881449691,0.7,1.0,1.0,492.0,643.0,1.0,1,195.0,1
243,243,-0.01438393130759219,-0.0,0.0,1.0,324.0,695.0,0.0,1,1981.0,0
244,244,-0.40682978376981943,-0.4,0.0,1.0,463.0,738.0,1.0,0,79.0,1
245,245,-0.8279285507875442,-0.8,1.0,0.0,377.0,951.0,0.0,0,282.0,1
246,246,-0.2566198512822676,-0.3,1.0,0.0,421.0,852.0,0.0,0,447.0,1
247,247,-0.6664463439960955,-0.7,1.0,0.0,254.0,564.0,0.0,0,362.0,1
248,248,-0.041492616593106435,-0.0,0.0,1.0,392.0,618.0,1.0,0,820.0,1
249,249,0.16521698733790757,0.2,0.0,0.0,296.0,755.0,0.0,1,429.0,1
250,250,0.3554639388393567,0.4,0.0,0.0,377.0,748.0,0.0,1,515.0,1
251,251,-0.7187068485746297,-0.7,1.0,0.0,455.0,674.0,0.0,0,141.0,1
252,252,-0.8026400700494017,-0.8,1.0,0.0,369.0,716.0,0.0,0,105.0,1
253,253,0.36427373908524807,0.4,1.0,1.0,340.0,728.0,1.0,1,162.0,1
254,254,0.7378276773078541,0.7,1.0,1.0,430.0,834.0,1.0,1,166.0,1
255,255,-0.5908189210827806,-0.6,1.0,0.0,473.0,593.0,0.0,0,174.0,1
256,256,-0.7134142091725895,-0.7,1.0,0.0,417.0,640.0,0.0,0,363.0,1
257,257,-0.21258709135370102,-0.2,0.0,1.0,491.0,831.0,1.0,0,788.0,1
258,258,-0.7437278973158644,-0.7,1.0,0.0,405.0,982.0,0.0,0,213.0,1
259,259,-0.8412617919051659,-0.8,1.0,0.0,352.0,535.0,0.0,0,263.0,1
260,260,0.21011393418094737,0.2,1.0,1.0,347.0,577.0,1.0,1,286.0,1
261,261,-0.6892306033362171,-0.7,1.0,0.0,485.0,625.0,0.0,0,370.0,1
262,262,0.41133788036482366,0.4,1.0,1.0,404.0,812.0,1.0,1,74.0,1
263,263,0.4167447148779454,0.4,1.0,1.0,442.0,968.0,1.0,1,110.0,1
264,264,0.3794460268438157,0.4,1.0,1.0,293.0,998.0,1.0,1,-141.0,1
265,265,0.5276591781999086,0.5,1.0,1.0,310.0,756.0,1.0,1,814.0,1
266,266,0.8217023924903152,0.8,0.0,0.0,472.0,576.0,0.0,1,212.0,1
267,267,-0.12116585568581761,-0.1,0.0,1.0,490.0,516.0,1.0,0,714.0,1
268,268,-0.4441544661457725,-0.4,0.0,1.0,282.0,637.0,1.0,0,231.0,1
269,269,-0.3584192990969901,-0.4,0.0,1.0,491.0,770.0,1.0,0,259.0,1
270,270,-0.6214967903635062,-0.6,1.0,0.0,265.0,594.0,0.0,0,301.0,1
271,271,-0.19428276005454415,-0.2,0.0,1.0,347.0,762.0,1.0,0,641.0,1
272,272,-0.45184236518420395,-0.5,0.0,1.0,293.0,605.0,1.0,0,292.0,1
273,273,0.8250081079977049,0.8,1.0,1.0,337.0,747.0,1.0,1,146.0,1
274,274,0.802592930509661,0.8,0.0,0.0,270.0,508.0,0.0,1,212.0,1
275,275,0.3219450459028016,0.3,1.0,1.0,272.0,899.0,1.0,1,179.0,1
276,276,0.06959940723623703,0.1,1.0,1.0,463.0,948.0,1.0,1,-171.0,1
277,277,0.8742985803125999,0.9,0.0,0.0,336.0,590.0,0.0,1,454.0,1
278,278,0.6070325148880445,0.6,1.0,1.0,486.0,515.0,1.0,1,329.0,1
279,279,0.19469157907253576,0.2,1.0,1.0,493.0,816.0,1.0,1,211.0,1
280,280,-0.14757443474844856,-0.1,1.0,0.0,273.0,802.0,1.0,1,45.0,0
281,281,0.21582487620509394,0.2,1.0,1.0,266.0,785.0,1.0,1,299.0,1
282,282,-0.4335705888524661,-0.4,1.0,0.0,474.0,950.0,0.0,0,206.0,1
283,283,-0.8138521810713985,-0.8,1.0,0.0,347.0,736.0,0.0,0,97.0,1
284,284,-0.6431264062732822,-0.6,0.0,1.0,350.0,779.0,1.0,0,141.0,1
285,285,-0.873151708428674,-0.9,1.0,0.0,356.0,725.0,0.0,0,339.0,1
286,286,0.6905211932851639,0.7,1.0,1.0,364.0,926.0,1.0,1,70.0,1
287,287,-0.5095082908663044,-0.5,1.0,0.0,264.0,903.0,0.0,0,153.0,1
288,288,-0.16548259571803325,-0.2,1.0,0.0,268.0,585.0,0.0,0,1387.0,1
289,289,0.10893550425044973,0.1,0.0,0.0,283.0,665.0,0.0,1,1262.0,1
290,290,-0.8213800661936826,-0.8,0.0,1.0,495.0,972.0,1.0,0,203.0,1
291,291,-0.3690374176375585,-0.4,0.0,1.0,355.0,872.0,1.0,0,213.0,1
292,292,-0.7611998529680979,-0.8,1.0,0.0,494.0,819.0,0.0,0,157.0,1
293,293,-0.14975529415937416,-0.1,0.0,1.0,295.0,906.0,1.0,0,1609.0,1
294,294,-0.3353002871899987,-0.3,1.0,0.0,263.0,974.0,0.0,0,483.0,1
295,295,-0.7206526021617258,-0.7,1.0,0.0,346.0,982.0,1.0,1,-138.0,0
296,296,-0.37633565832892324,-0.4,1.0,0.0,303.0,974.0,0.0,0,403.0,1
297,297,-0.17066197531654648,-0.2,0.0,1.0,436.0,501.0,1.0,0,663.0,1
298,298,-0.28733227827551766,-0.3,1.0,0.0,323.0,656.0,0.0,0,621.0,1
299,299,0.3756064502038462,0.4,0.0,0.0,401.0,764.0,0.0,1,475.0,1
300,300,0.5477211427516634,0.5,0.0,0.0,352.0,876.0,0.0,1,252.0,1
301,301,0.21228966824853368,0.2,0.0,0.0,289.0,718.0,0.0,1,883.0,1
302,302,-0.26685468112408595,-0.3,0.0,1.0,285.0,827.0,1.0,0,208.0,1
303,303,0.3876176452992327,0.4,1.0,1.0,499.0,933.0,1.0,1,228.0,1
304,304,0.26209544875333923,0.3,1.0,1.0,415.0,839.0,1.0,1,246.0,1
305,305,0.8463325586432143,0.8,0.0,0.0,471.0,603.0,0.0,1,206.0,1
306,306,-0.037016463240877595,-0.0,0.0,1.0,403.0,614.0,1.0,0,1983.0,1
307,307,0.7638856742310945,0.8,1.0,1.0,287.0,641.0,1.0,1,212.0,1
308,308,-0.32580948403072585,-0.3,0.0,1.0,366.0,653.0,1.0,0,261.0,1
309,309,0.24523520920208564,0.2,1.0,1.0,487.0,508.0,1.0,1,505.0,1
310,310,0.8924871310774801,0.9,0.0,0.0,254.0,630.0,0.0,1,186.0,1
311,311,-0.30812808299655325,-0.3,0.0,1.0,370.0,830.0,1.0,0,-70.0,1
312,312,-0.5348843926526295,-0.5,1.0,0.0,379.0,713.0,0.0,0,278.0,1
313,313,0.5634189550368299,0.6,1.0,1.0,258.0,596.0,1.0,1,186.0,1
314,314,-0.7646815410560873,-0.8,0.0,1.0,368.0,534.0,1.0,0,218.0,1
315,315,-0.642881671372894,-0.6,0.0,1.0,343.0,625.0,1.0,0,292.0,1
316,316,-0.7168081759566541,-0.7,0.0,1.0,436.0,530.0,1.0,0,104.0,1
317,317,-0.8742249642349516,-0.9,0.0,1.0,378.0,792.0,1.0,0,140.0,1
318,318,0.6680741500225625,0.7,0.0,0.0,481.0,892.0,0.0,1,247.0,1
319,319,-0.5520976993768528,-0.6,1.0,0.0,430.0,648.0,0.0,0,172.0,1
320,320,-0.3717278557118827,-0.4,1.0,0.0,392.0,806.0,0.0,0,442.0,1
321,321,0.6231971709673655,0.6,1.0,1.0,255.0,675.0,1.0,1,180.0,1
322,322,-0.29246009305810416,-0.3,1.0,0.0,335.0,612.0,0.0,0,803.0,1
323,323,0.1798249436963627,0.2,1.0,1.0,346.0,830.0,1.0,1,214.0,1
324,324,-0.5998948346490875,-0.6,1.0,0.0,321.0,501.0,0.0,0,238.0,1
325,325,0.8107165358927056,0.8,0.0,0.0,419.0,581.0,0.0,1,290.0,1
326,326,-0.6094538431412191,-0.6,0.0,1.0,353.0,850.0,1.0,0,147.0,1
327,327,-0.8884737716042721,-0.9,1.0,0.0,420.0,686.0,0.0,0,164.0,1
328,328,0.0952954663793597,0.1,1.0,1.0,372.0,978.0,1.0,1,-210.0,1
329,329,0.017467682518351957,0.0,1.0,1.0,344.0,675.0,1.0,1,1301.0,1
330,330,0.34983596738067246,0.3,0.0,0.0,498.0,973.0,0.0,1,409.0,1
331,331,0.12551355293550948,0.1,0.0,0.0,402.0,625.0,0.0,1,1973.0,1
332,332,-0.37064519282917474,-0.4,1.0,0.0,336.0,863.0,0.0,0,341.0,1
333,333,0.6556378970306108,0.7,1.0,1.0,496.0,637.0,1.0,1,97.0,1
334,334,-0.8240667244181692,-0.8,0.0,1.0,466.0,582.0,1.0,0,262.0,1
335,335,0.12969506323984537,0.1,0.0,0.0,468.0,595.0,0.0,1,1937.0,1
336,336,0.37693759151500983,0.4,1.0,1.0,284.0,852.0,1.0,1,44.0,1
337,337,-0.7449465498034328,-0.7,0.0,1.0,356.0,815.0,1.0,0,289.0,1
338,338,0.3414844465620569,0.3,0.0,0.0,303.0,663.0,0.0,1,204.0,1
339,339,0.2092682247102743,0.2,1.0,1.0,342.0,615.0,1.0,1,453.0,1
340,340,0.8530572987693962,0.9,1.0,1.0,462.0,764.0,1.0,1,124.0,1
341,341,0.4358052047522284,0.4,1.0,1.0,292.0,704.0,1.0,1,294.0,1
342,342,-0.4154140824087125,-0.4,1.0,0.0,388.0,754.0,0.0,0,248.0,1
343,343,0.44668458119813936,0.4,0.0,0.0,305.0,553.0,0.0,1,272.0,1
344,344,-0.38637119036149514,-0.4,0.0,1.0,388.0,793.0,1.0,0,189.0,1
345,345,0.52078292626281,0.5,1.0,1.0,365.0,797.0,1.0,1,8.0,1
346,346,0.7199360727515719,0.7,0.0,0.0,306.0,971.0,0.0,1,643.0,1
347,347,0.27382950045708687,0.3,0.0,0.0,263.0,637.0,0.0,1,550.0,1
348,348,0.4469277849743195,0.4,0.0,0.0,306.0,960.0,0.0,1,214.0,1
349,349,0.8722525564280178,0.9,1.0,1.0,370.0,824.0,1.0,1,106.0,1
350,350,-0.8207699520349586,-0.8,0.0,1.0,375.0,550.0,1.0,0,105.0,1
351,351,0.27835851253649835,0.3,0.0,0.0,285.0,800.0,0.0,1,445.0,1
352,352,0.137632461915287,0.1,1.0,1.0,331.0,728.0,1.0,1,471.0,1
353,353,-0.7191824674919188,-0.7,1.0,0.0,491.0,825.0,0.0,0,364.0,1
354,354,-0.6509606570286877,-0.7,1.0,0.0,339.0,815.0,0.0,0,96.0,1
355,355,-0.40197711080614923,-0.4,0.0,1.0,264.0,820.0,1.0,0,406.0,1
356,356,0.24090569685757435,0.2,0.0,0.0,365.0,911.0,0.0,1,414.0,1
357,357,-0.26196093910370055,-0.3,0.0,1.0,426.0,601.0,1.0,0,413.0,1
358,358,0.7712293452807212,0.8,0.0,0.0,403.0,515.0,0.0,1,172.0,1
359,359,-0.7763435304138303,-0.8,0.0,1.0,497.0,590.0,1.0,0,143.0,1
360,360,-0.10015973554925794,-0.1,1.0,0.0,485.0,589.0,0.0,0,1926.0,1
361,361,0.5499661787534121,0.5,1.0,1.0,464.0,830.0,1.0,1,126.0,1
362,362,0.843408588510912,0.8,0.0,0.0,407.0,880.0,0.0,1,253.0,1
363,363,-0.259042714635237,-0.3,0.0,1.0,330.0,831.0,1.0,0,179.0,1
364,364,0.7268523148064189,0.7,0.0,0.0,479.0,642.0,0.0,1,189.0,1
365,365,-0.34124736340174044,-0.3,1.0,0.0,272.0,910.0,0.0,0,428.0,1
366,366,-0.6700008783406115,-0.7,1.0,0.0,298.0,790.0,0.0,0,112.0,1
367,367,0.3899582522736146,0.4,0.0,0.0,367.0,712.0,0.0,1,441.0,1
368,368,-0.5591902409491594,-0.6,0.0,1.0,260.0,696.0,1.0,0,354.0,1
369,369,0.17461008601182548,0.2,0.0,0.0,453.0,740.0,0.0,1,697.0,1
370,370,-0.06661814079159878,-0.1,1.0,0.0,378.0,860.0,1.0,1,1762.0,0
371,371,0.4116143637829456,0.4,0.0,0.0,313.0,679.0,0.0,1,368.0,1
372,372,-0.4379781303652378,-0.4,0.0,1.0,366.0,845.0,1.0,0,159.0,1
373,373,-0.5603250578255394,-0.6,1.0,0.0,399.0,981.0,1.0,1,40.0,0
374,374,0.68688086679928,0.7,1.0,1.0,425.0,542.0,1.0,1,263.0,1
375,375,0.4424204303477387,0.4,0.0,0.0,346.0,946.0,0.0,1,188.0,1
376,376,0.5219798007473554,0.5,1.0,1.0,296.0,836.0,1.0,1,158.0,1
377,377,-0.43070304628494754,-0.4,1.0,0.0,286.0,649.0,0.0,0,315.0,1
378,378,0.4712374192227101,0.5,0.0,0.0,292.0,860.0,0.0,1,398.0,1
379,379,-0.3339337171712524,-0.3,0.0,1.0,303.0,644.0,1.0,0,133.0,1
380,380,0.14717362689403368,0.1,1.0,1.0,364.0,862.0,1.0,1,84.0,1
381,381,-0.6147809789154923,-0.6,1.0,0.0,477.0,642.0,0.0,0,271.0,1
382,382,-0.5314316138401665,-0.5,1.0,0.0,450.0,622.0,0.0,0,238.0,1
383,383,0.4864059561407167,0.5,0.0,0.0,333.0,561.0,0.0,1,286.0,1
384,384,-0.8553850092391702,-0.9,0.0,1.0,284.0,595.0,1.0,0,81.0,1
385,385,0.04910906188608266,0.0,1.0,1.0,353.0,836.0,1.0,1,471.0,1
386,386,0.16938093679667843,0.2,1.0,1.0,293.0,737.0,1.0,1,250.0,1
387,387,0.33167536762218586,0.3,0.0,0.0,498.0,521.0,0.0,1,461.0,1
388,388,0.034119615596960085,0.0,0.0,0.0,467.0,727.0,0.0,1,1806.0,1
389,389,-0.12871809524143263,-0.1,0.0,1.0,458.0,634.0,1.0,0,1498.0,1
390,390,-0.012790446202910699,-0.0,1.0,0.0,469.0,766.0,1.0,1,1765.0,0
391,391,0.38996773963079023,0.4,1.0,1.0,261.0,591.0,1.0,1,248.0,1
392,392,0.07433840709483786,0.1,1.0,1.0,285.0,768.0,1.0,1,257.0,1
393,393,0.1692670771823278,0.2,1.0,1.0,381.0,945.0,1.0,1,724.0,1
394,394,-0.13558071284755768,-0.1,1.0,0.0,372.0,931.0,0.0,0,1207.0,1
395,395,-0.35482004978916915,-0.4,0.0,1.0,337.0,673.0,1.0,0,200.0,1
396,396,0.18594119515986296,0.2,1.0,1.0,365.0,571.0,1.0,1,94.0,1
397,397,-0.01717343208854749,-0.0,0.0,1.0,380.0,654.0,1.0,0,1116.0,1
398,398,0.43716929149930717,0.4,0.0,0.0,378.0,722.0,0.0,1,610.0,1
399,399,-0.34314059897830873,-0.3,1.0,0.0,474.0,667.0,0.0,0,379.0,1
400,400,-0.05586435690243963,-0.1,1.0,0.0,401.0,926.0,0.0,0,1673.0,1
401,401,0.2813099854192339,0.3,0.0,0.0,465.0,859.0,0.0,1,396.0,1
402,402,-0.7348785993122471,-0.7,1.0,0.0,279.0,674.0,0.0,0,177.0,1
403,403,-0.20472374251386782,-0.2,1.0,0.0,424.0,783.0,1.0,1,303.0,0
404,404,0.29350500689905046,0.3,1.0,1.0,446.0,708.0,1.0,1,346.0,1
405,405,-0.8956423865662968,-0.9,1.0,0.0,277.0,727.0,0.0,0,176.0,1
406,406,-0.38767096768436715,-0.4,0.0,1.0,414.0,512.0,1.0,0,324.0,1
407,407,0.22815283444607692,0.2,0.0,0.0,448.0,759.0,0.0,1,353.0,1
408,408,0.382582635902183,0.4,1.0,1.0,287.0,573.0,1.0,1,320.0,1
409,409,0.08729529457334784,0.1,0.0,0.0,446.0,716.0,0.0,1,1728.0,1
410,410,-0.5262360950524392,-0.5,1.0,0.0,415.0,915.0,0.0,0,340.0,1
411,411,-0.6520592500022563,-0.7,0.0,1.0,336.0,700.0,1.0,0,144.0,1
412,412,-0.014230056615925024,-0.0,0.0,1.0,284.0,832.0,1.0,0,1884.0,1
413,413,-0.0666350861949836,-0.1,1.0,0.0,496.0,820.0,0.0,0,1304.0,1
414,414,0.3679899127452261,0.4,0.0,0.0,287.0,849.0,0.0,1,94.0,1
415,415,-0.5757898736837307,-0.6,1.0,0.0,441.0,751.0,0.0,0,268.0,1
416,416,-0.6979114225061082,-0.7,0.0,1.0,441.0,518.0,1.0,0,171.0,1
417,417,-0.09298819080268172,-0.1,1.0,0.0,280.0,786.0,0.0,0,1934.0,1
418,418,0.8514831335325815,0.9,0.0,0.0,413.0,967.0,0.0,1,520.0,1
419,419,0.22180093723168504,0.2,0.0,0.0,302.0,541.0,0.0,1,1327.0,1
420,420,0.5637093866147435,0.6,1.0,1.0,482.0,584.0,1.0,1,224.0,1
421,421,-0.5700016055261762,-0.6,1.0,0.0,303.0,925.0,0.0,0,142.0,1
422,422,0.06576727224309187,0.1,0.0,0.0,288.0,857.0,0.0,1,1465.0,1
423,423,-0.8050734147465691,-0.8,0.0,1.0,327.0,821.0,1.0,0,192.0,1
424,424,0.4703955224266806,0.5,0.0,0.0,288.0,562.0,0.0,1,240.0,1
425,425,-0.5985050464786243,-0.6,0.0,1.0,290.0,883.0,1.0,0,117.0,1
426,426,-0.37116700702501526,-0.4,0.0,1.0,418.0,661.0,1.0,0,21.0,1
427,427,-0.6929848618178368,-0.7,0.0,1.0,408.0,778.0,1.0,0,234.0,1
428,428,-0.6597071781721534,-0.7,0.0,1.0,449.0,697.0,1.0,0,214.0,1
429,429,0.5344463788259587,0.5,0.0,0.0,440.0,623.0,0.0,1,507.0,1
430,430,0.18746917004066643,0.2,1.0,1.0,263.0,508.0,1.0,1,539.0,1
431,431,0.8248636561908581,0.8,0.0,0.0,461.0,961.0,0.0,1,198.0,1
432,432,0.7123584517298517,0.7,1.0,1.0,486.0,957.0,1.0,1,177.0,1
433,433,-0.8578080955234104,-0.9,0.0,1.0,361.0,529.0,1.0,0,90.0,1
434,434,-0.47986618997988906,-0.5,0.0,1.0,293.0,853.0,1.0,0,154.0,1
435,435,0.3905934375764196,0.4,0.0,0.0,459.0,594.0,0.0,1,587.0,1
436,436,-0.024593700604015445,-0.0,0.0,1.0,357.0,523.0,0.0,1,2120.0,0
437,437,-0.07385837880190604,-0.1,1.0,0.0,360.0,891.0,0.0,0,1749.0,1
438,438,0.8130728340938066,0.8,0.0,0.0,337.0,921.0,0.0,1,122.0,1
439,439,0.2334643747791757,0.2,1.0,1.0,346.0,940.0,1.0,1,184.0,1
440,440,-0.8375700089896028,-0.8,0.0,1.0,333.0,637.0,1.0,0,120.0,1
441,441,-0.18229868580658493,-0.2,0.0,1.0,336.0,989.0,1.0,0,245.0,1
442,442,-0.479394725789038,-0.5,1.0,0.0,268.0,574.0,0.0,0,248.0,1
443,443,-0.5580789430000944,-0.6,0.0,1.0,497.0,637.0,1.0,0,116.0,1
444,444,0.47572740278285897,0.5,0.0,0.0,279.0,788.0,0.0,1,313.0,1
445,445,-0.4856318533931292,-0.5,1.0,0.0,491.0,581.0,0.0,0,488.0,1
446,446,-0.34768105346829914,-0.3,1.0,0.0,265.0,602.0,0.0,0,623.0,1
447,447,0.8160888823497264,0.8,1.0,1.0,343.0,731.0,1.0,1,86.0,1
448,448,-0.1510043227993605,-0.2,1.0,0.0,435.0,513.0,0.0,0,562.0,1
449,449,-0.25886325699868373,-0.3,0.0,1.0,459.0,808.0,1.0,0,403.0,1
450,450,-0.8964840233408972,-0.9,0.0,1.0,469.0,579.0,1.0,0,152.0,1
451,451,0.38856419448163526,0.4,1.0,1.0,464.0,797.0,1.0,1,259.0,1
452,452,0.5625822715526209,0.6,1.0,1.0,427.0,708.0,1.0,1,145.0,1
453,453,0.8357658450412863,0.8,0.0,0.0,437.0,919.0,0.0,1,224.0,1
454,454,0.14353956475417584,0.1,0.0,0.0,462.0,689.0,0.0,1,1759.0,1
455,455,0.7016991537298606,0.7,1.0,1.0,304.0,765.0,1.0,1,61.0,1
456,456,0.4366451228559384,0.4,1.0,1.0,455.0,909.0,1.0,1,116.0,1
457,457,0.31174138237311977,0.3,1.0,1.0,474.0,770.0,1.0,1,286.0,1
458,458,-0.4907179759746263,-0.5,1.0,0.0,479.0,676.0,0.0,0,345.0,1
459,459,-0.5850566911713428,-0.6,1.0,0.0,295.0,672.0,0.0,0,353.0,1
460,460,0.44133956640582916,0.4,0.0,0.0,391.0,872.0,0.0,1,207.0,1
461,461,-0.3331502419255411,-0.3,0.0,1.0,405.0,927.0,1.0,0,218.0,1
462,462,0.2608174582635029,0.3,1.0,1.0,262.0,692.0,1.0,1,266.0,1
463,463,-0.6611610439294555,-0.7,0.0,1.0,384.0,907.0,1.0,0,279.0,1
464,464,0.08642392400604948,0.1,0.0,0.0,368.0,703.0,0.0,1,1929.0,1
465,465,0.43564635609904256,0.4,1.0,1.0,277.0,765.0,1.0,1,168.0,1
466,466,-0.2545808562097127,-0.3,1.0,0.0,364.0,870.0,0.0,0,196.0,1
467,467,-0.6664576580663564,-0.7,0.0,1.0,317.0,508.0,1.0,0,265.0,1
468,468,0.4022932140604526,0.4,0.0,0.0,255.0,845.0,0.0,1,450.0,1
469,469,0.7397436313067368,0.7,1.0,1.0,468.0,508.0,1.0,1,34.0,1
470,470,-0.13065865730409143,-0.1,0.0,1.0,438.0,588.0,1.0,0,1094.0,1
471,471,0.05370630834365431,0.1,1.0,1.0,262.0,578.0,1.0,1,370.0,1
472,472,0.5537241119291,0.6,1.0,1.0,259.0,854.0,1.0,1,157.0,1
473,473,-0.020172689873395266,-0.0,0.0,1.0,446.0,713.0,1.0,0,1841.0,1
474,474,-0.3769061009137421,-0.4,0.0,1.0,278.0,834.0,1.0,0,158.0,1
475,475,-0.7552168275919253,-0.8,1.0,0.0,314.0,948.0,0.0,0,208.0,1
476,476,-0.5879019156386298,-0.6,1.0,0.0,380.0,906.0,1.0,1,-26.0,0
477,477,0.12789841024617055,0.1,1.0,1.0,449.0,903.0,1.0,1,98.0,1
478,478,-0.16512572327764596,-0.2,1.0,0.0,405.0,568.0,0.0,0,857.0,1
479,479,0.37947883818004813,0.4,1.0,1.0,340.0,734.0,1.0,1,76.0,1
480,480,-0.29088350873274693,-0.3,1.0,0.0,409.0,508.0,0.0,0,293.0,1
481,481,-0.7350414170610455,-0.7,1.0,0.0,331.0,867.0,0.0,0,242.0,1
482,482,-0.2151539935629,-0.2,1.0,0.0,311.0,928.0,0.0,0,401.0,1
483,483,0.8867221313549537,0.9,0.0,0.0,360.0,877.0,0.0,1,423.0,1
484,484,0.8201864872067587,0.8,0.0,0.0,369.0,936.0,0.0,1,355.0,1
485,485,-0.7824104952116657,-0.8,0.0,1.0,426.0,724.0,1.0,0,140.0,1
486,486,0.26761796454686515,0.3,0.0,0.0,403.0,804.0,0.0,1,343.0,1
487,487,0.7966275106726376,0.8,1.0,1.0,341.0,559.0,1.0,1,330.0,1
488,488,-0.11798690071247975,-0.1,1.0,0.0,323.0,758.0,1.0,1,49.0,0
489,489,-0.06915790349531559,-0.1,0.0,1.0,281.0,808.0,1.0,0,1911.0,1
490,490,0.8379488575132975,0.8,1.0,1.0,275.0,598.0,1.0,1,77.0,1
491,491,0.8115739490448234,0.8,1.0,1.0,351.0,657.0,1.0,1,92.0,1
492,492,0.553780616763838,0.6,0.0,0.0,295.0,544.0,0.0,1,101.0,1
493,493,0.6024216484829469,0.6,1.0,1.0,333.0,883.0,1.0,1,64.0,1
494,494,0.857047620104712,0.9,0.0,0.0,344.0,905.0,0.0,1,-49.0,1
495,495,0.7428622786748093,0.7,1.0,1.0,442.0,791.0,1.0,1,57.0,1
496,496,0.8463319833913686,0.8,0.0,0.0,439.0,820.0,0.0,1,261.0,1
497,497,0.7960371925529731,0.8,1.0,1.0,263.0,537.0,1.0,1,400.0,1
498,498,-0.2575600901962084,-0.3,1.0,0.0,343.0,870.0,0.0,0,437.0,1
499,499,0.21020182183445557,0.2,1.0,1.0,282.0,670.0,1.0,1,568.0,1
500,500,-0.0980692289704348,-0.1,0.0,1.0,381.0,748.0,1.0,0,1871.0,1
501,501,0.5341686283602026,0.5,0.0,0.0,371.0,915.0,0.0,1,344.0,1
502,502,-0.790910254390057,-0.8,0.0,1.0,351.0,683.0,1.0,0,126.0,1
503,503,-0.6340419061053876,-0.6,1.0,0.0,270.0,716.0,0.0,0,194.0,1
504,504,-0.8735621193776365,-0.9,1.0,0.0,290.0,637.0,0.0,0,143.0,1
505,505,0.5719777771269844,0.6,0.0,0.0,489.0,581.0,0.0,1,410.0,1
506,506,0.4128136726961099,0.4,1.0,1.0,276.0,763.0,1.0,1,211.0,1
507,507,-0.25539953285636974,-0.3,1.0,0.0,344.0,629.0,0.0,0,1127.0,1
508,508,-0.5624404017352199,-0.6,0.0,1.0,496.0,649.0,1.0,0,235.0,1
509,509,0.023203952962192242,0.0,1.0,1.0,311.0,685.0,1.0,1,404.0,1
510,510,0.5006738127953722,0.5,1.0,1.0,371.0,792.0,1.0,1,177.0,1
511,511,0.5735555396677762,0.6,0.0,0.0,425.0,518.0,0.0,1,317.0,1
512,512,-0.18346870059790654,-0.2,1.0,0.0,411.0,811.0,0.0,0,778.0,1
513,513,-0.8347429804220977,-0.8,1.0,0.0,448.0,770.0,0.0,0,222.0,1
514,514,-0.15263613793821096,-0.2,1.0,0.0,364.0,753.0,0.0,0,943.0,1
515,515,-0.0539474579926551,-0.1,0.0,1.0,391.0,889.0,1.0,0,260.0,1
516,516,0.4374543158623093,0.4,0.0,0.0,447.0,747.0,0.0,1,306.0,1
517,517,-0.7701430667443326,-0.8,1.0,0.0,371.0,841.0,0.0,0,228.0,1
518,518,-0.7658429384437953,-0.8,1.0,0.0,431.0,668.0,0.0,0,251.0,1
519,519,0.5383365825721574,0.5,0.0,0.0,469.0,805.0,0.0,1,226.0,1
520,520,-0.5451949426537255,-0.5,1.0,0.0,325.0,730.0,0.0,0,305.0,1
521,521,-0.4072063818661843,-0.4,1.0,0.0,428.0,516.0,0.0,0,436.0,1
522,522,0.30424854549600167,0.3,0.0,0.0,412.0,701.0,0.0,1,747.0,1
523,523,0.22291725159085474,0.2,0.0,0.0,369.0,823.0,0.0,1,1308.0,1
524,524,0.08918307481405563,0.1,0.0,0.0,419.0,983.0,0.0,1,1598.0,1
525,525,-0.8925518631218577,-0.9,0.0,1.0,436.0,590.0,1.0,0,324.0,1
526,526,-0.0058604486186562,-0.0,1.0,0.0,347.0,786.0,1.0,1,337.0,0
527,527,-0.34087149908134295,-0.3,0.0,1.0,401.0,940.0,1.0,0,169.0,1
528,528,0.4956063055908527,0.5,0.0,0.0,378.0,560.0,0.0,1,402.0,1
529,529,0.6195078862526487,0.6,1.0,1.0,483.0,832.0,1.0,1,205.0,1
530,530,0.45179732998187416,0.5,0.0,0.0,438.0,743.0,0.0,1,169.0,1
531,531,-0.24320229546582495,-0.2,0.0,1.0,367.0,682.0,1.0,0,961.0,1
532,532,0.5913596671846894,0.6,0.0,0.0,481.0,674.0,0.0,1,185.0,1
533,533,-0.3066516782550035,-0.3,0.0,1.0,314.0,911.0,1.0,0,465.0,1
534,534,-0.37473323024447824,-0.4,1.0,0.0,482.0,760.0,0.0,0,388.0,1
535,535,0.5161577537759158,0.5,0.0,0.0,352.0,590.0,0.0,1,218.0,1
536,536,0.43348960602013287,0.4,0.0,0.0,426.0,810.0,0.0,1,264.0,1
537,537,0.07703100962201026,0.1,1.0,1.0,288.0,681.0,1.0,1,691.0,1
538,538,0.6127515072852404,0.6,1.0,1.0,473.0,976.0,1.0,1,91.0,1
539,539,-0.2494214203541314,-0.2,0.0,1.0,302.0,682.0,1.0,0,626.0,1
540,540,0.498879027621164,0.5,0.0,0.0,444.0,622.0,0.0,1,514.0,1
541,541,0.7938245916605754,0.8,1.0,1.0,342.0,645.0,1.0,1,113.0,1
542,542,0.07029977017256006,0.1,0.0,0.0,394.0,619.0,0.0,1,1697.0,1
543,543,-0.673195467840947,-0.7,1.0,0.0,321.0,549.0,0.0,0,290.0,1
544,544,-0.8716790722501004,-0.9,1.0,0.0,456.0,880.0,0.0,0,304.0,1
545,545,0.7837232319315189,0.8,1.0,1.0,296.0,751.0,1.0,1,153.0,1
546,546,0.15338696598746948,0.2,0.0,0.0,334.0,508.0,0.0,1,1098.0,1
547,547,0.44414185856419797,0.4,1.0,1.0,307.0,727.0,1.0,1,106.0,1
548,548,0.1793592984175768,0.2,1.0,1.0,409.0,527.0,1.0,1,254.0,1
549,549,0.08960978761777616,0.1,0.0,0.0,342.0,768.0,0.0,1,1890.0,1
550,550,-0.3331783975413619,-0.3,0.0,1.0,463.0,905.0,1.0,0,122.0,1
551,551,-0.47456462391050214,-0.5,0.0,1.0,357.0,589.0,1.0,0,444.0,1
552,552,0.015184859884446622,0.0,0.0,0.0,301.0,668.0,0.0,1,2031.0,1
553,553,-0.6203558195161452,-0.6,0.0,1.0,255.0,949.0,1.0,0,106.0,1
554,554,0.15486873305255122,0.2,1.0,1.0,445.0,888.0,1.0,1,717.0,1
555,555,-0.869823901407814,-0.9,1.0,0.0,411.0,899.0,0.0,0,140.0,1
556,556,-0.8047408491549666,-0.8,0.0,1.0,453.0,682.0,1.0,0,75.0,1
557,557,0.7986760130580611,0.8,1.0,1.0,497.0,828.0,1.0,1,105.0,1
558,558,-0.36383151071666564,-0.4,1.0,0.0,397.0,596.0,0.0,0,727.0,1
559,559,-0.2531157120970451,-0.3,1.0,0.0,280.0,700.0,0.0,0,210.0,1
560,560,0.19609961934566666,0.2,0.0,0.0,394.0,944.0,0.0,1,1262.0,1
561,561,-0.7088377420059885,-0.7,1.0,0.0,290.0,872.0,1.0,1,-102.0,0
562,562,0.2812570193408991,0.3,1.0,1.0,427.0,841.0,1.0,1,262.0,1
563,563,0.6546953731383033,0.7,1.0,1.0,325.0,776.0,1.0,1,69.0,1
564,564,-0.5897240374938193,-0.6,1.0,0.0,264.0,572.0,0.0,0,284.0,1
565,565,0.810882478620281,0.8,1.0,1.0,386.0,829.0,1.0,1,125.0,1
566,566,0.6785464740228931,0.7,1.0,1.0,405.0,916.0,1.0,1,89.0,1
567,567,0.3139258295433517,0.3,1.0,1.0,348.0,534.0,1.0,1,198.0,1
568,568,-0.41851656698736167,-0.4,1.0,0.0,261.0,532.0,0.0,0,517.0,1
569,569,-0.606577547391681,-0.6,0.0,1.0,493.0,702.0,1.0,0,255.0,1
570,570,0.6264855874762122,0.6,0.0,0.0,373.0,889.0,0.0,1,328.0,1
571,571,-0.8080394477821609,-0.8,1.0,0.0,342.0,577.0,0.0,0,151.0,1
572,572,0.35062802421084005,0.4,0.0,0.0,360.0,995.0,0.0,1,325.0,1
573,573,-0.23268296381746856,-0.2,1.0,0.0,480.0,988.0,0.0,0,712.0,1
574,574,-0.7772264196252934,-0.8,0.0,1.0,285.0,563.0,1.0,0,112.0,1
575,575,-0.4317616479144769,-0.4,1.0,0.0,489.0,579.0,0.0,0,542.0,1
576,576,-0.4695840403256654,-0.5,1.0,0.0,338.0,764.0,0.0,0,408.0,1
577,577,0.8610254323355474,0.9,1.0,1.0,292.0,733.0,1.0,1,185.0,1
578,578,-0.8721815742024376,-0.9,1.0,0.0,335.0,935.0,0.0,0,190.0,1
579,579,0.7815587088598815,0.8,0.0,0.0,352.0,669.0,0.0,1,219.0,1
580,580,-0.14836839857749173,-0.1,1.0,0.0,277.0,801.0,0.0,0,1562.0,1
581,581,0.6719056436174443,0.7,1.0,1.0,343.0,961.0,1.0,1,126.0,1
582,582,-0.1546294328219293,-0.2,1.0,0.0,355.0,885.0,1.0,1,-70.0,0
583,583,0.014129987496344532,0.0,1.0,1.0,425.0,757.0,1.0,1,1698.0,1
584,584,-0.4597459446648922,-0.5,0.0,1.0,372.0,925.0,1.0,0,93.0,1
585,585,-0.04875040701871891,-0.0,1.0,0.0,342.0,712.0,0.0,0,736.0,1
586,586,0.4564161250805442,0.5,1.0,1.0,333.0,998.0,1.0,1,189.0,1
587,587,-0.345381602611168,-0.3,1.0,0.0,265.0,913.0,0.0,0,332.0,1
588,588,-0.6267146337158624,-0.6,1.0,0.0,410.0,839.0,0.0,0,181.0,1
589,589,-0.4310683197775611,-0.4,1.0,0.0,315.0,709.0,1.0,1,-294.0,0
590,590,0.13328554613206334,0.1,1.0,1.0,303.0,902.0,1.0,1,245.0,1
591,591,-0.44769706714561497,-0.4,0.0,1.0,300.0,862.0,1.0,0,158.0,1
592,592,0.48306660885337094,0.5,0.0,0.0,476.0,653.0,0.0,1,291.0,1
593,593,0.15307462241669378,0.2,1.0,1.0,459.0,634.0,1.0,1,717.0,1
594,594,-0.5224052877221382,-0.5,0.0,1.0,267.0,806.0,1.0,0,167.0,1
595,595,0.6483622552454779,0.6,1.0,1.0,456.0,857.0,1.0,1,337.0,1
596,596,0.12842996031175635,0.1,1.0,1.0,385.0,683.0,1.0,1,252.0,1
597,597,-0.19862653336388691,-0.2,1.0,0.0,369.0,635.0,0.0,0,1096.0,1
598,598,0.13109748725839887,0.1,1.0,1.0,357.0,901.0,1.0,1,212.0,1
599,599,-0.5291976270890915,-0.5,1.0,0.0,370.0,651.0,0.0,0,359.0,1
600,600,-0.6429363601987743,-0.6,0.0,1.0,276.0,898.0,1.0,0,106.0,1
601,601,0.2649461128537557,0.3,1.0,1.0,399.0,917.0,1.0,1,904.0,1
602,602,-0.7652949832584399,-0.8,1.0,0.0,426.0,909.0,0.0,0,155.0,1
603,603,0.7905737009152948,0.8,1.0,1.0,393.0,940.0,1.0,1,107.0,1
604,604,-0.7514495518615969,-0.8,1.0,0.0,456.0,958.0,0.0,0,176.0,1
605,605,0.3316785651038653,0.3,1.0,1.0,496.0,966.0,1.0,1,318.0,1
606,606,-0.772355763518661,-0.8,1.0,0.0,286.0,979.0,0.0,0,325.0,1
607,607,0.460243166907787,0.5,0.0,0.0,465.0,634.0,0.0,1,191.0,1
608,608,0.700732839113471,0.7,1.0,1.0,493.0,501.0,1.0,1,186.0,1
609,609,0.3711628914302777,0.4,1.0,1.0,473.0,822.0,1.0,1,15.0,1
610,610,-0.6316750091830492,-0.6,0.0,1.0,498.0,997.0,1.0,0,155.0,1
611,611,0.7765847757255487,0.8,1.0,1.0,297.0,762.0,1.0,1,51.0,1
612,612,0.5092213972878085,0.5,1.0,1.0,340.0,579.0,1.0,1,221.0,1
613,613,-0.6737824572970946,-0.7,1.0,0.0,389.0,766.0,0.0,0,245.0,1
614,614,0.19267120420463135,0.2,1.0,1.0,369.0,982.0,1.0,1,199.0,1
615,615,0.7920524304276325,0.8,0.0,0.0,423.0,561.0,0.0,1,206.0,1
616,616,0.355004452789217,0.4,0.0,0.0,291.0,889.0,0.0,1,370.0,1
617,617,0.45710497941255757,0.5,0.0,0.0,326.0,502.0,0.0,1,192.0,1
618,618,-0.487190281934287,-0.5,0.0,1.0,359.0,607.0,1.0,0,134.0,1
619,619,0.8817444841427419,0.9,0.0,0.0,296.0,898.0,0.0,1,226.0,1
620,620,-0.41248204509615966,-0.4,1.0,0.0,301.0,516.0,0.0,0,463.0,1
621,621,0.14870724479495367,0.1,0.0,0.0,466.0,781.0,0.0,1,453.0,1
622,622,0.4033065253296181,0.4,1.0,1.0,334.0,893.0,1.0,1,163.0,1
623,623,-0.26237664771590974,-0.3,1.0,0.0,273.0,796.0,0.0,0,411.0,1
624,624,0.8647389201522006,0.9,0.0,0.0,437.0,764.0,1.0,0,9.0,0
625,625,0.5332734301339092,0.5,1.0,1.0,493.0,737.0,1.0,1,120.0,1
626,626,-0.8025179895680568,-0.8,1.0,0.0,474.0,519.0,0.0,0,317.0,1
627,627,0.14469230298440128,0.1,1.0,1.0,442.0,843.0,1.0,1,95.0,1
628,628,-0.18894826664787423,-0.2,0.0,1.0,383.0,744.0,1.0,0,263.0,1
629,629,0.6680544855033327,0.7,1.0,1.0,489.0,566.0,1.0,1,55.0,1
630,630,0.7691472832251299,0.8,1.0,1.0,361.0,752.0,1.0,1,17.0,1
631,631,-0.5796641099761015,-0.6,0.0,1.0,380.0,669.0,1.0,0,511.0,1
632,632,0.1489816934490672,0.1,1.0,1.0,315.0,592.0,1.0,1,543.0,1
633,633,0.3180205354459812,0.3,0.0,0.0,449.0,933.0,0.0,1,298.0,1
634,634,0.2561942967604264,0.3,0.0,0.0,438.0,614.0,0.0,1,1288.0,1
635,635,0.8896189844027483,0.9,1.0,1.0,274.0,510.0,1.0,1,196.0,1
636,636,0.1995572524043595,0.2,1.0,1.0,252.0,865.0,1.0,1,283.0,1
637,637,0.5158985452054262,0.5,1.0,1.0,312.0,766.0,1.0,1,312.0,1
638,638,0.5325444088975552,0.5,1.0,1.0,255.0,503.0,1.0,1,162.0,1
639,639,-0.8594003643755997,-0.9,0.0,1.0,370.0,673.0,1.0,0,157.0,1
640,640,0.414435530022358,0.4,1.0,1.0,393.0,712.0,1.0,1,195.0,1
641,641,0.5674091089417327,0.6,0.0,0.0,427.0,815.0,0.0,1,158.0,1
642,642,-0.48400849701144616,-0.5,1.0,0.0,331.0,596.0,0.0,0,143.0,1
643,643,-0.4988281700794273,-0.5,1.0,0.0,307.0,944.0,0.0,0,139.0,1
644,644,-0.6933058467963779,-0.7,1.0,0.0,331.0,547.0,0.0,0,422.0,1
645,645,-0.8372939525136748,-0.8,1.0,0.0,326.0,952.0,0.0,0,222.0,1
646,646,-0.34150514273655064,-0.3,1.0,0.0,353.0,755.0,0.0,0,442.0,1
647,647,-0.06636533419040569,-0.1,1.0,0.0,271.0,730.0,1.0,1,1539.0,0
648,648,-0.47329557698560004,-0.5,1.0,0.0,449.0,999.0,0.0,0,272.0,1
649,649,-0.5833924811460451,-0.6,0.0,1.0,415.0,915.0,1.0,0,90.0,1
650,650,-0.6119306679643841,-0.6,0.0,1.0,314.0,765.0,1.0,0,41.0,1
651,651,-0.1906956933814251,-0.2,1.0,0.0,496.0,786.0,0.0,0,838.0,1
652,652,-0.11541933693035633,-0.1,0.0,1.0,251.0,649.0,1.0,0,550.0,1
653,653,-0.8775218913729746,-0.9,0.0,1.0,311.0,530.0,1.0,0,179.0,1
654,654,0.4504909846749726,0.5,0.0,0.0,477.0,747.0,0.0,1,476.0,1
655,655,0.6965536663727355,0.7,0.0,0.0,454.0,723.0,0.0,1,203.0,1
656,656,-0.882801673593516,-0.9,1.0,0.0,258.0,511.0,0.0,0,271.0,1
657,657,-0.7500084724763206,-0.8,0.0,1.0,293.0,733.0,1.0,0,244.0,1
658,658,0.7043597726433269,0.7,0.0,0.0,436.0,912.0,0.0,1,692.0,1
659,659,0.07796367022112038,0.1,1.0,1.0,416.0,817.0,1.0,1,267.0,1
660,660,-0.37771497283923106,-0.4,1.0,0.0,412.0,792.0,0.0,0,346.0,1
661,661,-0.1516322237988842,-0.2,1.0,0.0,293.0,687.0,0.0,0,170.0,1
662,662,0.7395517053319972,0.7,1.0,1.0,347.0,758.0,1.0,1,165.0,1
663,663,0.7509532571235448,0.8,1.0,1.0,467.0,726.0,1.0,1,77.0,1
664,664,-0.20539247765170787,-0.2,0.0,1.0,456.0,779.0,1.0,0,385.0,1
665,665,0.5316251003281941,0.5,0.0,0.0,356.0,857.0,0.0,1,237.0,1
666,666,0.8104144861276251,0.8,1.0,1.0,495.0,711.0,1.0,1,204.0,1
667,667,-0.4587297431239794,-0.5,1.0,0.0,383.0,679.0,0.0,0,348.0,1
668,668,0.49018161299059015,0.5,0.0,0.0,466.0,931.0,0.0,1,613.0,1
669,669,0.3988229177639194,0.4,0.0,0.0,305.0,953.0,0.0,1,112.0,1
670,670,0.8080971311707862,0.8,0.0,0.0,449.0,970.0,0.0,1,181.0,1
671,671,0.49119744770202456,0.5,0.0,0.0,336.0,534.0,0.0,1,390.0,1
672,672,-0.6219113983555764,-0.6,1.0,0.0,291.0,810.0,0.0,0,219.0,1
673,673,-0.17228885534164795,-0.2,0.0,1.0,309.0,570.0,1.0,0,631.0,1
674,674,-0.17698697802111585,-0.2,1.0,0.0,399.0,835.0,0.0,0,576.0,1
675,675,-0.7323575453667686,-0.7,0.0,1.0,304.0,858.0,1.0,0,118.0,1
676,676,-0.3821092171240247,-0.4,0.0,1.0,286.0,943.0,1.0,0,161.0,1
677,677,-0.6417710518693001,-0.6,1.0,0.0,494.0,530.0,0.0,0,256.0,1
678,678,0.5707138547922624,0.6,0.0,0.0,399.0,787.0,0.0,1,214.0,1
679,679,-0.5441656735396668,-0.5,1.0,0.0,256.0,548.0,0.0,0,446.0,1
680,680,-0.41409858607239003,-0.4,0.0,1.0,262.0,753.0,1.0,0,205.0,1
681,681,-0.3537112608646402,-0.4,0.0,1.0,271.0,722.0,1.0,0,287.0,1
682,682,-0.5089761815274791,-0.5,1.0,0.0,428.0,618.0,0.0,0,234.0,1
683,683,0.06350111501090339,0.1,1.0,1.0,387.0,978.0,1.0,1,895.0,1
684,684,-0.07250262889485837,-0.1,1.0,0.0,286.0,907.0,0.0,0,1637.0,1
685,685,-0.04576263907654754,-0.0,1.0,0.0,371.0,823.0,0.0,0,1216.0,1
686,686,0.10749797653698645,0.1,1.0,1.0,384.0,730.0,1.0,1,786.0,1
687,687,0.5863257546370889,0.6,0.0,0.0,263.0,726.0,0.0,1,251.0,1
688,688,-0.3639275976539632,-0.4,0.0,1.0,326.0,556.0,1.0,0,48.0,1
689,689,-0.6530167135643661,-0.7,1.0,0.0,464.0,783.0,0.0,0,203.0,1
690,690,0.6622785628791071,0.7,1.0,1.0,359.0,600.0,1.0,1,141.0,1
691,691,0.6031728430966247,0.6,1.0,1.0,481.0,891.0,1.0,1,118.0,1
692,692,0.06531601773109619,0.1,1.0,1.0,297.0,564.0,1.0,1,669.0,1
693,693,0.28199103045902596,0.3,0.0,0.0,278.0,704.0,0.0,1,738.0,1
694,694,0.028640012798285652,0.0,0.0,0.0,267.0,975.0,0.0,1,1758.0,1
695,695,-0.8018274319835457,-0.8,1.0,0.0,374.0,894.0,0.0,0,132.0,1
696,696,-0.16682141447416654,-0.2,1.0,0.0,277.0,629.0,0.0,0,484.0,1
697,697,-0.3033754863164736,-0.3,1.0,0.0,287.0,668.0,0.0,0,605.0,1
698,698,-0.3373258827339001,-0.3,0.0,1.0,280.0,880.0,1.0,0,310.0,1
699,699,0.7259338892419419,0.7,0.0,0.0,494.0,889.0,0.0,1,437.0,1
700,700,0.3072598961029359,0.3,1.0,1.0,252.0,568.0,1.0,1,80.0,1
701,701,-0.5445995725469301,-0.5,1.0,0.0,413.0,907.0,1.0,1,-160.0,0
702,702,-0.5024028110072836,-0.5,0.0,1.0,363.0,776.0,1.0,0,231.0,1
703,703,0.4681845234356564,0.5,0.0,0.0,381.0,704.0,0.0,1,425.0,1
704,704,0.66462812757201,0.7,1.0,1.0,367.0,745.0,1.0,1,58.0,1
705,705,0.355601165482616,0.4,1.0,1.0,306.0,682.0,1.0,1,-138.0,1
706,706,-0.20250142994855802,-0.2,0.0,1.0,430.0,741.0,1.0,0,789.0,1
707,707,-0.837529618977413,-0.8,1.0,0.0,265.0,676.0,0.0,0,179.0,1
708,708,-0.13846919337444852,-0.1,1.0,0.0,384.0,907.0,0.0,0,1419.0,1
709,709,0.48012930691598965,0.5,1.0,1.0,498.0,847.0,1.0,1,115.0,1
710,710,-0.19863688017809833,-0.2,0.0,1.0,276.0,503.0,1.0,0,571.0,1
711,711,0.8940826729135346,0.9,0.0,0.0,288.0,669.0,0.0,1,293.0,1
712,712,-0.7619890436329056,-0.8,0.0,1.0,496.0,915.0,1.0,0,159.0,1
713,713,-0.4263569875451061,-0.4,1.0,0.0,447.0,728.0,0.0,0,415.0,1
714,714,0.3252244256034421,0.3,0.0,0.0,481.0,966.0,0.0,1,273.0,1
715,715,0.7905287703450666,0.8,0.0,0.0,385.0,634.0,0.0,1,281.0,1
716,716,0.14198573152382077,0.1,1.0,1.0,293.0,954.0,1.0,1,853.0,1
717,717,0.8005481459464362,0.8,0.0,0.0,495.0,569.0,0.0,1,256.0,1
718,718,0.3603117092352227,0.4,1.0,1.0,447.0,676.0,1.0,1,277.0,1
719,719,-0.7059320263436728,-0.7,0.0,1.0,321.0,656.0,1.0,0,213.0,1
720,720,0.14121977161405563,0.1,0.0,0.0,291.0,705.0,0.0,1,824.0,1
721,721,0.20815927775349785,0.2,1.0,1.0,395.0,559.0,1.0,1,356.0,1
722,722,0.6960129579049995,0.7,1.0,1.0,452.0,577.0,1.0,1,161.0,1
723,723,-0.301352663302878,-0.3,0.0,1.0,378.0,935.0,1.0,0,297.0,1
724,724,-0.31598752958861553,-0.3,1.0,0.0,463.0,604.0,0.0,0,423.0,1
725,725,-0.5900256397342307,-0.6,1.0,0.0,403.0,571.0,0.0,0,366.0,1
726,726,0.16174690652338708,0.2,1.0,1.0,385.0,574.0,1.0,1,701.0,1
727,727,-0.17450133294341819,-0.2,0.0,1.0,307.0,984.0,1.0,0,719.0,1
728,728,0.3195872383156543,0.3,0.0,0.0,253.0,568.0,0.0,1,739.0,1
729,729,0.3097311141959703,0.3,0.0,0.0,265.0,837.0,1.0,0,-12.0,0
730,730,-0.37292029830207385,-0.4,1.0,0.0,366.0,552.0,0.0,0,382.0,1
731,731,0.7188566335292398,0.7,1.0,1.0,358.0,709.0,1.0,1,63.0,1
732,732,-0.019053191742630537,-0.0,1.0,0.0,387.0,853.0,1.0,1,1380.0,0
733,733,0.46636042948038237,0.5,1.0,1.0,345.0,890.0,1.0,1,105.0,1
734,734,-0.6466390667972144,-0.6,1.0,0.0,476.0,696.0,0.0,0,488.0,1
735,735,0.7883428497417638,0.8,1.0,1.0,411.0,942.0,1.0,1,247.0,1
736,736,-0.8365092470705222,-0.8,0.0,1.0,315.0,692.0,1.0,0,123.0,1
737,737,-0.18566058067051616,-0.2,1.0,0.0,258.0,995.0,1.0,1,137.0,0
738,738,0.8530082479932931,0.9,0.0,0.0,425.0,885.0,0.0,1,110.0,1
739,739,-0.6631615843987624,-0.7,1.0,0.0,397.0,943.0,1.0,1,-400.0,0
740,740,0.8461535485158115,0.8,1.0,1.0,430.0,602.0,1.0,1,218.0,1
741,741,0.14120884082786855,0.1,1.0,1.0,394.0,902.0,1.0,1,684.0,1
742,742,0.4020172238701766,0.4,1.0,1.0,378.0,758.0,1.0,1,254.0,1
743,743,0.6516068949261143,0.7,1.0,1.0,360.0,787.0,1.0,1,83.0,1
744,744,-0.47397233001109246,-0.5,0.0,1.0,299.0,764.0,1.0,0,377.0,1
745,745,-0.7560529258412021,-0.8,1.0,0.0,370.0,543.0,0.0,0,257.0,1
746,746,-0.35495309624318705,-0.4,1.0,0.0,278.0,898.0,0.0,0,294.0,1
747,747,-0.5349150899264123,-0.5,1.0,0.0,342.0,535.0,0.0,0,373.0,1
748,748,-0.7969335385409113,-0.8,0.0,1.0,271.0,754.0,1.0,0,95.0,1
749,749,0.4925981997084926,0.5,0.0,0.0,361.0,589.0,0.0,1,370.0,1
750,750,0.7245010544923373,0.7,0.0,0.0,466.0,978.0,0.0,1,136.0,1
751,751,-0.14720973265707415,-0.1,1.0,0.0,361.0,579.0,0.0,0,1060.0,1
752,752,-0.4620479016958406,-0.5,0.0,1.0,294.0,830.0,1.0,0,116.0,1
753,753,0.09627189498365762,0.1,1.0,1.0,407.0,665.0,1.0,1,678.0,1
754,754,0.021432555609699144,0.0,0.0,0.0,308.0,645.0,0.0,1,2047.0,1
755,755,-0.6165274367382299,-0.6,1.0,0.0,459.0,593.0,0.0,0,158.0,1
756,756,-0.8484752124860795,-0.8,1.0,0.0,339.0,836.0,0.0,0,215.0,1
757,757,0.8643094827950929,0.9,1.0,1.0,406.0,883.0,1.0,1,101.0,1
758,758,-0.8925579497362107,-0.9,1.0,0.0,439.0,980.0,1.0,1,-79.0,0
759,759,-0.5255874939709549,-0.5,1.0,0.0,410.0,663.0,0.0,0,297.0,1
760,760,0.31128596107009743,0.3,1.0,1.0,366.0,880.0,1.0,1,174.0,1
761,761,0.5515643759578629,0.6,1.0,1.0,392.0,639.0,1.0,1,129.0,1
762,762,-0.17289434851462537,-0.2,0.0,1.0,267.0,937.0,1.0,0,706.0,1
763,763,0.8846605670380095,0.9,1.0,1.0,264.0,569.0,1.0,1,117.0,1
764,764,-0.8386060065682914,-0.8,0.0,1.0,383.0,971.0,1.0,0,176.0,1
765,765,0.04424463430368186,0.0,1.0,1.0,492.0,501.0,1.0,1,837.0,1
766,766,0.6830347742006638,0.7,1.0,1.0,355.0,734.0,1.0,1,131.0,1
767,767,-0.6717582212411184,-0.7,1.0,0.0,263.0,660.0,0.0,0,167.0,1
768,768,-0.438846360621463,-0.4,1.0,0.0,268.0,931.0,0.0,0,231.0,1
769,769,-0.7617221348144672,-0.8,0.0,1.0,310.0,702.0,1.0,0,88.0,1
770,770,-0.29130004226867345,-0.3,1.0,0.0,442.0,727.0,0.0,0,261.0,1
771,771,-0.8387228226704824,-0.8,0.0,1.0,290.0,722.0,1.0,0,198.0,1
772,772,0.2668015567724208,0.3,0.0,0.0,357.0,744.0,0.0,1,1239.0,1
773,773,-0.047432671424935235,-0.0,0.0,1.0,419.0,679.0,1.0,0,1902.0,1
774,774,0.14401061853552577,0.1,0.0,0.0,293.0,694.0,0.0,1,243.0,1
775,775,0.6196438267624723,0.6,1.0,1.0,291.0,611.0,1.0,1,208.0,1
776,776,0.19978802396444528,0.2,1.0,1.0,345.0,900.0,1.0,1,215.0,1
777,777,-0.35796703647806893,-0.4,1.0,0.0,256.0,981.0,1.0,1,-157.0,0
778,778,0.7520191012892788,0.8,1.0,1.0,453.0,854.0,1.0,1,123.0,1
779,779,-0.6042449205187651,-0.6,0.0,1.0,497.0,892.0,1.0,0,101.0,1
780,780,0.18941271398735327,0.2,1.0,1.0,325.0,556.0,1.0,1,219.0,1
781,781,-0.007761071396314989,-0.0,0.0,1.0,444.0,809.0,1.0,0,1747.0,1
782,782,-0.34065068652086106,-0.3,1.0,0.0,415.0,736.0,0.0,0,289.0,1
783,783,-0.5010172328611913,-0.5,0.0,1.0,385.0,916.0,1.0,0,159.0,1
784,784,-0.40768489164666966,-0.4,1.0,0.0,489.0,827.0,1.0,1,-246.0,0
785,785,-0.6363219775092466,-0.6,0.0,1.0,253.0,727.0,1.0,0,130.0,1
786,786,0.09937828281620642,0.1,0.0,0.0,460.0,850.0,0.0,1,1470.0,1
787,787,-0.696506948386433,-0.7,0.0,1.0,265.0,934.0,1.0,0,171.0,1
788,788,-0.4354943428384923,-0.4,0.0,1.0,401.0,970.0,1.0,0,129.0,1
789,789,-0.6897456452199373,-0.7,0.0,1.0,340.0,794.0,1.0,0,196.0,1
790,790,-0.05622515062521338,-0.1,0.0,1.0,341.0,822.0,1.0,0,1837.0,1
791,791,-0.31657858698888774,-0.3,0.0,1.0,441.0,926.0,1.0,0,163.0,1
792,792,-0.5619275772076325,-0.6,1.0,0.0,492.0,861.0,0.0,0,337.0,1
793,793,-0.8077851694723384,-0.8,0.0,1.0,460.0,632.0,1.0,0,48.0,1
794,794,0.6748319189128403,0.7,0.0,0.0,315.0,533.0,0.0,1,272.0,1
795,795,-0.7627133192541394,-0.8,1.0,0.0,464.0,984.0,0.0,0,112.0,1
796,796,0.3859940199267743,0.4,0.0,0.0,344.0,743.0,0.0,1,83.0,1
797,797,0.7540491778065582,0.8,1.0,1.0,387.0,883.0,1.0,1,90.0,1
798,798,0.8906447181235727,0.9,0.0,0.0,396.0,642.0,0.0,1,182.0,1
799,799,0.05391379653161077,0.1,1.0,1.0,479.0,641.0,1.0,1,520.0,1
800,800,0.23911633362561757,0.2,0.0,0.0,266.0,895.0,0.0,1,449.0,1
801,801,0.7960632781268192,0.8,1.0,1.0,351.0,844.0,1.0,1,45.0,1
802,802,0.8113702274719431,0.8,0.0,0.0,417.0,761.0,0.0,1,222.0,1
803,803,0.4366296249150302,0.4,0.0,0.0,347.0,919.0,0.0,1,264.0,1
804,804,-0.07384843175410882,-0.1,0.0,1.0,494.0,994.0,1.0,0,1512.0,1
805,805,-0.11761847772978706,-0.1,0.0,1.0,499.0,969.0,1.0,0,1532.0,1
806,806,0.5055430302511922,0.5,0.0,0.0,359.0,906.0,0.0,1,225.0,1
807,807,-0.32943906722871774,-0.3,0.0,1.0,469.0,608.0,1.0,0,343.0,1
808,808,0.895565089955299,0.9,1.0,1.0,481.0,683.0,1.0,1,156.0,1
809,809,0.7970873126735297,0.8,1.0,1.0,364.0,536.0,1.0,1,50.0,1
810,810,0.6204892763681019,0.6,0.0,0.0,415.0,708.0,0.0,1,257.0,1
811,811,-0.0547333753684246,-0.1,1.0,0.0,442.0,913.0,0.0,0,665.0,1
812,812,-0.7514346259738267,-0.8,1.0,0.0,266.0,751.0,0.0,0,343.0,1
813,813,0.13015569242264802,0.1,1.0,1.0,254.0,507.0,1.0,1,819.0,1
814,814,0.13600035565152446,0.1,1.0,1.0,358.0,554.0,1.0,1,688.0,1
815,815,0.7177392573022406,0.7,0.0,0.0,401.0,519.0,0.0,1,590.0,1
816,816,-0.2086624934723884,-0.2,0.0,1.0,430.0,831.0,1.0,0,409.0,1
817,817,0.053094959457918645,0.1,1.0,1.0,289.0,707.0,1.0,1,394.0,1
818,818,0.03561819856949533,0.0,1.0,1.0,307.0,986.0,0.0,0,557.0,0
819,819,-0.07411336296915949,-0.1,1.0,0.0,484.0,685.0,0.0,0,1831.0,1
820,820,-0.6313181365206997,-0.6,1.0,0.0,307.0,801.0,0.0,0,192.0,1
821,821,0.7835900259039755,0.8,0.0,0.0,337.0,993.0,0.0,1,360.0,1
822,822,-0.5348383400782116,-0.5,1.0,0.0,421.0,986.0,0.0,0,143.0,1
823,823,-0.5147370621246383,-0.5,0.0,1.0,260.0,967.0,1.0,0,63.0,1
824,824,0.3606899662913571,0.4,0.0,0.0,439.0,761.0,0.0,1,290.0,1
825,825,0.8665807419730779,0.9,1.0,1.0,304.0,675.0,1.0,1,71.0,1
826,826,-0.1725731742342307,-0.2,1.0,0.0,335.0,865.0,0.0,0,1800.0,1
827,827,0.7397604927102103,0.7,0.0,0.0,466.0,831.0,0.0,1,193.0,1
828,828,-0.7854702968686865,-0.8,0.0,1.0,497.0,711.0,1.0,0,92.0,1
829,829,-0.74231382664326,-0.7,1.0,0.0,369.0,714.0,0.0,0,157.0,1
830,830,0.33709985166886425,0.3,0.0,0.0,488.0,671.0,0.0,1,411.0,1
831,831,-0.6019244456173269,-0.6,0.0,1.0,322.0,939.0,1.0,0,129.0,1
832,832,-0.41019265967194907,-0.4,1.0,0.0,472.0,966.0,0.0,0,552.0,1
833,833,-0.6586261133234497,-0.7,0.0,1.0,260.0,945.0,1.0,0,155.0,1
834,834,-0.7267009466551299,-0.7,0.0,1.0,388.0,808.0,1.0,0,204.0,1
835,835,0.5441361251415057,0.5,1.0,1.0,280.0,851.0,1.0,1,129.0,1
836,836,0.7222540432511729,0.7,0.0,0.0,301.0,594.0,0.0,1,425.0,1
837,837,-0.8325396107883856,-0.8,0.0,1.0,489.0,826.0,1.0,0,45.0,1
838,838,0.7067866458636375,0.7,0.0,0.0,253.0,702.0,0.0,1,385.0,1
839,839,0.3164594128542192,0.3,0.0,0.0,259.0,896.0,0.0,1,505.0,1
840,840,-0.574955950353405,-0.6,1.0,0.0,252.0,652.0,0.0,0,286.0,1
841,841,-0.7454990462223118,-0.7,0.0,1.0,367.0,615.0,1.0,0,178.0,1
842,842,-0.5332744204523299,-0.5,0.0,1.0,464.0,878.0,1.0,0,258.0,1
843,843,0.884012082413787,0.9,0.0,0.0,488.0,510.0,0.0,1,292.0,1
844,844,0.367917571669406,0.4,0.0,0.0,267.0,613.0,0.0,1,630.0,1
845,845,0.3661318326259416,0.4,1.0,1.0,431.0,794.0,1.0,1,155.0,1
846,846,0.8150942926113428,0.8,1.0,1.0,378.0,855.0,1.0,1,107.0,1
847,847,0.0818437217693313,0.1,1.0,1.0,366.0,640.0,1.0,1,414.0,1
848,848,-0.25295291304095713,-0.3,1.0,0.0,486.0,624.0,0.0,0,570.0,1
849,849,0.37183228898839304,0.4,1.0,1.0,257.0,569.0,1.0,1,164.0,1
850,850,0.7580021067218748,0.8,0.0,0.0,351.0,930.0,0.0,1,149.0,1
851,851,-0.02814300773652456,-0.0,1.0,0.0,268.0,845.0,1.0,1,757.0,0
852,852,0.1876516153193445,0.2,1.0,1.0,377.0,526.0,1.0,1,717.0,1
853,853,-0.03608496647557291,-0.0,0.0,1.0,360.0,593.0,1.0,0,2047.0,1
854,854,-0.23961915269035317,-0.2,0.0,1.0,358.0,538.0,1.0,0,1024.0,1
855,855,0.6039358859275471,0.6,0.0,0.0,271.0,799.0,0.0,1,160.0,1
856,856,0.28606766564460495,0.3,1.0,1.0,316.0,930.0,1.0,1,284.0,1
857,857,0.6016828935804152,0.6,1.0,1.0,383.0,575.0,1.0,1,112.0,1
858,858,0.32700870602682486,0.3,1.0,1.0,345.0,763.0,1.0,1,-18.0,1
859,859,-0.46539113835125856,-0.5,1.0,0.0,393.0,931.0,0.0,0,236.0,1
860,860,0.6145620404044215,0.6,0.0,0.0,394.0,745.0,0.0,1,171.0,1
861,861,-0.6044662188929624,-0.6,1.0,0.0,335.0,687.0,0.0,0,258.0,1
862,862,-0.8529689106142786,-0.9,1.0,0.0,458.0,528.0,0.0,0,314.0,1
863,863,-0.8440342887066851,-0.8,1.0,0.0,340.0,659.0,0.0,0,111.0,1
864,864,-0.6494843113036346,-0.6,0.0,1.0,395.0,758.0,1.0,0,227.0,1
865,865,-0.024770142866620493,-0.0,0.0,1.0,396.0,997.0,1.0,0,1607.0,1
866,866,0.8521962143489384,0.9,0.0,0.0,382.0,981.0,0.0,1,457.0,1
867,867,-0.8725062165394709,-0.9,1.0,0.0,496.0,617.0,0.0,0,227.0,1
868,868,-0.8333111839493388,-0.8,1.0,0.0,367.0,839.0,0.0,0,174.0,1
869,869,0.7793172340974738,0.8,1.0,1.0,359.0,803.0,1.0,1,198.0,1
870,870,-0.4300822473535229,-0.4,0.0,1.0,404.0,762.0,1.0,0,164.0,1
871,871,0.8588550120995345,0.9,1.0,1.0,421.0,537.0,1.0,1,212.0,1
872,872,-0.4220570754513598,-0.4,0.0,1.0,467.0,839.0,1.0,0,194.0,1
873,873,0.5584348616629576,0.6,0.0,0.0,269.0,792.0,0.0,1,409.0,1
874,874,-0.7174014292013071,-0.7,0.0,1.0,278.0,758.0,1.0,0,244.0,1
875,875,0.7226457535840406,0.7,1.0,1.0,457.0,716.0,1.0,1,117.0,1
876,876,0.6720105928011467,0.7,1.0,1.0,297.0,539.0,1.0,1,154.0,1
877,877,-0.45754063625225994,-0.5,1.0,0.0,449.0,738.0,0.0,0,733.0,1
878,878,-0.8823165274633277,-0.9,1.0,0.0,333.0,841.0,0.0,0,206.0,1
879,879,-0.8298066834524225,-0.8,1.0,0.0,387.0,507.0,0.0,0,276.0,1
880,880,-0.49869118872778123,-0.5,0.0,1.0,337.0,920.0,1.0,0,93.0,1
881,881,-0.882057874557453,-0.9,0.0,1.0,456.0,692.0,1.0,0,112.0,1
882,882,-0.5835393667592204,-0.6,0.0,1.0,430.0,992.0,1.0,0,448.0,1
883,883,-0.4458864234584815,-0.4,1.0,0.0,418.0,778.0,0.0,0,244.0,1
884,884,0.33889723606727984,0.3,1.0,1.0,347.0,731.0,1.0,1,372.0,1
885,885,-0.7063513683188689,-0.7,1.0,0.0,310.0,516.0,0.0,0,234.0,1
886,886,0.48092493902312905,0.5,0.0,0.0,328.0,797.0,0.0,1,225.0,1
887,887,-0.05108849175121388,-0.1,1.0,0.0,256.0,746.0,1.0,1,868.0,0
888,888,-0.6091193632156942,-0.6,0.0,1.0,339.0,861.0,1.0,0,190.0,1
889,889,-0.09418665117327107,-0.1,0.0,1.0,386.0,681.0,1.0,0,1933.0,1
890,890,-0.04172458292193992,-0.0,1.0,0.0,361.0,868.0,0.0,0,1771.0,1
891,891,-0.10487628165840546,-0.1,0.0,1.0,397.0,780.0,1.0,0,783.0,1
892,892,-0.5718730594515182,-0.6,1.0,0.0,417.0,634.0,0.0,0,229.0,1
893,893,-0.4748589853086007,-0.5,0.0,1.0,256.0,724.0,1.0,0,170.0,1
894,894,0.36097060640054346,0.4,0.0,0.0,261.0,829.0,0.0,1,340.0,1
895,895,-0.4166671315913075,-0.4,1.0,0.0,499.0,644.0,0.0,0,337.0,1
896,896,-0.11142426530511285,-0.1,0.0,1.0,423.0,957.0,1.0,0,1440.0,1
897,897,0.0745131372695067,0.1,1.0,1.0,476.0,824.0,1.0,1,160.0,1
898,898,-0.19340958652762352,-0.2,0.0,1.0,458.0,972.0,1.0,0,670.0,1
899,899,-0.35789267471721065,-0.4,1.0,0.0,436.0,501.0,0.0,0,783.0,1
900,900,0.8679439142586517,0.9,0.0,0.0,400.0,802.0,0.0,1,198.0,1
901,901,0.5608566597454484,0.6,0.0,0.0,376.0,695.0,0.0,1,249.0,1
902,902,0.14022290443300756,0.1,0.0,0.0,325.0,927.0,0.0,1,868.0,1
903,903,0.4911028381321533,0.5,0.0,0.0,277.0,884.0,0.0,1,279.0,1
904,904,-0.5901853171828388,-0.6,0.0,1.0,320.0,682.0,1.0,0,168.0,1
905,905,0.242565677272507,0.2,0.0,0.0,256.0,978.0,0.0,1,1386.0,1
906,906,-0.3070522964405683,-0.3,0.0,1.0,383.0,974.0,1.0,0,573.0,1
907,907,0.5359239586955339,0.5,0.0,0.0,342.0,514.0,0.0,1,244.0,1
908,908,0.3173902254249482,0.3,0.0,0.0,379.0,830.0,0.0,1,471.0,1
909,909,0.3574391929091475,0.4,0.0,0.0,386.0,993.0,0.0,1,391.0,1
910,910,0.787509633658893,0.8,0.0,0.0,370.0,977.0,0.0,1,163.0,1
911,911,0.10817938600361388,0.1,1.0,1.0,457.0,551.0,1.0,1,522.0,1
912,912,0.5260360663047096,0.5,0.0,0.0,361.0,903.0,0.0,1,286.0,1
913,913,-0.18766852427991054,-0.2,0.0,1.0,340.0,768.0,1.0,0,362.0,1
914,914,0.8837413135440771,0.9,0.0,0.0,368.0,673.0,0.0,1,199.0,1
915,915,0.3539743552352407,0.4,1.0,1.0,372.0,679.0,1.0,1,219.0,1
916,916,-0.8211430389241096,-0.8,1.0,0.0,411.0,573.0,0.0,0,196.0,1
917,917,0.47104729320636196,0.5,1.0,1.0,449.0,964.0,1.0,1,97.0,1
918,918,-0.8318041159455787,-0.8,0.0,1.0,274.0,655.0,1.0,0,301.0,1
919,919,0.1754603087369958,0.2,1.0,1.0,284.0,864.0,1.0,1,122.0,1
920,920,0.0445432133098248,0.0,0.0,0.0,448.0,922.0,1.0,0,-140.0,0
921,921,0.758752246585008,0.8,1.0,1.0,273.0,931.0,1.0,1,126.0,1
922,922,-0.6767487813057274,-0.7,1.0,0.0,468.0,987.0,0.0,0,155.0,1
923,923,-0.13325729584285495,-0.1,0.0,1.0,356.0,519.0,1.0,0,615.0,1
924,924,0.03858315899731346,0.0,1.0,1.0,464.0,969.0,1.0,1,137.0,1
925,925,-0.7950574594810893,-0.8,1.0,0.0,293.0,653.0,0.0,0,264.0,1
926,926,0.009345039344062056,0.0,1.0,1.0,273.0,520.0,1.0,1,1737.0,1
927,927,0.12477770611690386,0.1,0.0,0.0,345.0,586.0,0.0,1,849.0,1
928,928,-0.7435917740990967,-0.7,0.0,1.0,341.0,714.0,1.0,0,165.0,1
929,929,-0.5094093583010975,-0.5,0.0,1.0,267.0,996.0,1.0,0,127.0,1
930,930,0.26373999625923583,0.3,1.0,1.0,383.0,595.0,1.0,1,102.0,1
931,931,-0.7277699817498386,-0.7,1.0,0.0,313.0,784.0,0.0,0,223.0,1
932,932,0.08986430615072716,0.1,1.0,1.0,298.0,936.0,1.0,1,296.0,1
933,933,-0.7451708220316606,-0.7,0.0,1.0,288.0,799.0,1.0,0,143.0,1
934,934,-0.14468339503436223,-0.1,1.0,0.0,491.0,929.0,0.0,0,580.0,1
935,935,-0.4616362175538614,-0.5,1.0,0.0,333.0,556.0,0.0,0,331.0,1
936,936,-0.01686797132457951,-0.0,0.0,1.0,402.0,557.0,1.0,0,2041.0,1
937,937,-0.32118377556459554,-0.3,0.0,1.0,321.0,559.0,1.0,0,220.0,1
938,938,0.7095235254709212,0.7,0.0,0.0,397.0,712.0,0.0,1,271.0,1
939,939,-0.34689681009927964,-0.3,1.0,0.0,453.0,959.0,0.0,0,348.0,1
940,940,0.8706190050660004,0.9,1.0,1.0,301.0,626.0,1.0,1,153.0,1
941,941,0.3922637628976203,0.4,1.0,1.0,250.0,767.0,1.0,1,293.0,1
942,942,0.4216918092456371,0.4,0.0,0.0,293.0,993.0,0.0,1,384.0,1
943,943,-0.27370584275598175,-0.3,1.0,0.0,327.0,831.0,0.0,0,392.0,1
944,944,-0.30474048918053187,-0.3,0.0,1.0,270.0,518.0,1.0,0,252.0,1
945,945,-0.5441028036972673,-0.5,0.0,1.0,259.0,648.0,1.0,0,73.0,1
946,946,-0.6730995060509727,-0.7,0.0,1.0,339.0,754.0,1.0,0,257.0,1
947,947,0.39261339887882307,0.4,1.0,1.0,407.0,948.0,1.0,1,225.0,1
948,948,-0.46284091828909174,-0.5,1.0,0.0,260.0,959.0,0.0,0,341.0,1
949,949,-0.5490975306176369,-0.5,0.0,1.0,314.0,661.0,1.0,0,145.0,1
950,950,-0.15012544829309438,-0.2,0.0,1.0,443.0,582.0,1.0,0,645.0,1
951,951,0.14922716134813407,0.1,0.0,0.0,489.0,793.0,0.0,1,388.0,1
952,952,0.21314932687169763,0.2,0.0,0.0,308.0,744.0,0.0,1,718.0,1
953,953,-0.10123905970486202,-0.1,1.0,0.0,384.0,662.0,0.0,0,1954.0,1
954,954,0.3328583384447895,0.3,0.0,0.0,314.0,599.0,0.0,1,217.0,1
955,955,0.6990689110735692,0.7,0.0,0.0,338.0,539.0,0.0,1,473.0,1
956,956,-0.6729978247671661,-0.7,0.0,1.0,474.0,827.0,1.0,0,199.0,1
957,957,0.45400882957114075,0.5,0.0,0.0,369.0,917.0,0.0,1,174.0,1
958,958,0.6184776149584664,0.6,1.0,1.0,377.0,862.0,1.0,1,131.0,1
959,959,-0.8796811904063035,-0.9,0.0,1.0,251.0,932.0,1.0,0,147.0,1
960,960,0.2954668206878034,0.3,0.0,0.0,286.0,802.0,0.0,1,882.0,1
961,961,-0.4739580392025487,-0.5,0.0,1.0,462.0,802.0,1.0,0,206.0,1
962,962,0.8880094213490429,0.9,0.0,0.0,496.0,657.0,0.0,1,247.0,1
963,963,0.46741056140496495,0.5,1.0,1.0,406.0,864.0,1.0,1,40.0,1
964,964,-0.6851476019510454,-0.7,1.0,0.0,252.0,827.0,0.0,0,261.0,1
965,965,0.41612776613298263,0.4,1.0,1.0,470.0,675.0,1.0,1,155.0,1
966,966,0.8866937184483629,0.9,1.0,1.0,387.0,906.0,1.0,1,7.0,1
967,967,0.527271133565704,0.5,0.0,0.0,398.0,559.0,0.0,1,253.0,1
968,968,0.7750066793873781,0.8,1.0,1.0,375.0,828.0,1.0,1,117.0,1
969,969,0.22428973933553487,0.2,1.0,1.0,348.0,623.0,1.0,1,359.0,1
970,970,0.5926403759132358,0.6,1.0,1.0,450.0,789.0,1.0,1,91.0,1
971,971,0.5549935964129772,0.6,0.0,0.0,373.0,748.0,0.0,1,259.0,1
972,972,-0.8868834418906311,-0.9,0.0,1.0,480.0,549.0,1.0,0,341.0,1
973,973,-0.48159932329613464,-0.5,0.0,1.0,320.0,565.0,1.0,0,375.0,1
974,974,-0.653106285852642,-0.7,0.0,1.0,437.0,618.0,1.0,0,165.0,1
975,975,-0.8391459377804683,-0.8,0.0,1.0,458.0,917.0,1.0,0,55.0,1
976,976,-0.19747035673065128,-0.2,1.0,0.0,440.0,710.0,0.0,0,1240.0,1
977,977,-0.5572963532677802,-0.6,0.0,1.0,282.0,539.0,1.0,0,369.0,1
978,978,-0.24401817212944843,-0.2,0.0,1.0,413.0,538.0,1.0,0,299.0,1
979,979,-0.5629514242750446,-0.6,1.0,0.0,441.0,654.0,0.0,0,415.0,1
980,980,0.17089291425123287,0.2,0.0,0.0,367.0,610.0,0.0,1,643.0,1
981,981,0.4847494488181975,0.5,0.0,0.0,383.0,743.0,0.0,1,364.0,1
982,982,0.7141942384680063,0.7,1.0,1.0,353.0,510.0,1.0,1,117.0,1
983,983,-0.8467324420952973,-0.8,0.0,1.0,409.0,661.0,1.0,0,220.0,1
984,984,-0.5605782911618077,-0.6,1.0,0.0,344.0,872.0,0.0,0,314.0,1
985,985,-0.0033829443358682765,-0.0,1.0,0.0,496.0,737.0,1.0,1,7.0,0
986,986,0.8046762308197476,0.8,1.0,1.0,449.0,933.0,1.0,1,48.0,1
987,987,0.020407610865157855,0.0,1.0,1.0,437.0,955.0,1.0,1,818.0,1
988,988,-0.6878923536129261,-0.7,0.0,1.0,438.0,994.0,1.0,0,208.0,1
989,989,-0.39085745842118924,-0.4,0.0,1.0,498.0,722.0,1.0,0,320.0,1
990,990,-0.7132375893529611,-0.7,1.0,0.0,471.0,534.0,0.0,0,145.0,1
991,991,0.3808046134873909,0.4,1.0,1.0,362.0,513.0,1.0,1,505.0,1
992,992,0.20346527354899135,0.2,0.0,0.0,288.0,700.0,0.0,1,2012.0,1
993,993,0.8322491297911302,0.8,0.0,0.0,453.0,976.0,0.0,1,221.0,1
994,994,0.32338977898803567,0.3,1.0,1.0,416.0,889.0,1.0,1,265.0,1
995,995,0.8524533189547022,0.9,1.0,1.0,311.0,681.0,1.0,1,88.0,1
996,996,-0.21367583426872083,-0.2,1.0,0.0,492.0,689.0,0.0,0,279.0,1
997,997,-0.11913032876595475,-0.1,0.0,1.0,337.0,802.0,1.0,0,131.0,1
998,998,0.20946097279712295,0.2,1.0,1.0,445.0,903.0,1.0,1,82.0,1
999,999,-0.46875195083863636,-0.5,0.0,1.0,346.0,730.0,1.0,0,354.0,1
1000,1000,0.041131794014057976,0.0,1.0,1.0,486.0,945.0,1.0,1,389.0,1
1001,1001,0.5370702477050157,0.5,1.0,1.0,472.0,806.0,1.0,1,112.0,1
1002,1002,-0.650576687041392,-0.7,1.0,0.0,484.0,888.0,0.0,0,198.0,1
1003,1003,0.014768293443109592,0.0,0.0,0.0,448.0,523.0,1.0,0,2029.0,0
1004,1004,0.10197751628345075,0.1,0.0,0.0,428.0,583.0,0.0,1,1219.0,1
1005,1005,0.0092627047873034,0.0,1.0,1.0,439.0,645.0,1.0,1,1016.0,1
1006,1006,-0.36822409930713196,-0.4,1.0,0.0,478.0,654.0,0.0,0,368.0,1
1007,1007,0.6458830123547336,0.6,0.0,0.0,287.0,804.0,0.0,1,299.0,1
1008,1008,0.1341438186653433,0.1,1.0,1.0,438.0,720.0,1.0,1,292.0,1
1009,1009,-0.7802084503251394,-0.8,1.0,0.0,395.0,943.0,0.0,0,122.0,1
1010,1010,-0.5667169834167272,-0.6,1.0,0.0,293.0,868.0,0.0,0,339.0,1
1011,1011,-0.5871358087361045,-0.6,1.0,0.0,390.0,730.0,0.0,0,160.0,1
1012,1012,0.17528517678532973,0.2,1.0,1.0,325.0,731.0,1.0,1,424.0,1
1013,1013,0.2244632940180541,0.2,0.0,0.0,265.0,971.0,0.0,1,874.0,1
1014,1014,0.5538716488256715,0.6,1.0,1.0,435.0,826.0,1.0,1,139.0,1
1015,1015,0.48972509720389856,0.5,1.0,1.0,467.0,738.0,1.0,1,-5.0,1
1016,1016,0.40853469077118565,0.4,1.0,1.0,293.0,841.0,1.0,1,176.0,1
1017,1017,0.007158627991842081,0.0,0.0,0.0,296.0,502.0,0.0,1,2202.0,1
1018,1018,-0.28431520032512336,-0.3,1.0,0.0,253.0,915.0,0.0,0,252.0,1
1019,1019,0.5626484968451492,0.6,0.0,0.0,452.0,964.0,0.0,1,154.0,1
1020,1020,0.5299125379674795,0.5,0.0,0.0,295.0,717.0,0.0,1,148.0,1
1021,1021,-0.09712833451700353,-0.1,1.0,0.0,350.0,791.0,0.0,0,1449.0,1
1022,1022,-0.4780603486987581,-0.5,0.0,1.0,395.0,958.0,1.0,0,177.0,1
1023,1023,-0.2867341131550907,-0.3,1.0,0.0,281.0,634.0,0.0,0,765.0,1
1024,1024,-0.16240535177940785,-0.2,1.0,0.0,265.0,533.0,0.0,0,1312.0,1
1025,1025,-0.28450202075921704,-0.3,1.0,0.0,294.0,879.0,1.0,1,-133.0,0
1026,1026,-0.4731531534577715,-0.5,1.0,0.0,448.0,649.0,0.0,0,533.0,1
1027,1027,0.4961305390458449,0.5,1.0,1.0,485.0,916.0,1.0,1,-301.0,1
1028,1028,-0.5251007919334614,-0.5,0.0,1.0,254.0,646.0,1.0,0,160.0,1
1029,1029,-0.6223703157910587,-0.6,1.0,0.0,477.0,723.0,0.0,0,250.0,1
1030,1030,0.6457122526429296,0.6,1.0,1.0,345.0,916.0,1.0,1,179.0,1
1031,1031,-0.4196629397703936,-0.4,0.0,1.0,307.0,970.0,1.0,0,373.0,1
1032,1032,-0.5388846543693623,-0.5,0.0,1.0,288.0,730.0,1.0,0,162.0,1
1033,1033,-0.10124187711269284,-0.1,1.0,0.0,323.0,589.0,0.0,0,938.0,1
1034,1034,0.8663364574614049,0.9,0.0,0.0,278.0,640.0,0.0,1,92.0,1
1035,1035,0.7796745935378385,0.8,1.0,1.0,357.0,621.0,1.0,1,62.0,1
1036,1036,0.11743805771768179,0.1,1.0,1.0,347.0,761.0,1.0,1,332.0,1
1037,1037,0.011221865428938327,0.0,1.0,1.0,328.0,734.0,1.0,1,188.0,1
1038,1038,0.38755044659353566,0.4,1.0,1.0,390.0,787.0,1.0,1,173.0,1
1039,1039,-0.4083166606934401,-0.4,0.0,1.0,320.0,737.0,1.0,0,173.0,1
1040,1040,-0.11107196784680717,-0.1,0.0,1.0,445.0,793.0,1.0,0,1322.0,1
1041,1041,-0.12285038884981903,-0.1,1.0,0.0,286.0,549.0,0.0,0,1175.0,1
1042,1042,-0.24293749887886185,-0.2,0.0,1.0,461.0,801.0,1.0,0,428.0,1
1043,1043,0.18356588681920016,0.2,0.0,0.0,363.0,932.0,0.0,1,615.0,1
1044,1044,-0.05841340036640441,-0.1,1.0,0.0,485.0,846.0,0.0,0,529.0,1
1045,1045,-0.6128164259793172,-0.6,0.0,1.0,295.0,982.0,1.0,0,93.0,1
1046,1046,0.7069678124352944,0.7,0.0,0.0,489.0,680.0,0.0,1,211.0,1
1047,1047,-0.14687451686724295,-0.1,0.0,1.0,400.0,662.0,1.0,0,1098.0,1
1048,1048,0.7403934882033728,0.7,0.0,0.0,351.0,861.0,0.0,1,168.0,1
1049,1049,0.8265202947970612,0.8,0.0,0.0,278.0,961.0,0.0,1,311.0,1
1050,1050,-0.48367951719961916,-0.5,1.0,0.0,335.0,935.0,1.0,1,-60.0,0
1051,1051,0.4943114561801082,0.5,0.0,0.0,441.0,966.0,0.0,1,323.0,1
1052,1052,-0.6246858951611239,-0.6,0.0,1.0,448.0,516.0,1.0,0,186.0,1
1053,1053,-0.7119469939876643,-0.7,0.0,1.0,280.0,834.0,1.0,0,106.0,1
1054,1054,-0.7538741152672181,-0.8,0.0,1.0,342.0,709.0,1.0,0,199.0,1
1055,1055,0.5897868465202566,0.6,1.0,1.0,486.0,857.0,1.0,1,227.0,1
1056,1056,-0.38444564067619447,-0.4,1.0,0.0,295.0,827.0,0.0,0,628.0,1
1057,1057,-0.12491155309962432,-0.1,0.0,1.0,253.0,601.0,1.0,0,176.0,1
1058,1058,0.3732072324006518,0.4,1.0,1.0,446.0,566.0,1.0,1,348.0,1
1059,1059,-0.6134721860847506,-0.6,1.0,0.0,382.0,990.0,0.0,0,178.0,1
1060,1060,0.6855052479340719,0.7,1.0,1.0,491.0,756.0,1.0,1,53.0,1
1061,1061,0.34559592302781483,0.3,0.0,0.0,385.0,802.0,0.0,1,483.0,1
1062,1062,0.5939735083952468,0.6,0.0,0.0,433.0,804.0,0.0,1,283.0,1
1063,1063,0.0008202611537270199,0.0,1.0,1.0,435.0,797.0,1.0,1,868.0,1
1064,1064,-0.6024889343163539,-0.6,0.0,1.0,343.0,855.0,1.0,0,72.0,1
1065,1065,0.7596532235475765,0.8,0.0,0.0,458.0,665.0,0.0,1,207.0,1
1066,1066,-0.5387133895201754,-0.5,0.0,1.0,318.0,519.0,1.0,0,203.0,1
1067,1067,-0.7879839023179661,-0.8,1.0,0.0,332.0,965.0,0.0,0,143.0,1
1068,1068,0.53529671830665,0.5,1.0,1.0,424.0,987.0,1.0,1,99.0,1
1069,1069,0.3355837831111602,0.3,0.0,0.0,311.0,898.0,0.0,1,681.0,1
1070,1070,0.8316790817650818,0.8,1.0,1.0,414.0,602.0,1.0,1,94.0,1
1071,1071,0.5903671550531423,0.6,1.0,1.0,475.0,906.0,1.0,1,129.0,1
1072,1072,-0.8965696930368462,-0.9,1.0,0.0,324.0,658.0,0.0,0,308.0,1
1073,1073,-0.010057012513458363,-0.0,1.0,0.0,251.0,547.0,1.0,1,732.0,0
1074,1074,-0.6078945740523047,-0.6,1.0,0.0,416.0,984.0,0.0,0,150.0,1
1075,1075,-0.18843632287608614,-0.2,0.0,1.0,464.0,957.0,1.0,0,409.0,1
1076,1076,0.24300993549675665,0.2,0.0,0.0,353.0,927.0,0.0,1,1020.0,1
1077,1077,0.6151384020573604,0.6,0.0,0.0,466.0,894.0,0.0,1,200.0,1
1078,1078,-0.18471095379901958,-0.2,0.0,1.0,494.0,832.0,1.0,0,864.0,1
1079,1079,0.8881806822833501,0.9,1.0,1.0,305.0,591.0,1.0,1,184.0,1
1080,1080,0.8374212498362542,0.8,1.0,1.0,329.0,672.0,1.0,1,119.0,1
1081,1081,0.18263978621314114,0.2,0.0,0.0,460.0,532.0,0.0,1,2008.0,1
1082,1082,0.35629177711471616,0.4,1.0,1.0,429.0,924.0,1.0,1,-93.0,1
1083,1083,0.14878949323076573,0.1,0.0,0.0,400.0,840.0,0.0,1,1470.0,1
1084,1084,-0.32510155679248987,-0.3,1.0,0.0,380.0,610.0,0.0,0,490.0,1
1085,1085,0.8438979478386722,0.8,0.0,0.0,476.0,703.0,0.0,1,271.0,1
1086,1086,0.24131516021900035,0.2,1.0,1.0,309.0,565.0,1.0,1,236.0,1
1087,1087,-0.7407362455438454,-0.7,1.0,0.0,366.0,671.0,0.0,0,243.0,1
1088,1088,-0.6737901652277306,-0.7,1.0,0.0,277.0,766.0,0.0,0,197.0,1
1089,1089,0.7191218846404647,0.7,1.0,1.0,494.0,806.0,1.0,1,100.0,1
1090,1090,0.14799693988794027,0.1,1.0,1.0,259.0,568.0,1.0,1,123.0,1
1091,1091,0.5365867152962635,0.5,1.0,1.0,419.0,534.0,1.0,1,337.0,1
1092,1092,0.4651988286041818,0.5,0.0,0.0,379.0,964.0,0.0,1,197.0,1
1093,1093,-0.4246574642507585,-0.4,1.0,0.0,281.0,679.0,0.0,0,320.0,1
1094,1094,0.6654298915087272,0.7,1.0,1.0,408.0,776.0,1.0,1,166.0,1
1095,1095,0.029618784240454943,0.0,0.0,0.0,455.0,986.0,1.0,0,1559.0,0
1096,1096,-0.5960701691896668,-0.6,1.0,0.0,472.0,557.0,0.0,0,271.0,1
1097,1097,0.28212017982447846,0.3,1.0,1.0,489.0,664.0,1.0,1,147.0,1
1098,1098,-0.39874256306498135,-0.4,0.0,1.0,252.0,898.0,1.0,0,150.0,1
1099,1099,0.8800567929138564,0.9,0.0,0.0,327.0,955.0,0.0,1,128.0,1
1100,1100,-0.8063745143518439,-0.8,1.0,0.0,462.0,997.0,0.0,0,181.0,1
1101,1101,-0.8283962891350328,-0.8,0.0,1.0,375.0,612.0,1.0,0,123.0,1
1102,1102,0.14635829086706964,0.1,0.0,0.0,280.0,681.0,0.0,1,1589.0,1
1103,1103,-0.717219290617608,-0.7,1.0,0.0,435.0,890.0,0.0,0,185.0,1
1104,1104,0.7421319300550927,0.7,0.0,0.0,489.0,539.0,0.0,1,212.0,1
1105,1105,0.1490649904659348,0.1,1.0,1.0,260.0,867.0,1.0,1,403.0,1
1106,1106,-0.7444000256614288,-0.7,0.0,1.0,323.0,785.0,1.0,0,242.0,1
1107,1107,-0.015308301078517328,-0.0,0.0,1.0,396.0,538.0,1.0,0,2066.0,1
1108,1108,0.0838512286774028,0.1,1.0,1.0,270.0,921.0,1.0,1,649.0,1
1109,1109,-0.5931222153708945,-0.6,0.0,1.0,286.0,714.0,1.0,0,190.0,1
1110,1110,-0.547540979004479,-0.5,1.0,0.0,369.0,621.0,0.0,0,330.0,1
1111,1111,-0.24596898088287023,-0.2,1.0,0.0,342.0,647.0,0.0,0,541.0,1
1112,1112,0.02315755658633223,0.0,0.0,0.0,440.0,916.0,1.0,0,1644.0,0
1113,1113,-0.05660546270237332,-0.1,0.0,1.0,396.0,515.0,1.0,0,2089.0,1
1114,1114,-0.8706501454362982,-0.9,0.0,1.0,494.0,855.0,1.0,0,71.0,1
1115,1115,0.4820179229356204,0.5,1.0,1.0,252.0,950.0,1.0,1,-242.0,1
1116,1116,-0.4102711220501885,-0.4,1.0,0.0,400.0,977.0,0.0,0,163.0,1
1117,1117,-0.6096660301809818,-0.6,1.0,0.0,280.0,956.0,0.0,0,144.0,1
1118,1118,0.46962244538508535,0.5,1.0,1.0,461.0,859.0,1.0,1,210.0,1
1119,1119,0.39072215908441066,0.4,0.0,0.0,456.0,917.0,0.0,1,317.0,1
1120,1120,-0.8597578993875025,-0.9,1.0,0.0,278.0,913.0,0.0,0,269.0,1
1121,1121,0.15563006759652176,0.2,1.0,1.0,323.0,959.0,1.0,1,8.0,1
1122,1122,-0.49051153231567673,-0.5,0.0,1.0,496.0,995.0,1.0,0,139.0,1
1123,1123,-0.07430376860857157,-0.1,1.0,0.0,441.0,885.0,1.0,1,1604.0,0
1124,1124,-0.27714354373234984,-0.3,0.0,1.0,428.0,990.0,1.0,0,502.0,1
1125,1125,-0.7577026109526821,-0.8,0.0,1.0,423.0,927.0,1.0,0,280.0,1
1126,1126,0.49023907766263275,0.5,1.0,1.0,375.0,510.0,1.0,1,115.0,1
1127,1127,0.4391688439900877,0.4,1.0,1.0,378.0,896.0,1.0,1,36.0,1
1128,1128,-0.6056619355455757,-0.6,0.0,1.0,471.0,681.0,1.0,0,208.0,1
1129,1129,-0.8471690744253573,-0.8,0.0,1.0,308.0,817.0,1.0,0,155.0,1
1130,1130,-0.5792927297497855,-0.6,1.0,0.0,423.0,657.0,1.0,1,-20.0,0
1131,1131,0.4383464959440465,0.4,0.0,0.0,437.0,536.0,0.0,1,357.0,1
1132,1132,0.2895510066392918,0.3,1.0,1.0,428.0,635.0,1.0,1,337.0,1
1133,1133,-0.28446043659076936,-0.3,0.0,1.0,488.0,588.0,1.0,0,724.0,1
1134,1134,0.7467529179797326,0.7,0.0,0.0,293.0,615.0,0.0,1,322.0,1
1135,1135,0.8183405894358587,0.8,1.0,1.0,304.0,961.0,1.0,1,-105.0,1
1136,1136,0.3324494142437816,0.3,0.0,0.0,398.0,551.0,0.0,1,501.0,1
1137,1137,0.23491317686871171,0.2,1.0,1.0,368.0,629.0,1.0,1,253.0,1
1138,1138,0.44946432153519333,0.4,1.0,1.0,444.0,826.0,1.0,1,260.0,1
1139,1139,0.16632460606682098,0.2,1.0,1.0,447.0,651.0,1.0,1,112.0,1
1140,1140,-0.8423156013338016,-0.8,1.0,0.0,361.0,729.0,0.0,0,150.0,1
1141,1141,0.6301743533416894,0.6,0.0,0.0,441.0,734.0,0.0,1,255.0,1
1142,1142,0.719684008070662,0.7,1.0,1.0,489.0,768.0,1.0,1,103.0,1
1143,1143,0.6012764810590517,0.6,1.0,1.0,497.0,728.0,1.0,1,35.0,1
1144,1144,0.6356020918362789,0.6,1.0,1.0,344.0,690.0,1.0,1,136.0,1
1145,1145,0.6620159967055542,0.7,0.0,0.0,421.0,861.0,0.0,1,178.0,1
1146,1146,0.8813768116948012,0.9,1.0,1.0,335.0,997.0,1.0,1,-432.0,1
1147,1147,0.7284798856249889,0.7,0.0,0.0,462.0,774.0,0.0,1,364.0,1
1148,1148,0.6661015506502027,0.7,1.0,1.0,398.0,796.0,1.0,1,36.0,1
1149,1149,-0.42245781691727086,-0.4,1.0,0.0,308.0,936.0,0.0,0,176.0,1
1150,1150,0.5193123767305755,0.5,0.0,0.0,464.0,683.0,0.0,1,343.0,1
1151,1151,0.8938968144383134,0.9,0.0,0.0,314.0,946.0,0.0,1,490.0,1
1152,1152,0.34355250238168755,0.3,1.0,1.0,470.0,896.0,1.0,1,154.0,1
1153,1153,-0.38330833741172365,-0.4,1.0,0.0,319.0,724.0,0.0,0,307.0,1
1154,1154,0.10160836390724415,0.1,1.0,1.0,333.0,551.0,1.0,1,236.0,1
1155,1155,0.5887954705681636,0.6,0.0,0.0,302.0,657.0,0.0,1,561.0,1
1156,1156,0.12078564992981577,0.1,1.0,1.0,363.0,777.0,1.0,1,50.0,1
1157,1157,0.3599280349224986,0.4,0.0,0.0,329.0,602.0,0.0,1,299.0,1
1158,1158,-0.09062787483640589,-0.1,1.0,0.0,467.0,845.0,0.0,0,1688.0,1
1159,1159,-0.46119220477228934,-0.5,1.0,0.0,351.0,855.0,0.0,0,284.0,1
1160,1160,-0.7693507844142744,-0.8,0.0,1.0,485.0,764.0,1.0,0,141.0,1
1161,1161,-0.8784404857632938,-0.9,0.0,1.0,430.0,660.0,1.0,0,170.0,1
1162,1162,0.20032329577523889,0.2,1.0,1.0,383.0,734.0,1.0,1,233.0,1
1163,1163,0.8584867492330955,0.9,0.0,0.0,307.0,620.0,0.0,1,123.0,1
1164,1164,-0.5491169902847866,-0.5,0.0,1.0,347.0,872.0,1.0,0,391.0,1
1165,1165,-0.3005372882360593,-0.3,1.0,0.0,405.0,786.0,0.0,0,419.0,1
1166,1166,-0.8931915412870678,-0.9,0.0,1.0,297.0,549.0,1.0,0,244.0,1
1167,1167,0.11273253626405844,0.1,0.0,0.0,392.0,973.0,0.0,1,1635.0,1
1168,1168,-0.7659942068110431,-0.8,0.0,1.0,434.0,966.0,1.0,0,-10.0,1
1169,1169,-0.6210699324332231,-0.6,0.0,1.0,255.0,973.0,1.0,0,222.0,1
1170,1170,-0.15477864080871828,-0.2,1.0,0.0,450.0,614.0,0.0,0,806.0,1
1171,1171,-0.19642489966391796,-0.2,0.0,1.0,404.0,647.0,1.0,0,89.0,1
1172,1172,0.403334119694455,0.4,1.0,1.0,445.0,831.0,1.0,1,174.0,1
1173,1173,0.0069968859013005424,0.0,0.0,0.0,319.0,712.0,0.0,1,1969.0,1
1174,1174,0.834414123620617,0.8,1.0,1.0,326.0,593.0,1.0,1,21.0,1
1175,1175,0.13322997030164163,0.1,1.0,1.0,364.0,665.0,1.0,1,401.0,1
1176,1176,-0.8090621598656816,-0.8,0.0,1.0,486.0,983.0,0.0,1,-39.0,0
1177,1177,-0.8193226818503594,-0.8,0.0,1.0,487.0,790.0,1.0,0,63.0,1
1178,1178,0.7827900777742306,0.8,0.0,0.0,455.0,732.0,0.0,1,183.0,1
1179,1179,0.7576047219230041,0.8,1.0,1.0,476.0,514.0,1.0,1,410.0,1
1180,1180,0.5449102055302296,0.5,1.0,1.0,437.0,829.0,1.0,1,74.0,1
1181,1181,-0.8628071242734328,-0.9,1.0,0.0,309.0,976.0,0.0,0,165.0,1
1182,1182,-0.6173171950259373,-0.6,1.0,0.0,379.0,983.0,0.0,0,288.0,1
1183,1183,0.008738432344348457,0.0,0.0,0.0,364.0,916.0,0.0,1,1720.0,1
1184,1184,-0.05715443414201582,-0.1,1.0,0.0,293.0,574.0,0.0,0,2033.0,1
1185,1185,0.6542261703157818,0.7,1.0,1.0,362.0,861.0,1.0,1,67.0,1
1186,1186,-0.21536276294084167,-0.2,1.0,0.0,280.0,693.0,0.0,0,177.0,1
1187,1187,0.19812034946233836,0.2,1.0,1.0,478.0,628.0,1.0,1,404.0,1
1188,1188,-0.10253306232234172,-0.1,1.0,0.0,437.0,990.0,0.0,0,1573.0,1
1189,1189,-0.38512576728886627,-0.4,1.0,0.0,261.0,799.0,0.0,0,280.0,1
1190,1190,0.8898604402018854,0.9,0.0,0.0,317.0,742.0,0.0,1,141.0,1
1191,1191,-0.7650764906356525,-0.8,0.0,1.0,319.0,841.0,1.0,0,130.0,1
1192,1192,-0.861438806421777,-0.9,0.0,1.0,396.0,764.0,1.0,0,90.0,1
1193,1193,0.2023703633165298,0.2,1.0,1.0,283.0,781.0,1.0,1,306.0,1
1194,1194,-0.0925231131964287,-0.1,1.0,0.0,382.0,626.0,0.0,0,1772.0,1
1195,1195,-0.5721640883112278,-0.6,1.0,0.0,321.0,729.0,0.0,0,250.0,1
1196,1196,-0.7578073271635164,-0.8,1.0,0.0,424.0,863.0,0.0,0,273.0,1
1197,1197,0.44073806524081893,0.4,1.0,1.0,380.0,505.0,1.0,1,285.0,1
1198,1198,0.8954085765922887,0.9,0.0,0.0,444.0,569.0,0.0,1,427.0,1
1199,1199,-0.7496535236465183,-0.7,0.0,1.0,492.0,768.0,1.0,0,150.0,1
1200,1200,-0.23100691632214776,-0.2,1.0,0.0,458.0,568.0,0.0,0,744.0,1
1201,1201,-0.8378095568976189,-0.8,0.0,1.0,306.0,748.0,1.0,0,246.0,1
1202,1202,-0.3054275053900719,-0.3,0.0,1.0,392.0,537.0,1.0,0,391.0,1
1203,1203,0.5818803393026618,0.6,1.0,1.0,293.0,518.0,1.0,1,69.0,1
1204,1204,0.5431856335113111,0.5,0.0,0.0,422.0,685.0,0.0,1,153.0,1
1205,1205,-0.6843400161305644,-0.7,1.0,0.0,495.0,805.0,0.0,0,200.0,1
1206,1206,-0.8710387082666844,-0.9,1.0,0.0,306.0,683.0,0.0,0,261.0,1
1207,1207,0.534002506463963,0.5,1.0,1.0,441.0,530.0,1.0,1,209.0,1
1208,1208,0.8150619808962892,0.8,1.0,1.0,367.0,543.0,1.0,1,170.0,1
1209,1209,-0.7736582673580661,-0.8,0.0,1.0,370.0,749.0,1.0,0,141.0,1
1210,1210,0.8148783226079811,0.8,0.0,0.0,499.0,534.0,0.0,1,397.0,1
1211,1211,-0.8419818009709732,-0.8,0.0,1.0,283.0,866.0,1.0,0,141.0,1
1212,1212,-0.7240216441605889,-0.7,0.0,1.0,344.0,693.0,1.0,0,183.0,1
1213,1213,-0.4747731628282537,-0.5,1.0,0.0,270.0,783.0,0.0,0,277.0,1
1214,1214,0.05013237862636355,0.1,0.0,0.0,486.0,710.0,0.0,1,1804.0,1
1215,1215,-0.4631235481475864,-0.5,0.0,1.0,273.0,655.0,1.0,0,322.0,1
1216,1216,-0.6665551615571084,-0.7,0.0,1.0,430.0,711.0,1.0,0,249.0,1
1217,1217,0.8102203147136792,0.8,1.0,1.0,468.0,850.0,1.0,1,172.0,1
1218,1218,0.7956032509589664,0.8,1.0,1.0,437.0,825.0,1.0,1,88.0,1
1219,1219,-0.6787896283137482,-0.7,0.0,1.0,388.0,577.0,1.0,0,205.0,1
1220,1220,0.06194665165077451,0.1,1.0,1.0,382.0,929.0,1.0,1,239.0,1
1221,1221,-0.8277418219861592,-0.8,1.0,0.0,305.0,750.0,0.0,0,175.0,1
1222,1222,0.704721183697587,0.7,1.0,1.0,360.0,682.0,1.0,1,98.0,1
1223,1223,0.7314016435737442,0.7,1.0,1.0,266.0,667.0,1.0,1,217.0,1
1224,1224,0.733277322207256,0.7,1.0,1.0,414.0,504.0,1.0,1,252.0,1
1225,1225,-0.24633714733016698,-0.2,1.0,0.0,339.0,618.0,0.0,0,363.0,1
1226,1226,0.808372646035281,0.8,0.0,0.0,458.0,630.0,0.0,1,232.0,1
1227,1227,-0.013145549587322836,-0.0,1.0,0.0,300.0,682.0,1.0,1,788.0,0
1228,1228,-0.10801278798332914,-0.1,0.0,1.0,258.0,920.0,1.0,0,922.0,1
1229,1229,-0.7019193534294237,-0.7,0.0,1.0,308.0,884.0,1.0,0,158.0,1
1230,1230,-0.11307846090259865,-0.1,1.0,0.0,430.0,974.0,1.0,1,-84.0,0
1231,1231,0.2984095036104436,0.3,1.0,1.0,432.0,985.0,1.0,1,133.0,1
1232,1232,-0.10388996151136809,-0.1,1.0,0.0,287.0,714.0,0.0,0,779.0,1
1233,1233,-0.011872486001252125,-0.0,0.0,1.0,450.0,815.0,0.0,1,1735.0,0
1234,1234,0.6337189232108719,0.6,1.0,1.0,381.0,644.0,1.0,1,105.0,1
1235,1235,-0.3107101187394504,-0.3,0.0,1.0,476.0,631.0,1.0,0,253.0,1
1236,1236,0.044006160396393046,0.0,0.0,0.0,305.0,816.0,0.0,1,1879.0,1
1237,1237,-0.20510377545053193,-0.2,1.0,0.0,365.0,735.0,0.0,0,690.0,1
1238,1238,0.11599555612753265,0.1,0.0,0.0,265.0,885.0,0.0,1,1850.0,1
1239,1239,-0.8079564212630342,-0.8,0.0,1.0,470.0,746.0,1.0,0,194.0,1
1240,1240,0.2887481302553093,0.3,1.0,1.0,278.0,884.0,1.0,1,308.0,1
1241,1241,0.8543590628235297,0.9,0.0,0.0,395.0,787.0,0.0,1,228.0,1
1242,1242,0.1498751637914607,0.1,1.0,1.0,417.0,970.0,1.0,1,133.0,1
1243,1243,0.8008317548744744,0.8,0.0,0.0,351.0,977.0,0.0,1,782.0,1
1244,1244,-0.5179445071774869,-0.5,0.0,1.0,317.0,839.0,1.0,0,184.0,1
1245,1245,0.599726094433996,0.6,1.0,1.0,487.0,831.0,1.0,1,112.0,1
1246,1246,0.3108683173671306,0.3,0.0,0.0,266.0,901.0,0.0,1,383.0,1
1247,1247,-0.527733861078042,-0.5,0.0,1.0,428.0,929.0,1.0,0,223.0,1
1248,1248,-0.35368458052546237,-0.4,0.0,1.0,483.0,554.0,1.0,0,283.0,1
1249,1249,0.7038154395914346,0.7,0.0,0.0,310.0,868.0,0.0,1,172.0,1
1250,1250,0.2019609494084843,0.2,0.0,0.0,380.0,595.0,0.0,1,695.0,1
1251,1251,-0.6900538134448579,-0.7,0.0,1.0,334.0,551.0,1.0,0,125.0,1
1252,1252,0.03447188218545305,0.0,1.0,1.0,258.0,941.0,1.0,1,801.0,1
1253,1253,-0.5240053762449186,-0.5,1.0,0.0,381.0,617.0,0.0,0,232.0,1
1254,1254,-0.2080409109787027,-0.2,0.0,1.0,465.0,820.0,1.0,0,555.0,1
1255,1255,0.5908786884427394,0.6,0.0,0.0,389.0,915.0,0.0,1,206.0,1
1256,1256,0.5961044192595079,0.6,1.0,1.0,313.0,546.0,1.0,1,241.0,1
1257,1257,-0.33244105985707717,-0.3,0.0,1.0,343.0,654.0,1.0,0,173.0,1
1258,1258,0.3619152718388331,0.4,0.0,0.0,482.0,754.0,0.0,1,414.0,1
1259,1259,-0.10859407212207706,-0.1,0.0,1.0,376.0,877.0,1.0,0,1747.0,1
1260,1260,0.023690451495068432,0.0,0.0,0.0,280.0,510.0,0.0,1,2210.0,1
1261,1261,-0.2986722061240802,-0.3,0.0,1.0,382.0,907.0,1.0,0,631.0,1
1262,1262,-0.006592275819473081,-0.0,1.0,0.0,343.0,906.0,1.0,1,361.0,0
1263,1263,0.6386400944553737,0.6,1.0,1.0,333.0,943.0,1.0,1,-106.0,1
1264,1264,0.3715940676948407,0.4,1.0,1.0,250.0,898.0,1.0,1,222.0,1
1265,1265,0.2281100273076052,0.2,0.0,0.0,426.0,832.0,0.0,1,492.0,1
1266,1266,0.7366181423132167,0.7,1.0,1.0,283.0,960.0,1.0,1,147.0,1
1267,1267,0.7591398337114396,0.8,0.0,0.0,363.0,818.0,0.0,1,199.0,1
1268,1268,-0.02935596517834771,-0.0,0.0,1.0,296.0,682.0,1.0,0,2022.0,1
1269,1269,0.0529499018641959,0.1,1.0,1.0,358.0,773.0,1.0,1,69.0,1
1270,1270,-0.6906578538490291,-0.7,1.0,0.0,313.0,740.0,0.0,0,267.0,1
1271,1271,-0.5754281374921378,-0.6,0.0,1.0,313.0,971.0,1.0,0,356.0,1
1272,1272,0.432074173146756,0.4,1.0,1.0,455.0,700.0,1.0,1,755.0,1
1273,1273,-0.864392765632984,-0.9,0.0,1.0,470.0,844.0,1.0,0,176.0,1
1274,1274,0.7143704660985836,0.7,0.0,0.0,340.0,536.0,0.0,1,374.0,1
1275,1275,-0.7692393270832854,-0.8,1.0,0.0,393.0,605.0,0.0,0,272.0,1
1276,1276,-0.591406072147566,-0.6,1.0,0.0,335.0,870.0,0.0,0,195.0,1
1277,1277,-0.532640287157804,-0.5,1.0,0.0,476.0,757.0,0.0,0,297.0,1
1278,1278,0.11898834362715804,0.1,0.0,0.0,472.0,875.0,0.0,1,1653.0,1
1279,1279,-0.6084278062184617,-0.6,0.0,1.0,468.0,826.0,1.0,0,76.0,1
1280,1280,0.20148100634167332,0.2,1.0,1.0,458.0,996.0,1.0,1,156.0,1
1281,1281,0.6940671980104943,0.7,0.0,0.0,438.0,701.0,0.0,1,91.0,1
1282,1282,0.7368265820506691,0.7,0.0,0.0,344.0,725.0,0.0,1,231.0,1
1283,1283,-0.8843291228057173,-0.9,1.0,0.0,354.0,511.0,0.0,0,205.0,1
1284,1284,-0.28225668528343795,-0.3,1.0,0.0,468.0,647.0,0.0,0,635.0,1
1285,1285,-0.8713816461956218,-0.9,0.0,1.0,321.0,875.0,1.0,0,234.0,1
1286,1286,0.403789126529002,0.4,1.0,1.0,383.0,776.0,1.0,1,41.0,1
1287,1287,-0.41917748350239425,-0.4,0.0,1.0,499.0,941.0,1.0,0,140.0,1
1288,1288,-0.06417565722321805,-0.1,0.0,1.0,393.0,867.0,1.0,0,1740.0,1
1289,1289,-0.022347599162270915,-0.0,0.0,1.0,440.0,939.0,0.0,1,1621.0,0
1290,1290,0.37518649042516994,0.4,1.0,1.0,341.0,659.0,1.0,1,300.0,1
1291,1291,-0.5014519756278395,-0.5,0.0,1.0,342.0,792.0,1.0,0,366.0,1
1292,1292,0.49450462444106014,0.5,0.0,0.0,372.0,824.0,0.0,1,124.0,1
1293,1293,0.7660081896479606,0.8,0.0,0.0,481.0,608.0,0.0,1,251.0,1
1294,1294,0.42367583038935963,0.4,0.0,0.0,332.0,622.0,0.0,1,276.0,1
1295,1295,0.8630635736944471,0.9,1.0,1.0,444.0,779.0,1.0,1,77.0,1
1296,1296,-0.19552198736139037,-0.2,0.0,1.0,270.0,742.0,1.0,0,818.0,1
1297,1297,0.21330611517925313,0.2,0.0,0.0,319.0,881.0,0.0,1,480.0,1
1298,1298,0.21957397200486628,0.2,0.0,0.0,493.0,969.0,0.0,1,598.0,1
1299,1299,0.5275082751124084,0.5,1.0,1.0,290.0,506.0,1.0,1,194.0,1
1300,1300,-0.5270914777200117,-0.5,0.0,1.0,361.0,750.0,1.0,0,319.0,1
1301,1301,-0.024436544464814025,-0.0,0.0,1.0,260.0,813.0,0.0,1,1927.0,0
1302,1302,0.43482363547642466,0.4,0.0,0.0,479.0,677.0,0.0,1,724.0,1
1303,1303,0.4017529556794287,0.4,1.0,1.0,412.0,913.0,1.0,1,-85.0,1
1304,1304,0.5688770608087484,0.6,0.0,0.0,347.0,806.0,0.0,1,257.0,1
1305,1305,0.46511242217297977,0.5,0.0,0.0,380.0,694.0,0.0,1,766.0,1
1306,1306,-0.6448776552675848,-0.6,0.0,1.0,282.0,723.0,1.0,0,85.0,1
1307,1307,-0.5064513326671524,-0.5,1.0,0.0,255.0,510.0,0.0,0,395.0,1
1308,1308,0.3836143547899665,0.4,0.0,0.0,290.0,841.0,0.0,1,229.0,1
1309,1309,-0.5564721574181231,-0.6,0.0,1.0,342.0,787.0,1.0,0,181.0,1
1310,1310,-0.10280417899627359,-0.1,1.0,0.0,340.0,967.0,0.0,0,283.0,1
1311,1311,0.17594316000075472,0.2,0.0,0.0,307.0,839.0,0.0,1,554.0,1
1312,1312,-0.09453300422858824,-0.1,1.0,0.0,447.0,913.0,0.0,0,940.0,1
1313,1313,-0.6805661421062869,-0.7,1.0,0.0,371.0,551.0,0.0,0,198.0,1
1314,1314,-0.38184451597966595,-0.4,1.0,0.0,493.0,958.0,0.0,0,339.0,1
1315,1315,-0.18203533970749808,-0.2,1.0,0.0,430.0,843.0,0.0,0,1137.0,1
1316,1316,0.02918979094884444,0.0,1.0,1.0,322.0,704.0,1.0,1,284.0,1
1317,1317,0.12137904195438154,0.1,1.0,1.0,351.0,807.0,1.0,1,362.0,1
1318,1318,0.715817126074917,0.7,0.0,0.0,285.0,848.0,0.0,1,357.0,1
1319,1319,0.20896866699435523,0.2,1.0,1.0,444.0,933.0,1.0,1,-37.0,1
1320,1320,0.8594075179641739,0.9,1.0,1.0,340.0,727.0,1.0,1,113.0,1
1321,1321,0.7235005831666955,0.7,1.0,1.0,495.0,631.0,1.0,1,204.0,1
1322,1322,-0.8280391055798119,-0.8,1.0,0.0,475.0,656.0,0.0,0,189.0,1
1323,1323,0.6710440322856314,0.7,0.0,0.0,370.0,516.0,0.0,1,314.0,1
1324,1324,0.6173739954190426,0.6,0.0,0.0,349.0,589.0,0.0,1,442.0,1
1325,1325,0.17389569100474012,0.2,1.0,1.0,427.0,662.0,1.0,1,241.0,1
1326,1326,-0.6773273146919138,-0.7,0.0,1.0,394.0,530.0,1.0,0,236.0,1
1327,1327,0.41993190990780727,0.4,0.0,0.0,470.0,755.0,0.0,1,495.0,1
1328,1328,-0.8565034539784565,-0.9,1.0,0.0,392.0,640.0,0.0,0,158.0,1
1329,1329,0.08875435716694058,0.1,0.0,0.0,400.0,660.0,0.0,1,1940.0,1
1330,1330,0.40564336860439176,0.4,1.0,1.0,272.0,714.0,1.0,1,134.0,1
1331,1331,-0.02063626213278802,-0.0,0.0,1.0,337.0,893.0,1.0,0,1770.0,1
1332,1332,0.2084400825067222,0.2,1.0,1.0,478.0,889.0,1.0,1,393.0,1
1333,1333,-0.7703116903536383,-0.8,1.0,0.0,309.0,633.0,0.0,0,158.0,1
1334,1334,0.3314745576644381,0.3,1.0,1.0,268.0,701.0,1.0,1,-129.0,1
1335,1335,0.33308771492035205,0.3,1.0,1.0,250.0,534.0,1.0,1,316.0,1
1336,1336,0.6398779974024192,0.6,0.0,0.0,478.0,925.0,0.0,1,257.0,1
1337,1337,0.10414351299170288,0.1,1.0,1.0,467.0,894.0,1.0,1,339.0,1
1338,1338,-0.6983962201055604,-0.7,1.0,0.0,297.0,644.0,0.0,0,229.0,1
1339,1339,-0.14271585520763586,-0.1,0.0,1.0,306.0,881.0,1.0,0,233.0,1
1340,1340,0.48469846861130106,0.5,1.0,1.0,418.0,924.0,1.0,1,88.0,1
1341,1341,-0.8561710689856696,-0.9,0.0,1.0,369.0,802.0,1.0,0,189.0,1
1342,1342,0.49268088836991486,0.5,1.0,1.0,377.0,504.0,1.0,1,399.0,1
1343,1343,-0.4060328559331417,-0.4,1.0,0.0,386.0,694.0,0.0,0,390.0,1
1344,1344,0.41384736858665916,0.4,0.0,0.0,310.0,793.0,0.0,1,167.0,1
1345,1345,0.4276756977696766,0.4,0.0,0.0,445.0,562.0,0.0,1,383.0,1
1346,1346,0.21550685890473809,0.2,1.0,1.0,440.0,607.0,1.0,1,83.0,1
1347,1347,-0.29660788123083803,-0.3,0.0,1.0,378.0,908.0,1.0,0,194.0,1
1348,1348,-0.11334234453174985,-0.1,0.0,1.0,392.0,918.0,1.0,0,390.0,1
1349,1349,0.33960201560830516,0.3,0.0,0.0,293.0,636.0,0.0,1,331.0,1
1350,1350,-0.3555735057315361,-0.4,0.0,1.0,351.0,974.0,1.0,0,345.0,1
1351,1351,0.34602139392611864,0.3,1.0,1.0,493.0,696.0,1.0,1,171.0,1
1352,1352,0.6070925853580201,0.6,1.0,1.0,480.0,936.0,1.0,1,64.0,1
1353,1353,0.8368530823197543,0.8,0.0,0.0,301.0,756.0,0.0,1,163.0,1
1354,1354,0.8083648971681393,0.8,0.0,0.0,339.0,620.0,0.0,1,181.0,1
1355,1355,-0.6202478666225475,-0.6,1.0,0.0,278.0,949.0,0.0,0,153.0,1
1356,1356,-0.36569128261510075,-0.4,1.0,0.0,257.0,560.0,0.0,0,273.0,1
1357,1357,-0.6842507055989762,-0.7,1.0,0.0,431.0,797.0,0.0,0,222.0,1
1358,1358,0.35097487781396175,0.4,1.0,1.0,353.0,985.0,1.0,1,-318.0,1
1359,1359,-0.7220970457384066,-0.7,1.0,0.0,376.0,773.0,0.0,0,521.0,1
1360,1360,0.7693488229534841,0.8,0.0,0.0,264.0,673.0,0.0,1,153.0,1
1361,1361,-0.8502029012921778,-0.9,0.0,1.0,438.0,758.0,1.0,0,124.0,1
1362,1362,0.6195910564755679,0.6,0.0,0.0,342.0,548.0,0.0,1,230.0,1
1363,1363,-0.6431148092787982,-0.6,0.0,1.0,369.0,869.0,1.0,0,142.0,1
1364,1364,0.36828622968409486,0.4,1.0,1.0,347.0,529.0,1.0,1,214.0,1
1365,1365,-0.6611899978564992,-0.7,0.0,1.0,382.0,512.0,1.0,0,266.0,1
1366,1366,-0.6554404569440632,-0.7,1.0,0.0,453.0,914.0,0.0,0,183.0,1
1367,1367,-0.5681071429387261,-0.6,0.0,1.0,304.0,917.0,1.0,0,69.0,1
1368,1368,0.8918942922676151,0.9,0.0,0.0,308.0,563.0,0.0,1,659.0,1
1369,1369,0.1153088052905139,0.1,1.0,1.0,392.0,534.0,1.0,1,484.0,1
1370,1370,0.006466635596485082,0.0,1.0,1.0,306.0,758.0,1.0,1,816.0,1
1371,1371,0.7481479589373344,0.7,1.0,1.0,296.0,868.0,1.0,1,66.0,1
1372,1372,-0.03392671301668915,-0.0,0.0,1.0,489.0,784.0,1.0,0,1727.0,1
1373,1373,0.2897025712727722,0.3,0.0,0.0,374.0,655.0,0.0,1,491.0,1
1374,1374,-0.40760334999793746,-0.4,0.0,1.0,290.0,903.0,1.0,0,447.0,1
1375,1375,0.21471584444872505,0.2,0.0,0.0,292.0,864.0,0.0,1,1074.0,1
1376,1376,-0.5716454054761171,-0.6,1.0,0.0,465.0,575.0,0.0,0,390.0,1
1377,1377,0.597176752534086,0.6,0.0,0.0,372.0,554.0,0.0,1,514.0,1
1378,1378,-0.07617715122550761,-0.1,1.0,0.0,268.0,714.0,0.0,0,198.0,1
1379,1379,0.4934516511214889,0.5,1.0,1.0,461.0,535.0,1.0,1,374.0,1
1380,1380,0.15189174008860717,0.2,1.0,1.0,352.0,924.0,1.0,1,314.0,1
1381,1381,0.84848098191558,0.8,0.0,0.0,291.0,545.0,0.0,1,244.0,1
1382,1382,-0.38786642144186867,-0.4,0.0,1.0,401.0,792.0,1.0,0,187.0,1
1383,1383,0.5571355231328358,0.6,0.0,0.0,342.0,866.0,0.0,1,422.0,1
1384,1384,0.7739091373322641,0.8,1.0,1.0,341.0,718.0,1.0,1,91.0,1
1385,1385,0.19465576722480515,0.2,0.0,0.0,454.0,778.0,0.0,1,748.0,1
1386,1386,0.08195509055771544,0.1,0.0,0.0,466.0,744.0,0.0,1,930.0,1
1387,1387,-0.4502539752680434,-0.5,1.0,0.0,460.0,916.0,0.0,0,364.0,1
1388,1388,0.5028232046919606,0.5,1.0,1.0,427.0,581.0,1.0,1,162.0,1
1389,1389,-0.3879187975475942,-0.4,0.0,1.0,481.0,873.0,1.0,0,306.0,1
1390,1390,-0.8333629432182033,-0.8,1.0,0.0,405.0,754.0,0.0,0,221.0,1
1391,1391,0.06238058002856761,0.1,1.0,1.0,479.0,564.0,1.0,1,1137.0,1
1392,1392,0.6188847288767202,0.6,1.0,1.0,300.0,850.0,1.0,1,-120.0,1
1393,1393,0.6368009833291094,0.6,1.0,1.0,267.0,854.0,1.0,1,189.0,1
1394,1394,-0.8454980092101237,-0.8,1.0,0.0,408.0,824.0,0.0,0,308.0,1
1395,1395,0.22571056034221526,0.2,0.0,0.0,265.0,971.0,0.0,1,464.0,1
1396,1396,-0.4325190143529622,-0.4,1.0,0.0,455.0,879.0,0.0,0,516.0,1
1397,1397,0.1624912667914583,0.2,1.0,1.0,440.0,703.0,1.0,1,307.0,1
1398,1398,-0.7941640948690142,-0.8,1.0,0.0,338.0,737.0,0.0,0,175.0,1
1399,1399,-0.011181718708553334,-0.0,0.0,1.0,261.0,552.0,0.0,1,2187.0,0
1400,1400,-0.39307180364956606,-0.4,0.0,1.0,479.0,658.0,1.0,0,173.0,1
1401,1401,0.06787519205916637,0.1,0.0,0.0,338.0,786.0,0.0,1,1876.0,1
1402,1402,-0.15267084420466914,-0.2,0.0,1.0,309.0,505.0,1.0,0,1866.0,1
1403,1403,-0.24053030191088254,-0.2,0.0,1.0,284.0,667.0,1.0,0,249.0,1
1404,1404,-0.8287911927863256,-0.8,0.0,1.0,358.0,947.0,1.0,0,95.0,1
1405,1405,-0.8189813077934489,-0.8,0.0,1.0,251.0,732.0,1.0,0,37.0,1
1406,1406,-0.027248054272558497,-0.0,0.0,1.0,330.0,597.0,1.0,0,2073.0,1
1407,1407,-0.2308816725794589,-0.2,1.0,0.0,408.0,703.0,0.0,0,629.0,1
1408,1408,0.224789840818589,0.2,0.0,0.0,495.0,710.0,0.0,1,325.0,1
1409,1409,0.2573797667115453,0.3,1.0,1.0,341.0,586.0,1.0,1,113.0,1
1410,1410,-0.2152226094364036,-0.2,1.0,0.0,440.0,688.0,0.0,0,562.0,1
1411,1411,-0.03405639855025844,-0.0,0.0,1.0,300.0,906.0,1.0,0,1794.0,1
1412,1412,-0.04076427037320929,-0.0,1.0,0.0,315.0,605.0,0.0,0,1580.0,1
1413,1413,0.7328578513013541,0.7,0.0,0.0,349.0,667.0,0.0,1,194.0,1
1414,1414,-0.492546606196952,-0.5,1.0,0.0,435.0,830.0,0.0,0,325.0,1
1415,1415,-0.046862147322465075,-0.0,1.0,0.0,479.0,587.0,1.0,1,264.0,0
1416,1416,-0.1129179671524081,-0.1,0.0,1.0,416.0,560.0,1.0,0,2024.0,1
1417,1417,-0.09508134811098579,-0.1,1.0,0.0,475.0,963.0,1.0,1,812.0,0
1418,1418,0.6301470385015909,0.6,0.0,0.0,355.0,862.0,0.0,1,223.0,1
1419,1419,0.3568154718529891,0.4,0.0,0.0,278.0,607.0,0.0,1,305.0,1
1420,1420,0.2852885773713697,0.3,0.0,0.0,276.0,732.0,0.0,1,472.0,1
1421,1421,-0.2016347056004818,-0.2,0.0,1.0,424.0,866.0,1.0,0,300.0,1
1422,1422,0.650190254821697,0.7,1.0,1.0,422.0,886.0,1.0,1,92.0,1
1423,1423,0.00011415949489601562,0.0,0.0,0.0,468.0,566.0,0.0,1,1966.0,1
1424,1424,-0.07993648805352271,-0.1,1.0,0.0,258.0,963.0,0.0,0,1519.0,1
1425,1425,0.07712487160951698,0.1,0.0,0.0,470.0,705.0,0.0,1,1255.0,1
1426,1426,-0.508836619527832,-0.5,1.0,0.0,400.0,853.0,0.0,0,247.0,1
1427,1427,0.6792637852604796,0.7,0.0,0.0,479.0,695.0,0.0,1,206.0,1
1428,1428,0.4120386780812565,0.4,1.0,1.0,491.0,894.0,1.0,1,365.0,1
1429,1429,0.5800373142956806,0.6,0.0,0.0,310.0,817.0,0.0,1,183.0,1
1430,1430,-0.45870792511532266,-0.5,1.0,0.0,475.0,676.0,0.0,0,369.0,1
1431,1431,-0.11920832814013405,-0.1,0.0,1.0,335.0,766.0,1.0,0,549.0,1
1432,1432,-0.46163480080790487,-0.5,0.0,1.0,448.0,710.0,1.0,0,292.0,1
1433,1433,0.579157707465379,0.6,1.0,1.0,441.0,724.0,1.0,1,145.0,1
1434,1434,-0.789196006251633,-0.8,0.0,1.0,458.0,594.0,1.0,0,278.0,1
1435,1435,0.5023339348739894,0.5,0.0,0.0,454.0,585.0,0.0,1,691.0,1
1436,1436,0.5972632924109803,0.6,0.0,0.0,307.0,905.0,0.0,1,298.0,1
1437,1437,0.3241200630376887,0.3,1.0,1.0,290.0,990.0,1.0,1,40.0,1
1438,1438,-0.7635060618566912,-0.8,1.0,0.0,305.0,942.0,0.0,0,323.0,1
1439,1439,-0.027870553978851964,-0.0,1.0,0.0,490.0,579.0,1.0,1,1001.0,0
1440,1440,0.45359416994744384,0.5,1.0,1.0,327.0,616.0,1.0,1,247.0,1
1441,1441,-0.1694398993875541,-0.2,0.0,1.0,398.0,920.0,1.0,0,982.0,1
1442,1442,0.8337702499263869,0.8,0.0,0.0,317.0,890.0,0.0,1,253.0,1
1443,1443,0.18651712325562098,0.2,1.0,1.0,310.0,553.0,1.0,1,287.0,1
1444,1444,-0.8142019869597757,-0.8,1.0,0.0,381.0,880.0,0.0,0,189.0,1
1445,1445,-0.3207105500391032,-0.3,1.0,0.0,352.0,860.0,0.0,0,518.0,1
1446,1446,0.4538223108349496,0.5,0.0,0.0,329.0,848.0,0.0,1,653.0,1
1447,1447,0.390374368930244,0.4,0.0,0.0,431.0,941.0,0.0,1,118.0,1
1448,1448,0.6401847704829905,0.6,1.0,1.0,272.0,641.0,1.0,1,197.0,1
1449,1449,0.5873532244559757,0.6,0.0,0.0,400.0,806.0,0.0,1,254.0,1
1450,1450,-0.08507123559067908,-0.1,1.0,0.0,403.0,910.0,0.0,0,1687.0,1
1451,1451,-0.8533766604586479,-0.9,0.0,1.0,434.0,553.0,1.0,0,133.0,1
1452,1452,-0.4632423313865884,-0.5,0.0,1.0,268.0,860.0,1.0,0,442.0,1
1453,1453,0.4390101129774976,0.4,1.0,1.0,432.0,700.0,1.0,1,148.0,1
1454,1454,-0.8296250208270675,-0.8,0.0,1.0,431.0,964.0,1.0,0,35.0,1
1455,1455,-0.3511573758387071,-0.4,1.0,0.0,400.0,663.0,0.0,0,227.0,1
1456,1456,0.0034936580846013365,0.0,1.0,1.0,458.0,653.0,1.0,1,1259.0,1
1457,1457,0.8285357271486643,0.8,1.0,1.0,379.0,897.0,1.0,1,134.0,1
1458,1458,-0.1428379196983398,-0.1,1.0,0.0,331.0,693.0,0.0,0,416.0,1
1459,1459,0.8344732396014328,0.8,0.0,0.0,470.0,902.0,0.0,1,198.0,1
1460,1460,-0.03228968088346951,-0.0,1.0,0.0,493.0,646.0,1.0,1,1861.0,0
1461,1461,0.8436561237661505,0.8,0.0,0.0,455.0,937.0,0.0,1,68.0,1
1462,1462,0.8315955478276519,0.8,1.0,1.0,396.0,553.0,1.0,1,171.0,1
1463,1463,-0.26234156410496534,-0.3,1.0,0.0,318.0,852.0,0.0,0,330.0,1
1464,1464,0.34563142847285644,0.3,1.0,1.0,388.0,588.0,1.0,1,544.0,1
1465,1465,-0.5012210390017978,-0.5,1.0,0.0,351.0,852.0,1.0,1,-93.0,0
1466,1466,0.39926995037222757,0.4,1.0,1.0,362.0,965.0,1.0,1,33.0,1
1467,1467,0.3413163688945583,0.3,0.0,0.0,350.0,904.0,0.0,1,326.0,1
1468,1468,0.3778036614904744,0.4,1.0,1.0,448.0,857.0,1.0,1,345.0,1
1469,1469,0.5313097509284143,0.5,1.0,1.0,422.0,711.0,1.0,1,287.0,1
1470,1470,0.7809607272971334,0.8,0.0,0.0,433.0,853.0,0.0,1,104.0,1
1471,1471,0.7014233373413953,0.7,1.0,1.0,433.0,576.0,1.0,1,91.0,1
1472,1472,-0.6793786500501297,-0.7,0.0,1.0,338.0,561.0,1.0,0,241.0,1
1473,1473,-0.5614772334301135,-0.6,1.0,0.0,453.0,735.0,0.0,0,232.0,1
1474,1474,-0.7584981219677921,-0.8,0.0,1.0,342.0,597.0,1.0,0,171.0,1
1475,1475,-0.5344008927082844,-0.5,0.0,1.0,382.0,520.0,1.0,0,228.0,1
1476,1476,-0.35963399693097353,-0.4,0.0,1.0,321.0,988.0,1.0,0,251.0,1
1477,1477,0.8814470939302611,0.9,1.0,1.0,483.0,587.0,1.0,1,190.0,1
1478,1478,-0.08279527011000565,-0.1,1.0,0.0,297.0,919.0,1.0,1,-246.0,0
1479,1479,-0.026326260338289886,-0.0,0.0,1.0,431.0,780.0,1.0,0,1769.0,1
1480,1480,0.3317578364588648,0.3,0.0,0.0,370.0,696.0,0.0,1,1014.0,1
1481,1481,0.04463584363950812,0.0,1.0,1.0,307.0,592.0,1.0,1,951.0,1
1482,1482,-0.24346318519381738,-0.2,1.0,0.0,386.0,560.0,0.0,0,794.0,1
1483,1483,-0.3320319812722188,-0.3,1.0,0.0,283.0,908.0,0.0,0,579.0,1
1484,1484,0.07745558169332678,0.1,1.0,1.0,305.0,526.0,1.0,1,1039.0,1
1485,1485,0.25789899408572825,0.3,1.0,1.0,423.0,691.0,1.0,1,366.0,1
1486,1486,-0.07652873776212699,-0.1,1.0,0.0,348.0,619.0,1.0,1,1353.0,0
1487,1487,0.3120979988423397,0.3,0.0,0.0,370.0,983.0,0.0,1,257.0,1
1488,1488,-0.3377263831889279,-0.3,0.0,1.0,496.0,565.0,1.0,0,339.0,1
1489,1489,-0.6059819527907937,-0.6,1.0,0.0,333.0,869.0,0.0,0,248.0,1
1490,1490,0.7258354805720687,0.7,1.0,1.0,298.0,637.0,1.0,1,165.0,1
1491,1491,0.5946643681361349,0.6,1.0,1.0,357.0,657.0,1.0,1,256.0,1
1492,1492,0.8710304242974664,0.9,1.0,1.0,357.0,906.0,1.0,1,147.0,1
