,trial,coherence,coherence_bin,green_side,correct_side,target_onset,checker_onset,decision,green_decision,decision_time,correct_decision
0,0,0.40491541767353334,0.4,1.0,1.0,421.0,661.0,0.0,0,1918.0,0
1,1,0.6796871729572563,0.7,0.0,0.0,398.0,605.0,0.0,1,1997.0,1
2,2,-0.27572948635175865,-0.3,1.0,0.0,414.0,914.0,0.0,0,1672.0,1
3,3,0.6850901511023445,0.7,0.0,0.0,465.0,657.0,0.0,1,1878.0,1
4,4,-0.3019406903241819,-0.3,1.0,0.0,364.0,984.0,0.0,0,1652.0,1
5,5,-0.6695709612491498,-0.7,1.0,0.0,252.0,846.0,0.0,0,1902.0,1
6,6,0.17440604144304472,0.2,0.0,0.0,385.0,868.0,0.0,1,1747.0,1
7,7,0.23258079838426993,0.2,0.0,0.0,449.0,748.0,0.0,1,1803.0,1
8,8,-0.1213215389317589,-0.1,0.0,1.0,426.0,613.0,0.0,1,1961.0,0
9,9,-0.853866249834826,-0.9,1.0,0.0,437.0,663.0,0.0,0,1900.0,1
10,10,0.1900433228682551,0.2,0.0,0.0,491.0,704.0,0.0,1,1805.0,1
11,11,0.11818992895264524,0.1,0.0,0.0,365.0,585.0,0.0,1,2050.0,1
12,12,0.584775232929161,0.6,1.0,1.0,367.0,698.0,0.0,0,-1045.0,0
13,13,0.348375933467998,0.3,1.0,1.0,361.0,774.0,0.0,0,1865.0,0
14,14,-0.8152432159611854,-0.8,0.0,1.0,397.0,846.0,0.0,1,1757.0,0
15,15,-0.27937352592404585,-0.3,0.0,1.0,369.0,826.0,0.0,1,1805.0,0
16,16,-0.7737537472561722,-0.8,1.0,0.0,465.0,572.0,0.0,0,1963.0,1
17,17,0.8018615155543217,0.8,0.0,0.0,318.0,511.0,0.0,1,2171.0,1
18,18,-0.3985006802293194,-0.4,1.0,0.0,432.0,745.0,0.0,0,1823.0,1
19,19,-0.15326548873518975,-0.2,0.0,1.0,363.0,782.0,0.0,1,1855.0,0
20,20,0.27917183292400904,0.3,1.0,1.0,420.0,624.0,0.0,0,1956.0,0
21,21,-0.14175856565347833,-0.1,0.0,1.0,339.0,707.0,0.0,1,1954.0,0
22,22,-0.013253595768499382,-0.0,0.0,1.0,287.0,534.0,0.0,1,2179.0,0
23,23,0.06766088529286407,0.1,0.0,0.0,495.0,538.0,0.0,1,1967.0,1
24,24,0.8567910188906748,0.9,0.0,0.0,331.0,531.0,0.0,1,2138.0,1
25,25,0.7657475981551306,0.8,0.0,0.0,447.0,576.0,0.0,1,1977.0,1
26,26,-0.42944408558333047,-0.4,1.0,0.0,442.0,873.0,0.0,0,1685.0,1
27,27,-0.5500463477579065,-0.6,1.0,0.0,304.0,520.0,0.0,0,2176.0,1
28,28,-0.39806514251508784,-0.4,1.0,0.0,328.0,583.0,0.0,0,-831.0,1
29,29,-0.668346364382429,-0.7,0.0,1.0,292.0,827.0,0.0,1,1881.0,0
30,30,0.3149752541627274,0.3,0.0,0.0,363.0,969.0,0.0,1,1668.0,1
31,31,0.6865532683702932,0.7,1.0,1.0,304.0,591.0,0.0,0,2105.0,0
32,32,0.40848738592791023,0.4,0.0,0.0,405.0,624.0,0.0,1,1971.0,1
33,33,0.048417191180849195,0.0,1.0,1.0,386.0,684.0,0.0,0,1930.0,0
34,34,0.11395695523038951,0.1,1.0,1.0,363.0,861.0,0.0,0,-1024.0,0
35,35,-0.8589448165865182,-0.9,0.0,1.0,401.0,996.0,0.0,1,1603.0,0
36,36,-0.01960863431211335,-0.0,0.0,1.0,261.0,584.0,0.0,1,2155.0,0
37,37,-0.780400425217361,-0.8,1.0,0.0,376.0,835.0,0.0,0,1789.0,1
38,38,-0.7097556447899739,-0.7,1.0,0.0,489.0,635.0,0.0,0,1876.0,1
39,39,-0.5324992024156577,-0.5,0.0,1.0,258.0,902.0,0.0,1,1840.0,0
40,40,-0.07846405002596646,-0.1,1.0,0.0,299.0,542.0,1.0,1,-751.0,0
41,41,-0.14105992606030704,-0.1,1.0,0.0,259.0,596.0,0.0,0,2145.0,1
42,42,-0.8798220943051326,-0.9,1.0,0.0,392.0,828.0,0.0,0,1780.0,1
43,43,0.4558737937071059,0.5,0.0,0.0,482.0,651.0,0.0,1,-1043.0,1
44,44,-0.30499436198336793,-0.3,1.0,0.0,334.0,631.0,0.0,0,2035.0,1
45,45,-0.8698795649067551,-0.9,1.0,0.0,383.0,993.0,0.0,0,1624.0,1
46,46,-0.2043109654478268,-0.2,1.0,0.0,380.0,910.0,0.0,0,-1270.0,1
47,47,-0.7230486886379477,-0.7,0.0,1.0,324.0,877.0,0.0,1,1799.0,0
48,48,-0.4924240350665334,-0.5,1.0,0.0,373.0,516.0,1.0,1,-829.0,0
49,49,0.7678563670981547,0.8,1.0,1.0,390.0,813.0,0.0,0,1797.0,0
50,50,-0.07717943140430106,-0.1,1.0,0.0,450.0,713.0,0.0,0,1837.0,1
51,51,-0.8447365006320593,-0.8,1.0,0.0,428.0,648.0,1.0,1,-956.0,0
52,52,-0.6653236314327324,-0.7,0.0,1.0,290.0,916.0,0.0,1,1794.0,0
53,53,0.29514642051481965,0.3,0.0,0.0,428.0,591.0,0.0,1,-979.0,1
54,54,-0.5803789517358807,-0.6,0.0,1.0,437.0,739.0,0.0,1,1824.0,0
55,55,-0.5449268131617411,-0.5,1.0,0.0,370.0,643.0,0.0,0,1987.0,1
56,56,0.10477895495485201,0.1,0.0,0.0,461.0,662.0,0.0,1,1877.0,1
57,57,-0.37808385308603154,-0.4,0.0,1.0,320.0,598.0,0.0,1,2082.0,0
58,58,-0.8544949018745424,-0.9,1.0,0.0,267.0,722.0,1.0,1,-959.0,0
59,59,-0.1770064442246564,-0.2,0.0,1.0,422.0,853.0,0.0,1,1725.0,0
60,60,-0.12119072394944252,-0.1,0.0,1.0,274.0,845.0,0.0,1,1881.0,0
61,61,-0.11145173695755595,-0.1,1.0,0.0,454.0,540.0,0.0,0,2006.0,1
62,62,0.7076829341745553,0.7,1.0,1.0,292.0,711.0,0.0,0,1997.0,0
63,63,0.5553888385779494,0.6,1.0,1.0,386.0,839.0,1.0,1,-1175.0,1
64,64,0.34776229941281234,0.3,0.0,0.0,325.0,626.0,0.0,1,2049.0,1
65,65,-0.8647762397805219,-0.9,0.0,1.0,359.0,948.0,0.0,1,1693.0,0
66,66,-0.29852230111595557,-0.3,1.0,0.0,447.0,611.0,1.0,1,-1028.0,0
67,67,0.5896726707752536,0.6,1.0,1.0,341.0,859.0,0.0,0,1800.0,0
68,68,-0.41176718149947017,-0.4,1.0,0.0,371.0,964.0,0.0,0,-1265.0,1
69,69,-0.009951042394515941,-0.0,0.0,1.0,315.0,573.0,0.0,1,-888.0,0
70,70,0.2974923571102509,0.3,0.0,0.0,387.0,557.0,0.0,1,2056.0,1
71,71,-0.01197963192036633,-0.0,0.0,1.0,327.0,555.0,0.0,1,2118.0,0
72,72,-0.29242541855723214,-0.3,1.0,0.0,358.0,954.0,0.0,0,1688.0,1
73,73,-0.7340765186869957,-0.7,1.0,0.0,262.0,532.0,1.0,1,-634.0,0
74,74,-0.23737118445409955,-0.2,1.0,0.0,482.0,807.0,0.0,0,1711.0,1
75,75,0.25992350109244244,0.3,0.0,0.0,342.0,992.0,0.0,1,1666.0,1
76,76,-0.5590319725467796,-0.6,1.0,0.0,464.0,907.0,0.0,0,1629.0,1
77,77,-0.5731049708506701,-0.6,0.0,1.0,311.0,515.0,0.0,1,2174.0,0
78,78,-0.18935833620829112,-0.2,0.0,1.0,334.0,994.0,0.0,1,1672.0,0
79,79,-0.5677344755523575,-0.6,1.0,0.0,351.0,846.0,0.0,0,1803.0,1
80,80,-0.5223726457545816,-0.5,0.0,1.0,353.0,671.0,1.0,0,-994.0,1
81,81,0.7833235208565651,0.8,1.0,1.0,284.0,630.0,0.0,0,2086.0,0
82,82,0.4392781301589054,0.4,1.0,1.0,429.0,645.0,0.0,0,1926.0,0
83,83,0.4132721636690534,0.4,0.0,0.0,474.0,717.0,0.0,1,-1041.0,1
84,84,-0.7428447034076562,-0.7,1.0,0.0,278.0,747.0,0.0,0,1975.0,1
85,85,-0.775514712632628,-0.8,0.0,1.0,333.0,520.0,0.0,1,2147.0,0
86,86,-0.34570937428962567,-0.3,1.0,0.0,380.0,508.0,0.0,0,2112.0,1
87,87,-0.7557277700092099,-0.8,0.0,1.0,375.0,608.0,0.0,1,2017.0,0
88,88,0.4392330207540195,0.4,0.0,0.0,274.0,673.0,0.0,1,-897.0,1
89,89,0.33748490432589506,0.3,1.0,1.0,286.0,666.0,0.0,0,2048.0,0
90,90,0.5065952970425246,0.5,0.0,0.0,388.0,762.0,0.0,1,-1130.0,1
91,91,-0.41044510034704434,-0.4,1.0,0.0,305.0,852.0,0.0,0,1843.0,1
92,92,0.42543747380824926,0.4,0.0,0.0,490.0,916.0,0.0,1,1594.0,1
93,93,-0.3453705534802225,-0.3,0.0,1.0,404.0,837.0,0.0,1,1759.0,0
94,94,-0.6098825367121434,-0.6,1.0,0.0,417.0,534.0,0.0,0,2049.0,1
95,95,0.1936287836556726,0.2,1.0,1.0,350.0,679.0,0.0,0,1971.0,0
96,96,-0.07217012674741297,-0.1,0.0,1.0,376.0,518.0,0.0,1,2106.0,0
97,97,-0.3822645337244296,-0.4,0.0,1.0,272.0,778.0,0.0,1,1950.0,0
98,98,0.8512731994971218,0.9,0.0,0.0,499.0,586.0,0.0,1,1915.0,1
99,99,0.5894091958798159,0.6,0.0,0.0,430.0,664.0,0.0,1,1906.0,1
100,100,-0.7215655345697026,-0.7,0.0,1.0,489.0,987.0,0.0,1,1524.0,0
101,101,0.11773027638137112,0.1,0.0,0.0,381.0,742.0,0.0,1,1877.0,1
102,102,0.6317750327788142,0.6,1.0,1.0,362.0,903.0,0.0,0,1735.0,0
103,103,0.6750280293363605,0.7,1.0,1.0,307.0,840.0,0.0,0,1853.0,0
104,104,-0.6420521705152973,-0.6,0.0,1.0,424.0,757.0,0.0,1,1819.0,0
105,105,-0.2877699350392917,-0.3,0.0,1.0,353.0,747.0,0.0,1,1900.0,0
106,106,0.6530503588327367,0.7,1.0,1.0,266.0,834.0,0.0,0,1900.0,0
107,107,0.5171819111298052,0.5,0.0,0.0,260.0,516.0,0.0,1,2224.0,1
108,108,-0.534358516573589,-0.5,0.0,1.0,451.0,850.0,0.0,1,1699.0,0
109,109,-0.23881439805501037,-0.2,1.0,0.0,381.0,926.0,0.0,0,1693.0,1
110,110,-0.46373143699337893,-0.5,1.0,0.0,360.0,929.0,0.0,0,1711.0,1
111,111,-0.7053405401928142,-0.7,0.0,1.0,384.0,991.0,0.0,1,-1355.0,0
112,112,-0.4612382704309757,-0.5,1.0,0.0,368.0,569.0,0.0,0,2063.0,1
113,113,0.1871922638282585,0.2,0.0,0.0,472.0,762.0,0.0,1,1766.0,1
114,114,-0.33614841392456796,-0.3,0.0,1.0,410.0,573.0,0.0,1,2017.0,0
115,115,0.5807946303352566,0.6,0.0,0.0,267.0,845.0,0.0,1,1888.0,1
116,116,-0.22879494519526078,-0.2,0.0,1.0,352.0,646.0,0.0,1,2002.0,0
117,117,-0.7968030397627374,-0.8,0.0,1.0,397.0,612.0,0.0,1,1991.0,0
118,118,0.8608946485529091,0.9,1.0,1.0,464.0,756.0,0.0,0,1780.0,0
119,119,0.7238763546263628,0.7,1.0,1.0,297.0,734.0,0.0,0,1969.0,0
120,120,-0.02168207815451406,-0.0,1.0,0.0,345.0,557.0,0.0,0,2098.0,1
121,121,-0.463146053249751,-0.5,0.0,1.0,270.0,602.0,0.0,1,2128.0,0
122,122,0.5590434093848674,0.6,1.0,1.0,467.0,566.0,0.0,0,1967.0,0
123,123,-0.8647743997016355,-0.9,1.0,0.0,428.0,605.0,0.0,0,1967.0,1
124,124,0.8115018669277129,0.8,1.0,1.0,254.0,923.0,0.0,0,1823.0,0
125,125,0.03288325555666638,0.0,1.0,1.0,386.0,858.0,0.0,0,1756.0,0
126,126,-0.25152039168658147,-0.3,0.0,1.0,374.0,991.0,0.0,1,1635.0,0
127,127,0.7609710539713402,0.8,1.0,1.0,271.0,900.0,0.0,0,1829.0,0
128,128,-0.43775147067197967,-0.4,0.0,1.0,418.0,587.0,0.0,1,1995.0,0
129,129,-0.46894323703689994,-0.5,1.0,0.0,288.0,616.0,0.0,0,-864.0,1
130,130,0.359334506844725,0.4,0.0,0.0,467.0,900.0,0.0,1,1633.0,1
131,131,-0.13845444598342216,-0.1,1.0,0.0,466.0,749.0,0.0,0,1785.0,1
132,132,-0.8356017574201972,-0.8,1.0,0.0,321.0,651.0,0.0,0,2028.0,1
133,133,0.7217197730127548,0.7,0.0,0.0,326.0,602.0,0.0,1,2072.0,1
134,134,-0.8384981344773487,-0.8,0.0,1.0,405.0,711.0,1.0,0,-1096.0,1
135,135,-0.24942778899707763,-0.2,1.0,0.0,346.0,852.0,0.0,0,1802.0,1
136,136,-0.09968486339099869,-0.1,1.0,0.0,395.0,720.0,1.0,1,-1025.0,0
137,137,0.4377355035081162,0.4,0.0,0.0,358.0,556.0,0.0,1,2086.0,1
138,138,-0.4711298017196208,-0.5,1.0,0.0,423.0,701.0,0.0,0,-1064.0,1
139,139,0.35877361532463004,0.4,1.0,1.0,387.0,958.0,0.0,0,1655.0,0
140,140,0.5707036662780501,0.6,0.0,0.0,463.0,779.0,0.0,1,-1192.0,1
141,141,0.12370903199618899,0.1,1.0,1.0,291.0,545.0,0.0,0,2164.0,0
142,142,0.19924040909290108,0.2,1.0,1.0,472.0,777.0,0.0,0,1751.0,0
143,143,-0.05636065808231994,-0.1,0.0,1.0,428.0,823.0,0.0,1,1749.0,0
144,144,-0.3991749964606499,-0.4,1.0,0.0,349.0,543.0,1.0,1,-862.0,0
145,145,0.7025471036472438,0.7,1.0,1.0,479.0,519.0,0.0,0,2002.0,0
146,146,-0.12634033485642648,-0.1,1.0,0.0,280.0,583.0,0.0,0,2137.0,1
147,147,0.6780702209349309,0.7,0.0,0.0,489.0,746.0,0.0,1,1765.0,1
148,148,-0.10187153102513258,-0.1,0.0,1.0,382.0,951.0,0.0,1,1667.0,0
149,149,0.08189187365355921,0.1,0.0,0.0,435.0,627.0,0.0,1,1938.0,1
150,150,-0.42728303130555084,-0.4,1.0,0.0,400.0,853.0,0.0,0,1747.0,1
151,151,-0.043807555051441405,-0.0,1.0,0.0,360.0,541.0,0.0,0,2099.0,1
152,152,-0.35328903713188686,-0.4,1.0,0.0,292.0,992.0,0.0,0,1716.0,1
153,153,-0.6934641769910963,-0.7,0.0,1.0,428.0,541.0,0.0,1,2031.0,0
154,154,-0.14883901003135902,-0.1,1.0,0.0,280.0,806.0,0.0,0,1914.0,1
155,155,-0.8964229783373201,-0.9,0.0,1.0,380.0,656.0,0.0,1,1964.0,0
156,156,0.24651943130866638,0.2,0.0,0.0,442.0,585.0,1.0,0,-1017.0,0
157,157,0.7106994749477903,0.7,1.0,1.0,284.0,921.0,0.0,0,1795.0,0
158,158,0.18921701726584217,0.2,0.0,0.0,489.0,828.0,0.0,1,1683.0,1
159,159,0.0712609396299746,0.1,0.0,0.0,272.0,810.0,0.0,1,1918.0,1
160,160,0.48843785287915364,0.5,0.0,0.0,365.0,679.0,0.0,1,1956.0,1
161,161,0.6332317162838895,0.6,1.0,1.0,326.0,671.0,0.0,0,2003.0,0
162,162,-0.8816334929351797,-0.9,0.0,1.0,289.0,657.0,0.0,1,2054.0,0
163,163,-0.8822640222704436,-0.9,1.0,0.0,393.0,840.0,0.0,0,1767.0,1
164,164,0.4273579170091243,0.4,0.0,0.0,271.0,501.0,0.0,1,2228.0,1
165,165,-0.6476109109062547,-0.6,1.0,0.0,485.0,813.0,1.0,1,-1218.0,0
166,166,-0.3731180194107955,-0.4,0.0,1.0,332.0,610.0,0.0,1,-742.0,0
167,167,0.33896732321280243,0.3,1.0,1.0,476.0,744.0,0.0,0,1780.0,0
168,168,0.17626983296993826,0.2,0.0,0.0,475.0,618.0,0.0,1,-943.0,1
169,169,-0.1229224591517386,-0.1,1.0,0.0,416.0,770.0,0.0,0,-1046.0,1
170,170,-0.8282229979854118,-0.8,1.0,0.0,283.0,973.0,0.0,0,1744.0,1
171,171,-0.2904527259654679,-0.3,1.0,0.0,268.0,771.0,0.0,0,1961.0,1
172,172,0.32122963670754634,0.3,0.0,0.0,426.0,795.0,0.0,1,1779.0,1
173,173,-0.21596497685813454,-0.2,0.0,1.0,430.0,534.0,0.0,1,2036.0,0
174,174,-0.36635393075541656,-0.4,1.0,0.0,285.0,730.0,0.0,0,1985.0,1
175,175,-0.772304732170774,-0.8,1.0,0.0,377.0,545.0,0.0,0,2078.0,1
176,176,0.812076357278381,0.8,0.0,0.0,324.0,521.0,0.0,1,2155.0,1
177,177,-0.7333641250984693,-0.7,0.0,1.0,471.0,844.0,0.0,1,1685.0,0
178,178,-0.5806712151004068,-0.6,0.0,1.0,378.0,605.0,0.0,1,2017.0,0
179,179,-0.38316474391366206,-0.4,0.0,1.0,415.0,773.0,0.0,1,1812.0,0
180,180,-0.18652370523078488,-0.2,1.0,0.0,319.0,970.0,0.0,0,1711.0,1
181,181,0.6288403618928294,0.6,0.0,0.0,334.0,735.0,0.0,1,1931.0,1
182,182,0.0016949002552734127,0.0,0.0,0.0,351.0,534.0,0.0,1,-785.0,1
183,183,0.4501453503312608,0.5,0.0,0.0,493.0,576.0,0.0,1,1931.0,1
184,184,0.8914742345371091,0.9,0.0,0.0,447.0,533.0,0.0,1,2020.0,1
185,185,-0.6234886646058124,-0.6,1.0,0.0,324.0,658.0,0.0,0,2018.0,1
186,186,0.5097418320873718,0.5,1.0,1.0,326.0,913.0,0.0,0,1761.0,0
187,187,-0.07769805330556334,-0.1,0.0,1.0,372.0,552.0,0.0,1,2076.0,0
188,188,0.564756875268685,0.6,1.0,1.0,447.0,691.0,0.0,0,-1128.0,0
189,189,0.396042344867651,0.4,1.0,1.0,397.0,570.0,0.0,0,2033.0,0
190,190,-0.1452265075598156,-0.1,0.0,1.0,365.0,530.0,0.0,1,2105.0,0
191,191,0.1926040492704738,0.2,0.0,0.0,350.0,836.0,0.0,1,1814.0,1
192,192,0.6838130327939985,0.7,1.0,1.0,270.0,805.0,0.0,0,1925.0,0
193,193,0.8581615890880178,0.9,1.0,1.0,490.0,804.0,0.0,0,1706.0,0
194,194,-0.6994675707268061,-0.7,0.0,1.0,430.0,714.0,0.0,1,1856.0,0
195,195,-0.08375737325020727,-0.1,1.0,0.0,482.0,567.0,0.0,0,1951.0,1
196,196,0.5601542446845572,0.6,0.0,0.0,269.0,673.0,0.0,1,2058.0,1
197,197,0.5834766409492905,0.6,1.0,1.0,285.0,744.0,0.0,0,1971.0,0
198,198,0.08332858374402541,0.1,1.0,1.0,313.0,772.0,0.0,0,1915.0,0
199,199,0.4227498029267912,0.4,1.0,1.0,453.0,815.0,0.0,0,1732.0,0
200,200,0.30159422723005946,0.3,0.0,0.0,368.0,569.0,0.0,1,2063.0,1
201,201,-0.775360092369085,-0.8,1.0,0.0,380.0,964.0,0.0,0,1656.0,1
202,202,-0.7138421781587079,-0.7,0.0,1.0,270.0,589.0,0.0,1,2141.0,0
203,203,-0.18379510872418026,-0.2,1.0,0.0,273.0,666.0,0.0,0,-899.0,1
204,204,-0.18641872828213846,-0.2,1.0,0.0,315.0,974.0,0.0,0,1711.0,1
205,205,0.3745087949365772,0.4,0.0,0.0,300.0,999.0,0.0,1,1701.0,1
206,206,-0.4207685392951361,-0.4,0.0,1.0,433.0,848.0,0.0,1,1719.0,0
207,207,0.2598120286489213,0.3,0.0,0.0,443.0,880.0,0.0,1,1677.0,1
208,208,-0.822383051858783,-0.8,0.0,1.0,303.0,661.0,0.0,1,2036.0,0
209,209,-0.1575978709565672,-0.2,1.0,0.0,264.0,555.0,1.0,1,-799.0,0
210,210,0.8710380867009851,0.9,0.0,0.0,488.0,875.0,0.0,1,1637.0,1
211,211,-0.7942326048589395,-0.8,0.0,1.0,401.0,666.0,0.0,1,1933.0,0
212,212,-0.37380359670968166,-0.4,0.0,1.0,437.0,992.0,0.0,1,1571.0,0
213,213,0.5519955534495008,0.6,0.0,0.0,295.0,710.0,0.0,1,1995.0,1
214,214,0.6770236326026441,0.7,1.0,1.0,339.0,996.0,0.0,0,1665.0,0
215,215,0.6043507981022905,0.6,1.0,1.0,397.0,646.0,0.0,0,1957.0,0
216,216,-0.22751280117069728,-0.2,0.0,1.0,372.0,633.0,0.0,1,1995.0,0
217,217,-0.03399653446512085,-0.0,0.0,1.0,357.0,727.0,0.0,1,1916.0,0
218,218,-0.3715277994554528,-0.4,1.0,0.0,282.0,671.0,0.0,0,2047.0,1
219,219,0.8284593960123371,0.8,1.0,1.0,323.0,544.0,0.0,0,-837.0,0
220,220,0.19994428993316993,0.2,0.0,0.0,306.0,899.0,0.0,1,1795.0,1
221,221,-0.7275111881891324,-0.7,1.0,0.0,425.0,712.0,0.0,0,1863.0,1
222,222,0.23425056189627524,0.2,1.0,1.0,285.0,533.0,0.0,0,2182.0,0
223,223,0.2622539503197562,0.3,1.0,1.0,277.0,579.0,0.0,0,2144.0,0
224,224,-0.41682410682010024,-0.4,1.0,0.0,477.0,659.0,0.0,0,1864.0,1
225,225,0.31031721932635115,0.3,1.0,1.0,277.0,897.0,0.0,0,-1164.0,0
226,226,-0.3594624786003323,-0.4,0.0,1.0,393.0,736.0,0.0,1,1871.0,0
227,227,0.3922284766045535,0.4,0.0,0.0,437.0,663.0,0.0,1,1900.0,1
228,228,0.7090929901710467,0.7,1.0,1.0,478.0,853.0,0.0,0,1669.0,0
229,229,-0.44698738149237455,-0.4,1.0,0.0,496.0,876.0,0.0,0,1628.0,1
230,230,0.26339565319655567,0.3,0.0,0.0,388.0,894.0,0.0,1,1718.0,1
231,231,-0.8018562973253037,-0.8,1.0,0.0,275.0,680.0,0.0,0,2045.0,1
232,232,-0.31258004347778434,-0.3,0.0,1.0,302.0,950.0,0.0,1,1748.0,0
233,233,-0.28642508678613543,-0.3,0.0,1.0,373.0,773.0,0.0,1,1854.0,0
234,234,0.7515914401682297,0.8,1.0,1.0,354.0,901.0,0.0,0,1745.0,0
235,235,-0.5868439055882684,-0.6,1.0,0.0,349.0,507.0,1.0,1,-826.0,0
236,236,-0.6267141283979294,-0.6,1.0,0.0,325.0,731.0,0.0,0,1944.0,1
237,237,-0.13492496608096005,-0.1,1.0,0.0,448.0,661.0,0.0,0,-1059.0,1
238,238,0.19285201496675308,0.2,1.0,1.0,290.0,766.0,0.0,0,1944.0,0
239,239,0.5527526572579294,0.6,1.0,1.0,447.0,591.0,0.0,0,1962.0,0
240,240,0.15866879344694718,0.2,1.0,1.0,293.0,956.0,0.0,0,-1169.0,0
241,241,0.3430571680053921,0.3,0.0,0.0,269.0,779.0,0.0,1,1952.0,1
242,242,0.5504493669056806,0.6,0.0,0.0,469.0,926.0,0.0,1,1605.0,1
243,243,-0.23284592614846333,-0.2,0.0,1.0,429.0,674.0,0.0,1,1897.0,0
244,244,0.6839915776955113,0.7,1.0,1.0,375.0,833.0,0.0,0,1792.0,0
245,245,0.6099527543992186,0.6,0.0,0.0,335.0,986.0,0.0,1,-1181.0,1
246,246,-0.8671455072680717,-0.9,1.0,0.0,462.0,509.0,0.0,0,-931.0,1
247,247,0.5490589833258427,0.5,1.0,1.0,251.0,632.0,0.0,0,2117.0,0
248,248,-0.7513133971233014,-0.8,0.0,1.0,332.0,716.0,0.0,1,1952.0,0
249,249,-0.5403021761919509,-0.5,1.0,0.0,252.0,737.0,0.0,0,2011.0,1
250,250,0.4747444895010803,0.5,1.0,1.0,323.0,504.0,0.0,0,2173.0,0
251,251,-0.8825575828418433,-0.9,0.0,1.0,340.0,519.0,0.0,1,2141.0,0
252,252,0.2175488669321154,0.2,0.0,0.0,493.0,594.0,0.0,1,1913.0,1
253,253,0.6653513790256284,0.7,1.0,1.0,360.0,519.0,0.0,0,2121.0,0
254,254,-0.6618417580504535,-0.7,1.0,0.0,349.0,859.0,0.0,0,1792.0,1
255,255,0.4007802651959361,0.4,1.0,1.0,263.0,899.0,1.0,1,-1092.0,1
256,256,0.4645959445863309,0.5,1.0,1.0,352.0,653.0,0.0,0,1995.0,0
257,257,-0.8075665361494542,-0.8,0.0,1.0,363.0,985.0,0.0,1,-1318.0,0
258,258,-0.6007295305948805,-0.6,1.0,0.0,432.0,870.0,0.0,0,1698.0,1
259,259,0.15177526193298763,0.2,0.0,0.0,443.0,599.0,0.0,1,1958.0,1
260,260,-0.3661322280188901,-0.4,1.0,0.0,348.0,910.0,0.0,0,1742.0,1
261,261,0.28138428910801394,0.3,0.0,0.0,475.0,904.0,0.0,1,1621.0,1
262,262,-0.767380708201202,-0.8,1.0,0.0,261.0,978.0,0.0,0,1761.0,1
263,263,0.8592182124040658,0.9,0.0,0.0,405.0,685.0,0.0,1,1910.0,1
264,264,0.40053344720811224,0.4,0.0,0.0,458.0,863.0,0.0,1,1679.0,1
265,265,0.27902991305458713,0.3,0.0,0.0,403.0,619.0,0.0,1,1978.0,1
266,266,0.42415958498685413,0.4,1.0,1.0,437.0,527.0,0.0,0,2036.0,0
267,267,-0.7082128284617204,-0.7,0.0,1.0,367.0,608.0,0.0,1,2025.0,0
268,268,-0.6307148434517658,-0.6,0.0,1.0,330.0,598.0,0.0,1,2072.0,0
269,269,-0.3327834470023274,-0.3,1.0,0.0,310.0,676.0,1.0,1,-856.0,0
270,270,0.8591543725604828,0.9,0.0,0.0,403.0,523.0,0.0,1,2074.0,1
271,271,0.33186707096538715,0.3,0.0,0.0,417.0,915.0,0.0,1,1668.0,1
272,272,0.5101331841316917,0.5,0.0,0.0,271.0,893.0,0.0,1,1836.0,1
273,273,-0.7535720551773486,-0.8,0.0,1.0,338.0,882.0,0.0,1,1780.0,0
274,274,0.7406010030336142,0.7,0.0,0.0,487.0,802.0,0.0,1,1711.0,1
275,275,0.06263136818237702,0.1,1.0,1.0,341.0,842.0,0.0,0,1817.0,0
276,276,0.419500038486294,0.4,0.0,0.0,326.0,668.0,0.0,1,2006.0,1
277,277,-0.14472749125265805,-0.1,1.0,0.0,323.0,516.0,1.0,1,-719.0,0
278,278,-0.23927610832847956,-0.2,1.0,0.0,370.0,528.0,0.0,0,2102.0,1
279,279,-0.12613059108942493,-0.1,1.0,0.0,459.0,898.0,0.0,0,1643.0,1
280,280,0.5440694189744809,0.5,0.0,0.0,289.0,770.0,0.0,1,1941.0,1
281,281,-0.1567970618207022,-0.2,1.0,0.0,452.0,713.0,1.0,1,-1065.0,0
282,282,-0.1524865979390091,-0.2,1.0,0.0,268.0,936.0,0.0,0,1796.0,1
283,283,-0.8084045955863182,-0.8,1.0,0.0,419.0,825.0,0.0,0,1756.0,1
284,284,0.7624555399080276,0.8,0.0,0.0,430.0,803.0,0.0,1,1767.0,1
285,285,0.0418216255410464,0.0,0.0,0.0,324.0,908.0,0.0,1,-1132.0,1
286,286,0.07962168345384435,0.1,1.0,1.0,498.0,678.0,1.0,1,-1166.0,1
287,287,0.5972846371165085,0.6,1.0,1.0,265.0,870.0,0.0,0,1865.0,0
288,288,0.5254274213823166,0.5,1.0,1.0,339.0,996.0,0.0,0,1665.0,0
289,289,0.6157293256935005,0.6,0.0,0.0,421.0,891.0,0.0,1,1688.0,1
290,290,0.0013837388862191213,0.0,1.0,1.0,387.0,995.0,0.0,0,-1362.0,0
291,291,0.23865542074282142,0.2,0.0,0.0,329.0,820.0,0.0,1,1851.0,1
292,292,0.025315341315145568,0.0,1.0,1.0,298.0,904.0,0.0,0,1798.0,0
293,293,0.7300403658422584,0.7,1.0,1.0,388.0,631.0,0.0,0,1981.0,0
294,294,0.39493281046092654,0.4,1.0,1.0,335.0,648.0,0.0,0,2017.0,0
295,295,0.1823958551745971,0.2,1.0,1.0,368.0,933.0,0.0,0,1699.0,0
296,296,-0.7105905421444159,-0.7,0.0,1.0,388.0,582.0,0.0,1,2030.0,0
297,297,0.42221928097443595,0.4,0.0,0.0,273.0,749.0,0.0,1,1978.0,1
298,298,-0.611660568716816,-0.6,1.0,0.0,480.0,596.0,0.0,0,1924.0,1
299,299,0.7641952201804562,0.8,1.0,1.0,461.0,629.0,0.0,0,1910.0,0
300,300,-0.4592759888682625,-0.5,0.0,1.0,255.0,825.0,0.0,1,1920.0,0
301,301,0.8947750061673988,0.9,0.0,0.0,256.0,827.0,0.0,1,1917.0,1
302,302,-0.034552133863331114,-0.0,0.0,1.0,277.0,567.0,0.0,1,-824.0,0
303,303,-0.7430038120412725,-0.7,1.0,0.0,394.0,508.0,0.0,0,2098.0,1
304,304,-0.8301551380827263,-0.8,1.0,0.0,483.0,773.0,1.0,1,-1166.0,0
305,305,0.6045490764659375,0.6,1.0,1.0,363.0,988.0,0.0,0,1649.0,0
306,306,0.7128080742069717,0.7,1.0,1.0,316.0,660.0,0.0,0,-876.0,0
307,307,-0.8131293070467851,-0.8,0.0,1.0,435.0,854.0,0.0,1,1711.0,0
308,308,0.5053680840904954,0.5,0.0,0.0,391.0,679.0,0.0,1,1930.0,1
309,309,0.5696704592000278,0.6,0.0,0.0,465.0,781.0,1.0,0,-1226.0,0
310,310,0.7612656296888339,0.8,0.0,0.0,293.0,948.0,0.0,1,1759.0,1
311,311,-0.8182173673518931,-0.8,0.0,1.0,415.0,508.0,0.0,1,2077.0,0
312,312,-0.3874478405899463,-0.4,1.0,0.0,476.0,691.0,0.0,0,1833.0,1
313,313,0.5721622205150413,0.6,1.0,1.0,363.0,812.0,0.0,0,1825.0,0
314,314,0.7052490423957117,0.7,1.0,1.0,283.0,884.0,0.0,0,1833.0,0
315,315,0.046744046925695226,0.0,1.0,1.0,333.0,961.0,0.0,0,1706.0,0
316,316,-0.4329132996588623,-0.4,0.0,1.0,357.0,678.0,0.0,1,1965.0,0
317,317,-0.4749134649171831,-0.5,0.0,1.0,345.0,985.0,0.0,1,1670.0,0
318,318,0.12624352482364232,0.1,0.0,0.0,466.0,929.0,0.0,1,1605.0,1
319,319,-0.4394361500108895,-0.4,1.0,0.0,424.0,579.0,0.0,0,1997.0,1
320,320,-0.7551808464051235,-0.8,1.0,0.0,359.0,988.0,0.0,0,1653.0,1
321,321,0.08744233459091844,0.1,0.0,0.0,434.0,939.0,0.0,1,1627.0,1
322,322,0.8497414925932557,0.8,1.0,1.0,378.0,684.0,0.0,0,1938.0,0
323,323,-0.29240245969637446,-0.3,1.0,0.0,466.0,569.0,0.0,0,1965.0,1
324,324,0.2743020188429507,0.3,0.0,0.0,392.0,756.0,0.0,1,1852.0,1
325,325,-0.6077079973170503,-0.6,1.0,0.0,323.0,922.0,0.0,0,1755.0,1
326,326,-0.41595152717412714,-0.4,1.0,0.0,302.0,577.0,0.0,0,2121.0,1
327,327,0.1291472519197655,0.1,1.0,1.0,260.0,682.0,0.0,0,2058.0,0
328,328,-0.2168956301699383,-0.2,1.0,0.0,468.0,887.0,0.0,0,1645.0,1
329,329,0.478115435079295,0.5,0.0,0.0,377.0,739.0,0.0,1,1884.0,1
330,330,-0.8961431299663061,-0.9,1.0,0.0,411.0,790.0,0.0,0,1799.0,1
331,331,-0.011977675320591352,-0.0,1.0,0.0,458.0,503.0,0.0,0,2039.0,1
332,332,0.7909856493084634,0.8,0.0,0.0,435.0,872.0,0.0,1,1693.0,1
333,333,0.6952969719806009,0.7,0.0,0.0,470.0,974.0,0.0,1,1556.0,1
334,334,0.14230344624760238,0.1,1.0,1.0,441.0,851.0,0.0,0,1708.0,0
335,335,-0.7781095899519408,-0.8,1.0,0.0,329.0,784.0,0.0,0,1887.0,1
336,336,0.0054215558024868216,0.0,0.0,0.0,266.0,641.0,0.0,1,2093.0,1
337,337,-0.20086868111020406,-0.2,1.0,0.0,452.0,730.0,0.0,0,1818.0,1
338,338,-0.4465773309256814,-0.4,0.0,1.0,389.0,994.0,0.0,1,1617.0,0
339,339,-0.5217389671383361,-0.5,0.0,1.0,482.0,979.0,0.0,1,1539.0,0
340,340,0.3661239654583325,0.4,0.0,0.0,461.0,716.0,0.0,1,-1157.0,1
341,341,0.5066180884790451,0.5,0.0,0.0,395.0,971.0,1.0,0,-1346.0,0
342,342,0.7425586705927324,0.7,1.0,1.0,328.0,904.0,0.0,0,1768.0,0
343,343,-0.6904199367642015,-0.7,1.0,0.0,258.0,674.0,0.0,0,2068.0,1
344,344,-0.2482617531940614,-0.2,1.0,0.0,429.0,728.0,1.0,1,-1117.0,0
345,345,0.28966751089587583,0.3,1.0,1.0,286.0,752.0,0.0,0,1962.0,0
346,346,0.1564627568362037,0.2,0.0,0.0,265.0,748.0,0.0,1,1987.0,1
347,347,-0.7984448071330603,-0.8,0.0,1.0,435.0,821.0,0.0,1,1744.0,0
348,348,-0.45446472992835263,-0.5,1.0,0.0,356.0,933.0,0.0,0,-1189.0,1
349,349,-0.2507000890210308,-0.3,1.0,0.0,499.0,596.0,0.0,0,1905.0,1
350,350,0.04625976662126252,0.0,0.0,0.0,360.0,515.0,1.0,0,-745.0,0
351,351,-0.3519162698198911,-0.4,0.0,1.0,364.0,616.0,0.0,1,2020.0,0
352,352,-0.5391422546453944,-0.5,0.0,1.0,340.0,698.0,0.0,1,1962.0,0
353,353,-0.20751718297706323,-0.2,1.0,0.0,470.0,590.0,0.0,0,1940.0,1
354,354,0.5550049632998219,0.6,1.0,1.0,301.0,719.0,0.0,0,-1000.0,0
355,355,0.8613585431016385,0.9,0.0,0.0,305.0,900.0,1.0,0,-965.0,0
356,356,0.18604845044358786,0.2,0.0,0.0,366.0,587.0,0.0,1,2047.0,1
357,357,-0.8980858514575675,-0.9,0.0,1.0,369.0,895.0,0.0,1,1736.0,0
358,358,-0.7683505622843048,-0.8,0.0,1.0,271.0,524.0,0.0,1,2205.0,0
359,359,0.44067240004666763,0.4,1.0,1.0,460.0,814.0,0.0,0,1726.0,0
360,360,-0.3264125683020739,-0.3,0.0,1.0,449.0,588.0,0.0,1,1963.0,0
361,361,0.3209632284472178,0.3,1.0,1.0,323.0,932.0,0.0,0,1745.0,0
362,362,-0.4889922456198725,-0.5,0.0,1.0,456.0,862.0,0.0,1,1682.0,0
363,363,0.38213111984337533,0.4,1.0,1.0,360.0,545.0,0.0,0,2095.0,0
364,364,-0.732101928747651,-0.7,1.0,0.0,408.0,878.0,1.0,1,-1236.0,0
365,365,-0.7101410816669033,-0.7,0.0,1.0,488.0,741.0,1.0,0,-1169.0,1
366,366,0.2918018824486531,0.3,1.0,1.0,465.0,987.0,0.0,0,1548.0,0
367,367,-0.6247204198581362,-0.6,1.0,0.0,302.0,759.0,0.0,0,1939.0,1
368,368,-0.11918405143147048,-0.1,1.0,0.0,430.0,566.0,0.0,0,2004.0,1
369,369,0.7373790802582464,0.7,1.0,1.0,299.0,616.0,0.0,0,2085.0,0
370,370,0.041668186284386066,0.0,0.0,0.0,467.0,739.0,0.0,1,-966.0,1
371,371,0.8090427960919145,0.8,0.0,0.0,498.0,708.0,0.0,1,1794.0,1
372,372,0.7245279644366299,0.7,1.0,1.0,300.0,811.0,0.0,0,1889.0,0
373,373,-0.8977350801061155,-0.9,0.0,1.0,379.0,741.0,0.0,1,1880.0,0
374,374,-0.04064116457719136,-0.0,1.0,0.0,287.0,807.0,0.0,0,1906.0,1
375,375,-0.3757591292812693,-0.4,0.0,1.0,479.0,623.0,0.0,1,1898.0,0
376,376,-0.7763653763225453,-0.8,1.0,0.0,418.0,810.0,0.0,0,1772.0,1
377,377,0.868933727954894,0.9,1.0,1.0,287.0,517.0,0.0,0,-644.0,0
378,378,0.7432099029313936,0.7,1.0,1.0,326.0,925.0,0.0,0,1749.0,0
379,379,0.8731269473825795,0.9,1.0,1.0,355.0,719.0,0.0,0,1926.0,0
380,380,0.2675176596374974,0.3,1.0,1.0,478.0,548.0,0.0,0,-966.0,0
381,381,-0.2206154620090197,-0.2,1.0,0.0,412.0,705.0,0.0,0,1883.0,1
382,382,-0.010857331770672718,-0.0,0.0,1.0,342.0,822.0,0.0,1,1836.0,0
383,383,0.12249842952330947,0.1,1.0,1.0,325.0,765.0,0.0,0,1910.0,0
384,384,0.35620857215183166,0.4,0.0,0.0,290.0,892.0,0.0,1,-1162.0,1
385,385,0.5696702333954701,0.6,1.0,1.0,446.0,709.0,0.0,0,1845.0,0
386,386,0.393103932543177,0.4,0.0,0.0,259.0,924.0,0.0,1,1817.0,1
387,387,0.193482234742396,0.2,1.0,1.0,459.0,805.0,0.0,0,1736.0,0
388,388,0.38015284138600103,0.4,0.0,0.0,459.0,890.0,0.0,1,1651.0,1
389,389,-0.3189632225557285,-0.3,0.0,1.0,438.0,507.0,0.0,1,2055.0,0
390,390,0.04691599506054611,0.0,0.0,0.0,487.0,886.0,0.0,1,1627.0,1
391,391,-0.6882808835521117,-0.7,1.0,0.0,301.0,718.0,0.0,0,1981.0,1
392,392,0.06525324939571586,0.1,1.0,1.0,341.0,514.0,0.0,0,2145.0,0
393,393,-0.2744857032712281,-0.3,1.0,0.0,251.0,664.0,0.0,0,2085.0,1
394,394,-0.7104177611762497,-0.7,0.0,1.0,468.0,632.0,0.0,1,1900.0,0
395,395,0.27380397485542385,0.3,0.0,0.0,267.0,755.0,0.0,1,1978.0,1
396,396,0.897160784844904,0.9,0.0,0.0,331.0,981.0,0.0,1,1688.0,1
397,397,0.6950787811535158,0.7,1.0,1.0,454.0,711.0,0.0,0,1835.0,0
398,398,-0.5578891468186432,-0.6,1.0,0.0,341.0,558.0,0.0,0,2101.0,1
399,399,-0.43628317369691433,-0.4,0.0,1.0,466.0,828.0,0.0,1,1706.0,0
400,400,0.831934521841884,0.8,1.0,1.0,449.0,943.0,0.0,0,1608.0,0
401,401,0.22785764725033164,0.2,0.0,0.0,447.0,994.0,0.0,1,1559.0,1
402,402,-0.1583141266466711,-0.2,0.0,1.0,429.0,594.0,0.0,1,-753.0,0
403,403,-0.7727285753955166,-0.8,1.0,0.0,293.0,663.0,0.0,0,2044.0,1
404,404,-0.8180977145613365,-0.8,1.0,0.0,487.0,681.0,0.0,0,1832.0,1
405,405,0.08686462160121966,0.1,1.0,1.0,477.0,550.0,0.0,0,1973.0,0
406,406,0.11740688834897506,0.1,1.0,1.0,449.0,908.0,0.0,0,1643.0,0
407,407,0.22556787820706792,0.2,1.0,1.0,368.0,857.0,0.0,0,1775.0,0
408,408,0.145036649425606,0.1,1.0,1.0,483.0,790.0,1.0,1,-1223.0,1
409,409,-0.6978359545584438,-0.7,0.0,1.0,274.0,886.0,0.0,1,1840.0,0
410,410,0.8342836086168536,0.8,0.0,0.0,452.0,939.0,0.0,1,-1261.0,1
411,411,0.5386134950600455,0.5,1.0,1.0,426.0,769.0,0.0,0,1805.0,0
412,412,0.2326544979233759,0.2,0.0,0.0,420.0,774.0,0.0,1,1806.0,1
413,413,0.8878871995926615,0.9,0.0,0.0,390.0,703.0,0.0,1,1907.0,1
414,414,-0.7015164409724666,-0.7,0.0,1.0,495.0,962.0,0.0,1,1543.0,0
415,415,0.29140784010467835,0.3,1.0,1.0,250.0,903.0,0.0,0,1847.0,0
416,416,0.3469768467773119,0.3,0.0,0.0,330.0,976.0,0.0,1,1694.0,1
417,417,-0.19682218171664334,-0.2,1.0,0.0,356.0,862.0,1.0,1,-1208.0,0
418,418,-0.6636762447176461,-0.7,1.0,0.0,386.0,940.0,0.0,0,1674.0,1
419,419,0.6371793108468357,0.6,1.0,1.0,297.0,588.0,0.0,0,2115.0,0
420,420,-0.10890076869697751,-0.1,0.0,1.0,393.0,832.0,0.0,1,1775.0,0
421,421,0.13499582307248958,0.1,1.0,1.0,265.0,659.0,0.0,0,2076.0,0
422,422,-0.049076571032201866,-0.0,1.0,0.0,278.0,544.0,0.0,0,-782.0,1
423,423,0.5020972048532243,0.5,0.0,0.0,251.0,994.0,0.0,1,-1095.0,1
424,424,0.01702934296506242,0.0,1.0,1.0,300.0,912.0,0.0,0,1788.0,0
425,425,-0.37145601261334316,-0.4,0.0,1.0,362.0,545.0,0.0,1,2093.0,0
426,426,-0.47593771158929454,-0.5,1.0,0.0,356.0,759.0,1.0,1,-1075.0,0
427,427,0.5291047859516097,0.5,0.0,0.0,382.0,579.0,0.0,1,2039.0,1
428,428,-0.15296588946359968,-0.2,0.0,1.0,383.0,947.0,0.0,1,-1220.0,0
429,429,-0.4735795191376329,-0.5,0.0,1.0,483.0,512.0,0.0,1,2005.0,0
430,430,0.5533958146101546,0.6,1.0,1.0,285.0,749.0,0.0,0,1966.0,0
431,431,0.20847979836964992,0.2,1.0,1.0,320.0,825.0,0.0,0,1855.0,0
432,432,0.6035688226701957,0.6,1.0,1.0,460.0,723.0,0.0,0,1817.0,0
433,433,-0.19417563120645165,-0.2,1.0,0.0,411.0,679.0,0.0,0,1910.0,1
434,434,-0.11483532432828092,-0.1,1.0,0.0,424.0,804.0,0.0,0,1772.0,1
435,435,-0.5691362442991759,-0.6,0.0,1.0,258.0,907.0,0.0,1,1835.0,0
436,436,-0.6536212439810212,-0.7,1.0,0.0,350.0,664.0,0.0,0,1986.0,1
437,437,0.04372249361179492,0.0,1.0,1.0,432.0,950.0,0.0,0,1618.0,0
438,438,0.2750309991689651,0.3,1.0,1.0,306.0,647.0,0.0,0,2047.0,0
439,439,-0.716527189406663,-0.7,0.0,1.0,374.0,675.0,0.0,1,1951.0,0
440,440,0.8962975438500748,0.9,1.0,1.0,345.0,768.0,0.0,0,1887.0,0
441,441,-0.8771280077378966,-0.9,1.0,0.0,461.0,752.0,0.0,0,1787.0,1
442,442,0.31120888944591496,0.3,0.0,0.0,287.0,895.0,0.0,1,1818.0,1
443,443,-0.40997514929258666,-0.4,0.0,1.0,322.0,747.0,0.0,1,1931.0,0
444,444,-0.5887844055512321,-0.6,0.0,1.0,450.0,706.0,0.0,1,1844.0,0
445,445,0.7452039094704493,0.7,0.0,0.0,322.0,833.0,0.0,1,1845.0,1
446,446,-0.8031488727452927,-0.8,0.0,1.0,446.0,782.0,0.0,1,1772.0,0
447,447,0.55696753190262,0.6,1.0,1.0,324.0,710.0,0.0,0,1966.0,0
448,448,-0.3360314940624669,-0.3,1.0,0.0,364.0,873.0,0.0,0,1763.0,1
449,449,0.7120931175322912,0.7,1.0,1.0,433.0,636.0,0.0,0,1931.0,0
450,450,-0.04567338878850147,-0.0,1.0,0.0,311.0,739.0,0.0,0,1950.0,1
451,451,-0.24933321140392595,-0.2,1.0,0.0,404.0,503.0,0.0,0,2093.0,1
452,452,0.3497422826365203,0.3,0.0,0.0,310.0,930.0,0.0,1,1760.0,1
453,453,-0.882928938769624,-0.9,0.0,1.0,320.0,925.0,0.0,1,1755.0,0
454,454,0.8657516701303362,0.9,0.0,0.0,329.0,746.0,0.0,1,1925.0,1
455,455,-0.18693711032206273,-0.2,0.0,1.0,255.0,575.0,0.0,1,-770.0,0
456,456,-0.6666584808641973,-0.7,0.0,1.0,370.0,853.0,0.0,1,1777.0,0
457,457,0.7930938120376255,0.8,1.0,1.0,275.0,627.0,0.0,0,2098.0,0
458,458,-0.42055344451748516,-0.4,1.0,0.0,499.0,621.0,0.0,0,1880.0,1
459,459,0.4251851596203239,0.4,0.0,0.0,298.0,921.0,0.0,1,1781.0,1
460,460,0.06226374905910115,0.1,1.0,1.0,485.0,503.0,0.0,0,2012.0,0
461,461,0.44679090835296564,0.4,1.0,1.0,264.0,835.0,0.0,0,1901.0,0
462,462,-0.426680862985434,-0.4,0.0,1.0,334.0,577.0,0.0,1,2089.0,0
463,463,-0.6890700499139446,-0.7,0.0,1.0,333.0,841.0,0.0,1,1826.0,0
464,464,0.7151575429176508,0.7,1.0,1.0,456.0,796.0,0.0,0,1748.0,0
465,465,-0.37029733881821947,-0.4,0.0,1.0,417.0,667.0,0.0,1,1916.0,0
466,466,0.5423266881586281,0.5,1.0,1.0,374.0,510.0,0.0,0,2116.0,0
467,467,0.3176694719562906,0.3,1.0,1.0,382.0,774.0,0.0,0,1844.0,0
468,468,-0.4986560350152293,-0.5,0.0,1.0,302.0,708.0,1.0,0,-980.0,1
469,469,-0.8982077282708457,-0.9,0.0,1.0,263.0,893.0,0.0,1,1844.0,0
470,470,0.646647468852945,0.6,1.0,1.0,257.0,851.0,0.0,0,1892.0,0
471,471,0.6754649830581839,0.7,0.0,0.0,472.0,612.0,0.0,1,1916.0,1
472,472,-0.24678932329319092,-0.2,0.0,1.0,366.0,619.0,0.0,1,2015.0,0
473,473,0.8654684825976336,0.9,0.0,0.0,413.0,581.0,1.0,0,-944.0,0
474,474,0.7317297912823185,0.7,0.0,0.0,285.0,641.0,0.0,1,2074.0,1
475,475,-0.889745400492722,-0.9,0.0,1.0,437.0,817.0,0.0,1,1746.0,0
476,476,-0.1367191084153745,-0.1,0.0,1.0,308.0,546.0,0.0,1,2146.0,0
477,477,-0.2426464766330919,-0.2,0.0,1.0,320.0,970.0,0.0,1,1710.0,0
478,478,0.19507216518983161,0.2,1.0,1.0,334.0,746.0,0.0,0,1920.0,0
479,479,-0.21650349427297144,-0.2,0.0,1.0,300.0,764.0,1.0,0,-1024.0,1
480,480,0.4247102606576242,0.4,1.0,1.0,438.0,558.0,0.0,0,2004.0,0
481,481,-0.2643153528672654,-0.3,1.0,0.0,362.0,754.0,0.0,0,1884.0,1
482,482,-0.8394598415471435,-0.8,1.0,0.0,472.0,916.0,1.0,1,-1368.0,0
483,483,0.015405907529953633,0.0,0.0,0.0,486.0,871.0,0.0,1,1643.0,1
484,484,0.7729362413256845,0.8,1.0,1.0,296.0,865.0,0.0,0,-1121.0,0
485,485,-0.49002106776934135,-0.5,1.0,0.0,336.0,720.0,0.0,0,1944.0,1
486,486,-0.7291442658544884,-0.7,0.0,1.0,439.0,952.0,0.0,1,1609.0,0
487,487,0.09382228828798722,0.1,0.0,0.0,319.0,624.0,0.0,1,2057.0,1
488,488,-0.5698155406239898,-0.6,1.0,0.0,429.0,812.0,0.0,0,1759.0,1
489,489,0.25186539819966824,0.3,0.0,0.0,378.0,677.0,0.0,1,1945.0,1
490,490,-0.5620700813580187,-0.6,0.0,1.0,342.0,571.0,0.0,1,2087.0,0
491,491,-0.7757882187946866,-0.8,1.0,0.0,471.0,736.0,0.0,0,1793.0,1
492,492,0.5392191191343433,0.5,0.0,0.0,398.0,791.0,0.0,1,1811.0,1
493,493,0.4273449436516822,0.4,0.0,0.0,488.0,967.0,0.0,1,1545.0,1
494,494,-0.8407159244672371,-0.8,0.0,1.0,342.0,867.0,0.0,1,1791.0,0
495,495,0.10145993742219905,0.1,0.0,0.0,283.0,624.0,0.0,1,-857.0,1
496,496,-0.36632248521011,-0.4,1.0,0.0,287.0,601.0,0.0,0,2112.0,1
497,497,-0.19994467354002365,-0.2,0.0,1.0,410.0,738.0,0.0,1,-998.0,0
498,498,0.8514729914987434,0.9,1.0,1.0,417.0,810.0,0.0,0,-1227.0,0
499,499,-0.21099746555981092,-0.2,1.0,0.0,260.0,716.0,0.0,0,2024.0,1
500,500,-0.13762792347676744,-0.1,1.0,0.0,298.0,659.0,0.0,0,2043.0,1
501,501,0.5956095691779554,0.6,0.0,0.0,381.0,651.0,0.0,1,1968.0,1
502,502,-0.17910284651881736,-0.2,1.0,0.0,257.0,822.0,0.0,0,1921.0,1
503,503,-0.6226727126000461,-0.6,0.0,1.0,357.0,978.0,0.0,1,1665.0,0
504,504,0.30254446397454726,0.3,0.0,0.0,253.0,566.0,0.0,1,2181.0,1
505,505,0.5783242682643367,0.6,0.0,0.0,498.0,912.0,0.0,1,1590.0,1
506,506,-0.8077480232144262,-0.8,0.0,1.0,316.0,623.0,0.0,1,2061.0,0
507,507,-0.3427095908180092,-0.3,1.0,0.0,274.0,973.0,0.0,0,1753.0,1
508,508,0.21491413213771027,0.2,1.0,1.0,423.0,908.0,0.0,0,1669.0,0
509,509,-0.0793060075041071,-0.1,1.0,0.0,389.0,522.0,0.0,0,2089.0,1
510,510,0.6701918165319268,0.7,1.0,1.0,307.0,928.0,0.0,0,1765.0,0
511,511,-0.7756305514601076,-0.8,0.0,1.0,407.0,898.0,0.0,1,1695.0,0
512,512,-0.1853678002689585,-0.2,1.0,0.0,335.0,955.0,0.0,0,1710.0,1
513,513,0.21697856711511998,0.2,0.0,0.0,478.0,807.0,0.0,1,1715.0,1
514,514,0.17154004303092496,0.2,0.0,0.0,250.0,998.0,1.0,0,-1068.0,0
515,515,-0.6335791484569369,-0.6,0.0,1.0,348.0,813.0,0.0,1,1839.0,0
516,516,0.5693728514411188,0.6,1.0,1.0,262.0,671.0,0.0,0,2067.0,0
517,517,-0.443379417730208,-0.4,1.0,0.0,303.0,544.0,0.0,0,2153.0,1
518,518,0.4204285867221479,0.4,0.0,0.0,367.0,624.0,0.0,1,2009.0,1
519,519,0.09233849427973118,0.1,0.0,0.0,259.0,621.0,0.0,1,2120.0,1
520,520,0.1863941211673642,0.2,0.0,0.0,482.0,734.0,0.0,1,1784.0,1
521,521,0.3952910592633979,0.4,0.0,0.0,273.0,709.0,0.0,1,2018.0,1
522,522,0.020568209510912427,0.0,0.0,0.0,286.0,726.0,0.0,1,1988.0,1
523,523,-0.757818609609043,-0.8,1.0,0.0,434.0,506.0,0.0,0,2060.0,1
524,524,0.5563915330946182,0.6,1.0,1.0,450.0,581.0,0.0,0,1969.0,0
525,525,0.2092506309237837,0.2,0.0,0.0,254.0,592.0,0.0,1,2154.0,1
526,526,-0.630939667754037,-0.6,0.0,1.0,357.0,509.0,0.0,1,2134.0,0
527,527,0.6798213942012271,0.7,0.0,0.0,363.0,972.0,0.0,1,1665.0,1
528,528,0.5521767833483945,0.6,0.0,0.0,419.0,696.0,0.0,1,1885.0,1
529,529,0.0045040654079993026,0.0,1.0,1.0,451.0,651.0,0.0,0,1898.0,0
530,530,0.4325264311032263,0.4,1.0,1.0,417.0,819.0,0.0,0,-1116.0,0
531,531,-0.5305753802016975,-0.5,0.0,1.0,273.0,971.0,0.0,1,1756.0,0
532,532,-0.46769226179219514,-0.5,0.0,1.0,395.0,504.0,0.0,1,2101.0,0
533,533,0.35782291590422266,0.4,0.0,0.0,360.0,972.0,0.0,1,1668.0,1
534,534,-0.3726769268131177,-0.4,1.0,0.0,420.0,936.0,0.0,0,1644.0,1
535,535,-0.2945753614200143,-0.3,0.0,1.0,294.0,649.0,0.0,1,2057.0,0
536,536,0.6799822264873704,0.7,1.0,1.0,415.0,733.0,1.0,1,-1118.0,1
537,537,-0.27400713121206977,-0.3,1.0,0.0,263.0,942.0,0.0,0,1795.0,1
538,538,0.7216410494757542,0.7,0.0,0.0,305.0,921.0,0.0,1,1774.0,1
539,539,-0.19448579434704405,-0.2,1.0,0.0,373.0,695.0,0.0,0,-1068.0,1
540,540,-0.7640697190195533,-0.8,0.0,1.0,253.0,575.0,0.0,1,2172.0,0
541,541,-0.33287425175113916,-0.3,1.0,0.0,375.0,834.0,0.0,0,1791.0,1
542,542,0.30312245678671557,0.3,0.0,0.0,423.0,618.0,0.0,1,1959.0,1
543,543,-0.4602878546330272,-0.5,1.0,0.0,398.0,852.0,0.0,0,1750.0,1
544,544,0.6371071870559007,0.6,0.0,0.0,308.0,652.0,0.0,1,2040.0,1
545,545,0.20761125113561396,0.2,0.0,0.0,439.0,597.0,0.0,1,-986.0,1
546,546,0.531701749097183,0.5,0.0,0.0,470.0,793.0,0.0,1,1737.0,1
547,547,0.8020039523279526,0.8,0.0,0.0,289.0,529.0,0.0,1,2182.0,1
548,548,0.07024550852304545,0.1,0.0,0.0,331.0,579.0,0.0,1,2090.0,1
549,549,0.19313458986025023,0.2,0.0,0.0,252.0,841.0,0.0,1,1907.0,1
550,550,0.8909909332800959,0.9,1.0,1.0,293.0,503.0,0.0,0,2204.0,0
551,551,-0.8161694365437722,-0.8,1.0,0.0,344.0,535.0,0.0,0,2121.0,1
552,552,-0.08426331496776618,-0.1,0.0,1.0,348.0,556.0,0.0,1,2096.0,0
553,553,-0.4257977135127472,-0.4,0.0,1.0,393.0,505.0,0.0,1,2102.0,0
554,554,-0.8025359306075268,-0.8,0.0,1.0,371.0,756.0,0.0,1,1873.0,0
555,555,-0.585028639016252,-0.6,1.0,0.0,393.0,670.0,0.0,0,1937.0,1
556,556,-0.41078951219650994,-0.4,0.0,1.0,390.0,800.0,0.0,1,1810.0,0
557,557,-0.5809014592649104,-0.6,0.0,1.0,484.0,902.0,0.0,1,1614.0,0
558,558,-0.8820442861944452,-0.9,1.0,0.0,313.0,530.0,0.0,0,2157.0,1
559,559,0.11843779407102184,0.1,1.0,1.0,275.0,644.0,0.0,0,2081.0,0
560,560,-0.7309517494675081,-0.7,1.0,0.0,498.0,863.0,0.0,0,1639.0,1
561,561,-0.5578582205957674,-0.6,1.0,0.0,484.0,957.0,0.0,0,1559.0,1
562,562,0.828967891936999,0.8,1.0,1.0,280.0,696.0,0.0,0,2024.0,0
563,563,-0.6502308255838871,-0.7,0.0,1.0,302.0,535.0,0.0,1,2163.0,0
564,564,-0.7951707535315741,-0.8,1.0,0.0,442.0,917.0,0.0,0,1641.0,1
565,565,0.720014992906865,0.7,0.0,0.0,465.0,579.0,0.0,1,1956.0,1
566,566,-0.41493662083413263,-0.4,0.0,1.0,320.0,651.0,1.0,0,-871.0,1
567,567,0.20635581562799932,0.2,1.0,1.0,477.0,879.0,1.0,1,-1306.0,1
568,568,0.1888084505051194,0.2,1.0,1.0,399.0,926.0,0.0,0,1675.0,0
569,569,-0.36884234785972814,-0.4,1.0,0.0,370.0,832.0,0.0,0,1798.0,1
570,570,0.8881168973012971,0.9,0.0,0.0,358.0,891.0,0.0,1,1751.0,1
571,571,0.7133831171273336,0.7,1.0,1.0,316.0,884.0,0.0,0,1800.0,0
572,572,-0.040589765871608674,-0.0,0.0,1.0,461.0,539.0,0.0,1,2000.0,0
573,573,-0.6502739936835121,-0.7,1.0,0.0,293.0,853.0,0.0,0,-1106.0,1
574,574,0.0706124331504393,0.1,1.0,1.0,269.0,779.0,0.0,0,1952.0,0
575,575,0.807271642227931,0.8,1.0,1.0,440.0,502.0,0.0,0,2058.0,0
576,576,0.19593641114462723,0.2,0.0,0.0,281.0,717.0,0.0,1,2002.0,1
577,577,0.5638096496759887,0.6,1.0,1.0,264.0,902.0,0.0,0,1834.0,0
578,578,0.36362956888096576,0.4,0.0,0.0,352.0,986.0,1.0,0,-1308.0,0
579,579,0.6508883188881661,0.7,1.0,1.0,271.0,923.0,0.0,0,1806.0,0
580,580,-0.24534912425521338,-0.2,1.0,0.0,387.0,834.0,0.0,0,1779.0,1
581,581,0.8238494898811982,0.8,0.0,0.0,273.0,788.0,0.0,1,1939.0,1
582,582,-0.18661948084777336,-0.2,1.0,0.0,466.0,928.0,0.0,0,1606.0,1
583,583,-0.6773500204083552,-0.7,0.0,1.0,364.0,505.0,0.0,1,2131.0,0
584,584,0.5708340961461514,0.6,0.0,0.0,252.0,645.0,0.0,1,2103.0,1
585,585,-0.6133456519962976,-0.6,0.0,1.0,300.0,854.0,0.0,1,1846.0,0
586,586,0.8975915132093878,0.9,0.0,0.0,298.0,941.0,1.0,0,-1099.0,0
587,587,-0.12369827811272849,-0.1,1.0,0.0,250.0,629.0,0.0,0,2121.0,1
588,588,0.8654994716149068,0.9,1.0,1.0,424.0,984.0,0.0,0,1592.0,0
589,589,0.5049472375803049,0.5,1.0,1.0,497.0,855.0,0.0,0,1648.0,0
590,590,0.2691933712278335,0.3,0.0,0.0,468.0,992.0,1.0,0,-1450.0,0
591,591,0.25758667879004415,0.3,1.0,1.0,398.0,598.0,0.0,0,2004.0,0
592,592,0.38172316795186834,0.4,0.0,0.0,310.0,851.0,0.0,1,1839.0,1
593,593,0.7068333201194178,0.7,0.0,0.0,323.0,850.0,0.0,1,1827.0,1
594,594,-0.39792645943242366,-0.4,1.0,0.0,256.0,500.0,0.0,0,2244.0,1
595,595,-0.6007672130948133,-0.6,0.0,1.0,370.0,778.0,0.0,1,1852.0,0
596,596,0.0994295850327731,0.1,1.0,1.0,352.0,780.0,0.0,0,1868.0,0
597,597,-0.19567157048681294,-0.2,0.0,1.0,354.0,679.0,0.0,1,1967.0,0
598,598,-0.2838622267870654,-0.3,0.0,1.0,486.0,858.0,0.0,1,-1284.0,0
599,599,-0.0030206780395308774,-0.0,1.0,0.0,255.0,877.0,0.0,0,1868.0,1
600,600,0.7475290466059116,0.7,0.0,0.0,282.0,778.0,0.0,1,-900.0,1
601,601,-0.2899262121505658,-0.3,0.0,1.0,334.0,664.0,0.0,1,2002.0,0
602,602,0.10345043281259969,0.1,0.0,0.0,274.0,937.0,0.0,1,1789.0,1
603,603,0.6527888155872043,0.7,1.0,1.0,372.0,899.0,0.0,0,-1201.0,0
604,604,0.43820675786087226,0.4,1.0,1.0,374.0,990.0,0.0,0,1636.0,0
605,605,-0.4616739050748003,-0.5,0.0,1.0,444.0,536.0,0.0,1,2020.0,0
606,606,-0.7752289849364133,-0.8,0.0,1.0,312.0,571.0,0.0,1,2117.0,0
607,607,-0.7926953697678374,-0.8,1.0,0.0,436.0,972.0,0.0,0,1592.0,1
608,608,0.7549620694109332,0.8,1.0,1.0,485.0,797.0,0.0,0,1718.0,0
609,609,0.38749380044800696,0.4,1.0,1.0,469.0,754.0,0.0,0,1777.0,0
610,610,-0.07722572703777153,-0.1,0.0,1.0,284.0,616.0,0.0,1,2100.0,0
611,611,-0.0207902055166882,-0.0,1.0,0.0,258.0,889.0,0.0,0,1853.0,1
612,612,-0.5959017202915851,-0.6,1.0,0.0,401.0,520.0,0.0,0,2079.0,1
613,613,-0.652353690220802,-0.7,0.0,1.0,476.0,683.0,0.0,1,1841.0,0
614,614,-0.17791377614415527,-0.2,1.0,0.0,432.0,971.0,0.0,0,1597.0,1
615,615,0.46576411794772354,0.5,1.0,1.0,339.0,954.0,1.0,1,-1263.0,1
616,616,0.5959685262060365,0.6,0.0,0.0,321.0,904.0,0.0,1,1775.0,1
617,617,0.3641487905060984,0.4,1.0,1.0,337.0,697.0,0.0,0,1966.0,0
618,618,0.3864132607661378,0.4,0.0,0.0,306.0,858.0,0.0,1,1836.0,1
619,619,-0.7942327481896604,-0.8,0.0,1.0,350.0,807.0,0.0,1,-1117.0,0
620,620,0.8424261400994842,0.8,0.0,0.0,301.0,939.0,0.0,1,-1120.0,1
621,621,-0.5134908112277619,-0.5,1.0,0.0,490.0,934.0,0.0,0,1576.0,1
622,622,0.609879560912243,0.6,1.0,1.0,359.0,721.0,0.0,0,1920.0,0
623,623,0.6934501575431665,0.7,0.0,0.0,281.0,526.0,0.0,1,2193.0,1
624,624,0.42787746037250296,0.4,0.0,0.0,363.0,789.0,0.0,1,1848.0,1
625,625,-0.36561854071568,-0.4,0.0,1.0,413.0,784.0,0.0,1,1803.0,0
626,626,-0.5176593290389863,-0.5,0.0,1.0,365.0,867.0,0.0,1,1768.0,0
627,627,-0.6426812797987376,-0.6,1.0,0.0,460.0,704.0,0.0,0,1836.0,1
628,628,0.8166025784311325,0.8,1.0,1.0,432.0,504.0,0.0,0,2064.0,0
629,629,0.5326349680113557,0.5,0.0,0.0,413.0,549.0,0.0,1,2038.0,1
630,630,0.5864149993962647,0.6,0.0,0.0,300.0,688.0,0.0,1,2012.0,1
631,631,-0.5345055446446556,-0.5,1.0,0.0,253.0,664.0,0.0,0,2083.0,1
632,632,0.45142794329881164,0.5,0.0,0.0,287.0,583.0,0.0,1,-790.0,1
633,633,-0.5148027512516428,-0.5,1.0,0.0,392.0,830.0,0.0,0,1778.0,1
634,634,0.19489998644922701,0.2,1.0,1.0,331.0,703.0,0.0,0,1966.0,0
635,635,-0.8980608209139866,-0.9,0.0,1.0,393.0,706.0,0.0,1,1901.0,0
636,636,0.898985378668321,0.9,0.0,0.0,445.0,645.0,0.0,1,1910.0,1
637,637,-0.5808976912705734,-0.6,0.0,1.0,451.0,864.0,0.0,1,1685.0,0
638,638,0.07939379190336182,0.1,1.0,1.0,271.0,592.0,0.0,0,-753.0,0
639,639,0.4779000768263316,0.5,0.0,0.0,380.0,913.0,1.0,0,-1233.0,0
640,640,0.10055857790339162,0.1,1.0,1.0,426.0,545.0,0.0,0,2029.0,0
641,641,-0.6619055587199075,-0.7,1.0,0.0,418.0,843.0,0.0,0,1739.0,1
642,642,-0.8666847107759384,-0.9,0.0,1.0,482.0,714.0,0.0,1,1804.0,0
643,643,-0.029476123801079224,-0.0,0.0,1.0,414.0,634.0,0.0,1,1952.0,0
644,644,-0.7474394860640962,-0.7,1.0,0.0,422.0,518.0,0.0,0,2060.0,1
645,645,-0.3476797756591602,-0.3,0.0,1.0,324.0,733.0,0.0,1,1943.0,0
646,646,0.4729928861701663,0.5,1.0,1.0,265.0,831.0,0.0,0,1904.0,0
647,647,0.04298757602276615,0.0,1.0,1.0,404.0,626.0,0.0,0,1970.0,0
648,648,0.3179857660227917,0.3,0.0,0.0,472.0,674.0,0.0,1,1854.0,1
649,649,-0.046667598328724136,-0.0,1.0,0.0,286.0,816.0,0.0,0,1898.0,1
650,650,0.6103760098005276,0.6,1.0,1.0,342.0,659.0,0.0,0,-951.0,0
651,651,-0.8941159972812974,-0.9,1.0,0.0,425.0,653.0,0.0,0,1922.0,1
652,652,-0.6058688868131978,-0.6,1.0,0.0,354.0,925.0,0.0,0,1721.0,1
653,653,0.7853311273221143,0.8,0.0,0.0,433.0,940.0,0.0,1,1627.0,1
654,654,-0.8459330558680227,-0.8,1.0,0.0,391.0,840.0,0.0,0,1769.0,1
655,655,-0.7172452425659307,-0.7,1.0,0.0,382.0,936.0,0.0,0,1682.0,1
656,656,-0.07889325509476752,-0.1,1.0,0.0,396.0,847.0,0.0,0,1757.0,1
657,657,0.3751321813799525,0.4,0.0,0.0,252.0,514.0,0.0,1,2234.0,1
658,658,0.30849841706958625,0.3,1.0,1.0,390.0,708.0,0.0,0,1902.0,0
659,659,-0.07870540111036839,-0.1,1.0,0.0,443.0,704.0,0.0,0,1853.0,1
660,660,-0.4003496537234838,-0.4,1.0,0.0,431.0,595.0,0.0,0,1974.0,1
661,661,-0.7408338154676065,-0.7,0.0,1.0,422.0,594.0,1.0,0,-926.0,1
662,662,0.6381028170834421,0.6,1.0,1.0,414.0,553.0,0.0,0,-897.0,0
663,663,0.013032487872338794,0.0,1.0,1.0,445.0,530.0,0.0,0,2025.0,0
664,664,-0.7156320563831652,-0.7,1.0,0.0,470.0,814.0,1.0,1,-1254.0,0
665,665,-0.8360995104935844,-0.8,0.0,1.0,293.0,863.0,0.0,1,1844.0,0
666,666,0.09287367417023873,0.1,1.0,1.0,250.0,994.0,0.0,0,1756.0,0
667,667,-0.7977201971799556,-0.8,1.0,0.0,300.0,750.0,1.0,1,-1010.0,0
668,668,0.18127631362092822,0.2,0.0,0.0,493.0,992.0,0.0,1,1515.0,1
669,669,0.6491043237711739,0.6,0.0,0.0,464.0,570.0,0.0,1,1966.0,1
670,670,-0.4289426294521587,-0.4,0.0,1.0,343.0,908.0,0.0,1,-1161.0,0
671,671,0.7461184678220997,0.7,0.0,0.0,411.0,604.0,0.0,1,1985.0,1
672,672,0.31089013021113876,0.3,0.0,0.0,417.0,666.0,0.0,1,1917.0,1
673,673,0.7714550309399516,0.8,1.0,1.0,340.0,598.0,0.0,0,2062.0,0
674,674,-0.2112413708150359,-0.2,0.0,1.0,325.0,678.0,0.0,1,1997.0,0
675,675,0.6873365719142145,0.7,0.0,0.0,293.0,584.0,1.0,0,-817.0,0
676,676,0.5183575653031337,0.5,1.0,1.0,348.0,616.0,1.0,1,-924.0,1
677,677,0.627480736459436,0.6,1.0,1.0,315.0,767.0,0.0,0,1918.0,0
678,678,-0.028751164650257954,-0.0,1.0,0.0,412.0,695.0,0.0,0,1893.0,1
679,679,-0.13260435293993889,-0.1,0.0,1.0,447.0,710.0,0.0,1,-957.0,0
680,680,0.09676519690619434,0.1,0.0,0.0,387.0,747.0,0.0,1,1866.0,1
681,681,0.7459748762220059,0.7,0.0,0.0,372.0,980.0,0.0,1,1648.0,1
682,682,0.5293355585410938,0.5,1.0,1.0,401.0,610.0,1.0,1,-971.0,1
683,683,-0.4684954165510197,-0.5,1.0,0.0,435.0,633.0,0.0,0,1932.0,1
684,684,0.7971306780109356,0.8,0.0,0.0,261.0,922.0,0.0,1,1817.0,1
685,685,-0.3193670413583387,-0.3,0.0,1.0,417.0,637.0,0.0,1,1946.0,0
686,686,-0.5969281947272771,-0.6,1.0,0.0,393.0,988.0,0.0,0,1619.0,1
687,687,0.5601336948694949,0.6,1.0,1.0,398.0,715.0,0.0,0,1887.0,0
688,688,0.058848581675513434,0.1,1.0,1.0,352.0,754.0,0.0,0,1894.0,0
689,689,-0.24558161675988055,-0.2,0.0,1.0,281.0,968.0,0.0,1,1751.0,0
690,690,0.2660435682763066,0.3,0.0,0.0,494.0,983.0,0.0,1,1523.0,1
691,691,-0.4788513142916013,-0.5,0.0,1.0,441.0,516.0,0.0,1,2043.0,0
692,692,0.7390804007620321,0.7,0.0,0.0,403.0,666.0,0.0,1,1931.0,1
693,693,0.6813888063034009,0.7,1.0,1.0,326.0,820.0,0.0,0,1854.0,0
694,694,0.0318830341793056,0.0,0.0,0.0,493.0,718.0,0.0,1,1789.0,1
695,695,-0.4393543835488351,-0.4,1.0,0.0,476.0,946.0,0.0,0,1578.0,1
696,696,0.3281208679366291,0.3,0.0,0.0,403.0,539.0,0.0,1,2058.0,1
697,697,0.4697119917992948,0.5,1.0,1.0,309.0,855.0,0.0,0,1836.0,0
698,698,0.49185221932467205,0.5,1.0,1.0,402.0,698.0,0.0,0,1900.0,0
699,699,0.3626851693144256,0.4,0.0,0.0,282.0,757.0,0.0,1,1961.0,1
700,700,0.7170731686246282,0.7,0.0,0.0,350.0,780.0,0.0,1,1870.0,1
701,701,-0.5904816027381652,-0.6,0.0,1.0,362.0,631.0,0.0,1,2007.0,0
702,702,0.8891505080275676,0.9,0.0,0.0,443.0,669.0,0.0,1,1888.0,1
703,703,-0.19363474319902263,-0.2,1.0,0.0,303.0,635.0,0.0,0,-768.0,1
704,704,0.077706524217102,0.1,0.0,0.0,456.0,943.0,0.0,1,1601.0,1
705,705,0.7738097814099322,0.8,1.0,1.0,442.0,628.0,0.0,0,1930.0,0
706,706,-0.6723290876518321,-0.7,1.0,0.0,470.0,880.0,0.0,0,1650.0,1
707,707,-0.3562160026076302,-0.4,1.0,0.0,267.0,852.0,0.0,0,1881.0,1
708,708,0.14701291791456284,0.1,0.0,0.0,465.0,612.0,0.0,1,1923.0,1
709,709,-0.23537320370435855,-0.2,0.0,1.0,343.0,924.0,0.0,1,-1227.0,0
710,710,0.8382272798596978,0.8,0.0,0.0,445.0,993.0,0.0,1,1562.0,1
711,711,0.40075108254378555,0.4,0.0,0.0,457.0,762.0,0.0,1,1781.0,1
712,712,0.5888085746764263,0.6,0.0,0.0,331.0,572.0,0.0,1,2097.0,1
713,713,-0.6451893857190091,-0.6,0.0,1.0,403.0,860.0,0.0,1,1737.0,0
714,714,-0.657335784850916,-0.7,1.0,0.0,478.0,587.0,0.0,0,1935.0,1
715,715,0.24585533949248706,0.2,0.0,0.0,368.0,617.0,0.0,1,2015.0,1
716,716,-0.5017493013728609,-0.5,0.0,1.0,262.0,561.0,0.0,1,2177.0,0
717,717,-0.8428359599870023,-0.8,1.0,0.0,360.0,636.0,0.0,0,2004.0,1
718,718,-0.1359728477385469,-0.1,0.0,1.0,438.0,865.0,0.0,1,1697.0,0
719,719,-0.39766822596655194,-0.4,1.0,0.0,294.0,707.0,0.0,0,1999.0,1
720,720,0.7040502824639859,0.7,0.0,0.0,411.0,709.0,0.0,1,1880.0,1
721,721,-0.5844402597117044,-0.6,0.0,1.0,312.0,689.0,0.0,1,1999.0,0
722,722,0.4830912840538685,0.5,0.0,0.0,266.0,721.0,0.0,1,2013.0,1
723,723,0.3641955603495145,0.4,0.0,0.0,251.0,662.0,0.0,1,-903.0,1
724,724,-0.8701904181089748,-0.9,1.0,0.0,467.0,688.0,0.0,0,1845.0,1
725,725,-0.18101461063597857,-0.2,1.0,0.0,265.0,820.0,0.0,0,1915.0,1
726,726,-0.3518635103881037,-0.4,0.0,1.0,354.0,798.0,1.0,0,-1062.0,1
727,727,-0.08318141315727157,-0.1,0.0,1.0,480.0,624.0,0.0,1,1896.0,0
728,728,0.3671841747937422,0.4,1.0,1.0,482.0,784.0,0.0,0,1734.0,0
729,729,-0.4694020857993021,-0.5,0.0,1.0,475.0,659.0,1.0,0,-1134.0,1
730,730,-0.5754628364711372,-0.6,0.0,1.0,311.0,843.0,0.0,1,1846.0,0
731,731,-0.08597509575613971,-0.1,1.0,0.0,252.0,868.0,0.0,0,1880.0,1
732,732,0.8387938381658125,0.8,0.0,0.0,396.0,830.0,0.0,1,1774.0,1
733,733,-0.4810885243060664,-0.5,1.0,0.0,302.0,818.0,0.0,0,1880.0,1
734,734,-0.41073924649845406,-0.4,1.0,0.0,480.0,768.0,0.0,0,1752.0,1
735,735,-0.5494020680820935,-0.5,1.0,0.0,443.0,989.0,0.0,0,1568.0,1
736,736,0.2125199657471456,0.2,0.0,0.0,330.0,760.0,0.0,1,1910.0,1
737,737,0.22599758826960248,0.2,0.0,0.0,260.0,997.0,0.0,1,1743.0,1
738,738,-0.010680375268896536,-0.0,0.0,1.0,303.0,940.0,0.0,1,1757.0,0
739,739,-0.07076439557091341,-0.1,0.0,1.0,388.0,947.0,0.0,1,1665.0,0
740,740,-0.015589857729470302,-0.0,0.0,1.0,283.0,629.0,0.0,1,2088.0,0
741,741,-0.42787870019363067,-0.4,1.0,0.0,442.0,727.0,0.0,0,1831.0,1
742,742,-0.655448816102029,-0.7,0.0,1.0,376.0,960.0,0.0,1,1664.0,0
743,743,0.6972133216086994,0.7,0.0,0.0,446.0,756.0,0.0,1,1798.0,1
744,744,-0.16806008900807634,-0.2,0.0,1.0,340.0,542.0,0.0,1,2118.0,0
745,745,0.7002016451960785,0.7,0.0,0.0,380.0,878.0,0.0,1,-1188.0,1
746,746,-0.21161331965260866,-0.2,0.0,1.0,288.0,669.0,1.0,0,-907.0,1
747,747,0.48087689977401415,0.5,1.0,1.0,361.0,532.0,0.0,0,-753.0,0
748,748,-0.8295941693206317,-0.8,1.0,0.0,313.0,560.0,0.0,0,2127.0,1
749,749,0.7468443180056129,0.7,0.0,0.0,250.0,921.0,0.0,1,1829.0,1
750,750,0.5373964570741024,0.5,0.0,0.0,423.0,648.0,0.0,1,1929.0,1
751,751,-0.3111076714916552,-0.3,1.0,0.0,487.0,932.0,0.0,0,1581.0,1
752,752,0.3984914142314643,0.4,0.0,0.0,442.0,953.0,0.0,1,1605.0,1
753,753,0.24455965328990092,0.2,0.0,0.0,457.0,938.0,0.0,1,1605.0,1
754,754,-0.08354179301699982,-0.1,0.0,1.0,349.0,799.0,0.0,1,1852.0,0
755,755,-0.7559649198069869,-0.8,0.0,1.0,405.0,852.0,0.0,1,1743.0,0
756,756,-0.5785767710849403,-0.6,0.0,1.0,431.0,969.0,0.0,1,1600.0,0
757,757,0.8760111929291124,0.9,1.0,1.0,309.0,670.0,0.0,0,2021.0,0
758,758,-0.3941416441814274,-0.4,1.0,0.0,273.0,560.0,0.0,0,2167.0,1
759,759,-0.3572992081626811,-0.4,0.0,1.0,261.0,608.0,0.0,1,2131.0,0
760,760,0.7463475638304656,0.7,1.0,1.0,334.0,948.0,0.0,0,1718.0,0
761,761,0.6399771120779582,0.6,0.0,0.0,377.0,936.0,0.0,1,1687.0,1
762,762,0.7454638594674362,0.7,0.0,0.0,364.0,923.0,0.0,1,1713.0,1
763,763,0.180067615223496,0.2,1.0,1.0,310.0,541.0,0.0,0,2149.0,0
764,764,0.17089339404049253,0.2,1.0,1.0,376.0,614.0,0.0,0,2010.0,0
765,765,-0.14038079324050945,-0.1,0.0,1.0,467.0,627.0,0.0,1,1906.0,0
766,766,0.20416199209455754,0.2,0.0,0.0,475.0,564.0,0.0,1,1961.0,1
767,767,-0.8173781057412307,-0.8,0.0,1.0,336.0,686.0,0.0,1,1978.0,0
768,768,-0.7583119002407128,-0.8,1.0,0.0,364.0,788.0,0.0,0,1848.0,1
769,769,0.4494072199389526,0.4,1.0,1.0,496.0,816.0,0.0,0,1688.0,0
770,770,0.637066677216452,0.6,0.0,0.0,472.0,816.0,0.0,1,1712.0,1
771,771,0.17878215062290048,0.2,0.0,0.0,377.0,837.0,0.0,1,1786.0,1
772,772,0.7205362111938539,0.7,1.0,1.0,387.0,676.0,1.0,1,-943.0,1
773,773,-0.14831105237009945,-0.1,0.0,1.0,408.0,992.0,0.0,1,1600.0,0
774,774,-0.279912036928057,-0.3,0.0,1.0,255.0,790.0,0.0,1,1955.0,0
775,775,0.05799000071491711,0.1,1.0,1.0,298.0,724.0,0.0,0,1978.0,0
776,776,-0.38890840818530226,-0.4,1.0,0.0,448.0,662.0,0.0,0,1890.0,1
777,777,-0.6100213429048451,-0.6,1.0,0.0,362.0,793.0,0.0,0,1845.0,1
778,778,0.5303645023060478,0.5,1.0,1.0,268.0,651.0,1.0,1,-889.0,1
779,779,-0.6806987464913647,-0.7,0.0,1.0,346.0,848.0,1.0,0,-1124.0,1
780,780,-0.022429169662344206,-0.0,1.0,0.0,278.0,561.0,0.0,0,2161.0,1
781,781,0.29694514065264765,0.3,1.0,1.0,487.0,692.0,0.0,0,1821.0,0
782,782,-0.8851381266503194,-0.9,1.0,0.0,388.0,905.0,0.0,0,1707.0,1
783,783,0.7774043525309152,0.8,1.0,1.0,456.0,537.0,0.0,0,2007.0,0
784,784,-0.782521077814439,-0.8,0.0,1.0,293.0,896.0,0.0,1,1811.0,0
785,785,-0.854089698934411,-0.9,1.0,0.0,338.0,899.0,0.0,0,1763.0,1
786,786,0.7192150687447979,0.7,1.0,1.0,260.0,995.0,0.0,0,1745.0,0
787,787,-0.6748068102138198,-0.7,1.0,0.0,258.0,884.0,0.0,0,1858.0,1
788,788,-0.554746005542252,-0.6,0.0,1.0,306.0,925.0,0.0,1,1769.0,0
789,789,-0.29226096851950734,-0.3,1.0,0.0,283.0,876.0,0.0,0,-1079.0,1
790,790,0.28220292492370336,0.3,0.0,0.0,426.0,504.0,0.0,1,2070.0,1
791,791,-0.5241522570344028,-0.5,1.0,0.0,353.0,839.0,0.0,0,1808.0,1
792,792,-0.6030732194353253,-0.6,0.0,1.0,368.0,684.0,0.0,1,1948.0,0
793,793,0.8885023236216013,0.9,1.0,1.0,399.0,643.0,0.0,0,1958.0,0
794,794,0.3624275342486972,0.4,0.0,0.0,431.0,870.0,0.0,1,1699.0,1
795,795,0.8064708204049044,0.8,0.0,0.0,276.0,876.0,0.0,1,1848.0,1
796,796,-0.6072102042264977,-0.6,0.0,1.0,370.0,834.0,0.0,1,1796.0,0
797,797,-0.7524093653405783,-0.8,0.0,1.0,499.0,533.0,0.0,1,1968.0,0
798,798,0.6018290082386369,0.6,0.0,0.0,348.0,627.0,0.0,1,2025.0,1
799,799,0.7009524953873466,0.7,1.0,1.0,288.0,670.0,0.0,0,2042.0,0
800,800,0.853759401744825,0.9,1.0,1.0,347.0,543.0,1.0,1,-820.0,1
801,801,0.8239458678605519,0.8,1.0,1.0,360.0,784.0,0.0,0,1856.0,0
802,802,0.47160039150888877,0.5,1.0,1.0,458.0,632.0,0.0,0,1910.0,0
803,803,-0.4986448762262529,-0.5,1.0,0.0,294.0,775.0,0.0,0,1931.0,1
804,804,-0.015408576032824639,-0.0,1.0,0.0,489.0,614.0,0.0,0,-983.0,1
805,805,0.05012587187365036,0.1,1.0,1.0,278.0,795.0,0.0,0,-923.0,0
806,806,-0.7426765930625492,-0.7,1.0,0.0,299.0,533.0,0.0,0,2168.0,1
807,807,-0.6466207043705644,-0.6,0.0,1.0,253.0,672.0,0.0,1,2075.0,0
808,808,-0.401865488802849,-0.4,1.0,0.0,291.0,742.0,0.0,0,1967.0,1
809,809,0.010346348543013084,0.0,0.0,0.0,418.0,928.0,1.0,0,-1336.0,0
810,810,0.10212055779665652,0.1,1.0,1.0,388.0,786.0,0.0,0,1826.0,0
811,811,0.2502854274487015,0.3,1.0,1.0,358.0,736.0,0.0,0,1906.0,0
812,812,0.47443535403761194,0.5,1.0,1.0,376.0,969.0,0.0,0,-1315.0,0
813,813,0.24555616039125294,0.2,1.0,1.0,456.0,883.0,0.0,0,1661.0,0
814,814,-0.7631728959139935,-0.8,0.0,1.0,274.0,932.0,0.0,1,1794.0,0
815,815,0.7820647393767687,0.8,0.0,0.0,370.0,978.0,0.0,1,1652.0,1
816,816,0.723473951438239,0.7,0.0,0.0,448.0,804.0,0.0,1,1748.0,1
817,817,0.6930522787467824,0.7,1.0,1.0,250.0,708.0,0.0,0,2042.0,0
818,818,-0.6402490458808723,-0.6,0.0,1.0,348.0,583.0,0.0,1,2069.0,0
819,819,-0.6258574485156914,-0.6,0.0,1.0,253.0,933.0,0.0,1,1814.0,0
820,820,0.29156164353210234,0.3,0.0,0.0,360.0,616.0,1.0,0,-816.0,0
821,821,0.12978108033597924,0.1,0.0,0.0,340.0,693.0,0.0,1,1967.0,1
822,822,0.42277720429889987,0.4,1.0,1.0,284.0,769.0,0.0,0,1947.0,0
823,823,-0.3869165531800084,-0.4,0.0,1.0,382.0,639.0,0.0,1,1979.0,0
824,824,-0.2313836735116649,-0.2,0.0,1.0,426.0,753.0,0.0,1,1821.0,0
825,825,-0.6927685481987989,-0.7,0.0,1.0,282.0,550.0,0.0,1,2168.0,0
826,826,-0.7736622474086329,-0.8,0.0,1.0,363.0,527.0,0.0,1,2110.0,0
827,827,0.8584932962306496,0.9,0.0,0.0,491.0,887.0,0.0,1,1622.0,1
828,828,0.5243727830240822,0.5,1.0,1.0,362.0,681.0,0.0,0,1957.0,0
829,829,-0.04583808997402239,-0.0,1.0,0.0,407.0,732.0,0.0,0,1861.0,1
830,830,-0.45165498183664265,-0.5,0.0,1.0,485.0,740.0,0.0,1,1775.0,0
831,831,-0.3615655175678074,-0.4,0.0,1.0,381.0,670.0,0.0,1,1949.0,0
832,832,-0.04320524169290496,-0.0,1.0,0.0,398.0,849.0,1.0,1,-1237.0,0
833,833,-0.8041524810799265,-0.8,0.0,1.0,479.0,744.0,0.0,1,1777.0,0
834,834,-0.5776568835140699,-0.6,1.0,0.0,419.0,595.0,0.0,0,1986.0,1
835,835,0.382807916980482,0.4,0.0,0.0,465.0,814.0,0.0,1,1721.0,1
836,836,0.10994780549983696,0.1,0.0,0.0,268.0,630.0,0.0,1,2102.0,1
837,837,-0.8867250996871427,-0.9,0.0,1.0,322.0,996.0,0.0,1,1682.0,0
838,838,0.2601168546828322,0.3,0.0,0.0,367.0,915.0,0.0,1,1718.0,1
839,839,0.6893193991125887,0.7,0.0,0.0,360.0,564.0,0.0,1,2076.0,1
840,840,-0.24076803899035348,-0.2,1.0,0.0,358.0,836.0,0.0,0,1806.0,1
841,841,-0.8882826476961123,-0.9,1.0,0.0,422.0,744.0,0.0,0,1834.0,1
842,842,0.35127140486569897,0.4,1.0,1.0,358.0,791.0,0.0,0,1851.0,0
843,843,-0.4330524252599074,-0.4,1.0,0.0,371.0,635.0,0.0,0,1994.0,1
844,844,-0.8136885727352062,-0.8,1.0,0.0,494.0,756.0,1.0,1,-1220.0,0
845,845,0.168985142793051,0.2,0.0,0.0,281.0,968.0,0.0,1,1751.0,1
846,846,0.027933073469337932,0.0,1.0,1.0,274.0,773.0,0.0,0,1953.0,0
847,847,0.5875609545586987,0.6,1.0,1.0,350.0,830.0,0.0,0,1820.0,0
848,848,0.48030253520859556,0.5,1.0,1.0,490.0,764.0,0.0,0,1746.0,0
849,849,0.09180314910864074,0.1,1.0,1.0,408.0,991.0,0.0,0,-1339.0,0
850,850,0.5221293106882586,0.5,1.0,1.0,443.0,768.0,0.0,0,-1151.0,0
851,851,0.0001995889546839713,0.0,0.0,0.0,333.0,707.0,0.0,1,1960.0,1
852,852,0.24227552772987393,0.2,0.0,0.0,317.0,902.0,0.0,1,1781.0,1
853,853,-0.12339033610121164,-0.1,0.0,1.0,293.0,791.0,0.0,1,1916.0,0
854,854,-0.8694576672739047,-0.9,0.0,1.0,395.0,803.0,0.0,1,1802.0,0
855,855,-0.8669138321794311,-0.9,1.0,0.0,317.0,801.0,0.0,0,1882.0,1
856,856,0.5523088850546546,0.6,1.0,1.0,355.0,996.0,0.0,0,1649.0,0
857,857,0.8579019671451161,0.9,1.0,1.0,319.0,923.0,0.0,0,1758.0,0
858,858,-0.5573094574418685,-0.6,1.0,0.0,347.0,756.0,0.0,0,1897.0,1
859,859,-0.6603801030334987,-0.7,0.0,1.0,261.0,674.0,0.0,1,2065.0,0
860,860,0.7044580826629215,0.7,1.0,1.0,312.0,616.0,0.0,0,2072.0,0
861,861,-0.346604404553046,-0.3,0.0,1.0,291.0,974.0,0.0,1,1735.0,0
862,862,-0.5098407438815784,-0.5,1.0,0.0,328.0,900.0,0.0,0,1772.0,1
863,863,0.3354959847119027,0.3,1.0,1.0,478.0,956.0,0.0,0,1566.0,0
864,864,-0.3242782292978744,-0.3,1.0,0.0,342.0,834.0,0.0,0,1824.0,1
865,865,-0.7412418953912648,-0.7,0.0,1.0,339.0,887.0,0.0,1,1774.0,0
866,866,-0.23253859562436485,-0.2,0.0,1.0,482.0,754.0,0.0,1,1764.0,0
867,867,0.30686726264437525,0.3,1.0,1.0,268.0,696.0,0.0,0,-924.0,0
868,868,0.7118611408452827,0.7,0.0,0.0,381.0,626.0,0.0,1,1993.0,1
869,869,-0.08637160895220353,-0.1,0.0,1.0,366.0,664.0,0.0,1,1970.0,0
870,870,0.8711404132756401,0.9,0.0,0.0,265.0,782.0,0.0,1,1953.0,1
871,871,0.38307973731432365,0.4,0.0,0.0,484.0,988.0,0.0,1,1528.0,1
872,872,-0.21314812686051676,-0.2,1.0,0.0,466.0,824.0,0.0,0,1710.0,1
873,873,-0.4471372941908941,-0.4,0.0,1.0,325.0,742.0,0.0,1,1933.0,0
874,874,0.1845608807592708,0.2,0.0,0.0,275.0,662.0,0.0,1,2063.0,1
875,875,0.015420079866000691,0.0,0.0,0.0,439.0,912.0,0.0,1,1649.0,1
876,876,0.01756652138765824,0.0,0.0,0.0,289.0,958.0,0.0,1,1753.0,1
877,877,0.8579926138235089,0.9,0.0,0.0,322.0,864.0,0.0,1,1814.0,1
878,878,-0.3309139017902589,-0.3,0.0,1.0,442.0,861.0,0.0,1,1697.0,0
879,879,0.6300227091166762,0.6,0.0,0.0,449.0,941.0,0.0,1,1610.0,1
880,880,-0.8256706189471834,-0.8,0.0,1.0,413.0,682.0,0.0,1,1905.0,0
881,881,-0.5273252480489538,-0.5,0.0,1.0,283.0,505.0,0.0,1,2212.0,0
882,882,0.5861992111620776,0.6,1.0,1.0,332.0,924.0,0.0,0,1744.0,0
883,883,-0.7941733146735623,-0.8,1.0,0.0,438.0,791.0,0.0,0,1771.0,1
884,884,-0.5911095807619642,-0.6,1.0,0.0,281.0,877.0,0.0,0,1842.0,1
885,885,0.41441572606716204,0.4,0.0,0.0,272.0,971.0,0.0,1,1757.0,1
886,886,0.05847540583898525,0.1,0.0,0.0,401.0,775.0,0.0,1,-1166.0,1
887,887,0.6044604454398063,0.6,1.0,1.0,282.0,883.0,0.0,0,1835.0,0
888,888,-0.7405483056387119,-0.7,1.0,0.0,344.0,611.0,0.0,0,2045.0,1
889,889,-0.3348102683890931,-0.3,0.0,1.0,324.0,750.0,1.0,0,-1014.0,1
890,890,-0.3755206966298389,-0.4,1.0,0.0,443.0,607.0,0.0,0,1950.0,1
891,891,0.30759700420684044,0.3,0.0,0.0,462.0,959.0,0.0,1,1579.0,1
892,892,0.8905618644849994,0.9,1.0,1.0,406.0,682.0,0.0,0,1912.0,0
893,893,0.5285448783905239,0.5,1.0,1.0,484.0,825.0,0.0,0,1691.0,0
894,894,0.6930078779160843,0.7,0.0,0.0,470.0,960.0,0.0,1,1570.0,1
895,895,0.6954430691841645,0.7,1.0,1.0,472.0,828.0,0.0,0,1700.0,0
896,896,-0.8145849980574287,-0.8,0.0,1.0,406.0,882.0,0.0,1,1712.0,0
897,897,-0.4180316927917368,-0.4,1.0,0.0,382.0,897.0,0.0,0,1721.0,1
898,898,-0.78512071382738,-0.8,0.0,1.0,489.0,980.0,0.0,1,1531.0,0
899,899,0.2697063335610007,0.3,0.0,0.0,449.0,826.0,0.0,1,1725.0,1
900,900,0.11254850945192285,0.1,0.0,0.0,335.0,759.0,1.0,0,-1074.0,0
901,901,-0.3305919352264888,-0.3,0.0,1.0,355.0,512.0,0.0,1,2133.0,0
902,902,0.680480016833905,0.7,1.0,1.0,281.0,817.0,0.0,0,1902.0,0
903,903,0.03198155718716966,0.0,0.0,0.0,357.0,929.0,0.0,1,1714.0,1
904,904,0.69195770794144,0.7,1.0,1.0,499.0,999.0,0.0,0,1502.0,0
905,905,0.5187601721406904,0.5,0.0,0.0,252.0,590.0,0.0,1,2158.0,1
906,906,0.07119048713056686,0.1,1.0,1.0,373.0,854.0,0.0,0,1773.0,0
907,907,-0.3240504337197242,-0.3,0.0,1.0,295.0,552.0,0.0,1,2153.0,0
908,908,0.4800960700746232,0.5,1.0,1.0,269.0,875.0,0.0,0,1856.0,0
909,909,0.8192943374650768,0.8,0.0,0.0,489.0,753.0,0.0,1,-1172.0,1
910,910,-0.6772904248904202,-0.7,1.0,0.0,340.0,755.0,0.0,0,1905.0,1
911,911,-0.09637630811152798,-0.1,0.0,1.0,437.0,580.0,0.0,1,1983.0,0
912,912,-0.7784384901408997,-0.8,0.0,1.0,368.0,697.0,0.0,1,1935.0,0
913,913,-0.6622507927128891,-0.7,1.0,0.0,262.0,755.0,0.0,0,1983.0,1
914,914,-0.31949485696253344,-0.3,1.0,0.0,350.0,784.0,0.0,0,1866.0,1
915,915,-0.8575383631594635,-0.9,1.0,0.0,354.0,985.0,0.0,0,1661.0,1
916,916,0.4082394038282432,0.4,1.0,1.0,462.0,683.0,0.0,0,1855.0,0
917,917,0.14936603835421758,0.1,1.0,1.0,429.0,739.0,0.0,0,1832.0,0
918,918,-0.2635216957894554,-0.3,0.0,1.0,399.0,540.0,0.0,1,2061.0,0
919,919,-0.05554131239519866,-0.1,1.0,0.0,465.0,662.0,0.0,0,1873.0,1
920,920,-0.7088875812432505,-0.7,1.0,0.0,439.0,585.0,0.0,0,1976.0,1
921,921,-0.599572719738571,-0.6,0.0,1.0,464.0,684.0,0.0,1,1852.0,0
922,922,-0.13474501319101528,-0.1,1.0,0.0,314.0,903.0,0.0,0,1783.0,1
923,923,0.39079226242971365,0.4,1.0,1.0,488.0,796.0,0.0,0,1716.0,0
924,924,0.15566166431048012,0.2,1.0,1.0,292.0,939.0,0.0,0,1769.0,0
925,925,-0.8994409390708766,-0.9,1.0,0.0,411.0,985.0,0.0,0,1604.0,1
926,926,0.5738624755430938,0.6,1.0,1.0,271.0,528.0,0.0,0,2201.0,0
927,927,0.7254292739476086,0.7,1.0,1.0,261.0,614.0,0.0,0,2125.0,0
928,928,-0.8960512090267396,-0.9,1.0,0.0,252.0,637.0,0.0,0,2111.0,1
929,929,0.8476662269780605,0.8,1.0,1.0,401.0,975.0,0.0,0,1624.0,0
930,930,-0.6527162503645356,-0.7,0.0,1.0,408.0,893.0,0.0,1,1699.0,0
931,931,0.13380269283765023,0.1,1.0,1.0,286.0,638.0,0.0,0,2076.0,0
932,932,-0.5253191570703973,-0.5,0.0,1.0,340.0,600.0,0.0,1,2060.0,0
933,933,-0.871375847973841,-0.9,1.0,0.0,435.0,552.0,0.0,0,2013.0,1
934,934,-0.10612560168718144,-0.1,1.0,0.0,280.0,751.0,0.0,0,1969.0,1
935,935,-0.3003155807661374,-0.3,0.0,1.0,304.0,508.0,0.0,1,2188.0,0
936,936,0.3505275522604058,0.4,0.0,0.0,271.0,805.0,0.0,1,1924.0,1
937,937,-0.7033285501243938,-0.7,0.0,1.0,464.0,887.0,0.0,1,1649.0,0
938,938,-0.4665263907259861,-0.5,0.0,1.0,269.0,611.0,0.0,1,-770.0,0
939,939,0.008551264885101495,0.0,0.0,0.0,436.0,949.0,0.0,1,1615.0,1
940,940,-0.7531053166685845,-0.8,1.0,0.0,469.0,681.0,1.0,1,-1090.0,0
941,941,-0.8964845929982331,-0.9,0.0,1.0,422.0,991.0,0.0,1,1587.0,0
942,942,0.5393079733690233,0.5,0.0,0.0,446.0,600.0,0.0,1,1954.0,1
943,943,0.6909375458677075,0.7,1.0,1.0,250.0,616.0,0.0,0,2134.0,0
944,944,0.2456128515049948,0.2,0.0,0.0,308.0,996.0,0.0,1,1696.0,1
945,945,-0.7379613037033141,-0.7,1.0,0.0,354.0,619.0,0.0,0,2027.0,1
946,946,-0.660253531053482,-0.7,0.0,1.0,315.0,931.0,0.0,1,1754.0,0
947,947,0.48089149863627456,0.5,1.0,1.0,428.0,930.0,0.0,0,1642.0,0
948,948,-0.06789577033742855,-0.1,1.0,0.0,476.0,711.0,0.0,0,1813.0,1
949,949,-0.24461006489630155,-0.2,0.0,1.0,331.0,505.0,0.0,1,2164.0,0
950,950,-0.25376053502683904,-0.3,0.0,1.0,276.0,987.0,0.0,1,1737.0,0
951,951,-0.3497408892668856,-0.3,1.0,0.0,378.0,563.0,0.0,0,2059.0,1
952,952,-0.18431098015406133,-0.2,1.0,0.0,311.0,947.0,0.0,0,1742.0,1
953,953,0.3761843539167772,0.4,1.0,1.0,411.0,696.0,0.0,0,1893.0,0
954,954,-0.3308415629839514,-0.3,1.0,0.0,308.0,807.0,0.0,0,1885.0,1
955,955,0.43981378284949646,0.4,0.0,0.0,380.0,642.0,0.0,1,1978.0,1
956,956,-0.5742559062953647,-0.6,0.0,1.0,336.0,880.0,0.0,1,1784.0,0
957,957,0.0992483248534588,0.1,1.0,1.0,297.0,655.0,0.0,0,2048.0,0
958,958,0.5406348079699389,0.5,1.0,1.0,384.0,697.0,0.0,0,1919.0,0
959,959,0.335536485660613,0.3,0.0,0.0,424.0,819.0,0.0,1,1757.0,1
960,960,0.11607962832150098,0.1,1.0,1.0,362.0,832.0,0.0,0,1806.0,0
961,961,-0.6643505886956368,-0.7,1.0,0.0,492.0,796.0,0.0,0,1712.0,1
962,962,-0.5342889907407141,-0.5,1.0,0.0,333.0,839.0,0.0,0,-1082.0,1
963,963,-0.6737860001572079,-0.7,0.0,1.0,379.0,910.0,0.0,1,1711.0,0
964,964,-0.7746566885522455,-0.8,1.0,0.0,393.0,657.0,0.0,0,1950.0,1
965,965,-0.1969170347180309,-0.2,1.0,0.0,351.0,901.0,0.0,0,1748.0,1
966,966,-0.19849167362340248,-0.2,1.0,0.0,380.0,793.0,0.0,0,1827.0,1
967,967,0.8631514746717676,0.9,0.0,0.0,353.0,954.0,0.0,1,1693.0,1
968,968,0.1731695575880644,0.2,0.0,0.0,459.0,840.0,0.0,1,1701.0,1
969,969,0.1700914030777635,0.2,1.0,1.0,471.0,811.0,0.0,0,1718.0,0
970,970,-0.7845426511662755,-0.8,0.0,1.0,322.0,511.0,1.0,0,-823.0,1
971,971,0.5045935682642885,0.5,0.0,0.0,454.0,898.0,0.0,1,-1272.0,1
972,972,0.6313472453514865,0.6,1.0,1.0,488.0,584.0,0.0,0,1928.0,0
973,973,-0.19526923626439296,-0.2,1.0,0.0,332.0,701.0,0.0,0,-903.0,1
974,974,0.19652686897177996,0.2,0.0,0.0,302.0,882.0,0.0,1,1816.0,1
975,975,-0.30782403420060855,-0.3,1.0,0.0,298.0,533.0,0.0,0,2169.0,1
976,976,0.021542711994117725,0.0,0.0,0.0,492.0,687.0,0.0,1,1821.0,1
977,977,-0.4546527990605976,-0.5,1.0,0.0,303.0,783.0,0.0,0,1914.0,1
978,978,-0.38800293829600185,-0.4,0.0,1.0,257.0,513.0,0.0,1,2230.0,0
979,979,0.4511910484922458,0.5,0.0,0.0,460.0,867.0,0.0,1,1673.0,1
980,980,0.35455693826974255,0.4,0.0,0.0,283.0,620.0,0.0,1,2097.0,1
981,981,0.21422525564936523,0.2,0.0,0.0,320.0,517.0,0.0,1,2163.0,1
982,982,0.23879342435241313,0.2,1.0,1.0,359.0,505.0,0.0,0,-834.0,0
983,983,-0.40526917608606045,-0.4,1.0,0.0,487.0,521.0,0.0,0,1992.0,1
984,984,-0.05844643323677845,-0.1,1.0,0.0,295.0,672.0,1.0,1,-947.0,0
985,985,-0.2635420911729359,-0.3,0.0,1.0,407.0,663.0,0.0,1,1930.0,0
986,986,-0.890402354626067,-0.9,0.0,1.0,318.0,737.0,0.0,1,1945.0,0
987,987,-0.5307745995372717,-0.5,1.0,0.0,377.0,979.0,0.0,0,1644.0,1
988,988,-0.8429139535917471,-0.8,1.0,0.0,394.0,651.0,0.0,0,1955.0,1
989,989,0.4652670729658578,0.5,1.0,1.0,494.0,947.0,0.0,0,1559.0,0
990,990,0.30830908678083235,0.3,1.0,1.0,355.0,987.0,0.0,0,1658.0,0
991,991,-0.7982829535925329,-0.8,1.0,0.0,373.0,787.0,0.0,0,1840.0,1
992,992,0.14259941491667638,0.1,1.0,1.0,412.0,760.0,0.0,0,1828.0,0
993,993,0.15608439275716057,0.2,0.0,0.0,255.0,956.0,0.0,1,1789.0,1
994,994,-0.7712312119398564,-0.8,1.0,0.0,273.0,562.0,0.0,0,2165.0,1
995,995,0.03758872029197646,0.0,0.0,0.0,381.0,861.0,0.0,1,1758.0,1
996,996,-0.019073042763719794,-0.0,1.0,0.0,357.0,532.0,0.0,0,2111.0,1
997,997,-0.8265247204600091,-0.8,0.0,1.0,301.0,948.0,0.0,1,1751.0,0
998,998,0.41506857787854556,0.4,0.0,0.0,409.0,944.0,0.0,1,1647.0,1
999,999,0.8277288903596435,0.8,0.0,0.0,431.0,986.0,0.0,1,1583.0,1
1000,1000,-0.8722944660816974,-0.9,0.0,1.0,424.0,958.0,0.0,1,1618.0,0
1001,1001,0.1932830601928387,0.2,0.0,0.0,279.0,700.0,0.0,1,2021.0,1
1002,1002,0.36715276262468344,0.4,0.0,0.0,355.0,522.0,1.0,0,-697.0,0
1003,1003,0.7454625297375325,0.7,0.0,0.0,355.0,823.0,0.0,1,1822.0,1
1004,1004,0.3780465487684995,0.4,1.0,1.0,465.0,891.0,0.0,0,1644.0,0
1005,1005,0.23871272850072034,0.2,1.0,1.0,354.0,897.0,0.0,0,1749.0,0
1006,1006,0.2669002034468676,0.3,1.0,1.0,457.0,860.0,0.0,0,1683.0,0
1007,1007,-0.04615023517808414,-0.0,1.0,0.0,312.0,662.0,0.0,0,2026.0,1
1008,1008,-0.4961667016290156,-0.5,1.0,0.0,391.0,719.0,0.0,0,1890.0,1
1009,1009,0.06429317591765138,0.1,0.0,0.0,343.0,893.0,0.0,1,1764.0,1
1010,1010,-0.5988139597189195,-0.6,0.0,1.0,420.0,966.0,0.0,1,1614.0,0
1011,1011,-0.6740040504304349,-0.7,1.0,0.0,420.0,748.0,0.0,0,1832.0,1
1012,1012,0.13975519150316595,0.1,1.0,1.0,280.0,967.0,0.0,0,1753.0,0
1013,1013,0.22909284295940913,0.2,1.0,1.0,306.0,585.0,0.0,0,2109.0,0
1014,1014,-0.6308876868566076,-0.6,1.0,0.0,323.0,834.0,0.0,0,1843.0,1
1015,1015,0.3281537332514487,0.3,0.0,0.0,408.0,871.0,0.0,1,1721.0,1
1016,1016,0.07745240184316415,0.1,0.0,0.0,296.0,542.0,0.0,1,2162.0,1
1017,1017,-0.8700993155846781,-0.9,1.0,0.0,297.0,829.0,0.0,0,1874.0,1
1018,1018,-0.7326561704684642,-0.7,0.0,1.0,475.0,967.0,0.0,1,1558.0,0
1019,1019,0.1707316404420004,0.2,1.0,1.0,485.0,986.0,0.0,0,1529.0,0
1020,1020,0.3059523755722541,0.3,1.0,1.0,377.0,865.0,0.0,0,1758.0,0
1021,1021,-0.7234225283855407,-0.7,1.0,0.0,390.0,962.0,0.0,0,1648.0,1
1022,1022,-0.41406533252049055,-0.4,1.0,0.0,421.0,761.0,0.0,0,-1082.0,1
1023,1023,-0.7226937636223367,-0.7,0.0,1.0,361.0,735.0,0.0,1,1904.0,0
1024,1024,-0.8879743689807545,-0.9,1.0,0.0,279.0,942.0,0.0,0,1779.0,1
1025,1025,0.47297284108825244,0.5,0.0,0.0,313.0,786.0,0.0,1,1901.0,1
1026,1026,-0.7163879173327645,-0.7,1.0,0.0,489.0,829.0,0.0,0,1682.0,1
1027,1027,-0.043310925502601516,-0.0,0.0,1.0,332.0,797.0,0.0,1,1871.0,0
1028,1028,0.11004196723427262,0.1,0.0,0.0,266.0,503.0,0.0,1,2231.0,1
1029,1029,-0.898233719026992,-0.9,0.0,1.0,448.0,743.0,0.0,1,1809.0,0
1030,1030,-0.557760710993718,-0.6,1.0,0.0,449.0,864.0,0.0,0,1687.0,1
1031,1031,-0.40977071041117136,-0.4,0.0,1.0,423.0,792.0,0.0,1,1785.0,0
1032,1032,-0.018787567434346508,-0.0,0.0,1.0,285.0,676.0,0.0,1,2039.0,0
1033,1033,0.5380226975757861,0.5,1.0,1.0,472.0,594.0,0.0,0,1934.0,0
1034,1034,0.6554636476171464,0.7,1.0,1.0,479.0,727.0,0.0,0,1794.0,0
1035,1035,-0.4416317673270772,-0.4,1.0,0.0,370.0,535.0,0.0,0,2095.0,1
1036,1036,-0.4780503385721878,-0.5,1.0,0.0,331.0,713.0,0.0,0,1956.0,1
1037,1037,-0.13646445917786543,-0.1,1.0,0.0,377.0,724.0,0.0,0,1899.0,1
1038,1038,0.5172506999583669,0.5,1.0,1.0,478.0,768.0,0.0,0,1754.0,0
1039,1039,-0.18242117253209922,-0.2,0.0,1.0,488.0,710.0,0.0,1,1802.0,0
1040,1040,0.816307600909899,0.8,1.0,1.0,441.0,948.0,0.0,0,1611.0,0
1041,1041,-0.5137521002972147,-0.5,0.0,1.0,410.0,773.0,0.0,1,1817.0,0
1042,1042,0.6585990686965953,0.7,0.0,0.0,302.0,703.0,0.0,1,1995.0,1
1043,1043,-0.4777744678862227,-0.5,0.0,1.0,466.0,877.0,0.0,1,1657.0,0
1044,1044,-0.6186266615596379,-0.6,1.0,0.0,311.0,576.0,0.0,0,-837.0,1
1045,1045,0.238324595386337,0.2,1.0,1.0,290.0,742.0,0.0,0,1968.0,0
1046,1046,-0.18176605957756697,-0.2,1.0,0.0,427.0,557.0,0.0,0,2016.0,1
1047,1047,0.43965762725832536,0.4,0.0,0.0,486.0,679.0,0.0,1,1835.0,1
1048,1048,0.23045594251174573,0.2,1.0,1.0,384.0,727.0,0.0,0,1889.0,0
1049,1049,-0.0007813788392768695,-0.0,0.0,1.0,470.0,811.0,0.0,1,1719.0,0
1050,1050,0.4760769535520465,0.5,1.0,1.0,497.0,821.0,0.0,0,1682.0,0
1051,1051,-0.7001273739015441,-0.7,1.0,0.0,411.0,538.0,0.0,0,2051.0,1
1052,1052,-0.362243396270306,-0.4,0.0,1.0,498.0,932.0,0.0,1,1570.0,0
1053,1053,0.8395975695538006,0.8,0.0,0.0,457.0,664.0,0.0,1,1879.0,1
1054,1054,0.5490144268269442,0.5,0.0,0.0,311.0,928.0,0.0,1,1761.0,1
1055,1055,0.33396702180374416,0.3,0.0,0.0,414.0,507.0,0.0,1,2079.0,1
1056,1056,-0.6183986212363195,-0.6,0.0,1.0,491.0,990.0,0.0,1,1519.0,0
1057,1057,-0.7046099060408932,-0.7,1.0,0.0,421.0,721.0,0.0,0,1858.0,1
1058,1058,0.1898050869583371,0.2,1.0,1.0,356.0,915.0,0.0,0,1729.0,0
1059,1059,-0.618839276489793,-0.6,1.0,0.0,326.0,681.0,0.0,0,1993.0,1
1060,1060,0.4331195624174876,0.4,1.0,1.0,410.0,805.0,0.0,0,1785.0,0
1061,1061,0.6380760037775098,0.6,1.0,1.0,293.0,888.0,0.0,0,1819.0,0
1062,1062,-0.15950178471054555,-0.2,0.0,1.0,434.0,886.0,0.0,1,1680.0,0
1063,1063,-0.5559465199257831,-0.6,1.0,0.0,251.0,503.0,1.0,1,-594.0,0
1064,1064,0.24978826467319892,0.2,1.0,1.0,427.0,836.0,1.0,1,-1183.0,1
1065,1065,-0.6947396559293151,-0.7,0.0,1.0,474.0,823.0,0.0,1,-1267.0,0
1066,1066,0.23304735367869867,0.2,1.0,1.0,301.0,592.0,0.0,0,2107.0,0
1067,1067,-0.21892582616873135,-0.2,1.0,0.0,263.0,638.0,0.0,0,2099.0,1
1068,1068,0.20168492864669407,0.2,1.0,1.0,404.0,966.0,0.0,0,1630.0,0
1069,1069,-0.1488910633917313,-0.1,1.0,0.0,331.0,839.0,0.0,0,1830.0,1
1070,1070,-0.28830200072476253,-0.3,0.0,1.0,479.0,830.0,0.0,1,1691.0,0
1071,1071,0.8182739066537953,0.8,1.0,1.0,262.0,784.0,0.0,0,1954.0,0
1072,1072,0.5036777014395336,0.5,0.0,0.0,379.0,923.0,0.0,1,1698.0,1
1073,1073,-0.6385447264118936,-0.6,1.0,0.0,285.0,759.0,0.0,0,1956.0,1
1074,1074,0.44060249994019307,0.4,0.0,0.0,250.0,801.0,0.0,1,1949.0,1
1075,1075,-0.7916231426837501,-0.8,1.0,0.0,446.0,526.0,0.0,0,2028.0,1
1076,1076,-0.218327647403887,-0.2,1.0,0.0,344.0,904.0,0.0,0,1752.0,1
1077,1077,0.09206245289344994,0.1,0.0,0.0,362.0,935.0,0.0,1,1703.0,1
1078,1078,0.48616712893111746,0.5,1.0,1.0,421.0,599.0,1.0,1,-960.0,1
1079,1079,-0.1674377738149463,-0.2,1.0,0.0,376.0,567.0,0.0,0,2057.0,1
1080,1080,-0.47024373399470976,-0.5,0.0,1.0,297.0,722.0,0.0,1,1981.0,0
1081,1081,-0.5203590453633784,-0.5,0.0,1.0,276.0,607.0,0.0,1,2117.0,0
1082,1082,0.21708410485612262,0.2,0.0,0.0,338.0,956.0,0.0,1,1706.0,1
1083,1083,0.4873872600317407,0.5,0.0,0.0,282.0,734.0,0.0,1,1984.0,1
1084,1084,-0.42642987016080847,-0.4,0.0,1.0,351.0,824.0,0.0,1,1825.0,0
1085,1085,0.2539788122255636,0.3,1.0,1.0,278.0,725.0,0.0,0,1997.0,0
1086,1086,0.29509441365531297,0.3,1.0,1.0,371.0,643.0,0.0,0,1986.0,0
1087,1087,0.18206268952510662,0.2,1.0,1.0,346.0,741.0,0.0,0,1913.0,0
1088,1088,-0.34853584528709525,-0.3,1.0,0.0,352.0,951.0,0.0,0,1697.0,1
1089,1089,-0.07243898389775705,-0.1,1.0,0.0,314.0,775.0,0.0,0,1911.0,1
1090,1090,-0.2980713948099448,-0.3,0.0,1.0,424.0,560.0,0.0,1,2016.0,0
1091,1091,0.29148871085554606,0.3,0.0,0.0,442.0,527.0,0.0,1,2031.0,1
1092,1092,0.2893323200537682,0.3,0.0,0.0,256.0,755.0,0.0,1,-991.0,1
1093,1093,0.009159163072518295,0.0,1.0,1.0,269.0,822.0,0.0,0,1909.0,0
1094,1094,0.11509340166735138,0.1,1.0,1.0,494.0,653.0,0.0,0,1853.0,0
1095,1095,0.8854219976615688,0.9,0.0,0.0,302.0,667.0,0.0,1,2031.0,1
1096,1096,-0.5267364394347773,-0.5,1.0,0.0,375.0,814.0,0.0,0,-1129.0,1
1097,1097,0.7716141003293838,0.8,1.0,1.0,424.0,924.0,0.0,0,1652.0,0
1098,1098,-0.6302740783328528,-0.6,1.0,0.0,290.0,637.0,1.0,1,-917.0,0
1099,1099,0.3159408585950073,0.3,1.0,1.0,296.0,655.0,0.0,0,2049.0,0
1100,1100,-0.5390800625413787,-0.5,1.0,0.0,468.0,606.0,0.0,0,1926.0,1
1101,1101,-0.32514709801532105,-0.3,1.0,0.0,377.0,692.0,0.0,0,-1029.0,1
1102,1102,0.5100798408665425,0.5,0.0,0.0,335.0,831.0,0.0,1,1834.0,1
1103,1103,0.5580783334306151,0.6,1.0,1.0,488.0,774.0,0.0,0,1738.0,0
1104,1104,0.4005928809166789,0.4,0.0,0.0,331.0,634.0,1.0,0,-905.0,0
1105,1105,-0.5265462444986064,-0.5,1.0,0.0,383.0,796.0,0.0,0,1821.0,1
1106,1106,-0.5089113879390488,-0.5,0.0,1.0,288.0,538.0,0.0,1,2174.0,0
1107,1107,0.4769214595348109,0.5,1.0,1.0,381.0,610.0,0.0,0,2009.0,0
1108,1108,-0.43984142767022844,-0.4,1.0,0.0,396.0,678.0,0.0,0,1926.0,1
1109,1109,-0.33199551547680595,-0.3,0.0,1.0,465.0,999.0,0.0,1,1536.0,0
1110,1110,-0.090740649872876,-0.1,0.0,1.0,457.0,946.0,0.0,1,-1333.0,0
1111,1111,-0.10677442203399645,-0.1,1.0,0.0,449.0,524.0,0.0,0,-883.0,1
1112,1112,-0.657728714027699,-0.7,1.0,0.0,409.0,814.0,0.0,0,-1113.0,1
1113,1113,0.3711879363853471,0.4,1.0,1.0,363.0,605.0,0.0,0,2032.0,0
1114,1114,0.8383887057543938,0.8,0.0,0.0,490.0,528.0,0.0,1,-938.0,1
1115,1115,0.5435244817793242,0.5,0.0,0.0,275.0,808.0,0.0,1,1917.0,1
1116,1116,-0.3699270991241054,-0.4,0.0,1.0,362.0,827.0,0.0,1,1811.0,0
1117,1117,-0.6026451716096912,-0.6,1.0,0.0,334.0,916.0,0.0,0,1750.0,1
1118,1118,-0.32387680316825573,-0.3,1.0,0.0,400.0,579.0,0.0,0,2021.0,1
1119,1119,0.2662364648890557,0.3,1.0,1.0,321.0,856.0,0.0,0,1823.0,0
1120,1120,0.030471987528859268,0.0,0.0,0.0,328.0,611.0,0.0,1,-939.0,1
1121,1121,-0.10520523213636446,-0.1,0.0,1.0,414.0,746.0,0.0,1,-1030.0,0
1122,1122,-0.6658524866185039,-0.7,1.0,0.0,488.0,806.0,0.0,0,1706.0,1
1123,1123,-0.703763079492379,-0.7,1.0,0.0,387.0,713.0,0.0,0,-1090.0,1
1124,1124,-0.2096132732770285,-0.2,0.0,1.0,264.0,585.0,0.0,1,2151.0,0
1125,1125,-0.30411629891787195,-0.3,1.0,0.0,437.0,910.0,0.0,0,1653.0,1
1126,1126,-0.36785333408932586,-0.4,1.0,0.0,409.0,598.0,0.0,0,1993.0,1
1127,1127,-0.018603547709354462,-0.0,0.0,1.0,385.0,715.0,0.0,1,1900.0,0
1128,1128,-0.4414560071555819,-0.4,0.0,1.0,436.0,850.0,0.0,1,1714.0,0
1129,1129,0.7854405505052185,0.8,0.0,0.0,318.0,564.0,0.0,1,2118.0,1
1130,1130,-0.6994240571162811,-0.7,1.0,0.0,394.0,734.0,0.0,0,1872.0,1
1131,1131,0.3521287446753224,0.4,1.0,1.0,450.0,760.0,0.0,0,1790.0,0
1132,1132,-0.36642742689413366,-0.4,1.0,0.0,423.0,535.0,0.0,0,2042.0,1
1133,1133,0.4114209952038267,0.4,1.0,1.0,325.0,768.0,0.0,0,1907.0,0
1134,1134,-0.25931842099711355,-0.3,1.0,0.0,403.0,864.0,1.0,1,-1207.0,0
1135,1135,0.21377706871229984,0.2,0.0,0.0,470.0,814.0,0.0,1,1716.0,1
1136,1136,-0.2514971099903044,-0.3,0.0,1.0,267.0,945.0,1.0,0,-1172.0,1
1137,1137,0.6696373738955655,0.7,1.0,1.0,482.0,674.0,0.0,0,1844.0,0
1138,1138,0.18543938892278666,0.2,0.0,0.0,331.0,903.0,1.0,0,-1214.0,0
1139,1139,0.02766875266437341,0.0,0.0,0.0,261.0,951.0,0.0,1,1788.0,1
1140,1140,-0.6837358828273921,-0.7,0.0,1.0,316.0,580.0,0.0,1,2104.0,0
1141,1141,-0.5274633079155167,-0.5,1.0,0.0,360.0,965.0,0.0,0,1675.0,1
1142,1142,0.5132166530545937,0.5,0.0,0.0,357.0,515.0,0.0,1,2128.0,1
1143,1143,-0.6684382131214203,-0.7,0.0,1.0,391.0,803.0,0.0,1,1806.0,0
1144,1144,-0.7140361615096016,-0.7,1.0,0.0,374.0,768.0,0.0,0,1858.0,1
1145,1145,0.07765276058140436,0.1,0.0,0.0,374.0,580.0,1.0,0,-874.0,0
1146,1146,0.6156463962573321,0.6,1.0,1.0,333.0,679.0,0.0,0,1988.0,0
1147,1147,-0.5690163793923095,-0.6,0.0,1.0,304.0,552.0,0.0,1,2144.0,0
1148,1148,0.30040316317003735,0.3,1.0,1.0,365.0,817.0,0.0,0,1818.0,0
1149,1149,-0.6558403965623234,-0.7,1.0,0.0,264.0,573.0,0.0,0,-787.0,1
1150,1150,-0.8914164646620951,-0.9,0.0,1.0,494.0,507.0,0.0,1,1999.0,0
1151,1151,0.34095248540280554,0.3,1.0,1.0,322.0,504.0,1.0,1,-816.0,1
1152,1152,0.3924122913121094,0.4,0.0,0.0,434.0,749.0,0.0,1,1817.0,1
1153,1153,0.7969507770620935,0.8,0.0,0.0,319.0,791.0,0.0,1,1890.0,1
1154,1154,0.31528527020561914,0.3,0.0,0.0,386.0,583.0,0.0,1,2031.0,1
1155,1155,0.17892788697377726,0.2,1.0,1.0,388.0,768.0,0.0,0,1844.0,0
1156,1156,-0.1284690839130388,-0.1,1.0,0.0,482.0,614.0,0.0,0,1904.0,1
1157,1157,-0.10664019474336506,-0.1,1.0,0.0,325.0,601.0,0.0,0,2074.0,1
1158,1158,-0.224618917181034,-0.2,0.0,1.0,451.0,617.0,1.0,0,-1038.0,1
1159,1159,-0.28190575486686387,-0.3,1.0,0.0,365.0,571.0,0.0,0,2064.0,1
1160,1160,0.608017262137876,0.6,0.0,0.0,304.0,741.0,0.0,1,1955.0,1
1161,1161,-0.39047325363064456,-0.4,0.0,1.0,478.0,916.0,0.0,1,1606.0,0
1162,1162,0.12383036928771063,0.1,1.0,1.0,497.0,828.0,0.0,0,1675.0,0
1163,1163,-0.7442961608645331,-0.7,1.0,0.0,273.0,696.0,0.0,0,2031.0,1
1164,1164,-0.3680977680058667,-0.4,1.0,0.0,438.0,842.0,0.0,0,1720.0,1
1165,1165,-0.5430817788178819,-0.5,1.0,0.0,485.0,995.0,0.0,0,1520.0,1
1166,1166,0.6239841709217054,0.6,0.0,0.0,438.0,648.0,0.0,1,1914.0,1
1167,1167,-0.6054238857071039,-0.6,1.0,0.0,406.0,985.0,0.0,0,1609.0,1
1168,1168,0.39285048266604494,0.4,0.0,0.0,382.0,953.0,0.0,1,1665.0,1
1169,1169,-0.3695760391639348,-0.4,1.0,0.0,347.0,986.0,0.0,0,1667.0,1
1170,1170,-0.3846441213865325,-0.4,1.0,0.0,465.0,960.0,0.0,0,1575.0,1
1171,1171,-0.5051723487037036,-0.5,1.0,0.0,363.0,541.0,0.0,0,2096.0,1
1172,1172,-0.6989733377304574,-0.7,1.0,0.0,412.0,742.0,0.0,0,-1124.0,1
1173,1173,0.5636230931751339,0.6,1.0,1.0,413.0,734.0,0.0,0,-1117.0,0
1174,1174,0.506138506530626,0.5,0.0,0.0,343.0,804.0,0.0,1,1853.0,1
1175,1175,-0.16862185470205793,-0.2,1.0,0.0,306.0,735.0,0.0,0,1959.0,1
1176,1176,0.3197582830144067,0.3,0.0,0.0,272.0,858.0,0.0,1,1870.0,1
1177,1177,-0.38189272816899955,-0.4,0.0,1.0,376.0,641.0,0.0,1,1983.0,0
1178,1178,-0.8362206906796371,-0.8,1.0,0.0,335.0,627.0,0.0,0,2038.0,1
1179,1179,-0.6274813295229897,-0.6,0.0,1.0,257.0,590.0,0.0,1,-787.0,0
1180,1180,0.21264368731283156,0.2,1.0,1.0,401.0,713.0,0.0,0,1886.0,0
1181,1181,0.49978000040412274,0.5,0.0,0.0,296.0,659.0,0.0,1,2045.0,1
1182,1182,-0.46531769176843696,-0.5,1.0,0.0,473.0,688.0,0.0,0,1839.0,1
1183,1183,0.09776586554661937,0.1,0.0,0.0,424.0,658.0,0.0,1,1918.0,1
1184,1184,0.8851165033040668,0.9,1.0,1.0,312.0,636.0,0.0,0,2052.0,0
1185,1185,-0.33274992868041564,-0.3,0.0,1.0,454.0,504.0,0.0,1,2042.0,0
1186,1186,0.8386465927059085,0.8,0.0,0.0,412.0,958.0,0.0,1,1630.0,1
1187,1187,-0.6286350336441501,-0.6,0.0,1.0,479.0,647.0,0.0,1,1874.0,0
1188,1188,-0.8990454186715212,-0.9,1.0,0.0,344.0,522.0,0.0,0,2134.0,1
1189,1189,0.3596249244566404,0.4,1.0,1.0,371.0,660.0,0.0,0,1969.0,0
1190,1190,-0.1569941356839658,-0.2,1.0,0.0,431.0,544.0,0.0,0,-945.0,1
1191,1191,-0.34792752378523517,-0.3,0.0,1.0,472.0,579.0,0.0,1,1949.0,0
1192,1192,-0.6092696275623273,-0.6,0.0,1.0,415.0,517.0,0.0,1,2068.0,0
1193,1193,0.5732561866531835,0.6,0.0,0.0,331.0,578.0,0.0,1,2091.0,1
1194,1194,0.630374178858257,0.6,0.0,0.0,440.0,689.0,0.0,1,1871.0,1
1195,1195,-0.5124298656599249,-0.5,1.0,0.0,271.0,658.0,0.0,0,2071.0,1
1196,1196,0.3737810322754399,0.4,0.0,0.0,389.0,641.0,0.0,1,1970.0,1
1197,1197,-0.039744747680701575,-0.0,1.0,0.0,462.0,654.0,0.0,0,1884.0,1
1198,1198,-0.6649107819511231,-0.7,1.0,0.0,356.0,510.0,0.0,0,2134.0,1
1199,1199,-0.19487234083735683,-0.2,0.0,1.0,472.0,643.0,1.0,0,-1075.0,1
1200,1200,-0.49724870477970756,-0.5,1.0,0.0,269.0,946.0,0.0,0,1785.0,1
1201,1201,-0.3307493351409563,-0.3,0.0,1.0,306.0,849.0,0.0,1,1845.0,0
1202,1202,-0.7060508885380743,-0.7,1.0,0.0,356.0,579.0,0.0,0,2065.0,1
1203,1203,0.02339882737539345,0.0,1.0,1.0,356.0,788.0,0.0,0,1856.0,0
1204,1204,0.8904815338887865,0.9,1.0,1.0,432.0,914.0,0.0,0,1654.0,0
1205,1205,-0.24867418709340017,-0.2,0.0,1.0,269.0,924.0,0.0,1,1807.0,0
1206,1206,-0.37398080648920784,-0.4,1.0,0.0,362.0,989.0,0.0,0,1649.0,1
1207,1207,0.8402025877776845,0.8,0.0,0.0,336.0,975.0,0.0,1,1689.0,1
1208,1208,0.7244549521635312,0.7,0.0,0.0,317.0,511.0,0.0,1,2172.0,1
1209,1209,-0.01870764830029026,-0.0,1.0,0.0,287.0,785.0,0.0,0,1928.0,1
1210,1210,0.24915859751138936,0.2,1.0,1.0,273.0,703.0,0.0,0,2024.0,0
1211,1211,-0.09305315982223816,-0.1,1.0,0.0,263.0,753.0,0.0,0,1984.0,1
1212,1212,0.13937179600769667,0.1,0.0,0.0,320.0,877.0,0.0,1,1803.0,1
1213,1213,-0.043107164341710025,-0.0,0.0,1.0,484.0,613.0,0.0,1,1903.0,0
1214,1214,0.10048330576770248,0.1,1.0,1.0,470.0,896.0,0.0,0,1634.0,0
1215,1215,-0.5397350955934568,-0.5,0.0,1.0,487.0,732.0,0.0,1,1781.0,0
1216,1216,-0.357160833687142,-0.4,0.0,1.0,280.0,639.0,0.0,1,-909.0,0
1217,1217,0.6851832505832237,0.7,1.0,1.0,319.0,755.0,0.0,0,1926.0,0
1218,1218,-0.11096194213667854,-0.1,1.0,0.0,408.0,875.0,0.0,0,1717.0,1
1219,1219,-0.5776591446697418,-0.6,0.0,1.0,474.0,794.0,0.0,1,1732.0,0
1220,1220,0.05558433834204657,0.1,1.0,1.0,261.0,767.0,0.0,0,1972.0,0
1221,1221,-0.25243520628941285,-0.3,1.0,0.0,279.0,660.0,0.0,0,2061.0,1
1222,1222,-0.761048740879452,-0.8,1.0,0.0,348.0,692.0,0.0,0,1960.0,1
1223,1223,-0.7989161289685601,-0.8,1.0,0.0,296.0,931.0,0.0,0,1773.0,1
1224,1224,-0.5736590862077133,-0.6,1.0,0.0,478.0,848.0,0.0,0,1674.0,1
1225,1225,0.6011704583930447,0.6,0.0,0.0,260.0,810.0,0.0,1,1930.0,1
1226,1226,0.06413636827981195,0.1,1.0,1.0,291.0,583.0,1.0,1,-854.0,1
1227,1227,0.22942666059691008,0.2,1.0,1.0,358.0,711.0,0.0,0,1931.0,0
1228,1228,-0.10066261526342579,-0.1,0.0,1.0,382.0,847.0,0.0,1,1771.0,0
1229,1229,0.30524478821480494,0.3,1.0,1.0,325.0,986.0,0.0,0,1689.0,0
1230,1230,-0.3657691426473063,-0.4,1.0,0.0,334.0,936.0,0.0,0,1730.0,1
1231,1231,0.8863157754625509,0.9,1.0,1.0,418.0,724.0,0.0,0,1858.0,0
1232,1232,0.029459430095181816,0.0,0.0,0.0,339.0,694.0,0.0,1,1967.0,1
1233,1233,-0.7649741991256704,-0.8,0.0,1.0,414.0,792.0,0.0,1,1794.0,0
1234,1234,-0.21530084122770665,-0.2,1.0,0.0,301.0,831.0,0.0,0,1868.0,1
1235,1235,0.03957313228164694,0.0,1.0,1.0,404.0,836.0,0.0,0,1760.0,0
1236,1236,0.43897114718680175,0.4,0.0,0.0,297.0,643.0,0.0,1,2060.0,1
1237,1237,0.36710953326716067,0.4,1.0,1.0,389.0,993.0,0.0,0,1618.0,0
1238,1238,0.5866829193909736,0.6,0.0,0.0,447.0,693.0,0.0,1,1860.0,1
1239,1239,-0.22941630319982964,-0.2,1.0,0.0,294.0,993.0,0.0,0,-1257.0,1
1240,1240,0.5347788457639805,0.5,0.0,0.0,254.0,958.0,0.0,1,1788.0,1
1241,1241,-0.5182131416071732,-0.5,0.0,1.0,325.0,882.0,0.0,1,1793.0,0
1242,1242,0.7757915590316259,0.8,1.0,1.0,300.0,839.0,0.0,0,1861.0,0
1243,1243,0.8980967414034519,0.9,0.0,0.0,407.0,677.0,0.0,1,1916.0,1
1244,1244,-0.4686132550311063,-0.5,0.0,1.0,333.0,585.0,0.0,1,2082.0,0
1245,1245,0.12574147707450145,0.1,1.0,1.0,377.0,987.0,0.0,0,1636.0,0
1246,1246,-0.8475593590675865,-0.8,0.0,1.0,428.0,946.0,0.0,1,-1314.0,0
1247,1247,0.785194085478527,0.8,0.0,0.0,288.0,606.0,0.0,1,2106.0,1
1248,1248,-0.8287070158027375,-0.8,0.0,1.0,410.0,934.0,0.0,1,1656.0,0
1249,1249,-0.29933010755213274,-0.3,0.0,1.0,394.0,639.0,0.0,1,1967.0,0
1250,1250,-0.04155785972374226,-0.0,1.0,0.0,434.0,603.0,0.0,0,1963.0,1
1251,1251,0.2988420499293697,0.3,0.0,0.0,415.0,593.0,0.0,1,1992.0,1
1252,1252,0.5299823520304269,0.5,0.0,0.0,480.0,677.0,0.0,1,1843.0,1
1253,1253,0.5610410657883177,0.6,1.0,1.0,301.0,706.0,0.0,0,1993.0,0
1254,1254,-0.5233858371056916,-0.5,0.0,1.0,336.0,678.0,0.0,1,1986.0,0
1255,1255,0.6610776334693186,0.7,1.0,1.0,395.0,792.0,0.0,0,1813.0,0
1256,1256,0.667208497434879,0.7,1.0,1.0,257.0,836.0,0.0,0,1907.0,0
1257,1257,-0.808369017619629,-0.8,0.0,1.0,335.0,553.0,0.0,1,2112.0,0
1258,1258,-0.26704400802917494,-0.3,0.0,1.0,433.0,644.0,0.0,1,1923.0,0
1259,1259,0.17681398255181346,0.2,0.0,0.0,391.0,993.0,0.0,1,1616.0,1
1260,1260,0.6657576802116708,0.7,1.0,1.0,372.0,583.0,0.0,0,2045.0,0
1261,1261,-0.4481256143604944,-0.4,1.0,0.0,351.0,583.0,0.0,0,2066.0,1
1262,1262,0.32955933204887644,0.3,1.0,1.0,264.0,932.0,0.0,0,1804.0,0
1263,1263,-0.7254175591346056,-0.7,1.0,0.0,336.0,738.0,0.0,0,-994.0,1
1264,1264,0.41124369124768545,0.4,1.0,1.0,288.0,616.0,0.0,0,2096.0,0
1265,1265,0.09463480998439444,0.1,1.0,1.0,428.0,695.0,0.0,0,1877.0,0
1266,1266,-0.3014887112559932,-0.3,1.0,0.0,462.0,878.0,0.0,0,1660.0,1
1267,1267,-0.16453416999807402,-0.2,1.0,0.0,288.0,789.0,0.0,0,1923.0,1
1268,1268,-0.8573234149575985,-0.9,0.0,1.0,339.0,781.0,0.0,1,1880.0,0
1269,1269,-0.7324401376068479,-0.7,0.0,1.0,250.0,950.0,0.0,1,1800.0,0
1270,1270,-0.2400698158855641,-0.2,0.0,1.0,493.0,939.0,0.0,1,1568.0,0
1271,1271,-0.8936131633211166,-0.9,1.0,0.0,485.0,740.0,0.0,0,1775.0,1
1272,1272,-0.40452147537619826,-0.4,0.0,1.0,476.0,698.0,0.0,1,1826.0,0
1273,1273,0.36902089909320834,0.4,1.0,1.0,303.0,815.0,0.0,0,1882.0,0
1274,1274,-0.34301943609222274,-0.3,1.0,0.0,355.0,693.0,0.0,0,1952.0,1
1275,1275,0.44048030460706633,0.4,1.0,1.0,331.0,639.0,1.0,1,-870.0,1
1276,1276,0.8311157121213207,0.8,0.0,0.0,432.0,846.0,0.0,1,1722.0,1
1277,1277,0.3048988920647736,0.3,0.0,0.0,436.0,786.0,0.0,1,1778.0,1
1278,1278,0.4770298534387628,0.5,0.0,0.0,278.0,986.0,0.0,1,1736.0,1
1279,1279,-0.2926023732153702,-0.3,1.0,0.0,341.0,510.0,0.0,0,2149.0,1
1280,1280,-0.7628825117488673,-0.8,1.0,0.0,408.0,600.0,0.0,0,1992.0,1
1281,1281,-0.04887616502378944,-0.0,1.0,0.0,343.0,768.0,0.0,0,1889.0,1
1282,1282,0.32330748884723814,0.3,1.0,1.0,251.0,521.0,0.0,0,2228.0,0
1283,1283,-0.10325755223707911,-0.1,0.0,1.0,296.0,947.0,0.0,1,1757.0,0
1284,1284,-0.5322166236083978,-0.5,0.0,1.0,490.0,502.0,0.0,1,2008.0,0
1285,1285,0.21078837443495313,0.2,0.0,0.0,310.0,570.0,0.0,1,2120.0,1
1286,1286,-0.01887476188229964,-0.0,1.0,0.0,358.0,613.0,0.0,0,2029.0,1
1287,1287,0.33665192557142165,0.3,1.0,1.0,472.0,593.0,1.0,1,-925.0,1
1288,1288,-0.587636608038381,-0.6,0.0,1.0,485.0,773.0,0.0,1,1742.0,0
1289,1289,0.3001175448274146,0.3,0.0,0.0,287.0,612.0,0.0,1,2101.0,1
1290,1290,0.16876417979307223,0.2,0.0,0.0,443.0,803.0,0.0,1,1754.0,1
1291,1291,-0.15728673884456779,-0.2,0.0,1.0,467.0,549.0,0.0,1,1984.0,0
1292,1292,-0.10398037173289076,-0.1,1.0,0.0,268.0,543.0,0.0,0,2189.0,1
1293,1293,-0.6564169691977636,-0.7,1.0,0.0,447.0,881.0,0.0,0,1672.0,1
1294,1294,-0.7157015479463843,-0.7,0.0,1.0,387.0,712.0,0.0,1,1901.0,0
1295,1295,-0.7979122343909549,-0.8,1.0,0.0,274.0,538.0,1.0,1,-632.0,0
1296,1296,0.4166198004060483,0.4,0.0,0.0,373.0,900.0,0.0,1,1727.0,1
1297,1297,-0.8382691233792507,-0.8,1.0,0.0,445.0,950.0,0.0,0,1605.0,1
1298,1298,-0.8873434987046515,-0.9,1.0,0.0,284.0,835.0,0.0,0,1881.0,1
1299,1299,0.47867839313044314,0.5,1.0,1.0,289.0,958.0,0.0,0,1753.0,0
1300,1300,-0.7164391594913236,-0.7,1.0,0.0,471.0,676.0,1.0,1,-917.0,0
1301,1301,-0.6280327107589372,-0.6,1.0,0.0,352.0,752.0,0.0,0,-994.0,1
1302,1302,-0.6969207945464534,-0.7,1.0,0.0,374.0,833.0,0.0,0,1793.0,1
1303,1303,-0.7327538585822921,-0.7,0.0,1.0,285.0,790.0,0.0,1,1925.0,0
1304,1304,0.2016333964218423,0.2,1.0,1.0,378.0,648.0,0.0,0,1974.0,0
1305,1305,-0.4140844733461438,-0.4,0.0,1.0,304.0,992.0,0.0,1,1704.0,0
1306,1306,0.21138938013274522,0.2,0.0,0.0,409.0,515.0,0.0,1,2076.0,1
1307,1307,0.6264827376899139,0.6,1.0,1.0,360.0,620.0,0.0,0,2020.0,0
1308,1308,0.5604560350252715,0.6,1.0,1.0,426.0,841.0,0.0,0,1733.0,0
1309,1309,0.7872295688273604,0.8,1.0,1.0,412.0,592.0,0.0,0,1996.0,0
1310,1310,-0.7289603258271921,-0.7,1.0,0.0,284.0,982.0,0.0,0,1734.0,1
1311,1311,0.6296705333274882,0.6,0.0,0.0,345.0,764.0,1.0,0,-1059.0,0
1312,1312,0.28599488002986073,0.3,0.0,0.0,322.0,660.0,1.0,0,-952.0,0
1313,1313,0.5933789947627456,0.6,1.0,1.0,252.0,514.0,0.0,0,2234.0,0
1314,1314,0.43203948894136646,0.4,0.0,0.0,433.0,967.0,0.0,1,1600.0,1
1315,1315,-0.28772270692248303,-0.3,1.0,0.0,447.0,867.0,0.0,0,1686.0,1
1316,1316,0.7204678430877135,0.7,1.0,1.0,278.0,619.0,0.0,0,2103.0,0
1317,1317,0.7185232988582265,0.7,1.0,1.0,377.0,534.0,0.0,0,2089.0,0
1318,1318,-0.7909208697787653,-0.8,0.0,1.0,329.0,857.0,0.0,1,1814.0,0
1319,1319,0.07700555538275966,0.1,1.0,1.0,278.0,821.0,1.0,1,-1059.0,1
1320,1320,0.8483778214614185,0.8,0.0,0.0,352.0,577.0,0.0,1,2071.0,1
1321,1321,-0.00934961295699066,-0.0,0.0,1.0,456.0,696.0,0.0,1,1848.0,0
1322,1322,-0.602228807761757,-0.6,0.0,1.0,415.0,727.0,0.0,1,1858.0,0
1323,1323,-0.5221421602837553,-0.5,0.0,1.0,380.0,854.0,0.0,1,1766.0,0
1324,1324,-0.35275776812311777,-0.4,0.0,1.0,348.0,950.0,0.0,1,1702.0,0
1325,1325,0.3325401905146025,0.3,1.0,1.0,435.0,809.0,0.0,0,1756.0,0
1326,1326,0.11299549259932118,0.1,1.0,1.0,326.0,793.0,0.0,0,1881.0,0
1327,1327,-0.40829260012597485,-0.4,1.0,0.0,301.0,778.0,0.0,0,1921.0,1
1328,1328,-0.8589525460444389,-0.9,1.0,0.0,303.0,595.0,0.0,0,2102.0,1
1329,1329,0.33323533203339417,0.3,0.0,0.0,304.0,503.0,0.0,1,2193.0,1
1330,1330,0.8943921796842914,0.9,1.0,1.0,414.0,952.0,0.0,0,1634.0,0
1331,1331,0.7554790928468184,0.8,0.0,0.0,390.0,752.0,0.0,1,1858.0,1
1332,1332,0.430246934682072,0.4,0.0,0.0,398.0,825.0,0.0,1,1777.0,1
1333,1333,0.745525962226205,0.7,1.0,1.0,311.0,989.0,0.0,0,1700.0,0
1334,1334,-0.3435799187976448,-0.3,0.0,1.0,278.0,747.0,0.0,1,1975.0,0
1335,1335,0.5685712755859645,0.6,1.0,1.0,476.0,595.0,0.0,0,1929.0,0
1336,1336,-0.7650910316818837,-0.8,0.0,1.0,351.0,788.0,0.0,1,-1029.0,0
1337,1337,-0.7142525290423851,-0.7,0.0,1.0,372.0,945.0,1.0,0,-1257.0,1
1338,1338,-0.3762060275283102,-0.4,0.0,1.0,412.0,535.0,0.0,1,2053.0,0
1339,1339,-0.5608564525242351,-0.6,1.0,0.0,407.0,951.0,0.0,0,1642.0,1
1340,1340,-0.5129788967000073,-0.5,1.0,0.0,431.0,688.0,0.0,0,1881.0,1
1341,1341,0.014701070197840282,0.0,0.0,0.0,271.0,997.0,0.0,1,1732.0,1
1342,1342,-0.3602379542709757,-0.4,1.0,0.0,345.0,733.0,0.0,0,-1078.0,1
1343,1343,0.8511880178153425,0.9,0.0,0.0,481.0,704.0,0.0,1,1815.0,1
1344,1344,-0.21119886928389442,-0.2,1.0,0.0,481.0,978.0,0.0,0,1541.0,1
1345,1345,-0.820507328277994,-0.8,1.0,0.0,447.0,528.0,0.0,0,2025.0,1
1346,1346,-0.2581965154327204,-0.3,1.0,0.0,454.0,900.0,0.0,0,-1324.0,1
1347,1347,-0.2541018964631915,-0.3,1.0,0.0,415.0,654.0,1.0,1,-1029.0,0
1348,1348,-0.5243037900863603,-0.5,1.0,0.0,345.0,992.0,0.0,0,1663.0,1
1349,1349,0.030411296547529165,0.0,0.0,0.0,441.0,558.0,0.0,1,2001.0,1
1350,1350,-0.7469486205139821,-0.7,1.0,0.0,406.0,751.0,0.0,0,1843.0,1
1351,1351,0.38499641788824424,0.4,0.0,0.0,315.0,800.0,0.0,1,1885.0,1
1352,1352,0.63435116076392,0.6,0.0,0.0,290.0,542.0,0.0,1,2168.0,1
1353,1353,0.6590194185426804,0.7,0.0,0.0,292.0,613.0,0.0,1,2095.0,1
1354,1354,-0.09272051961965477,-0.1,0.0,1.0,292.0,974.0,0.0,1,1734.0,0
1355,1355,-0.8064292075300614,-0.8,0.0,1.0,400.0,524.0,0.0,1,2076.0,0
1356,1356,0.49361869782703305,0.5,0.0,0.0,456.0,913.0,0.0,1,1631.0,1
1357,1357,-0.06039591182296755,-0.1,1.0,0.0,394.0,557.0,0.0,0,2049.0,1
1358,1358,0.5428474508539104,0.5,1.0,1.0,305.0,551.0,0.0,0,2144.0,0
1359,1359,-0.8545177125718959,-0.9,1.0,0.0,432.0,784.0,0.0,0,-1136.0,1
1360,1360,-0.8615236918451228,-0.9,1.0,0.0,342.0,820.0,0.0,0,1838.0,1
1361,1361,0.6496051089623559,0.6,1.0,1.0,327.0,886.0,0.0,0,1787.0,0
1362,1362,-0.7155440349476722,-0.7,1.0,0.0,270.0,678.0,0.0,0,2052.0,1
1363,1363,-0.12231794520042427,-0.1,0.0,1.0,441.0,877.0,0.0,1,1682.0,0
1364,1364,-0.8721069125558656,-0.9,1.0,0.0,444.0,610.0,0.0,0,1946.0,1
1365,1365,0.8871053677681843,0.9,0.0,0.0,352.0,610.0,0.0,1,2038.0,1
1366,1366,0.07612795589737775,0.1,0.0,0.0,492.0,648.0,0.0,1,1860.0,1
1367,1367,-0.7491565823763142,-0.7,1.0,0.0,324.0,568.0,0.0,0,2108.0,1
1368,1368,0.23551868617930027,0.2,1.0,1.0,262.0,624.0,0.0,0,2114.0,0
1369,1369,-0.45871883416185055,-0.5,1.0,0.0,375.0,635.0,0.0,0,1990.0,1
1370,1370,0.3778905161732472,0.4,0.0,0.0,436.0,908.0,0.0,1,1656.0,1
1371,1371,0.8765144655965026,0.9,1.0,1.0,368.0,682.0,0.0,0,1950.0,0
1372,1372,0.19126268778399547,0.2,0.0,0.0,489.0,618.0,0.0,1,1893.0,1
1373,1373,0.32164685556584083,0.3,0.0,0.0,255.0,921.0,0.0,1,1824.0,1
1374,1374,-0.8071969969262395,-0.8,1.0,0.0,261.0,798.0,0.0,0,1941.0,1
1375,1375,0.8332258658752395,0.8,1.0,1.0,387.0,633.0,0.0,0,1980.0,0
1376,1376,-0.6278547367101472,-0.6,0.0,1.0,325.0,742.0,0.0,1,1933.0,0
1377,1377,-0.31949629846447547,-0.3,1.0,0.0,313.0,953.0,0.0,0,1734.0,1
1378,1378,0.3072917752545795,0.3,1.0,1.0,496.0,773.0,0.0,0,1731.0,0
1379,1379,0.7104715834665581,0.7,0.0,0.0,489.0,776.0,0.0,1,1735.0,1
1380,1380,-0.6617120712365765,-0.7,0.0,1.0,453.0,925.0,0.0,1,1622.0,0
1381,1381,0.5730904246106915,0.6,1.0,1.0,285.0,536.0,0.0,0,2179.0,0
1382,1382,0.48433261889157053,0.5,0.0,0.0,439.0,977.0,0.0,1,1584.0,1
1383,1383,0.5822521920678657,0.6,0.0,0.0,325.0,976.0,0.0,1,1699.0,1
1384,1384,-0.5430031126232617,-0.5,1.0,0.0,407.0,512.0,0.0,0,2081.0,1
1385,1385,0.6496812199456813,0.6,1.0,1.0,373.0,811.0,0.0,0,1816.0,0
1386,1386,0.7428444602950105,0.7,1.0,1.0,437.0,745.0,0.0,0,1818.0,0
1387,1387,-0.8053009674321593,-0.8,0.0,1.0,300.0,955.0,0.0,1,1745.0,0
1388,1388,-0.6031705556147988,-0.6,1.0,0.0,416.0,895.0,0.0,0,1689.0,1
1389,1389,0.540981295800551,0.5,0.0,0.0,475.0,542.0,0.0,1,1983.0,1
1390,1390,-0.49884547567460336,-0.5,0.0,1.0,263.0,996.0,0.0,1,1741.0,0
1391,1391,-0.03944772757267989,-0.0,0.0,1.0,400.0,856.0,0.0,1,1744.0,0
1392,1392,0.31576565098910503,0.3,0.0,0.0,301.0,568.0,0.0,1,2131.0,1
1393,1393,-0.318991115931765,-0.3,0.0,1.0,353.0,528.0,0.0,1,2119.0,0
1394,1394,-0.653075245034496,-0.7,0.0,1.0,456.0,828.0,0.0,1,1716.0,0
1395,1395,0.14409314233230386,0.1,1.0,1.0,330.0,999.0,0.0,0,1671.0,0
1396,1396,-0.8044460253399567,-0.8,0.0,1.0,379.0,764.0,0.0,1,1857.0,0
1397,1397,0.6979131688565593,0.7,1.0,1.0,298.0,584.0,0.0,0,2118.0,0
1398,1398,-0.05622600827428892,-0.1,0.0,1.0,432.0,580.0,0.0,1,1988.0,0
1399,1399,0.4937453753436415,0.5,1.0,1.0,325.0,889.0,0.0,0,1786.0,0
1400,1400,0.23122854608331334,0.2,1.0,1.0,282.0,832.0,0.0,0,1886.0,0
1401,1401,-0.436254449147366,-0.4,1.0,0.0,272.0,674.0,0.0,0,-756.0,1
1402,1402,-0.8219739129995268,-0.8,0.0,1.0,456.0,830.0,0.0,1,1714.0,0
1403,1403,-0.4070359826189929,-0.4,0.0,1.0,266.0,943.0,0.0,1,1791.0,0
1404,1404,-0.5733187690975734,-0.6,1.0,0.0,265.0,712.0,0.0,0,2023.0,1
1405,1405,-0.11516590631986123,-0.1,1.0,0.0,428.0,742.0,0.0,0,1830.0,1
1406,1406,-0.42723475233146807,-0.4,0.0,1.0,376.0,847.0,0.0,1,1777.0,0
1407,1407,0.5785906322594024,0.6,0.0,0.0,495.0,529.0,0.0,1,1976.0,1
1408,1408,0.0077552406723992995,0.0,0.0,0.0,456.0,859.0,0.0,1,1685.0,1
1409,1409,0.5557595840773898,0.6,0.0,0.0,430.0,892.0,0.0,1,1678.0,1
1410,1410,-0.716986658584857,-0.7,0.0,1.0,378.0,607.0,0.0,1,2015.0,0
1411,1411,0.16354377033305678,0.2,1.0,1.0,335.0,775.0,0.0,0,1890.0,0
1412,1412,-0.6963070003042168,-0.7,1.0,0.0,397.0,652.0,0.0,0,-1019.0,1
1413,1413,-0.6879243698303539,-0.7,1.0,0.0,372.0,584.0,0.0,0,2044.0,1
1414,1414,0.7181894364470899,0.7,1.0,1.0,476.0,842.0,0.0,0,1682.0,0
1415,1415,0.15001942173443206,0.2,0.0,0.0,427.0,661.0,0.0,1,1912.0,1
1416,1416,-0.8230594844566024,-0.8,0.0,1.0,461.0,978.0,0.0,1,1561.0,0
1417,1417,-0.4435334399544323,-0.4,1.0,0.0,378.0,744.0,0.0,0,1878.0,1
1418,1418,-0.30846910677993955,-0.3,0.0,1.0,392.0,570.0,0.0,1,2038.0,0
1419,1419,0.8918920846032209,0.9,0.0,0.0,378.0,506.0,0.0,1,2116.0,1
1420,1420,0.488152840614304,0.5,1.0,1.0,442.0,979.0,0.0,0,1579.0,0
1421,1421,0.7577019533103274,0.8,1.0,1.0,430.0,513.0,0.0,0,2057.0,0
1422,1422,0.1225373650489544,0.1,0.0,0.0,411.0,650.0,0.0,1,1939.0,1
1423,1423,-0.6024491632394815,-0.6,0.0,1.0,385.0,977.0,0.0,1,1638.0,0
1424,1424,-0.08879183788493139,-0.1,1.0,0.0,334.0,784.0,0.0,0,1882.0,1
1425,1425,0.2827208844623311,0.3,1.0,1.0,370.0,810.0,0.0,0,1820.0,0
1426,1426,-0.8123003076359122,-0.8,1.0,0.0,315.0,810.0,0.0,0,1875.0,1
1427,1427,-0.22234238498604364,-0.2,1.0,0.0,444.0,901.0,0.0,0,1655.0,1
1428,1428,0.6387156344651436,0.6,0.0,0.0,468.0,864.0,0.0,1,1668.0,1
1429,1429,-0.777967809418848,-0.8,1.0,0.0,253.0,676.0,0.0,0,2071.0,1
1430,1430,-0.07512597000598431,-0.1,1.0,0.0,266.0,860.0,0.0,0,1874.0,1
1431,1431,-0.3304247706539547,-0.3,0.0,1.0,458.0,758.0,0.0,1,1784.0,0
1432,1432,-0.3054210231582378,-0.3,1.0,0.0,337.0,994.0,0.0,0,1669.0,1
1433,1433,0.6344317809814236,0.6,0.0,0.0,474.0,740.0,0.0,1,1786.0,1
1434,1434,-0.5618113658389386,-0.6,0.0,1.0,448.0,941.0,0.0,1,1611.0,0
1435,1435,0.317298951800035,0.3,1.0,1.0,326.0,893.0,0.0,0,1781.0,0
1436,1436,-0.19028933508784207,-0.2,0.0,1.0,402.0,770.0,0.0,1,1828.0,0
1437,1437,-0.11118542538516452,-0.1,0.0,1.0,392.0,870.0,0.0,1,-1172.0,0
1438,1438,0.785264305405701,0.8,1.0,1.0,273.0,704.0,0.0,0,2023.0,0
1439,1439,-0.34566364746638145,-0.3,1.0,0.0,277.0,514.0,1.0,1,-761.0,0
1440,1440,-0.43066146978481845,-0.4,1.0,0.0,265.0,984.0,0.0,0,1751.0,1
1441,1441,-0.048522404331391544,-0.0,1.0,0.0,254.0,752.0,0.0,0,1994.0,1
1442,1442,0.18157871854666408,0.2,0.0,0.0,470.0,826.0,0.0,1,1704.0,1
1443,1443,0.41362645118409314,0.4,1.0,1.0,465.0,990.0,0.0,0,1545.0,0
1444,1444,0.2995533798127711,0.3,0.0,0.0,457.0,886.0,0.0,1,1657.0,1
1445,1445,-0.2110435181243363,-0.2,0.0,1.0,481.0,652.0,0.0,1,1867.0,0
1446,1446,0.22166231610714304,0.2,1.0,1.0,306.0,591.0,0.0,0,2103.0,0
1447,1447,0.6349809845148798,0.6,1.0,1.0,373.0,722.0,0.0,0,1905.0,0
1448,1448,0.15123368955501915,0.2,0.0,0.0,333.0,710.0,0.0,1,1957.0,1
1449,1449,0.879181878960244,0.9,1.0,1.0,317.0,844.0,0.0,0,1839.0,0
1450,1450,0.11578602779818403,0.1,1.0,1.0,383.0,644.0,0.0,0,1973.0,0
1451,1451,-0.48941743479446825,-0.5,0.0,1.0,490.0,565.0,0.0,1,1945.0,0
1452,1452,0.8988224051545016,0.9,0.0,0.0,359.0,934.0,1.0,0,-1233.0,0
1453,1453,0.17133709592207025,0.2,0.0,0.0,295.0,520.0,0.0,1,2185.0,1
1454,1454,0.42132013536589896,0.4,0.0,0.0,389.0,648.0,0.0,1,1963.0,1
1455,1455,0.6291954002336885,0.6,1.0,1.0,418.0,500.0,0.0,0,2082.0,0
1456,1456,0.09083026039886044,0.1,1.0,1.0,298.0,561.0,0.0,0,2141.0,0
1457,1457,0.473550980675601,0.5,1.0,1.0,454.0,912.0,0.0,0,1634.0,0
1458,1458,0.6127702289332068,0.6,1.0,1.0,404.0,639.0,0.0,0,1957.0,0
1459,1459,0.6022846120085007,0.6,0.0,0.0,421.0,590.0,0.0,1,1989.0,1
1460,1460,0.6700308647833074,0.7,1.0,1.0,389.0,895.0,0.0,0,1716.0,0
1461,1461,0.8164379722301304,0.8,0.0,0.0,313.0,530.0,0.0,1,2157.0,1
1462,1462,-0.20539618086352107,-0.2,1.0,0.0,432.0,501.0,0.0,0,2067.0,1
1463,1463,0.46171287393507343,0.5,1.0,1.0,421.0,805.0,0.0,0,1774.0,0
1464,1464,-0.7197047260246053,-0.7,0.0,1.0,268.0,644.0,0.0,1,2088.0,0
1465,1465,0.10452763609666726,0.1,0.0,0.0,386.0,899.0,0.0,1,1715.0,1
1466,1466,0.2965906317016088,0.3,1.0,1.0,323.0,645.0,0.0,0,2032.0,0
1467,1467,-0.16624279922682028,-0.2,1.0,0.0,383.0,688.0,0.0,0,1929.0,1
1468,1468,0.42650228772597376,0.4,1.0,1.0,408.0,649.0,0.0,0,1943.0,0
1469,1469,-0.5045206928341557,-0.5,1.0,0.0,337.0,534.0,0.0,0,2129.0,1
