,trial,coherence,coherence_bin,green_side,correct_side,target_onset,checker_onset,decision,green_decision,decision_time,correct_decision
0,0,-0.229953737626435,-0.2,1.0,0.0,376.0,573.0,0.0,0,2051.0,1
1,1,-0.3174534946624815,-0.3,1.0,0.0,348.0,723.0,1.0,1,1929.0,0
2,2,0.8461309348349738,0.8,1.0,1.0,496.0,888.0,1.0,1,206.0,1
3,3,0.02949387650166202,0.0,0.0,0.0,440.0,543.0,0.0,1,2017.0,1
4,4,0.2833785632706828,0.3,0.0,0.0,471.0,721.0,0.0,1,1808.0,1
5,5,0.7398078549100658,0.7,0.0,0.0,476.0,948.0,0.0,1,1576.0,1
6,6,0.734866500011088,0.7,0.0,0.0,429.0,510.0,0.0,1,2061.0,1
7,7,-0.8944919150057394,-0.9,0.0,1.0,307.0,988.0,1.0,0,435.0,1
8,8,-0.8728916670156722,-0.9,0.0,1.0,467.0,920.0,1.0,0,223.0,1
9,9,0.8532720695612727,0.9,0.0,0.0,384.0,712.0,0.0,1,1904.0,1
10,10,0.0870200076989266,0.1,1.0,1.0,255.0,672.0,1.0,1,2073.0,1
11,11,-0.08629083840499219,-0.1,0.0,1.0,337.0,524.0,0.0,1,2139.0,0
12,12,0.107514730290316,0.1,1.0,1.0,253.0,662.0,1.0,1,675.0,1
13,13,0.5240321780655658,0.5,1.0,1.0,340.0,801.0,1.0,1,439.0,1
14,14,-0.30574227401197485,-0.3,0.0,1.0,309.0,788.0,1.0,0,663.0,1
15,15,0.08712609872796062,0.1,0.0,0.0,331.0,565.0,0.0,1,2104.0,1
16,16,-0.6275510455751294,-0.6,1.0,0.0,496.0,882.0,0.0,0,1622.0,1
17,17,-0.3967000605202048,-0.4,0.0,1.0,395.0,930.0,1.0,0,425.0,1
18,18,-0.31304954426377374,-0.3,1.0,0.0,398.0,612.0,0.0,0,1990.0,1
19,19,0.6906321883039129,0.7,0.0,0.0,289.0,995.0,0.0,1,1716.0,1
20,20,0.3873635275851425,0.4,0.0,0.0,263.0,812.0,0.0,1,1925.0,1
21,21,-0.6848659282985761,-0.7,1.0,0.0,492.0,743.0,0.0,0,1765.0,1
22,22,0.5891043345078534,0.6,1.0,1.0,480.0,900.0,1.0,1,380.0,1
23,23,-0.3553180827287117,-0.4,1.0,0.0,361.0,682.0,0.0,0,1957.0,1
24,24,0.15229859371436294,0.2,0.0,0.0,431.0,666.0,0.0,1,1903.0,1
25,25,0.7651881567107389,0.8,1.0,1.0,472.0,590.0,1.0,1,258.0,1
26,26,0.537072310667224,0.5,0.0,0.0,386.0,551.0,0.0,1,2063.0,1
27,27,-0.7760894618958978,-0.8,0.0,1.0,496.0,948.0,1.0,0,476.0,1
28,28,-0.4202585766297204,-0.4,0.0,1.0,488.0,708.0,1.0,0,704.0,1
29,29,0.19558789886522343,0.2,0.0,0.0,429.0,666.0,0.0,1,1905.0,1
30,30,-0.24906573252195452,-0.2,0.0,1.0,452.0,981.0,0.0,1,1567.0,0
31,31,-0.5924573447962725,-0.6,0.0,1.0,497.0,823.0,1.0,0,500.0,1
32,32,0.33816107848648735,0.3,1.0,1.0,430.0,863.0,1.0,1,1177.0,1
33,33,0.12774459083314726,0.1,1.0,1.0,479.0,648.0,1.0,1,793.0,1
34,34,0.7757174253174762,0.8,1.0,1.0,280.0,863.0,1.0,1,187.0,1
35,35,-0.41685113989510536,-0.4,0.0,1.0,287.0,552.0,1.0,0,321.0,1
36,36,-0.82514783427094,-0.8,0.0,1.0,269.0,830.0,1.0,0,131.0,1
37,37,-0.10571579276070364,-0.1,1.0,0.0,337.0,915.0,0.0,0,1748.0,1
38,38,-0.4136507924056184,-0.4,1.0,0.0,462.0,848.0,0.0,0,1690.0,1
39,39,-0.7737038296759096,-0.8,0.0,1.0,269.0,693.0,1.0,0,548.0,1
40,40,0.10772405378547945,0.1,0.0,0.0,416.0,691.0,1.0,0,1893.0,0
41,41,0.01171546198089457,0.0,1.0,1.0,436.0,558.0,1.0,1,2006.0,1
42,42,-0.4354505673840576,-0.4,0.0,1.0,272.0,724.0,1.0,0,1224.0,1
43,43,-0.22171730219596275,-0.2,0.0,1.0,475.0,815.0,0.0,1,1710.0,0
44,44,-0.5749294333900483,-0.6,1.0,0.0,278.0,712.0,0.0,0,2010.0,1
45,45,0.3091565094495482,0.3,0.0,0.0,412.0,936.0,0.0,1,1652.0,1
46,46,0.8421933765737607,0.8,1.0,1.0,447.0,993.0,1.0,1,310.0,1
47,47,-0.6658603156114453,-0.7,0.0,1.0,386.0,506.0,1.0,0,308.0,1
48,48,-0.5882808319118373,-0.6,1.0,0.0,321.0,689.0,0.0,0,1990.0,1
49,49,-0.1119882511891731,-0.1,0.0,1.0,325.0,750.0,0.0,1,1925.0,0
50,50,-0.18663838972940228,-0.2,0.0,1.0,362.0,750.0,1.0,0,1888.0,1
51,51,-0.3618913386849414,-0.4,0.0,1.0,456.0,969.0,1.0,0,1485.0,1
52,52,0.6554359314474206,0.7,0.0,0.0,479.0,516.0,0.0,1,2005.0,1
53,53,0.5501606746529936,0.6,0.0,0.0,385.0,816.0,0.0,1,1799.0,1
54,54,0.6309951766478029,0.6,0.0,0.0,306.0,660.0,0.0,1,2034.0,1
55,55,0.48740316045867227,0.5,0.0,0.0,425.0,575.0,0.0,1,2000.0,1
56,56,-0.005233080487439423,-0.0,1.0,0.0,453.0,628.0,1.0,1,169.0,0
57,57,-0.5464912390264403,-0.5,0.0,1.0,465.0,953.0,1.0,0,1192.0,1
58,58,0.4212202865390867,0.4,0.0,0.0,290.0,795.0,0.0,1,1915.0,1
59,59,0.06069424226135389,0.1,1.0,1.0,490.0,585.0,1.0,1,1315.0,1
60,60,0.7372633953926372,0.7,0.0,0.0,413.0,704.0,0.0,1,1883.0,1
61,61,0.4269517754918123,0.4,0.0,0.0,354.0,800.0,0.0,1,1846.0,1
62,62,-0.13606554424458495,-0.1,0.0,1.0,496.0,647.0,1.0,0,1857.0,1
63,63,-0.16281393420374268,-0.2,1.0,0.0,256.0,979.0,0.0,0,1765.0,1
64,64,0.5852080961727298,0.6,1.0,1.0,472.0,751.0,1.0,1,297.0,1
65,65,-0.7474564788180179,-0.7,0.0,1.0,314.0,887.0,1.0,0,629.0,1
66,66,-0.46824078431823773,-0.5,0.0,1.0,396.0,573.0,1.0,0,571.0,1
67,67,-0.2626125696545105,-0.3,0.0,1.0,271.0,930.0,1.0,0,1499.0,1
68,68,-0.007488846331144439,-0.0,0.0,1.0,295.0,520.0,0.0,1,2185.0,0
69,69,-0.6370716065243037,-0.6,1.0,0.0,431.0,843.0,0.0,0,1726.0,1
70,70,0.07638246716431918,0.1,0.0,0.0,405.0,571.0,0.0,1,2024.0,1
71,71,0.1757345204841857,0.2,1.0,1.0,257.0,995.0,0.0,0,1748.0,0
72,72,-0.5218956304040243,-0.5,0.0,1.0,402.0,640.0,1.0,0,318.0,1
73,73,-0.8346297398143784,-0.8,1.0,0.0,476.0,824.0,0.0,0,1700.0,1
74,74,-0.10264339958395208,-0.1,0.0,1.0,284.0,951.0,0.0,1,1765.0,0
75,75,-0.5578297542489009,-0.6,1.0,0.0,457.0,738.0,0.0,0,1805.0,1
76,76,0.044772464249968835,0.0,0.0,0.0,373.0,525.0,0.0,1,2102.0,1
77,77,-0.5145379055449066,-0.5,0.0,1.0,390.0,799.0,1.0,0,951.0,1
78,78,-0.5419332809549291,-0.5,0.0,1.0,400.0,936.0,1.0,0,234.0,1
79,79,-0.10933065844703616,-0.1,1.0,0.0,348.0,862.0,0.0,0,1790.0,1
80,80,-0.16010836307570742,-0.2,0.0,1.0,279.0,560.0,0.0,1,2161.0,0
81,81,-0.3295288227445742,-0.3,0.0,1.0,344.0,719.0,1.0,0,1757.0,1
82,82,0.5067530924704325,0.5,1.0,1.0,418.0,899.0,1.0,1,443.0,1
83,83,0.8201223727234249,0.8,0.0,0.0,368.0,556.0,0.0,1,2076.0,1
84,84,0.7229534170948445,0.7,0.0,0.0,337.0,802.0,0.0,1,1861.0,1
85,85,0.6352520552907127,0.6,1.0,1.0,462.0,776.0,1.0,1,502.0,1
86,86,0.3968563870394596,0.4,1.0,1.0,292.0,999.0,1.0,1,309.0,1
87,87,-0.5765195680578774,-0.6,0.0,1.0,339.0,570.0,1.0,0,481.0,1
88,88,-0.03318784185058321,-0.0,1.0,0.0,380.0,671.0,1.0,1,1949.0,0
89,89,0.4104875022537392,0.4,0.0,0.0,337.0,530.0,0.0,1,2133.0,1
90,90,-0.07655168273581459,-0.1,1.0,0.0,432.0,944.0,0.0,0,1624.0,1
91,91,0.4639191661569345,0.5,1.0,1.0,289.0,876.0,1.0,1,425.0,1
92,92,0.8437466274028068,0.8,1.0,1.0,362.0,932.0,1.0,1,146.0,1
93,93,0.041944085594961766,0.0,0.0,0.0,267.0,809.0,0.0,1,1924.0,1
94,94,-0.08922257678556211,-0.1,0.0,1.0,367.0,607.0,0.0,1,2026.0,0
95,95,0.014378456631942704,0.0,1.0,1.0,279.0,919.0,1.0,1,1802.0,1
96,96,0.5897992459749132,0.6,1.0,1.0,339.0,591.0,1.0,1,470.0,1
97,97,-0.22254763885190854,-0.2,0.0,1.0,459.0,815.0,0.0,1,1726.0,0
98,98,0.8768149384400289,0.9,1.0,1.0,270.0,743.0,1.0,1,317.0,1
99,99,-0.5248000465677305,-0.5,1.0,0.0,405.0,690.0,0.0,0,1905.0,1
100,100,-0.4697248939292959,-0.5,1.0,0.0,498.0,908.0,1.0,1,-456.0,0
101,101,-0.7035578184671453,-0.7,1.0,0.0,356.0,680.0,0.0,0,1964.0,1
102,102,-0.0007786242071700089,-0.0,1.0,0.0,388.0,818.0,1.0,1,644.0,0
103,103,0.5671809228134547,0.6,0.0,0.0,337.0,605.0,0.0,1,2058.0,1
104,104,0.11208654206828939,0.1,1.0,1.0,403.0,539.0,0.0,0,2058.0,0
105,105,0.24363241290461868,0.2,0.0,0.0,290.0,601.0,0.0,1,2109.0,1
106,106,-0.4605411404307012,-0.5,0.0,1.0,366.0,600.0,1.0,0,1584.0,1
107,107,-0.012520291910032011,-0.0,0.0,1.0,306.0,781.0,1.0,0,1913.0,1
108,108,0.02804361546465428,0.0,1.0,1.0,335.0,610.0,1.0,1,2055.0,1
109,109,-0.0677019713036644,-0.1,1.0,0.0,391.0,688.0,0.0,0,1921.0,1
110,110,0.618992323165699,0.6,0.0,0.0,412.0,827.0,0.0,1,1761.0,1
111,111,-0.778028035743059,-0.8,0.0,1.0,411.0,575.0,1.0,0,484.0,1
112,112,0.4636681758380973,0.5,1.0,1.0,335.0,543.0,1.0,1,792.0,1
113,113,0.004128965024199016,0.0,0.0,0.0,302.0,964.0,1.0,0,1734.0,0
114,114,-0.43958314194422327,-0.4,0.0,1.0,261.0,721.0,1.0,0,388.0,1
115,115,-0.12155827296190946,-0.1,0.0,1.0,418.0,726.0,1.0,0,1856.0,1
116,116,0.44535526332840936,0.4,0.0,0.0,468.0,996.0,0.0,1,1536.0,1
117,117,-0.5933932061755083,-0.6,0.0,1.0,310.0,902.0,1.0,0,558.0,1
118,118,0.539834544961958,0.5,1.0,1.0,259.0,937.0,1.0,1,624.0,1
119,119,-0.6180426416863221,-0.6,0.0,1.0,379.0,635.0,1.0,0,876.0,1
120,120,-0.3109698201255303,-0.3,1.0,0.0,357.0,595.0,0.0,0,2048.0,1
121,121,-0.6587198275754055,-0.7,1.0,0.0,371.0,629.0,0.0,0,2000.0,1
122,122,0.3832314912716591,0.4,0.0,0.0,457.0,587.0,0.0,1,1956.0,1
123,123,0.4474340284605446,0.4,1.0,1.0,322.0,650.0,1.0,1,138.0,1
124,124,0.00047623678028552163,0.0,0.0,0.0,414.0,954.0,0.0,1,1632.0,1
125,125,0.4814161279830146,0.5,1.0,1.0,409.0,579.0,1.0,1,342.0,1
126,126,0.17948336293770717,0.2,1.0,1.0,448.0,897.0,1.0,1,855.0,1
127,127,0.5622425156558927,0.6,1.0,1.0,278.0,781.0,1.0,1,161.0,1
128,128,0.17995182015364752,0.2,0.0,0.0,416.0,605.0,1.0,0,1979.0,0
129,129,-0.8697228743562923,-0.9,1.0,0.0,317.0,725.0,0.0,0,1958.0,1
130,130,-0.7556467895727581,-0.8,0.0,1.0,336.0,518.0,1.0,0,196.0,1
131,131,-0.3283352848490386,-0.3,0.0,1.0,414.0,710.0,1.0,0,966.0,1
132,132,0.8462360250055597,0.8,0.0,0.0,270.0,595.0,0.0,1,2135.0,1
133,133,-0.37215615973533833,-0.4,1.0,0.0,355.0,754.0,0.0,0,1891.0,1
134,134,-0.8600231196693647,-0.9,0.0,1.0,314.0,809.0,1.0,0,417.0,1
135,135,-0.512329230889236,-0.5,0.0,1.0,452.0,593.0,1.0,0,935.0,1
136,136,0.1910866750226109,0.2,1.0,1.0,440.0,861.0,1.0,1,259.0,1
137,137,0.7220061943872832,0.7,0.0,0.0,472.0,864.0,0.0,1,1664.0,1
138,138,-0.304997313557526,-0.3,1.0,0.0,280.0,883.0,0.0,0,1837.0,1
139,139,0.15127018970782002,0.2,0.0,0.0,350.0,972.0,0.0,1,1678.0,1
140,140,0.7039035183756822,0.7,0.0,0.0,499.0,941.0,0.0,1,1560.0,1
141,141,-0.1478630596408983,-0.1,0.0,1.0,300.0,954.0,1.0,0,1746.0,1
142,142,-0.3448048984566472,-0.3,0.0,1.0,359.0,766.0,1.0,0,1105.0,1
143,143,-0.688448104912846,-0.7,0.0,1.0,493.0,535.0,1.0,0,522.0,1
144,144,-0.3424659657106892,-0.3,0.0,1.0,339.0,645.0,1.0,0,2016.0,1
145,145,-0.34006697857824064,-0.3,1.0,0.0,356.0,850.0,0.0,0,1794.0,1
146,146,0.393893976737839,0.4,0.0,0.0,379.0,668.0,0.0,1,1953.0,1
147,147,0.298634955017551,0.3,0.0,0.0,371.0,734.0,0.0,1,1895.0,1
148,148,-0.6296199504322728,-0.6,1.0,0.0,439.0,659.0,0.0,0,1902.0,1
149,149,0.18184955100428424,0.2,0.0,0.0,414.0,692.0,1.0,0,1894.0,0
150,150,-0.05698532518558952,-0.1,0.0,1.0,289.0,595.0,0.0,1,2116.0,0
151,151,-0.622846743498741,-0.6,1.0,0.0,343.0,993.0,1.0,1,-26.0,0
152,152,-0.12372405873241277,-0.1,1.0,0.0,371.0,934.0,1.0,1,1695.0,0
153,153,-0.37201558271322555,-0.4,0.0,1.0,265.0,634.0,1.0,0,1131.0,1
154,154,-0.2601242900215067,-0.3,0.0,1.0,371.0,701.0,1.0,0,1928.0,1
155,155,0.5474681214942595,0.5,1.0,1.0,407.0,596.0,1.0,1,557.0,1
156,156,0.5770575345851136,0.6,0.0,0.0,499.0,791.0,0.0,1,1710.0,1
157,157,-0.4666882835076002,-0.5,0.0,1.0,265.0,900.0,1.0,0,1125.0,1
158,158,-0.3343112758205037,-0.3,1.0,0.0,371.0,733.0,0.0,0,1896.0,1
159,159,0.4087432098699738,0.4,0.0,0.0,496.0,540.0,0.0,1,1964.0,1
160,160,-0.6550995929525636,-0.7,0.0,1.0,457.0,988.0,1.0,0,435.0,1
161,161,0.14439378824165272,0.1,0.0,0.0,464.0,785.0,0.0,1,1751.0,1
162,162,-0.6054245755861986,-0.6,0.0,1.0,315.0,538.0,1.0,0,447.0,1
163,163,0.7956049538789355,0.8,0.0,0.0,291.0,773.0,0.0,1,1936.0,1
164,164,-0.6693713628486733,-0.7,0.0,1.0,276.0,825.0,1.0,0,549.0,1
165,165,0.06113330107995074,0.1,1.0,1.0,447.0,605.0,0.0,0,1948.0,0
166,166,0.7508553291762544,0.8,1.0,1.0,257.0,712.0,1.0,1,11.0,1
167,167,0.6271657610443316,0.6,0.0,0.0,298.0,738.0,0.0,1,1964.0,1
168,168,0.7219878837417185,0.7,0.0,0.0,290.0,599.0,0.0,1,2111.0,1
169,169,0.1370461101631223,0.1,0.0,0.0,479.0,756.0,0.0,1,1765.0,1
170,170,-0.23829161136652033,-0.2,1.0,0.0,278.0,827.0,0.0,0,1895.0,1
171,171,0.18674536314126622,0.2,0.0,0.0,469.0,998.0,0.0,1,1533.0,1
172,172,0.35428943275052094,0.4,0.0,0.0,263.0,623.0,0.0,1,2114.0,1
173,173,-0.09583308668057189,-0.1,1.0,0.0,385.0,730.0,0.0,0,1885.0,1
174,174,0.6153855173072996,0.6,0.0,0.0,299.0,579.0,0.0,1,2122.0,1
175,175,-0.4127666156859457,-0.4,0.0,1.0,273.0,698.0,1.0,0,359.0,1
176,176,0.6278565342141403,0.6,0.0,0.0,325.0,654.0,0.0,1,2021.0,1
177,177,0.34047960094409746,0.3,1.0,1.0,441.0,715.0,1.0,1,1844.0,1
178,178,0.8273020900062779,0.8,0.0,0.0,386.0,969.0,0.0,1,1645.0,1
179,179,0.7184210907910019,0.7,0.0,0.0,475.0,793.0,0.0,1,1732.0,1
180,180,-0.6342413613506759,-0.6,1.0,0.0,341.0,849.0,0.0,0,1810.0,1
181,181,0.10987205804872702,0.1,0.0,0.0,354.0,543.0,0.0,1,2103.0,1
182,182,-0.8452296156426375,-0.8,1.0,0.0,475.0,693.0,0.0,0,1832.0,1
183,183,-0.828411673968863,-0.8,0.0,1.0,380.0,610.0,1.0,0,220.0,1
184,184,-0.47029893876276724,-0.5,1.0,0.0,493.0,704.0,0.0,0,1803.0,1
185,185,0.8394031785819608,0.8,1.0,1.0,345.0,604.0,1.0,1,271.0,1
186,186,-0.3751176806308373,-0.4,0.0,1.0,295.0,539.0,1.0,0,836.0,1
187,187,0.33511812908577,0.3,0.0,0.0,405.0,941.0,0.0,1,1654.0,1
188,188,-0.7883212713519263,-0.8,0.0,1.0,353.0,782.0,1.0,0,65.0,1
189,189,0.814374571589184,0.8,0.0,0.0,447.0,828.0,0.0,1,1725.0,1
190,190,-0.48146195561635474,-0.5,0.0,1.0,449.0,897.0,1.0,0,1464.0,1
191,191,0.2967578861479342,0.3,0.0,0.0,423.0,860.0,0.0,1,1717.0,1
192,192,-0.13279630054676916,-0.1,1.0,0.0,376.0,730.0,0.0,0,1894.0,1
193,193,0.28608624726199217,0.3,1.0,1.0,350.0,501.0,1.0,1,1619.0,1
194,194,0.7395107253366601,0.7,1.0,1.0,395.0,934.0,1.0,1,301.0,1
195,195,0.53561299530197,0.5,1.0,1.0,361.0,507.0,1.0,1,232.0,1
196,196,-0.2840048729042637,-0.3,0.0,1.0,262.0,990.0,1.0,0,648.0,1
197,197,0.3466575912523776,0.3,0.0,0.0,311.0,591.0,0.0,1,2098.0,1
198,198,-0.1645322557624408,-0.2,0.0,1.0,453.0,669.0,1.0,0,1878.0,1
199,199,-0.8177345411280624,-0.8,1.0,0.0,353.0,775.0,0.0,0,1872.0,1
200,200,-0.2986644669201547,-0.3,0.0,1.0,474.0,944.0,1.0,0,952.0,1
201,201,-0.047047786745898934,-0.0,1.0,0.0,369.0,974.0,0.0,0,1657.0,1
202,202,0.7628060933208715,0.8,0.0,0.0,308.0,888.0,0.0,1,1804.0,1
203,203,-0.35747090354163347,-0.4,1.0,0.0,361.0,900.0,0.0,0,1739.0,1
204,204,-0.14661856558329767,-0.1,1.0,0.0,321.0,867.0,0.0,0,1812.0,1
205,205,-0.4474221516326959,-0.4,1.0,0.0,439.0,787.0,0.0,0,1774.0,1
206,206,0.24154589088939538,0.2,0.0,0.0,334.0,939.0,0.0,1,1727.0,1
207,207,0.887236739095152,0.9,0.0,0.0,455.0,698.0,0.0,1,1847.0,1
208,208,0.3985537128510436,0.4,0.0,0.0,255.0,519.0,0.0,1,2226.0,1
209,209,-0.7962734763329606,-0.8,0.0,1.0,475.0,506.0,1.0,0,199.0,1
210,210,0.28973387969719766,0.3,1.0,1.0,437.0,659.0,1.0,1,524.0,1
211,211,0.5519594523540085,0.6,0.0,0.0,389.0,857.0,0.0,1,1754.0,1
212,212,0.019271030985825832,0.0,1.0,1.0,305.0,803.0,1.0,1,1892.0,1
213,213,-0.14001848191065536,-0.1,0.0,1.0,451.0,720.0,1.0,0,1829.0,1
214,214,0.20413690465814371,0.2,0.0,0.0,280.0,560.0,0.0,1,2160.0,1
215,215,-0.6379693763382036,-0.6,1.0,0.0,256.0,560.0,0.0,0,2184.0,1
216,216,-0.4058009409207823,-0.4,1.0,0.0,375.0,974.0,0.0,0,1651.0,1
217,217,-0.1506303854365545,-0.2,1.0,0.0,425.0,566.0,0.0,0,2009.0,1
218,218,0.47710251023210326,0.5,1.0,1.0,276.0,770.0,1.0,1,604.0,1
219,219,-0.6602336757016001,-0.7,1.0,0.0,265.0,552.0,0.0,0,2183.0,1
220,220,0.7589714140941434,0.8,1.0,1.0,375.0,554.0,1.0,1,241.0,1
221,221,-0.7266790064331207,-0.7,0.0,1.0,351.0,782.0,1.0,0,217.0,1
222,222,-0.22666855277524134,-0.2,0.0,1.0,298.0,556.0,0.0,1,2146.0,0
223,223,0.22918293062007755,0.2,0.0,0.0,385.0,887.0,0.0,1,1728.0,1
224,224,-0.7693945652461942,-0.8,1.0,0.0,397.0,536.0,0.0,0,2067.0,1
225,225,-0.7818298991591701,-0.8,1.0,0.0,415.0,718.0,0.0,0,1867.0,1
226,226,0.13281293407930084,0.1,0.0,0.0,317.0,778.0,0.0,1,1905.0,1
227,227,-0.5208381157719335,-0.5,1.0,0.0,388.0,974.0,0.0,0,1638.0,1
228,228,-0.7377935616533371,-0.7,1.0,0.0,441.0,640.0,0.0,0,1919.0,1
229,229,-0.7121016369071801,-0.7,1.0,0.0,309.0,500.0,0.0,0,2191.0,1
230,230,0.8453329770698242,0.8,1.0,1.0,416.0,696.0,1.0,1,68.0,1
231,231,0.6959804234174228,0.7,1.0,1.0,303.0,568.0,1.0,1,179.0,1
232,232,0.19339093568547228,0.2,1.0,1.0,306.0,521.0,1.0,1,1103.0,1
233,233,-0.01416113452028811,-0.0,1.0,0.0,383.0,720.0,0.0,0,1897.0,1
234,234,0.0584556200362798,0.1,0.0,0.0,283.0,966.0,1.0,0,1751.0,0
235,235,-0.7438803475976297,-0.7,1.0,0.0,326.0,657.0,0.0,0,2017.0,1
236,236,-0.7723768326757972,-0.8,0.0,1.0,368.0,886.0,1.0,0,326.0,1
237,237,-0.3596682361687895,-0.4,1.0,0.0,392.0,549.0,0.0,0,2059.0,1
238,238,0.34719549671178396,0.3,0.0,0.0,292.0,511.0,0.0,1,2197.0,1
239,239,-0.58442434329329,-0.6,1.0,0.0,344.0,579.0,0.0,0,2077.0,1
240,240,0.44628539699038694,0.4,0.0,0.0,404.0,672.0,0.0,1,1924.0,1
241,241,-0.21196582090156701,-0.2,1.0,0.0,287.0,709.0,1.0,1,94.0,0
242,242,0.8710593130289387,0.9,1.0,1.0,466.0,747.0,1.0,1,307.0,1
243,243,0.685167500088555,0.7,1.0,1.0,480.0,593.0,1.0,1,497.0,1
244,244,0.3590506060496542,0.4,1.0,1.0,465.0,984.0,1.0,1,251.0,1
245,245,-0.42230897566975023,-0.4,0.0,1.0,260.0,908.0,0.0,1,1832.0,0
246,246,0.6546118115780594,0.7,1.0,1.0,489.0,998.0,1.0,1,13.0,1
247,247,-0.10020160677878098,-0.1,1.0,0.0,307.0,798.0,0.0,0,1895.0,1
248,248,-0.16291652866113282,-0.2,0.0,1.0,402.0,507.0,1.0,0,1031.0,1
249,249,-0.450250434405014,-0.5,0.0,1.0,409.0,978.0,1.0,0,563.0,1
250,250,-0.7495619487454669,-0.7,0.0,1.0,328.0,959.0,1.0,0,453.0,1
251,251,-0.879501924971006,-0.9,1.0,0.0,256.0,772.0,0.0,0,1972.0,1
252,252,0.19019131885195983,0.2,0.0,0.0,443.0,522.0,0.0,1,2035.0,1
253,253,-0.2620813698120187,-0.3,0.0,1.0,384.0,538.0,1.0,0,2078.0,1
254,254,-0.10834062927962351,-0.1,1.0,0.0,335.0,526.0,0.0,0,2139.0,1
255,255,-0.6363801369667026,-0.6,0.0,1.0,254.0,566.0,1.0,0,550.0,1
256,256,0.2513047379159684,0.3,0.0,0.0,256.0,580.0,1.0,0,2164.0,0
257,257,-0.809826853683531,-0.8,1.0,0.0,430.0,898.0,0.0,0,1672.0,1
258,258,-0.8998836570306058,-0.9,0.0,1.0,266.0,516.0,1.0,0,498.0,1
259,259,-0.6260602085051195,-0.6,1.0,0.0,341.0,640.0,0.0,0,2019.0,1
260,260,-0.6359642249861384,-0.6,1.0,0.0,263.0,779.0,0.0,0,1958.0,1
261,261,-0.7735562268876555,-0.8,1.0,0.0,491.0,796.0,0.0,0,1713.0,1
262,262,-0.2879368851796692,-0.3,1.0,0.0,269.0,870.0,0.0,0,1861.0,1
263,263,-0.16211138287837146,-0.2,0.0,1.0,408.0,507.0,1.0,0,825.0,1
264,264,0.8761160500001762,0.9,0.0,0.0,358.0,880.0,1.0,0,1762.0,0
265,265,-0.8441977378176055,-0.8,0.0,1.0,420.0,893.0,1.0,0,307.0,1
266,266,0.5754393209788874,0.6,1.0,1.0,438.0,529.0,1.0,1,233.0,1
267,267,0.7396861950432981,0.7,1.0,1.0,282.0,813.0,1.0,1,35.0,1
268,268,0.3788994393003021,0.4,0.0,0.0,407.0,612.0,0.0,1,1981.0,1
269,269,0.5537184259261693,0.6,0.0,0.0,290.0,565.0,0.0,1,2145.0,1
270,270,0.6280710824535013,0.6,0.0,0.0,281.0,740.0,0.0,1,1979.0,1
271,271,-0.428026070210666,-0.4,1.0,0.0,327.0,848.0,0.0,0,1825.0,1
272,272,0.6681209988397762,0.7,0.0,0.0,305.0,629.0,0.0,1,2066.0,1
273,273,0.5314558326062727,0.5,0.0,0.0,407.0,990.0,0.0,1,1603.0,1
274,274,0.8826534612142148,0.9,1.0,1.0,481.0,926.0,1.0,1,223.0,1
275,275,-0.1631524607147441,-0.2,1.0,0.0,294.0,662.0,0.0,0,2044.0,1
276,276,0.48479984340322024,0.5,1.0,1.0,407.0,578.0,1.0,1,965.0,1
277,277,0.3268727320438084,0.3,0.0,0.0,422.0,690.0,0.0,1,1888.0,1
278,278,0.06004404232806848,0.1,1.0,1.0,398.0,949.0,1.0,1,223.0,1
279,279,0.6909710977605176,0.7,0.0,0.0,491.0,661.0,0.0,1,1848.0,1
280,280,-0.7040612969206342,-0.7,0.0,1.0,325.0,511.0,1.0,0,544.0,1
281,281,-0.5788795223314975,-0.6,0.0,1.0,328.0,622.0,1.0,0,790.0,1
282,282,0.6803413577207106,0.7,1.0,1.0,453.0,650.0,1.0,1,537.0,1
283,283,0.8451198932565284,0.8,1.0,1.0,336.0,612.0,1.0,1,182.0,1
284,284,0.7388224713675443,0.7,0.0,0.0,482.0,516.0,0.0,1,2002.0,1
285,285,-0.15681971664412797,-0.2,1.0,0.0,471.0,822.0,1.0,1,1707.0,0
286,286,0.7728768645484511,0.8,1.0,1.0,271.0,718.0,1.0,1,221.0,1
287,287,0.4569783717447323,0.5,0.0,0.0,295.0,731.0,0.0,1,1974.0,1
288,288,-0.6120294581728711,-0.6,0.0,1.0,462.0,706.0,1.0,0,882.0,1
289,289,0.7337079452210901,0.7,0.0,0.0,486.0,669.0,0.0,1,1845.0,1
290,290,-0.3841788403598142,-0.4,0.0,1.0,261.0,525.0,1.0,0,1384.0,1
291,291,-0.5252241004389924,-0.5,0.0,1.0,395.0,562.0,1.0,0,583.0,1
292,292,-0.42346542176841123,-0.4,1.0,0.0,305.0,671.0,0.0,0,2024.0,1
293,293,0.2416597277152882,0.2,1.0,1.0,390.0,567.0,1.0,1,1023.0,1
294,294,0.8793203217437259,0.9,1.0,1.0,420.0,802.0,1.0,1,358.0,1
295,295,-0.1624571466510898,-0.2,1.0,0.0,397.0,816.0,0.0,0,1787.0,1
296,296,0.621342175281031,0.6,1.0,1.0,318.0,628.0,1.0,1,554.0,1
297,297,0.2554339399212492,0.3,0.0,0.0,284.0,684.0,0.0,1,2032.0,1
298,298,-0.8563080867392485,-0.9,0.0,1.0,478.0,652.0,1.0,0,290.0,1
299,299,0.7980342430829165,0.8,0.0,0.0,495.0,752.0,0.0,1,1753.0,1
300,300,0.1337808029199531,0.1,0.0,0.0,353.0,595.0,0.0,1,2052.0,1
301,301,0.024607614218434493,0.0,1.0,1.0,487.0,827.0,0.0,0,1686.0,0
302,302,-0.6987948639779644,-0.7,0.0,1.0,251.0,953.0,1.0,0,296.0,1
303,303,0.13591697249769752,0.1,1.0,1.0,266.0,809.0,1.0,1,1925.0,1
304,304,0.6148465442510188,0.6,0.0,0.0,419.0,789.0,0.0,1,1792.0,1
305,305,0.7857161613014835,0.8,1.0,1.0,453.0,848.0,1.0,1,289.0,1
306,306,0.5516187157445877,0.6,0.0,0.0,466.0,775.0,0.0,1,1759.0,1
307,307,-0.34548164896381117,-0.3,1.0,0.0,370.0,702.0,0.0,0,1928.0,1
308,308,0.3192760046481661,0.3,1.0,1.0,422.0,972.0,1.0,1,-24.0,1
309,309,-0.11992602469543501,-0.1,0.0,1.0,283.0,626.0,1.0,0,571.0,1
310,310,0.1172753579236675,0.1,1.0,1.0,382.0,616.0,1.0,1,52.0,1
311,311,0.24300648262082947,0.2,1.0,1.0,298.0,643.0,1.0,1,929.0,1
312,312,0.36173601632528796,0.4,0.0,0.0,279.0,842.0,0.0,1,1879.0,1
313,313,-0.510634194027766,-0.5,0.0,1.0,314.0,920.0,1.0,0,1226.0,1
314,314,0.6154026772634759,0.6,1.0,1.0,276.0,883.0,1.0,1,491.0,1
315,315,-0.5327597157453122,-0.5,0.0,1.0,331.0,783.0,1.0,0,766.0,1
316,316,-0.16035234701297607,-0.2,0.0,1.0,444.0,944.0,1.0,0,842.0,1
317,317,0.4704257283661487,0.5,0.0,0.0,358.0,940.0,0.0,1,1702.0,1
318,318,0.32250904879382747,0.3,0.0,0.0,312.0,644.0,0.0,1,2044.0,1
319,319,0.43367514234669724,0.4,1.0,1.0,262.0,945.0,1.0,1,373.0,1
320,320,0.18534026681902815,0.2,1.0,1.0,298.0,922.0,1.0,1,1460.0,1
321,321,-0.06997931111023303,-0.1,1.0,0.0,462.0,557.0,0.0,0,1981.0,1
322,322,0.601093436545607,0.6,0.0,0.0,312.0,972.0,0.0,1,1716.0,1
323,323,-0.7491172822089428,-0.7,0.0,1.0,315.0,766.0,1.0,0,289.0,1
324,324,-0.5489058936135158,-0.5,0.0,1.0,270.0,668.0,1.0,0,552.0,1
325,325,-0.17660333374245818,-0.2,1.0,0.0,437.0,526.0,0.0,0,2037.0,1
326,326,-0.8334921005600279,-0.8,0.0,1.0,482.0,865.0,1.0,0,393.0,1
327,327,-0.34148164686873805,-0.3,1.0,0.0,370.0,951.0,0.0,0,1679.0,1
328,328,0.01606566778261398,0.0,0.0,0.0,254.0,659.0,1.0,0,2087.0,0
329,329,0.7846030007047723,0.8,1.0,1.0,322.0,857.0,1.0,1,311.0,1
330,330,0.6956799067484084,0.7,0.0,0.0,350.0,942.0,0.0,1,1708.0,1
331,331,-0.6254266199659568,-0.6,0.0,1.0,460.0,713.0,1.0,0,327.0,1
332,332,-0.3292202108611023,-0.3,0.0,1.0,329.0,964.0,1.0,0,527.0,1
333,333,-0.7356975185727209,-0.7,1.0,0.0,469.0,879.0,0.0,0,1652.0,1
334,334,0.817232675120663,0.8,1.0,1.0,355.0,690.0,1.0,1,245.0,1
335,335,-0.5302379226506104,-0.5,1.0,0.0,446.0,797.0,0.0,0,1757.0,1
336,336,-0.44409259583704697,-0.4,1.0,0.0,302.0,901.0,0.0,0,1797.0,1
337,337,-0.29656281793828065,-0.3,0.0,1.0,410.0,704.0,1.0,0,1336.0,1
338,338,-0.7324418335620082,-0.7,0.0,1.0,308.0,520.0,1.0,0,142.0,1
339,339,-0.6430695448358348,-0.6,1.0,0.0,276.0,896.0,0.0,0,1828.0,1
340,340,-0.8130682748491207,-0.8,1.0,0.0,281.0,639.0,0.0,0,2080.0,1
341,341,0.1177460363523638,0.1,1.0,1.0,443.0,626.0,1.0,1,561.0,1
342,342,0.1448913503828161,0.1,0.0,0.0,288.0,593.0,0.0,1,2119.0,1
343,343,0.6262264283336695,0.6,1.0,1.0,368.0,991.0,1.0,1,391.0,1
344,344,0.6398208451709769,0.6,1.0,1.0,269.0,839.0,1.0,1,762.0,1
345,345,-0.22024431855789406,-0.2,0.0,1.0,334.0,831.0,1.0,0,485.0,1
346,346,0.26927144153737037,0.3,1.0,1.0,463.0,886.0,1.0,1,1.0,1
347,347,0.412262425673667,0.4,1.0,1.0,324.0,721.0,1.0,1,1195.0,1
348,348,-0.750139361802695,-0.8,0.0,1.0,488.0,813.0,1.0,0,279.0,1
349,349,-0.4884431158528244,-0.5,0.0,1.0,395.0,534.0,1.0,0,781.0,1
350,350,0.23837708449730888,0.2,1.0,1.0,459.0,909.0,1.0,1,482.0,1
351,351,-0.800955879934648,-0.8,1.0,0.0,307.0,878.0,0.0,0,1815.0,1
352,352,-0.4244309898904106,-0.4,0.0,1.0,276.0,512.0,1.0,0,942.0,1
353,353,-0.3100238803360479,-0.3,0.0,1.0,491.0,642.0,1.0,0,777.0,1
354,354,0.21601087843394196,0.2,0.0,0.0,267.0,682.0,0.0,1,2051.0,1
355,355,-0.3395921080942155,-0.3,1.0,0.0,411.0,618.0,0.0,0,1971.0,1
356,356,-0.4127586489827022,-0.4,0.0,1.0,346.0,571.0,1.0,0,413.0,1
357,357,-0.536966431123667,-0.5,1.0,0.0,382.0,998.0,0.0,0,1620.0,1
358,358,-0.09920244692915992,-0.1,0.0,1.0,436.0,768.0,1.0,0,1796.0,1
359,359,-0.0747966041862177,-0.1,1.0,0.0,250.0,865.0,1.0,1,85.0,0
360,360,0.48738309109438405,0.5,1.0,1.0,456.0,789.0,1.0,1,335.0,1
361,361,-0.7177458959124738,-0.7,1.0,0.0,469.0,533.0,0.0,0,1998.0,1
362,362,-0.8460146759686809,-0.8,0.0,1.0,280.0,877.0,1.0,0,523.0,1
363,363,0.6170548746413097,0.6,1.0,1.0,270.0,912.0,1.0,1,378.0,1
364,364,-0.4521009360939779,-0.5,0.0,1.0,344.0,511.0,1.0,0,1315.0,1
365,365,0.1620537281283,0.2,1.0,1.0,336.0,920.0,1.0,1,824.0,1
366,366,0.7486433910164888,0.7,1.0,1.0,462.0,999.0,1.0,1,159.0,1
367,367,-0.4445948788415137,-0.4,0.0,1.0,470.0,928.0,1.0,0,1332.0,1
368,368,0.2051800929804698,0.2,0.0,0.0,365.0,640.0,1.0,0,1995.0,0
369,369,-0.36464992496081616,-0.4,1.0,0.0,392.0,575.0,0.0,0,2033.0,1
370,370,-0.8969016430145799,-0.9,1.0,0.0,370.0,702.0,0.0,0,1928.0,1
371,371,0.4835033063611579,0.5,0.0,0.0,436.0,909.0,0.0,1,1655.0,1
372,372,0.6543585463765121,0.7,1.0,1.0,258.0,627.0,1.0,1,685.0,1
373,373,-0.3357731124463733,-0.3,0.0,1.0,467.0,764.0,1.0,0,1149.0,1
374,374,-0.3152753222005239,-0.3,0.0,1.0,466.0,550.0,1.0,0,414.0,1
375,375,0.5220949720783273,0.5,0.0,0.0,322.0,719.0,0.0,1,1959.0,1
376,376,0.20652064905897471,0.2,1.0,1.0,389.0,872.0,1.0,1,1159.0,1
377,377,0.8559902087536092,0.9,1.0,1.0,375.0,848.0,1.0,1,317.0,1
378,378,-0.5045587652013777,-0.5,0.0,1.0,326.0,604.0,1.0,0,330.0,1
379,379,-0.11715206701580483,-0.1,0.0,1.0,318.0,712.0,1.0,0,1970.0,1
380,380,-0.8010950224768134,-0.8,1.0,0.0,257.0,748.0,0.0,0,1995.0,1
381,381,0.17201116069551958,0.2,0.0,0.0,438.0,577.0,0.0,1,1985.0,1
382,382,0.4474308739214533,0.4,0.0,0.0,403.0,658.0,0.0,1,1939.0,1
383,383,0.4728737819464294,0.5,1.0,1.0,464.0,923.0,1.0,1,473.0,1
384,384,-0.4015146621723215,-0.4,0.0,1.0,471.0,995.0,1.0,0,794.0,1
385,385,0.6366098601974101,0.6,0.0,0.0,256.0,701.0,0.0,1,2043.0,1
386,386,-0.3919322104259557,-0.4,1.0,0.0,324.0,580.0,0.0,0,2096.0,1
387,387,0.25355890951926463,0.3,0.0,0.0,452.0,982.0,0.0,1,1566.0,1
388,388,0.4735972889181327,0.5,1.0,1.0,324.0,577.0,1.0,1,1529.0,1
389,389,-0.48846331654725,-0.5,1.0,0.0,473.0,891.0,0.0,0,1636.0,1
390,390,0.2864230852678932,0.3,1.0,1.0,436.0,672.0,1.0,1,1892.0,1
391,391,0.23781676230535032,0.2,1.0,1.0,377.0,770.0,1.0,1,243.0,1
392,392,-0.5518169252534508,-0.6,0.0,1.0,364.0,655.0,1.0,0,611.0,1
393,393,-0.4849982139378227,-0.5,1.0,0.0,359.0,981.0,1.0,1,-220.0,0
394,394,0.5765763248701908,0.6,1.0,1.0,407.0,943.0,1.0,1,220.0,1
395,395,-0.41033481916966386,-0.4,1.0,0.0,377.0,959.0,0.0,0,1664.0,1
396,396,-0.37586878657872735,-0.4,1.0,0.0,401.0,744.0,0.0,0,1855.0,1
397,397,0.6887356229539178,0.7,0.0,0.0,362.0,929.0,0.0,1,1709.0,1
398,398,-0.7636147563245874,-0.8,1.0,0.0,328.0,925.0,0.0,0,1747.0,1
399,399,0.708497840000584,0.7,1.0,1.0,255.0,546.0,1.0,1,209.0,1
400,400,0.7509342714057253,0.8,0.0,0.0,392.0,811.0,0.0,1,1797.0,1
401,401,0.3455169738580596,0.3,1.0,1.0,447.0,564.0,1.0,1,219.0,1
402,402,0.8670534957182513,0.9,1.0,1.0,443.0,936.0,1.0,1,-179.0,1
403,403,0.6660297671711387,0.7,1.0,1.0,437.0,711.0,1.0,1,-188.0,1
404,404,0.784631106433623,0.8,0.0,0.0,418.0,880.0,1.0,0,-288.0,0
405,405,0.8834774874503354,0.9,1.0,1.0,391.0,816.0,1.0,1,103.0,1
406,406,0.5095919173846354,0.5,0.0,0.0,385.0,919.0,0.0,1,1696.0,1
407,407,-0.8355765169149119,-0.8,0.0,1.0,408.0,808.0,1.0,0,204.0,1
408,408,0.8792628417666138,0.9,1.0,1.0,314.0,864.0,1.0,1,312.0,1
409,409,-0.5310519513732295,-0.5,0.0,1.0,270.0,972.0,1.0,0,978.0,1
410,410,0.670547092350596,0.7,1.0,1.0,310.0,827.0,1.0,1,273.0,1
411,411,0.08645923797892141,0.1,1.0,1.0,253.0,835.0,1.0,1,1912.0,1
412,412,-0.5141474710340532,-0.5,1.0,0.0,304.0,524.0,0.0,0,2172.0,1
413,413,0.4390805841813613,0.4,0.0,0.0,333.0,541.0,0.0,1,2126.0,1
414,414,-0.5437100942233362,-0.5,0.0,1.0,425.0,735.0,1.0,0,890.0,1
415,415,-0.8039033869308849,-0.8,0.0,1.0,262.0,601.0,1.0,0,437.0,1
416,416,-0.4784632923663795,-0.5,1.0,0.0,395.0,854.0,0.0,0,1751.0,1
417,417,0.8179666592173657,0.8,1.0,1.0,360.0,849.0,1.0,1,261.0,1
418,418,-0.4542962711581785,-0.5,1.0,0.0,317.0,981.0,0.0,0,1702.0,1
419,419,-0.5167295935184819,-0.5,1.0,0.0,452.0,817.0,0.0,0,1731.0,1
420,420,0.24187491014730467,0.2,0.0,0.0,400.0,985.0,0.0,1,1615.0,1
421,421,0.7201937916935591,0.7,0.0,0.0,466.0,800.0,0.0,1,1734.0,1
422,422,-0.010867483562932323,-0.0,1.0,0.0,414.0,833.0,0.0,0,1753.0,1
423,423,0.8115185102899388,0.8,0.0,0.0,293.0,837.0,0.0,1,1870.0,1
424,424,0.124516632740728,0.1,0.0,0.0,384.0,979.0,0.0,1,1637.0,1
425,425,0.25868315178243895,0.3,0.0,0.0,304.0,575.0,0.0,1,2121.0,1
426,426,0.09357948516098791,0.1,0.0,0.0,385.0,727.0,0.0,1,1888.0,1
427,427,-0.09148080089207966,-0.1,0.0,1.0,340.0,839.0,0.0,1,1821.0,0
428,428,0.20001751371504095,0.2,1.0,1.0,400.0,818.0,1.0,1,462.0,1
429,429,-0.8307921868404488,-0.8,1.0,0.0,257.0,979.0,0.0,0,1764.0,1
430,430,-0.2896847828898559,-0.3,1.0,0.0,489.0,686.0,0.0,0,1825.0,1
431,431,0.4381742706153565,0.4,1.0,1.0,341.0,507.0,1.0,1,492.0,1
432,432,-0.797749705324958,-0.8,1.0,0.0,458.0,920.0,0.0,0,1622.0,1
433,433,-0.5375456769875536,-0.5,0.0,1.0,309.0,989.0,1.0,0,582.0,1
434,434,-0.08654207916632406,-0.1,1.0,0.0,335.0,597.0,1.0,1,2068.0,0
435,435,-0.2203649766057577,-0.2,1.0,0.0,490.0,595.0,0.0,0,1915.0,1
436,436,-0.34507894994681565,-0.3,1.0,0.0,378.0,680.0,0.0,0,1942.0,1
437,437,0.643568940776914,0.6,1.0,1.0,301.0,774.0,1.0,1,245.0,1
438,438,0.7690170878809938,0.8,1.0,1.0,448.0,863.0,1.0,1,159.0,1
439,439,0.10321935152611028,0.1,1.0,1.0,250.0,528.0,1.0,1,2222.0,1
440,440,0.3787661711458027,0.4,0.0,0.0,435.0,761.0,0.0,1,1804.0,1
441,441,0.5772315263162772,0.6,1.0,1.0,397.0,898.0,1.0,1,115.0,1
442,442,0.47852206858556434,0.5,0.0,0.0,420.0,823.0,0.0,1,1757.0,1
443,443,0.2962544099997103,0.3,1.0,1.0,293.0,552.0,1.0,1,835.0,1
444,444,0.09897082306487359,0.1,1.0,1.0,301.0,701.0,1.0,1,1408.0,1
445,445,0.8244150870652162,0.8,1.0,1.0,459.0,667.0,1.0,1,174.0,1
446,446,-0.8712991259969087,-0.9,0.0,1.0,472.0,616.0,1.0,0,392.0,1
447,447,-0.8352620287616614,-0.8,1.0,0.0,351.0,836.0,0.0,0,1813.0,1
448,448,-0.8392298840172566,-0.8,0.0,1.0,409.0,744.0,1.0,0,387.0,1
449,449,-0.6692447887715676,-0.7,1.0,0.0,314.0,952.0,0.0,0,1734.0,1
450,450,0.6744436804956152,0.7,1.0,1.0,427.0,795.0,1.0,1,298.0,1
451,451,-0.05777827308176886,-0.1,0.0,1.0,314.0,858.0,0.0,1,1828.0,0
452,452,0.3163668351726957,0.3,1.0,1.0,254.0,982.0,1.0,1,794.0,1
453,453,0.10997342394796672,0.1,0.0,0.0,338.0,823.0,0.0,1,1839.0,1
454,454,-0.024993080505706144,-0.0,0.0,1.0,305.0,974.0,1.0,0,821.0,1
455,455,0.277121297595749,0.3,0.0,0.0,432.0,805.0,0.0,1,1763.0,1
456,456,-0.7187500063380428,-0.7,0.0,1.0,431.0,647.0,1.0,0,242.0,1
457,457,-0.6871404235047807,-0.7,0.0,1.0,482.0,879.0,1.0,0,749.0,1
458,458,-0.08206777826525646,-0.1,1.0,0.0,289.0,618.0,0.0,0,2093.0,1
459,459,-0.22011934906232566,-0.2,0.0,1.0,408.0,933.0,1.0,0,1659.0,1
460,460,-0.11116730004147513,-0.1,0.0,1.0,425.0,989.0,0.0,1,1586.0,0
461,461,0.7763819323196927,0.8,1.0,1.0,335.0,640.0,1.0,1,195.0,1
462,462,-0.6002094647745443,-0.6,0.0,1.0,294.0,700.0,1.0,0,686.0,1
463,463,0.8166953517336234,0.8,0.0,0.0,297.0,569.0,0.0,1,2134.0,1
464,464,-0.884884250657999,-0.9,1.0,0.0,378.0,889.0,0.0,0,1733.0,1
465,465,0.4591560527272137,0.5,1.0,1.0,361.0,918.0,1.0,1,841.0,1
466,466,0.2245493810017073,0.2,0.0,0.0,363.0,509.0,0.0,1,2128.0,1
467,467,-0.5616538851394758,-0.6,1.0,0.0,448.0,805.0,0.0,0,1747.0,1
468,468,0.2690455394229162,0.3,0.0,0.0,389.0,810.0,0.0,1,1801.0,1
469,469,0.05034699294306122,0.1,0.0,0.0,388.0,737.0,1.0,0,1875.0,0
470,470,0.23349797177519205,0.2,1.0,1.0,423.0,764.0,1.0,1,1813.0,1
471,471,0.8084709872830683,0.8,1.0,1.0,466.0,926.0,1.0,1,138.0,1
472,472,-0.010430908766161706,-0.0,1.0,0.0,447.0,938.0,1.0,1,1615.0,0
473,473,0.12567484320805267,0.1,0.0,0.0,310.0,810.0,0.0,1,1880.0,1
474,474,-0.45119102454402465,-0.5,1.0,0.0,384.0,681.0,1.0,1,5.0,0
475,475,-0.5535036562665825,-0.6,0.0,1.0,424.0,914.0,1.0,0,862.0,1
476,476,0.7539970088032674,0.8,0.0,0.0,361.0,592.0,0.0,1,2047.0,1
477,477,0.5135128756786315,0.5,1.0,1.0,356.0,576.0,1.0,1,158.0,1
478,478,-0.722892036690088,-0.7,0.0,1.0,385.0,511.0,1.0,0,814.0,1
479,479,-0.8443172375164075,-0.8,0.0,1.0,390.0,762.0,1.0,0,238.0,1
480,480,0.5741958764145144,0.6,0.0,0.0,479.0,582.0,0.0,1,1939.0,1
481,481,0.8769378244029965,0.9,0.0,0.0,467.0,980.0,0.0,1,1553.0,1
482,482,0.28899671355095424,0.3,1.0,1.0,383.0,823.0,1.0,1,1794.0,1
483,483,0.04410219693269668,0.0,1.0,1.0,467.0,843.0,1.0,1,1690.0,1
484,484,0.8674591583583285,0.9,0.0,0.0,427.0,828.0,0.0,1,1745.0,1
485,485,-0.10151916365265723,-0.1,0.0,1.0,481.0,872.0,1.0,0,1647.0,1
486,486,0.03650542729765316,0.0,1.0,1.0,463.0,877.0,0.0,0,1660.0,0
487,487,0.6054919358809389,0.6,0.0,0.0,311.0,735.0,0.0,1,1954.0,1
488,488,-0.8105037202062437,-0.8,1.0,0.0,276.0,621.0,0.0,0,2103.0,1
489,489,-0.5894165010432906,-0.6,0.0,1.0,387.0,797.0,1.0,0,396.0,1
490,490,-0.7746456046483381,-0.8,1.0,0.0,457.0,535.0,0.0,0,2008.0,1
491,491,-0.31991721830270003,-0.3,0.0,1.0,342.0,927.0,1.0,0,1321.0,1
492,492,-0.7050986756782675,-0.7,1.0,0.0,498.0,590.0,0.0,0,1912.0,1
493,493,0.5106189775750934,0.5,1.0,1.0,348.0,694.0,1.0,1,418.0,1
494,494,-0.2635071641983596,-0.3,0.0,1.0,416.0,576.0,1.0,0,1518.0,1
495,495,0.8934126843709861,0.9,1.0,1.0,479.0,537.0,1.0,1,214.0,1
496,496,0.6194237541838891,0.6,0.0,0.0,460.0,759.0,0.0,1,1781.0,1
497,497,-0.3186964073078753,-0.3,1.0,0.0,278.0,703.0,0.0,0,2019.0,1
498,498,0.3950783654808917,0.4,1.0,1.0,360.0,872.0,1.0,1,658.0,1
499,499,0.7982857120468975,0.8,0.0,0.0,369.0,557.0,0.0,1,2074.0,1
500,500,0.7601340567521003,0.8,0.0,0.0,493.0,938.0,0.0,1,1569.0,1
501,501,-0.5357809634383492,-0.5,0.0,1.0,460.0,593.0,1.0,0,557.0,1
502,502,-0.15192515576822596,-0.2,1.0,0.0,340.0,657.0,0.0,0,2003.0,1
503,503,-0.5678906647920026,-0.6,0.0,1.0,374.0,904.0,1.0,0,582.0,1
504,504,0.47873560773507096,0.5,0.0,0.0,491.0,727.0,0.0,1,1782.0,1
505,505,-0.43813239517423475,-0.4,1.0,0.0,312.0,863.0,0.0,0,1825.0,1
506,506,-0.5495154477253483,-0.5,0.0,1.0,337.0,936.0,1.0,0,257.0,1
507,507,0.42970108951725206,0.4,1.0,1.0,354.0,907.0,1.0,1,869.0,1
508,508,0.42997448655706083,0.4,0.0,0.0,390.0,906.0,0.0,1,1704.0,1
509,509,0.7135897635359804,0.7,1.0,1.0,297.0,873.0,1.0,1,350.0,1
510,510,-0.6259722128428741,-0.6,1.0,0.0,427.0,789.0,0.0,0,1784.0,1
511,511,0.27687602852591875,0.3,1.0,1.0,379.0,874.0,1.0,1,257.0,1
512,512,-0.41834437984179906,-0.4,0.0,1.0,410.0,756.0,1.0,0,1484.0,1
513,513,-0.877665648210665,-0.9,0.0,1.0,437.0,540.0,1.0,0,373.0,1
514,514,-0.8462871193043983,-0.8,0.0,1.0,359.0,519.0,1.0,0,672.0,1
515,515,-0.03593600533186758,-0.0,0.0,1.0,410.0,635.0,1.0,0,1955.0,1
516,516,0.22515684183840745,0.2,1.0,1.0,474.0,883.0,1.0,1,1043.0,1
517,517,-0.3849506229473654,-0.4,0.0,1.0,436.0,572.0,1.0,0,1192.0,1
518,518,0.3750918970759024,0.4,0.0,0.0,316.0,796.0,0.0,1,1888.0,1
519,519,0.7129685774463813,0.7,1.0,1.0,253.0,850.0,1.0,1,257.0,1
520,520,0.17737676152578075,0.2,0.0,0.0,391.0,894.0,0.0,1,1715.0,1
521,521,0.646097371716093,0.6,0.0,0.0,422.0,863.0,0.0,1,1715.0,1
522,522,-0.6370474951048948,-0.6,1.0,0.0,392.0,580.0,0.0,0,2028.0,1
523,523,0.7614503648647176,0.8,0.0,0.0,488.0,782.0,0.0,1,1730.0,1
524,524,-0.025628306057631223,-0.0,1.0,0.0,356.0,629.0,0.0,0,2015.0,1
525,525,0.8992899840675784,0.9,0.0,0.0,486.0,889.0,0.0,1,1625.0,1
526,526,-0.8076505033988289,-0.8,1.0,0.0,347.0,937.0,0.0,0,1716.0,1
527,527,0.6346289660236318,0.6,1.0,1.0,373.0,956.0,1.0,1,-129.0,1
528,528,0.36184795588174234,0.4,1.0,1.0,417.0,637.0,1.0,1,616.0,1
529,529,-0.015032220029766119,-0.0,0.0,1.0,282.0,922.0,0.0,1,1796.0,0
530,530,0.822052172246115,0.8,0.0,0.0,353.0,789.0,0.0,1,1858.0,1
531,531,0.45905101970974893,0.5,0.0,0.0,435.0,795.0,0.0,1,1770.0,1
532,532,0.39153776144059294,0.4,1.0,1.0,317.0,741.0,1.0,1,382.0,1
533,533,-0.5019179216902205,-0.5,1.0,0.0,299.0,927.0,0.0,0,1774.0,1
534,534,0.69487554126499,0.7,0.0,0.0,445.0,997.0,0.0,1,1558.0,1
535,535,0.03407408200106232,0.0,1.0,1.0,264.0,776.0,0.0,0,1960.0,0
536,536,0.6784979907068039,0.7,1.0,1.0,257.0,839.0,1.0,1,334.0,1
537,537,-0.40503942153583705,-0.4,0.0,1.0,365.0,599.0,1.0,0,826.0,1
538,538,-0.1376443529737411,-0.1,0.0,1.0,430.0,703.0,0.0,1,1867.0,0
539,539,0.3827688051325663,0.4,0.0,0.0,392.0,650.0,0.0,1,1958.0,1
540,540,-0.647328775995627,-0.6,0.0,1.0,412.0,807.0,1.0,0,681.0,1
541,541,0.4005186779496449,0.4,1.0,1.0,303.0,621.0,1.0,1,476.0,1
542,542,-0.730942339525689,-0.7,1.0,0.0,257.0,735.0,0.0,0,2008.0,1
543,543,0.5538388713643537,0.6,0.0,0.0,311.0,607.0,0.0,1,2082.0,1
544,544,-0.708853579688067,-0.7,0.0,1.0,299.0,870.0,1.0,0,241.0,1
545,545,0.431318889895164,0.4,0.0,0.0,407.0,616.0,0.0,1,1977.0,1
546,546,-0.31618068081676054,-0.3,0.0,1.0,459.0,951.0,1.0,0,1310.0,1
547,547,-0.24936571119192674,-0.2,1.0,0.0,308.0,936.0,0.0,0,1756.0,1
548,548,-0.11481442439398115,-0.1,1.0,0.0,292.0,804.0,0.0,0,1904.0,1
549,549,0.08794173993327581,0.1,0.0,0.0,315.0,761.0,0.0,1,1924.0,1
550,550,0.7853134751574068,0.8,0.0,0.0,266.0,609.0,0.0,1,2125.0,1
551,551,-0.4117398212288141,-0.4,0.0,1.0,338.0,937.0,1.0,0,685.0,1
552,552,0.15687417206757048,0.2,0.0,0.0,387.0,625.0,1.0,0,1988.0,0
553,553,-0.40555775646039877,-0.4,1.0,0.0,314.0,911.0,0.0,0,1775.0,1
554,554,-0.8449609453469383,-0.8,1.0,0.0,417.0,723.0,0.0,0,1860.0,1
555,555,-0.12872164820720666,-0.1,0.0,1.0,489.0,767.0,1.0,0,1184.0,1
556,556,0.5451899493974081,0.5,1.0,1.0,273.0,713.0,1.0,1,424.0,1
557,557,0.26822705413187686,0.3,1.0,1.0,314.0,535.0,1.0,1,881.0,1
558,558,-0.7778990755689833,-0.8,0.0,1.0,332.0,693.0,1.0,0,135.0,1
559,559,0.012426915076515055,0.0,1.0,1.0,274.0,566.0,0.0,0,2160.0,0
560,560,0.7195552993047248,0.7,0.0,0.0,458.0,784.0,0.0,1,1758.0,1
561,561,-0.3691213245049131,-0.4,1.0,0.0,407.0,552.0,1.0,1,2041.0,0
562,562,0.4924820399498223,0.5,0.0,0.0,347.0,603.0,0.0,1,2050.0,1
563,563,-0.06390514470745245,-0.1,0.0,1.0,389.0,705.0,0.0,1,1906.0,0
564,564,-0.7170530521895392,-0.7,1.0,0.0,383.0,922.0,0.0,0,1695.0,1
565,565,-0.5714795750623285,-0.6,0.0,1.0,418.0,808.0,1.0,0,34.0,1
566,566,-0.12651236841186908,-0.1,1.0,0.0,366.0,645.0,0.0,0,1989.0,1
567,567,0.570705623933042,0.6,1.0,1.0,354.0,501.0,1.0,1,725.0,1
568,568,0.8422723708220935,0.8,0.0,0.0,496.0,977.0,0.0,1,1527.0,1
569,569,0.3537002748564787,0.4,0.0,0.0,298.0,809.0,0.0,1,1893.0,1
570,570,0.5963077026078721,0.6,1.0,1.0,396.0,885.0,1.0,1,569.0,1
571,571,-0.22524213031777118,-0.2,1.0,0.0,489.0,906.0,0.0,0,1605.0,1
572,572,0.5478260973970829,0.5,0.0,0.0,253.0,817.0,0.0,1,1930.0,1
573,573,-0.4657615767434785,-0.5,1.0,0.0,375.0,699.0,0.0,0,1926.0,1
574,574,0.8473835165145199,0.8,0.0,0.0,371.0,510.0,0.0,1,2119.0,1
575,575,0.2545746568179398,0.3,0.0,0.0,287.0,921.0,0.0,1,1792.0,1
576,576,-0.016359544023314077,-0.0,0.0,1.0,358.0,930.0,0.0,1,1712.0,0
577,577,-0.02777154350762634,-0.0,0.0,1.0,453.0,760.0,1.0,0,1787.0,1
578,578,-0.2764530144770617,-0.3,1.0,0.0,372.0,923.0,0.0,0,1705.0,1
579,579,0.6785085963423004,0.7,1.0,1.0,314.0,561.0,1.0,1,695.0,1
580,580,0.5461082833009075,0.5,1.0,1.0,347.0,990.0,1.0,1,583.0,1
581,581,-0.031963429216366634,-0.0,1.0,0.0,445.0,757.0,1.0,1,1798.0,0
582,582,0.6039654427392352,0.6,0.0,0.0,378.0,645.0,0.0,1,1977.0,1
583,583,-0.12225622147388915,-0.1,0.0,1.0,359.0,941.0,0.0,1,1700.0,0
584,584,-0.8921464707365393,-0.9,1.0,0.0,403.0,979.0,0.0,0,1618.0,1
585,585,-0.5819025177100599,-0.6,1.0,0.0,390.0,703.0,0.0,0,1907.0,1
586,586,0.12503018340515315,0.1,0.0,0.0,441.0,646.0,0.0,1,1913.0,1
587,587,-0.25164289965141384,-0.3,0.0,1.0,299.0,959.0,1.0,0,472.0,1
588,588,-0.3872276902676367,-0.4,1.0,0.0,467.0,962.0,0.0,0,1571.0,1
589,589,-0.8677564774203139,-0.9,0.0,1.0,365.0,654.0,1.0,0,281.0,1
590,590,0.2414458412990953,0.2,0.0,0.0,297.0,786.0,0.0,1,1917.0,1
591,591,0.8186861427679774,0.8,1.0,1.0,336.0,884.0,1.0,1,370.0,1
592,592,-0.5834047533318216,-0.6,0.0,1.0,363.0,625.0,1.0,0,712.0,1
593,593,-0.519854045400707,-0.5,1.0,0.0,269.0,676.0,0.0,0,2055.0,1
594,594,-0.6147851987197581,-0.6,1.0,0.0,255.0,718.0,0.0,0,2027.0,1
595,595,-0.38225061872072985,-0.4,1.0,0.0,484.0,841.0,0.0,0,1675.0,1
596,596,0.8256345563377413,0.8,1.0,1.0,495.0,722.0,1.0,1,233.0,1
597,597,-0.2075562886318233,-0.2,0.0,1.0,306.0,501.0,1.0,0,1303.0,1
598,598,0.24499187151717894,0.2,1.0,1.0,479.0,981.0,1.0,1,570.0,1
599,599,0.46873693622633217,0.5,0.0,0.0,393.0,581.0,0.0,1,2026.0,1
600,600,0.17377813195266933,0.2,0.0,0.0,353.0,757.0,0.0,1,1890.0,1
601,601,0.07142169105955143,0.1,0.0,0.0,341.0,794.0,0.0,1,1865.0,1
602,602,-0.3127140147694307,-0.3,0.0,1.0,382.0,729.0,1.0,0,1889.0,1
603,603,-0.12539732831046613,-0.1,1.0,0.0,267.0,849.0,0.0,0,1884.0,1
604,604,0.3105219146992878,0.3,1.0,1.0,315.0,690.0,1.0,1,585.0,1
605,605,-0.8499734436653539,-0.8,1.0,0.0,251.0,551.0,0.0,0,2198.0,1
606,606,-0.739056752269852,-0.7,1.0,0.0,450.0,604.0,0.0,0,1946.0,1
607,607,-0.46679562349692244,-0.5,0.0,1.0,422.0,783.0,1.0,0,485.0,1
608,608,-0.6900933399991466,-0.7,0.0,1.0,458.0,795.0,1.0,0,357.0,1
609,609,-0.34526520918265147,-0.3,1.0,0.0,396.0,505.0,0.0,0,2099.0,1
610,610,-0.19254732053859314,-0.2,1.0,0.0,281.0,551.0,0.0,0,2168.0,1
611,611,0.632461569118829,0.6,0.0,0.0,474.0,788.0,0.0,1,1738.0,1
612,612,-0.8720820548032707,-0.9,0.0,1.0,440.0,980.0,1.0,0,100.0,1
613,613,0.28043720827694407,0.3,1.0,1.0,298.0,685.0,1.0,1,1427.0,1
614,614,-0.4566693972526821,-0.5,0.0,1.0,392.0,966.0,1.0,0,662.0,1
615,615,-0.09857939351037404,-0.1,1.0,0.0,443.0,629.0,0.0,0,1928.0,1
616,616,-0.7142815926204676,-0.7,1.0,0.0,461.0,529.0,0.0,0,2010.0,1
617,617,-0.868981110177033,-0.9,0.0,1.0,481.0,720.0,1.0,0,269.0,1
618,618,-0.5724393823449992,-0.6,1.0,0.0,351.0,680.0,0.0,0,1969.0,1
619,619,0.4206648329085608,0.4,1.0,1.0,363.0,699.0,1.0,1,988.0,1
620,620,-0.3677438744202317,-0.4,1.0,0.0,251.0,529.0,0.0,0,2220.0,1
621,621,-0.1331633691211893,-0.1,0.0,1.0,259.0,991.0,1.0,0,1750.0,1
622,622,0.7203857796000926,0.7,1.0,1.0,491.0,577.0,1.0,1,322.0,1
623,623,0.7859902521349077,0.8,1.0,1.0,295.0,524.0,1.0,1,391.0,1
624,624,0.0740344865252881,0.1,0.0,0.0,297.0,624.0,0.0,1,2079.0,1
625,625,0.6327969497503091,0.6,0.0,0.0,343.0,995.0,0.0,1,1662.0,1
626,626,0.29479848236794537,0.3,1.0,1.0,294.0,505.0,1.0,1,2201.0,1
627,627,0.45431456721215946,0.5,1.0,1.0,340.0,710.0,1.0,1,750.0,1
628,628,-0.4983824951466263,-0.5,1.0,0.0,371.0,537.0,0.0,0,2092.0,1
629,629,0.6623225786322441,0.7,1.0,1.0,298.0,830.0,1.0,1,212.0,1
630,630,0.7999638645460084,0.8,0.0,0.0,410.0,865.0,0.0,1,1725.0,1
631,631,0.8565770819480248,0.9,0.0,0.0,301.0,761.0,0.0,1,1938.0,1
632,632,-0.050245508143875406,-0.1,0.0,1.0,422.0,720.0,1.0,0,1858.0,1
633,633,0.37430777507767743,0.4,1.0,1.0,465.0,901.0,1.0,1,694.0,1
634,634,-0.20853435257811592,-0.2,1.0,0.0,376.0,898.0,0.0,0,1726.0,1
635,635,-0.5277990163484458,-0.5,0.0,1.0,366.0,885.0,1.0,0,219.0,1
636,636,0.6074696308033191,0.6,1.0,1.0,324.0,819.0,1.0,1,177.0,1
637,637,0.3312885846495831,0.3,0.0,0.0,400.0,960.0,0.0,1,1640.0,1
638,638,-0.5164166177947824,-0.5,1.0,0.0,281.0,990.0,0.0,0,1729.0,1
639,639,0.3023879118031142,0.3,0.0,0.0,255.0,613.0,0.0,1,2132.0,1
640,640,0.6242595844643156,0.6,0.0,0.0,336.0,892.0,0.0,1,1772.0,1
641,641,0.18178797027035454,0.2,0.0,0.0,356.0,828.0,0.0,1,1816.0,1
642,642,-0.6271604670775144,-0.6,1.0,0.0,253.0,598.0,0.0,0,2149.0,1
643,643,-0.06725834537100661,-0.1,0.0,1.0,383.0,779.0,1.0,0,1838.0,1
644,644,-0.03660129475037166,-0.0,0.0,1.0,386.0,733.0,1.0,0,1881.0,1
645,645,-0.826477103905211,-0.8,1.0,0.0,479.0,930.0,0.0,0,1591.0,1
646,646,-0.4799829660688585,-0.5,0.0,1.0,445.0,923.0,1.0,0,302.0,1
647,647,-0.7990638384810766,-0.8,1.0,0.0,257.0,957.0,0.0,0,1786.0,1
648,648,0.5718165260499316,0.6,1.0,1.0,375.0,597.0,1.0,1,788.0,1
649,649,-0.8015067335663787,-0.8,0.0,1.0,326.0,729.0,1.0,0,265.0,1
650,650,-0.45828950144277564,-0.5,1.0,0.0,390.0,883.0,0.0,0,1727.0,1
651,651,0.582880297091858,0.6,0.0,0.0,336.0,830.0,0.0,1,1834.0,1
652,652,0.46011957355157873,0.5,0.0,0.0,441.0,540.0,0.0,1,2019.0,1
653,653,-0.7039629940581356,-0.7,0.0,1.0,306.0,943.0,1.0,0,451.0,1
654,654,-0.02731113103517857,-0.0,1.0,0.0,270.0,982.0,1.0,1,1748.0,0
655,655,0.05723877848601633,0.1,0.0,0.0,471.0,805.0,1.0,0,1724.0,0
656,656,-0.10330659220750493,-0.1,0.0,1.0,427.0,559.0,0.0,1,2014.0,0
657,657,-0.8317383728488539,-0.8,1.0,0.0,370.0,968.0,0.0,0,1662.0,1
658,658,0.12437046809817576,0.1,0.0,0.0,441.0,999.0,1.0,0,1560.0,0
659,659,-0.6508997893662086,-0.7,1.0,0.0,484.0,749.0,0.0,0,1767.0,1
660,660,0.6290725059045458,0.6,0.0,0.0,296.0,708.0,0.0,1,1996.0,1
661,661,-0.43719321734777244,-0.4,1.0,0.0,282.0,885.0,0.0,0,1833.0,1
662,662,0.6583302834139905,0.7,0.0,0.0,349.0,660.0,0.0,1,1991.0,1
663,663,0.23986939043630218,0.2,1.0,1.0,262.0,934.0,1.0,1,474.0,1
664,664,-0.5226745391199845,-0.5,0.0,1.0,430.0,958.0,1.0,0,542.0,1
665,665,0.7107769363518089,0.7,1.0,1.0,346.0,548.0,1.0,1,386.0,1
666,666,0.623718134981818,0.6,0.0,0.0,312.0,842.0,0.0,1,1846.0,1
667,667,-0.45291505851166663,-0.5,1.0,0.0,356.0,855.0,0.0,0,1789.0,1
668,668,-0.23020271524861546,-0.2,1.0,0.0,353.0,648.0,0.0,0,1999.0,1
669,669,-0.309821501944886,-0.3,0.0,1.0,378.0,554.0,1.0,0,2068.0,1
670,670,0.08271783442111691,0.1,1.0,1.0,418.0,638.0,1.0,1,1654.0,1
671,671,-0.05436169086137632,-0.1,0.0,1.0,426.0,989.0,1.0,0,1585.0,1
672,672,0.418467605259366,0.4,1.0,1.0,400.0,677.0,1.0,1,743.0,1
673,673,-0.08530902829544951,-0.1,1.0,0.0,382.0,970.0,1.0,1,1648.0,0
674,674,0.5371768937686664,0.5,1.0,1.0,305.0,621.0,1.0,1,304.0,1
675,675,-0.49037954466509937,-0.5,0.0,1.0,445.0,737.0,1.0,0,378.0,1
676,676,-0.67898668731628,-0.7,1.0,0.0,446.0,971.0,0.0,0,1583.0,1
677,677,-0.30539622293847535,-0.3,1.0,0.0,391.0,896.0,0.0,0,1713.0,1
678,678,-0.4807291364764852,-0.5,0.0,1.0,459.0,658.0,1.0,0,223.0,1
679,679,-0.7478679001341564,-0.7,0.0,1.0,426.0,601.0,1.0,0,373.0,1
680,680,0.7118511232618153,0.7,1.0,1.0,375.0,556.0,1.0,1,309.0,1
681,681,0.679693441807724,0.7,1.0,1.0,410.0,742.0,1.0,1,568.0,1
682,682,-0.2830885532477835,-0.3,0.0,1.0,345.0,732.0,1.0,0,1123.0,1
683,683,0.8275247639732396,0.8,1.0,1.0,350.0,834.0,1.0,1,286.0,1
684,684,-0.21248972680907985,-0.2,1.0,0.0,359.0,624.0,0.0,0,2017.0,1
685,685,0.1212161545575915,0.1,0.0,0.0,406.0,560.0,0.0,1,2034.0,1
686,686,-0.35370136663536444,-0.4,0.0,1.0,389.0,659.0,1.0,0,632.0,1
687,687,-0.33541414574336914,-0.3,0.0,1.0,269.0,581.0,1.0,0,990.0,1
688,688,0.796973999862043,0.8,0.0,0.0,360.0,809.0,0.0,1,1831.0,1
689,689,-0.04945403298232309,-0.0,1.0,0.0,496.0,642.0,1.0,1,302.0,0
690,690,0.5051854696787622,0.5,0.0,0.0,492.0,595.0,0.0,1,1913.0,1
691,691,0.48830226080542893,0.5,1.0,1.0,255.0,914.0,1.0,1,171.0,1
692,692,-0.032778531297264046,-0.0,0.0,1.0,334.0,689.0,1.0,0,1977.0,1
693,693,-0.40698906276833896,-0.4,1.0,0.0,282.0,949.0,0.0,0,1769.0,1
694,694,-0.20356120250932097,-0.2,1.0,0.0,411.0,768.0,0.0,0,1821.0,1
695,695,0.07589958123511886,0.1,0.0,0.0,305.0,855.0,0.0,1,1840.0,1
696,696,0.5589313948148721,0.6,0.0,0.0,287.0,568.0,0.0,1,2145.0,1
697,697,-0.01903474106747738,-0.0,1.0,0.0,256.0,994.0,0.0,0,1750.0,1
698,698,-0.3489614774014901,-0.3,0.0,1.0,426.0,933.0,0.0,1,1641.0,0
699,699,0.4614318544078019,0.5,1.0,1.0,268.0,745.0,1.0,1,827.0,1
700,700,-0.26634196631665374,-0.3,0.0,1.0,371.0,970.0,1.0,0,1049.0,1
701,701,0.16247663872655893,0.2,0.0,0.0,444.0,500.0,0.0,1,2056.0,1
702,702,0.5961319802465873,0.6,0.0,0.0,385.0,914.0,0.0,1,1701.0,1
703,703,-0.4549087285867695,-0.5,1.0,0.0,427.0,780.0,0.0,0,1793.0,1
704,704,-0.15841121107336176,-0.2,1.0,0.0,317.0,567.0,1.0,1,1116.0,0
705,705,-0.5176167088169672,-0.5,1.0,0.0,466.0,668.0,0.0,0,1866.0,1
706,706,-0.029480064454647126,-0.0,0.0,1.0,313.0,594.0,1.0,0,2093.0,1
707,707,-0.1298031479373154,-0.1,0.0,1.0,421.0,663.0,1.0,0,1916.0,1
708,708,-0.5587709973422648,-0.6,1.0,0.0,398.0,632.0,0.0,0,1970.0,1
709,709,-0.21597027167494853,-0.2,0.0,1.0,401.0,788.0,1.0,0,1801.0,1
710,710,-0.25392512879936746,-0.3,1.0,0.0,403.0,946.0,0.0,0,1651.0,1
711,711,-0.3291761712954654,-0.3,0.0,1.0,471.0,955.0,1.0,0,1574.0,1
712,712,0.736061482040599,0.7,1.0,1.0,451.0,785.0,1.0,1,254.0,1
713,713,0.2129937956976672,0.2,1.0,1.0,355.0,593.0,1.0,1,2052.0,1
714,714,0.47422995333786366,0.5,0.0,0.0,434.0,875.0,0.0,1,1691.0,1
715,715,-0.1403629669871288,-0.1,1.0,0.0,438.0,947.0,1.0,1,1615.0,0
716,716,-0.7350982663252251,-0.7,1.0,0.0,487.0,842.0,0.0,0,1671.0,1
717,717,0.5707577040588071,0.6,0.0,0.0,449.0,970.0,0.0,1,1581.0,1
718,718,-0.7017952049807896,-0.7,1.0,0.0,359.0,669.0,0.0,0,1972.0,1
719,719,0.6721021730907674,0.7,1.0,1.0,457.0,631.0,1.0,1,362.0,1
720,720,-0.5367751533066223,-0.5,0.0,1.0,450.0,935.0,1.0,0,595.0,1
721,721,-0.10146801021189877,-0.1,0.0,1.0,358.0,978.0,1.0,0,1664.0,1
722,722,-0.11996992973439125,-0.1,0.0,1.0,459.0,561.0,0.0,1,1980.0,0
723,723,-0.02849399568915756,-0.0,0.0,1.0,369.0,688.0,1.0,0,1943.0,1
724,724,-0.8567906187035975,-0.9,0.0,1.0,348.0,568.0,1.0,0,364.0,1
725,725,0.8769041601792692,0.9,1.0,1.0,324.0,511.0,1.0,1,245.0,1
726,726,0.6256629801376822,0.6,1.0,1.0,475.0,598.0,1.0,1,297.0,1
727,727,0.5084596988517939,0.5,1.0,1.0,475.0,570.0,1.0,1,505.0,1
728,728,-0.3381302247602156,-0.3,0.0,1.0,368.0,776.0,1.0,0,246.0,1
729,729,-0.033137517560006935,-0.0,0.0,1.0,374.0,672.0,0.0,1,1954.0,0
730,730,-0.573496995441275,-0.6,0.0,1.0,410.0,891.0,1.0,0,729.0,1
731,731,-0.8202601762486966,-0.8,1.0,0.0,305.0,874.0,0.0,0,1821.0,1
732,732,-0.7564317278546403,-0.8,0.0,1.0,262.0,806.0,1.0,0,332.0,1
733,733,0.14013507458362462,0.1,1.0,1.0,295.0,843.0,1.0,1,1322.0,1
734,734,0.5228288587015825,0.5,0.0,0.0,368.0,565.0,0.0,1,2067.0,1
735,735,0.38685609118433384,0.4,0.0,0.0,261.0,904.0,0.0,1,1835.0,1
736,736,0.1915931472620821,0.2,0.0,0.0,451.0,780.0,0.0,1,1769.0,1
737,737,0.8016204308543776,0.8,1.0,1.0,355.0,779.0,1.0,1,546.0,1
738,738,-0.7575923834337682,-0.8,1.0,0.0,473.0,755.0,0.0,0,1772.0,1
739,739,0.560058549685824,0.6,1.0,1.0,435.0,823.0,1.0,1,362.0,1
740,740,0.7015683974036636,0.7,1.0,1.0,330.0,659.0,1.0,1,201.0,1
741,741,-0.43636646496660486,-0.4,1.0,0.0,349.0,540.0,0.0,0,2111.0,1
742,742,0.1138379278330045,0.1,0.0,0.0,380.0,673.0,0.0,1,1947.0,1
743,743,0.4889891005917467,0.5,0.0,0.0,291.0,875.0,0.0,1,1834.0,1
744,744,0.13257750742502028,0.1,0.0,0.0,289.0,988.0,0.0,1,1723.0,1
745,745,-0.39307538482806714,-0.4,1.0,0.0,279.0,755.0,0.0,0,1966.0,1
746,746,0.827284748967262,0.8,1.0,1.0,476.0,901.0,1.0,1,243.0,1
747,747,0.09867094903477647,0.1,0.0,0.0,266.0,588.0,1.0,0,2146.0,0
748,748,-0.5927869009064638,-0.6,1.0,0.0,301.0,724.0,0.0,0,1975.0,1
749,749,0.7854068213513513,0.8,0.0,0.0,426.0,932.0,0.0,1,1642.0,1
750,750,-0.5942029867978977,-0.6,0.0,1.0,476.0,509.0,1.0,0,415.0,1
751,751,0.8301993235330823,0.8,0.0,0.0,361.0,504.0,1.0,0,2135.0,0
752,752,-0.5863963238619739,-0.6,1.0,0.0,323.0,634.0,0.0,0,2043.0,1
753,753,-0.6986083183030203,-0.7,1.0,0.0,319.0,571.0,0.0,0,2110.0,1
754,754,0.0476942329384934,0.0,0.0,0.0,321.0,714.0,0.0,1,1965.0,1
755,755,0.31821492499161297,0.3,0.0,0.0,379.0,614.0,0.0,1,2007.0,1
756,756,0.3182316453942785,0.3,1.0,1.0,489.0,531.0,1.0,1,910.0,1
757,757,0.19874365611183042,0.2,1.0,1.0,440.0,574.0,1.0,1,1986.0,1
758,758,-0.610120726840503,-0.6,1.0,0.0,408.0,668.0,0.0,0,1924.0,1
759,759,-0.10035420037497833,-0.1,1.0,0.0,365.0,732.0,0.0,0,1903.0,1
760,760,-0.05740986574566076,-0.1,0.0,1.0,413.0,614.0,0.0,1,1973.0,0
761,761,-0.5724598018066818,-0.6,1.0,0.0,459.0,875.0,0.0,0,1666.0,1
762,762,-0.37629785710763486,-0.4,1.0,0.0,328.0,576.0,0.0,0,2096.0,1
763,763,0.6760106812066898,0.7,1.0,1.0,443.0,541.0,1.0,1,16.0,1
764,764,0.7304081830134689,0.7,1.0,1.0,331.0,812.0,1.0,1,197.0,1
765,765,0.8449008227160378,0.8,0.0,0.0,366.0,728.0,0.0,1,1906.0,1
766,766,0.7470371697546224,0.7,0.0,0.0,400.0,953.0,0.0,1,1647.0,1
767,767,0.31244584426317357,0.3,0.0,0.0,264.0,568.0,0.0,1,2168.0,1
768,768,0.824752294512129,0.8,1.0,1.0,352.0,834.0,1.0,1,384.0,1
769,769,0.25067820349587644,0.3,1.0,1.0,252.0,916.0,1.0,1,742.0,1
770,770,-0.6935028003226137,-0.7,1.0,0.0,322.0,660.0,0.0,0,2018.0,1
771,771,-0.4565718414075801,-0.5,1.0,0.0,262.0,521.0,0.0,0,2217.0,1
772,772,-0.6299515085009748,-0.6,1.0,0.0,348.0,673.0,0.0,0,1979.0,1
773,773,0.6975226715728721,0.7,0.0,0.0,285.0,578.0,0.0,1,2137.0,1
774,774,-0.22718490502362898,-0.2,0.0,1.0,356.0,890.0,1.0,0,1754.0,1
775,775,0.4843490219607892,0.5,1.0,1.0,300.0,538.0,1.0,1,612.0,1
776,776,-0.6235892495125017,-0.6,1.0,0.0,270.0,865.0,0.0,0,1865.0,1
777,777,0.37404613040998813,0.4,1.0,1.0,277.0,575.0,1.0,1,218.0,1
778,778,-0.774354088114698,-0.8,0.0,1.0,329.0,761.0,1.0,0,470.0,1
779,779,0.6840737027100895,0.7,1.0,1.0,378.0,747.0,1.0,1,285.0,1
780,780,0.24379420373800909,0.2,1.0,1.0,298.0,941.0,1.0,1,661.0,1
781,781,0.705859626545171,0.7,0.0,0.0,446.0,811.0,0.0,1,1743.0,1
782,782,0.7838564819801049,0.8,0.0,0.0,252.0,744.0,0.0,1,2004.0,1
783,783,-0.697514634578247,-0.7,0.0,1.0,463.0,527.0,1.0,0,570.0,1
784,784,0.6905996581544122,0.7,0.0,0.0,382.0,714.0,0.0,1,1904.0,1
785,785,0.7743129808272925,0.8,0.0,0.0,432.0,578.0,0.0,1,1990.0,1
786,786,0.7903912148578912,0.8,0.0,0.0,427.0,540.0,0.0,1,2033.0,1
787,787,0.5165137870271544,0.5,0.0,0.0,375.0,746.0,0.0,1,1879.0,1
788,788,0.8387071698361318,0.8,1.0,1.0,497.0,852.0,1.0,1,211.0,1
789,789,0.7308125986764461,0.7,0.0,0.0,306.0,799.0,0.0,1,1895.0,1
790,790,-0.5721615134893352,-0.6,0.0,1.0,298.0,786.0,1.0,0,416.0,1
791,791,0.2879284532781955,0.3,0.0,0.0,287.0,950.0,0.0,1,1763.0,1
792,792,-0.7103194938735009,-0.7,1.0,0.0,457.0,624.0,0.0,0,1919.0,1
793,793,0.8876270155419662,0.9,0.0,0.0,331.0,826.0,0.0,1,1843.0,1
794,794,-0.5329932830833615,-0.5,1.0,0.0,445.0,956.0,0.0,0,1599.0,1
795,795,-0.6752976744372072,-0.7,0.0,1.0,432.0,998.0,1.0,0,500.0,1
796,796,0.5447488540152282,0.5,1.0,1.0,352.0,859.0,1.0,1,109.0,1
797,797,-0.7665212866394214,-0.8,0.0,1.0,489.0,846.0,1.0,0,465.0,1
798,798,-0.8792588444634101,-0.9,1.0,0.0,343.0,926.0,0.0,0,1731.0,1
799,799,0.6153442541291462,0.6,1.0,1.0,299.0,707.0,1.0,1,154.0,1
800,800,-0.760138257217403,-0.8,1.0,0.0,433.0,800.0,0.0,0,1767.0,1
801,801,-0.22373809460404948,-0.2,1.0,0.0,495.0,679.0,0.0,0,1826.0,1
802,802,-0.22833301410160434,-0.2,1.0,0.0,483.0,757.0,0.0,0,1760.0,1
803,803,-0.47110449235664964,-0.5,1.0,0.0,287.0,750.0,0.0,0,1963.0,1
804,804,-0.7197707986914029,-0.7,1.0,0.0,476.0,962.0,0.0,0,1562.0,1
805,805,-0.6677613455028792,-0.7,0.0,1.0,470.0,835.0,1.0,0,435.0,1
806,806,-0.22766412104608202,-0.2,1.0,0.0,258.0,793.0,0.0,0,1949.0,1
807,807,-0.307829189626202,-0.3,1.0,0.0,397.0,689.0,0.0,0,1914.0,1
808,808,0.5842011747573604,0.6,1.0,1.0,398.0,875.0,1.0,1,827.0,1
809,809,-0.7083328350832025,-0.7,1.0,0.0,429.0,538.0,0.0,0,2033.0,1
810,810,0.7904678025241149,0.8,0.0,0.0,298.0,640.0,0.0,1,2062.0,1
811,811,0.12818703387744435,0.1,0.0,0.0,365.0,936.0,0.0,1,1699.0,1
812,812,0.8677505322189228,0.9,1.0,1.0,486.0,936.0,1.0,1,238.0,1
813,813,0.6998627732467769,0.7,1.0,1.0,379.0,585.0,1.0,1,156.0,1
814,814,0.646477743351877,0.6,1.0,1.0,341.0,648.0,1.0,1,181.0,1
815,815,-0.3363786738526231,-0.3,0.0,1.0,378.0,950.0,1.0,0,1672.0,1
816,816,-0.36348110130060585,-0.4,0.0,1.0,463.0,997.0,1.0,0,760.0,1
817,817,-0.8766413521654127,-0.9,1.0,0.0,468.0,706.0,0.0,0,1826.0,1
818,818,-0.06307299425381241,-0.1,0.0,1.0,402.0,629.0,1.0,0,1969.0,1
819,819,0.1850376641697683,0.2,1.0,1.0,407.0,667.0,1.0,1,666.0,1
820,820,-0.5128672876049798,-0.5,1.0,0.0,455.0,927.0,0.0,0,1618.0,1
821,821,-0.16512640031070847,-0.2,1.0,0.0,412.0,934.0,0.0,0,1654.0,1
822,822,-0.6986842714530257,-0.7,0.0,1.0,296.0,800.0,1.0,0,134.0,1
823,823,-0.45026788226948805,-0.5,0.0,1.0,324.0,701.0,1.0,0,225.0,1
824,824,-0.5679108441304168,-0.6,1.0,0.0,418.0,585.0,0.0,0,1997.0,1
825,825,-0.7365583380232712,-0.7,1.0,0.0,457.0,980.0,0.0,0,1563.0,1
826,826,-0.5345460569242793,-0.5,1.0,0.0,478.0,650.0,0.0,0,1872.0,1
827,827,-0.4629589719083979,-0.5,1.0,0.0,373.0,941.0,0.0,0,1686.0,1
828,828,0.2253163414204774,0.2,1.0,1.0,413.0,637.0,1.0,1,1290.0,1
829,829,0.7233989290253674,0.7,1.0,1.0,412.0,790.0,1.0,1,408.0,1
830,830,0.5345933127933905,0.5,0.0,0.0,267.0,862.0,0.0,1,1871.0,1
831,831,0.24506028010906478,0.2,0.0,0.0,496.0,861.0,0.0,1,1643.0,1
832,832,0.3820850427852306,0.4,0.0,0.0,364.0,503.0,0.0,1,2133.0,1
833,833,-0.07715286630734386,-0.1,1.0,0.0,306.0,560.0,0.0,0,2134.0,1
834,834,-0.6989203525449634,-0.7,0.0,1.0,307.0,721.0,1.0,0,822.0,1
835,835,0.5970150649781073,0.6,0.0,0.0,436.0,826.0,0.0,1,1738.0,1
836,836,0.7766365986913214,0.8,1.0,1.0,341.0,739.0,1.0,1,510.0,1
837,837,-0.8718549721258952,-0.9,0.0,1.0,275.0,580.0,1.0,0,505.0,1
838,838,-0.3425921415267321,-0.3,0.0,1.0,351.0,715.0,1.0,0,414.0,1
839,839,0.3870126708362168,0.4,1.0,1.0,482.0,859.0,1.0,1,519.0,1
840,840,0.366450014304491,0.4,0.0,0.0,423.0,512.0,0.0,1,2065.0,1
841,841,0.1275096790071858,0.1,1.0,1.0,416.0,849.0,1.0,1,1735.0,1
842,842,-0.6803038789593858,-0.7,1.0,0.0,325.0,697.0,0.0,0,1978.0,1
843,843,0.3381275153939415,0.3,1.0,1.0,331.0,846.0,1.0,1,773.0,1
844,844,-0.2935222513328666,-0.3,1.0,0.0,438.0,834.0,0.0,0,1728.0,1
845,845,-0.7932341266248316,-0.8,0.0,1.0,291.0,782.0,1.0,0,637.0,1
846,846,0.8765006754992878,0.9,0.0,0.0,370.0,882.0,0.0,1,1748.0,1
847,847,-0.6756898534901951,-0.7,1.0,0.0,495.0,555.0,0.0,0,1950.0,1
848,848,-0.8890609949834953,-0.9,1.0,0.0,484.0,666.0,0.0,0,1850.0,1
849,849,-0.10938835180666084,-0.1,1.0,0.0,421.0,849.0,0.0,0,1730.0,1
850,850,-0.34435193280071996,-0.3,0.0,1.0,299.0,716.0,1.0,0,1245.0,1
851,851,-0.7518479180785089,-0.8,1.0,0.0,443.0,875.0,0.0,0,1682.0,1
852,852,0.8433973325958904,0.8,1.0,1.0,348.0,757.0,1.0,1,125.0,1
853,853,0.7050768593224216,0.7,0.0,0.0,416.0,551.0,0.0,1,2033.0,1
854,854,0.25029456981515075,0.3,1.0,1.0,477.0,605.0,1.0,1,248.0,1
855,855,-0.5863174852676474,-0.6,1.0,0.0,336.0,957.0,0.0,0,1707.0,1
856,856,0.18329715692786774,0.2,0.0,0.0,274.0,546.0,0.0,1,2180.0,1
857,857,-0.7636903774967542,-0.8,1.0,0.0,285.0,590.0,0.0,0,2125.0,1
858,858,-0.7281847845193534,-0.7,0.0,1.0,307.0,898.0,1.0,0,315.0,1
859,859,-0.006323076995788379,-0.0,0.0,1.0,361.0,859.0,0.0,1,1780.0,0
860,860,-0.14625399045032783,-0.1,0.0,1.0,359.0,863.0,1.0,0,1778.0,1
861,861,-0.23551692781591949,-0.2,0.0,1.0,447.0,598.0,1.0,0,1955.0,1
862,862,0.3452088734831059,0.3,0.0,0.0,469.0,978.0,0.0,1,1553.0,1
863,863,0.714874991019547,0.7,0.0,0.0,291.0,945.0,0.0,1,1764.0,1
864,864,0.47899369617103604,0.5,1.0,1.0,472.0,529.0,1.0,1,659.0,1
865,865,-0.42735863677031166,-0.4,1.0,0.0,277.0,654.0,0.0,0,2069.0,1
866,866,-0.8242667323726723,-0.8,1.0,0.0,352.0,870.0,0.0,0,1778.0,1
867,867,0.44425050882225736,0.4,1.0,1.0,365.0,874.0,1.0,1,331.0,1
868,868,-0.08540132257268584,-0.1,1.0,0.0,349.0,628.0,1.0,1,2023.0,0
869,869,-0.42893078837474674,-0.4,0.0,1.0,461.0,713.0,1.0,0,1086.0,1
870,870,-0.5977996033197358,-0.6,1.0,0.0,427.0,665.0,0.0,0,1908.0,1
871,871,0.8819417095214691,0.9,1.0,1.0,466.0,599.0,1.0,1,175.0,1
872,872,0.5283821687936411,0.5,1.0,1.0,486.0,868.0,1.0,1,466.0,1
873,873,-0.3380939254908788,-0.3,0.0,1.0,250.0,583.0,1.0,0,677.0,1
874,874,-0.8554087558666251,-0.9,0.0,1.0,459.0,564.0,1.0,0,287.0,1
875,875,-0.5361853931791574,-0.5,0.0,1.0,342.0,898.0,1.0,0,720.0,1
876,876,0.2722023263512291,0.3,0.0,0.0,438.0,982.0,0.0,1,1580.0,1
877,877,0.8598861454343075,0.9,1.0,1.0,362.0,852.0,1.0,1,96.0,1
878,878,0.1788463848496945,0.2,0.0,0.0,360.0,613.0,1.0,0,2027.0,0
879,879,0.32037438188322753,0.3,0.0,0.0,486.0,699.0,0.0,1,1815.0,1
880,880,0.4322486412770198,0.4,1.0,1.0,401.0,924.0,1.0,1,495.0,1
881,881,-0.15838850112039382,-0.2,0.0,1.0,384.0,754.0,1.0,0,1862.0,1
882,882,0.1826299948388711,0.2,1.0,1.0,262.0,722.0,1.0,1,1276.0,1
883,883,-0.3063787373143495,-0.3,0.0,1.0,355.0,695.0,1.0,0,890.0,1
884,884,0.2659004959906003,0.3,1.0,1.0,261.0,822.0,1.0,1,537.0,1
885,885,0.30821433148623434,0.3,1.0,1.0,373.0,712.0,1.0,1,315.0,1
886,886,0.5915801516423077,0.6,1.0,1.0,384.0,968.0,1.0,1,338.0,1
887,887,0.6480730192433984,0.6,0.0,0.0,274.0,674.0,0.0,1,2052.0,1
888,888,0.32628715621128046,0.3,1.0,1.0,471.0,950.0,1.0,1,399.0,1
889,889,-0.031102658352392565,-0.0,1.0,0.0,464.0,932.0,1.0,1,1124.0,0
890,890,0.7537183726139675,0.8,1.0,1.0,293.0,876.0,1.0,1,261.0,1
891,891,-0.22373640882318824,-0.2,1.0,0.0,374.0,690.0,0.0,0,1936.0,1
892,892,0.6765159350783759,0.7,1.0,1.0,416.0,615.0,1.0,1,279.0,1
893,893,-0.6537524678578818,-0.7,1.0,0.0,383.0,994.0,0.0,0,1623.0,1
894,894,-0.5110915469917754,-0.5,0.0,1.0,302.0,544.0,1.0,0,1224.0,1
895,895,-0.4638829602192865,-0.5,0.0,1.0,474.0,561.0,1.0,0,245.0,1
896,896,-0.6971962454311011,-0.7,1.0,0.0,413.0,943.0,0.0,0,1644.0,1
897,897,-0.2520345972715913,-0.3,0.0,1.0,412.0,682.0,0.0,1,1906.0,0
898,898,-0.39622957041621576,-0.4,0.0,1.0,478.0,967.0,1.0,0,1555.0,1
899,899,-0.14978502539622396,-0.1,1.0,0.0,398.0,786.0,1.0,1,136.0,0
900,900,-0.8274300735759416,-0.8,0.0,1.0,475.0,993.0,1.0,0,142.0,1
901,901,0.14891753741018,0.1,1.0,1.0,495.0,540.0,0.0,0,1965.0,0
902,902,-0.7184905986860131,-0.7,1.0,0.0,273.0,686.0,0.0,0,2041.0,1
903,903,0.7416580564211871,0.7,1.0,1.0,469.0,696.0,1.0,1,165.0,1
904,904,-0.41502186518882683,-0.4,1.0,0.0,434.0,872.0,0.0,0,1694.0,1
905,905,-0.2849569819492066,-0.3,0.0,1.0,418.0,989.0,1.0,0,313.0,1
906,906,-0.29122622235319606,-0.3,0.0,1.0,347.0,925.0,0.0,1,1728.0,0
907,907,-0.5376453155033603,-0.5,0.0,1.0,497.0,729.0,1.0,0,774.0,1
908,908,0.011222922507325928,0.0,1.0,1.0,298.0,708.0,1.0,1,1994.0,1
909,909,-0.643493179905468,-0.6,0.0,1.0,341.0,764.0,1.0,0,675.0,1
910,910,0.7585124759124046,0.8,1.0,1.0,437.0,875.0,1.0,1,188.0,1
911,911,-0.7839190707442198,-0.8,1.0,0.0,273.0,950.0,0.0,0,1777.0,1
912,912,-0.5365115755777731,-0.5,1.0,0.0,303.0,649.0,0.0,0,2048.0,1
913,913,0.5558529190145186,0.6,1.0,1.0,316.0,983.0,1.0,1,391.0,1
914,914,0.7280886086579709,0.7,1.0,1.0,419.0,744.0,1.0,1,267.0,1
915,915,0.506733133800961,0.5,1.0,1.0,475.0,914.0,1.0,1,511.0,1
916,916,0.8329976295088287,0.8,0.0,0.0,417.0,794.0,0.0,1,1789.0,1
917,917,-0.8140288003269175,-0.8,0.0,1.0,368.0,561.0,1.0,0,201.0,1
918,918,-0.19805471249318873,-0.2,1.0,0.0,391.0,893.0,1.0,1,1716.0,0
919,919,0.1033717833089779,0.1,0.0,0.0,303.0,772.0,0.0,1,1925.0,1
920,920,-0.6314478471556826,-0.6,0.0,1.0,440.0,634.0,1.0,0,316.0,1
921,921,-0.27262255722189443,-0.3,1.0,0.0,300.0,819.0,0.0,0,1881.0,1
922,922,-0.026825183245914763,-0.0,0.0,1.0,251.0,795.0,0.0,1,1954.0,0
923,923,0.5907291845359238,0.6,0.0,0.0,327.0,513.0,0.0,1,2160.0,1
924,924,-0.8335784389086855,-0.8,1.0,0.0,266.0,601.0,0.0,0,2133.0,1
925,925,-0.18262965929847297,-0.2,1.0,0.0,444.0,739.0,0.0,0,1817.0,1
926,926,-0.12829083925207851,-0.1,1.0,0.0,259.0,723.0,0.0,0,2018.0,1
927,927,0.36052035974847685,0.4,1.0,1.0,312.0,804.0,1.0,1,344.0,1
928,928,-0.6682601312971426,-0.7,1.0,0.0,426.0,857.0,0.0,0,1717.0,1
929,929,-0.14791613312393448,-0.1,1.0,0.0,291.0,745.0,0.0,0,1964.0,1
930,930,-0.8463758045339042,-0.8,0.0,1.0,366.0,891.0,1.0,0,403.0,1
931,931,-0.68087119640953,-0.7,0.0,1.0,318.0,978.0,1.0,0,444.0,1
932,932,0.33555484005465985,0.3,1.0,1.0,360.0,533.0,1.0,1,677.0,1
933,933,0.019298717749833272,0.0,0.0,0.0,351.0,749.0,0.0,1,1900.0,1
934,934,-0.8147782907649008,-0.8,1.0,0.0,362.0,895.0,0.0,0,1743.0,1
935,935,-0.08972158402306873,-0.1,0.0,1.0,256.0,984.0,1.0,0,1760.0,1
936,936,0.023994834597486636,0.0,1.0,1.0,304.0,692.0,1.0,1,1164.0,1
937,937,-0.1727149517708102,-0.2,1.0,0.0,465.0,646.0,0.0,0,1889.0,1
938,938,0.2593810613427906,0.3,1.0,1.0,326.0,902.0,1.0,1,1512.0,1
939,939,-0.7776920077145243,-0.8,0.0,1.0,492.0,709.0,1.0,0,579.0,1
940,940,-0.817430868947042,-0.8,1.0,0.0,277.0,519.0,0.0,0,2204.0,1
941,941,-0.15871249661745412,-0.2,0.0,1.0,313.0,841.0,1.0,0,1846.0,1
942,942,0.08928994215335573,0.1,0.0,0.0,491.0,989.0,0.0,1,1520.0,1
943,943,0.2525980489890439,0.3,0.0,0.0,424.0,869.0,0.0,1,1707.0,1
944,944,0.7080635134952452,0.7,0.0,0.0,268.0,735.0,0.0,1,1997.0,1
945,945,-0.46105935632424505,-0.5,0.0,1.0,296.0,903.0,1.0,0,701.0,1
946,946,0.07465340585706126,0.1,1.0,1.0,287.0,519.0,1.0,1,2194.0,1
947,947,-0.36423225067803455,-0.4,0.0,1.0,449.0,736.0,1.0,0,1815.0,1
948,948,-0.046923543496927955,-0.0,1.0,0.0,439.0,710.0,1.0,1,1231.0,0
949,949,0.8192820509219557,0.8,0.0,0.0,444.0,512.0,0.0,1,2044.0,1
950,950,-0.113849703968111,-0.1,0.0,1.0,462.0,637.0,0.0,1,1901.0,0
951,951,-0.3886388780278849,-0.4,0.0,1.0,356.0,685.0,1.0,0,1229.0,1
952,952,-0.8226009671988331,-0.8,0.0,1.0,358.0,641.0,1.0,0,451.0,1
953,953,-0.2570720559767745,-0.3,1.0,0.0,275.0,792.0,0.0,0,1933.0,1
954,954,0.3627641671553684,0.4,0.0,0.0,380.0,704.0,0.0,1,1916.0,1
955,955,0.8111167475759357,0.8,1.0,1.0,416.0,971.0,1.0,1,353.0,1
956,956,-0.18908209002697318,-0.2,1.0,0.0,439.0,742.0,0.0,0,1819.0,1
957,957,0.411065817700479,0.4,1.0,1.0,339.0,769.0,1.0,1,142.0,1
958,958,-0.28686826624811024,-0.3,0.0,1.0,430.0,919.0,1.0,0,1431.0,1
959,959,0.2882899786053129,0.3,0.0,0.0,255.0,628.0,0.0,1,2117.0,1
960,960,-0.7991453378338771,-0.8,0.0,1.0,476.0,553.0,1.0,0,361.0,1
961,961,-0.4848420160414748,-0.5,0.0,1.0,253.0,628.0,1.0,0,1359.0,1
962,962,0.37281278303926235,0.4,1.0,1.0,395.0,896.0,1.0,1,899.0,1
963,963,0.045750316013667414,0.0,0.0,0.0,366.0,762.0,0.0,1,1872.0,1
964,964,-0.21782310516513792,-0.2,1.0,0.0,403.0,737.0,0.0,0,1860.0,1
965,965,-0.565630381767404,-0.6,1.0,0.0,422.0,597.0,0.0,0,1981.0,1
966,966,-0.6854877975045953,-0.7,1.0,0.0,393.0,871.0,0.0,0,1736.0,1
967,967,0.17365189561191874,0.2,1.0,1.0,326.0,579.0,1.0,1,2095.0,1
968,968,-0.513237248620547,-0.5,1.0,0.0,313.0,662.0,0.0,0,2025.0,1
969,969,-0.12173644592816357,-0.1,1.0,0.0,369.0,828.0,0.0,0,1803.0,1
970,970,-0.4383147345317702,-0.4,0.0,1.0,458.0,753.0,1.0,0,1249.0,1
971,971,-0.8801643736554963,-0.9,0.0,1.0,370.0,709.0,1.0,0,201.0,1
972,972,-0.6394546031864368,-0.6,1.0,0.0,353.0,578.0,0.0,0,2069.0,1
973,973,-0.4338065014740477,-0.4,1.0,0.0,275.0,676.0,0.0,0,2049.0,1
974,974,0.23150410337700256,0.2,0.0,0.0,308.0,594.0,0.0,1,2098.0,1
975,975,0.22177038467541565,0.2,1.0,1.0,250.0,599.0,1.0,1,901.0,1
976,976,-0.5585037601449002,-0.6,1.0,0.0,384.0,667.0,0.0,0,1949.0,1
977,977,-0.5535922340286017,-0.6,1.0,0.0,320.0,611.0,0.0,0,2069.0,1
978,978,0.052645570283541554,0.1,1.0,1.0,478.0,864.0,0.0,0,1658.0,0
979,979,-0.6171903067356803,-0.6,0.0,1.0,412.0,722.0,1.0,0,726.0,1
980,980,0.227573612130879,0.2,0.0,0.0,364.0,979.0,0.0,1,1657.0,1
981,981,-0.04686349699968129,-0.0,0.0,1.0,277.0,611.0,1.0,0,2112.0,1
982,982,-0.07259524626039404,-0.1,1.0,0.0,302.0,527.0,0.0,0,2171.0,1
983,983,-0.5938487495859157,-0.6,1.0,0.0,290.0,982.0,0.0,0,1728.0,1
984,984,0.5732955884298071,0.6,0.0,0.0,257.0,685.0,0.0,1,2058.0,1
985,985,0.8243239931943672,0.8,1.0,1.0,419.0,852.0,1.0,1,179.0,1
986,986,-0.5103990012678592,-0.5,1.0,0.0,329.0,957.0,0.0,0,1714.0,1
987,987,-0.6729681117885558,-0.7,0.0,1.0,398.0,853.0,1.0,0,279.0,1
988,988,0.6174855783736474,0.6,0.0,0.0,355.0,884.0,0.0,1,1761.0,1
989,989,-0.41332753543055206,-0.4,1.0,0.0,388.0,593.0,0.0,0,2019.0,1
990,990,-0.04540234548389099,-0.0,1.0,0.0,365.0,957.0,0.0,0,1678.0,1
991,991,0.8335740626809648,0.8,1.0,1.0,378.0,792.0,1.0,1,240.0,1
992,992,0.46349335022192795,0.5,0.0,0.0,299.0,754.0,0.0,1,1947.0,1
993,993,-0.34921851716770846,-0.3,0.0,1.0,457.0,734.0,1.0,0,1239.0,1
994,994,0.47298184968506873,0.5,1.0,1.0,282.0,698.0,1.0,1,750.0,1
995,995,0.11601698949519534,0.1,0.0,0.0,385.0,609.0,0.0,1,2006.0,1
996,996,-0.29569222538342266,-0.3,0.0,1.0,289.0,903.0,1.0,0,738.0,1
997,997,-0.6332462407318389,-0.6,0.0,1.0,312.0,995.0,1.0,0,753.0,1
998,998,0.5523938275345702,0.6,1.0,1.0,314.0,880.0,1.0,1,386.0,1
999,999,0.166733179345124,0.2,1.0,1.0,276.0,603.0,1.0,1,811.0,1
1000,1000,-0.5849737188893742,-0.6,0.0,1.0,347.0,787.0,1.0,0,526.0,1
1001,1001,0.4087081214497298,0.4,1.0,1.0,397.0,913.0,1.0,1,300.0,1
1002,1002,-0.781866984869278,-0.8,1.0,0.0,300.0,711.0,0.0,0,1989.0,1
1003,1003,0.4079998116940592,0.4,1.0,1.0,491.0,913.0,1.0,1,336.0,1
1004,1004,0.3135175426021545,0.3,0.0,0.0,468.0,982.0,0.0,1,1550.0,1
1005,1005,0.8598023644872489,0.9,1.0,1.0,476.0,611.0,1.0,1,193.0,1
1006,1006,-0.16029726817297696,-0.2,0.0,1.0,290.0,969.0,1.0,0,1741.0,1
1007,1007,0.7147517218608205,0.7,0.0,0.0,310.0,704.0,0.0,1,1986.0,1
1008,1008,-0.8943133303436586,-0.9,0.0,1.0,307.0,758.0,1.0,0,115.0,1
1009,1009,-0.14288494148673458,-0.1,1.0,0.0,279.0,635.0,0.0,0,2086.0,1
1010,1010,-0.026678506825348225,-0.0,0.0,1.0,482.0,697.0,0.0,1,1821.0,0
1011,1011,-0.5388226013764528,-0.5,1.0,0.0,451.0,813.0,0.0,0,1736.0,1
1012,1012,0.4489796861203238,0.4,0.0,0.0,385.0,587.0,0.0,1,2028.0,1
1013,1013,-0.6650716882498694,-0.7,1.0,0.0,418.0,751.0,0.0,0,1831.0,1
1014,1014,0.8171064010913552,0.8,0.0,0.0,483.0,542.0,0.0,1,1975.0,1
1015,1015,0.49572405921780704,0.5,0.0,0.0,440.0,910.0,0.0,1,1650.0,1
1016,1016,0.3780774522125704,0.4,1.0,1.0,450.0,588.0,1.0,1,542.0,1
1017,1017,-0.519296222041062,-0.5,1.0,0.0,368.0,983.0,0.0,0,1649.0,1
1018,1018,0.5637604345960784,0.6,1.0,1.0,395.0,526.0,1.0,1,339.0,1
1019,1019,0.004945464671710975,0.0,1.0,1.0,466.0,780.0,0.0,0,1754.0,0
1020,1020,-0.15704962390002253,-0.2,0.0,1.0,363.0,770.0,1.0,0,1647.0,1
1021,1021,0.6807007159822634,0.7,0.0,0.0,266.0,518.0,0.0,1,2216.0,1
1022,1022,-0.21056491295186164,-0.2,0.0,1.0,306.0,872.0,0.0,1,1822.0,0
1023,1023,0.4549823580451774,0.5,0.0,0.0,321.0,855.0,0.0,1,1824.0,1
1024,1024,-0.5594560844830259,-0.6,0.0,1.0,255.0,923.0,1.0,0,412.0,1
1025,1025,-0.1248172417483141,-0.1,1.0,0.0,271.0,964.0,0.0,0,1765.0,1
1026,1026,-0.6555620510345216,-0.7,0.0,1.0,414.0,638.0,1.0,0,638.0,1
1027,1027,0.7112826807054397,0.7,1.0,1.0,385.0,666.0,1.0,1,109.0,1
1028,1028,0.6504876145926483,0.7,0.0,0.0,275.0,810.0,0.0,1,1915.0,1
1029,1029,0.042216180775227374,0.0,0.0,0.0,339.0,678.0,0.0,1,1983.0,1
1030,1030,-0.1601600876008189,-0.2,0.0,1.0,408.0,646.0,0.0,1,1946.0,0
1031,1031,0.3582958001420561,0.4,1.0,1.0,313.0,919.0,1.0,1,208.0,1
1032,1032,0.5167912740017185,0.5,0.0,0.0,337.0,945.0,0.0,1,1718.0,1
1033,1033,0.46154205465569287,0.5,1.0,1.0,491.0,816.0,1.0,1,433.0,1
1034,1034,-0.8318897390146875,-0.8,0.0,1.0,487.0,506.0,1.0,0,337.0,1
1035,1035,-0.7470663594136933,-0.7,0.0,1.0,440.0,754.0,1.0,0,436.0,1
1036,1036,-0.21250406235953423,-0.2,0.0,1.0,327.0,760.0,1.0,0,1913.0,1
1037,1037,0.1969089363723956,0.2,0.0,0.0,455.0,531.0,0.0,1,2014.0,1
1038,1038,0.6204234547098387,0.6,0.0,0.0,435.0,668.0,0.0,1,1897.0,1
1039,1039,0.3660011867101748,0.4,1.0,1.0,270.0,842.0,1.0,1,358.0,1
1040,1040,0.18622414578047952,0.2,0.0,0.0,479.0,578.0,1.0,0,1943.0,0
1041,1041,-0.6119545943719567,-0.6,1.0,0.0,372.0,601.0,0.0,0,2027.0,1
1042,1042,-0.07130104692327655,-0.1,0.0,1.0,272.0,812.0,1.0,0,1916.0,1
1043,1043,-0.349823317468441,-0.3,0.0,1.0,468.0,510.0,1.0,0,1692.0,1
1044,1044,-0.28680681677847186,-0.3,1.0,0.0,275.0,641.0,0.0,0,2084.0,1
1045,1045,0.4202843220995617,0.4,0.0,0.0,406.0,642.0,0.0,1,1952.0,1
1046,1046,0.009445983637624056,0.0,1.0,1.0,399.0,706.0,1.0,1,555.0,1
1047,1047,-0.6328159685693022,-0.6,1.0,0.0,412.0,508.0,0.0,0,2080.0,1
1048,1048,-0.1624694810586258,-0.2,1.0,0.0,455.0,739.0,0.0,0,1806.0,1
1049,1049,0.5653916923986467,0.6,1.0,1.0,406.0,567.0,1.0,1,367.0,1
1050,1050,-0.18922408280105163,-0.2,1.0,0.0,497.0,933.0,0.0,0,1570.0,1
1051,1051,-0.7074002438208815,-0.7,1.0,0.0,413.0,762.0,0.0,0,1825.0,1
1052,1052,0.0042367936256042515,0.0,0.0,0.0,297.0,838.0,0.0,1,1865.0,1
1053,1053,0.38438720492894374,0.4,1.0,1.0,452.0,647.0,1.0,1,641.0,1
1054,1054,0.06944931829343715,0.1,1.0,1.0,318.0,876.0,1.0,1,1806.0,1
1055,1055,-0.6932581556913957,-0.7,0.0,1.0,304.0,640.0,1.0,0,556.0,1
1056,1056,0.009201292804749128,0.0,1.0,1.0,458.0,801.0,1.0,1,361.0,1
1057,1057,0.12473156590041523,0.1,1.0,1.0,320.0,996.0,1.0,1,874.0,1
1058,1058,-0.6643713073827515,-0.7,1.0,0.0,495.0,871.0,0.0,0,1634.0,1
1059,1059,0.5319923660869191,0.5,0.0,0.0,351.0,821.0,0.0,1,1828.0,1
1060,1060,-0.27651057349747366,-0.3,1.0,0.0,272.0,525.0,0.0,0,2203.0,1
1061,1061,-0.24961874584421484,-0.2,1.0,0.0,400.0,712.0,0.0,0,1888.0,1
1062,1062,0.8580689307057997,0.9,0.0,0.0,274.0,963.0,0.0,1,1763.0,1
1063,1063,0.23808870064411336,0.2,1.0,1.0,342.0,863.0,1.0,1,1085.0,1
1064,1064,0.4404230366966079,0.4,1.0,1.0,407.0,921.0,1.0,1,462.0,1
1065,1065,-0.32929837209243273,-0.3,0.0,1.0,435.0,519.0,1.0,0,2046.0,1
1066,1066,0.6329164792236573,0.6,0.0,0.0,325.0,660.0,0.0,1,2015.0,1
1067,1067,-0.8638113864145824,-0.9,1.0,0.0,295.0,963.0,1.0,1,1742.0,0
1068,1068,-0.6789130938031993,-0.7,1.0,0.0,253.0,756.0,0.0,0,1991.0,1
1069,1069,-0.2169827145193287,-0.2,0.0,1.0,498.0,520.0,1.0,0,1982.0,1
1070,1070,0.33103265648841085,0.3,1.0,1.0,448.0,740.0,1.0,1,622.0,1
1071,1071,0.5944149232580119,0.6,1.0,1.0,320.0,917.0,1.0,1,223.0,1
1072,1072,0.729191800350517,0.7,0.0,0.0,491.0,971.0,0.0,1,1538.0,1
1073,1073,-0.642624371616899,-0.6,1.0,0.0,263.0,849.0,0.0,0,1888.0,1
1074,1074,0.17386174363384976,0.2,1.0,1.0,423.0,594.0,1.0,1,1953.0,1
1075,1075,-0.5529574569332525,-0.6,1.0,0.0,400.0,748.0,0.0,0,1852.0,1
1076,1076,-0.1927268164888919,-0.2,0.0,1.0,299.0,774.0,0.0,1,1927.0,0
1077,1077,-0.5604306177593328,-0.6,0.0,1.0,287.0,880.0,1.0,0,703.0,1
1078,1078,-0.04225766279300536,-0.0,1.0,0.0,321.0,540.0,1.0,1,749.0,0
1079,1079,0.11351207385386253,0.1,1.0,1.0,314.0,965.0,0.0,0,1721.0,0
1080,1080,0.6490888997881691,0.6,0.0,0.0,399.0,830.0,0.0,1,1771.0,1
1081,1081,0.35587763748163226,0.4,0.0,0.0,378.0,680.0,0.0,1,1942.0,1
1082,1082,0.8501443195869524,0.9,0.0,0.0,475.0,619.0,0.0,1,1906.0,1
1083,1083,-0.7183017019554627,-0.7,1.0,0.0,429.0,959.0,0.0,0,1612.0,1
1084,1084,-0.8356462822354983,-0.8,1.0,0.0,324.0,768.0,0.0,0,1908.0,1
1085,1085,-0.4943590200730519,-0.5,1.0,0.0,430.0,520.0,0.0,0,2050.0,1
1086,1086,-0.4178848108443467,-0.4,0.0,1.0,415.0,673.0,1.0,0,972.0,1
1087,1087,0.5070750250234418,0.5,0.0,0.0,481.0,928.0,0.0,1,1591.0,1
1088,1088,0.5489140965144964,0.5,1.0,1.0,352.0,739.0,1.0,1,859.0,1
1089,1089,0.2771133834794931,0.3,0.0,0.0,369.0,683.0,0.0,1,1948.0,1
1090,1090,0.053517761961719756,0.1,0.0,0.0,400.0,781.0,1.0,0,1819.0,0
1091,1091,-0.41356360206738446,-0.4,1.0,0.0,357.0,993.0,0.0,0,1650.0,1
1092,1092,0.38785557573340423,0.4,0.0,0.0,337.0,937.0,0.0,1,1726.0,1
1093,1093,-0.8123040781526158,-0.8,1.0,0.0,312.0,709.0,0.0,0,1979.0,1
1094,1094,-0.5762248929310771,-0.6,0.0,1.0,372.0,578.0,1.0,0,440.0,1
1095,1095,-0.2525950174936389,-0.3,0.0,1.0,477.0,670.0,1.0,0,1853.0,1
1096,1096,0.23639866311228463,0.2,1.0,1.0,389.0,701.0,1.0,1,510.0,1
1097,1097,0.6723462997533757,0.7,0.0,0.0,292.0,788.0,0.0,1,1920.0,1
1098,1098,-0.3299570023328081,-0.3,1.0,0.0,323.0,544.0,0.0,0,2133.0,1
1099,1099,0.8432913704864989,0.8,1.0,1.0,334.0,560.0,1.0,1,256.0,1
1100,1100,-0.8651999640860136,-0.9,0.0,1.0,253.0,914.0,1.0,0,403.0,1
1101,1101,-0.17351723005770392,-0.2,0.0,1.0,269.0,589.0,1.0,0,2142.0,1
1102,1102,0.27650799196604836,0.3,0.0,0.0,395.0,858.0,0.0,1,1747.0,1
1103,1103,-0.6117362639152093,-0.6,1.0,0.0,301.0,555.0,0.0,0,2144.0,1
1104,1104,0.17608292609155318,0.2,0.0,0.0,492.0,762.0,0.0,1,1746.0,1
1105,1105,0.42348477811152796,0.4,1.0,1.0,275.0,966.0,1.0,1,699.0,1
1106,1106,0.7082858720434669,0.7,1.0,1.0,318.0,514.0,1.0,1,268.0,1
1107,1107,-0.5293784705873475,-0.5,0.0,1.0,304.0,977.0,1.0,0,349.0,1
1108,1108,-0.4895948529569043,-0.5,0.0,1.0,319.0,613.0,1.0,0,558.0,1
1109,1109,0.151813718626724,0.2,0.0,0.0,403.0,966.0,0.0,1,1631.0,1
1110,1110,-0.8679739187013507,-0.9,1.0,0.0,477.0,608.0,0.0,0,1915.0,1
1111,1111,-0.4579214499773913,-0.5,0.0,1.0,378.0,932.0,1.0,0,1450.0,1
1112,1112,0.45993218550753057,0.5,0.0,0.0,419.0,500.0,0.0,1,2081.0,1
1113,1113,0.5096440990026782,0.5,0.0,0.0,367.0,972.0,0.0,1,1661.0,1
1114,1114,-0.8763276112841067,-0.9,0.0,1.0,346.0,822.0,1.0,0,262.0,1
1115,1115,0.8657291797494727,0.9,0.0,0.0,404.0,544.0,0.0,1,2052.0,1
1116,1116,0.039610115658267886,0.0,0.0,0.0,415.0,744.0,1.0,0,1841.0,0
1117,1117,0.08793761577320514,0.1,0.0,0.0,336.0,597.0,0.0,1,2067.0,1
1118,1118,-0.5797489684530237,-0.6,1.0,0.0,459.0,769.0,0.0,0,1772.0,1
1119,1119,-0.28942200381677485,-0.3,0.0,1.0,258.0,910.0,1.0,0,452.0,1
1120,1120,-0.33926592556859736,-0.3,0.0,1.0,374.0,616.0,1.0,0,1470.0,1
1121,1121,0.34042962600651194,0.3,0.0,0.0,450.0,750.0,0.0,1,1800.0,1
1122,1122,-0.2714374316709357,-0.3,1.0,0.0,377.0,738.0,0.0,0,1885.0,1
1123,1123,-0.021756716830520828,-0.0,0.0,1.0,272.0,776.0,1.0,0,332.0,1
1124,1124,-0.22355016809353778,-0.2,0.0,1.0,309.0,875.0,0.0,1,1816.0,0
1125,1125,0.24162877666177562,0.2,1.0,1.0,315.0,614.0,1.0,1,581.0,1
1126,1126,-0.5882608978216229,-0.6,1.0,0.0,298.0,760.0,0.0,0,1942.0,1
1127,1127,-0.10874617242294926,-0.1,0.0,1.0,268.0,749.0,0.0,1,1983.0,0
1128,1128,0.7254355428692142,0.7,1.0,1.0,453.0,806.0,1.0,1,101.0,1
1129,1129,0.7848335121904503,0.8,1.0,1.0,460.0,508.0,1.0,1,572.0,1
1130,1130,-0.7649340303008517,-0.8,0.0,1.0,464.0,752.0,1.0,0,184.0,1
1131,1131,0.12711934052406482,0.1,1.0,1.0,303.0,943.0,1.0,1,314.0,1
1132,1132,-0.7838838221437782,-0.8,1.0,0.0,396.0,842.0,0.0,0,1762.0,1
1133,1133,-0.36717984972452533,-0.4,1.0,0.0,425.0,758.0,0.0,0,1817.0,1
1134,1134,0.49271449902026665,0.5,0.0,0.0,295.0,631.0,0.0,1,2074.0,1
1135,1135,-0.3315772335534871,-0.3,0.0,1.0,442.0,667.0,1.0,0,261.0,1
1136,1136,-0.10518085723924575,-0.1,1.0,0.0,340.0,761.0,0.0,0,1899.0,1
1137,1137,-0.6857771905799872,-0.7,0.0,1.0,251.0,677.0,1.0,0,872.0,1
1138,1138,-0.4415337875278738,-0.4,0.0,1.0,428.0,683.0,1.0,0,569.0,1
1139,1139,-0.3016074671129738,-0.3,0.0,1.0,312.0,634.0,1.0,0,1354.0,1
1140,1140,-0.5078461531086156,-0.5,0.0,1.0,267.0,816.0,1.0,0,667.0,1
1141,1141,0.3153699063949139,0.3,0.0,0.0,356.0,784.0,0.0,1,1860.0,1
1142,1142,-0.7515844072894318,-0.8,1.0,0.0,454.0,587.0,0.0,0,1959.0,1
1143,1143,-0.7014277707586709,-0.7,1.0,0.0,272.0,729.0,0.0,0,1999.0,1
1144,1144,0.7259161866219502,0.7,1.0,1.0,482.0,942.0,1.0,1,396.0,1
1145,1145,0.27210072243079575,0.3,1.0,1.0,264.0,755.0,1.0,1,791.0,1
1146,1146,0.5375155064441633,0.5,1.0,1.0,327.0,983.0,1.0,1,100.0,1
1147,1147,-0.3937434794611817,-0.4,1.0,0.0,304.0,857.0,0.0,0,1839.0,1
1148,1148,-0.5565281852585786,-0.6,1.0,0.0,369.0,845.0,0.0,0,1786.0,1
1149,1149,-0.23897382940029022,-0.2,0.0,1.0,457.0,825.0,1.0,0,1238.0,1
1150,1150,-0.1295856537118023,-0.1,1.0,0.0,363.0,535.0,0.0,0,2102.0,1
1151,1151,0.48118247983662166,0.5,1.0,1.0,354.0,649.0,1.0,1,357.0,1
1152,1152,-0.47872798208091616,-0.5,0.0,1.0,459.0,531.0,1.0,0,520.0,1
1153,1153,-0.7029321718052302,-0.7,1.0,0.0,260.0,595.0,0.0,0,2145.0,1
1154,1154,0.23670602001727958,0.2,0.0,0.0,347.0,895.0,0.0,1,1758.0,1
1155,1155,-0.2545686523159403,-0.3,0.0,1.0,334.0,982.0,1.0,0,1684.0,1
1156,1156,-0.794189248899197,-0.8,0.0,1.0,257.0,966.0,1.0,0,277.0,1
1157,1157,-0.5530156510066316,-0.6,1.0,0.0,353.0,537.0,0.0,0,2110.0,1
1158,1158,-0.05195781217422191,-0.1,1.0,0.0,372.0,826.0,0.0,0,1802.0,1
1159,1159,-0.1781267453208487,-0.2,0.0,1.0,284.0,913.0,0.0,1,1803.0,0
1160,1160,0.17645163786131046,0.2,1.0,1.0,404.0,598.0,1.0,1,938.0,1
1161,1161,0.1280081004801975,0.1,1.0,1.0,477.0,806.0,0.0,0,1717.0,0
1162,1162,-0.4534400947437866,-0.5,1.0,0.0,289.0,818.0,0.0,0,1893.0,1
1163,1163,-0.7624720437746976,-0.8,1.0,0.0,412.0,896.0,0.0,0,1692.0,1
1164,1164,-0.046407825964601024,-0.0,0.0,1.0,436.0,717.0,1.0,0,1847.0,1
1165,1165,-0.6959005062602416,-0.7,0.0,1.0,380.0,583.0,1.0,0,237.0,1
1166,1166,-0.49376687167201033,-0.5,1.0,0.0,340.0,933.0,0.0,0,1727.0,1
1167,1167,-0.5175588757976933,-0.5,1.0,0.0,430.0,992.0,0.0,0,1578.0,1
1168,1168,-0.8237718713425342,-0.8,1.0,0.0,351.0,783.0,0.0,0,1866.0,1
1169,1169,0.6960014542095888,0.7,1.0,1.0,480.0,994.0,1.0,1,96.0,1
1170,1170,0.7589643281440851,0.8,0.0,0.0,327.0,829.0,0.0,1,1844.0,1
1171,1171,0.8501207535490362,0.9,0.0,0.0,360.0,614.0,0.0,1,2026.0,1
1172,1172,0.8576242547646887,0.9,0.0,0.0,275.0,614.0,0.0,1,2111.0,1
1173,1173,0.686201839960343,0.7,1.0,1.0,300.0,791.0,1.0,1,309.0,1
1174,1174,-0.7681010787353038,-0.8,1.0,0.0,392.0,872.0,0.0,0,1736.0,1
1175,1175,0.7170220069406844,0.7,0.0,0.0,387.0,684.0,0.0,1,1929.0,1
1176,1176,0.898599288337599,0.9,1.0,1.0,418.0,545.0,1.0,1,337.0,1
1177,1177,0.6215783541411383,0.6,0.0,0.0,453.0,633.0,0.0,1,1914.0,1
1178,1178,-0.8336205057173782,-0.8,1.0,0.0,434.0,976.0,0.0,0,1590.0,1
1179,1179,-0.5890575357382665,-0.6,0.0,1.0,314.0,559.0,1.0,0,1517.0,1
1180,1180,0.6111138978083793,0.6,1.0,1.0,411.0,993.0,1.0,1,296.0,1
1181,1181,-0.7784889244920102,-0.8,1.0,0.0,398.0,903.0,0.0,0,1699.0,1
1182,1182,-0.1425929296750812,-0.1,1.0,0.0,404.0,905.0,0.0,0,1691.0,1
1183,1183,0.13023603117422622,0.1,1.0,1.0,354.0,516.0,1.0,1,750.0,1
1184,1184,-0.6511335430273238,-0.7,0.0,1.0,491.0,614.0,1.0,0,835.0,1
1185,1185,0.8234636753168582,0.8,0.0,0.0,395.0,901.0,0.0,1,1704.0,1
1186,1186,-0.0725525094189875,-0.1,1.0,0.0,263.0,788.0,0.0,0,1949.0,1
1187,1187,0.4973539165303952,0.5,1.0,1.0,443.0,565.0,1.0,1,382.0,1
1188,1188,0.7619582316215648,0.8,0.0,0.0,442.0,702.0,0.0,1,1856.0,1
1189,1189,-0.15595640848230974,-0.2,0.0,1.0,294.0,540.0,0.0,1,2166.0,0
1190,1190,0.8316084917071668,0.8,1.0,1.0,478.0,987.0,1.0,1,155.0,1
1191,1191,-0.06181581455441676,-0.1,0.0,1.0,456.0,536.0,0.0,1,2008.0,0
1192,1192,0.6908318184331003,0.7,1.0,1.0,323.0,847.0,1.0,1,180.0,1
1193,1193,0.8062880708558223,0.8,0.0,0.0,419.0,613.0,0.0,1,1968.0,1
1194,1194,-0.30626926966735146,-0.3,0.0,1.0,469.0,742.0,1.0,0,1659.0,1
1195,1195,0.7585266148099788,0.8,1.0,1.0,291.0,891.0,1.0,1,218.0,1
1196,1196,-0.32779092250977415,-0.3,1.0,0.0,304.0,698.0,0.0,0,1998.0,1
1197,1197,-0.7085670224036936,-0.7,1.0,0.0,372.0,920.0,1.0,1,68.0,0
1198,1198,0.4032889161026624,0.4,0.0,0.0,484.0,912.0,0.0,1,1604.0,1
1199,1199,-0.4390468453453863,-0.4,1.0,0.0,419.0,737.0,0.0,0,1844.0,1
1200,1200,0.6171860967791093,0.6,1.0,1.0,336.0,508.0,1.0,1,326.0,1
1201,1201,-0.3776645270205211,-0.4,1.0,0.0,261.0,794.0,0.0,0,1945.0,1
1202,1202,-0.5184194122147059,-0.5,0.0,1.0,487.0,992.0,1.0,0,821.0,1
1203,1203,0.26392144242819005,0.3,0.0,0.0,461.0,649.0,0.0,1,1890.0,1
1204,1204,0.0749201342498409,0.1,0.0,0.0,314.0,878.0,0.0,1,1808.0,1
1205,1205,-0.7854273141855568,-0.8,1.0,0.0,363.0,572.0,0.0,0,2065.0,1
1206,1206,-0.8780335823919623,-0.9,0.0,1.0,381.0,714.0,1.0,0,115.0,1
1207,1207,0.02504997825802202,0.0,0.0,0.0,449.0,744.0,0.0,1,1807.0,1
1208,1208,-0.7020980105258783,-0.7,0.0,1.0,467.0,774.0,1.0,0,789.0,1
1209,1209,0.18647831393390601,0.2,0.0,0.0,463.0,646.0,0.0,1,1891.0,1
1210,1210,-0.5459301151822784,-0.5,0.0,1.0,342.0,815.0,1.0,0,543.0,1
1211,1211,0.7950659615361874,0.8,1.0,1.0,390.0,734.0,1.0,1,196.0,1
1212,1212,-0.4009143499812214,-0.4,1.0,0.0,413.0,727.0,0.0,0,1860.0,1
1213,1213,0.12336422722525942,0.1,0.0,0.0,456.0,513.0,0.0,1,2031.0,1
1214,1214,0.5010848266726501,0.5,0.0,0.0,353.0,807.0,0.0,1,1840.0,1
1215,1215,0.188917244818256,0.2,1.0,1.0,438.0,861.0,1.0,1,581.0,1
1216,1216,-0.6672030306602142,-0.7,1.0,0.0,430.0,570.0,0.0,0,2000.0,1
1217,1217,-0.7635963462686283,-0.8,1.0,0.0,300.0,584.0,0.0,0,2116.0,1
1218,1218,0.29425208731779906,0.3,0.0,0.0,375.0,701.0,0.0,1,1924.0,1
1219,1219,-0.11775918663520579,-0.1,1.0,0.0,382.0,972.0,0.0,0,1646.0,1
1220,1220,-0.5444848083341817,-0.5,1.0,0.0,425.0,542.0,0.0,0,2033.0,1
1221,1221,-0.12381903767463143,-0.1,1.0,0.0,314.0,515.0,0.0,0,2171.0,1
1222,1222,0.6541158142234565,0.7,1.0,1.0,298.0,959.0,1.0,1,393.0,1
1223,1223,-0.466666486925794,-0.5,1.0,0.0,262.0,915.0,0.0,0,1823.0,1
1224,1224,-0.12039750875209743,-0.1,0.0,1.0,394.0,966.0,1.0,0,1640.0,1
1225,1225,-0.48802111902408907,-0.5,0.0,1.0,438.0,912.0,1.0,0,490.0,1
1226,1226,0.05345464971200731,0.1,1.0,1.0,371.0,981.0,1.0,1,1648.0,1
1227,1227,0.09430015556640159,0.1,0.0,0.0,404.0,843.0,1.0,0,1753.0,0
1228,1228,0.2168793195408144,0.2,1.0,1.0,310.0,738.0,1.0,1,512.0,1
1229,1229,-0.1709501724214002,-0.2,0.0,1.0,366.0,751.0,1.0,0,1143.0,1
1230,1230,-0.6378789670766973,-0.6,0.0,1.0,349.0,842.0,1.0,0,399.0,1
1231,1231,0.18560578293129482,0.2,1.0,1.0,431.0,883.0,1.0,1,-414.0,1
1232,1232,-0.5332570130684187,-0.5,1.0,0.0,275.0,837.0,0.0,0,1888.0,1
1233,1233,0.641911305494118,0.6,1.0,1.0,365.0,505.0,1.0,1,440.0,1
1234,1234,-0.07918715459720704,-0.1,0.0,1.0,487.0,540.0,0.0,1,1973.0,0
1235,1235,0.331275309657053,0.3,1.0,1.0,380.0,875.0,1.0,1,485.0,1
1236,1236,0.8718031053282477,0.9,1.0,1.0,449.0,644.0,1.0,1,157.0,1
1237,1237,0.6711969663139624,0.7,0.0,0.0,305.0,990.0,0.0,1,1705.0,1
1238,1238,0.640257823153732,0.6,1.0,1.0,254.0,989.0,1.0,1,137.0,1
1239,1239,-0.45455359203863177,-0.5,1.0,0.0,454.0,986.0,1.0,1,-130.0,0
1240,1240,0.47702697470869093,0.5,0.0,0.0,419.0,551.0,0.0,1,2030.0,1
1241,1241,-0.0014795789001141868,-0.0,0.0,1.0,450.0,883.0,0.0,1,1667.0,0
1242,1242,0.6593329077845461,0.7,1.0,1.0,319.0,835.0,1.0,1,326.0,1
1243,1243,0.7611923023248887,0.8,1.0,1.0,474.0,690.0,1.0,1,596.0,1
1244,1244,0.07289422583424321,0.1,0.0,0.0,358.0,591.0,0.0,1,2051.0,1
1245,1245,0.5602095765708798,0.6,0.0,0.0,327.0,759.0,0.0,1,1914.0,1
1246,1246,0.3215404464053818,0.3,0.0,0.0,390.0,716.0,0.0,1,1894.0,1
1247,1247,0.8537324760772448,0.9,1.0,1.0,354.0,620.0,1.0,1,266.0,1
1248,1248,-0.8042756469254816,-0.8,0.0,1.0,383.0,592.0,1.0,0,455.0,1
1249,1249,-0.6009974241281116,-0.6,1.0,0.0,274.0,777.0,0.0,0,1949.0,1
1250,1250,-0.7483414453972191,-0.7,0.0,1.0,384.0,752.0,1.0,0,524.0,1
1251,1251,-0.7781123640935158,-0.8,1.0,0.0,441.0,819.0,0.0,0,1740.0,1
1252,1252,-0.7054752643126629,-0.7,1.0,0.0,279.0,690.0,0.0,0,2031.0,1
1253,1253,-0.4652543091316269,-0.5,1.0,0.0,442.0,991.0,0.0,0,1567.0,1
1254,1254,0.6071744490080203,0.6,0.0,0.0,282.0,923.0,0.0,1,1795.0,1
1255,1255,-0.4060040890487319,-0.4,0.0,1.0,325.0,702.0,1.0,0,973.0,1
1256,1256,0.4273011887479522,0.4,0.0,0.0,330.0,613.0,0.0,1,2057.0,1
1257,1257,-0.41424371803359933,-0.4,1.0,0.0,402.0,921.0,0.0,0,1677.0,1
1258,1258,-0.5377796141891669,-0.5,0.0,1.0,298.0,708.0,1.0,0,574.0,1
1259,1259,0.8799022629688088,0.9,1.0,1.0,316.0,662.0,1.0,1,192.0,1
1260,1260,0.6776960333816108,0.7,0.0,0.0,287.0,743.0,0.0,1,1970.0,1
1261,1261,0.7583172923712912,0.8,0.0,0.0,472.0,771.0,0.0,1,1757.0,1
1262,1262,-0.6056896891431975,-0.6,0.0,1.0,364.0,701.0,1.0,0,345.0,1
1263,1263,0.38857041070515275,0.4,0.0,0.0,268.0,927.0,0.0,1,1805.0,1
1264,1264,-0.4448371449968177,-0.4,0.0,1.0,369.0,552.0,1.0,0,759.0,1
1265,1265,-0.48129517474316635,-0.5,1.0,0.0,410.0,804.0,0.0,0,1786.0,1
1266,1266,-0.7579722019646072,-0.8,0.0,1.0,363.0,599.0,1.0,0,408.0,1
1267,1267,-0.8810190322725379,-0.9,0.0,1.0,313.0,704.0,1.0,0,243.0,1
1268,1268,0.055189690688594806,0.1,0.0,0.0,409.0,806.0,0.0,1,1785.0,1
1269,1269,0.027996678397239738,0.0,1.0,1.0,282.0,542.0,1.0,1,2176.0,1
1270,1270,0.6861222684646752,0.7,1.0,1.0,262.0,815.0,1.0,1,933.0,1
1271,1271,-0.19014331338308932,-0.2,1.0,0.0,310.0,816.0,0.0,0,1874.0,1
1272,1272,-0.19560518541385852,-0.2,1.0,0.0,309.0,624.0,1.0,1,2067.0,0
1273,1273,0.441597788440275,0.4,1.0,1.0,326.0,751.0,1.0,1,443.0,1
1274,1274,0.09109616084300454,0.1,0.0,0.0,298.0,749.0,0.0,1,1953.0,1
1275,1275,0.40247004716981627,0.4,1.0,1.0,338.0,794.0,1.0,1,738.0,1
1276,1276,-0.4592690076185082,-0.5,0.0,1.0,373.0,933.0,1.0,0,634.0,1
1277,1277,-0.8013592630258911,-0.8,0.0,1.0,462.0,862.0,1.0,0,446.0,1
1278,1278,0.3308033098352433,0.3,1.0,1.0,310.0,736.0,1.0,1,614.0,1
1279,1279,0.8981369759757057,0.9,0.0,0.0,381.0,557.0,0.0,1,2062.0,1
1280,1280,0.8597719522019655,0.9,1.0,1.0,463.0,731.0,1.0,1,576.0,1
1281,1281,0.15463425939551823,0.2,0.0,0.0,396.0,962.0,0.0,1,1642.0,1
1282,1282,0.09384785461609035,0.1,0.0,0.0,257.0,963.0,1.0,0,1780.0,0
1283,1283,-0.8827283333028685,-0.9,0.0,1.0,428.0,833.0,1.0,0,159.0,1
1284,1284,0.06692684292125994,0.1,0.0,0.0,494.0,915.0,0.0,1,1591.0,1
1285,1285,-0.5143750668414439,-0.5,0.0,1.0,493.0,623.0,1.0,0,644.0,1
1286,1286,-0.54435415117015,-0.5,0.0,1.0,392.0,650.0,1.0,0,368.0,1
1287,1287,-0.8600560274844324,-0.9,1.0,0.0,455.0,714.0,0.0,0,1831.0,1
1288,1288,-0.2805243520932674,-0.3,0.0,1.0,397.0,658.0,1.0,0,1945.0,1
1289,1289,0.8793204849730664,0.9,0.0,0.0,318.0,668.0,0.0,1,2014.0,1
1290,1290,-0.3520740185923362,-0.4,0.0,1.0,338.0,507.0,1.0,0,1025.0,1
1291,1291,-0.1151450716597765,-0.1,1.0,0.0,350.0,716.0,0.0,0,1934.0,1
1292,1292,-0.3620920664962236,-0.4,0.0,1.0,341.0,738.0,1.0,0,1921.0,1
1293,1293,0.3706487192063078,0.4,1.0,1.0,304.0,952.0,1.0,1,274.0,1
1294,1294,-0.1528461290487968,-0.2,0.0,1.0,434.0,539.0,1.0,0,1227.0,1
1295,1295,0.2745178715315678,0.3,1.0,1.0,365.0,720.0,1.0,1,405.0,1
1296,1296,-0.8882976306509078,-0.9,0.0,1.0,328.0,997.0,1.0,0,315.0,1
1297,1297,-0.7591061456819798,-0.8,0.0,1.0,344.0,787.0,1.0,0,219.0,1
1298,1298,0.7773032301669055,0.8,0.0,0.0,324.0,825.0,0.0,1,1851.0,1
1299,1299,-0.2672319908500703,-0.3,0.0,1.0,308.0,791.0,1.0,0,521.0,1
1300,1300,0.7753373466273311,0.8,0.0,0.0,416.0,790.0,1.0,0,1794.0,0
1301,1301,-0.6651822001129922,-0.7,1.0,0.0,267.0,810.0,0.0,0,1923.0,1
1302,1302,0.09523115281361094,0.1,1.0,1.0,408.0,574.0,1.0,1,718.0,1
1303,1303,0.32664494505517905,0.3,1.0,1.0,393.0,990.0,1.0,1,897.0,1
1304,1304,0.5579524770785004,0.6,0.0,0.0,267.0,745.0,0.0,1,1988.0,1
1305,1305,-0.6970969698241055,-0.7,0.0,1.0,386.0,667.0,1.0,0,347.0,1
1306,1306,-0.5037339639055034,-0.5,0.0,1.0,255.0,777.0,1.0,0,1428.0,1
1307,1307,-0.381255251530361,-0.4,0.0,1.0,344.0,819.0,1.0,0,577.0,1
1308,1308,0.7569213471584956,0.8,1.0,1.0,331.0,787.0,1.0,1,262.0,1
1309,1309,-0.7043907429984257,-0.7,0.0,1.0,460.0,775.0,1.0,0,295.0,1
1310,1310,0.7226780187358085,0.7,1.0,1.0,351.0,820.0,1.0,1,269.0,1
1311,1311,-0.4323621779191584,-0.4,0.0,1.0,423.0,774.0,1.0,0,603.0,1
1312,1312,-0.7558709269268717,-0.8,1.0,0.0,496.0,760.0,0.0,0,1744.0,1
1313,1313,0.5283086498055477,0.5,0.0,0.0,380.0,592.0,0.0,1,2028.0,1
1314,1314,0.633060227730288,0.6,1.0,1.0,343.0,696.0,1.0,1,31.0,1
1315,1315,0.07999605026709633,0.1,0.0,0.0,396.0,507.0,0.0,1,2097.0,1
1316,1316,-0.6877247808660403,-0.7,0.0,1.0,444.0,890.0,1.0,0,156.0,1
1317,1317,0.7711640286064704,0.8,1.0,1.0,321.0,803.0,1.0,1,176.0,1
1318,1318,0.7670179511154956,0.8,1.0,1.0,448.0,546.0,1.0,1,126.0,1
1319,1319,-0.6455291425099436,-0.6,1.0,0.0,301.0,813.0,0.0,0,1886.0,1
1320,1320,0.21739006266697702,0.2,1.0,1.0,448.0,988.0,1.0,1,864.0,1
1321,1321,-0.5407493634480702,-0.5,1.0,0.0,279.0,740.0,0.0,0,1981.0,1
1322,1322,-0.302803051008003,-0.3,0.0,1.0,409.0,880.0,1.0,0,1711.0,1
1323,1323,0.030351418603160707,0.0,1.0,1.0,343.0,854.0,1.0,1,863.0,1
1324,1324,-0.6030718756129682,-0.6,1.0,0.0,263.0,796.0,0.0,0,1941.0,1
1325,1325,-0.8953668961244229,-0.9,1.0,0.0,285.0,969.0,0.0,0,1746.0,1
1326,1326,0.7882435950397509,0.8,1.0,1.0,497.0,726.0,1.0,1,277.0,1
1327,1327,-0.6585018449320741,-0.7,1.0,0.0,481.0,894.0,0.0,0,1625.0,1
1328,1328,-0.5449530725805767,-0.5,0.0,1.0,431.0,870.0,1.0,0,919.0,1
1329,1329,-0.7350837011578545,-0.7,1.0,0.0,430.0,708.0,0.0,0,1862.0,1
1330,1330,-0.642461069760969,-0.6,0.0,1.0,397.0,673.0,1.0,0,270.0,1
1331,1331,0.06557680321783554,0.1,0.0,0.0,382.0,706.0,1.0,0,1912.0,0
1332,1332,-0.042095850041980576,-0.0,1.0,0.0,416.0,580.0,0.0,0,2004.0,1
1333,1333,-0.12078724738728341,-0.1,1.0,0.0,314.0,661.0,0.0,0,2025.0,1
1334,1334,-0.09694344009688094,-0.1,1.0,0.0,279.0,713.0,0.0,0,2008.0,1
1335,1335,0.23900341105340306,0.2,1.0,1.0,475.0,612.0,1.0,1,683.0,1
1336,1336,0.20855902433567708,0.2,0.0,0.0,295.0,661.0,0.0,1,2044.0,1
1337,1337,0.36466104889688944,0.4,1.0,1.0,403.0,880.0,1.0,1,597.0,1
1338,1338,0.8009718561984726,0.8,1.0,1.0,335.0,917.0,1.0,1,128.0,1
1339,1339,0.20759738851659126,0.2,0.0,0.0,482.0,664.0,0.0,1,1854.0,1
1340,1340,-0.5256753292526952,-0.5,0.0,1.0,256.0,785.0,1.0,0,269.0,1
1341,1341,0.08078640366528989,0.1,0.0,0.0,360.0,516.0,0.0,1,2124.0,1
1342,1342,0.5391250463008922,0.5,1.0,1.0,280.0,944.0,1.0,1,606.0,1
1343,1343,0.476696527516543,0.5,1.0,1.0,338.0,714.0,1.0,1,468.0,1
1344,1344,0.36614960605809854,0.4,0.0,0.0,355.0,950.0,0.0,1,1695.0,1
1345,1345,0.6681629290535246,0.7,1.0,1.0,279.0,644.0,1.0,1,257.0,1
1346,1346,-0.4941660746955014,-0.5,1.0,0.0,382.0,844.0,0.0,0,1774.0,1
1347,1347,0.7048235724417856,0.7,1.0,1.0,266.0,503.0,1.0,1,241.0,1
1348,1348,-0.38748628624671466,-0.4,0.0,1.0,314.0,797.0,1.0,0,1139.0,1
1349,1349,-0.29626708478073593,-0.3,0.0,1.0,393.0,987.0,1.0,0,1620.0,1
1350,1350,-0.8505825895220368,-0.9,0.0,1.0,458.0,514.0,1.0,0,138.0,1
1351,1351,0.23609401053784962,0.2,1.0,1.0,431.0,673.0,1.0,1,1626.0,1
1352,1352,0.2533465744363629,0.3,1.0,1.0,253.0,580.0,1.0,1,797.0,1
1353,1353,-0.1627345326649885,-0.2,1.0,0.0,423.0,875.0,0.0,0,1702.0,1
1354,1354,-0.09167858685672392,-0.1,1.0,0.0,334.0,783.0,1.0,1,1883.0,0
1355,1355,-0.3993784140104033,-0.4,0.0,1.0,302.0,725.0,1.0,0,523.0,1
1356,1356,-0.4935642693452076,-0.5,0.0,1.0,288.0,590.0,1.0,0,312.0,1
1357,1357,-0.16354874843911837,-0.2,1.0,0.0,364.0,969.0,1.0,1,1667.0,0
1358,1358,-0.6778093480869101,-0.7,1.0,0.0,295.0,677.0,0.0,0,2028.0,1
1359,1359,0.6355326066767378,0.6,1.0,1.0,462.0,987.0,1.0,1,321.0,1
1360,1360,-0.42282157251411173,-0.4,1.0,0.0,351.0,515.0,0.0,0,2134.0,1
1361,1361,-0.38387864102785585,-0.4,1.0,0.0,389.0,979.0,0.0,0,1632.0,1
1362,1362,0.47394292150470807,0.5,0.0,0.0,474.0,956.0,0.0,1,1570.0,1
1363,1363,-0.14239940525282813,-0.1,0.0,1.0,482.0,768.0,0.0,1,1750.0,0
1364,1364,0.6698326874415531,0.7,0.0,0.0,463.0,791.0,0.0,1,1746.0,1
1365,1365,-0.4314981486463971,-0.4,0.0,1.0,386.0,585.0,1.0,0,809.0,1
1366,1366,0.3927093387095738,0.4,0.0,0.0,319.0,605.0,0.0,1,2076.0,1
1367,1367,0.7975709178874492,0.8,1.0,1.0,252.0,694.0,1.0,1,254.0,1
1368,1368,-0.4800392900080953,-0.5,0.0,1.0,405.0,534.0,1.0,0,1201.0,1
1369,1369,-0.634695962442319,-0.6,0.0,1.0,426.0,890.0,1.0,0,914.0,1
1370,1370,0.12342949539966941,0.1,0.0,0.0,250.0,514.0,0.0,1,2236.0,1
1371,1371,-0.8520106793125174,-0.9,1.0,0.0,319.0,635.0,0.0,0,2046.0,1
1372,1372,0.8574328832561336,0.9,0.0,0.0,420.0,532.0,0.0,1,2048.0,1
1373,1373,0.48831953604567013,0.5,1.0,1.0,437.0,619.0,1.0,1,314.0,1
1374,1374,0.8803720792399244,0.9,1.0,1.0,326.0,574.0,1.0,1,250.0,1
1375,1375,0.39033975949628796,0.4,1.0,1.0,353.0,612.0,1.0,1,885.0,1
1376,1376,0.6917452774792104,0.7,1.0,1.0,489.0,542.0,1.0,1,439.0,1
1377,1377,0.33754866927511185,0.3,0.0,0.0,468.0,601.0,0.0,1,1931.0,1
1378,1378,0.5488276313873427,0.5,1.0,1.0,260.0,827.0,1.0,1,503.0,1
1379,1379,-0.6000449545481845,-0.6,1.0,0.0,496.0,580.0,0.0,0,1924.0,1
1380,1380,-0.149036618015417,-0.1,0.0,1.0,343.0,667.0,1.0,0,1450.0,1
1381,1381,-0.38932117817385425,-0.4,1.0,0.0,349.0,527.0,0.0,0,2124.0,1
1382,1382,0.819562166386889,0.8,1.0,1.0,359.0,612.0,1.0,1,119.0,1
1383,1383,-0.4487467047349324,-0.4,1.0,0.0,441.0,628.0,0.0,0,1931.0,1
1384,1384,0.720335571359276,0.7,1.0,1.0,283.0,596.0,1.0,1,481.0,1
1385,1385,0.3771996724218908,0.4,1.0,1.0,299.0,915.0,1.0,1,596.0,1
1386,1386,-0.1265100674194365,-0.1,1.0,0.0,345.0,512.0,0.0,0,2143.0,1
1387,1387,0.5157181622035557,0.5,1.0,1.0,302.0,756.0,1.0,1,122.0,1
1388,1388,-0.1517776516035031,-0.2,1.0,0.0,486.0,644.0,0.0,0,1870.0,1
1389,1389,0.3924114070163326,0.4,1.0,1.0,274.0,636.0,1.0,1,450.0,1
1390,1390,0.20571597304811673,0.2,0.0,0.0,284.0,538.0,1.0,0,2178.0,0
1391,1391,-0.3270166156023594,-0.3,1.0,0.0,275.0,633.0,0.0,0,2092.0,1
1392,1392,0.6069699721775427,0.6,1.0,1.0,313.0,515.0,1.0,1,672.0,1
1393,1393,-0.3247257532825739,-0.3,1.0,0.0,262.0,883.0,0.0,0,1855.0,1
1394,1394,0.6628716739889197,0.7,0.0,0.0,413.0,628.0,0.0,1,1959.0,1
1395,1395,0.10326092973803525,0.1,0.0,0.0,442.0,622.0,0.0,1,1936.0,1
1396,1396,0.6175654816788868,0.6,0.0,0.0,394.0,970.0,0.0,1,1636.0,1
1397,1397,-0.08185173560483894,-0.1,0.0,1.0,396.0,788.0,0.0,1,1816.0,0
1398,1398,-0.8893852908928285,-0.9,0.0,1.0,359.0,834.0,1.0,0,237.0,1
1399,1399,0.004745842283027879,0.0,1.0,1.0,485.0,739.0,1.0,1,1776.0,1
1400,1400,0.6610748477479674,0.7,1.0,1.0,432.0,544.0,1.0,1,354.0,1
1401,1401,0.5149858755287046,0.5,1.0,1.0,452.0,630.0,1.0,1,778.0,1
1402,1402,-0.14870651310388894,-0.1,0.0,1.0,395.0,704.0,1.0,0,771.0,1
1403,1403,-0.2022117954653404,-0.2,0.0,1.0,490.0,527.0,0.0,1,1983.0,0
1404,1404,0.044893819129738555,0.0,0.0,0.0,468.0,992.0,1.0,0,1540.0,0
1405,1405,0.6713245766363839,0.7,1.0,1.0,397.0,828.0,1.0,1,425.0,1
1406,1406,-0.5521258069804484,-0.6,1.0,0.0,265.0,611.0,0.0,0,2124.0,1
1407,1407,0.45566853320180145,0.5,1.0,1.0,478.0,782.0,1.0,1,510.0,1
1408,1408,-0.34371832477878084,-0.3,0.0,1.0,251.0,784.0,0.0,1,1965.0,0
1409,1409,0.7453078748437284,0.7,0.0,0.0,318.0,586.0,0.0,1,2096.0,1
1410,1410,0.4921724174643288,0.5,1.0,1.0,294.0,602.0,1.0,1,414.0,1
1411,1411,0.5247557430648638,0.5,0.0,0.0,399.0,922.0,0.0,1,1679.0,1
1412,1412,-0.005321303780481235,-0.0,1.0,0.0,442.0,734.0,1.0,1,1824.0,0
1413,1413,0.11421619936257754,0.1,1.0,1.0,282.0,555.0,1.0,1,253.0,1
1414,1414,0.22858353679543375,0.2,0.0,0.0,480.0,524.0,0.0,1,1996.0,1
1415,1415,0.31479166097612044,0.3,0.0,0.0,381.0,969.0,0.0,1,1650.0,1
1416,1416,-0.7832254239958073,-0.8,0.0,1.0,371.0,576.0,1.0,0,333.0,1
1417,1417,-0.45796163718061705,-0.5,1.0,0.0,410.0,571.0,0.0,0,2019.0,1
1418,1418,0.4148335678880791,0.4,0.0,0.0,437.0,952.0,0.0,1,1611.0,1
1419,1419,-0.40748482897630806,-0.4,0.0,1.0,327.0,994.0,1.0,0,1319.0,1
1420,1420,0.7463336463889126,0.7,0.0,0.0,258.0,514.0,0.0,1,2228.0,1
1421,1421,0.20839424101813508,0.2,1.0,1.0,344.0,840.0,1.0,1,1616.0,1
1422,1422,-0.6566685593028618,-0.7,0.0,1.0,483.0,696.0,1.0,0,761.0,1
1423,1423,0.19912248772968233,0.2,0.0,0.0,343.0,822.0,0.0,1,1835.0,1
1424,1424,0.5888613911713413,0.6,0.0,0.0,468.0,982.0,0.0,1,1550.0,1
1425,1425,0.6230070088836922,0.6,1.0,1.0,326.0,738.0,1.0,1,146.0,1
1426,1426,-0.5200686058545589,-0.5,0.0,1.0,264.0,726.0,1.0,0,1240.0,1
1427,1427,0.7161234464832428,0.7,1.0,1.0,452.0,821.0,1.0,1,317.0,1
1428,1428,-0.34335101208838303,-0.3,0.0,1.0,299.0,600.0,1.0,0,1261.0,1
1429,1429,-0.18742934325922733,-0.2,1.0,0.0,340.0,921.0,0.0,0,1739.0,1
1430,1430,-0.4450080695635746,-0.4,1.0,0.0,264.0,508.0,0.0,0,2228.0,1
1431,1431,-0.4623173430642368,-0.5,0.0,1.0,450.0,799.0,1.0,0,791.0,1
1432,1432,0.8391132460872265,0.8,1.0,1.0,468.0,647.0,1.0,1,125.0,1
1433,1433,0.8201253996632699,0.8,1.0,1.0,400.0,677.0,1.0,1,323.0,1
1434,1434,0.44091692306638264,0.4,0.0,0.0,270.0,664.0,0.0,1,2066.0,1
1435,1435,0.8082277658425875,0.8,0.0,0.0,384.0,880.0,0.0,1,1736.0,1
1436,1436,0.024067668096783068,0.0,1.0,1.0,453.0,661.0,1.0,1,1886.0,1
1437,1437,0.48571415282575814,0.5,1.0,1.0,278.0,547.0,1.0,1,75.0,1
1438,1438,-0.496365057389971,-0.5,0.0,1.0,434.0,916.0,1.0,0,430.0,1
1439,1439,-0.13793346303232146,-0.1,0.0,1.0,260.0,898.0,0.0,1,1842.0,0
1440,1440,0.28232824737510154,0.3,0.0,0.0,268.0,949.0,0.0,1,1783.0,1
1441,1441,0.8876922230575243,0.9,0.0,0.0,352.0,881.0,0.0,1,1767.0,1
1442,1442,0.6579259596107846,0.7,1.0,1.0,394.0,630.0,1.0,1,-34.0,1
1443,1443,0.03915745143129623,0.0,0.0,0.0,390.0,690.0,0.0,1,1920.0,1
1444,1444,0.5871739508416381,0.6,0.0,0.0,392.0,651.0,0.0,1,1957.0,1
1445,1445,0.3308597078241168,0.3,1.0,1.0,438.0,779.0,1.0,1,1193.0,1
1446,1446,-0.806883587715743,-0.8,0.0,1.0,391.0,634.0,1.0,0,695.0,1
1447,1447,-0.4182958793764238,-0.4,1.0,0.0,391.0,769.0,0.0,0,1840.0,1
1448,1448,0.619960860650615,0.6,0.0,0.0,277.0,982.0,0.0,1,1741.0,1
1449,1449,-0.34031049389388623,-0.3,1.0,0.0,362.0,610.0,0.0,0,2028.0,1
1450,1450,-0.10695545275820473,-0.1,0.0,1.0,284.0,701.0,0.0,1,2015.0,0
1451,1451,-0.29548191235120147,-0.3,1.0,0.0,376.0,824.0,0.0,0,1800.0,1
1452,1452,0.18845548234952447,0.2,0.0,0.0,293.0,993.0,1.0,0,454.0,0
1453,1453,-0.45633902828158024,-0.5,0.0,1.0,387.0,508.0,1.0,0,465.0,1
1454,1454,-0.019521002794454678,-0.0,1.0,0.0,422.0,923.0,0.0,0,1655.0,1
1455,1455,-0.8356199283307809,-0.8,1.0,0.0,498.0,747.0,0.0,0,1755.0,1
1456,1456,0.1129369841788731,0.1,1.0,1.0,282.0,835.0,1.0,1,1883.0,1
1457,1457,0.3449763859120617,0.3,1.0,1.0,310.0,710.0,1.0,1,570.0,1
1458,1458,0.38972287025349417,0.4,0.0,0.0,358.0,821.0,0.0,1,1821.0,1
1459,1459,-0.6266617398110126,-0.6,0.0,1.0,465.0,582.0,1.0,0,443.0,1
1460,1460,-0.218586807167527,-0.2,1.0,0.0,282.0,558.0,0.0,0,2160.0,1
1461,1461,-0.3567998758247265,-0.4,0.0,1.0,298.0,689.0,1.0,0,683.0,1
1462,1462,-0.1082229853009048,-0.1,0.0,1.0,350.0,807.0,1.0,0,1843.0,1
1463,1463,0.6071234481320157,0.6,1.0,1.0,349.0,845.0,1.0,1,376.0,1
1464,1464,-0.2777850243355863,-0.3,0.0,1.0,264.0,890.0,1.0,0,1846.0,1
1465,1465,-0.7331699029663956,-0.7,1.0,0.0,309.0,635.0,0.0,0,2056.0,1
1466,1466,-0.20718136120947106,-0.2,1.0,0.0,380.0,952.0,1.0,1,1668.0,0
1467,1467,-0.2678717923770976,-0.3,1.0,0.0,444.0,545.0,0.0,0,2011.0,1
1468,1468,-0.5641649812193251,-0.6,0.0,1.0,253.0,729.0,1.0,0,618.0,1
1469,1469,0.15303004967084088,0.2,0.0,0.0,284.0,790.0,0.0,1,1926.0,1
1470,1470,-0.11800547597204203,-0.1,1.0,0.0,277.0,614.0,0.0,0,2109.0,1
1471,1471,-0.4229749779126401,-0.4,1.0,0.0,291.0,962.0,0.0,0,1747.0,1
1472,1472,0.04748362215507074,0.0,1.0,1.0,466.0,527.0,1.0,1,1427.0,1
1473,1473,-0.2369405489371248,-0.2,0.0,1.0,349.0,702.0,1.0,0,1949.0,1
1474,1474,-0.17170318608413504,-0.2,0.0,1.0,290.0,693.0,1.0,0,1727.0,1
1475,1475,0.7552771941691226,0.8,1.0,1.0,267.0,801.0,1.0,1,582.0,1
1476,1476,-0.8708967112551134,-0.9,0.0,1.0,446.0,948.0,1.0,0,226.0,1
1477,1477,0.27663017465936857,0.3,1.0,1.0,482.0,620.0,1.0,1,458.0,1
1478,1478,-0.10886951549066715,-0.1,1.0,0.0,354.0,876.0,1.0,1,930.0,0
1479,1479,0.38535624825996917,0.4,0.0,0.0,487.0,921.0,0.0,1,1592.0,1
