,trial,coherence,coherence_bin,green_side,correct_side,target_onset,checker_onset,decision,green_decision,decision_time,correct_decision
0,0,-0.11221921787430555,-0.1,1.0,0.0,361.0,920.0,0.0,0,1719.0,1
1,1,0.8989364141440098,0.9,1.0,1.0,327.0,728.0,0.0,0,1945.0,0
2,2,0.48732125883966415,0.5,0.0,0.0,474.0,684.0,0.0,1,1842.0,1
3,3,-0.7924495700435482,-0.8,1.0,0.0,361.0,839.0,0.0,0,1800.0,1
4,4,-0.8574817165492628,-0.9,1.0,0.0,408.0,759.0,0.0,0,1833.0,1
5,5,-0.43698547357955947,-0.4,0.0,1.0,384.0,988.0,0.0,1,1628.0,0
6,6,-0.4480589775191203,-0.4,0.0,1.0,435.0,797.0,0.0,1,1768.0,0
7,7,0.5386840283904203,0.5,1.0,1.0,318.0,638.0,0.0,0,2044.0,0
8,8,-0.28175975584345236,-0.3,0.0,1.0,266.0,575.0,0.0,1,2159.0,0
9,9,0.7762210786571652,0.8,1.0,1.0,496.0,739.0,0.0,0,1765.0,0
10,10,0.5740367831092722,0.6,0.0,0.0,283.0,987.0,0.0,1,1730.0,1
11,11,-0.7833703517039747,-0.8,0.0,1.0,334.0,678.0,0.0,1,1988.0,0
12,12,0.18871526862700005,0.2,0.0,0.0,441.0,961.0,0.0,1,1598.0,1
13,13,0.23899741897603877,0.2,1.0,1.0,293.0,917.0,0.0,0,1790.0,0
14,14,-0.4333545804023816,-0.4,1.0,0.0,348.0,861.0,0.0,0,1791.0,1
15,15,0.279807482284676,0.3,1.0,1.0,463.0,874.0,0.0,0,1663.0,0
16,16,-0.7960500210347586,-0.8,0.0,1.0,389.0,735.0,0.0,1,1876.0,0
17,17,-0.7737763230597197,-0.8,0.0,1.0,360.0,561.0,0.0,1,2079.0,0
18,18,-0.44859254229339135,-0.4,1.0,0.0,390.0,655.0,0.0,0,1955.0,1
19,19,-0.23377915133363958,-0.2,0.0,1.0,312.0,775.0,0.0,1,1913.0,0
20,20,-0.07763122315567672,-0.1,1.0,0.0,407.0,523.0,0.0,0,2070.0,1
21,21,-0.602100082371503,-0.6,0.0,1.0,473.0,604.0,0.0,1,1923.0,0
22,22,0.18919679632205944,0.2,0.0,0.0,477.0,598.0,0.0,1,1925.0,1
23,23,-0.34847493376059235,-0.3,0.0,1.0,379.0,558.0,0.0,1,2063.0,0
24,24,-0.14160747390490236,-0.1,0.0,1.0,466.0,922.0,0.0,1,-1378.0,0
25,25,0.45453556871404965,0.5,1.0,1.0,303.0,516.0,1.0,1,-749.0,1
26,26,-0.27318795782529637,-0.3,1.0,0.0,277.0,881.0,0.0,0,1842.0,1
27,27,-0.6042672496998974,-0.6,1.0,0.0,324.0,687.0,0.0,0,1989.0,1
28,28,-0.08074057765305176,-0.1,1.0,0.0,263.0,626.0,0.0,0,2111.0,1
29,29,0.09416446226903108,0.1,1.0,1.0,291.0,712.0,0.0,0,1997.0,0
30,30,0.34571343570805635,0.3,1.0,1.0,492.0,807.0,0.0,0,1701.0,0
31,31,-0.1300844668464981,-0.1,1.0,0.0,250.0,928.0,0.0,0,1822.0,1
32,32,-0.37684237334010773,-0.4,0.0,1.0,488.0,947.0,0.0,1,1565.0,0
33,33,0.6717866233233843,0.7,0.0,0.0,260.0,676.0,0.0,1,2064.0,1
34,34,0.32917225880084666,0.3,0.0,0.0,466.0,687.0,0.0,1,1847.0,1
35,35,-0.2525227444988034,-0.3,1.0,0.0,301.0,908.0,0.0,0,1791.0,1
36,36,0.860536100399696,0.9,0.0,0.0,406.0,836.0,0.0,1,1758.0,1
37,37,0.023994472962609592,0.0,1.0,1.0,258.0,604.0,0.0,0,2138.0,0
38,38,-0.19754493518040994,-0.2,1.0,0.0,257.0,506.0,1.0,1,-753.0,0
39,39,-0.22963361956937556,-0.2,1.0,0.0,397.0,704.0,0.0,0,1899.0,1
40,40,0.7438970670015893,0.7,1.0,1.0,451.0,658.0,0.0,0,1891.0,0
41,41,-0.5769452092370049,-0.6,0.0,1.0,343.0,993.0,0.0,1,1664.0,0
42,42,0.38091070618815126,0.4,1.0,1.0,271.0,906.0,0.0,0,1823.0,0
43,43,0.44670092120835403,0.4,1.0,1.0,457.0,748.0,0.0,0,1795.0,0
44,44,0.6242257072683447,0.6,0.0,0.0,474.0,677.0,1.0,0,-1121.0,0
45,45,0.35653560076899227,0.4,1.0,1.0,344.0,802.0,0.0,0,1854.0,0
46,46,-0.6188846185233616,-0.6,0.0,1.0,421.0,957.0,0.0,1,1622.0,0
47,47,0.3942132048800703,0.4,1.0,1.0,470.0,561.0,0.0,0,1969.0,0
48,48,-0.6118642848963016,-0.6,0.0,1.0,331.0,979.0,0.0,1,1690.0,0
49,49,-0.09469587027126336,-0.1,1.0,0.0,344.0,752.0,0.0,0,1904.0,1
50,50,-0.697473011530379,-0.7,0.0,1.0,341.0,683.0,0.0,1,1976.0,0
51,51,0.3080640672103351,0.3,0.0,0.0,481.0,926.0,0.0,1,1593.0,1
52,52,0.29285735142140046,0.3,1.0,1.0,381.0,937.0,0.0,0,1682.0,0
53,53,0.8035641054006565,0.8,1.0,1.0,289.0,771.0,0.0,0,1940.0,0
54,54,0.6312681474824057,0.6,1.0,1.0,404.0,948.0,0.0,0,1648.0,0
55,55,0.19286102509798664,0.2,0.0,0.0,465.0,657.0,0.0,1,1878.0,1
56,56,0.3449980059877963,0.3,0.0,0.0,324.0,999.0,0.0,1,1677.0,1
57,57,0.6542545460095398,0.7,0.0,0.0,476.0,927.0,0.0,1,1597.0,1
58,58,0.6502162154827297,0.7,0.0,0.0,383.0,930.0,0.0,1,1687.0,1
59,59,0.1531336835578817,0.2,0.0,0.0,313.0,792.0,0.0,1,1895.0,1
60,60,0.7209053281870096,0.7,1.0,1.0,417.0,649.0,0.0,0,1934.0,0
61,61,0.8239432700181378,0.8,0.0,0.0,401.0,989.0,0.0,1,1610.0,1
62,62,0.5727547015031277,0.6,1.0,1.0,306.0,709.0,0.0,0,1985.0,0
63,63,-0.5675806184037682,-0.6,1.0,0.0,364.0,742.0,0.0,0,1894.0,1
64,64,-0.3725344496493862,-0.4,1.0,0.0,355.0,867.0,0.0,0,1778.0,1
65,65,0.6395594345461116,0.6,1.0,1.0,458.0,615.0,0.0,0,1927.0,0
66,66,0.15617296572855632,0.2,1.0,1.0,458.0,619.0,0.0,0,1923.0,0
67,67,-0.18926299152389492,-0.2,1.0,0.0,365.0,786.0,0.0,0,1849.0,1
68,68,-0.29300032946276855,-0.3,0.0,1.0,461.0,556.0,0.0,1,1983.0,0
69,69,0.08051196316693832,0.1,1.0,1.0,428.0,689.0,0.0,0,1883.0,0
70,70,0.09668194754355408,0.1,1.0,1.0,257.0,675.0,0.0,0,-682.0,0
71,71,-0.24566993692528882,-0.2,1.0,0.0,409.0,691.0,0.0,0,1900.0,1
72,72,-0.8217003084876978,-0.8,0.0,1.0,486.0,526.0,0.0,1,1988.0,0
73,73,-0.8011930011784654,-0.8,0.0,1.0,332.0,945.0,0.0,1,1723.0,0
74,74,-0.634343638699445,-0.6,1.0,0.0,330.0,554.0,0.0,0,2116.0,1
75,75,0.48177933694839903,0.5,1.0,1.0,292.0,896.0,0.0,0,-1168.0,0
76,76,0.42052083173255494,0.4,0.0,0.0,425.0,669.0,0.0,1,1906.0,1
77,77,0.6722390897042035,0.7,1.0,1.0,264.0,804.0,0.0,0,1932.0,0
78,78,-0.7121765267008635,-0.7,1.0,0.0,404.0,623.0,0.0,0,-977.0,1
79,79,-0.7311800680439049,-0.7,0.0,1.0,414.0,629.0,0.0,1,1957.0,0
80,80,-0.21578511480370732,-0.2,0.0,1.0,467.0,868.0,0.0,1,1665.0,0
81,81,-0.36458504075577614,-0.4,1.0,0.0,389.0,541.0,1.0,1,-930.0,0
82,82,-0.815288484213954,-0.8,1.0,0.0,263.0,766.0,0.0,0,1971.0,1
83,83,-0.4043269658138259,-0.4,0.0,1.0,477.0,500.0,0.0,1,2023.0,0
84,84,0.8712552642266368,0.9,1.0,1.0,444.0,895.0,0.0,0,-1259.0,0
85,85,0.4762961769274153,0.5,1.0,1.0,432.0,877.0,0.0,0,1691.0,0
86,86,0.6743903954684686,0.7,1.0,1.0,411.0,554.0,0.0,0,2035.0,0
87,87,0.4817832385121362,0.5,1.0,1.0,456.0,541.0,0.0,0,2003.0,0
88,88,-0.8169280259589847,-0.8,1.0,0.0,431.0,900.0,0.0,0,1669.0,1
89,89,-0.4187548885722937,-0.4,1.0,0.0,453.0,501.0,0.0,0,2046.0,1
90,90,-0.3322836039259508,-0.3,0.0,1.0,493.0,983.0,0.0,1,1524.0,0
91,91,0.17093584274474904,0.2,1.0,1.0,281.0,861.0,0.0,0,1858.0,0
92,92,-0.11623405495904737,-0.1,1.0,0.0,380.0,988.0,0.0,0,1632.0,1
93,93,-0.3971644437885089,-0.4,1.0,0.0,384.0,870.0,0.0,0,1746.0,1
94,94,0.4917299419297373,0.5,1.0,1.0,340.0,962.0,0.0,0,1698.0,0
95,95,0.6568908537277763,0.7,1.0,1.0,302.0,737.0,0.0,0,1961.0,0
96,96,0.7105006141982585,0.7,0.0,0.0,264.0,619.0,0.0,1,2117.0,1
97,97,-0.34505983616155,-0.3,0.0,1.0,446.0,642.0,0.0,1,1912.0,0
98,98,-0.44525625632625815,-0.4,1.0,0.0,301.0,856.0,0.0,0,1843.0,1
99,99,-0.5738633533907804,-0.6,1.0,0.0,368.0,808.0,0.0,0,1824.0,1
100,100,0.7861724319658975,0.8,1.0,1.0,404.0,734.0,0.0,0,1862.0,0
101,101,-0.04741651358460397,-0.0,1.0,0.0,287.0,937.0,0.0,0,1776.0,1
102,102,-0.6272284054378598,-0.6,1.0,0.0,302.0,905.0,0.0,0,1793.0,1
103,103,-0.22402669193381286,-0.2,1.0,0.0,321.0,922.0,0.0,0,1757.0,1
104,104,-0.17628602341876431,-0.2,1.0,0.0,496.0,571.0,0.0,0,1933.0,1
105,105,-0.2846491727285284,-0.3,1.0,0.0,407.0,587.0,0.0,0,2006.0,1
106,106,0.506514140545263,0.5,1.0,1.0,330.0,705.0,0.0,0,1965.0,0
107,107,-0.24550884087190095,-0.2,1.0,0.0,304.0,992.0,0.0,0,1704.0,1
108,108,-0.5960381498250147,-0.6,1.0,0.0,319.0,743.0,0.0,0,1938.0,1
109,109,-0.8271971662653922,-0.8,1.0,0.0,430.0,855.0,0.0,0,1715.0,1
110,110,-0.3125978559545546,-0.3,0.0,1.0,389.0,611.0,0.0,1,2000.0,0
111,111,-0.14414067034061628,-0.1,1.0,0.0,257.0,867.0,0.0,0,1876.0,1
112,112,-0.3649279024744966,-0.4,1.0,0.0,353.0,604.0,0.0,0,-927.0,1
113,113,-0.04546769528777661,-0.0,1.0,0.0,385.0,820.0,0.0,0,1795.0,1
114,114,-0.40092307569023994,-0.4,1.0,0.0,390.0,702.0,0.0,0,1908.0,1
115,115,-0.46630623552058975,-0.5,0.0,1.0,279.0,841.0,1.0,0,-1090.0,1
116,116,0.358993932266891,0.4,1.0,1.0,435.0,875.0,0.0,0,1690.0,0
117,117,0.1647115581427837,0.2,1.0,1.0,308.0,659.0,0.0,0,-797.0,0
118,118,-0.17616979640457253,-0.2,0.0,1.0,454.0,957.0,0.0,1,1589.0,0
119,119,0.5891507943822835,0.6,1.0,1.0,323.0,904.0,0.0,0,1773.0,0
120,120,0.1836732578816761,0.2,0.0,0.0,421.0,571.0,0.0,1,2008.0,1
121,121,-0.49346250382631146,-0.5,0.0,1.0,311.0,775.0,0.0,1,1914.0,0
122,122,0.7937472273812961,0.8,1.0,1.0,314.0,839.0,0.0,0,1847.0,0
123,123,-0.44606352172698843,-0.4,1.0,0.0,292.0,857.0,0.0,0,1851.0,1
124,124,0.1604984747157706,0.2,0.0,0.0,457.0,798.0,0.0,1,1745.0,1
125,125,-0.05931707203159797,-0.1,1.0,0.0,315.0,729.0,0.0,0,1956.0,1
126,126,-0.7946222927375974,-0.8,0.0,1.0,278.0,994.0,1.0,0,-1112.0,1
127,127,0.06593800785534354,0.1,0.0,0.0,428.0,744.0,0.0,1,1828.0,1
128,128,-0.6584983973317788,-0.7,1.0,0.0,433.0,923.0,0.0,0,1644.0,1
129,129,0.5322405529940822,0.5,0.0,0.0,476.0,512.0,0.0,1,2012.0,1
130,130,0.642420435057708,0.6,1.0,1.0,292.0,762.0,0.0,0,1946.0,0
131,131,0.8601521227576857,0.9,0.0,0.0,485.0,684.0,0.0,1,1831.0,1
132,132,0.4738497286964617,0.5,1.0,1.0,468.0,904.0,0.0,0,1628.0,0
133,133,-0.46082881724326286,-0.5,0.0,1.0,325.0,902.0,0.0,1,1773.0,0
134,134,-0.6458643386196863,-0.6,0.0,1.0,423.0,628.0,0.0,1,1949.0,0
135,135,-0.3402536340520633,-0.3,1.0,0.0,480.0,692.0,0.0,0,1828.0,1
136,136,0.1528488988749045,0.2,1.0,1.0,369.0,934.0,0.0,0,1697.0,0
137,137,0.3652970038540343,0.4,0.0,0.0,399.0,542.0,0.0,1,2059.0,1
138,138,-0.32097762051634293,-0.3,0.0,1.0,264.0,936.0,0.0,1,1800.0,0
139,139,0.6474927405102947,0.6,0.0,0.0,461.0,864.0,0.0,1,1675.0,1
140,140,0.7772978511143332,0.8,0.0,0.0,354.0,959.0,0.0,1,1687.0,1
141,141,-0.7652280506430251,-0.8,0.0,1.0,462.0,539.0,0.0,1,1999.0,0
142,142,-0.32943224275661176,-0.3,1.0,0.0,441.0,806.0,0.0,0,1753.0,1
143,143,0.7919190497363883,0.8,1.0,1.0,282.0,937.0,0.0,0,1781.0,0
144,144,-0.33603691016027315,-0.3,0.0,1.0,259.0,623.0,0.0,1,2118.0,0
145,145,0.5376615240771337,0.5,1.0,1.0,384.0,541.0,0.0,0,2075.0,0
146,146,0.23172701097322912,0.2,1.0,1.0,419.0,714.0,0.0,0,1867.0,0
147,147,-0.06837003439141576,-0.1,1.0,0.0,438.0,771.0,0.0,0,1791.0,1
148,148,-0.4165944373816653,-0.4,1.0,0.0,292.0,718.0,0.0,0,1990.0,1
149,149,0.6088223320056988,0.6,1.0,1.0,286.0,533.0,0.0,0,2181.0,0
150,150,0.7328669333839782,0.7,1.0,1.0,396.0,642.0,0.0,0,1962.0,0
151,151,0.8023799239576489,0.8,0.0,0.0,345.0,734.0,0.0,1,-1049.0,1
152,152,0.6166523778435283,0.6,1.0,1.0,346.0,569.0,1.0,1,-865.0,1
153,153,-0.384937258880087,-0.4,1.0,0.0,301.0,530.0,0.0,0,2169.0,1
154,154,0.136096538964117,0.1,1.0,1.0,387.0,869.0,0.0,0,1744.0,0
155,155,-0.7159139157791262,-0.7,0.0,1.0,334.0,690.0,0.0,1,1976.0,0
156,156,-0.23333974844809002,-0.2,1.0,0.0,330.0,882.0,0.0,0,1788.0,1
157,157,0.38062012764192665,0.4,0.0,0.0,410.0,920.0,0.0,1,1670.0,1
158,158,0.6203429362569371,0.6,0.0,0.0,406.0,561.0,0.0,1,2033.0,1
159,159,0.7530627607265029,0.8,1.0,1.0,310.0,983.0,0.0,0,1707.0,0
160,160,0.28888600411822674,0.3,0.0,0.0,290.0,962.0,0.0,1,1748.0,1
161,161,0.6903323177173165,0.7,1.0,1.0,498.0,923.0,0.0,0,1579.0,0
162,162,0.4282234190691999,0.4,1.0,1.0,434.0,838.0,0.0,0,1728.0,0
163,163,0.013272288844547675,0.0,1.0,1.0,481.0,648.0,0.0,0,1871.0,0
164,164,0.2776773963412428,0.3,0.0,0.0,491.0,707.0,0.0,1,1802.0,1
165,165,-0.00786061673560512,-0.0,0.0,1.0,301.0,980.0,0.0,1,1719.0,0
166,166,0.7256271045225985,0.7,0.0,0.0,475.0,891.0,0.0,1,1634.0,1
167,167,0.43912559464483214,0.4,0.0,0.0,269.0,584.0,0.0,1,2147.0,1
168,168,-0.6483119859855173,-0.6,1.0,0.0,291.0,670.0,0.0,0,2039.0,1
169,169,0.1656682512209392,0.2,0.0,0.0,463.0,874.0,0.0,1,1663.0,1
170,170,-0.6918502093316311,-0.7,0.0,1.0,267.0,885.0,0.0,1,1848.0,0
171,171,0.22151815617546966,0.2,1.0,1.0,264.0,720.0,0.0,0,2016.0,0
172,172,-0.19760275999579968,-0.2,0.0,1.0,266.0,674.0,0.0,1,2060.0,0
173,173,0.13269593809989255,0.1,0.0,0.0,298.0,607.0,0.0,1,2095.0,1
174,174,-0.8044123454855003,-0.8,1.0,0.0,490.0,767.0,0.0,0,1743.0,1
175,175,0.794638273716835,0.8,1.0,1.0,269.0,730.0,1.0,1,-919.0,1
176,176,0.13353602706957546,0.1,1.0,1.0,434.0,695.0,0.0,0,1871.0,0
177,177,0.35838818352314894,0.4,0.0,0.0,297.0,877.0,0.0,1,1826.0,1
178,178,0.16120728721682454,0.2,0.0,0.0,388.0,714.0,0.0,1,1898.0,1
179,179,-0.3285541971649829,-0.3,1.0,0.0,284.0,682.0,0.0,0,2034.0,1
180,180,-0.5326655671195047,-0.5,1.0,0.0,371.0,942.0,0.0,0,1687.0,1
181,181,-0.11701675695899605,-0.1,1.0,0.0,330.0,909.0,0.0,0,1761.0,1
182,182,0.8631013076675907,0.9,0.0,0.0,454.0,814.0,0.0,1,1732.0,1
183,183,-0.8793605812476679,-0.9,0.0,1.0,474.0,752.0,0.0,1,1774.0,0
184,184,-0.10806588560612918,-0.1,0.0,1.0,488.0,806.0,0.0,1,1706.0,0
185,185,-0.33345408444000646,-0.3,0.0,1.0,398.0,923.0,0.0,1,1679.0,0
186,186,-0.2955605188961544,-0.3,1.0,0.0,252.0,811.0,0.0,0,1937.0,1
187,187,0.06920993055822844,0.1,1.0,1.0,359.0,708.0,0.0,0,1933.0,0
188,188,-0.28151188877907485,-0.3,1.0,0.0,412.0,853.0,0.0,0,1735.0,1
189,189,-0.6104697812106639,-0.6,1.0,0.0,462.0,913.0,0.0,0,1625.0,1
190,190,-0.14998318614621642,-0.1,1.0,0.0,284.0,758.0,0.0,0,1958.0,1
191,191,-0.0579849158107002,-0.1,0.0,1.0,425.0,703.0,1.0,0,-1108.0,1
192,192,-0.5919601352492474,-0.6,0.0,1.0,381.0,964.0,0.0,1,1655.0,0
193,193,-0.4521967904852782,-0.5,0.0,1.0,391.0,850.0,0.0,1,1759.0,0
194,194,-0.5864617455879289,-0.6,1.0,0.0,334.0,547.0,0.0,0,-671.0,1
195,195,0.8596010663539003,0.9,1.0,1.0,492.0,847.0,0.0,0,1661.0,0
196,196,-0.4872212563234579,-0.5,1.0,0.0,314.0,744.0,0.0,0,1942.0,1
197,197,-0.6389604345702316,-0.6,0.0,1.0,261.0,611.0,0.0,1,2128.0,0
198,198,-0.6278161662392201,-0.6,1.0,0.0,376.0,725.0,0.0,0,1899.0,1
199,199,0.17981097353127062,0.2,1.0,1.0,393.0,745.0,0.0,0,1862.0,0
200,200,-0.8688634124372496,-0.9,1.0,0.0,336.0,736.0,0.0,0,1928.0,1
201,201,0.8610279767949539,0.9,0.0,0.0,477.0,641.0,0.0,1,1882.0,1
202,202,0.41844805465918455,0.4,1.0,1.0,289.0,599.0,0.0,0,2112.0,0
203,203,-0.6395867147443269,-0.6,0.0,1.0,346.0,604.0,0.0,1,2050.0,0
204,204,-0.23757889222521356,-0.2,1.0,0.0,361.0,735.0,0.0,0,1904.0,1
205,205,0.6905242778731823,0.7,0.0,0.0,441.0,930.0,0.0,1,1629.0,1
206,206,-0.8530720483939838,-0.9,0.0,1.0,476.0,650.0,0.0,1,1874.0,0
207,207,0.11070491206901567,0.1,1.0,1.0,273.0,594.0,0.0,0,2133.0,0
208,208,0.25914167389895504,0.3,1.0,1.0,280.0,697.0,0.0,0,2023.0,0
209,209,-0.13541714369485902,-0.1,0.0,1.0,400.0,578.0,0.0,1,2022.0,0
210,210,-0.5091048163489853,-0.5,0.0,1.0,281.0,514.0,0.0,1,2205.0,0
211,211,0.12268732311631447,0.1,0.0,0.0,260.0,861.0,0.0,1,1879.0,1
212,212,0.6264606325140011,0.6,1.0,1.0,309.0,556.0,0.0,0,2135.0,0
213,213,-0.38202641357477174,-0.4,1.0,0.0,379.0,985.0,0.0,0,1636.0,1
214,214,0.7802674966902784,0.8,0.0,0.0,250.0,924.0,1.0,0,-1094.0,0
215,215,0.7142394599791336,0.7,1.0,1.0,447.0,859.0,0.0,0,1694.0,0
216,216,0.8947344380111589,0.9,0.0,0.0,432.0,953.0,0.0,1,1615.0,1
217,217,0.10004336234052291,0.1,1.0,1.0,297.0,617.0,0.0,0,2086.0,0
218,218,0.7204358936938654,0.7,1.0,1.0,467.0,519.0,0.0,0,2014.0,0
219,219,-0.5472314464094958,-0.5,1.0,0.0,435.0,618.0,1.0,1,-1053.0,0
220,220,-0.8929699394726802,-0.9,0.0,1.0,447.0,688.0,0.0,1,1865.0,0
221,221,-0.7568655037330456,-0.8,0.0,1.0,278.0,566.0,0.0,1,2156.0,0
222,222,0.6074414193504162,0.6,0.0,0.0,385.0,764.0,0.0,1,1851.0,1
223,223,0.6604902946458618,0.7,0.0,0.0,353.0,618.0,0.0,1,2029.0,1
224,224,-0.24135438025849787,-0.2,0.0,1.0,252.0,906.0,1.0,0,-1148.0,1
225,225,-0.8694818977579695,-0.9,1.0,0.0,432.0,646.0,0.0,0,1922.0,1
226,226,0.14847545483128488,0.1,0.0,0.0,269.0,992.0,0.0,1,1739.0,1
227,227,-0.775096516010028,-0.8,1.0,0.0,350.0,705.0,0.0,0,1945.0,1
228,228,-0.685520887237293,-0.7,1.0,0.0,348.0,823.0,0.0,0,1829.0,1
229,229,-0.680168635960386,-0.7,0.0,1.0,406.0,544.0,0.0,1,2050.0,0
230,230,-0.7210506239507886,-0.7,1.0,0.0,253.0,806.0,0.0,0,1941.0,1
231,231,0.34570849993932795,0.3,1.0,1.0,274.0,909.0,0.0,0,1817.0,0
232,232,-0.19113778850902863,-0.2,1.0,0.0,420.0,613.0,0.0,0,1967.0,1
233,233,-0.4973282213853042,-0.5,1.0,0.0,373.0,595.0,0.0,0,2032.0,1
234,234,0.8871360691570874,0.9,1.0,1.0,434.0,955.0,0.0,0,1611.0,0
235,235,0.37879556182100493,0.4,0.0,0.0,326.0,740.0,1.0,0,-986.0,0
236,236,0.1825450220357886,0.2,0.0,0.0,456.0,941.0,0.0,1,1603.0,1
237,237,0.19268401976831717,0.2,1.0,1.0,400.0,665.0,0.0,0,1935.0,0
238,238,-0.4943658026092306,-0.5,0.0,1.0,270.0,667.0,0.0,1,2063.0,0
239,239,-0.3604720768725693,-0.4,1.0,0.0,311.0,869.0,0.0,0,1820.0,1
240,240,0.3331138998096014,0.3,1.0,1.0,389.0,858.0,1.0,1,-1127.0,1
241,241,-0.5734473113068306,-0.6,0.0,1.0,424.0,957.0,0.0,1,1619.0,0
242,242,0.6861718457030465,0.7,1.0,1.0,390.0,943.0,0.0,0,-1263.0,0
243,243,0.385249645168232,0.4,0.0,0.0,367.0,894.0,0.0,1,1739.0,1
244,244,-0.3316862517889184,-0.3,0.0,1.0,319.0,956.0,0.0,1,1725.0,0
245,245,-0.29673144820919384,-0.3,0.0,1.0,492.0,843.0,0.0,1,1665.0,0
246,246,-0.4273152720596179,-0.4,1.0,0.0,301.0,899.0,0.0,0,1800.0,1
247,247,0.23562600690826352,0.2,0.0,0.0,421.0,645.0,0.0,1,1934.0,1
248,248,0.30353428910329916,0.3,1.0,1.0,375.0,912.0,0.0,0,1713.0,0
249,249,0.45739357791957,0.5,0.0,0.0,312.0,937.0,0.0,1,1751.0,1
250,250,-0.4795258218159811,-0.5,0.0,1.0,400.0,816.0,1.0,0,-1146.0,1
251,251,-0.3310722817313927,-0.3,1.0,0.0,300.0,727.0,0.0,0,1973.0,1
252,252,-0.2528135492196697,-0.3,1.0,0.0,441.0,608.0,0.0,0,1951.0,1
253,253,-0.4230772580150464,-0.4,0.0,1.0,266.0,502.0,1.0,0,-718.0,1
254,254,0.07874137264577208,0.1,1.0,1.0,475.0,628.0,0.0,0,1897.0,0
255,255,0.18222958651000754,0.2,0.0,0.0,258.0,549.0,0.0,1,2193.0,1
256,256,-0.5722693276615084,-0.6,1.0,0.0,485.0,811.0,0.0,0,1704.0,1
257,257,-0.23784228210595115,-0.2,1.0,0.0,468.0,797.0,0.0,0,1735.0,1
258,258,0.47702560189728216,0.5,0.0,0.0,449.0,619.0,0.0,1,1932.0,1
259,259,0.8280527343136731,0.8,0.0,0.0,325.0,610.0,0.0,1,2065.0,1
260,260,-0.8930745562465352,-0.9,1.0,0.0,372.0,973.0,0.0,0,1655.0,1
261,261,0.6647836355077442,0.7,0.0,0.0,332.0,991.0,0.0,1,1677.0,1
262,262,0.04721613619881282,0.0,0.0,0.0,442.0,685.0,0.0,1,1873.0,1
263,263,-0.29347638003461196,-0.3,0.0,1.0,311.0,958.0,0.0,1,1731.0,0
264,264,0.22820583553305684,0.2,0.0,0.0,318.0,835.0,0.0,1,1847.0,1
265,265,-0.6574900203241594,-0.7,0.0,1.0,470.0,933.0,0.0,1,1597.0,0
266,266,-0.25698923400247453,-0.3,0.0,1.0,380.0,902.0,0.0,1,1718.0,0
267,267,0.2447715667906455,0.2,0.0,0.0,347.0,804.0,0.0,1,1849.0,1
268,268,0.0585651074736957,0.1,1.0,1.0,278.0,968.0,0.0,0,1754.0,0
269,269,-0.13356902333940235,-0.1,1.0,0.0,295.0,882.0,0.0,0,1823.0,1
270,270,0.2707193669982496,0.3,1.0,1.0,421.0,696.0,0.0,0,1883.0,0
271,271,0.053743795788514404,0.1,0.0,0.0,303.0,565.0,0.0,1,2132.0,1
272,272,0.48126512327370874,0.5,1.0,1.0,472.0,714.0,0.0,0,-1046.0,0
273,273,0.7286585982938413,0.7,1.0,1.0,292.0,528.0,0.0,0,2180.0,0
274,274,0.4805142645834869,0.5,1.0,1.0,366.0,980.0,0.0,0,1654.0,0
275,275,-0.7915766094603586,-0.8,1.0,0.0,328.0,715.0,0.0,0,1957.0,1
276,276,0.6509521455659965,0.7,0.0,0.0,308.0,771.0,0.0,1,1921.0,1
277,277,-0.6523240491894654,-0.7,0.0,1.0,317.0,968.0,0.0,1,1715.0,0
278,278,0.1597999468878678,0.2,1.0,1.0,373.0,832.0,0.0,0,1795.0,0
279,279,0.7370022238118773,0.7,1.0,1.0,319.0,904.0,0.0,0,1777.0,0
280,280,-0.7148267001471822,-0.7,1.0,0.0,283.0,998.0,0.0,0,1719.0,1
281,281,-0.8858687462541355,-0.9,0.0,1.0,380.0,964.0,0.0,1,1656.0,0
282,282,-0.32440496731048507,-0.3,0.0,1.0,464.0,899.0,0.0,1,1637.0,0
283,283,0.6440884099633172,0.6,0.0,0.0,366.0,946.0,0.0,1,1688.0,1
284,284,0.4844424572093323,0.5,0.0,0.0,402.0,598.0,0.0,1,2000.0,1
285,285,-0.8926722087791518,-0.9,0.0,1.0,410.0,984.0,0.0,1,1606.0,0
286,286,0.6452569526227413,0.6,1.0,1.0,459.0,993.0,0.0,0,1548.0,0
287,287,-0.5200739726109952,-0.5,1.0,0.0,436.0,891.0,0.0,0,1673.0,1
288,288,0.7293971475888629,0.7,1.0,1.0,312.0,726.0,0.0,0,1962.0,0
289,289,-0.5237855510464176,-0.5,1.0,0.0,285.0,658.0,0.0,0,2057.0,1
290,290,0.286468019567902,0.3,0.0,0.0,388.0,799.0,0.0,1,1813.0,1
291,291,0.6882273824338944,0.7,0.0,0.0,272.0,887.0,1.0,0,-1049.0,0
292,292,0.37689825195202087,0.4,1.0,1.0,426.0,782.0,0.0,0,1792.0,0
293,293,0.13426643270860927,0.1,0.0,0.0,432.0,691.0,0.0,1,1877.0,1
294,294,0.49196066710217,0.5,0.0,0.0,398.0,775.0,0.0,1,1827.0,1
295,295,0.6304870916532991,0.6,0.0,0.0,373.0,803.0,0.0,1,1824.0,1
296,296,0.6962653681109817,0.7,0.0,0.0,261.0,796.0,0.0,1,1943.0,1
297,297,0.8408280357322026,0.8,0.0,0.0,327.0,583.0,0.0,1,2090.0,1
298,298,-0.49212867179913616,-0.5,0.0,1.0,486.0,838.0,0.0,1,1676.0,0
299,299,-0.1377624504980831,-0.1,0.0,1.0,491.0,591.0,0.0,1,1918.0,0
300,300,-0.35599436838783904,-0.4,0.0,1.0,417.0,795.0,0.0,1,1788.0,0
301,301,-0.26107213300012744,-0.3,1.0,0.0,455.0,965.0,0.0,0,1580.0,1
302,302,0.5835275396586456,0.6,1.0,1.0,391.0,525.0,0.0,0,2084.0,0
303,303,-0.8167953876456603,-0.8,0.0,1.0,442.0,775.0,0.0,1,1783.0,0
304,304,0.5416711821039008,0.5,1.0,1.0,479.0,884.0,0.0,0,1637.0,0
305,305,-0.7312583158777368,-0.7,0.0,1.0,498.0,779.0,0.0,1,1723.0,0
306,306,0.5572453964372331,0.6,1.0,1.0,354.0,791.0,0.0,0,1855.0,0
307,307,0.4263370568264492,0.4,1.0,1.0,414.0,666.0,0.0,0,1920.0,0
308,308,-0.42723300005211645,-0.4,0.0,1.0,439.0,500.0,0.0,1,2061.0,0
309,309,-0.20526654195410365,-0.2,0.0,1.0,268.0,761.0,0.0,1,1971.0,0
310,310,0.8136105159629291,0.8,0.0,0.0,354.0,508.0,0.0,1,2138.0,1
311,311,-0.631001445675081,-0.6,1.0,0.0,470.0,579.0,0.0,0,1951.0,1
312,312,0.8627743745960618,0.9,1.0,1.0,277.0,701.0,0.0,0,2022.0,0
313,313,0.47517744594081457,0.5,0.0,0.0,397.0,735.0,0.0,1,1868.0,1
314,314,0.2080345623233132,0.2,0.0,0.0,348.0,896.0,0.0,1,1756.0,1
315,315,-0.033141178482537614,-0.0,0.0,1.0,477.0,715.0,0.0,1,1808.0,0
316,316,-0.6574730086583089,-0.7,0.0,1.0,361.0,800.0,0.0,1,1839.0,0
317,317,-0.45186688935930247,-0.5,1.0,0.0,402.0,605.0,0.0,0,1993.0,1
318,318,-0.6179341371902168,-0.6,0.0,1.0,306.0,889.0,0.0,1,1805.0,0
319,319,0.4987640344876686,0.5,0.0,0.0,279.0,635.0,0.0,1,2086.0,1
320,320,-0.8218387130664674,-0.8,0.0,1.0,280.0,509.0,0.0,1,2211.0,0
321,321,-0.5996842925823895,-0.6,1.0,0.0,421.0,692.0,0.0,0,1887.0,1
322,322,0.1831299092732731,0.2,1.0,1.0,444.0,825.0,0.0,0,1731.0,0
323,323,-0.755509895607782,-0.8,0.0,1.0,298.0,515.0,0.0,1,2187.0,0
324,324,0.1760420975257474,0.2,1.0,1.0,477.0,592.0,0.0,0,1931.0,0
325,325,-0.09458733509921669,-0.1,1.0,0.0,287.0,871.0,0.0,0,1842.0,1
326,326,0.583189562696575,0.6,0.0,0.0,394.0,681.0,0.0,1,1925.0,1
327,327,-0.17299763605380125,-0.2,1.0,0.0,476.0,542.0,0.0,0,1982.0,1
328,328,0.7545607370546087,0.8,0.0,0.0,300.0,643.0,0.0,1,2057.0,1
329,329,-0.0967351165196566,-0.1,1.0,0.0,484.0,779.0,0.0,0,1737.0,1
330,330,-0.8535624650996274,-0.9,1.0,0.0,439.0,885.0,0.0,0,1676.0,1
331,331,-0.42987970778567114,-0.4,1.0,0.0,363.0,722.0,0.0,0,1915.0,1
332,332,0.5333248178845381,0.5,1.0,1.0,423.0,634.0,0.0,0,1943.0,0
333,333,-0.28195123446961756,-0.3,0.0,1.0,250.0,879.0,0.0,1,1871.0,0
334,334,0.037896690793708276,0.0,1.0,1.0,495.0,726.0,0.0,0,1779.0,0
335,335,0.05600653627021923,0.1,1.0,1.0,294.0,815.0,0.0,0,1891.0,0
336,336,0.008542361616237781,0.0,1.0,1.0,412.0,966.0,0.0,0,1622.0,0
337,337,0.6498081902030662,0.6,1.0,1.0,388.0,505.0,0.0,0,2107.0,0
338,338,0.3562022369689072,0.4,1.0,1.0,361.0,531.0,0.0,0,2108.0,0
339,339,-0.6077031080086372,-0.6,0.0,1.0,397.0,545.0,0.0,1,2058.0,0
340,340,-0.8834837146828045,-0.9,0.0,1.0,258.0,736.0,0.0,1,2006.0,0
341,341,0.5804206673251858,0.6,1.0,1.0,329.0,622.0,0.0,0,2049.0,0
342,342,0.39910387022557525,0.4,0.0,0.0,252.0,921.0,0.0,1,1827.0,1
343,343,0.7756157080494125,0.8,1.0,1.0,417.0,597.0,0.0,0,1986.0,0
344,344,0.5842758469400761,0.6,0.0,0.0,369.0,570.0,0.0,1,2061.0,1
345,345,0.4153098548991444,0.4,1.0,1.0,423.0,505.0,0.0,0,2072.0,0
346,346,0.6410983012328074,0.6,1.0,1.0,405.0,857.0,0.0,0,1738.0,0
347,347,-0.29744300192770934,-0.3,1.0,0.0,348.0,869.0,0.0,0,1783.0,1
348,348,0.658380611112869,0.7,0.0,0.0,392.0,511.0,0.0,1,2097.0,1
349,349,-0.30479963113099506,-0.3,1.0,0.0,318.0,831.0,0.0,0,1851.0,1
350,350,-0.8860870860670191,-0.9,0.0,1.0,394.0,534.0,0.0,1,2072.0,0
351,351,0.32641424188533386,0.3,1.0,1.0,455.0,658.0,0.0,0,1887.0,0
352,352,0.18379513747545684,0.2,0.0,0.0,342.0,912.0,0.0,1,1746.0,1
353,353,-0.09191674251392223,-0.1,1.0,0.0,271.0,803.0,0.0,0,1926.0,1
354,354,0.8950954074852598,0.9,0.0,0.0,355.0,529.0,0.0,1,2116.0,1
355,355,0.651812184590456,0.7,0.0,0.0,254.0,959.0,0.0,1,1787.0,1
356,356,0.5858965133179447,0.6,0.0,0.0,497.0,666.0,0.0,1,1837.0,1
357,357,0.15599970029051835,0.2,1.0,1.0,345.0,520.0,0.0,0,2135.0,0
358,358,0.5596816737390845,0.6,1.0,1.0,425.0,518.0,0.0,0,2057.0,0
359,359,0.8364016406887168,0.8,1.0,1.0,439.0,996.0,0.0,0,1565.0,0
360,360,-0.024790389060077245,-0.0,1.0,0.0,258.0,959.0,0.0,0,1783.0,1
361,361,0.44932711394435676,0.4,1.0,1.0,457.0,761.0,0.0,0,1782.0,0
362,362,-0.3698326464816446,-0.4,0.0,1.0,389.0,657.0,0.0,1,1954.0,0
363,363,0.04562984871241049,0.0,0.0,0.0,402.0,590.0,0.0,1,2008.0,1
364,364,-0.6950925479079635,-0.7,1.0,0.0,462.0,763.0,0.0,0,1775.0,1
365,365,0.8319729117138644,0.8,0.0,0.0,373.0,809.0,0.0,1,1818.0,1
366,366,0.8969584476545817,0.9,1.0,1.0,326.0,532.0,0.0,0,2142.0,0
367,367,0.01339391475624252,0.0,1.0,1.0,419.0,779.0,0.0,0,1802.0,0
368,368,-0.6204525358182803,-0.6,0.0,1.0,285.0,808.0,0.0,1,1907.0,0
369,369,-0.7578820740044239,-0.8,1.0,0.0,270.0,693.0,0.0,0,2037.0,1
370,370,-0.8248936076451278,-0.8,1.0,0.0,453.0,524.0,0.0,0,2023.0,1
371,371,-0.2199101097952959,-0.2,0.0,1.0,396.0,502.0,0.0,1,2102.0,0
372,372,-0.05099050438752706,-0.1,1.0,0.0,323.0,682.0,0.0,0,1995.0,1
373,373,0.05354652620796452,0.1,0.0,0.0,392.0,585.0,0.0,1,2023.0,1
374,374,0.004009482361237993,0.0,1.0,1.0,373.0,805.0,0.0,0,-1168.0,0
375,375,-0.20187143020217668,-0.2,1.0,0.0,312.0,516.0,0.0,0,2172.0,1
376,376,0.3381574486018516,0.3,1.0,1.0,285.0,595.0,0.0,0,2120.0,0
377,377,0.38074470278526007,0.4,0.0,0.0,478.0,978.0,0.0,1,1544.0,1
378,378,0.12556092522072582,0.1,1.0,1.0,302.0,669.0,0.0,0,2029.0,0
379,379,0.05682490018558006,0.1,1.0,1.0,470.0,987.0,0.0,0,-1407.0,0
380,380,-0.4941645741973037,-0.5,0.0,1.0,273.0,817.0,0.0,1,1910.0,0
381,381,0.4166279049203484,0.4,0.0,0.0,334.0,976.0,0.0,1,1690.0,1
382,382,0.4452010543502346,0.4,0.0,0.0,432.0,677.0,0.0,1,1891.0,1
383,383,-0.611666638487753,-0.6,1.0,0.0,250.0,725.0,0.0,0,2025.0,1
384,384,-0.693850488541742,-0.7,0.0,1.0,386.0,766.0,0.0,1,1848.0,0
385,385,0.4729342490657281,0.5,0.0,0.0,352.0,550.0,0.0,1,2098.0,1
386,386,0.514709056123137,0.5,0.0,0.0,284.0,760.0,0.0,1,1956.0,1
387,387,-0.023929577873058494,-0.0,0.0,1.0,373.0,591.0,0.0,1,2036.0,0
388,388,0.4695022039953892,0.5,0.0,0.0,408.0,771.0,0.0,1,1821.0,1
389,389,0.5281037440501187,0.5,0.0,0.0,307.0,989.0,0.0,1,1704.0,1
390,390,-0.012732435358767336,-0.0,0.0,1.0,369.0,703.0,0.0,1,1928.0,0
391,391,0.2953628827810192,0.3,1.0,1.0,328.0,817.0,0.0,0,1855.0,0
392,392,0.47359117948313545,0.5,0.0,0.0,410.0,696.0,1.0,0,-976.0,0
393,393,-0.6882326921811961,-0.7,1.0,0.0,438.0,691.0,0.0,0,1871.0,1
394,394,-0.7591997699660513,-0.8,0.0,1.0,257.0,538.0,0.0,1,2205.0,0
395,395,-0.06234588863042845,-0.1,1.0,0.0,461.0,939.0,0.0,0,1600.0,1
396,396,0.21649008596381625,0.2,0.0,0.0,492.0,812.0,0.0,1,1696.0,1
397,397,0.43713683652493984,0.4,1.0,1.0,385.0,715.0,0.0,0,-1090.0,0
398,398,-0.6223699945480059,-0.6,1.0,0.0,403.0,995.0,0.0,0,1602.0,1
399,399,-0.5519870731520298,-0.6,1.0,0.0,457.0,937.0,0.0,0,1606.0,1
400,400,-0.7497529619788713,-0.7,0.0,1.0,414.0,594.0,0.0,1,1992.0,0
401,401,-0.18139700060293118,-0.2,0.0,1.0,412.0,648.0,0.0,1,1940.0,0
402,402,0.7653700801850915,0.8,1.0,1.0,436.0,847.0,0.0,0,1717.0,0
403,403,0.009091251776585763,0.0,0.0,0.0,336.0,651.0,0.0,1,2013.0,1
404,404,0.48566694499860386,0.5,1.0,1.0,325.0,786.0,0.0,0,1889.0,0
405,405,0.4661687402640028,0.5,0.0,0.0,446.0,881.0,0.0,1,1673.0,1
406,406,-0.8966052795588364,-0.9,0.0,1.0,447.0,616.0,0.0,1,1937.0,0
407,407,0.5576296373040265,0.6,0.0,0.0,265.0,606.0,0.0,1,2129.0,1
408,408,-0.3547720941395923,-0.4,1.0,0.0,341.0,516.0,0.0,0,2143.0,1
409,409,-0.13966543755219063,-0.1,0.0,1.0,490.0,903.0,0.0,1,1607.0,0
410,410,-0.36277073440691954,-0.4,1.0,0.0,314.0,910.0,0.0,0,1776.0,1
411,411,0.1813405099420068,0.2,1.0,1.0,298.0,965.0,0.0,0,-1233.0,0
412,412,0.3523147726392647,0.4,0.0,0.0,468.0,669.0,0.0,1,1863.0,1
413,413,-0.3077469917877239,-0.3,1.0,0.0,476.0,971.0,0.0,0,1553.0,1
414,414,-0.6749769998182271,-0.7,0.0,1.0,486.0,944.0,0.0,1,1570.0,0
415,415,0.28763855787134285,0.3,0.0,0.0,476.0,964.0,0.0,1,1560.0,1
416,416,-0.2882568303952757,-0.3,1.0,0.0,375.0,680.0,0.0,0,1945.0,1
417,417,-0.36017355182054567,-0.4,1.0,0.0,368.0,614.0,0.0,0,2018.0,1
418,418,-0.4138480876901829,-0.4,1.0,0.0,468.0,650.0,0.0,0,1882.0,1
419,419,-0.5125023432427542,-0.5,0.0,1.0,477.0,730.0,0.0,1,1793.0,0
420,420,0.5219104131324342,0.5,0.0,0.0,499.0,689.0,0.0,1,1812.0,1
421,421,-0.26929672967027707,-0.3,0.0,1.0,479.0,743.0,0.0,1,1778.0,0
422,422,-0.40636157794613165,-0.4,0.0,1.0,391.0,963.0,0.0,1,1646.0,0
423,423,-0.8193286898178745,-0.8,0.0,1.0,266.0,618.0,1.0,0,-564.0,1
424,424,-0.1338723574053261,-0.1,0.0,1.0,282.0,793.0,0.0,1,1925.0,0
425,425,-0.8118959980815014,-0.8,1.0,0.0,263.0,873.0,0.0,0,1864.0,1
426,426,0.12384192683325523,0.1,1.0,1.0,447.0,809.0,0.0,0,1744.0,0
427,427,-0.3820048892803719,-0.4,0.0,1.0,344.0,994.0,0.0,1,1662.0,0
428,428,-0.727073757357395,-0.7,0.0,1.0,439.0,728.0,0.0,1,1833.0,0
429,429,0.7800208764654751,0.8,1.0,1.0,321.0,881.0,0.0,0,1798.0,0
430,430,0.6273010210171707,0.6,0.0,0.0,337.0,582.0,0.0,1,2081.0,1
431,431,0.2301220095574662,0.2,0.0,0.0,337.0,579.0,0.0,1,2084.0,1
432,432,0.8555798687262189,0.9,0.0,0.0,408.0,838.0,0.0,1,-1186.0,1
433,433,0.4836094828178702,0.5,0.0,0.0,259.0,540.0,0.0,1,2201.0,1
434,434,-0.17484254860322923,-0.2,0.0,1.0,288.0,502.0,0.0,1,2210.0,0
435,435,-0.7659211265509125,-0.8,1.0,0.0,464.0,850.0,0.0,0,1686.0,1
436,436,-0.8133764000255923,-0.8,1.0,0.0,313.0,575.0,0.0,0,2112.0,1
437,437,-0.17544455032075923,-0.2,0.0,1.0,308.0,925.0,0.0,1,1767.0,0
438,438,0.44356836410851586,0.4,0.0,0.0,467.0,663.0,0.0,1,1870.0,1
439,439,-0.23726242307078416,-0.2,0.0,1.0,331.0,541.0,0.0,1,2128.0,0
440,440,-0.14853789402318096,-0.1,0.0,1.0,281.0,779.0,0.0,1,1940.0,0
441,441,-0.03162905669540572,-0.0,0.0,1.0,427.0,585.0,0.0,1,1988.0,0
442,442,-0.0230412602338258,-0.0,0.0,1.0,454.0,740.0,0.0,1,1806.0,0
443,443,0.6821055751810209,0.7,1.0,1.0,455.0,940.0,0.0,0,1605.0,0
444,444,0.5484837233591461,0.5,0.0,0.0,277.0,656.0,0.0,1,2067.0,1
445,445,-0.6665346752632804,-0.7,1.0,0.0,467.0,787.0,0.0,0,1746.0,1
446,446,-0.4728148014097026,-0.5,0.0,1.0,401.0,837.0,0.0,1,1762.0,0
447,447,-0.5521424118465026,-0.6,0.0,1.0,491.0,926.0,0.0,1,1583.0,0
448,448,0.6103078054625585,0.6,0.0,0.0,318.0,915.0,0.0,1,-1153.0,1
449,449,-0.8066957180669352,-0.8,1.0,0.0,348.0,676.0,0.0,0,1976.0,1
450,450,-0.7638054142697198,-0.8,0.0,1.0,481.0,793.0,0.0,1,1726.0,0
451,451,0.8145825384962581,0.8,0.0,0.0,436.0,848.0,0.0,1,1716.0,1
452,452,0.15338369145623731,0.2,0.0,0.0,413.0,966.0,0.0,1,1621.0,1
453,453,0.4127302219275776,0.4,1.0,1.0,290.0,916.0,0.0,0,1794.0,0
454,454,0.6006665945017352,0.6,1.0,1.0,432.0,865.0,0.0,0,1703.0,0
455,455,-0.5182850093089018,-0.5,0.0,1.0,273.0,558.0,0.0,1,2169.0,0
456,456,-0.8720989236791862,-0.9,1.0,0.0,473.0,870.0,0.0,0,1657.0,1
457,457,0.790476655398738,0.8,0.0,0.0,282.0,549.0,0.0,1,2169.0,1
458,458,-0.6542035571143847,-0.7,0.0,1.0,408.0,989.0,0.0,1,-1277.0,0
459,459,0.05953842611754945,0.1,0.0,0.0,459.0,617.0,0.0,1,1924.0,1
460,460,0.6100533788554784,0.6,0.0,0.0,348.0,936.0,0.0,1,1716.0,1
461,461,-0.40776146028682014,-0.4,1.0,0.0,495.0,934.0,0.0,0,1571.0,1
462,462,0.5672664488761109,0.6,1.0,1.0,376.0,934.0,0.0,0,1690.0,0
463,463,0.88322748852395,0.9,0.0,0.0,330.0,910.0,0.0,1,1760.0,1
464,464,-0.8446468306092975,-0.8,1.0,0.0,486.0,887.0,0.0,0,-1123.0,1
465,465,-0.6087774717255608,-0.6,1.0,0.0,304.0,764.0,1.0,1,-1028.0,0
466,466,-0.8072814248117552,-0.8,1.0,0.0,272.0,814.0,0.0,0,1914.0,1
467,467,0.7641510820382839,0.8,1.0,1.0,365.0,616.0,0.0,0,2019.0,0
468,468,-0.5272970711051448,-0.5,0.0,1.0,358.0,930.0,0.0,1,1712.0,0
469,469,-0.6536355825304766,-0.7,0.0,1.0,416.0,953.0,0.0,1,1631.0,0
470,470,0.7699952389569554,0.8,1.0,1.0,486.0,984.0,0.0,0,1530.0,0
471,471,-0.148824581497905,-0.1,0.0,1.0,427.0,924.0,0.0,1,1649.0,0
472,472,0.12541946496487555,0.1,0.0,0.0,370.0,572.0,0.0,1,2058.0,1
473,473,-0.6599498389729724,-0.7,0.0,1.0,483.0,807.0,0.0,1,1710.0,0
474,474,-0.08069125218244222,-0.1,0.0,1.0,493.0,582.0,0.0,1,1925.0,0
475,475,-0.5943541697637609,-0.6,1.0,0.0,455.0,996.0,0.0,0,1549.0,1
476,476,-0.1395488480492456,-0.1,1.0,0.0,282.0,558.0,0.0,0,2160.0,1
477,477,0.8138668478427774,0.8,1.0,1.0,291.0,656.0,0.0,0,2053.0,0
478,478,-0.1799408258637616,-0.2,1.0,0.0,394.0,501.0,0.0,0,2105.0,1
479,479,-0.8416883910282307,-0.8,0.0,1.0,416.0,868.0,0.0,1,1716.0,0
480,480,-0.5031264514750299,-0.5,1.0,0.0,424.0,769.0,0.0,0,1807.0,1
481,481,-0.8666304495632303,-0.9,0.0,1.0,330.0,650.0,0.0,1,2020.0,0
482,482,-0.47124054157362183,-0.5,1.0,0.0,297.0,815.0,0.0,0,1888.0,1
483,483,0.877429786753522,0.9,0.0,0.0,333.0,757.0,0.0,1,1910.0,1
484,484,-0.8995949672441289,-0.9,0.0,1.0,438.0,548.0,0.0,1,2014.0,0
485,485,-0.5568170147339928,-0.6,0.0,1.0,396.0,796.0,0.0,1,1808.0,0
486,486,-0.5364402492176596,-0.5,1.0,0.0,339.0,720.0,0.0,0,1941.0,1
487,487,0.8898997749953313,0.9,0.0,0.0,427.0,958.0,0.0,1,1615.0,1
488,488,0.2220803747801786,0.2,0.0,0.0,360.0,918.0,0.0,1,1722.0,1
489,489,-0.5616395232466089,-0.6,0.0,1.0,298.0,656.0,0.0,1,2046.0,0
490,490,0.32438611376173065,0.3,0.0,0.0,426.0,991.0,0.0,1,1583.0,1
491,491,0.7754750738041533,0.8,0.0,0.0,436.0,782.0,0.0,1,1782.0,1
492,492,-0.29183735217381657,-0.3,0.0,1.0,425.0,954.0,0.0,1,1621.0,0
493,493,-0.763677526741259,-0.8,0.0,1.0,371.0,705.0,0.0,1,1924.0,0
494,494,0.597562354451273,0.6,1.0,1.0,327.0,504.0,0.0,0,2169.0,0
495,495,-0.06167484606332441,-0.1,0.0,1.0,315.0,928.0,0.0,1,1757.0,0
496,496,-0.8990881244930975,-0.9,0.0,1.0,292.0,698.0,0.0,1,2010.0,0
497,497,-0.17557031400652567,-0.2,0.0,1.0,313.0,891.0,0.0,1,1796.0,0
498,498,0.6336190343457674,0.6,1.0,1.0,291.0,753.0,0.0,0,1956.0,0
499,499,-0.4797921020576393,-0.5,0.0,1.0,418.0,907.0,0.0,1,1675.0,0
500,500,0.4202486933961703,0.4,0.0,0.0,255.0,753.0,0.0,1,1992.0,1
501,501,0.48674288830288803,0.5,1.0,1.0,442.0,594.0,0.0,0,1964.0,0
502,502,0.672162789476397,0.7,0.0,0.0,287.0,928.0,0.0,1,1785.0,1
503,503,0.4812143080913832,0.5,0.0,0.0,436.0,603.0,0.0,1,1961.0,1
504,504,0.5799744839265427,0.6,1.0,1.0,399.0,860.0,0.0,0,1741.0,0
505,505,-0.012060502849636223,-0.0,0.0,1.0,285.0,904.0,0.0,1,1811.0,0
506,506,-0.07503178429233104,-0.1,1.0,0.0,456.0,737.0,0.0,0,1807.0,1
507,507,0.7677832886937909,0.8,1.0,1.0,365.0,859.0,0.0,0,1776.0,0
508,508,0.2152883342328461,0.2,1.0,1.0,494.0,564.0,0.0,0,1942.0,0
509,509,0.8325135928987873,0.8,0.0,0.0,465.0,816.0,0.0,1,1719.0,1
510,510,-0.4883151270998143,-0.5,1.0,0.0,301.0,806.0,1.0,1,-1107.0,0
511,511,-0.8842486750186371,-0.9,1.0,0.0,353.0,644.0,0.0,0,2003.0,1
512,512,-0.4772363088427072,-0.5,1.0,0.0,486.0,747.0,0.0,0,1767.0,1
513,513,-0.2644801701845031,-0.3,1.0,0.0,295.0,877.0,0.0,0,1828.0,1
514,514,0.8433730505107911,0.8,0.0,0.0,478.0,610.0,0.0,1,1912.0,1
515,515,0.6064531352243593,0.6,1.0,1.0,275.0,768.0,0.0,0,1957.0,0
516,516,-0.10806714518873117,-0.1,0.0,1.0,336.0,610.0,0.0,1,2054.0,0
517,517,0.29659532716711745,0.3,0.0,0.0,316.0,752.0,0.0,1,1932.0,1
518,518,0.16466982840125077,0.2,1.0,1.0,353.0,547.0,0.0,0,2100.0,0
519,519,-0.2857961136828252,-0.3,1.0,0.0,375.0,805.0,0.0,0,1820.0,1
520,520,0.4302906541673436,0.4,1.0,1.0,344.0,801.0,0.0,0,1855.0,0
521,521,0.8520533062215402,0.9,1.0,1.0,485.0,507.0,0.0,0,2008.0,0
522,522,-0.8714523625665872,-0.9,1.0,0.0,301.0,911.0,0.0,0,1788.0,1
523,523,0.04381779826814525,0.0,1.0,1.0,480.0,599.0,0.0,0,1921.0,0
524,524,0.5275952241329908,0.5,1.0,1.0,437.0,676.0,0.0,0,1887.0,0
525,525,0.5781447218443708,0.6,0.0,0.0,397.0,769.0,0.0,1,1834.0,1
526,526,0.7507628966770429,0.8,1.0,1.0,342.0,558.0,0.0,0,2100.0,0
527,527,-0.4658335966868789,-0.5,1.0,0.0,395.0,755.0,0.0,0,1850.0,1
528,528,0.23242988349650073,0.2,0.0,0.0,479.0,654.0,0.0,1,1867.0,1
529,529,0.514475923490859,0.5,0.0,0.0,394.0,751.0,0.0,1,1855.0,1
530,530,0.8850452947271413,0.9,1.0,1.0,432.0,655.0,0.0,0,-1047.0,0
531,531,0.2520554515668144,0.3,0.0,0.0,312.0,833.0,0.0,1,1855.0,1
532,532,0.015521383162198088,0.0,1.0,1.0,466.0,793.0,1.0,1,-1189.0,1
533,533,-0.352343936746617,-0.4,0.0,1.0,347.0,815.0,0.0,1,1838.0,0
534,534,0.30837784475899743,0.3,0.0,0.0,377.0,559.0,0.0,1,2064.0,1
535,535,0.48934700032864586,0.5,1.0,1.0,272.0,532.0,0.0,0,2196.0,0
536,536,-0.8484645333180938,-0.8,0.0,1.0,492.0,800.0,1.0,0,-1262.0,1
537,537,0.7910130548947444,0.8,0.0,0.0,292.0,502.0,0.0,1,2206.0,1
538,538,0.6335766317395118,0.6,0.0,0.0,252.0,771.0,0.0,1,1977.0,1
539,539,-0.022723419126363442,-0.0,1.0,0.0,497.0,736.0,0.0,0,1767.0,1
540,540,0.893190031580562,0.9,1.0,1.0,298.0,636.0,0.0,0,2066.0,0
541,541,-0.4373124919544492,-0.4,1.0,0.0,402.0,838.0,0.0,0,1760.0,1
542,542,0.20139115844301203,0.2,0.0,0.0,443.0,529.0,0.0,1,2028.0,1
543,543,0.5228085547184983,0.5,0.0,0.0,301.0,629.0,0.0,1,2070.0,1
544,544,0.8014127701521462,0.8,0.0,0.0,290.0,699.0,0.0,1,2011.0,1
545,545,0.14796700230224913,0.1,0.0,0.0,357.0,788.0,0.0,1,1855.0,1
546,546,0.17295380792213966,0.2,1.0,1.0,461.0,586.0,0.0,0,1953.0,0
547,547,-0.641020550431731,-0.6,0.0,1.0,469.0,815.0,0.0,1,1716.0,0
548,548,-0.5828848482090089,-0.6,1.0,0.0,411.0,544.0,0.0,0,2045.0,1
549,549,-0.19030159322615114,-0.2,0.0,1.0,498.0,961.0,0.0,1,1541.0,0
550,550,-0.4290226507234316,-0.4,0.0,1.0,476.0,537.0,0.0,1,-973.0,0
551,551,-0.5819085708267104,-0.6,1.0,0.0,330.0,532.0,0.0,0,2138.0,1
552,552,0.31845750614194357,0.3,1.0,1.0,380.0,525.0,0.0,0,2095.0,0
553,553,0.18072258858662982,0.2,1.0,1.0,460.0,539.0,0.0,0,2001.0,0
554,554,-0.03173394225481918,-0.0,0.0,1.0,376.0,580.0,1.0,0,-886.0,1
555,555,-0.2689542387256786,-0.3,0.0,1.0,314.0,734.0,0.0,1,1952.0,0
556,556,-0.8906767997841601,-0.9,0.0,1.0,380.0,684.0,0.0,1,1936.0,0
557,557,0.30650661535327284,0.3,1.0,1.0,271.0,722.0,0.0,0,2007.0,0
558,558,0.8823730139802449,0.9,1.0,1.0,304.0,570.0,0.0,0,2126.0,0
559,559,-0.5488769564878736,-0.5,0.0,1.0,473.0,562.0,0.0,1,1965.0,0
560,560,0.7985813906299327,0.8,0.0,0.0,323.0,853.0,0.0,1,1824.0,1
561,561,0.2357609815544076,0.2,0.0,0.0,435.0,591.0,0.0,1,1974.0,1
562,562,-0.45689503382170327,-0.5,1.0,0.0,375.0,504.0,0.0,0,2121.0,1
563,563,-0.7863887142016993,-0.8,1.0,0.0,404.0,828.0,0.0,0,1768.0,1
564,564,0.052788310001041894,0.1,1.0,1.0,374.0,868.0,0.0,0,1758.0,0
565,565,0.8214178613993447,0.8,0.0,0.0,296.0,941.0,1.0,0,-1227.0,0
566,566,0.6161832807734068,0.6,1.0,1.0,363.0,521.0,0.0,0,2116.0,0
567,567,0.33354483816822833,0.3,0.0,0.0,324.0,602.0,0.0,1,2074.0,1
568,568,-0.6750862983154158,-0.7,0.0,1.0,276.0,650.0,0.0,1,2074.0,0
569,569,-0.30042081294757317,-0.3,1.0,0.0,277.0,683.0,0.0,0,2040.0,1
570,570,0.12853357137312804,0.1,0.0,0.0,374.0,620.0,0.0,1,-954.0,1
571,571,-0.2697290258987606,-0.3,1.0,0.0,318.0,958.0,0.0,0,1724.0,1
572,572,-0.6996815512011577,-0.7,0.0,1.0,402.0,509.0,1.0,0,-861.0,1
573,573,0.05726019839694929,0.1,1.0,1.0,304.0,800.0,0.0,0,1896.0,0
574,574,0.27417816171313636,0.3,0.0,0.0,295.0,915.0,0.0,1,1790.0,1
575,575,-0.4469295881536269,-0.4,1.0,0.0,341.0,871.0,0.0,0,1788.0,1
576,576,0.167922920519321,0.2,0.0,0.0,333.0,657.0,0.0,1,2010.0,1
577,577,-0.10807463448845,-0.1,1.0,0.0,256.0,704.0,0.0,0,-870.0,1
578,578,-0.09261777308926789,-0.1,0.0,1.0,308.0,659.0,0.0,1,2033.0,0
579,579,0.28547589903174064,0.3,0.0,0.0,318.0,711.0,0.0,1,1971.0,1
580,580,0.4952100093081758,0.5,0.0,0.0,251.0,669.0,0.0,1,2080.0,1
581,581,0.11851026134780074,0.1,1.0,1.0,396.0,673.0,1.0,1,-1059.0,1
582,582,-0.13143982194211157,-0.1,0.0,1.0,385.0,903.0,0.0,1,1712.0,0
583,583,-0.06070045556896775,-0.1,0.0,1.0,498.0,754.0,0.0,1,1748.0,0
584,584,0.5845358169788689,0.6,0.0,0.0,269.0,922.0,0.0,1,1809.0,1
585,585,0.47365420577997364,0.5,1.0,1.0,413.0,611.0,0.0,0,-1004.0,0
586,586,-0.16275462535231622,-0.2,0.0,1.0,401.0,762.0,0.0,1,1837.0,0
587,587,0.5354199943307515,0.5,1.0,1.0,489.0,770.0,0.0,0,1741.0,0
588,588,0.40938247015633766,0.4,1.0,1.0,423.0,798.0,0.0,0,-1171.0,0
589,589,0.21726134120826568,0.2,1.0,1.0,482.0,824.0,0.0,0,1694.0,0
590,590,-0.8787218737468062,-0.9,1.0,0.0,466.0,965.0,1.0,1,-1421.0,0
591,591,-0.12542645745476166,-0.1,1.0,0.0,408.0,519.0,0.0,0,2073.0,1
592,592,0.7213103725388782,0.7,0.0,0.0,372.0,911.0,0.0,1,1717.0,1
593,593,-0.22231239394264968,-0.2,0.0,1.0,342.0,596.0,0.0,1,2062.0,0
594,594,-0.34063898942050075,-0.3,1.0,0.0,370.0,802.0,0.0,0,1828.0,1
595,595,0.7697779339457248,0.8,0.0,0.0,487.0,579.0,0.0,1,1934.0,1
596,596,0.23930162395828292,0.2,1.0,1.0,471.0,709.0,0.0,0,-1140.0,0
597,597,0.7456726146365101,0.7,0.0,0.0,425.0,638.0,0.0,1,1937.0,1
598,598,-0.14039529092076775,-0.1,1.0,0.0,395.0,796.0,0.0,0,1809.0,1
599,599,0.10405747055502712,0.1,0.0,0.0,396.0,644.0,0.0,1,1960.0,1
600,600,-0.42717260858101674,-0.4,0.0,1.0,345.0,895.0,0.0,1,1760.0,0
601,601,-0.6808923779318147,-0.7,1.0,0.0,451.0,876.0,0.0,0,1673.0,1
602,602,0.12121601352894162,0.1,1.0,1.0,486.0,849.0,0.0,0,1665.0,0
603,603,-0.051874388658932125,-0.1,0.0,1.0,286.0,977.0,0.0,1,1737.0,0
604,604,0.5975024385516888,0.6,1.0,1.0,396.0,576.0,0.0,0,2028.0,0
605,605,0.6620585756514697,0.7,1.0,1.0,424.0,521.0,0.0,0,2055.0,0
606,606,-0.7561553018709034,-0.8,1.0,0.0,256.0,542.0,0.0,0,2202.0,1
607,607,0.17319396747137838,0.2,1.0,1.0,487.0,769.0,0.0,0,1744.0,0
608,608,-0.28903394034524965,-0.3,1.0,0.0,340.0,751.0,0.0,0,1909.0,1
609,609,-0.17567609926642047,-0.2,1.0,0.0,346.0,638.0,0.0,0,2016.0,1
610,610,0.37249526288949786,0.4,1.0,1.0,450.0,849.0,1.0,1,-1299.0,1
611,611,-0.7795387518193319,-0.8,1.0,0.0,347.0,637.0,1.0,1,-984.0,0
612,612,0.72840692760742,0.7,1.0,1.0,254.0,901.0,0.0,0,1845.0,0
613,613,-0.6367279065748059,-0.6,1.0,0.0,390.0,956.0,0.0,0,1654.0,1
614,614,-0.6147252545635944,-0.6,1.0,0.0,480.0,862.0,0.0,0,1658.0,1
615,615,0.20526466215926298,0.2,0.0,0.0,384.0,652.0,0.0,1,1964.0,1
616,616,0.24338915489793955,0.2,0.0,0.0,321.0,768.0,0.0,1,1911.0,1
617,617,-0.640764302448795,-0.6,1.0,0.0,319.0,870.0,0.0,0,1811.0,1
618,618,0.8251654461309609,0.8,0.0,0.0,375.0,773.0,0.0,1,1852.0,1
619,619,-0.6234178017987476,-0.6,1.0,0.0,353.0,878.0,0.0,0,1769.0,1
620,620,-0.10582702990670911,-0.1,0.0,1.0,320.0,791.0,0.0,1,1889.0,0
621,621,-0.48214107477869417,-0.5,0.0,1.0,307.0,864.0,0.0,1,1829.0,0
622,622,-0.3125593966223974,-0.3,1.0,0.0,365.0,612.0,1.0,1,-937.0,0
623,623,-0.7882307598051934,-0.8,1.0,0.0,295.0,612.0,0.0,0,2093.0,1
624,624,-0.8473005392268614,-0.8,1.0,0.0,481.0,933.0,0.0,0,1586.0,1
625,625,-0.5539403140157283,-0.6,0.0,1.0,296.0,552.0,0.0,1,2152.0,0
626,626,-0.08158999439377101,-0.1,0.0,1.0,332.0,530.0,0.0,1,2138.0,0
627,627,0.6802298600147546,0.7,1.0,1.0,290.0,830.0,0.0,0,1880.0,0
628,628,-0.36560439883007967,-0.4,0.0,1.0,488.0,722.0,0.0,1,1790.0,0
629,629,-0.6073082783438135,-0.6,0.0,1.0,320.0,872.0,0.0,1,1808.0,0
630,630,0.3702747782708987,0.4,0.0,0.0,346.0,570.0,0.0,1,2084.0,1
631,631,0.6224574846897212,0.6,1.0,1.0,267.0,511.0,1.0,1,-758.0,1
632,632,-0.6717058705656108,-0.7,0.0,1.0,497.0,936.0,0.0,1,1567.0,0
633,633,0.11670327640825195,0.1,0.0,0.0,352.0,866.0,0.0,1,1782.0,1
634,634,-0.04347243990527039,-0.0,1.0,0.0,393.0,634.0,0.0,0,1973.0,1
635,635,0.0023657244418507917,0.0,1.0,1.0,476.0,808.0,0.0,0,1716.0,0
636,636,0.06804920023131089,0.1,0.0,0.0,476.0,929.0,0.0,1,1595.0,1
637,637,0.523511926929893,0.5,0.0,0.0,462.0,676.0,0.0,1,1862.0,1
638,638,-0.7317144724454007,-0.7,0.0,1.0,271.0,850.0,0.0,1,1879.0,0
639,639,-0.7782059030174201,-0.8,1.0,0.0,489.0,725.0,0.0,0,1786.0,1
640,640,-0.024146848724176495,-0.0,1.0,0.0,469.0,566.0,0.0,0,1965.0,1
641,641,-0.8515334450592531,-0.9,0.0,1.0,421.0,959.0,0.0,1,1620.0,0
642,642,0.7261895727823607,0.7,0.0,0.0,402.0,661.0,0.0,1,1937.0,1
643,643,-0.815463534167244,-0.8,0.0,1.0,468.0,910.0,0.0,1,1622.0,0
644,644,-0.8667974618091693,-0.9,1.0,0.0,333.0,735.0,0.0,0,1932.0,1
645,645,-0.12998430930993654,-0.1,1.0,0.0,351.0,887.0,0.0,0,1762.0,1
646,646,0.1669937091480257,0.2,1.0,1.0,367.0,718.0,0.0,0,1915.0,0
647,647,-0.7999394706463966,-0.8,1.0,0.0,305.0,751.0,0.0,0,1944.0,1
648,648,-0.7445489288588916,-0.7,0.0,1.0,266.0,698.0,0.0,1,2036.0,0
649,649,0.5904155960836183,0.6,1.0,1.0,415.0,638.0,0.0,0,1947.0,0
650,650,-0.23058782071710193,-0.2,1.0,0.0,478.0,752.0,0.0,0,1770.0,1
651,651,0.7851651560361933,0.8,0.0,0.0,486.0,699.0,0.0,1,1815.0,1
652,652,0.8830149911915969,0.9,0.0,0.0,496.0,925.0,0.0,1,1579.0,1
653,653,-0.5931420212303768,-0.6,1.0,0.0,295.0,739.0,0.0,0,-984.0,1
654,654,0.46252287870752185,0.5,0.0,0.0,439.0,927.0,0.0,1,1634.0,1
655,655,0.6996043504943127,0.7,1.0,1.0,341.0,663.0,0.0,0,1996.0,0
656,656,0.8251551986693958,0.8,0.0,0.0,437.0,539.0,0.0,1,2024.0,1
657,657,-0.4359664104370054,-0.4,0.0,1.0,304.0,989.0,0.0,1,1707.0,0
658,658,-0.2841734001519324,-0.3,1.0,0.0,321.0,962.0,0.0,0,1717.0,1
659,659,-0.019125013015910963,-0.0,1.0,0.0,484.0,526.0,0.0,0,1990.0,1
660,660,-0.8268348880798484,-0.8,0.0,1.0,324.0,800.0,0.0,1,1876.0,0
661,661,-0.5686387356500577,-0.6,0.0,1.0,397.0,857.0,0.0,1,1746.0,0
662,662,0.3849757755541062,0.4,1.0,1.0,431.0,780.0,0.0,0,1789.0,0
663,663,-0.8383272823232416,-0.8,0.0,1.0,317.0,681.0,0.0,1,2002.0,0
664,664,-0.7146873174560284,-0.7,0.0,1.0,319.0,556.0,0.0,1,2125.0,0
665,665,-0.45549142329574105,-0.5,0.0,1.0,451.0,696.0,0.0,1,1853.0,0
666,666,-0.15590218599678218,-0.2,0.0,1.0,358.0,873.0,0.0,1,1769.0,0
667,667,-0.4229750673413781,-0.4,1.0,0.0,491.0,704.0,0.0,0,1805.0,1
668,668,-0.34621258579098724,-0.3,1.0,0.0,495.0,805.0,0.0,0,1700.0,1
669,669,0.8372486025647422,0.8,1.0,1.0,397.0,624.0,0.0,0,1979.0,0
670,670,0.695137735265389,0.7,0.0,0.0,322.0,847.0,1.0,0,-1109.0,0
671,671,0.6679738480368936,0.7,1.0,1.0,262.0,956.0,0.0,0,1782.0,0
672,672,-0.5017827393739386,-0.5,0.0,1.0,260.0,724.0,0.0,1,2016.0,0
673,673,-0.5446395161466165,-0.5,1.0,0.0,357.0,629.0,0.0,0,2014.0,1
674,674,0.681130525969286,0.7,1.0,1.0,281.0,997.0,0.0,0,1722.0,0
675,675,-0.5121811177110088,-0.5,0.0,1.0,465.0,686.0,0.0,1,-1081.0,0
676,676,0.4114979612526716,0.4,0.0,0.0,274.0,609.0,0.0,1,2117.0,1
677,677,0.46764126794557825,0.5,1.0,1.0,280.0,886.0,0.0,0,1834.0,0
678,678,0.005372521529360741,0.0,1.0,1.0,325.0,849.0,0.0,0,1826.0,0
679,679,-0.5751691197259701,-0.6,1.0,0.0,417.0,703.0,0.0,0,1880.0,1
680,680,-0.7570155382284941,-0.8,1.0,0.0,282.0,771.0,0.0,0,1947.0,1
681,681,-0.25903198736811683,-0.3,1.0,0.0,462.0,667.0,1.0,1,-1009.0,0
682,682,-0.6011541294560692,-0.6,0.0,1.0,434.0,796.0,0.0,1,1770.0,0
683,683,-0.4899105434232357,-0.5,0.0,1.0,264.0,959.0,0.0,1,1777.0,0
684,684,-0.12338998298829518,-0.1,1.0,0.0,411.0,595.0,0.0,0,1994.0,1
685,685,-0.6327138794822125,-0.6,0.0,1.0,261.0,967.0,0.0,1,1772.0,0
686,686,0.3456199008808033,0.3,1.0,1.0,416.0,794.0,0.0,0,1790.0,0
687,687,-0.4267970587577142,-0.4,1.0,0.0,425.0,752.0,0.0,0,1823.0,1
688,688,-0.3868172730347401,-0.4,1.0,0.0,354.0,600.0,0.0,0,2046.0,1
689,689,-0.06489893611797526,-0.1,0.0,1.0,490.0,975.0,0.0,1,1535.0,0
690,690,-0.0894779373118012,-0.1,1.0,0.0,441.0,801.0,0.0,0,1758.0,1
691,691,-0.8594638170554741,-0.9,0.0,1.0,328.0,936.0,0.0,1,-1184.0,0
692,692,0.011666806196033663,0.0,1.0,1.0,392.0,868.0,0.0,0,1740.0,0
693,693,-0.4334571869892932,-0.4,1.0,0.0,254.0,821.0,0.0,0,1925.0,1
694,694,-0.027442984139980475,-0.0,0.0,1.0,414.0,566.0,0.0,1,2020.0,0
695,695,0.30859405060109035,0.3,0.0,0.0,392.0,831.0,0.0,1,1777.0,1
696,696,-0.49691164532760995,-0.5,1.0,0.0,257.0,518.0,0.0,0,2225.0,1
697,697,0.5430852637101066,0.5,1.0,1.0,449.0,779.0,0.0,0,1772.0,0
698,698,0.46178581029734145,0.5,0.0,0.0,428.0,670.0,0.0,1,1902.0,1
699,699,0.12326333831892711,0.1,0.0,0.0,352.0,651.0,0.0,1,1997.0,1
700,700,-0.5287216613108994,-0.5,0.0,1.0,460.0,595.0,0.0,1,1945.0,0
701,701,0.7339858390256376,0.7,0.0,0.0,382.0,816.0,1.0,0,-1148.0,0
702,702,-0.14462890803858897,-0.1,0.0,1.0,472.0,694.0,0.0,1,1834.0,0
703,703,-0.8434585329299866,-0.8,0.0,1.0,306.0,936.0,0.0,1,1758.0,0
704,704,-0.6871058626492845,-0.7,0.0,1.0,478.0,953.0,0.0,1,1569.0,0
705,705,0.4680150930409145,0.5,1.0,1.0,284.0,658.0,0.0,0,2058.0,0
706,706,0.007824356857768389,0.0,0.0,0.0,304.0,554.0,0.0,1,2142.0,1
707,707,0.040500680820890644,0.0,0.0,0.0,331.0,607.0,0.0,1,2062.0,1
708,708,0.8832984818219586,0.9,1.0,1.0,250.0,944.0,0.0,0,1806.0,0
709,709,0.8035912765733134,0.8,1.0,1.0,430.0,920.0,0.0,0,1650.0,0
710,710,0.523119823355194,0.5,0.0,0.0,309.0,780.0,0.0,1,1911.0,1
711,711,0.31286789831463746,0.3,0.0,0.0,327.0,672.0,0.0,1,2001.0,1
712,712,0.8276960393423293,0.8,1.0,1.0,469.0,642.0,0.0,0,1889.0,0
713,713,0.546150668725737,0.5,0.0,0.0,289.0,884.0,0.0,1,1827.0,1
714,714,0.8618786364313827,0.9,0.0,0.0,282.0,896.0,0.0,1,1822.0,1
715,715,0.36759180591904206,0.4,1.0,1.0,254.0,609.0,0.0,0,2137.0,0
716,716,0.41231937453377865,0.4,1.0,1.0,372.0,637.0,0.0,0,1991.0,0
717,717,-0.4818638316008631,-0.5,0.0,1.0,380.0,908.0,0.0,1,1712.0,0
718,718,-0.6963542918810104,-0.7,1.0,0.0,462.0,685.0,0.0,0,1853.0,1
719,719,0.5185825266838983,0.5,1.0,1.0,472.0,611.0,0.0,0,1917.0,0
720,720,0.037142469363598885,0.0,0.0,0.0,265.0,556.0,0.0,1,2179.0,1
721,721,-0.5860838290921766,-0.6,0.0,1.0,299.0,917.0,0.0,1,1784.0,0
722,722,0.5657257196433626,0.6,1.0,1.0,329.0,726.0,0.0,0,1945.0,0
723,723,0.1527392114174101,0.2,1.0,1.0,454.0,620.0,0.0,0,1926.0,0
724,724,-0.68310373200269,-0.7,0.0,1.0,287.0,627.0,0.0,1,2086.0,0
725,725,0.44518821248314777,0.4,1.0,1.0,472.0,851.0,1.0,1,-1233.0,1
726,726,0.3899494838387839,0.4,1.0,1.0,489.0,623.0,0.0,0,1888.0,0
727,727,0.42865400639384255,0.4,1.0,1.0,411.0,969.0,0.0,0,1620.0,0
728,728,-0.7022736482586506,-0.7,1.0,0.0,489.0,812.0,0.0,0,1699.0,1
729,729,-0.10170827033355256,-0.1,1.0,0.0,440.0,824.0,0.0,0,1736.0,1
730,730,0.3775592513989775,0.4,0.0,0.0,270.0,585.0,0.0,1,2145.0,1
731,731,0.1367845938347475,0.1,0.0,0.0,290.0,679.0,0.0,1,2031.0,1
732,732,0.6813050058693989,0.7,0.0,0.0,386.0,788.0,0.0,1,1826.0,1
733,733,0.44827412099426456,0.4,1.0,1.0,343.0,814.0,0.0,0,1843.0,0
734,734,-0.8462826977863716,-0.8,1.0,0.0,494.0,986.0,0.0,0,1520.0,1
735,735,-0.49043527516509444,-0.5,0.0,1.0,476.0,603.0,0.0,1,1921.0,0
736,736,0.6777510116612081,0.7,1.0,1.0,470.0,930.0,0.0,0,1600.0,0
737,737,0.3965663468370494,0.4,0.0,0.0,341.0,942.0,0.0,1,1717.0,1
738,738,-0.3711274782396252,-0.4,1.0,0.0,494.0,660.0,0.0,0,1846.0,1
739,739,0.41594698874572933,0.4,0.0,0.0,272.0,549.0,0.0,1,2179.0,1
740,740,-0.8455474648650346,-0.8,1.0,0.0,267.0,531.0,0.0,0,2202.0,1
741,741,0.30050168618214446,0.3,1.0,1.0,321.0,587.0,0.0,0,2092.0,0
742,742,0.17879852216023162,0.2,0.0,0.0,445.0,638.0,0.0,1,1917.0,1
743,743,-0.8626727071803844,-0.9,1.0,0.0,285.0,976.0,0.0,0,1739.0,1
744,744,0.2884783846400877,0.3,1.0,1.0,373.0,832.0,0.0,0,1795.0,0
745,745,-0.8221290090161817,-0.8,1.0,0.0,369.0,735.0,0.0,0,1896.0,1
746,746,0.0847472160854782,0.1,0.0,0.0,293.0,699.0,0.0,1,2008.0,1
747,747,0.8988026604137277,0.9,0.0,0.0,294.0,823.0,0.0,1,-1107.0,1
748,748,-0.8362240685029502,-0.8,1.0,0.0,412.0,547.0,0.0,0,2041.0,1
749,749,0.1915109907639786,0.2,0.0,0.0,427.0,712.0,0.0,1,1861.0,1
750,750,0.6965542796437839,0.7,1.0,1.0,359.0,592.0,0.0,0,2049.0,0
751,751,-0.34040064388952196,-0.3,1.0,0.0,407.0,660.0,0.0,0,1933.0,1
752,752,0.7873057940974061,0.8,0.0,0.0,417.0,908.0,0.0,1,1675.0,1
753,753,0.5943383708941256,0.6,1.0,1.0,404.0,918.0,0.0,0,-1222.0,0
754,754,-0.683411152099866,-0.7,0.0,1.0,323.0,888.0,0.0,1,1789.0,0
755,755,-0.8820792315794685,-0.9,0.0,1.0,465.0,989.0,0.0,1,1546.0,0
756,756,-0.8630864377035827,-0.9,0.0,1.0,354.0,622.0,0.0,1,2024.0,0
757,757,0.899394995092439,0.9,1.0,1.0,261.0,823.0,0.0,0,1916.0,0
758,758,0.17187527081552478,0.2,1.0,1.0,275.0,700.0,0.0,0,2025.0,0
759,759,0.37410570130320664,0.4,1.0,1.0,300.0,615.0,0.0,0,2085.0,0
760,760,0.8901419312056665,0.9,0.0,0.0,440.0,957.0,0.0,1,1603.0,1
761,761,0.31511600729113,0.3,1.0,1.0,430.0,609.0,0.0,0,1961.0,0
762,762,-0.6037110792802266,-0.6,1.0,0.0,251.0,570.0,0.0,0,2179.0,1
763,763,-0.37721286641440843,-0.4,1.0,0.0,494.0,502.0,0.0,0,2004.0,1
764,764,0.4562053581973403,0.5,0.0,0.0,323.0,651.0,0.0,1,2026.0,1
765,765,-0.5698177091404446,-0.6,1.0,0.0,301.0,921.0,0.0,0,1778.0,1
766,766,0.3593661558606688,0.4,1.0,1.0,307.0,793.0,0.0,0,1900.0,0
767,767,0.7252885853870931,0.7,1.0,1.0,492.0,779.0,0.0,0,1729.0,0
768,768,0.3698303789727574,0.4,0.0,0.0,316.0,958.0,0.0,1,1726.0,1
769,769,-0.010955240015834589,-0.0,0.0,1.0,345.0,730.0,0.0,1,1925.0,0
770,770,0.8105759683953148,0.8,0.0,0.0,411.0,619.0,0.0,1,1970.0,1
771,771,-0.8241289201959084,-0.8,0.0,1.0,266.0,529.0,0.0,1,-755.0,0
772,772,-0.5130277892493205,-0.5,1.0,0.0,384.0,680.0,0.0,0,1936.0,1
773,773,-0.5172830122646686,-0.5,0.0,1.0,461.0,617.0,0.0,1,1922.0,0
774,774,-0.6011207407513135,-0.6,1.0,0.0,280.0,685.0,0.0,0,2035.0,1
775,775,-0.3551240571001686,-0.4,0.0,1.0,290.0,898.0,0.0,1,1812.0,0
776,776,0.47815003780566323,0.5,0.0,0.0,384.0,901.0,0.0,1,1715.0,1
777,777,-0.12086418400328824,-0.1,0.0,1.0,284.0,765.0,0.0,1,1951.0,0
778,778,-0.6952248769567428,-0.7,0.0,1.0,359.0,926.0,0.0,1,1715.0,0
779,779,-0.8296125560296622,-0.8,1.0,0.0,251.0,673.0,0.0,0,2076.0,1
780,780,0.6609614910271625,0.7,0.0,0.0,288.0,669.0,0.0,1,2043.0,1
781,781,-0.09737485560506165,-0.1,0.0,1.0,347.0,568.0,0.0,1,2085.0,0
782,782,0.7801544348420767,0.8,1.0,1.0,405.0,720.0,0.0,0,1875.0,0
783,783,-0.6055960151241921,-0.6,1.0,0.0,443.0,562.0,0.0,0,1995.0,1
784,784,-0.8888591037727488,-0.9,0.0,1.0,347.0,880.0,0.0,1,1773.0,0
785,785,0.41756229981661586,0.4,1.0,1.0,318.0,656.0,0.0,0,2026.0,0
786,786,0.8179887079796565,0.8,0.0,0.0,384.0,668.0,0.0,1,1948.0,1
787,787,0.8145854036350174,0.8,1.0,1.0,466.0,762.0,0.0,0,1772.0,0
788,788,-0.3403843601901244,-0.3,1.0,0.0,483.0,505.0,0.0,0,2012.0,1
789,789,0.1518456057657046,0.2,1.0,1.0,360.0,755.0,0.0,0,1885.0,0
790,790,0.49079078080734717,0.5,0.0,0.0,273.0,874.0,0.0,1,1853.0,1
791,791,0.7330859425905024,0.7,1.0,1.0,401.0,820.0,0.0,0,1779.0,0
792,792,-0.3713262701019534,-0.4,0.0,1.0,346.0,873.0,0.0,1,1781.0,0
793,793,0.8109836290560161,0.8,1.0,1.0,329.0,532.0,0.0,0,2139.0,0
794,794,-0.023459719046045713,-0.0,1.0,0.0,415.0,677.0,0.0,0,1908.0,1
795,795,0.6954756290330356,0.7,1.0,1.0,428.0,893.0,0.0,0,1679.0,0
796,796,0.17010113885247014,0.2,0.0,0.0,266.0,682.0,0.0,1,2052.0,1
797,797,-0.043328495659703536,-0.0,0.0,1.0,402.0,630.0,0.0,1,1968.0,0
798,798,-0.42243741061978185,-0.4,0.0,1.0,422.0,962.0,0.0,1,1616.0,0
799,799,-0.8730558245751487,-0.9,1.0,0.0,280.0,609.0,0.0,0,2111.0,1
800,800,-0.23582077754437347,-0.2,1.0,0.0,250.0,536.0,0.0,0,-706.0,1
801,801,0.2333070822327511,0.2,1.0,1.0,349.0,789.0,1.0,1,-1108.0,1
802,802,-0.6694607453776584,-0.7,1.0,0.0,307.0,974.0,0.0,0,1719.0,1
803,803,-0.4574225466492178,-0.5,1.0,0.0,296.0,949.0,0.0,0,1755.0,1
804,804,-0.5946579732466233,-0.6,0.0,1.0,356.0,740.0,0.0,1,1904.0,0
805,805,-0.6080345674771968,-0.6,0.0,1.0,433.0,885.0,0.0,1,-1228.0,0
806,806,-0.6063830471742988,-0.6,0.0,1.0,355.0,822.0,0.0,1,1823.0,0
807,807,0.007000601158267283,0.0,0.0,0.0,438.0,700.0,0.0,1,1862.0,1
808,808,-0.04127976232684927,-0.0,0.0,1.0,451.0,854.0,0.0,1,1695.0,0
809,809,-0.8859408327503849,-0.9,0.0,1.0,340.0,586.0,0.0,1,2074.0,0
810,810,-0.1289692111062447,-0.1,1.0,0.0,315.0,627.0,0.0,0,2058.0,1
811,811,-0.4390101191930366,-0.4,0.0,1.0,376.0,609.0,0.0,1,2015.0,0
812,812,0.27366550246583776,0.3,1.0,1.0,371.0,626.0,0.0,0,2003.0,0
813,813,0.7751953996912767,0.8,1.0,1.0,353.0,580.0,0.0,0,2067.0,0
814,814,-0.043959521392369694,-0.0,0.0,1.0,499.0,546.0,1.0,0,-1015.0,1
815,815,0.7747891180054997,0.8,1.0,1.0,290.0,503.0,0.0,0,2207.0,0
816,816,-0.41690754105372885,-0.4,0.0,1.0,307.0,746.0,0.0,1,1947.0,0
817,817,0.30644814720830527,0.3,1.0,1.0,272.0,803.0,0.0,0,1925.0,0
818,818,-0.5332286042205889,-0.5,1.0,0.0,397.0,519.0,0.0,0,2084.0,1
819,819,0.2213017944722736,0.2,1.0,1.0,408.0,542.0,0.0,0,2050.0,0
820,820,0.8211817192412002,0.8,1.0,1.0,480.0,867.0,0.0,0,1653.0,0
821,821,0.5969724250957998,0.6,0.0,0.0,260.0,919.0,0.0,1,1821.0,1
822,822,-0.17970237787839616,-0.2,0.0,1.0,270.0,581.0,0.0,1,2149.0,0
823,823,0.35041805904457435,0.4,0.0,0.0,287.0,686.0,0.0,1,2027.0,1
824,824,0.2625251183723919,0.3,1.0,1.0,445.0,916.0,0.0,0,1639.0,0
825,825,-0.889258532075324,-0.9,0.0,1.0,325.0,942.0,0.0,1,1733.0,0
826,826,-0.10156691370819082,-0.1,0.0,1.0,307.0,939.0,0.0,1,1754.0,0
827,827,0.4599616549592934,0.5,1.0,1.0,444.0,982.0,0.0,0,1574.0,0
828,828,-0.024317391052921633,-0.0,1.0,0.0,348.0,524.0,0.0,0,2128.0,1
829,829,-0.05207054074663264,-0.1,0.0,1.0,289.0,957.0,0.0,1,1754.0,0
830,830,0.4050572687273196,0.4,0.0,0.0,363.0,815.0,0.0,1,1822.0,1
831,831,0.7447288591439777,0.7,1.0,1.0,303.0,944.0,0.0,0,1753.0,0
832,832,0.6723797946259101,0.7,0.0,0.0,477.0,510.0,0.0,1,2013.0,1
833,833,0.37973762665028554,0.4,0.0,0.0,346.0,777.0,0.0,1,1877.0,1
834,834,0.8036061463541259,0.8,0.0,0.0,334.0,945.0,0.0,1,1721.0,1
835,835,-0.6040260830366164,-0.6,1.0,0.0,265.0,899.0,0.0,0,1836.0,1
836,836,0.47084302620936713,0.5,1.0,1.0,265.0,733.0,0.0,0,2002.0,0
837,837,0.6098417784935121,0.6,0.0,0.0,267.0,787.0,0.0,1,1946.0,1
838,838,-0.5082361508478179,-0.5,1.0,0.0,458.0,913.0,0.0,0,-1361.0,1
839,839,0.3451383952635546,0.3,1.0,1.0,472.0,926.0,0.0,0,1602.0,0
840,840,0.731893660128449,0.7,0.0,0.0,389.0,859.0,0.0,1,1752.0,1
841,841,-0.47502249185479817,-0.5,0.0,1.0,290.0,518.0,0.0,1,2192.0,0
842,842,-0.5424532558679473,-0.5,1.0,0.0,292.0,787.0,0.0,0,1921.0,1
843,843,0.4431855437943374,0.4,0.0,0.0,412.0,533.0,0.0,1,2055.0,1
844,844,-0.19570633571439244,-0.2,1.0,0.0,499.0,895.0,1.0,1,-1214.0,0
845,845,-0.8588052962801666,-0.9,0.0,1.0,327.0,944.0,0.0,1,1729.0,0
846,846,-0.0650672425757115,-0.1,1.0,0.0,466.0,578.0,0.0,0,1956.0,1
847,847,0.1982311032095173,0.2,0.0,0.0,302.0,624.0,0.0,1,2074.0,1
848,848,-0.5107454671277281,-0.5,0.0,1.0,439.0,923.0,1.0,0,-1302.0,1
849,849,-0.7668997461868766,-0.8,1.0,0.0,439.0,747.0,0.0,0,1814.0,1
850,850,-0.553195571095839,-0.6,1.0,0.0,263.0,572.0,0.0,0,2165.0,1
851,851,-0.635841783897206,-0.6,0.0,1.0,470.0,623.0,1.0,0,-1073.0,1
852,852,0.5422328810596596,0.5,1.0,1.0,419.0,601.0,0.0,0,1980.0,0
853,853,-0.3868506399066195,-0.4,0.0,1.0,456.0,566.0,0.0,1,1978.0,0
854,854,-0.3769346867879151,-0.4,1.0,0.0,381.0,571.0,0.0,0,2048.0,1
855,855,0.29469978197463254,0.3,1.0,1.0,305.0,969.0,0.0,0,1726.0,0
856,856,0.7234085908886295,0.7,0.0,0.0,397.0,969.0,0.0,1,1634.0,1
857,857,-0.7747719256608889,-0.8,1.0,0.0,307.0,923.0,0.0,0,1770.0,1
858,858,0.46233140944503137,0.5,0.0,0.0,418.0,998.0,0.0,1,1584.0,1
859,859,0.04715644767169713,0.0,0.0,0.0,370.0,622.0,0.0,1,2008.0,1
860,860,-0.2127679655192921,-0.2,1.0,0.0,354.0,912.0,0.0,0,1734.0,1
861,861,0.7832435174504536,0.8,0.0,0.0,336.0,964.0,0.0,1,1700.0,1
862,862,-0.37043229618559415,-0.4,0.0,1.0,306.0,879.0,0.0,1,1815.0,0
863,863,-0.2682964814167763,-0.3,0.0,1.0,433.0,532.0,0.0,1,2035.0,0
864,864,0.33860636697203284,0.3,1.0,1.0,481.0,888.0,0.0,0,-1349.0,0
865,865,-0.45880224954327714,-0.5,0.0,1.0,472.0,659.0,0.0,1,1869.0,0
866,866,0.10197549906599057,0.1,1.0,1.0,497.0,632.0,0.0,0,1871.0,0
867,867,0.04513522376232437,0.0,1.0,1.0,311.0,915.0,0.0,0,1774.0,0
868,868,0.3004141282069611,0.3,0.0,0.0,353.0,695.0,0.0,1,1952.0,1
869,869,0.19026367554113854,0.2,1.0,1.0,449.0,857.0,0.0,0,1694.0,0
870,870,-0.15799820239286977,-0.2,0.0,1.0,447.0,958.0,0.0,1,1595.0,0
871,871,-0.1254056428038598,-0.1,1.0,0.0,438.0,695.0,0.0,0,1867.0,1
872,872,0.7447116945626852,0.7,1.0,1.0,426.0,811.0,0.0,0,1763.0,0
873,873,-0.5173095594541871,-0.5,0.0,1.0,484.0,710.0,0.0,1,1806.0,0
874,874,-0.8120255895163442,-0.8,1.0,0.0,276.0,540.0,1.0,1,-736.0,0
875,875,0.5525076867432949,0.6,1.0,1.0,337.0,590.0,0.0,0,2073.0,0
876,876,-0.48953135587428204,-0.5,0.0,1.0,274.0,598.0,0.0,1,2128.0,0
877,877,0.12160545047082605,0.1,1.0,1.0,329.0,881.0,0.0,0,1790.0,0
878,878,-0.6478065224412259,-0.6,0.0,1.0,285.0,866.0,0.0,1,1849.0,0
879,879,0.424831617618986,0.4,0.0,0.0,289.0,847.0,0.0,1,1864.0,1
880,880,-0.39523867222294184,-0.4,1.0,0.0,458.0,773.0,0.0,0,1769.0,1
881,881,-0.29408122416151405,-0.3,0.0,1.0,314.0,697.0,0.0,1,-1001.0,0
882,882,-0.8868040250050622,-0.9,1.0,0.0,288.0,987.0,0.0,0,-1245.0,1
883,883,0.4798114052729675,0.5,1.0,1.0,444.0,803.0,0.0,0,1753.0,0
884,884,0.5775047003310124,0.6,1.0,1.0,299.0,925.0,0.0,0,1776.0,0
885,885,0.1959918183384587,0.2,1.0,1.0,262.0,506.0,0.0,0,2232.0,0
886,886,0.7267478561962125,0.7,1.0,1.0,356.0,769.0,0.0,0,1875.0,0
887,887,0.13061947501742732,0.1,0.0,0.0,363.0,776.0,0.0,1,1861.0,1
888,888,-0.5923552322179348,-0.6,0.0,1.0,466.0,778.0,0.0,1,1756.0,0
889,889,-0.18487746821070972,-0.2,0.0,1.0,476.0,620.0,0.0,1,1904.0,0
890,890,0.40228244413997805,0.4,0.0,0.0,418.0,866.0,0.0,1,1716.0,1
891,891,0.26068914886574135,0.3,1.0,1.0,344.0,691.0,0.0,0,1965.0,0
892,892,-0.7143602996279605,-0.7,0.0,1.0,460.0,818.0,0.0,1,1722.0,0
893,893,0.32763285466755077,0.3,0.0,0.0,253.0,673.0,0.0,1,2074.0,1
894,894,0.08553892820689113,0.1,0.0,0.0,451.0,563.0,0.0,1,1986.0,1
895,895,0.8870110388405249,0.9,0.0,0.0,278.0,930.0,0.0,1,1792.0,1
896,896,0.31457336828650495,0.3,1.0,1.0,478.0,555.0,0.0,0,1967.0,0
897,897,-0.7359976064437616,-0.7,0.0,1.0,324.0,921.0,0.0,1,1755.0,0
898,898,0.562712541665903,0.6,1.0,1.0,382.0,624.0,1.0,1,-936.0,1
899,899,-0.8691939157577756,-0.9,0.0,1.0,262.0,946.0,0.0,1,1792.0,0
900,900,-0.278866228854578,-0.3,1.0,0.0,256.0,958.0,0.0,0,1786.0,1
901,901,-0.811575732885948,-0.8,0.0,1.0,346.0,613.0,1.0,0,-899.0,1
902,902,0.3364583122573265,0.3,1.0,1.0,345.0,658.0,0.0,0,1997.0,0
903,903,-0.8171160637972504,-0.8,0.0,1.0,257.0,664.0,0.0,1,2079.0,0
904,904,0.8603358021593922,0.9,0.0,0.0,464.0,574.0,0.0,1,1962.0,1
905,905,0.6229723677221809,0.6,0.0,0.0,455.0,977.0,0.0,1,1568.0,1
906,906,0.23422605063068735,0.2,0.0,0.0,417.0,872.0,0.0,1,1711.0,1
907,907,-0.43077619178190135,-0.4,0.0,1.0,323.0,519.0,0.0,1,2158.0,0
908,908,-0.36127684195695087,-0.4,1.0,0.0,410.0,632.0,0.0,0,1958.0,1
909,909,-0.0627894779914453,-0.1,0.0,1.0,480.0,721.0,0.0,1,1799.0,0
910,910,-0.20488709709427277,-0.2,1.0,0.0,419.0,509.0,0.0,0,2072.0,1
911,911,0.04132725844140084,0.0,0.0,0.0,477.0,619.0,0.0,1,-1086.0,1
912,912,-0.8683152202286492,-0.9,0.0,1.0,309.0,912.0,0.0,1,-1171.0,0
913,913,-0.622281151478262,-0.6,1.0,0.0,290.0,979.0,0.0,0,1731.0,1
914,914,0.06378247618054356,0.1,0.0,0.0,314.0,738.0,1.0,0,-942.0,0
915,915,0.8939272521197527,0.9,1.0,1.0,394.0,981.0,0.0,0,1625.0,0
916,916,-0.5933329887522762,-0.6,0.0,1.0,425.0,513.0,0.0,1,2062.0,0
917,917,-0.2624257774367248,-0.3,0.0,1.0,291.0,751.0,0.0,1,1958.0,0
918,918,-0.46720704257986884,-0.5,0.0,1.0,300.0,881.0,0.0,1,1819.0,0
919,919,0.5390727015487066,0.5,0.0,0.0,404.0,636.0,0.0,1,1960.0,1
920,920,0.8333918780927735,0.8,1.0,1.0,263.0,984.0,0.0,0,1753.0,0
921,921,0.7993496247179838,0.8,0.0,0.0,258.0,736.0,0.0,1,2006.0,1
922,922,0.09715413260003392,0.1,1.0,1.0,349.0,728.0,0.0,0,1923.0,0
923,923,-0.6642042596544264,-0.7,1.0,0.0,288.0,957.0,0.0,0,-1205.0,1
924,924,0.8249003360568244,0.8,1.0,1.0,323.0,885.0,0.0,0,1792.0,0
925,925,0.6639580499799979,0.7,0.0,0.0,418.0,667.0,0.0,1,1915.0,1
926,926,0.6733299392729925,0.7,1.0,1.0,474.0,934.0,0.0,0,1592.0,0
927,927,-0.5471858688388507,-0.5,0.0,1.0,374.0,986.0,0.0,1,1640.0,0
928,928,0.8849482823622362,0.9,0.0,0.0,298.0,756.0,0.0,1,1946.0,1
929,929,0.6559158705199316,0.7,0.0,0.0,456.0,895.0,0.0,1,1649.0,1
930,930,-0.6831552528275546,-0.7,1.0,0.0,343.0,774.0,0.0,0,1883.0,1
931,931,-0.7974198979047137,-0.8,1.0,0.0,372.0,931.0,0.0,0,1697.0,1
932,932,0.6360927020436699,0.6,1.0,1.0,326.0,741.0,0.0,0,1933.0,0
933,933,-0.738424421131449,-0.7,0.0,1.0,446.0,708.0,0.0,1,1846.0,0
934,934,-0.41426357608868225,-0.4,0.0,1.0,257.0,983.0,0.0,1,1760.0,0
935,935,-0.23603511459809012,-0.2,0.0,1.0,288.0,594.0,0.0,1,2118.0,0
936,936,0.5348250859956795,0.5,1.0,1.0,289.0,624.0,0.0,0,2087.0,0
937,937,-0.31134923137936465,-0.3,0.0,1.0,433.0,656.0,0.0,1,1911.0,0
938,938,0.03142905205449853,0.0,0.0,0.0,382.0,570.0,0.0,1,2048.0,1
939,939,-0.0355392090029496,-0.0,0.0,1.0,286.0,532.0,0.0,1,2182.0,0
940,940,0.2001851069365218,0.2,1.0,1.0,463.0,683.0,0.0,0,1854.0,0
941,941,0.07848476595864406,0.1,1.0,1.0,390.0,902.0,0.0,0,1708.0,0
942,942,-0.711636506632658,-0.7,0.0,1.0,498.0,610.0,0.0,1,1892.0,0
943,943,-0.1788176136489834,-0.2,1.0,0.0,353.0,758.0,0.0,0,1889.0,1
944,944,-0.6992704373357473,-0.7,0.0,1.0,406.0,506.0,0.0,1,2088.0,0
945,945,0.7274859488453261,0.7,0.0,0.0,356.0,730.0,0.0,1,1914.0,1
946,946,-0.29948715513936996,-0.3,0.0,1.0,443.0,986.0,0.0,1,1571.0,0
947,947,-0.40470858768421536,-0.4,1.0,0.0,427.0,675.0,0.0,0,1898.0,1
948,948,-0.6777663826545564,-0.7,0.0,1.0,442.0,605.0,0.0,1,1953.0,0
949,949,-0.5733525057116629,-0.6,0.0,1.0,401.0,725.0,0.0,1,1874.0,0
950,950,0.24091611727431872,0.2,0.0,0.0,307.0,676.0,0.0,1,2017.0,1
951,951,0.435839843472157,0.4,0.0,0.0,306.0,671.0,0.0,1,2023.0,1
952,952,0.37348491395210204,0.4,1.0,1.0,461.0,844.0,0.0,0,1695.0,0
953,953,0.5512180807528243,0.6,1.0,1.0,265.0,896.0,0.0,0,1839.0,0
954,954,-0.36037652210565474,-0.4,0.0,1.0,293.0,874.0,0.0,1,1833.0,0
955,955,-0.8469043865374819,-0.8,0.0,1.0,301.0,543.0,0.0,1,2156.0,0
956,956,-0.5717177557492308,-0.6,1.0,0.0,480.0,535.0,0.0,0,1985.0,1
957,957,-0.8700471731933711,-0.9,1.0,0.0,358.0,542.0,0.0,0,2100.0,1
958,958,0.3449033386681345,0.3,0.0,0.0,436.0,806.0,0.0,1,1758.0,1
959,959,0.0436293213577994,0.0,0.0,0.0,412.0,671.0,0.0,1,1917.0,1
960,960,0.593480279849388,0.6,0.0,0.0,267.0,967.0,0.0,1,1766.0,1
961,961,0.06871151211618376,0.1,0.0,0.0,273.0,898.0,0.0,1,1829.0,1
962,962,0.3270803312996574,0.3,0.0,0.0,497.0,981.0,0.0,1,1522.0,1
963,963,0.2952325287605727,0.3,0.0,0.0,319.0,961.0,0.0,1,1720.0,1
964,964,0.03556581379626733,0.0,0.0,0.0,457.0,985.0,0.0,1,1558.0,1
965,965,-0.17110324682767952,-0.2,1.0,0.0,308.0,830.0,0.0,0,1862.0,1
966,966,0.19804507342233124,0.2,1.0,1.0,355.0,569.0,0.0,0,2076.0,0
967,967,-0.6533560167768899,-0.7,1.0,0.0,349.0,826.0,0.0,0,1825.0,1
968,968,-0.8374076639476973,-0.8,1.0,0.0,337.0,884.0,0.0,0,1779.0,1
969,969,-0.28133269382259196,-0.3,0.0,1.0,484.0,601.0,0.0,1,1915.0,0
970,970,0.8892085184203949,0.9,0.0,0.0,456.0,630.0,0.0,1,1914.0,1
971,971,0.420111889012562,0.4,0.0,0.0,397.0,679.0,0.0,1,1924.0,1
972,972,0.25155443834562374,0.3,0.0,0.0,491.0,868.0,0.0,1,1641.0,1
973,973,-0.5044624183262989,-0.5,0.0,1.0,418.0,968.0,1.0,0,-1376.0,1
974,974,-0.07078914523466007,-0.1,0.0,1.0,496.0,981.0,0.0,1,1523.0,0
975,975,-0.33169128544142745,-0.3,0.0,1.0,419.0,876.0,1.0,0,-1275.0,1
976,976,0.7204010668079072,0.7,0.0,0.0,399.0,790.0,0.0,1,1811.0,1
977,977,0.5463614867071348,0.5,0.0,0.0,270.0,730.0,0.0,1,2000.0,1
978,978,0.026486204636935073,0.0,1.0,1.0,410.0,872.0,0.0,0,1718.0,0
979,979,0.43226104570008317,0.4,0.0,0.0,428.0,638.0,0.0,1,1934.0,1
980,980,0.41911645940285747,0.4,0.0,0.0,499.0,813.0,0.0,1,1688.0,1
981,981,0.009450405883009383,0.0,0.0,0.0,409.0,809.0,1.0,0,-1188.0,0
982,982,0.6284284433679289,0.6,1.0,1.0,454.0,621.0,1.0,1,-1005.0,1
983,983,-0.3323942076027633,-0.3,0.0,1.0,338.0,857.0,0.0,1,1805.0,0
984,984,-0.4725464671713772,-0.5,1.0,0.0,493.0,579.0,0.0,0,-1052.0,1
985,985,0.3098663529172593,0.3,0.0,0.0,342.0,530.0,0.0,1,2128.0,1
986,986,-0.512542732797399,-0.5,0.0,1.0,391.0,570.0,0.0,1,2039.0,0
987,987,-0.5517256527150003,-0.6,0.0,1.0,309.0,580.0,0.0,1,2111.0,0
988,988,0.007654145357294806,0.0,0.0,0.0,306.0,723.0,0.0,1,1971.0,1
989,989,0.3288612306945503,0.3,1.0,1.0,367.0,536.0,0.0,0,2097.0,0
990,990,-0.33091212854110297,-0.3,1.0,0.0,479.0,591.0,0.0,0,1930.0,1
991,991,-0.5496460672987245,-0.5,1.0,0.0,355.0,567.0,0.0,0,2078.0,1
992,992,0.5256111435031326,0.5,0.0,0.0,343.0,937.0,0.0,1,1720.0,1
993,993,0.7483748935042415,0.7,1.0,1.0,304.0,773.0,0.0,0,1923.0,0
994,994,0.517717166496107,0.5,0.0,0.0,357.0,945.0,0.0,1,1698.0,1
995,995,0.46132901561497375,0.5,1.0,1.0,339.0,509.0,0.0,0,2152.0,0
996,996,0.6005409851200175,0.6,0.0,0.0,469.0,621.0,0.0,1,1910.0,1
997,997,-0.8441577477982886,-0.8,1.0,0.0,372.0,636.0,0.0,0,1992.0,1
998,998,0.6759665751405778,0.7,1.0,1.0,398.0,813.0,0.0,0,1789.0,0
999,999,0.7607431737690568,0.8,1.0,1.0,495.0,896.0,0.0,0,1609.0,0
1000,1000,0.47850879194479023,0.5,0.0,0.0,259.0,789.0,0.0,1,1952.0,1
1001,1001,-0.7732688579353061,-0.8,1.0,0.0,324.0,514.0,0.0,0,2162.0,1
1002,1002,-0.8378209614530417,-0.8,0.0,1.0,394.0,768.0,0.0,1,1838.0,0
1003,1003,-0.7886695514228806,-0.8,1.0,0.0,363.0,836.0,0.0,0,1801.0,1
1004,1004,-0.5558770819599472,-0.6,1.0,0.0,312.0,606.0,0.0,0,-658.0,1
1005,1005,-0.3819141711093643,-0.4,1.0,0.0,454.0,723.0,0.0,0,1823.0,1
1006,1006,0.3706152449226833,0.4,1.0,1.0,417.0,858.0,0.0,0,1725.0,0
1007,1007,0.3784839246387971,0.4,1.0,1.0,270.0,747.0,0.0,0,1983.0,0
1008,1008,-0.7793142012136687,-0.8,1.0,0.0,410.0,983.0,0.0,0,1607.0,1
1009,1009,-0.026487354352281334,-0.0,1.0,0.0,463.0,709.0,0.0,0,1828.0,1
1010,1010,0.2520133267903554,0.3,0.0,0.0,285.0,789.0,0.0,1,1926.0,1
1011,1011,0.3214334925061314,0.3,1.0,1.0,399.0,580.0,0.0,0,2021.0,0
1012,1012,0.5490023626498174,0.5,0.0,0.0,284.0,986.0,0.0,1,1730.0,1
1013,1013,0.1166232314982566,0.1,1.0,1.0,287.0,545.0,0.0,0,2168.0,0
1014,1014,0.742364700310239,0.7,1.0,1.0,468.0,708.0,0.0,0,1824.0,0
1015,1015,-0.4336602928885279,-0.4,0.0,1.0,380.0,723.0,0.0,1,1897.0,0
1016,1016,-0.6621604964830841,-0.7,0.0,1.0,409.0,889.0,0.0,1,1702.0,0
1017,1017,-0.22126825167524133,-0.2,0.0,1.0,451.0,642.0,0.0,1,1907.0,0
1018,1018,-0.583581989291587,-0.6,0.0,1.0,406.0,977.0,0.0,1,1617.0,0
1019,1019,0.08884281265065963,0.1,0.0,0.0,430.0,918.0,1.0,0,-1218.0,0
1020,1020,-0.12026904832197693,-0.1,1.0,0.0,465.0,988.0,0.0,0,1547.0,1
1021,1021,-0.4385774373035045,-0.4,0.0,1.0,295.0,508.0,0.0,1,2197.0,0
1022,1022,0.0582164218421809,0.1,0.0,0.0,482.0,638.0,0.0,1,1880.0,1
1023,1023,0.29554239226994394,0.3,0.0,0.0,443.0,878.0,0.0,1,1679.0,1
1024,1024,0.06441291176461217,0.1,0.0,0.0,307.0,941.0,0.0,1,1752.0,1
1025,1025,-0.8465863105881278,-0.8,1.0,0.0,306.0,936.0,0.0,0,1758.0,1
1026,1026,0.7895124354776771,0.8,1.0,1.0,320.0,601.0,0.0,0,2079.0,0
1027,1027,-0.03535702569946941,-0.0,0.0,1.0,330.0,512.0,0.0,1,2158.0,0
1028,1028,0.7396731853438018,0.7,0.0,0.0,437.0,902.0,0.0,1,1661.0,1
1029,1029,0.24435251010977221,0.2,1.0,1.0,382.0,995.0,0.0,0,1623.0,0
1030,1030,-0.11556422383897369,-0.1,0.0,1.0,276.0,613.0,0.0,1,2111.0,0
1031,1031,0.25010276674678755,0.3,0.0,0.0,472.0,789.0,0.0,1,1739.0,1
1032,1032,-0.6004963166928037,-0.6,0.0,1.0,481.0,836.0,0.0,1,1683.0,0
1033,1033,0.48510698471884195,0.5,1.0,1.0,368.0,565.0,0.0,0,2067.0,0
1034,1034,-0.261407266976469,-0.3,0.0,1.0,354.0,928.0,0.0,1,1718.0,0
1035,1035,-0.30465749395172403,-0.3,1.0,0.0,443.0,982.0,0.0,0,1575.0,1
1036,1036,-0.788138892910265,-0.8,1.0,0.0,496.0,863.0,0.0,0,1641.0,1
1037,1037,0.228865460285664,0.2,0.0,0.0,361.0,608.0,0.0,1,2031.0,1
1038,1038,0.4855868150003749,0.5,0.0,0.0,434.0,603.0,0.0,1,1963.0,1
1039,1039,-0.09294377142270294,-0.1,0.0,1.0,269.0,923.0,0.0,1,1808.0,0
1040,1040,-0.19931353163939247,-0.2,0.0,1.0,319.0,918.0,0.0,1,1763.0,0
1041,1041,-0.7821539927436545,-0.8,0.0,1.0,498.0,523.0,0.0,1,1979.0,0
1042,1042,-0.29379875369686503,-0.3,0.0,1.0,493.0,621.0,0.0,1,1886.0,0
1043,1043,0.7627171170240278,0.8,1.0,1.0,335.0,514.0,0.0,0,2151.0,0
1044,1044,0.8152910330992499,0.8,1.0,1.0,253.0,764.0,0.0,0,1983.0,0
1045,1045,-0.7616497408592556,-0.8,0.0,1.0,300.0,604.0,0.0,1,2096.0,0
1046,1046,0.7479912343894312,0.7,0.0,0.0,315.0,986.0,0.0,1,1699.0,1
1047,1047,0.039112415528045785,0.0,1.0,1.0,417.0,649.0,0.0,0,1934.0,0
1048,1048,0.4377065858863617,0.4,1.0,1.0,421.0,993.0,0.0,0,1586.0,0
1049,1049,-0.24169597393106146,-0.2,1.0,0.0,489.0,677.0,0.0,0,1834.0,1
1050,1050,-0.8776883102553356,-0.9,1.0,0.0,476.0,751.0,0.0,0,1773.0,1
1051,1051,-0.6256551108350286,-0.6,1.0,0.0,420.0,820.0,0.0,0,1760.0,1
1052,1052,0.5072319860181361,0.5,0.0,0.0,490.0,556.0,0.0,1,1954.0,1
1053,1053,0.7578572884980336,0.8,1.0,1.0,327.0,587.0,0.0,0,2086.0,0
1054,1054,-0.39829868872104457,-0.4,0.0,1.0,402.0,947.0,0.0,1,1651.0,0
1055,1055,0.3548957314351878,0.4,1.0,1.0,284.0,768.0,0.0,0,1948.0,0
1056,1056,-0.4922677980779025,-0.5,0.0,1.0,433.0,954.0,0.0,1,1613.0,0
1057,1057,0.002238294336106117,0.0,1.0,1.0,374.0,934.0,0.0,0,1692.0,0
1058,1058,-0.32515446519658175,-0.3,1.0,0.0,330.0,930.0,0.0,0,1740.0,1
1059,1059,-0.8479524670426085,-0.8,1.0,0.0,305.0,660.0,0.0,0,2035.0,1
1060,1060,-0.22310171193754924,-0.2,0.0,1.0,375.0,707.0,0.0,1,1918.0,0
1061,1061,-0.3519443964699861,-0.4,1.0,0.0,356.0,593.0,0.0,0,2051.0,1
1062,1062,-0.5067615800456127,-0.5,0.0,1.0,353.0,613.0,0.0,1,2034.0,0
1063,1063,0.19139564288554578,0.2,1.0,1.0,436.0,520.0,0.0,0,2044.0,0
1064,1064,0.4979037690733815,0.5,1.0,1.0,333.0,652.0,0.0,0,2015.0,0
1065,1065,0.3706141582079877,0.4,0.0,0.0,342.0,791.0,0.0,1,1867.0,1
1066,1066,-0.6664785084595473,-0.7,0.0,1.0,373.0,871.0,0.0,1,1756.0,0
1067,1067,-0.2741525130240663,-0.3,0.0,1.0,292.0,858.0,0.0,1,1850.0,0
1068,1068,-0.36101103073036955,-0.4,0.0,1.0,259.0,611.0,0.0,1,2130.0,0
1069,1069,-0.7794365634642388,-0.8,1.0,0.0,474.0,948.0,0.0,0,1578.0,1
1070,1070,-0.7159731162720496,-0.7,0.0,1.0,333.0,909.0,0.0,1,1758.0,0
1071,1071,0.7025996826971203,0.7,1.0,1.0,285.0,994.0,0.0,0,1721.0,0
1072,1072,-0.17532229731498872,-0.2,0.0,1.0,416.0,918.0,0.0,1,1666.0,0
1073,1073,0.5849878895170931,0.6,1.0,1.0,495.0,909.0,0.0,0,1596.0,0
1074,1074,0.48975034485894164,0.5,1.0,1.0,469.0,709.0,0.0,0,1822.0,0
1075,1075,-0.7353448433750635,-0.7,0.0,1.0,294.0,527.0,0.0,1,2179.0,0
1076,1076,-0.45989331856695187,-0.5,1.0,0.0,393.0,920.0,0.0,0,1687.0,1
1077,1077,0.16098130858984627,0.2,1.0,1.0,342.0,822.0,0.0,0,1836.0,0
1078,1078,0.664277939074757,0.7,1.0,1.0,341.0,557.0,0.0,0,2102.0,0
1079,1079,-0.4242055029916718,-0.4,1.0,0.0,354.0,680.0,0.0,0,1966.0,1
1080,1080,-0.7765798852998027,-0.8,1.0,0.0,340.0,778.0,0.0,0,1882.0,1
1081,1081,0.036443806697338044,0.0,0.0,0.0,338.0,770.0,0.0,1,1892.0,1
1082,1082,-0.07825332620993275,-0.1,0.0,1.0,302.0,789.0,0.0,1,1909.0,0
1083,1083,0.8848857368530955,0.9,0.0,0.0,483.0,609.0,0.0,1,1908.0,1
1084,1084,-0.04449469505648129,-0.0,0.0,1.0,421.0,716.0,0.0,1,1863.0,0
1085,1085,0.7070152435400218,0.7,0.0,0.0,491.0,619.0,0.0,1,1890.0,1
1086,1086,-0.6218794054132639,-0.6,0.0,1.0,324.0,566.0,0.0,1,2110.0,0
1087,1087,0.1487192215999943,0.1,0.0,0.0,342.0,658.0,0.0,1,-980.0,1
1088,1088,0.5668153858434536,0.6,0.0,0.0,491.0,972.0,0.0,1,1537.0,1
1089,1089,0.5297469574804939,0.5,0.0,0.0,361.0,657.0,0.0,1,1982.0,1
1090,1090,0.14160664086757813,0.1,0.0,0.0,394.0,673.0,0.0,1,1933.0,1
1091,1091,0.07580410608648636,0.1,1.0,1.0,489.0,685.0,0.0,0,1826.0,0
1092,1092,-0.709776931322397,-0.7,1.0,0.0,369.0,608.0,0.0,0,2023.0,1
1093,1093,-0.06608345739670562,-0.1,0.0,1.0,486.0,945.0,0.0,1,1569.0,0
1094,1094,-0.30234082235173476,-0.3,1.0,0.0,269.0,882.0,1.0,1,-1091.0,0
1095,1095,-0.15693080478268495,-0.2,0.0,1.0,296.0,571.0,0.0,1,2133.0,0
1096,1096,-0.15673456039389488,-0.2,0.0,1.0,374.0,607.0,0.0,1,2019.0,0
1097,1097,0.48438608201556044,0.5,0.0,0.0,475.0,869.0,0.0,1,1656.0,1
1098,1098,-0.8096077317567757,-0.8,1.0,0.0,327.0,538.0,0.0,0,2135.0,1
1099,1099,-0.32272827088446143,-0.3,0.0,1.0,273.0,676.0,0.0,1,2051.0,0
1100,1100,0.7168409519698388,0.7,0.0,0.0,302.0,823.0,0.0,1,1875.0,1
1101,1101,-0.3240010940235626,-0.3,1.0,0.0,462.0,920.0,1.0,1,-1352.0,0
1102,1102,-0.15739527098076134,-0.2,1.0,0.0,302.0,859.0,0.0,0,1839.0,1
1103,1103,-0.38953164337412427,-0.4,1.0,0.0,461.0,886.0,0.0,0,1653.0,1
1104,1104,-0.3775793943939385,-0.4,0.0,1.0,277.0,962.0,0.0,1,1761.0,0
1105,1105,-0.18495528148176332,-0.2,1.0,0.0,362.0,736.0,0.0,0,1902.0,1
1106,1106,0.4173943243583561,0.4,0.0,0.0,381.0,612.0,0.0,1,2007.0,1
1107,1107,0.14670263374408676,0.1,1.0,1.0,289.0,683.0,0.0,0,2028.0,0
1108,1108,0.652231618514271,0.7,1.0,1.0,445.0,573.0,0.0,0,1982.0,0
1109,1109,-0.5000844308242572,-0.5,1.0,0.0,371.0,936.0,0.0,0,1693.0,1
1110,1110,0.2988834071529748,0.3,1.0,1.0,392.0,730.0,0.0,0,1878.0,0
1111,1111,0.3972590079891859,0.4,0.0,0.0,346.0,800.0,0.0,1,1854.0,1
1112,1112,-0.3921866879321396,-0.4,0.0,1.0,478.0,551.0,0.0,1,1971.0,0
1113,1113,0.1660679178474428,0.2,0.0,0.0,374.0,833.0,0.0,1,1793.0,1
1114,1114,-0.25177681526507323,-0.3,1.0,0.0,464.0,898.0,0.0,0,1638.0,1
1115,1115,0.5184939398808756,0.5,0.0,0.0,368.0,758.0,0.0,1,1874.0,1
1116,1116,-0.007401853200598052,-0.0,1.0,0.0,337.0,702.0,0.0,0,1961.0,1
1117,1117,-0.18569478195710076,-0.2,0.0,1.0,256.0,868.0,0.0,1,1876.0,0
1118,1118,0.3019947735527072,0.3,0.0,0.0,365.0,665.0,0.0,1,1970.0,1
1119,1119,-0.5446331078677729,-0.5,1.0,0.0,495.0,656.0,0.0,0,1849.0,1
1120,1120,-0.3332803196041525,-0.3,1.0,0.0,468.0,518.0,0.0,0,2014.0,1
1121,1121,0.27582434520068644,0.3,0.0,0.0,332.0,533.0,0.0,1,2135.0,1
1122,1122,-0.2573003844541575,-0.3,0.0,1.0,297.0,703.0,0.0,1,2000.0,0
1123,1123,-0.4281908962204972,-0.4,0.0,1.0,438.0,666.0,0.0,1,1896.0,0
1124,1124,-0.8610496752010349,-0.9,1.0,0.0,253.0,836.0,0.0,0,1911.0,1
1125,1125,-0.056561008461972984,-0.1,0.0,1.0,452.0,721.0,0.0,1,1827.0,0
1126,1126,-0.6386973008983012,-0.6,0.0,1.0,308.0,714.0,0.0,1,1978.0,0
1127,1127,-0.8632131335309168,-0.9,0.0,1.0,272.0,878.0,0.0,1,1850.0,0
1128,1128,-0.5242995122481079,-0.5,0.0,1.0,485.0,846.0,0.0,1,1669.0,0
1129,1129,0.8517705697814167,0.9,0.0,0.0,435.0,588.0,0.0,1,1977.0,1
1130,1130,0.7545919217870453,0.8,1.0,1.0,445.0,806.0,0.0,0,1749.0,0
1131,1131,0.709626569539585,0.7,0.0,0.0,467.0,799.0,0.0,1,1734.0,1
1132,1132,-0.8970314638163911,-0.9,1.0,0.0,439.0,811.0,0.0,0,1750.0,1
1133,1133,-0.32368680158648677,-0.3,1.0,0.0,300.0,623.0,0.0,0,2077.0,1
1134,1134,0.2134060691243408,0.2,1.0,1.0,378.0,896.0,0.0,0,1726.0,0
1135,1135,-0.82934739990373,-0.8,0.0,1.0,297.0,862.0,0.0,1,1841.0,0
1136,1136,0.8997795577725968,0.9,0.0,0.0,468.0,865.0,0.0,1,1667.0,1
1137,1137,-0.8150094655602845,-0.8,1.0,0.0,370.0,743.0,0.0,0,1887.0,1
1138,1138,0.6734790711826871,0.7,1.0,1.0,482.0,887.0,0.0,0,1631.0,0
1139,1139,0.11605296341484783,0.1,0.0,0.0,421.0,742.0,0.0,1,1837.0,1
1140,1140,0.4860583766900285,0.5,1.0,1.0,272.0,571.0,0.0,0,2157.0,0
1141,1141,0.3755415355182642,0.4,0.0,0.0,327.0,996.0,0.0,1,1677.0,1
1142,1142,-0.13120124445613057,-0.1,1.0,0.0,311.0,864.0,0.0,0,1825.0,1
1143,1143,-0.6402790018929074,-0.6,0.0,1.0,368.0,584.0,0.0,1,2048.0,0
1144,1144,-0.39913760116699826,-0.4,0.0,1.0,478.0,749.0,0.0,1,1773.0,0
1145,1145,-0.6668690015453963,-0.7,1.0,0.0,495.0,593.0,0.0,0,1912.0,1
1146,1146,0.18484977323291785,0.2,1.0,1.0,407.0,789.0,0.0,0,1804.0,0
1147,1147,0.05744044713673979,0.1,0.0,0.0,297.0,848.0,0.0,1,1855.0,1
1148,1148,0.5934006816833161,0.6,0.0,0.0,275.0,960.0,0.0,1,1765.0,1
1149,1149,0.0010538906956317762,0.0,1.0,1.0,410.0,978.0,0.0,0,-1318.0,0
1150,1150,0.6740478192777807,0.7,1.0,1.0,493.0,635.0,0.0,0,1872.0,0
1151,1151,0.8828020644193565,0.9,1.0,1.0,400.0,937.0,0.0,0,1663.0,0
1152,1152,-0.6683765130637009,-0.7,1.0,0.0,473.0,653.0,0.0,0,1874.0,1
1153,1153,-0.627005667035136,-0.6,0.0,1.0,303.0,633.0,0.0,1,2064.0,0
1154,1154,0.26270512327137385,0.3,0.0,0.0,272.0,577.0,0.0,1,2151.0,1
1155,1155,0.16205028960609058,0.2,0.0,0.0,419.0,582.0,0.0,1,1999.0,1
1156,1156,-0.8240733816421842,-0.8,1.0,0.0,440.0,830.0,0.0,0,1730.0,1
1157,1157,-0.16518141681911325,-0.2,1.0,0.0,439.0,688.0,0.0,0,1873.0,1
1158,1158,0.8827951430566238,0.9,0.0,0.0,388.0,836.0,0.0,1,1776.0,1
1159,1159,-0.15500672833152174,-0.2,0.0,1.0,465.0,507.0,0.0,1,2028.0,0
1160,1160,0.3354871577491291,0.3,0.0,0.0,449.0,655.0,0.0,1,1896.0,1
1161,1161,0.19007590379493833,0.2,0.0,0.0,262.0,885.0,0.0,1,1853.0,1
1162,1162,-0.2965172790038323,-0.3,0.0,1.0,348.0,510.0,0.0,1,2142.0,0
1163,1163,0.3679835584439818,0.4,1.0,1.0,341.0,969.0,0.0,0,1690.0,0
1164,1164,-0.05088261094915547,-0.1,0.0,1.0,304.0,822.0,0.0,1,1874.0,0
1165,1165,0.8516265121845193,0.9,0.0,0.0,483.0,629.0,0.0,1,1888.0,1
1166,1166,-0.5554361538134954,-0.6,0.0,1.0,475.0,994.0,0.0,1,1531.0,0
1167,1167,0.551215896541695,0.6,0.0,0.0,371.0,745.0,0.0,1,1884.0,1
1168,1168,0.741652220277271,0.7,0.0,0.0,277.0,894.0,0.0,1,1829.0,1
1169,1169,0.47102710805365156,0.5,1.0,1.0,350.0,972.0,0.0,0,1678.0,0
1170,1170,-0.8819106499431747,-0.9,0.0,1.0,313.0,610.0,0.0,1,2077.0,0
1171,1171,0.3098955846058219,0.3,1.0,1.0,273.0,932.0,0.0,0,1795.0,0
1172,1172,0.2458045633323266,0.2,1.0,1.0,342.0,537.0,0.0,0,2121.0,0
1173,1173,-0.22425262235653765,-0.2,0.0,1.0,449.0,950.0,0.0,1,1601.0,0
1174,1174,0.25170449752919766,0.3,0.0,0.0,430.0,638.0,0.0,1,1932.0,1
1175,1175,-0.5039866811428486,-0.5,1.0,0.0,465.0,622.0,0.0,0,1913.0,1
1176,1176,0.36095981506251695,0.4,1.0,1.0,283.0,975.0,0.0,0,1742.0,0
1177,1177,0.49551675465034084,0.5,0.0,0.0,447.0,523.0,0.0,1,2030.0,1
1178,1178,-0.3299173624213292,-0.3,1.0,0.0,347.0,796.0,0.0,0,1857.0,1
1179,1179,0.7945007202571505,0.8,1.0,1.0,277.0,597.0,0.0,0,2126.0,0
1180,1180,0.179877538526647,0.2,0.0,0.0,400.0,641.0,0.0,1,1959.0,1
1181,1181,-0.12481800761325923,-0.1,1.0,0.0,386.0,555.0,0.0,0,2059.0,1
1182,1182,0.20706592049063832,0.2,1.0,1.0,306.0,795.0,0.0,0,1899.0,0
1183,1183,0.4582681441002808,0.5,0.0,0.0,352.0,797.0,0.0,1,1851.0,1
1184,1184,-0.5965578850407249,-0.6,0.0,1.0,462.0,576.0,0.0,1,1962.0,0
1185,1185,-0.8965241254168739,-0.9,1.0,0.0,461.0,812.0,0.0,0,-1213.0,1
1186,1186,0.7830651524629934,0.8,0.0,0.0,419.0,830.0,0.0,1,1751.0,1
1187,1187,-0.6515080316227716,-0.7,0.0,1.0,264.0,757.0,0.0,1,1979.0,0
1188,1188,-0.7698197023595668,-0.8,0.0,1.0,332.0,879.0,0.0,1,1789.0,0
1189,1189,0.5659749933489872,0.6,1.0,1.0,399.0,573.0,0.0,0,2028.0,0
1190,1190,0.5923782084233621,0.6,0.0,0.0,296.0,666.0,0.0,1,-942.0,1
1191,1191,-0.003486131815660487,-0.0,1.0,0.0,400.0,517.0,0.0,0,2083.0,1
1192,1192,0.13336662536244714,0.1,1.0,1.0,421.0,559.0,0.0,0,2020.0,0
1193,1193,-0.26499868421003125,-0.3,0.0,1.0,489.0,702.0,0.0,1,1809.0,0
1194,1194,0.1617298685326981,0.2,1.0,1.0,436.0,704.0,0.0,0,1860.0,0
1195,1195,-0.862076260675222,-0.9,1.0,0.0,406.0,568.0,0.0,0,2026.0,1
1196,1196,0.05186975150439599,0.1,0.0,0.0,475.0,510.0,0.0,1,2015.0,1
1197,1197,0.3354270843249402,0.3,1.0,1.0,488.0,747.0,0.0,0,-1185.0,0
1198,1198,0.529293267859453,0.5,1.0,1.0,305.0,915.0,0.0,0,-1220.0,0
1199,1199,-0.8705987583957846,-0.9,1.0,0.0,279.0,577.0,0.0,0,2144.0,1
1200,1200,-0.26950131706388336,-0.3,1.0,0.0,274.0,705.0,1.0,1,-959.0,0
1201,1201,0.36260026118639177,0.4,0.0,0.0,334.0,979.0,0.0,1,1687.0,1
1202,1202,0.6664239323623254,0.7,1.0,1.0,286.0,505.0,0.0,0,2209.0,0
1203,1203,0.8532006510097904,0.9,0.0,0.0,460.0,793.0,1.0,0,-1223.0,0
1204,1204,0.6841443207162904,0.7,1.0,1.0,412.0,591.0,0.0,0,1997.0,0
1205,1205,0.19309372501194455,0.2,0.0,0.0,488.0,533.0,0.0,1,1979.0,1
1206,1206,-0.4021761127417272,-0.4,1.0,0.0,465.0,889.0,0.0,0,1646.0,1
1207,1207,0.2535857764903623,0.3,1.0,1.0,379.0,561.0,0.0,0,2060.0,0
1208,1208,0.7180324518721833,0.7,0.0,0.0,498.0,874.0,1.0,0,-1312.0,0
1209,1209,0.7044107164484289,0.7,0.0,0.0,285.0,799.0,0.0,1,1916.0,1
1210,1210,-0.11428639468441304,-0.1,0.0,1.0,366.0,637.0,0.0,1,1997.0,0
1211,1211,0.206896911160095,0.2,1.0,1.0,324.0,720.0,0.0,0,1956.0,0
1212,1212,0.6356480421570622,0.6,0.0,0.0,428.0,533.0,0.0,1,2039.0,1
1213,1213,-0.5078789196431477,-0.5,1.0,0.0,317.0,552.0,1.0,1,-809.0,0
1214,1214,0.8044639631760137,0.8,1.0,1.0,423.0,925.0,0.0,0,1652.0,0
1215,1215,0.067079217701281,0.1,0.0,0.0,449.0,511.0,0.0,1,2040.0,1
1216,1216,0.5672263580888898,0.6,0.0,0.0,361.0,821.0,0.0,1,1818.0,1
1217,1217,0.60323172443861,0.6,1.0,1.0,437.0,880.0,1.0,1,-1277.0,1
1218,1218,0.6050890132155188,0.6,1.0,1.0,475.0,550.0,0.0,0,1975.0,0
1219,1219,0.5191313528680358,0.5,1.0,1.0,418.0,997.0,0.0,0,1585.0,0
1220,1220,-0.056225522580962584,-0.1,1.0,0.0,451.0,994.0,0.0,0,1555.0,1
1221,1221,0.8869626218673053,0.9,0.0,0.0,285.0,704.0,0.0,1,2011.0,1
1222,1222,-0.3318534851221948,-0.3,0.0,1.0,276.0,570.0,0.0,1,2154.0,0
1223,1223,-0.3708915614953263,-0.4,0.0,1.0,460.0,518.0,0.0,1,2022.0,0
1224,1224,-0.4230801271877291,-0.4,1.0,0.0,421.0,558.0,1.0,1,-959.0,0
1225,1225,0.26060955504518224,0.3,1.0,1.0,486.0,748.0,0.0,0,1766.0,0
1226,1226,0.10689104578337927,0.1,1.0,1.0,395.0,821.0,0.0,0,-1196.0,0
1227,1227,0.856542103716491,0.9,0.0,0.0,468.0,750.0,0.0,1,1782.0,1
1228,1228,-0.5257447843959093,-0.5,0.0,1.0,320.0,753.0,0.0,1,1927.0,0
1229,1229,-0.676361735744348,-0.7,0.0,1.0,476.0,597.0,0.0,1,1927.0,0
1230,1230,0.6928992373669883,0.7,0.0,0.0,403.0,859.0,0.0,1,1738.0,1
1231,1231,0.0007602162453351768,0.0,0.0,0.0,342.0,537.0,0.0,1,2121.0,1
1232,1232,0.2061067272871192,0.2,1.0,1.0,491.0,866.0,0.0,0,1643.0,0
1233,1233,-0.12759073896025175,-0.1,1.0,0.0,382.0,559.0,0.0,0,2059.0,1
1234,1234,-0.8697063007305365,-0.9,1.0,0.0,403.0,691.0,0.0,0,1906.0,1
1235,1235,0.6209874981786055,0.6,1.0,1.0,469.0,837.0,0.0,0,1694.0,0
1236,1236,0.3945261751032999,0.4,0.0,0.0,297.0,714.0,0.0,1,1989.0,1
1237,1237,-0.010290049455264905,-0.0,1.0,0.0,254.0,698.0,0.0,0,2048.0,1
1238,1238,-0.6482039816927219,-0.6,0.0,1.0,458.0,750.0,0.0,1,1792.0,0
1239,1239,-0.42276100235570707,-0.4,1.0,0.0,399.0,675.0,0.0,0,1926.0,1
1240,1240,-0.3947920736895243,-0.4,1.0,0.0,344.0,605.0,0.0,0,2051.0,1
1241,1241,-0.8650090186515359,-0.9,1.0,0.0,415.0,759.0,0.0,0,1826.0,1
1242,1242,-0.2761494289606723,-0.3,1.0,0.0,317.0,524.0,0.0,0,2159.0,1
1243,1243,-0.544241445168612,-0.5,0.0,1.0,461.0,651.0,0.0,1,1888.0,0
1244,1244,-0.285750223941842,-0.3,0.0,1.0,369.0,854.0,0.0,1,1777.0,0
1245,1245,-0.007952044489371923,-0.0,0.0,1.0,419.0,852.0,0.0,1,1729.0,0
1246,1246,0.03252514739508039,0.0,1.0,1.0,356.0,983.0,0.0,0,1661.0,0
1247,1247,-0.850770983504629,-0.9,0.0,1.0,322.0,837.0,1.0,0,-959.0,1
1248,1248,0.3034362349276153,0.3,1.0,1.0,492.0,889.0,1.0,1,-1311.0,1
1249,1249,-0.147457686964643,-0.1,0.0,1.0,449.0,742.0,0.0,1,1809.0,0
1250,1250,0.26342417970209075,0.3,1.0,1.0,274.0,538.0,0.0,0,2188.0,0
1251,1251,0.770977147152294,0.8,1.0,1.0,314.0,985.0,0.0,0,1701.0,0
1252,1252,0.1966448718545809,0.2,1.0,1.0,478.0,777.0,0.0,0,1745.0,0
1253,1253,0.19689915696112614,0.2,0.0,0.0,370.0,657.0,1.0,0,-997.0,0
1254,1254,-0.27338100826850753,-0.3,0.0,1.0,487.0,509.0,0.0,1,2004.0,0
1255,1255,-0.2511257121547841,-0.3,0.0,1.0,373.0,679.0,0.0,1,1948.0,0
1256,1256,0.27204506429637354,0.3,0.0,0.0,319.0,534.0,0.0,1,2147.0,1
1257,1257,-0.5066079203447827,-0.5,0.0,1.0,444.0,888.0,0.0,1,1668.0,0
1258,1258,-0.5177586449017273,-0.5,1.0,0.0,340.0,657.0,0.0,0,2003.0,1
1259,1259,0.7163509758133534,0.7,0.0,0.0,287.0,820.0,0.0,1,1893.0,1
1260,1260,0.7697064361688192,0.8,1.0,1.0,413.0,972.0,0.0,0,1615.0,0
1261,1261,0.6772388024690982,0.7,1.0,1.0,420.0,581.0,0.0,0,1999.0,0
1262,1262,-0.4185816631359292,-0.4,0.0,1.0,475.0,564.0,0.0,1,-939.0,0
1263,1263,0.39497749870949084,0.4,0.0,0.0,380.0,683.0,0.0,1,1937.0,1
1264,1264,-0.26113801478629695,-0.3,0.0,1.0,291.0,636.0,0.0,1,-877.0,0
1265,1265,0.861278951410939,0.9,0.0,0.0,378.0,985.0,0.0,1,-1343.0,1
1266,1266,0.5454413740835667,0.5,0.0,0.0,453.0,552.0,0.0,1,-875.0,1
1267,1267,0.8025488136176596,0.8,1.0,1.0,260.0,747.0,0.0,0,1993.0,0
1268,1268,-0.1905023818062057,-0.2,1.0,0.0,276.0,810.0,0.0,0,1914.0,1
1269,1269,0.12026193238868832,0.1,1.0,1.0,361.0,949.0,1.0,1,-1080.0,1
1270,1270,0.5265656825901667,0.5,0.0,0.0,483.0,683.0,1.0,0,-1146.0,0
1271,1271,-0.8756952720057088,-0.9,0.0,1.0,449.0,875.0,0.0,1,1676.0,0
1272,1272,-0.7049595607402922,-0.7,1.0,0.0,459.0,933.0,0.0,0,1608.0,1
1273,1273,0.8751036521034604,0.9,0.0,0.0,350.0,714.0,0.0,1,1936.0,1
1274,1274,0.6129846006767273,0.6,1.0,1.0,451.0,542.0,0.0,0,2007.0,0
1275,1275,0.4246713157793284,0.4,0.0,0.0,442.0,558.0,0.0,1,2000.0,1
1276,1276,0.2205031578941249,0.2,1.0,1.0,316.0,704.0,0.0,0,1980.0,0
1277,1277,-0.7672802920604032,-0.8,0.0,1.0,250.0,816.0,0.0,1,1934.0,0
1278,1278,-0.22985513939147117,-0.2,1.0,0.0,458.0,993.0,0.0,0,1549.0,1
1279,1279,-0.6010295677601014,-0.6,1.0,0.0,357.0,903.0,0.0,0,1740.0,1
1280,1280,-0.4241094808999809,-0.4,0.0,1.0,407.0,855.0,1.0,0,-1252.0,1
1281,1281,-0.08034750440026539,-0.1,1.0,0.0,294.0,791.0,0.0,0,1915.0,1
1282,1282,0.6028068345122316,0.6,0.0,0.0,444.0,626.0,0.0,1,1930.0,1
1283,1283,0.1342119799063045,0.1,0.0,0.0,357.0,567.0,0.0,1,2076.0,1
1284,1284,0.053973032776831964,0.1,0.0,0.0,275.0,713.0,0.0,1,2012.0,1
1285,1285,0.16210782491210074,0.2,1.0,1.0,477.0,589.0,0.0,0,1934.0,0
1286,1286,-0.6905557601344844,-0.7,1.0,0.0,476.0,983.0,1.0,1,-1419.0,0
1287,1287,-0.6046220059704555,-0.6,0.0,1.0,396.0,613.0,0.0,1,1991.0,0
1288,1288,-0.2615886137757927,-0.3,1.0,0.0,284.0,612.0,0.0,0,2104.0,1
1289,1289,0.5308641034949676,0.5,0.0,0.0,406.0,644.0,0.0,1,1950.0,1
1290,1290,-0.6552228789463157,-0.7,1.0,0.0,324.0,533.0,0.0,0,2143.0,1
1291,1291,-0.6236543081118804,-0.6,1.0,0.0,353.0,594.0,0.0,0,2053.0,1
1292,1292,-0.430404026290358,-0.4,0.0,1.0,472.0,619.0,0.0,1,1909.0,0
1293,1293,-0.34291738413213557,-0.3,1.0,0.0,485.0,943.0,0.0,0,1572.0,1
1294,1294,-0.22035365491223458,-0.2,1.0,0.0,305.0,795.0,0.0,0,1900.0,1
1295,1295,-0.1792683560476247,-0.2,0.0,1.0,443.0,541.0,0.0,1,2016.0,0
1296,1296,0.09486458372487483,0.1,1.0,1.0,261.0,652.0,0.0,0,2087.0,0
1297,1297,-0.554088702645855,-0.6,1.0,0.0,279.0,866.0,0.0,0,1855.0,1
1298,1298,0.577651659229674,0.6,0.0,0.0,318.0,668.0,0.0,1,2014.0,1
1299,1299,-0.5443648069233391,-0.5,0.0,1.0,430.0,790.0,1.0,0,-1190.0,1
1300,1300,-0.4773106508072905,-0.5,0.0,1.0,279.0,592.0,1.0,0,-841.0,1
1301,1301,0.8196006108733941,0.8,1.0,1.0,272.0,737.0,0.0,0,1991.0,0
1302,1302,-0.17894083881992573,-0.2,0.0,1.0,397.0,561.0,0.0,1,2042.0,0
1303,1303,0.043691174905128194,0.0,0.0,0.0,495.0,857.0,0.0,1,1648.0,1
1304,1304,0.10764149026759606,0.1,0.0,0.0,425.0,697.0,0.0,1,1878.0,1
1305,1305,0.6552118737204192,0.7,1.0,1.0,283.0,557.0,0.0,0,2160.0,0
1306,1306,-0.6608837699157064,-0.7,1.0,0.0,424.0,568.0,0.0,0,2008.0,1
1307,1307,-0.12892018982532472,-0.1,1.0,0.0,354.0,617.0,0.0,0,2029.0,1
1308,1308,0.8353166567662919,0.8,0.0,0.0,432.0,651.0,0.0,1,1917.0,1
1309,1309,0.2543240847182452,0.3,0.0,0.0,257.0,650.0,1.0,0,-887.0,0
1310,1310,-0.6474290296902967,-0.6,0.0,1.0,388.0,506.0,0.0,1,2106.0,0
1311,1311,0.5989887574530851,0.6,1.0,1.0,266.0,642.0,0.0,0,-888.0,0
1312,1312,0.6516376546329917,0.7,1.0,1.0,336.0,892.0,0.0,0,1772.0,0
1313,1313,0.37793120113580037,0.4,0.0,0.0,441.0,764.0,0.0,1,1795.0,1
1314,1314,-0.5689017624883944,-0.6,0.0,1.0,317.0,836.0,0.0,1,1847.0,0
1315,1315,0.123877442890724,0.1,1.0,1.0,329.0,953.0,0.0,0,1718.0,0
1316,1316,-0.33151711574930176,-0.3,1.0,0.0,461.0,692.0,0.0,0,1847.0,1
1317,1317,-0.4474564010287993,-0.4,1.0,0.0,351.0,960.0,0.0,0,1689.0,1
1318,1318,0.28704774335880734,0.3,0.0,0.0,399.0,890.0,0.0,1,1711.0,1
1319,1319,0.6979316901598783,0.7,0.0,0.0,312.0,599.0,1.0,0,-851.0,0
1320,1320,-0.667392919272674,-0.7,0.0,1.0,414.0,900.0,0.0,1,1686.0,0
1321,1321,-0.48717115101710473,-0.5,1.0,0.0,323.0,934.0,0.0,0,1743.0,1
1322,1322,-0.8189634196581619,-0.8,0.0,1.0,265.0,987.0,0.0,1,1748.0,0
1323,1323,-0.8813371717561294,-0.9,0.0,1.0,323.0,881.0,0.0,1,1796.0,0
1324,1324,0.3828332939905711,0.4,1.0,1.0,290.0,997.0,0.0,0,1713.0,0
1325,1325,0.10436002896469498,0.1,1.0,1.0,381.0,700.0,0.0,0,1919.0,0
1326,1326,0.1720754218592221,0.2,0.0,0.0,347.0,591.0,0.0,1,2062.0,1
1327,1327,-0.11159322066596233,-0.1,0.0,1.0,434.0,866.0,0.0,1,1700.0,0
1328,1328,-0.586992300598671,-0.6,0.0,1.0,336.0,958.0,0.0,1,1706.0,0
1329,1329,0.36368497374415865,0.4,0.0,0.0,389.0,630.0,0.0,1,1981.0,1
1330,1330,0.048265770675054,0.0,1.0,1.0,449.0,845.0,0.0,0,1706.0,0
1331,1331,-0.8746729006739792,-0.9,1.0,0.0,487.0,964.0,0.0,0,1549.0,1
1332,1332,-0.7770953381336847,-0.8,1.0,0.0,372.0,642.0,0.0,0,1986.0,1
1333,1333,0.1084409689560687,0.1,0.0,0.0,431.0,519.0,1.0,0,-950.0,0
1334,1334,-0.6379986814556502,-0.6,1.0,0.0,440.0,727.0,0.0,0,1833.0,1
1335,1335,-0.6216513439939015,-0.6,0.0,1.0,407.0,502.0,0.0,1,2091.0,0
1336,1336,-0.5155012631663509,-0.5,0.0,1.0,411.0,933.0,0.0,1,1656.0,0
1337,1337,-0.05548822066762582,-0.1,1.0,0.0,290.0,913.0,0.0,0,1797.0,1
1338,1338,0.6964516966125985,0.7,1.0,1.0,297.0,800.0,0.0,0,1903.0,0
1339,1339,0.3422148413489664,0.3,1.0,1.0,272.0,712.0,0.0,0,2016.0,0
1340,1340,-0.5048918438748775,-0.5,0.0,1.0,455.0,788.0,0.0,1,1757.0,0
1341,1341,0.13426586956134623,0.1,0.0,0.0,411.0,619.0,0.0,1,1970.0,1
1342,1342,0.364080542842688,0.4,1.0,1.0,321.0,812.0,0.0,0,1867.0,0
1343,1343,0.7033544213053465,0.7,1.0,1.0,297.0,627.0,0.0,0,2076.0,0
1344,1344,-0.7584835439148849,-0.8,1.0,0.0,345.0,641.0,0.0,0,2014.0,1
1345,1345,0.44666243760519275,0.4,0.0,0.0,291.0,888.0,0.0,1,1821.0,1
1346,1346,0.3297810786066274,0.3,0.0,0.0,392.0,891.0,1.0,0,-1163.0,0
1347,1347,0.5755377095074313,0.6,0.0,0.0,412.0,898.0,0.0,1,1690.0,1
1348,1348,-0.09966014211088325,-0.1,1.0,0.0,381.0,561.0,0.0,0,2058.0,1
1349,1349,-0.17432889839025678,-0.2,0.0,1.0,492.0,614.0,0.0,1,1894.0,0
1350,1350,-0.11055838907546656,-0.1,1.0,0.0,277.0,770.0,0.0,0,1953.0,1
1351,1351,0.6028270309851157,0.6,0.0,0.0,380.0,771.0,0.0,1,1849.0,1
1352,1352,-0.8971546215197632,-0.9,1.0,0.0,351.0,656.0,0.0,0,1993.0,1
1353,1353,-0.20249262196857487,-0.2,1.0,0.0,389.0,706.0,0.0,0,1905.0,1
1354,1354,-0.043990181165485254,-0.0,0.0,1.0,398.0,854.0,0.0,1,1748.0,0
1355,1355,-0.8734033967303468,-0.9,1.0,0.0,301.0,656.0,0.0,0,2043.0,1
1356,1356,-0.23323248437169852,-0.2,1.0,0.0,302.0,635.0,0.0,0,2063.0,1
1357,1357,0.3104840107472654,0.3,0.0,0.0,270.0,896.0,0.0,1,1834.0,1
1358,1358,-0.8130575841637677,-0.8,1.0,0.0,437.0,772.0,0.0,0,1791.0,1
1359,1359,-0.5207919366665886,-0.5,0.0,1.0,381.0,504.0,0.0,1,2115.0,0
1360,1360,-0.4578964762058341,-0.5,1.0,0.0,359.0,898.0,0.0,0,1743.0,1
1361,1361,-0.8523767698280844,-0.9,0.0,1.0,474.0,882.0,0.0,1,1644.0,0
1362,1362,0.4334399663591856,0.4,0.0,0.0,387.0,531.0,0.0,1,2082.0,1
1363,1363,0.16639076087322457,0.2,1.0,1.0,345.0,759.0,0.0,0,1896.0,0
1364,1364,-0.5684666710167925,-0.6,0.0,1.0,457.0,825.0,1.0,0,-1262.0,1
1365,1365,-0.7815997639021323,-0.8,0.0,1.0,367.0,777.0,0.0,1,1856.0,0
1366,1366,-0.41448559181139943,-0.4,0.0,1.0,304.0,920.0,0.0,1,1776.0,0
1367,1367,0.4162088291016127,0.4,0.0,0.0,321.0,878.0,1.0,0,-979.0,0
1368,1368,0.07852027941773032,0.1,1.0,1.0,290.0,847.0,0.0,0,1863.0,0
1369,1369,0.5454717311381666,0.5,0.0,0.0,387.0,762.0,0.0,1,1851.0,1
1370,1370,0.566594679332619,0.6,1.0,1.0,312.0,799.0,0.0,0,1889.0,0
1371,1371,0.19304226097732602,0.2,1.0,1.0,477.0,691.0,0.0,0,1832.0,0
1372,1372,-0.3853329092899923,-0.4,1.0,0.0,498.0,676.0,0.0,0,-1104.0,1
1373,1373,-0.7480118054217474,-0.7,0.0,1.0,401.0,874.0,0.0,1,1725.0,0
1374,1374,0.8002712693402357,0.8,1.0,1.0,270.0,997.0,0.0,0,1733.0,0
1375,1375,-0.6264639631868927,-0.6,1.0,0.0,369.0,533.0,0.0,0,2098.0,1
1376,1376,0.519221771106754,0.5,0.0,0.0,462.0,768.0,0.0,1,1770.0,1
1377,1377,0.27974657285661875,0.3,0.0,0.0,339.0,895.0,0.0,1,1766.0,1
1378,1378,-0.00154323158131342,-0.0,0.0,1.0,449.0,918.0,0.0,1,1633.0,0
1379,1379,0.6436899522020346,0.6,0.0,0.0,395.0,692.0,0.0,1,1913.0,1
1380,1380,0.8130142418596223,0.8,0.0,0.0,295.0,828.0,0.0,1,1877.0,1
1381,1381,0.37148325987580055,0.4,1.0,1.0,498.0,804.0,0.0,0,1698.0,0
1382,1382,0.5974336182237548,0.6,0.0,0.0,270.0,755.0,0.0,1,1975.0,1
1383,1383,0.600123062356399,0.6,1.0,1.0,403.0,813.0,0.0,0,1784.0,0
1384,1384,-0.6054836746865493,-0.6,0.0,1.0,376.0,984.0,0.0,1,1640.0,0
1385,1385,-0.6517778775822788,-0.7,1.0,0.0,424.0,628.0,0.0,0,1948.0,1
1386,1386,-0.08684387651526415,-0.1,1.0,0.0,435.0,696.0,0.0,0,1869.0,1
1387,1387,-0.6376917457927703,-0.6,0.0,1.0,349.0,570.0,0.0,1,2081.0,0
1388,1388,-0.34699056072890777,-0.3,0.0,1.0,265.0,991.0,0.0,1,1744.0,0
1389,1389,-0.19214120355790754,-0.2,1.0,0.0,366.0,651.0,0.0,0,1983.0,1
1390,1390,0.624530460709917,0.6,0.0,0.0,309.0,659.0,0.0,1,-948.0,1
1391,1391,0.7718035568517828,0.8,1.0,1.0,352.0,550.0,0.0,0,2098.0,0
1392,1392,0.3636471621285967,0.4,1.0,1.0,396.0,884.0,0.0,0,1720.0,0
1393,1393,-0.053864446618076656,-0.1,0.0,1.0,447.0,917.0,0.0,1,1636.0,0
1394,1394,0.6695969525598066,0.7,0.0,0.0,463.0,545.0,0.0,1,1992.0,1
1395,1395,-0.37023310151144884,-0.4,0.0,1.0,410.0,658.0,0.0,1,1932.0,0
1396,1396,0.5251241498989535,0.5,0.0,0.0,263.0,554.0,0.0,1,2183.0,1
1397,1397,-0.046075443587791365,-0.0,1.0,0.0,279.0,745.0,0.0,0,1976.0,1
1398,1398,-0.6330257301757909,-0.6,0.0,1.0,445.0,531.0,0.0,1,2024.0,0
1399,1399,0.861795504251169,0.9,1.0,1.0,490.0,851.0,0.0,0,-1241.0,0
1400,1400,0.8340316961991795,0.8,1.0,1.0,461.0,898.0,0.0,0,1641.0,0
1401,1401,-0.8866055348779706,-0.9,0.0,1.0,492.0,920.0,0.0,1,1588.0,0
1402,1402,0.32960626968046947,0.3,1.0,1.0,380.0,989.0,0.0,0,1631.0,0
1403,1403,0.8484660280855904,0.8,1.0,1.0,368.0,557.0,0.0,0,2075.0,0
1404,1404,0.08473722835486042,0.1,1.0,1.0,404.0,815.0,0.0,0,1781.0,0
1405,1405,0.10375002891153395,0.1,1.0,1.0,379.0,860.0,0.0,0,1761.0,0
1406,1406,-0.6970217018860008,-0.7,1.0,0.0,410.0,950.0,0.0,0,1640.0,1
1407,1407,0.8952569905669431,0.9,1.0,1.0,279.0,629.0,0.0,0,2092.0,0
1408,1408,0.5735149700709815,0.6,0.0,0.0,357.0,895.0,1.0,0,-1122.0,0
1409,1409,-0.4039601053609905,-0.4,1.0,0.0,479.0,763.0,0.0,0,1758.0,1
1410,1410,-0.6585015225244755,-0.7,0.0,1.0,458.0,514.0,0.0,1,2028.0,0
1411,1411,0.2366580677415201,0.2,1.0,1.0,384.0,749.0,0.0,0,1867.0,0
1412,1412,0.6641341866203306,0.7,0.0,0.0,421.0,700.0,0.0,1,1879.0,1
1413,1413,-0.8257598914289879,-0.8,0.0,1.0,410.0,811.0,0.0,1,1779.0,0
1414,1414,0.5386661038522195,0.5,0.0,0.0,400.0,671.0,0.0,1,1929.0,1
1415,1415,0.03912385551172337,0.0,0.0,0.0,464.0,595.0,0.0,1,1941.0,1
1416,1416,-0.23286946900504135,-0.2,0.0,1.0,354.0,701.0,0.0,1,1945.0,0
1417,1417,0.112150993143325,0.1,0.0,0.0,478.0,816.0,0.0,1,1706.0,1
1418,1418,0.7497319882630592,0.7,0.0,0.0,312.0,853.0,0.0,1,1835.0,1
1419,1419,-0.7268343528994737,-0.7,0.0,1.0,498.0,858.0,0.0,1,-1316.0,0
1420,1420,-0.5265792618735463,-0.5,1.0,0.0,414.0,685.0,0.0,0,1901.0,1
1421,1421,0.14870326144754664,0.1,1.0,1.0,489.0,615.0,0.0,0,1896.0,0
1422,1422,-0.7597115307426432,-0.8,0.0,1.0,467.0,902.0,0.0,1,-1359.0,0
1423,1423,0.3133129964277356,0.3,1.0,1.0,329.0,871.0,0.0,0,1800.0,0
1424,1424,-0.26048239306377574,-0.3,1.0,0.0,320.0,729.0,0.0,0,1951.0,1
1425,1425,0.22123891996358103,0.2,0.0,0.0,334.0,641.0,0.0,1,2025.0,1
1426,1426,0.3726875226795682,0.4,0.0,0.0,372.0,856.0,0.0,1,1772.0,1
1427,1427,0.6303987460509962,0.6,1.0,1.0,339.0,909.0,0.0,0,1752.0,0
1428,1428,-0.7320855493721237,-0.7,1.0,0.0,320.0,560.0,1.0,1,-840.0,0
1429,1429,-0.6022146988025909,-0.6,0.0,1.0,453.0,919.0,0.0,1,1628.0,0
1430,1430,0.29441779663255174,0.3,0.0,0.0,397.0,649.0,0.0,1,1954.0,1
1431,1431,-0.5344992821408652,-0.5,1.0,0.0,360.0,756.0,0.0,0,1884.0,1
1432,1432,0.23260895226266298,0.2,1.0,1.0,259.0,919.0,0.0,0,1822.0,0
1433,1433,-0.5281185022779235,-0.5,1.0,0.0,327.0,816.0,0.0,0,1857.0,1
1434,1434,-0.3575422691765521,-0.4,1.0,0.0,334.0,997.0,0.0,0,1669.0,1
1435,1435,0.214404430576162,0.2,1.0,1.0,366.0,570.0,0.0,0,2064.0,0
1436,1436,0.8875013566038387,0.9,1.0,1.0,406.0,949.0,1.0,1,-1325.0,1
1437,1437,-0.055700753669208236,-0.1,1.0,0.0,298.0,814.0,0.0,0,1888.0,1
1438,1438,-0.16125080394287572,-0.2,1.0,0.0,474.0,835.0,0.0,0,1691.0,1
1439,1439,-0.7516193130842492,-0.8,0.0,1.0,251.0,805.0,0.0,1,1944.0,0
1440,1440,-0.1923543401459893,-0.2,1.0,0.0,279.0,996.0,0.0,0,1725.0,1
1441,1441,-0.3631940207216764,-0.4,0.0,1.0,476.0,762.0,0.0,1,1762.0,0
1442,1442,-0.3623464399178141,-0.4,1.0,0.0,259.0,764.0,0.0,0,1977.0,1
1443,1443,0.13058892958107615,0.1,1.0,1.0,365.0,999.0,0.0,0,1636.0,0
1444,1444,-0.44435499647681426,-0.4,1.0,0.0,292.0,957.0,0.0,0,-1229.0,1
1445,1445,-0.20820206634446303,-0.2,1.0,0.0,428.0,913.0,0.0,0,-1331.0,1
1446,1446,0.8992845957132073,0.9,0.0,0.0,349.0,848.0,0.0,1,1803.0,1
1447,1447,0.7121808286441634,0.7,0.0,0.0,292.0,985.0,0.0,1,1723.0,1
1448,1448,0.5748603416525223,0.6,1.0,1.0,304.0,922.0,0.0,0,1774.0,0
1449,1449,-0.0018626829514781784,-0.0,1.0,0.0,364.0,876.0,0.0,0,1760.0,1
1450,1450,-0.7409928050530715,-0.7,0.0,1.0,272.0,945.0,0.0,1,1783.0,0
1451,1451,-0.7286423320069356,-0.7,1.0,0.0,477.0,505.0,0.0,0,2018.0,1
1452,1452,0.5963249087114179,0.6,1.0,1.0,293.0,801.0,0.0,0,1906.0,0
1453,1453,0.6179237310756466,0.6,1.0,1.0,491.0,742.0,0.0,0,1767.0,0
1454,1454,0.628438304331253,0.6,0.0,0.0,420.0,809.0,0.0,1,1771.0,1
1455,1455,-0.8124718916780833,-0.8,0.0,1.0,347.0,527.0,0.0,1,2126.0,0
1456,1456,-0.6555453803442339,-0.7,0.0,1.0,359.0,719.0,0.0,1,1922.0,0
1457,1457,-0.8856782619624395,-0.9,1.0,0.0,497.0,970.0,0.0,0,1533.0,1
1458,1458,-0.12102092545544729,-0.1,1.0,0.0,302.0,874.0,0.0,0,1824.0,1
1459,1459,0.19242924738098444,0.2,0.0,0.0,394.0,554.0,0.0,1,2052.0,1
1460,1460,0.6695016768713545,0.7,0.0,0.0,421.0,820.0,0.0,1,1759.0,1
1461,1461,0.40540104535356625,0.4,1.0,1.0,426.0,729.0,0.0,0,1845.0,0
1462,1462,-0.5240194986890699,-0.5,0.0,1.0,468.0,545.0,0.0,1,1987.0,0
1463,1463,0.856161631494425,0.9,1.0,1.0,274.0,863.0,0.0,0,1863.0,0
1464,1464,-0.4287734100211549,-0.4,0.0,1.0,298.0,509.0,0.0,1,2193.0,0
1465,1465,0.2813108018606122,0.3,1.0,1.0,447.0,931.0,0.0,0,1622.0,0
1466,1466,0.11358074373425298,0.1,0.0,0.0,341.0,646.0,0.0,1,2013.0,1
1467,1467,0.11703645549576625,0.1,0.0,0.0,439.0,558.0,0.0,1,2003.0,1
1468,1468,-0.8507636891883764,-0.9,1.0,0.0,267.0,727.0,0.0,0,2006.0,1
1469,1469,-0.10483938875839804,-0.1,1.0,0.0,293.0,916.0,0.0,0,1791.0,1
1470,1470,0.38810357935004036,0.4,1.0,1.0,306.0,787.0,0.0,0,-1023.0,0
