,trial,coherence,coherence_bin,green_side,correct_side,target_onset,checker_onset,decision,green_decision,decision_time,correct_decision
0,0,-0.07316757962674492,-0.1,0.0,1.0,377.0,885.0,1.0,0,468.0,1
1,1,-0.1898184342764433,-0.2,0.0,1.0,403.0,840.0,1.0,0,247.0,1
2,2,-0.4362721936784069,-0.4,0.0,1.0,281.0,585.0,1.0,0,244.0,1
3,3,0.5710788438921915,0.6,0.0,0.0,250.0,607.0,0.0,1,203.0,1
4,4,-0.716502139239562,-0.7,0.0,1.0,315.0,778.0,1.0,0,187.0,1
5,5,0.12722193109876911,0.1,0.0,0.0,498.0,626.0,0.0,1,446.0,1
6,6,0.4824613836031201,0.5,1.0,1.0,468.0,699.0,1.0,1,213.0,1
7,7,-0.6257555624404427,-0.6,0.0,1.0,347.0,615.0,1.0,0,198.0,1
8,8,0.2644481642806017,0.3,1.0,1.0,351.0,626.0,1.0,1,373.0,1
9,9,0.4564422922430048,0.5,0.0,0.0,251.0,982.0,0.0,1,187.0,1
10,10,-0.1888961686713112,-0.2,0.0,1.0,252.0,599.0,1.0,0,289.0,1
11,11,-0.4009870483643186,-0.4,0.0,1.0,424.0,872.0,1.0,0,84.0,1
12,12,-0.08066471722771973,-0.1,1.0,0.0,499.0,615.0,0.0,0,476.0,1
13,13,-0.8179911788191678,-0.8,0.0,1.0,418.0,588.0,1.0,0,194.0,1
14,14,0.3256733696896804,0.3,0.0,0.0,408.0,718.0,0.0,1,224.0,1
15,15,0.7680617682500425,0.8,1.0,1.0,262.0,761.0,1.0,1,197.0,1
16,16,0.334144107806687,0.3,1.0,1.0,373.0,558.0,1.0,1,369.0,1
17,17,0.4476578380935413,0.4,1.0,1.0,425.0,915.0,1.0,1,160.0,1
18,18,0.8772852955801017,0.9,0.0,0.0,252.0,711.0,0.0,1,187.0,1
19,19,-0.7147543485888642,-0.7,0.0,1.0,439.0,949.0,1.0,0,122.0,1
20,20,-0.02592366082783104,-0.0,1.0,0.0,346.0,948.0,0.0,0,386.0,1
21,21,-0.2583880586374774,-0.3,1.0,0.0,316.0,856.0,0.0,0,278.0,1
22,22,0.06491642165894962,0.1,1.0,1.0,290.0,969.0,1.0,1,341.0,1
23,23,0.10827382712090283,0.1,1.0,1.0,320.0,882.0,1.0,1,208.0,1
24,24,0.8707830468861629,0.9,0.0,0.0,486.0,904.0,0.0,1,80.0,1
25,25,0.49730607019611306,0.5,0.0,0.0,302.0,848.0,0.0,1,110.0,1
26,26,0.3050634335223955,0.3,0.0,0.0,297.0,621.0,0.0,1,172.0,1
27,27,-0.6717052534579282,-0.7,1.0,0.0,287.0,629.0,0.0,0,324.0,1
28,28,0.4162494204120376,0.4,1.0,1.0,430.0,952.0,1.0,1,238.0,1
29,29,-0.32031527466215015,-0.3,1.0,0.0,280.0,581.0,0.0,0,299.0,1
30,30,0.8044607273604786,0.8,1.0,1.0,357.0,862.0,1.0,1,141.0,1
31,31,0.4993130111989671,0.5,0.0,0.0,470.0,989.0,0.0,1,71.0,1
32,32,-0.24613560053188455,-0.2,0.0,1.0,297.0,952.0,1.0,0,241.0,1
33,33,0.014552136129874937,0.0,0.0,0.0,453.0,718.0,0.0,1,289.0,1
34,34,-0.439233319290818,-0.4,0.0,1.0,275.0,895.0,1.0,0,120.0,1
35,35,-0.57986790413169,-0.6,1.0,0.0,303.0,988.0,0.0,0,169.0,1
36,36,-0.8602768895933701,-0.9,1.0,0.0,410.0,859.0,0.0,0,51.0,1
37,37,-0.6170048324322619,-0.6,1.0,0.0,295.0,686.0,0.0,0,219.0,1
38,38,-0.25074565992017495,-0.3,0.0,1.0,470.0,832.0,1.0,0,228.0,1
39,39,0.025214653890837213,0.0,1.0,1.0,468.0,546.0,0.0,0,1316.0,0
40,40,-0.6024439309184928,-0.6,0.0,1.0,414.0,580.0,1.0,0,326.0,1
41,41,0.18086796181966835,0.2,1.0,1.0,406.0,704.0,1.0,1,240.0,1
42,42,-0.051095453078871866,-0.1,1.0,0.0,267.0,573.0,0.0,0,590.0,1
43,43,0.8514578433894514,0.9,0.0,0.0,487.0,677.0,0.0,1,206.0,1
44,44,0.7134261431066967,0.7,0.0,0.0,480.0,660.0,0.0,1,100.0,1
45,45,0.6730881288829756,0.7,1.0,1.0,309.0,715.0,1.0,1,206.0,1
46,46,0.48695526930348587,0.5,0.0,0.0,340.0,931.0,0.0,1,89.0,1
47,47,0.5850946091319825,0.6,1.0,1.0,422.0,790.0,1.0,1,128.0,1
48,48,-0.6247795933694889,-0.6,0.0,1.0,370.0,713.0,1.0,0,147.0,1
49,49,0.09382019357370963,0.1,1.0,1.0,444.0,898.0,1.0,1,488.0,1
50,50,-0.35406013118254964,-0.4,1.0,0.0,493.0,944.0,0.0,0,223.0,1
51,51,-0.3856194728320944,-0.4,0.0,1.0,416.0,501.0,1.0,0,213.0,1
52,52,-0.4144282487044346,-0.4,1.0,0.0,360.0,932.0,0.0,0,218.0,1
53,53,0.8995113422215221,0.9,1.0,1.0,495.0,855.0,1.0,1,100.0,1
54,54,-0.5546773116808092,-0.6,1.0,0.0,435.0,712.0,0.0,0,103.0,1
55,55,0.3511807609277454,0.4,1.0,1.0,355.0,974.0,1.0,1,181.0,1
56,56,0.31874248924388404,0.3,1.0,1.0,458.0,631.0,1.0,1,171.0,1
57,57,0.6939551638898557,0.7,1.0,1.0,443.0,568.0,1.0,1,239.0,1
58,58,0.6674455598840751,0.7,0.0,0.0,339.0,820.0,0.0,1,181.0,1
59,59,0.29717709344236576,0.3,1.0,1.0,463.0,949.0,1.0,1,498.0,1
60,60,-0.7141655842396283,-0.7,0.0,1.0,278.0,876.0,1.0,0,146.0,1
61,61,0.08501383012383346,0.1,0.0,0.0,469.0,564.0,0.0,1,567.0,1
62,62,0.42721048833269426,0.4,1.0,1.0,389.0,521.0,1.0,1,260.0,1
63,63,0.6838317861679394,0.7,0.0,0.0,291.0,714.0,0.0,1,195.0,1
64,64,0.019098146070934408,0.0,0.0,0.0,268.0,796.0,0.0,1,1046.0,1
65,65,-0.2796251820615314,-0.3,0.0,1.0,284.0,719.0,1.0,0,257.0,1
66,66,0.011227722710515087,0.0,0.0,0.0,309.0,605.0,1.0,0,2086.0,0
67,67,0.5170653853384973,0.5,0.0,0.0,470.0,526.0,0.0,1,244.0,1
68,68,0.0008197146056087012,0.0,1.0,1.0,323.0,999.0,1.0,1,1418.0,1
69,69,0.7996583083301249,0.8,0.0,0.0,353.0,757.0,0.0,1,70.0,1
70,70,0.8314327568163667,0.8,1.0,1.0,263.0,917.0,1.0,1,100.0,1
71,71,-0.16012805677917863,-0.2,1.0,0.0,284.0,831.0,0.0,0,295.0,1
72,72,0.13021966722029432,0.1,1.0,1.0,414.0,799.0,1.0,1,357.0,1
73,73,0.3707914137892717,0.4,0.0,0.0,405.0,990.0,0.0,1,335.0,1
74,74,-0.7443652769891518,-0.7,1.0,0.0,342.0,616.0,0.0,0,142.0,1
75,75,0.5582514687826147,0.6,0.0,0.0,394.0,865.0,0.0,1,151.0,1
76,76,0.6811555873855507,0.7,0.0,0.0,268.0,762.0,0.0,1,100.0,1
77,77,0.7237383070923796,0.7,1.0,1.0,324.0,805.0,1.0,1,141.0,1
78,78,-0.1051604798013287,-0.1,1.0,0.0,269.0,656.0,0.0,0,465.0,1
79,79,0.615042008691573,0.6,1.0,1.0,276.0,632.0,1.0,1,222.0,1
80,80,0.273546811203618,0.3,1.0,1.0,253.0,795.0,1.0,1,172.0,1
81,81,-0.454261683148352,-0.5,0.0,1.0,315.0,815.0,1.0,0,160.0,1
82,82,0.443314758002079,0.4,0.0,0.0,337.0,512.0,0.0,1,551.0,1
83,83,-0.02415592701170821,-0.0,0.0,1.0,273.0,551.0,1.0,0,1926.0,1
84,84,-0.7502289055551821,-0.8,0.0,1.0,445.0,984.0,1.0,0,91.0,1
85,85,-0.5672336773279587,-0.6,1.0,0.0,408.0,820.0,0.0,0,122.0,1
86,86,0.3469828836589409,0.3,1.0,1.0,252.0,752.0,1.0,1,186.0,1
87,87,-0.35477019381538877,-0.4,1.0,0.0,453.0,707.0,0.0,0,170.0,1
88,88,0.23799547347407668,0.2,0.0,0.0,300.0,536.0,0.0,1,514.0,1
89,89,-0.1680638218392959,-0.2,0.0,1.0,299.0,994.0,1.0,0,367.0,1
90,90,-0.1789116082850224,-0.2,1.0,0.0,408.0,790.0,0.0,0,222.0,1
91,91,0.5181788220914901,0.5,0.0,0.0,258.0,945.0,0.0,1,97.0,1
92,92,-0.6382403412535153,-0.6,1.0,0.0,298.0,994.0,0.0,0,78.0,1
93,93,0.6303682177731585,0.6,0.0,0.0,268.0,704.0,0.0,1,268.0,1
94,94,0.7380358988595176,0.7,1.0,1.0,474.0,725.0,1.0,1,191.0,1
95,95,-0.8825505402526398,-0.9,1.0,0.0,453.0,939.0,0.0,0,148.0,1
96,96,-0.27543351197659716,-0.3,1.0,0.0,296.0,726.0,0.0,0,208.0,1
97,97,0.874907873872509,0.9,1.0,1.0,423.0,887.0,1.0,1,170.0,1
98,98,-0.18855506142867384,-0.2,0.0,1.0,319.0,560.0,1.0,0,231.0,1
99,99,-0.5463701676814006,-0.5,1.0,0.0,381.0,637.0,0.0,0,232.0,1
100,100,0.46869269677561765,0.5,1.0,1.0,408.0,844.0,1.0,1,228.0,1
101,101,0.5641817274129578,0.6,0.0,0.0,372.0,509.0,0.0,1,389.0,1
102,102,0.7061163409291035,0.7,0.0,0.0,277.0,591.0,0.0,1,232.0,1
103,103,-0.23955070123044087,-0.2,0.0,1.0,458.0,783.0,1.0,0,259.0,1
104,104,-0.03532581182959971,-0.0,0.0,1.0,470.0,666.0,1.0,0,1864.0,1
105,105,0.4587813095620986,0.5,1.0,1.0,296.0,535.0,1.0,1,269.0,1
106,106,0.10875229189929148,0.1,1.0,1.0,409.0,891.0,1.0,1,580.0,1
107,107,-0.7568849304328709,-0.8,1.0,0.0,433.0,696.0,0.0,0,191.0,1
108,108,0.29196932217592597,0.3,0.0,0.0,322.0,797.0,0.0,1,251.0,1
109,109,-0.43007742289607576,-0.4,0.0,1.0,310.0,546.0,1.0,0,364.0,1
110,110,-0.348423941510417,-0.3,1.0,0.0,392.0,648.0,0.0,0,250.0,1
111,111,0.7688270932061191,0.8,0.0,0.0,470.0,560.0,0.0,1,190.0,1
112,112,0.35252319541889776,0.4,0.0,0.0,418.0,927.0,0.0,1,95.0,1
113,113,-0.06218867839470499,-0.1,0.0,1.0,314.0,546.0,1.0,0,390.0,1
114,114,0.7049349691476848,0.7,0.0,0.0,316.0,714.0,0.0,1,100.0,1
115,115,0.46105148892945336,0.5,1.0,1.0,370.0,510.0,1.0,1,280.0,1
116,116,0.18613272720031604,0.2,1.0,1.0,334.0,676.0,1.0,1,560.0,1
117,117,0.1747107239987845,0.2,0.0,0.0,270.0,549.0,0.0,1,311.0,1
118,118,-0.841994564681138,-0.8,1.0,0.0,493.0,638.0,0.0,0,149.0,1
119,119,0.2852552189828931,0.3,0.0,0.0,363.0,635.0,0.0,1,412.0,1
120,120,-0.05173632516409288,-0.1,0.0,1.0,315.0,737.0,1.0,0,1288.0,1
121,121,-0.8740731459089152,-0.9,0.0,1.0,425.0,653.0,1.0,0,122.0,1
122,122,-0.6259344377555827,-0.6,0.0,1.0,358.0,879.0,1.0,0,153.0,1
123,123,0.24135483737748487,0.2,1.0,1.0,257.0,679.0,1.0,1,174.0,1
124,124,0.5797648949797037,0.6,0.0,0.0,312.0,943.0,0.0,1,75.0,1
125,125,-0.3639636880875332,-0.4,1.0,0.0,368.0,710.0,0.0,0,122.0,1
126,126,0.4082075117623817,0.4,0.0,0.0,309.0,611.0,0.0,1,150.0,1
127,127,-0.802305775053002,-0.8,1.0,0.0,496.0,641.0,0.0,0,213.0,1
128,128,-0.5436860311915458,-0.5,0.0,1.0,319.0,572.0,1.0,0,329.0,1
129,129,0.5032032595707366,0.5,1.0,1.0,397.0,509.0,1.0,1,574.0,1
130,130,0.29163529806474064,0.3,0.0,0.0,388.0,664.0,0.0,1,138.0,1
131,131,-0.08228584854724674,-0.1,0.0,1.0,451.0,914.0,1.0,0,675.0,1
132,132,0.27646499985629724,0.3,1.0,1.0,433.0,508.0,1.0,1,509.0,1
133,133,0.39611040745703396,0.4,1.0,1.0,346.0,993.0,1.0,1,121.0,1
134,134,0.556603944765052,0.6,1.0,1.0,319.0,959.0,1.0,1,252.0,1
135,135,-0.15350764437204778,-0.2,0.0,1.0,289.0,758.0,1.0,0,203.0,1
136,136,-0.30677786786063177,-0.3,1.0,0.0,262.0,633.0,0.0,0,295.0,1
137,137,0.4041540043057218,0.4,1.0,1.0,498.0,555.0,1.0,1,247.0,1
138,138,0.01459282481773938,0.0,0.0,0.0,432.0,649.0,0.0,1,589.0,1
139,139,0.4453141892630573,0.4,0.0,0.0,412.0,554.0,0.0,1,314.0,1
140,140,-0.8623970298715248,-0.9,0.0,1.0,287.0,870.0,1.0,0,93.0,1
141,141,-0.6128778076297456,-0.6,1.0,0.0,432.0,885.0,0.0,0,73.0,1
142,142,0.4914055097486981,0.5,0.0,0.0,403.0,688.0,0.0,1,149.0,1
143,143,0.5933281914353131,0.6,1.0,1.0,414.0,799.0,1.0,1,137.0,1
144,144,-0.7113108642805163,-0.7,0.0,1.0,391.0,906.0,1.0,0,83.0,1
145,145,-0.5532486832054788,-0.6,0.0,1.0,390.0,728.0,1.0,0,312.0,1
146,146,0.6894031925225578,0.7,1.0,1.0,294.0,904.0,1.0,1,182.0,1
147,147,0.5269271888729475,0.5,0.0,0.0,466.0,663.0,0.0,1,171.0,1
148,148,-0.2582737163768518,-0.3,1.0,0.0,452.0,606.0,0.0,0,312.0,1
149,149,0.30573219179530586,0.3,1.0,1.0,466.0,962.0,1.0,1,62.0,1
150,150,0.1750141346683728,0.2,0.0,0.0,430.0,544.0,0.0,1,666.0,1
151,151,0.37725381387773893,0.4,1.0,1.0,260.0,927.0,1.0,1,293.0,1
152,152,0.17962258475458592,0.2,0.0,0.0,488.0,768.0,0.0,1,344.0,1
153,153,-0.8505819828937647,-0.9,1.0,0.0,342.0,916.0,0.0,0,122.0,1
154,154,0.010464438374513052,0.0,0.0,0.0,498.0,551.0,1.0,0,1111.0,0
155,155,0.12095501384884477,0.1,0.0,0.0,331.0,979.0,0.0,1,260.0,1
156,156,-0.4493657518432243,-0.4,0.0,1.0,465.0,787.0,1.0,0,228.0,1
157,157,-0.40455230373958834,-0.4,0.0,1.0,430.0,580.0,1.0,0,890.0,1
158,158,0.6973952992179385,0.7,0.0,0.0,358.0,568.0,0.0,1,224.0,1
159,159,-0.5496642470445903,-0.5,1.0,0.0,332.0,805.0,0.0,0,223.0,1
160,160,-0.09879606710741295,-0.1,1.0,0.0,262.0,594.0,0.0,0,544.0,1
161,161,0.14503915627619357,0.1,1.0,1.0,324.0,934.0,1.0,1,562.0,1
162,162,-0.2754563303793971,-0.3,1.0,0.0,398.0,620.0,0.0,0,322.0,1
163,163,0.8457557078139423,0.8,0.0,0.0,392.0,549.0,0.0,1,269.0,1
164,164,0.048924442492227826,0.0,1.0,1.0,421.0,826.0,1.0,1,983.0,1
165,165,0.7168210958918783,0.7,1.0,1.0,404.0,766.0,1.0,1,200.0,1
166,166,-0.6397422530125962,-0.6,1.0,0.0,458.0,808.0,0.0,0,34.0,1
167,167,0.3861485403626056,0.4,1.0,1.0,326.0,710.0,1.0,1,164.0,1
168,168,0.7652631420379729,0.8,0.0,0.0,260.0,844.0,0.0,1,116.0,1
169,169,-0.3350193739279763,-0.3,1.0,0.0,360.0,848.0,0.0,0,152.0,1
170,170,-0.7061694683347546,-0.7,1.0,0.0,274.0,780.0,0.0,0,36.0,1
171,171,0.7986098943089787,0.8,1.0,1.0,358.0,919.0,1.0,1,163.0,1
172,172,-0.8697524065140078,-0.9,0.0,1.0,484.0,981.0,1.0,0,55.0,1
173,173,-0.19252136904166506,-0.2,1.0,0.0,461.0,923.0,0.0,0,166.0,1
174,174,0.4083531992770467,0.4,0.0,0.0,368.0,606.0,0.0,1,276.0,1
175,175,-0.033007606413285595,-0.0,0.0,1.0,436.0,830.0,1.0,0,1324.0,1
176,176,-0.2786736179612199,-0.3,0.0,1.0,466.0,680.0,1.0,0,284.0,1
177,177,0.14186473890826046,0.1,0.0,0.0,274.0,818.0,0.0,1,368.0,1
178,178,-0.3449824118041145,-0.3,0.0,1.0,465.0,831.0,1.0,0,184.0,1
179,179,0.8889735895094989,0.9,0.0,0.0,380.0,591.0,0.0,1,259.0,1
180,180,0.19549581337833322,0.2,0.0,0.0,360.0,788.0,0.0,1,102.0,1
181,181,-0.5619426879385176,-0.6,1.0,0.0,367.0,930.0,0.0,0,93.0,1
182,182,-0.13770865564766066,-0.1,0.0,1.0,419.0,997.0,1.0,0,274.0,1
183,183,-0.261848118683787,-0.3,1.0,0.0,338.0,962.0,0.0,0,220.0,1
184,184,-0.10769945626512878,-0.1,1.0,0.0,398.0,797.0,0.0,0,855.0,1
185,185,-0.14514711847643091,-0.1,0.0,1.0,441.0,520.0,1.0,0,479.0,1
186,186,0.6721185197564673,0.7,0.0,0.0,265.0,908.0,0.0,1,257.0,1
187,187,-0.8908915275608054,-0.9,0.0,1.0,379.0,850.0,1.0,0,71.0,1
188,188,0.09591805281650667,0.1,0.0,0.0,306.0,982.0,0.0,1,272.0,1
189,189,-0.3395687920465069,-0.3,0.0,1.0,254.0,565.0,1.0,0,481.0,1
190,190,-0.6482969682396114,-0.6,0.0,1.0,263.0,999.0,1.0,0,138.0,1
191,191,-0.8064595684845541,-0.8,0.0,1.0,392.0,709.0,1.0,0,189.0,1
192,192,0.33364488788573177,0.3,0.0,0.0,458.0,698.0,0.0,1,364.0,1
193,193,0.009201375330948669,0.0,0.0,0.0,404.0,649.0,0.0,1,1627.0,1
194,194,0.622594266288513,0.6,1.0,1.0,259.0,808.0,1.0,1,293.0,1
195,195,0.22859768393650415,0.2,0.0,0.0,338.0,753.0,0.0,1,119.0,1
196,196,0.7937497265360779,0.8,1.0,1.0,431.0,534.0,1.0,1,245.0,1
197,197,-0.4940213112683791,-0.5,1.0,0.0,438.0,550.0,0.0,0,212.0,1
198,198,0.34626669904716956,0.3,0.0,0.0,421.0,570.0,0.0,1,339.0,1
199,199,-0.657225144725736,-0.7,1.0,0.0,438.0,525.0,0.0,0,317.0,1
200,200,-0.1442889619960338,-0.1,1.0,0.0,365.0,880.0,0.0,0,295.0,1
201,201,-0.7756295453828914,-0.8,1.0,0.0,365.0,945.0,0.0,0,-40.0,1
202,202,0.16937151644180648,0.2,0.0,0.0,430.0,676.0,0.0,1,264.0,1
203,203,0.4318402942373466,0.4,1.0,1.0,253.0,748.0,1.0,1,259.0,1
204,204,0.2886672469107082,0.3,0.0,0.0,347.0,868.0,0.0,1,445.0,1
205,205,0.11344954657493778,0.1,0.0,0.0,410.0,796.0,0.0,1,274.0,1
206,206,-0.7081139372487185,-0.7,1.0,0.0,479.0,774.0,0.0,0,227.0,1
207,207,0.7444461982282743,0.7,1.0,1.0,454.0,712.0,1.0,1,104.0,1
208,208,-0.5493091975162674,-0.5,1.0,0.0,272.0,703.0,0.0,0,315.0,1
209,209,-0.005854931094425697,-0.0,1.0,0.0,340.0,603.0,1.0,1,1097.0,0
210,210,0.8855490693816818,0.9,0.0,0.0,414.0,901.0,0.0,1,45.0,1
211,211,-0.1693115286118967,-0.2,0.0,1.0,296.0,504.0,1.0,0,410.0,1
212,212,0.6479349383988261,0.6,1.0,1.0,252.0,798.0,1.0,1,300.0,1
213,213,-0.43828096545509565,-0.4,1.0,0.0,380.0,905.0,0.0,0,285.0,1
214,214,0.7651000148230548,0.8,0.0,0.0,437.0,817.0,0.0,1,76.0,1
215,215,-0.1440033898625408,-0.1,0.0,1.0,263.0,953.0,1.0,0,354.0,1
216,216,0.4832934000336476,0.5,0.0,0.0,288.0,531.0,0.0,1,341.0,1
217,217,0.43106568851101235,0.4,0.0,0.0,457.0,634.0,0.0,1,259.0,1
218,218,-0.8253144450131289,-0.8,0.0,1.0,402.0,743.0,1.0,0,125.0,1
219,219,-0.5582081096642562,-0.6,1.0,0.0,444.0,500.0,0.0,0,236.0,1
220,220,0.3878705860481154,0.4,1.0,1.0,335.0,538.0,1.0,1,237.0,1
221,221,-0.24990225009892864,-0.2,1.0,0.0,403.0,535.0,0.0,0,392.0,1
222,222,0.07003865708894808,0.1,1.0,1.0,269.0,597.0,1.0,1,1034.0,1
223,223,-0.5845417096352428,-0.6,1.0,0.0,266.0,563.0,0.0,0,171.0,1
224,224,-0.6401821473816207,-0.6,1.0,0.0,447.0,505.0,0.0,0,208.0,1
225,225,-0.3568771220756666,-0.4,0.0,1.0,421.0,700.0,1.0,0,159.0,1
226,226,0.6781085383880786,0.7,1.0,1.0,326.0,533.0,1.0,1,211.0,1
227,227,-0.7793576305034209,-0.8,0.0,1.0,383.0,944.0,1.0,0,123.0,1
228,228,-0.22744307297912758,-0.2,0.0,1.0,341.0,506.0,1.0,0,473.0,1
229,229,0.6987414346351969,0.7,1.0,1.0,329.0,874.0,1.0,1,107.0,1
230,230,-0.13873081130155107,-0.1,0.0,1.0,383.0,752.0,1.0,0,285.0,1
231,231,-0.0691530631279832,-0.1,0.0,1.0,367.0,871.0,1.0,0,1422.0,1
232,232,-0.34471670874917326,-0.3,0.0,1.0,264.0,636.0,1.0,0,220.0,1
233,233,0.33339699260883193,0.3,1.0,1.0,418.0,826.0,1.0,1,146.0,1
234,234,-0.8051062145203611,-0.8,0.0,1.0,370.0,600.0,1.0,0,190.0,1
235,235,0.6810662412541105,0.7,1.0,1.0,433.0,598.0,1.0,1,179.0,1
236,236,0.38430109032679327,0.4,1.0,1.0,414.0,745.0,1.0,1,211.0,1
237,237,-0.819029778367488,-0.8,0.0,1.0,493.0,672.0,1.0,0,215.0,1
238,238,0.786340995951674,0.8,1.0,1.0,484.0,878.0,1.0,1,108.0,1
239,239,0.4501163203368411,0.5,1.0,1.0,288.0,735.0,1.0,1,117.0,1
240,240,-0.13215226210027597,-0.1,0.0,1.0,375.0,988.0,1.0,0,197.0,1
241,241,0.3156198475498645,0.3,0.0,0.0,396.0,590.0,0.0,1,254.0,1
242,242,-0.8500657651061179,-0.9,1.0,0.0,270.0,529.0,0.0,0,271.0,1
243,243,-0.46169533993734874,-0.5,1.0,0.0,376.0,994.0,0.0,0,120.0,1
244,244,0.38450751870804856,0.4,0.0,0.0,446.0,744.0,0.0,1,140.0,1
245,245,0.34754281145153343,0.3,1.0,1.0,367.0,873.0,1.0,1,240.0,1
246,246,0.06604644623464151,0.1,0.0,0.0,476.0,573.0,0.0,1,661.0,1
247,247,-0.2748062425601767,-0.3,1.0,0.0,347.0,877.0,0.0,0,166.0,1
248,248,0.3725918370398539,0.4,0.0,0.0,377.0,867.0,0.0,1,226.0,1
249,249,0.8330851960697966,0.8,1.0,1.0,280.0,916.0,1.0,1,144.0,1
250,250,-0.4414023988293232,-0.4,1.0,0.0,473.0,975.0,0.0,0,52.0,1
251,251,0.697091056589198,0.7,1.0,1.0,375.0,647.0,1.0,1,148.0,1
252,252,-0.3567426874340447,-0.4,1.0,0.0,491.0,899.0,0.0,0,90.0,1
253,253,0.8043444442847739,0.8,0.0,0.0,440.0,922.0,0.0,1,248.0,1
254,254,-0.8320204859981223,-0.8,0.0,1.0,389.0,780.0,1.0,0,191.0,1
255,255,-0.45490711974848214,-0.5,0.0,1.0,345.0,530.0,1.0,0,425.0,1
256,256,-0.2882942972313117,-0.3,1.0,0.0,495.0,641.0,0.0,0,344.0,1
257,257,0.38068937519025725,0.4,0.0,0.0,263.0,981.0,0.0,1,136.0,1
258,258,0.004838362370112481,0.0,1.0,1.0,259.0,532.0,0.0,0,379.0,0
259,259,0.30701562681478534,0.3,0.0,0.0,301.0,916.0,0.0,1,83.0,1
260,260,-0.7115561395674079,-0.7,0.0,1.0,302.0,674.0,1.0,0,224.0,1
261,261,-0.1204584450984475,-0.1,0.0,1.0,343.0,756.0,1.0,0,251.0,1
262,262,0.13109912507935928,0.1,0.0,0.0,306.0,703.0,0.0,1,1.0,1
263,263,0.5228588103420745,0.5,0.0,0.0,360.0,904.0,0.0,1,196.0,1
264,264,-0.1446369086884446,-0.1,1.0,0.0,290.0,550.0,0.0,0,270.0,1
265,265,0.5354163355589089,0.5,0.0,0.0,443.0,913.0,0.0,1,134.0,1
266,266,-0.07066749851284793,-0.1,0.0,1.0,393.0,800.0,1.0,0,187.0,1
267,267,0.8384636169813015,0.8,1.0,1.0,482.0,956.0,1.0,1,92.0,1
268,268,0.8105302975310685,0.8,1.0,1.0,439.0,882.0,1.0,1,309.0,1
269,269,0.15684784224167247,0.2,1.0,1.0,483.0,980.0,1.0,1,147.0,1
270,270,-0.8143832503821891,-0.8,1.0,0.0,330.0,536.0,0.0,0,214.0,1
271,271,0.12013713730949027,0.1,0.0,0.0,476.0,863.0,0.0,1,751.0,1
272,272,-0.5268830664106017,-0.5,0.0,1.0,342.0,981.0,1.0,0,147.0,1
273,273,-0.48358056583161296,-0.5,0.0,1.0,473.0,906.0,1.0,0,211.0,1
274,274,0.7817792929683752,0.8,0.0,0.0,283.0,663.0,0.0,1,104.0,1
275,275,0.6818261082614535,0.7,1.0,1.0,375.0,639.0,1.0,1,276.0,1
276,276,0.4696825967974557,0.5,0.0,0.0,271.0,692.0,0.0,1,277.0,1
277,277,0.2750349996382323,0.3,0.0,0.0,392.0,764.0,0.0,1,244.0,1
278,278,0.8951945736922352,0.9,0.0,0.0,375.0,610.0,0.0,1,165.0,1
279,279,0.03951026234150401,0.0,0.0,0.0,401.0,748.0,0.0,1,1851.0,1
280,280,-0.5788577175378212,-0.6,0.0,1.0,351.0,973.0,1.0,0,96.0,1
281,281,-0.2887309121477931,-0.3,0.0,1.0,443.0,559.0,1.0,0,478.0,1
282,282,-0.20923224216755443,-0.2,0.0,1.0,344.0,979.0,1.0,0,347.0,1
283,283,0.2285734589508167,0.2,0.0,0.0,391.0,857.0,0.0,1,362.0,1
284,284,-0.3835093988984214,-0.4,0.0,1.0,426.0,635.0,1.0,0,389.0,1
285,285,0.7923306303826226,0.8,0.0,0.0,489.0,625.0,0.0,1,186.0,1
286,286,-0.7991708477379872,-0.8,1.0,0.0,476.0,885.0,0.0,0,149.0,1
287,287,0.20154191801422427,0.2,0.0,0.0,316.0,917.0,0.0,1,207.0,1
288,288,-0.4294797315825706,-0.4,0.0,1.0,424.0,583.0,1.0,0,333.0,1
289,289,0.36258161419299395,0.4,1.0,1.0,401.0,884.0,1.0,1,115.0,1
290,290,-0.16629733120950252,-0.2,0.0,1.0,265.0,568.0,1.0,0,327.0,1
291,291,-0.018208844666105395,-0.0,0.0,1.0,495.0,668.0,1.0,0,1837.0,1
292,292,-0.8056979180428253,-0.8,0.0,1.0,464.0,999.0,1.0,0,117.0,1
293,293,0.8851513022781085,0.9,1.0,1.0,274.0,608.0,1.0,1,178.0,1
294,294,0.2817598831459701,0.3,0.0,0.0,371.0,581.0,0.0,1,328.0,1
295,295,-0.8413994467932666,-0.8,0.0,1.0,447.0,934.0,1.0,0,119.0,1
296,296,0.07029211711356431,0.1,1.0,1.0,337.0,913.0,1.0,1,1140.0,1
297,297,-0.1648157367786297,-0.2,0.0,1.0,399.0,512.0,1.0,0,249.0,1
298,298,-0.7078070272966079,-0.7,0.0,1.0,456.0,871.0,1.0,0,103.0,1
299,299,-0.7721556462423936,-0.8,1.0,0.0,312.0,839.0,0.0,0,39.0,1
300,300,-0.5880271683731276,-0.6,1.0,0.0,250.0,812.0,0.0,0,68.0,1
301,301,0.2228611577211156,0.2,1.0,1.0,327.0,981.0,0.0,0,-18.0,0
302,302,-0.0021719971766702706,-0.0,1.0,0.0,429.0,615.0,0.0,0,1136.0,1
303,303,-0.32635475419196525,-0.3,0.0,1.0,341.0,730.0,1.0,0,159.0,1
304,304,0.4530704728988547,0.5,1.0,1.0,345.0,560.0,1.0,1,325.0,1
305,305,0.7165998558838608,0.7,1.0,1.0,388.0,636.0,1.0,1,106.0,1
306,306,-0.4418464608021198,-0.4,0.0,1.0,283.0,549.0,1.0,0,208.0,1
307,307,-0.2339846084982975,-0.2,0.0,1.0,430.0,693.0,1.0,0,287.0,1
308,308,0.2157048976105439,0.2,1.0,1.0,393.0,779.0,1.0,1,288.0,1
309,309,0.38394789932063256,0.4,1.0,1.0,382.0,506.0,1.0,1,472.0,1
310,310,-0.1377750143683094,-0.1,0.0,1.0,386.0,674.0,1.0,0,400.0,1
311,311,-0.5315656793787897,-0.5,1.0,0.0,488.0,997.0,0.0,0,175.0,1
312,312,0.27550707787777295,0.3,1.0,1.0,378.0,562.0,1.0,1,390.0,1
313,313,0.4132073768857564,0.4,0.0,0.0,252.0,694.0,0.0,1,234.0,1
314,314,-0.4462866114348498,-0.4,0.0,1.0,367.0,988.0,1.0,0,205.0,1
315,315,0.21005162930341992,0.2,1.0,1.0,456.0,693.0,1.0,1,171.0,1
316,316,0.2841027055081581,0.3,1.0,1.0,466.0,643.0,1.0,1,281.0,1
317,317,0.6907716038058612,0.7,0.0,0.0,356.0,984.0,0.0,1,60.0,1
318,318,-0.6542533562590707,-0.7,0.0,1.0,387.0,963.0,1.0,0,100.0,1
319,319,0.44668403629757825,0.4,0.0,0.0,355.0,857.0,0.0,1,178.0,1
320,320,0.11051001741505917,0.1,1.0,1.0,449.0,895.0,1.0,1,866.0,1
321,321,0.435019728118342,0.4,0.0,0.0,253.0,730.0,0.0,1,157.0,1
322,322,0.4567907635574048,0.5,0.0,0.0,372.0,936.0,0.0,1,132.0,1
323,323,-0.012065372622804271,-0.0,1.0,0.0,362.0,528.0,0.0,0,2110.0,1
324,324,0.7345517559806921,0.7,0.0,0.0,444.0,542.0,0.0,1,284.0,1
325,325,0.7377002348520197,0.7,1.0,1.0,444.0,703.0,1.0,1,293.0,1
326,326,0.08758334958899394,0.1,0.0,0.0,485.0,896.0,0.0,1,1069.0,1
327,327,0.4418377398977741,0.4,1.0,1.0,444.0,860.0,1.0,1,226.0,1
328,328,-0.7671497936730417,-0.8,1.0,0.0,331.0,962.0,0.0,0,147.0,1
329,329,-0.7237486169703706,-0.7,1.0,0.0,484.0,564.0,0.0,0,302.0,1
330,330,0.7255030090827105,0.7,0.0,0.0,415.0,569.0,0.0,1,286.0,1
331,331,-0.8270414747971075,-0.8,0.0,1.0,407.0,931.0,1.0,0,132.0,1
332,332,-0.1880868053437702,-0.2,0.0,1.0,385.0,778.0,1.0,0,337.0,1
333,333,-0.42233984673976893,-0.4,0.0,1.0,495.0,857.0,1.0,0,198.0,1
334,334,0.49076596020241137,0.5,1.0,1.0,497.0,967.0,1.0,1,126.0,1
335,335,0.7862942379681032,0.8,0.0,0.0,490.0,837.0,0.0,1,283.0,1
336,336,0.12037902346696272,0.1,0.0,0.0,399.0,547.0,0.0,1,504.0,1
337,337,-0.5603857067000213,-0.6,0.0,1.0,369.0,780.0,1.0,0,201.0,1
338,338,0.4754989053360902,0.5,1.0,1.0,276.0,799.0,1.0,1,205.0,1
339,339,0.4772581542551616,0.5,1.0,1.0,250.0,823.0,1.0,1,177.0,1
340,340,-0.022615809608400372,-0.0,1.0,0.0,274.0,844.0,0.0,0,512.0,1
341,341,-0.20769241486958778,-0.2,0.0,1.0,443.0,838.0,1.0,0,479.0,1
342,342,0.07711463799364915,0.1,0.0,0.0,418.0,945.0,0.0,1,437.0,1
343,343,0.8655573241067408,0.9,1.0,1.0,324.0,995.0,1.0,1,131.0,1
344,344,0.004757377114184114,0.0,1.0,1.0,254.0,698.0,1.0,1,738.0,1
345,345,0.19582096449375264,0.2,0.0,0.0,390.0,703.0,0.0,1,397.0,1
346,346,-0.8223971964148857,-0.8,1.0,0.0,429.0,934.0,0.0,0,207.0,1
347,347,0.3025804306727552,0.3,1.0,1.0,490.0,945.0,1.0,1,145.0,1
348,348,0.19885950278059583,0.2,0.0,0.0,491.0,842.0,0.0,1,537.0,1
349,349,0.16897953603300075,0.2,1.0,1.0,339.0,682.0,1.0,1,269.0,1
350,350,0.46099630280126946,0.5,0.0,0.0,375.0,823.0,0.0,1,162.0,1
351,351,-0.46189538919959977,-0.5,1.0,0.0,349.0,625.0,0.0,0,256.0,1
352,352,0.7512379120260447,0.8,1.0,1.0,321.0,778.0,1.0,1,121.0,1
353,353,-0.0064739691463302496,-0.0,1.0,0.0,332.0,698.0,1.0,1,1970.0,0
354,354,-0.1328581338031728,-0.1,0.0,1.0,343.0,520.0,1.0,0,477.0,1
355,355,0.46066293607464404,0.5,0.0,0.0,474.0,872.0,0.0,1,74.0,1
356,356,-0.6767773308394419,-0.7,1.0,0.0,323.0,779.0,0.0,0,278.0,1
357,357,0.508591138773688,0.5,0.0,0.0,386.0,778.0,0.0,1,96.0,1
358,358,0.20683986832313506,0.2,0.0,0.0,277.0,950.0,0.0,1,173.0,1
359,359,-0.6794611987927933,-0.7,0.0,1.0,262.0,725.0,1.0,0,173.0,1
360,360,-0.7853590652740712,-0.8,0.0,1.0,281.0,719.0,1.0,0,130.0,1
361,361,-0.5832708618924696,-0.6,1.0,0.0,486.0,682.0,0.0,0,192.0,1
362,362,0.752467783846014,0.8,1.0,1.0,391.0,629.0,1.0,1,200.0,1
363,363,0.14649603614362705,0.1,1.0,1.0,449.0,984.0,1.0,1,437.0,1
364,364,0.6267434113967226,0.6,1.0,1.0,483.0,840.0,1.0,1,147.0,1
365,365,0.4660113090358208,0.5,0.0,0.0,384.0,600.0,0.0,1,116.0,1
366,366,0.2930235241870759,0.3,0.0,0.0,368.0,901.0,0.0,1,161.0,1
367,367,0.8081396425413973,0.8,1.0,1.0,275.0,856.0,1.0,1,249.0,1
368,368,-0.5781836350926575,-0.6,0.0,1.0,456.0,994.0,1.0,0,60.0,1
369,369,0.06553931338101249,0.1,0.0,0.0,408.0,502.0,0.0,1,1220.0,1
370,370,0.04574702112012563,0.0,1.0,1.0,415.0,630.0,1.0,1,335.0,1
371,371,0.7980004069761609,0.8,0.0,0.0,364.0,517.0,0.0,1,329.0,1
372,372,0.11685001319824717,0.1,1.0,1.0,263.0,544.0,1.0,1,313.0,1
373,373,0.4718216328192538,0.5,0.0,0.0,464.0,608.0,0.0,1,258.0,1
374,374,0.32926790142131435,0.3,1.0,1.0,317.0,728.0,1.0,1,335.0,1
375,375,0.1601801884661459,0.2,1.0,1.0,279.0,775.0,1.0,1,356.0,1
376,376,-0.3980144524796617,-0.4,0.0,1.0,270.0,838.0,1.0,0,182.0,1
377,377,-0.8296785435766445,-0.8,0.0,1.0,406.0,599.0,1.0,0,205.0,1
378,378,-0.8054042115702835,-0.8,1.0,0.0,303.0,751.0,0.0,0,116.0,1
379,379,-0.14295675234573157,-0.1,0.0,1.0,480.0,992.0,1.0,0,308.0,1
380,380,0.6908828182082306,0.7,0.0,0.0,311.0,913.0,0.0,1,136.0,1
381,381,-0.8692491920699871,-0.9,0.0,1.0,380.0,668.0,1.0,0,182.0,1
382,382,0.716681700758914,0.7,0.0,0.0,312.0,830.0,0.0,1,128.0,1
383,383,-0.5928319203088738,-0.6,0.0,1.0,362.0,858.0,1.0,0,120.0,1
384,384,0.5771689291737961,0.6,1.0,1.0,491.0,549.0,1.0,1,370.0,1
385,385,-0.18569604097255443,-0.2,0.0,1.0,333.0,642.0,1.0,0,285.0,1
386,386,0.7072139971378409,0.7,1.0,1.0,283.0,753.0,1.0,1,224.0,1
387,387,0.25272636888026934,0.3,0.0,0.0,463.0,803.0,0.0,1,304.0,1
388,388,-0.6443841255419149,-0.6,1.0,0.0,383.0,871.0,0.0,0,106.0,1
389,389,-0.29285518012132794,-0.3,0.0,1.0,255.0,776.0,1.0,0,689.0,1
390,390,0.2201215142756502,0.2,0.0,0.0,363.0,703.0,0.0,1,284.0,1
391,391,-0.6361044403403622,-0.6,0.0,1.0,362.0,988.0,1.0,0,120.0,1
392,392,-0.41794315003842913,-0.4,1.0,0.0,364.0,660.0,0.0,0,146.0,1
393,393,-0.5430073210661517,-0.5,0.0,1.0,293.0,523.0,1.0,0,494.0,1
394,394,0.7482257240516376,0.7,0.0,0.0,278.0,699.0,0.0,1,323.0,1
395,395,-0.5753255944719202,-0.6,0.0,1.0,321.0,807.0,1.0,0,72.0,1
396,396,0.6302119579155468,0.6,0.0,0.0,488.0,759.0,0.0,1,223.0,1
397,397,-0.22261573186561345,-0.2,0.0,1.0,267.0,508.0,1.0,0,635.0,1
398,398,0.14268519274109603,0.1,0.0,0.0,310.0,992.0,0.0,1,108.0,1
399,399,-0.13478804202947003,-0.1,1.0,0.0,286.0,960.0,0.0,0,344.0,1
400,400,-0.47768503425224496,-0.5,1.0,0.0,314.0,771.0,0.0,0,125.0,1
401,401,-0.8686434092439865,-0.9,1.0,0.0,394.0,850.0,0.0,0,26.0,1
402,402,-0.5466448099449815,-0.5,1.0,0.0,290.0,793.0,0.0,0,177.0,1
403,403,-0.7033351299919623,-0.7,1.0,0.0,354.0,788.0,0.0,0,108.0,1
404,404,0.24183964153110205,0.2,0.0,0.0,384.0,508.0,0.0,1,338.0,1
405,405,-0.7149945475741752,-0.7,0.0,1.0,434.0,746.0,1.0,0,160.0,1
406,406,0.7654583383558952,0.8,1.0,1.0,367.0,895.0,1.0,1,168.0,1
407,407,-0.5925846862456872,-0.6,1.0,0.0,447.0,506.0,0.0,0,227.0,1
408,408,0.32741600461191844,0.3,0.0,0.0,265.0,617.0,0.0,1,238.0,1
409,409,0.830345684778642,0.8,0.0,0.0,499.0,942.0,0.0,1,219.0,1
410,410,-0.2341103779010042,-0.2,0.0,1.0,457.0,768.0,1.0,0,235.0,1
411,411,0.7459355968936353,0.7,0.0,0.0,465.0,801.0,0.0,1,104.0,1
412,412,-0.7867361287380524,-0.8,1.0,0.0,492.0,822.0,0.0,0,96.0,1
413,413,-0.15429120288039788,-0.2,1.0,0.0,293.0,780.0,0.0,0,377.0,1
414,414,-0.7983349579294079,-0.8,0.0,1.0,411.0,504.0,1.0,0,185.0,1
415,415,0.017833050272529904,0.0,0.0,0.0,428.0,864.0,0.0,1,908.0,1
416,416,0.06323254018203128,0.1,0.0,0.0,367.0,517.0,0.0,1,1026.0,1
417,417,-0.22991110261588377,-0.2,0.0,1.0,459.0,547.0,1.0,0,764.0,1
418,418,-0.47108751643775043,-0.5,1.0,0.0,253.0,559.0,0.0,0,388.0,1
419,419,0.4790609274849903,0.5,1.0,1.0,287.0,823.0,1.0,1,150.0,1
420,420,0.23366596145740248,0.2,1.0,1.0,259.0,976.0,1.0,1,305.0,1
421,421,0.7190738458938145,0.7,1.0,1.0,443.0,656.0,1.0,1,211.0,1
422,422,-0.687872074461209,-0.7,0.0,1.0,285.0,552.0,1.0,0,233.0,1
423,423,0.7628389588513201,0.8,0.0,0.0,499.0,607.0,0.0,1,184.0,1
424,424,0.5412631071555306,0.5,0.0,0.0,271.0,947.0,0.0,1,282.0,1
425,425,0.26082015837563943,0.3,1.0,1.0,298.0,707.0,1.0,1,205.0,1
426,426,0.07019818406144274,0.1,0.0,0.0,482.0,638.0,0.0,1,1270.0,1
427,427,-0.44663611837941364,-0.4,0.0,1.0,258.0,928.0,1.0,0,154.0,1
428,428,0.15555003474414797,0.2,1.0,1.0,382.0,576.0,1.0,1,542.0,1
429,429,-0.5583190904163154,-0.6,1.0,0.0,439.0,909.0,0.0,0,232.0,1
430,430,0.39008688317079054,0.4,1.0,1.0,251.0,714.0,1.0,1,295.0,1
431,431,0.6115882301472287,0.6,1.0,1.0,446.0,847.0,1.0,1,117.0,1
432,432,0.8030971112415451,0.8,1.0,1.0,282.0,550.0,1.0,1,268.0,1
433,433,0.5435340850574161,0.5,0.0,0.0,474.0,975.0,0.0,1,101.0,1
434,434,0.6685066173715831,0.7,1.0,1.0,309.0,763.0,1.0,1,138.0,1
435,435,0.6040027669520197,0.6,1.0,1.0,463.0,924.0,1.0,1,193.0,1
436,436,-0.6659179631928029,-0.7,0.0,1.0,478.0,989.0,1.0,0,93.0,1
437,437,-0.08580509956941929,-0.1,0.0,1.0,351.0,953.0,1.0,0,656.0,1
438,438,0.17215849290109786,0.2,0.0,0.0,394.0,644.0,0.0,1,222.0,1
439,439,0.7143949311724606,0.7,1.0,1.0,419.0,748.0,1.0,1,163.0,1
440,440,-0.8299574868687539,-0.8,0.0,1.0,363.0,947.0,1.0,0,140.0,1
441,441,0.8186822033689426,0.8,1.0,1.0,306.0,644.0,1.0,1,240.0,1
442,442,-0.8708746291587364,-0.9,0.0,1.0,321.0,938.0,1.0,0,111.0,1
443,443,-0.5526918746549925,-0.6,0.0,1.0,446.0,601.0,1.0,0,213.0,1
444,444,0.6904516904763672,0.7,0.0,0.0,406.0,536.0,0.0,1,258.0,1
445,445,-0.18420025286891728,-0.2,0.0,1.0,404.0,852.0,1.0,0,274.0,1
446,446,0.2642208792632258,0.3,0.0,0.0,398.0,809.0,0.0,1,103.0,1
447,447,-0.3591191726326344,-0.4,1.0,0.0,452.0,554.0,0.0,0,334.0,1
448,448,-0.8655740391998195,-0.9,1.0,0.0,385.0,616.0,0.0,0,289.0,1
449,449,-0.013047085316620688,-0.0,0.0,1.0,404.0,730.0,1.0,0,1866.0,1
450,450,0.6252494421256739,0.6,0.0,0.0,282.0,720.0,0.0,1,158.0,1
451,451,-0.09350116263326691,-0.1,0.0,1.0,471.0,884.0,1.0,0,525.0,1
452,452,0.31397880925560673,0.3,0.0,0.0,441.0,834.0,0.0,1,365.0,1
453,453,-0.16841561754349177,-0.2,1.0,0.0,305.0,805.0,0.0,0,260.0,1
454,454,-0.5369360335831245,-0.5,0.0,1.0,451.0,621.0,1.0,0,318.0,1
455,455,-0.41170951998216226,-0.4,1.0,0.0,368.0,584.0,0.0,0,488.0,1
456,456,-0.8984149254469499,-0.9,0.0,1.0,287.0,985.0,1.0,0,98.0,1
457,457,0.015737968645820333,0.0,0.0,0.0,291.0,534.0,0.0,1,615.0,1
458,458,-0.34320386304395567,-0.3,1.0,0.0,496.0,760.0,0.0,0,124.0,1
459,459,-0.3463578773600785,-0.3,0.0,1.0,489.0,712.0,1.0,0,219.0,1
460,460,0.7427524282351322,0.7,1.0,1.0,275.0,574.0,1.0,1,351.0,1
461,461,0.3792411476286103,0.4,0.0,0.0,402.0,740.0,0.0,1,138.0,1
462,462,0.4930911834848729,0.5,0.0,0.0,331.0,641.0,0.0,1,258.0,1
463,463,-0.5479450623336293,-0.5,1.0,0.0,345.0,545.0,0.0,0,300.0,1
464,464,0.6294490498085504,0.6,1.0,1.0,415.0,914.0,1.0,1,121.0,1
465,465,0.8293492662729206,0.8,1.0,1.0,467.0,952.0,1.0,1,121.0,1
466,466,-0.0030419857006722673,-0.0,0.0,1.0,315.0,700.0,1.0,0,325.0,1
467,467,0.3457814865305596,0.3,0.0,0.0,389.0,654.0,0.0,1,267.0,1
468,468,-0.7262434452192037,-0.7,1.0,0.0,481.0,507.0,0.0,0,382.0,1
469,469,0.04047974844481428,0.0,1.0,1.0,390.0,685.0,1.0,1,1925.0,1
470,470,-0.49097125715071316,-0.5,1.0,0.0,436.0,705.0,0.0,0,149.0,1
471,471,0.6653014167248458,0.7,1.0,1.0,393.0,735.0,1.0,1,232.0,1
472,472,0.847651943181199,0.8,1.0,1.0,378.0,545.0,1.0,1,267.0,1
473,473,0.29268257607827197,0.3,0.0,0.0,351.0,978.0,0.0,1,171.0,1
474,474,-0.7948838204018605,-0.8,0.0,1.0,297.0,892.0,1.0,0,191.0,1
475,475,-0.776530466319794,-0.8,1.0,0.0,392.0,848.0,0.0,0,110.0,1
476,476,0.6750600636976544,0.7,0.0,0.0,387.0,996.0,0.0,1,107.0,1
477,477,-0.1834303026006302,-0.2,1.0,0.0,265.0,958.0,0.0,0,97.0,1
478,478,-0.1910649668263097,-0.2,0.0,1.0,307.0,768.0,1.0,0,385.0,1
479,479,0.5282672532053657,0.5,1.0,1.0,465.0,924.0,1.0,1,271.0,1
480,480,-0.02112915022372064,-0.0,1.0,0.0,479.0,687.0,0.0,0,1084.0,1
481,481,0.598649232357542,0.6,0.0,0.0,462.0,543.0,0.0,1,335.0,1
482,482,-0.39648079138399184,-0.4,1.0,0.0,251.0,630.0,0.0,0,299.0,1
483,483,0.8507403603863427,0.9,1.0,1.0,483.0,868.0,1.0,1,139.0,1
484,484,0.5685252572661935,0.6,0.0,0.0,357.0,989.0,0.0,1,174.0,1
485,485,-0.0009345584915658733,-0.0,0.0,1.0,441.0,639.0,0.0,1,1920.0,0
486,486,0.0802333930398833,0.1,1.0,1.0,288.0,973.0,1.0,1,399.0,1
487,487,0.48302793089541274,0.5,1.0,1.0,327.0,808.0,1.0,1,495.0,1
488,488,-0.026402085271294284,-0.0,0.0,1.0,279.0,931.0,1.0,0,1790.0,1
489,489,0.10421803487241166,0.1,0.0,0.0,282.0,953.0,0.0,1,335.0,1
490,490,0.3414876109347854,0.3,0.0,0.0,433.0,615.0,0.0,1,232.0,1
491,491,-0.5319800288908612,-0.5,0.0,1.0,497.0,763.0,1.0,0,200.0,1
492,492,-0.6271463282179708,-0.6,1.0,0.0,469.0,847.0,0.0,0,164.0,1
493,493,-0.588979506569294,-0.6,1.0,0.0,389.0,883.0,0.0,0,58.0,1
494,494,-0.09951090783891947,-0.1,1.0,0.0,495.0,786.0,0.0,0,419.0,1
495,495,-0.6902085913232427,-0.7,0.0,1.0,451.0,843.0,1.0,0,116.0,1
496,496,0.1864808522929654,0.2,0.0,0.0,374.0,998.0,0.0,1,418.0,1
497,497,0.7064087466916696,0.7,0.0,0.0,293.0,781.0,0.0,1,176.0,1
498,498,0.8432820950010657,0.8,0.0,0.0,253.0,921.0,0.0,1,86.0,1
499,499,-0.04211867330226704,-0.0,0.0,1.0,291.0,831.0,1.0,0,1388.0,1
500,500,-0.7672051484823114,-0.8,0.0,1.0,330.0,505.0,1.0,0,345.0,1
501,501,0.8772236809873489,0.9,1.0,1.0,267.0,665.0,1.0,1,168.0,1
502,502,0.03176895387298451,0.0,0.0,0.0,420.0,536.0,0.0,1,314.0,1
503,503,0.8974728351332407,0.9,1.0,1.0,364.0,769.0,1.0,1,177.0,1
504,504,0.1614639642292831,0.2,0.0,0.0,288.0,820.0,0.0,1,402.0,1
505,505,-0.6405640135697219,-0.6,1.0,0.0,452.0,580.0,0.0,0,348.0,1
506,506,-0.30602593937808653,-0.3,1.0,0.0,262.0,958.0,0.0,0,110.0,1
507,507,-0.30997117500557936,-0.3,0.0,1.0,481.0,641.0,1.0,0,408.0,1
508,508,-0.12689358038037157,-0.1,1.0,0.0,435.0,918.0,0.0,0,397.0,1
509,509,0.08543974931835097,0.1,1.0,1.0,457.0,969.0,1.0,1,314.0,1
510,510,-0.15294130720011034,-0.2,1.0,0.0,323.0,971.0,0.0,0,126.0,1
511,511,0.09399282067602299,0.1,1.0,1.0,313.0,669.0,1.0,1,408.0,1
512,512,0.5313148813335823,0.5,0.0,0.0,414.0,832.0,0.0,1,134.0,1
513,513,0.822243441442485,0.8,0.0,0.0,335.0,536.0,0.0,1,239.0,1
514,514,-0.19374008030508405,-0.2,1.0,0.0,489.0,703.0,0.0,0,168.0,1
515,515,-0.05391326163819121,-0.1,0.0,1.0,299.0,691.0,1.0,0,2010.0,1
516,516,0.2679147908395677,0.3,1.0,1.0,450.0,941.0,1.0,1,489.0,1
517,517,-0.38058897934150615,-0.4,1.0,0.0,358.0,605.0,0.0,0,317.0,1
518,518,0.12447324084431088,0.1,0.0,0.0,464.0,867.0,0.0,1,1529.0,1
519,519,-0.6810876446039223,-0.7,1.0,0.0,380.0,521.0,0.0,0,199.0,1
520,520,-0.5125647306717933,-0.5,1.0,0.0,443.0,524.0,0.0,0,223.0,1
521,521,-0.8536135589075541,-0.9,0.0,1.0,384.0,999.0,1.0,0,87.0,1
522,522,0.23490572832972878,0.2,0.0,0.0,488.0,970.0,0.0,1,202.0,1
523,523,-0.7814484200475844,-0.8,0.0,1.0,253.0,554.0,1.0,0,263.0,1
524,524,-0.04893312928789817,-0.0,1.0,0.0,258.0,915.0,0.0,0,237.0,1
525,525,-0.4149167551527591,-0.4,1.0,0.0,493.0,691.0,0.0,0,176.0,1
526,526,-0.4348234767288419,-0.4,0.0,1.0,379.0,738.0,1.0,0,373.0,1
527,527,0.2807088017102076,0.3,0.0,0.0,349.0,659.0,0.0,1,352.0,1
528,528,0.7554532983616299,0.8,0.0,0.0,368.0,521.0,0.0,1,261.0,1
529,529,0.7597564449457291,0.8,0.0,0.0,294.0,528.0,0.0,1,178.0,1
530,530,0.09006448249816934,0.1,1.0,1.0,376.0,715.0,1.0,1,1009.0,1
531,531,-0.4422749323817082,-0.4,0.0,1.0,464.0,792.0,1.0,0,224.0,1
532,532,-0.4451668324415046,-0.4,1.0,0.0,463.0,807.0,0.0,0,150.0,1
533,533,0.7965752789710311,0.8,0.0,0.0,397.0,785.0,0.0,1,178.0,1
534,534,0.5170338541236771,0.5,0.0,0.0,410.0,640.0,0.0,1,160.0,1
535,535,0.4405237435668118,0.4,1.0,1.0,379.0,819.0,1.0,1,212.0,1
536,536,0.7337175977674845,0.7,1.0,1.0,292.0,562.0,1.0,1,136.0,1
537,537,0.47655850389787424,0.5,1.0,1.0,423.0,744.0,1.0,1,303.0,1
538,538,-0.6137764948522744,-0.6,0.0,1.0,304.0,645.0,1.0,0,181.0,1
539,539,0.8732870192782444,0.9,1.0,1.0,447.0,842.0,1.0,1,121.0,1
540,540,-0.1483619400737639,-0.1,0.0,1.0,290.0,520.0,1.0,0,690.0,1
541,541,0.8063843484892216,0.8,1.0,1.0,484.0,967.0,0.0,0,-61.0,0
542,542,-0.7356191320394948,-0.7,0.0,1.0,443.0,986.0,1.0,0,91.0,1
543,543,-0.4912494710414755,-0.5,1.0,0.0,477.0,816.0,0.0,0,247.0,1
544,544,0.8066081779164817,0.8,1.0,1.0,287.0,901.0,1.0,1,142.0,1
545,545,-0.5594007979739761,-0.6,1.0,0.0,317.0,960.0,0.0,0,73.0,1
546,546,-0.6924007396725099,-0.7,1.0,0.0,298.0,879.0,0.0,0,163.0,1
547,547,0.27640919586604984,0.3,0.0,0.0,293.0,629.0,0.0,1,348.0,1
548,548,-0.8306589586143162,-0.8,1.0,0.0,262.0,834.0,0.0,0,44.0,1
549,549,0.37869190203758885,0.4,0.0,0.0,387.0,739.0,0.0,1,174.0,1
550,550,-0.620383189504969,-0.6,1.0,0.0,382.0,982.0,0.0,0,86.0,1
551,551,0.21275693337250445,0.2,0.0,0.0,441.0,718.0,0.0,1,241.0,1
552,552,-0.42372680390919654,-0.4,0.0,1.0,320.0,647.0,1.0,0,223.0,1
553,553,-0.15917875828335015,-0.2,1.0,0.0,349.0,618.0,0.0,0,393.0,1
554,554,0.22884107650643493,0.2,0.0,0.0,341.0,977.0,0.0,1,492.0,1
555,555,-0.7270698377423821,-0.7,0.0,1.0,433.0,772.0,1.0,0,135.0,1
556,556,-0.23528924939866014,-0.2,0.0,1.0,334.0,945.0,1.0,0,331.0,1
557,557,-0.05060180571201611,-0.1,1.0,0.0,307.0,932.0,0.0,0,161.0,1
558,558,-0.3833407794367173,-0.4,1.0,0.0,299.0,520.0,0.0,0,231.0,1
559,559,-0.7420539303536522,-0.7,0.0,1.0,445.0,598.0,1.0,0,147.0,1
560,560,0.12045654362875136,0.1,0.0,0.0,409.0,897.0,0.0,1,154.0,1
561,561,-0.09213345615507817,-0.1,1.0,0.0,258.0,500.0,0.0,0,562.0,1
562,562,0.36063174884234683,0.4,1.0,1.0,495.0,831.0,1.0,1,294.0,1
563,563,-0.8199842865271986,-0.8,0.0,1.0,279.0,671.0,1.0,0,180.0,1
564,564,-0.43020628146795836,-0.4,0.0,1.0,416.0,947.0,1.0,0,447.0,1
565,565,-0.09283689076773305,-0.1,1.0,0.0,446.0,505.0,0.0,0,1299.0,1
566,566,-0.021606854248847673,-0.0,1.0,0.0,476.0,558.0,0.0,0,766.0,1
567,567,0.436284698781611,0.4,1.0,1.0,496.0,584.0,1.0,1,260.0,1
568,568,-0.35437690281378376,-0.4,1.0,0.0,405.0,590.0,0.0,0,285.0,1
569,569,0.5884537348465951,0.6,0.0,0.0,442.0,807.0,0.0,1,61.0,1
570,570,0.8390108597119029,0.8,1.0,1.0,414.0,744.0,1.0,1,202.0,1
571,571,0.06994386621219173,0.1,1.0,1.0,312.0,797.0,1.0,1,671.0,1
572,572,0.2404394277769587,0.2,0.0,0.0,299.0,621.0,0.0,1,260.0,1
573,573,-0.05675938179430973,-0.1,0.0,1.0,328.0,772.0,1.0,0,1040.0,1
574,574,0.3952248003766027,0.4,1.0,1.0,274.0,781.0,1.0,1,65.0,1
575,575,0.877879123055077,0.9,0.0,0.0,485.0,757.0,0.0,1,68.0,1
576,576,0.6402615733688121,0.6,0.0,0.0,315.0,727.0,0.0,1,218.0,1
577,577,-0.656764421410753,-0.7,0.0,1.0,287.0,670.0,1.0,0,153.0,1
578,578,0.593151419951064,0.6,0.0,0.0,409.0,537.0,0.0,1,244.0,1
579,579,-0.15197197341922286,-0.2,1.0,0.0,403.0,892.0,0.0,0,155.0,1
580,580,-0.659937427727283,-0.7,1.0,0.0,490.0,940.0,0.0,0,130.0,1
581,581,-0.5024471770073573,-0.5,1.0,0.0,393.0,526.0,0.0,0,241.0,1
582,582,-0.45905129461964245,-0.5,1.0,0.0,435.0,632.0,0.0,0,213.0,1
583,583,0.2394816946779591,0.2,0.0,0.0,356.0,847.0,0.0,1,177.0,1
584,584,0.5172727874215083,0.5,1.0,1.0,487.0,967.0,1.0,1,166.0,1
585,585,-0.7339303872144665,-0.7,0.0,1.0,337.0,709.0,1.0,0,194.0,1
586,586,-0.004110353215661222,-0.0,1.0,0.0,438.0,701.0,0.0,0,611.0,1
587,587,-0.8003221238755707,-0.8,1.0,0.0,378.0,580.0,0.0,0,242.0,1
588,588,-0.3187708969007442,-0.3,1.0,0.0,436.0,900.0,0.0,0,214.0,1
589,589,-0.3583750599131419,-0.4,1.0,0.0,498.0,576.0,0.0,0,366.0,1
590,590,-0.6127528987425881,-0.6,0.0,1.0,283.0,954.0,1.0,0,73.0,1
591,591,-0.1976069428547712,-0.2,1.0,0.0,387.0,893.0,0.0,0,90.0,1
592,592,-0.7158563138844475,-0.7,1.0,0.0,332.0,643.0,0.0,0,225.0,1
593,593,0.39679782147583176,0.4,1.0,1.0,306.0,614.0,1.0,1,300.0,1
594,594,0.48988590217337735,0.5,0.0,0.0,256.0,724.0,0.0,1,160.0,1
595,595,-0.8153794947220977,-0.8,0.0,1.0,406.0,587.0,1.0,0,237.0,1
596,596,0.6770429907512262,0.7,1.0,1.0,341.0,569.0,1.0,1,200.0,1
597,597,-0.3621775245686393,-0.4,0.0,1.0,400.0,684.0,1.0,0,356.0,1
598,598,-0.3048467057656794,-0.3,0.0,1.0,427.0,775.0,1.0,0,158.0,1
599,599,-0.1573273238593419,-0.2,1.0,0.0,435.0,549.0,0.0,0,336.0,1
600,600,0.5454176242807195,0.5,0.0,0.0,278.0,957.0,0.0,1,105.0,1
601,601,-0.4913147580044439,-0.5,0.0,1.0,344.0,603.0,1.0,0,203.0,1
602,602,-0.3532827025660884,-0.4,0.0,1.0,291.0,812.0,1.0,0,197.0,1
603,603,0.8262558113797535,0.8,0.0,0.0,448.0,650.0,0.0,1,222.0,1
604,604,0.059973539629958106,0.1,0.0,0.0,438.0,797.0,0.0,1,465.0,1
605,605,-0.7093624301378573,-0.7,1.0,0.0,251.0,537.0,0.0,0,182.0,1
606,606,0.5929944342446288,0.6,0.0,0.0,337.0,819.0,0.0,1,224.0,1
607,607,0.7682172545990696,0.8,1.0,1.0,257.0,793.0,1.0,1,90.0,1
608,608,0.7041972413326968,0.7,1.0,1.0,458.0,551.0,1.0,1,431.0,1
609,609,-0.047506101679349655,-0.0,1.0,0.0,413.0,507.0,0.0,0,700.0,1
610,610,-0.5859238844349717,-0.6,1.0,0.0,308.0,520.0,0.0,0,252.0,1
611,611,0.40052683140903833,0.4,1.0,1.0,282.0,960.0,1.0,1,18.0,1
612,612,-0.8901233317529785,-0.9,0.0,1.0,312.0,660.0,1.0,0,258.0,1
613,613,-0.7577004017790396,-0.8,1.0,0.0,280.0,620.0,0.0,0,250.0,1
614,614,-0.6298990396586894,-0.6,1.0,0.0,428.0,594.0,0.0,0,168.0,1
615,615,-0.57525346848971,-0.6,0.0,1.0,416.0,979.0,1.0,0,145.0,1
616,616,-0.528546574652203,-0.5,0.0,1.0,400.0,692.0,1.0,0,218.0,1
617,617,-0.653824322418879,-0.7,1.0,0.0,356.0,584.0,0.0,0,230.0,1
618,618,-0.3159636008893947,-0.3,0.0,1.0,324.0,933.0,1.0,0,753.0,1
619,619,-0.8109816277541219,-0.8,1.0,0.0,336.0,957.0,0.0,0,17.0,1
620,620,-0.12188705735679461,-0.1,1.0,0.0,281.0,720.0,0.0,0,109.0,1
621,621,-0.5593929998708111,-0.6,1.0,0.0,366.0,774.0,0.0,0,220.0,1
622,622,0.3709890680429285,0.4,0.0,0.0,263.0,765.0,0.0,1,82.0,1
623,623,-0.8922041305603636,-0.9,0.0,1.0,391.0,716.0,1.0,0,153.0,1
624,624,0.18184880595183206,0.2,1.0,1.0,424.0,977.0,1.0,1,509.0,1
625,625,-0.38951269226243823,-0.4,1.0,0.0,322.0,811.0,0.0,0,107.0,1
626,626,0.4231367955843147,0.4,1.0,1.0,283.0,774.0,1.0,1,323.0,1
627,627,-0.19128552144497435,-0.2,0.0,1.0,257.0,713.0,1.0,0,300.0,1
628,628,0.8423768111155024,0.8,1.0,1.0,468.0,744.0,1.0,1,188.0,1
629,629,0.4073757542483901,0.4,1.0,1.0,387.0,804.0,1.0,1,279.0,1
630,630,-0.15574404986077683,-0.2,0.0,1.0,305.0,707.0,1.0,0,288.0,1
631,631,-0.6162665805549228,-0.6,0.0,1.0,399.0,603.0,1.0,0,108.0,1
632,632,-0.11966324642411263,-0.1,1.0,0.0,363.0,956.0,0.0,0,461.0,1
633,633,0.07847468160714022,0.1,0.0,0.0,276.0,970.0,0.0,1,304.0,1
634,634,-0.19699146447835536,-0.2,1.0,0.0,470.0,926.0,0.0,0,114.0,1
635,635,0.47717039304660236,0.5,1.0,1.0,349.0,630.0,1.0,1,351.0,1
636,636,0.7453129146606811,0.7,0.0,0.0,411.0,718.0,0.0,1,291.0,1
637,637,0.41148987172986795,0.4,1.0,1.0,353.0,727.0,1.0,1,260.0,1
638,638,-0.6031436367732836,-0.6,1.0,0.0,329.0,587.0,0.0,0,324.0,1
639,639,0.12352206730922954,0.1,0.0,0.0,414.0,633.0,0.0,1,283.0,1
640,640,-0.34596957456632205,-0.3,0.0,1.0,449.0,652.0,1.0,0,439.0,1
641,641,0.6411412624016909,0.6,0.0,0.0,420.0,902.0,0.0,1,28.0,1
642,642,0.3588647420312526,0.4,0.0,0.0,452.0,784.0,0.0,1,104.0,1
643,643,-0.23238054410698183,-0.2,0.0,1.0,487.0,925.0,1.0,0,128.0,1
644,644,0.5502049588734538,0.6,0.0,0.0,276.0,578.0,0.0,1,256.0,1
645,645,0.4284904308044456,0.4,0.0,0.0,390.0,908.0,0.0,1,322.0,1
646,646,-0.29530247821838307,-0.3,1.0,0.0,467.0,837.0,0.0,0,286.0,1
647,647,-0.08800542456480731,-0.1,0.0,1.0,408.0,704.0,1.0,0,198.0,1
648,648,0.15010906606012397,0.2,0.0,0.0,357.0,568.0,0.0,1,435.0,1
649,649,0.3976807743033718,0.4,0.0,0.0,443.0,910.0,0.0,1,197.0,1
650,650,0.7486244946030204,0.7,1.0,1.0,362.0,532.0,1.0,1,276.0,1
651,651,0.18280739235391363,0.2,1.0,1.0,392.0,723.0,1.0,1,575.0,1
652,652,0.11069455476161172,0.1,1.0,1.0,430.0,567.0,1.0,1,523.0,1
653,653,-0.1504503869552405,-0.2,1.0,0.0,387.0,578.0,0.0,0,485.0,1
654,654,0.005775376178298597,0.0,1.0,1.0,374.0,609.0,0.0,0,697.0,0
655,655,0.1922343256764013,0.2,1.0,1.0,426.0,695.0,1.0,1,249.0,1
656,656,0.0038986792993233044,0.0,0.0,0.0,429.0,707.0,1.0,0,1214.0,0
657,657,-0.47933425292664716,-0.5,0.0,1.0,483.0,757.0,1.0,0,190.0,1
658,658,0.6516172987732142,0.7,0.0,0.0,483.0,645.0,0.0,1,172.0,1
659,659,-0.01762744527722082,-0.0,1.0,0.0,255.0,507.0,0.0,0,1478.0,1
660,660,0.4648113171474034,0.5,0.0,0.0,387.0,817.0,0.0,1,206.0,1
661,661,-0.7665212847835382,-0.8,1.0,0.0,423.0,746.0,0.0,0,221.0,1
662,662,-0.1373578628114719,-0.1,0.0,1.0,415.0,825.0,1.0,0,380.0,1
663,663,-0.6214256075339724,-0.6,0.0,1.0,254.0,850.0,1.0,0,126.0,1
664,664,0.6424594659101451,0.6,0.0,0.0,462.0,628.0,0.0,1,270.0,1
665,665,-0.476067611335682,-0.5,1.0,0.0,335.0,549.0,0.0,0,266.0,1
666,666,-0.23470574987830628,-0.2,0.0,1.0,373.0,912.0,1.0,0,185.0,1
667,667,0.28371379291649734,0.3,1.0,1.0,343.0,548.0,1.0,1,339.0,1
668,668,-0.3881186788764921,-0.4,1.0,0.0,466.0,509.0,0.0,0,285.0,1
669,669,0.11579584861207792,0.1,1.0,1.0,295.0,715.0,1.0,1,600.0,1
670,670,-0.6841409741288775,-0.7,0.0,1.0,335.0,618.0,1.0,0,237.0,1
671,671,-0.5062507554244772,-0.5,1.0,0.0,301.0,743.0,0.0,0,196.0,1
672,672,0.7858530323615415,0.8,0.0,0.0,378.0,568.0,0.0,1,234.0,1
673,673,-0.19074854374191597,-0.2,1.0,0.0,476.0,914.0,0.0,0,190.0,1
674,674,-0.8721929320805193,-0.9,1.0,0.0,472.0,875.0,0.0,0,103.0,1
675,675,0.6514549402388475,0.7,0.0,0.0,329.0,835.0,0.0,1,86.0,1
676,676,-0.02746777381397114,-0.0,1.0,0.0,386.0,992.0,0.0,0,562.0,1
677,677,0.3564567013891936,0.4,0.0,0.0,364.0,940.0,0.0,1,326.0,1
678,678,-0.06946370003308011,-0.1,1.0,0.0,332.0,695.0,0.0,0,353.0,1
679,679,0.24474858358335816,0.2,1.0,1.0,320.0,879.0,1.0,1,161.0,1
680,680,-0.08808627371753575,-0.1,0.0,1.0,310.0,802.0,1.0,0,978.0,1
681,681,0.6488457251582546,0.6,1.0,1.0,427.0,500.0,1.0,1,253.0,1
682,682,-0.7360958203366994,-0.7,1.0,0.0,426.0,906.0,0.0,0,88.0,1
683,683,0.7338018597869788,0.7,1.0,1.0,317.0,925.0,1.0,1,98.0,1
684,684,0.7101206337650309,0.7,1.0,1.0,445.0,920.0,1.0,1,105.0,1
685,685,-0.009654438871020576,-0.0,1.0,0.0,402.0,857.0,0.0,0,1741.0,1
686,686,0.5266107196668214,0.5,0.0,0.0,286.0,729.0,0.0,1,225.0,1
687,687,-0.6268410720751978,-0.6,0.0,1.0,290.0,556.0,1.0,0,174.0,1
688,688,-0.8326096714836376,-0.8,0.0,1.0,489.0,564.0,1.0,0,287.0,1
689,689,0.27807004372552246,0.3,0.0,0.0,440.0,696.0,0.0,1,314.0,1
690,690,-0.09523543720950944,-0.1,0.0,1.0,432.0,600.0,1.0,0,568.0,1
691,691,0.5030842957022398,0.5,1.0,1.0,323.0,641.0,1.0,1,326.0,1
692,692,-0.4688297194822718,-0.5,1.0,0.0,372.0,750.0,0.0,0,158.0,1
693,693,-0.33691122199622314,-0.3,0.0,1.0,370.0,863.0,1.0,0,207.0,1
694,694,0.42805967187827687,0.4,0.0,0.0,296.0,759.0,0.0,1,225.0,1
695,695,0.8675987739026273,0.9,1.0,1.0,457.0,889.0,1.0,1,84.0,1
696,696,0.8109045885153655,0.8,0.0,0.0,385.0,665.0,0.0,1,250.0,1
697,697,-0.4033196463189333,-0.4,1.0,0.0,392.0,815.0,0.0,0,263.0,1
698,698,-0.7539433134276889,-0.8,0.0,1.0,284.0,524.0,1.0,0,292.0,1
699,699,-0.3278991985634807,-0.3,1.0,0.0,305.0,509.0,0.0,0,346.0,1
700,700,0.545938497376058,0.5,1.0,1.0,342.0,932.0,1.0,1,146.0,1
701,701,-0.6109848477333424,-0.6,1.0,0.0,417.0,771.0,0.0,0,202.0,1
702,702,0.23716346255826626,0.2,0.0,0.0,473.0,970.0,0.0,1,177.0,1
703,703,-0.8180724070933453,-0.8,0.0,1.0,297.0,794.0,1.0,0,209.0,1
704,704,0.871717358277139,0.9,0.0,0.0,259.0,567.0,0.0,1,304.0,1
705,705,0.8803490008672542,0.9,1.0,1.0,341.0,734.0,1.0,1,155.0,1
706,706,0.194158344662143,0.2,1.0,1.0,268.0,676.0,1.0,1,766.0,1
707,707,0.20632207050193274,0.2,0.0,0.0,456.0,975.0,0.0,1,579.0,1
708,708,0.08608136495286556,0.1,0.0,0.0,372.0,821.0,0.0,1,307.0,1
709,709,0.41406451286401735,0.4,1.0,1.0,449.0,889.0,1.0,1,142.0,1
710,710,0.43303692280867623,0.4,0.0,0.0,421.0,594.0,0.0,1,395.0,1
711,711,-0.7460862633559233,-0.7,1.0,0.0,384.0,909.0,0.0,0,87.0,1
712,712,-0.680161029413973,-0.7,0.0,1.0,402.0,665.0,1.0,0,193.0,1
713,713,0.4280631091658841,0.4,0.0,0.0,362.0,920.0,0.0,1,68.0,1
714,714,-0.12934442003235014,-0.1,0.0,1.0,422.0,871.0,1.0,0,167.0,1
715,715,-0.5166143453326468,-0.5,0.0,1.0,364.0,946.0,1.0,0,180.0,1
716,716,-0.44982416193115754,-0.4,0.0,1.0,422.0,501.0,1.0,0,457.0,1
717,717,-0.566537793081741,-0.6,1.0,0.0,354.0,833.0,0.0,0,163.0,1
718,718,-0.7491834472856724,-0.7,1.0,0.0,399.0,915.0,0.0,0,76.0,1
719,719,0.2543313868177629,0.3,1.0,1.0,424.0,708.0,1.0,1,118.0,1
720,720,0.5718312650538869,0.6,0.0,0.0,373.0,555.0,0.0,1,242.0,1
721,721,0.220154816409453,0.2,0.0,0.0,396.0,994.0,0.0,1,250.0,1
722,722,-0.22563234249263975,-0.2,0.0,1.0,305.0,943.0,1.0,0,332.0,1
723,723,-0.8121157353125464,-0.8,1.0,0.0,373.0,986.0,0.0,0,41.0,1
724,724,0.7600339155985044,0.8,0.0,0.0,403.0,651.0,0.0,1,136.0,1
725,725,-0.33975313088199244,-0.3,0.0,1.0,499.0,869.0,1.0,0,212.0,1
726,726,-0.11929943683572752,-0.1,1.0,0.0,497.0,683.0,0.0,0,240.0,1
727,727,0.17295304148648538,0.2,1.0,1.0,285.0,988.0,1.0,1,227.0,1
728,728,0.6469368323433727,0.6,0.0,0.0,404.0,699.0,0.0,1,227.0,1
729,729,-0.2875289249399997,-0.3,0.0,1.0,297.0,965.0,0.0,1,-92.0,0
730,730,-0.6756633812214963,-0.7,1.0,0.0,295.0,601.0,0.0,0,274.0,1
731,731,-0.747514701591029,-0.7,0.0,1.0,352.0,806.0,1.0,0,172.0,1
732,732,-0.5805178308101302,-0.6,0.0,1.0,309.0,874.0,1.0,0,87.0,1
733,733,-0.8454136872799385,-0.8,0.0,1.0,269.0,525.0,1.0,0,326.0,1
734,734,-0.034810177025435096,-0.0,1.0,0.0,423.0,797.0,0.0,0,610.0,1
735,735,0.5029602085244634,0.5,0.0,0.0,362.0,950.0,0.0,1,88.0,1
736,736,-0.3128656554986734,-0.3,1.0,0.0,400.0,967.0,0.0,0,93.0,1
737,737,0.897127135152275,0.9,0.0,0.0,355.0,547.0,0.0,1,268.0,1
738,738,0.25398369584369174,0.3,1.0,1.0,342.0,554.0,1.0,1,254.0,1
739,739,0.27756433768208144,0.3,1.0,1.0,343.0,916.0,1.0,1,161.0,1
740,740,-0.8783814557794538,-0.9,0.0,1.0,411.0,801.0,1.0,0,188.0,1
741,741,0.1617753918647732,0.2,1.0,1.0,374.0,570.0,1.0,1,466.0,1
742,742,0.2436506895760583,0.2,0.0,0.0,300.0,873.0,0.0,1,347.0,1
743,743,-0.6877169125981968,-0.7,0.0,1.0,345.0,615.0,1.0,0,240.0,1
744,744,0.7251773964871034,0.7,1.0,1.0,304.0,810.0,1.0,1,136.0,1
745,745,-0.7127489109765477,-0.7,1.0,0.0,308.0,994.0,0.0,0,118.0,1
746,746,0.7958155822993135,0.8,1.0,1.0,341.0,872.0,1.0,1,67.0,1
747,747,0.11480664426148468,0.1,0.0,0.0,359.0,541.0,0.0,1,440.0,1
748,748,-0.1943857086819104,-0.2,1.0,0.0,359.0,605.0,0.0,0,356.0,1
749,749,-0.6522244571304258,-0.7,0.0,1.0,377.0,509.0,1.0,0,184.0,1
750,750,0.03772389014712596,0.0,1.0,1.0,478.0,899.0,0.0,0,1623.0,0
751,751,0.7937360679080899,0.8,0.0,0.0,332.0,944.0,0.0,1,144.0,1
752,752,0.8272524747047408,0.8,1.0,1.0,395.0,666.0,1.0,1,229.0,1
753,753,0.8400111578615993,0.8,1.0,1.0,272.0,980.0,1.0,1,68.0,1
754,754,0.8843229547628665,0.9,1.0,1.0,466.0,748.0,1.0,1,156.0,1
755,755,0.6584940119364383,0.7,0.0,0.0,319.0,607.0,0.0,1,224.0,1
756,756,0.26711976074809385,0.3,1.0,1.0,417.0,680.0,1.0,1,273.0,1
757,757,-0.3332373955032528,-0.3,0.0,1.0,323.0,953.0,1.0,0,134.0,1
758,758,-0.8137084915720979,-0.8,1.0,0.0,301.0,989.0,0.0,0,230.0,1
759,759,-0.29852314808690694,-0.3,1.0,0.0,299.0,732.0,0.0,0,199.0,1
760,760,0.5395222185179714,0.5,1.0,1.0,494.0,768.0,1.0,1,118.0,1
761,761,-0.12721047811436037,-0.1,1.0,0.0,360.0,501.0,0.0,0,459.0,1
762,762,-0.13558816319854383,-0.1,0.0,1.0,397.0,634.0,1.0,0,429.0,1
763,763,-0.6493429964501258,-0.6,1.0,0.0,251.0,880.0,0.0,0,89.0,1
764,764,-0.6389334991680184,-0.6,1.0,0.0,264.0,677.0,0.0,0,199.0,1
765,765,-0.24013945374044066,-0.2,1.0,0.0,342.0,674.0,0.0,0,404.0,1
766,766,-0.013034391115395727,-0.0,1.0,0.0,496.0,627.0,0.0,0,747.0,1
767,767,-0.8758771437007742,-0.9,0.0,1.0,318.0,678.0,1.0,0,194.0,1
768,768,0.7511890897715142,0.8,0.0,0.0,392.0,813.0,0.0,1,35.0,1
769,769,0.5281992025855436,0.5,1.0,1.0,364.0,933.0,1.0,1,153.0,1
770,770,0.23659694822866884,0.2,0.0,0.0,421.0,857.0,0.0,1,232.0,1
771,771,0.8913071417658981,0.9,0.0,0.0,275.0,587.0,0.0,1,198.0,1
772,772,-0.3075193773825512,-0.3,0.0,1.0,330.0,762.0,1.0,0,258.0,1
773,773,0.19992880079140696,0.2,1.0,1.0,283.0,871.0,1.0,1,266.0,1
774,774,0.7661025635392148,0.8,1.0,1.0,337.0,683.0,1.0,1,90.0,1
775,775,-0.6245276840884634,-0.6,0.0,1.0,281.0,922.0,1.0,0,47.0,1
776,776,-0.10661031014895705,-0.1,1.0,0.0,327.0,945.0,0.0,0,138.0,1
777,777,-0.6395217445703462,-0.6,0.0,1.0,328.0,938.0,1.0,0,144.0,1
778,778,-0.4897918312269004,-0.5,1.0,0.0,446.0,850.0,0.0,0,154.0,1
779,779,0.449802031598424,0.4,0.0,0.0,336.0,510.0,0.0,1,194.0,1
780,780,-0.772228794216605,-0.8,1.0,0.0,298.0,826.0,0.0,0,106.0,1
781,781,-0.06056893774382632,-0.1,1.0,0.0,488.0,968.0,1.0,1,1544.0,0
782,782,0.2408622568008888,0.2,1.0,1.0,448.0,792.0,1.0,1,220.0,1
783,783,-0.1959745275128747,-0.2,0.0,1.0,390.0,571.0,1.0,0,519.0,1
784,784,0.391166863774712,0.4,0.0,0.0,451.0,750.0,0.0,1,189.0,1
785,785,-0.6196767300801276,-0.6,1.0,0.0,349.0,563.0,0.0,0,158.0,1
786,786,-0.5516757634323228,-0.6,0.0,1.0,486.0,615.0,1.0,0,209.0,1
787,787,-0.6766782153978781,-0.7,0.0,1.0,387.0,776.0,1.0,0,177.0,1
788,788,-0.04261640223630425,-0.0,1.0,0.0,473.0,613.0,0.0,0,564.0,1
789,789,-0.5024884672055432,-0.5,0.0,1.0,370.0,851.0,1.0,0,119.0,1
790,790,-0.07106128919208321,-0.1,1.0,0.0,330.0,699.0,0.0,0,561.0,1
791,791,0.5921551258117564,0.6,1.0,1.0,308.0,714.0,1.0,1,338.0,1
792,792,0.5159730770834684,0.5,0.0,0.0,267.0,871.0,0.0,1,222.0,1
793,793,0.23541460339292664,0.2,0.0,0.0,438.0,699.0,0.0,1,293.0,1
794,794,-0.7580106331495262,-0.8,1.0,0.0,356.0,637.0,0.0,0,147.0,1
795,795,0.15530071325606454,0.2,0.0,0.0,381.0,946.0,0.0,1,403.0,1
796,796,0.5867676838236556,0.6,0.0,0.0,472.0,750.0,0.0,1,68.0,1
797,797,0.8166678648704037,0.8,1.0,1.0,399.0,751.0,1.0,1,140.0,1
798,798,0.6946574914649196,0.7,1.0,1.0,294.0,802.0,1.0,1,124.0,1
799,799,0.26589649381513103,0.3,0.0,0.0,291.0,658.0,0.0,1,181.0,1
800,800,0.7660976430921048,0.8,0.0,0.0,382.0,903.0,0.0,1,115.0,1
801,801,-0.6260357667535035,-0.6,1.0,0.0,370.0,635.0,0.0,0,245.0,1
802,802,-0.18576530207628072,-0.2,0.0,1.0,401.0,533.0,1.0,0,346.0,1
803,803,-0.2753376195437911,-0.3,0.0,1.0,369.0,538.0,1.0,0,293.0,1
804,804,0.4901942683187318,0.5,0.0,0.0,280.0,810.0,0.0,1,140.0,1
805,805,0.038515169140093675,0.0,1.0,1.0,312.0,832.0,1.0,1,1856.0,1
806,806,0.8312341437600653,0.8,1.0,1.0,294.0,752.0,1.0,1,144.0,1
807,807,-0.5450766889091851,-0.5,1.0,0.0,416.0,822.0,0.0,0,82.0,1
808,808,-0.6693245299558905,-0.7,0.0,1.0,442.0,547.0,1.0,0,531.0,1
809,809,0.533513392664071,0.5,0.0,0.0,356.0,560.0,0.0,1,314.0,1
810,810,-0.25633787260980045,-0.3,0.0,1.0,274.0,850.0,1.0,0,206.0,1
811,811,0.2517874125306899,0.3,0.0,0.0,319.0,965.0,0.0,1,486.0,1
812,812,0.1872633349836067,0.2,1.0,1.0,250.0,604.0,1.0,1,696.0,1
813,813,0.2505703504596085,0.3,0.0,0.0,386.0,855.0,0.0,1,109.0,1
814,814,-0.783546532864819,-0.8,1.0,0.0,411.0,592.0,0.0,0,177.0,1
815,815,-0.4026832646436346,-0.4,1.0,0.0,387.0,837.0,0.0,0,216.0,1
816,816,0.8369769853791639,0.8,1.0,1.0,460.0,554.0,1.0,1,376.0,1
817,817,0.44219618712629816,0.4,1.0,1.0,382.0,969.0,1.0,1,169.0,1
818,818,-0.615733750329809,-0.6,1.0,0.0,407.0,734.0,0.0,0,239.0,1
819,819,-0.48317005785653927,-0.5,0.0,1.0,313.0,597.0,1.0,0,640.0,1
820,820,-0.35446470807067654,-0.4,0.0,1.0,473.0,718.0,1.0,0,309.0,1
821,821,-0.30549601124804426,-0.3,1.0,0.0,422.0,622.0,0.0,0,236.0,1
822,822,-0.7881630848561193,-0.8,0.0,1.0,475.0,746.0,1.0,0,349.0,1
823,823,0.07216079221041616,0.1,1.0,1.0,438.0,544.0,1.0,1,638.0,1
824,824,0.6809218251640735,0.7,1.0,1.0,449.0,716.0,1.0,1,145.0,1
825,825,-0.01354359253796189,-0.0,0.0,1.0,445.0,912.0,1.0,0,1643.0,1
826,826,0.24451720289131662,0.2,0.0,0.0,412.0,505.0,0.0,1,483.0,1
827,827,-0.14374077784901806,-0.1,0.0,1.0,440.0,813.0,1.0,0,307.0,1
828,828,0.23190564520620416,0.2,0.0,0.0,349.0,696.0,0.0,1,245.0,1
829,829,0.5965664643180003,0.6,0.0,0.0,400.0,650.0,0.0,1,100.0,1
830,830,-0.8319541349711698,-0.8,0.0,1.0,430.0,615.0,1.0,0,295.0,1
831,831,-0.5723195128826749,-0.6,1.0,0.0,271.0,771.0,0.0,0,188.0,1
832,832,0.5811940440207487,0.6,1.0,1.0,332.0,900.0,0.0,0,-132.0,0
833,833,-0.33274349052184293,-0.3,0.0,1.0,361.0,623.0,1.0,0,256.0,1
834,834,-0.31966620023665737,-0.3,1.0,0.0,298.0,774.0,0.0,0,108.0,1
835,835,0.7509611600152807,0.8,0.0,0.0,324.0,746.0,0.0,1,200.0,1
836,836,0.5326756596994989,0.5,0.0,0.0,494.0,890.0,0.0,1,146.0,1
837,837,0.1486154716552074,0.1,1.0,1.0,293.0,715.0,1.0,1,312.0,1
838,838,0.6281361107058833,0.6,0.0,0.0,285.0,965.0,0.0,1,150.0,1
839,839,0.41397092492488297,0.4,1.0,1.0,469.0,883.0,1.0,1,228.0,1
840,840,-0.6273622289114305,-0.6,1.0,0.0,274.0,672.0,0.0,0,404.0,1
841,841,0.8491610981249739,0.8,1.0,1.0,351.0,569.0,1.0,1,300.0,1
842,842,-0.8867502641458848,-0.9,0.0,1.0,420.0,554.0,1.0,0,156.0,1
843,843,-0.08676881228593558,-0.1,0.0,1.0,361.0,978.0,1.0,0,1101.0,1
844,844,-0.7866920431970941,-0.8,1.0,0.0,270.0,819.0,0.0,0,101.0,1
845,845,0.7264711334183417,0.7,0.0,0.0,357.0,606.0,0.0,1,197.0,1
846,846,0.44903112174469484,0.4,0.0,0.0,444.0,794.0,0.0,1,102.0,1
847,847,-0.058209713795781104,-0.1,1.0,0.0,392.0,728.0,0.0,0,1170.0,1
848,848,-0.03927432248491669,-0.0,0.0,1.0,370.0,666.0,1.0,0,844.0,1
849,849,-0.054937094752404714,-0.1,0.0,1.0,273.0,982.0,0.0,1,25.0,0
850,850,-0.7030878574966297,-0.7,1.0,0.0,475.0,545.0,0.0,0,290.0,1
851,851,-0.24020123851947228,-0.2,1.0,0.0,386.0,827.0,0.0,0,147.0,1
852,852,0.6824026815351459,0.7,1.0,1.0,269.0,623.0,1.0,1,308.0,1
853,853,-0.8510132964683976,-0.9,1.0,0.0,403.0,769.0,0.0,0,108.0,1
854,854,-0.09803881432836614,-0.1,0.0,1.0,258.0,586.0,1.0,0,236.0,1
855,855,0.2745964271086493,0.3,1.0,1.0,258.0,844.0,1.0,1,188.0,1
856,856,0.6177771394573145,0.6,1.0,1.0,277.0,670.0,1.0,1,213.0,1
857,857,0.059178662083787636,0.1,1.0,1.0,454.0,632.0,1.0,1,1904.0,1
858,858,0.13871776854751483,0.1,0.0,0.0,412.0,992.0,0.0,1,776.0,1
859,859,0.045586875121209736,0.0,0.0,0.0,311.0,534.0,0.0,1,385.0,1
860,860,0.5250796800253775,0.5,1.0,1.0,480.0,651.0,1.0,1,249.0,1
861,861,0.03354911446509612,0.0,0.0,0.0,260.0,685.0,0.0,1,1945.0,1
862,862,0.6724998149489047,0.7,1.0,1.0,475.0,764.0,1.0,1,241.0,1
863,863,0.22793702748523514,0.2,1.0,1.0,449.0,960.0,1.0,1,181.0,1
864,864,-0.5178642031389069,-0.5,1.0,0.0,321.0,623.0,0.0,0,226.0,1
865,865,-0.5072494010194113,-0.5,0.0,1.0,498.0,748.0,1.0,0,154.0,1
866,866,0.7612559521621888,0.8,1.0,1.0,297.0,886.0,1.0,1,177.0,1
867,867,0.1007999444615243,0.1,0.0,0.0,368.0,845.0,0.0,1,277.0,1
868,868,0.8838531560653021,0.9,0.0,0.0,410.0,977.0,0.0,1,123.0,1
869,869,0.07627051903023063,0.1,1.0,1.0,462.0,989.0,1.0,1,639.0,1
870,870,-0.06439788830875037,-0.1,1.0,0.0,306.0,987.0,0.0,0,1497.0,1
871,871,-0.2626017077556544,-0.3,1.0,0.0,374.0,777.0,0.0,0,199.0,1
872,872,-0.2633774259217099,-0.3,1.0,0.0,438.0,950.0,0.0,0,132.0,1
873,873,-0.7994535761499959,-0.8,1.0,0.0,252.0,853.0,0.0,0,155.0,1
874,874,0.8802602208605897,0.9,0.0,0.0,275.0,677.0,0.0,1,158.0,1
875,875,0.3394931118110617,0.3,1.0,1.0,461.0,914.0,1.0,1,55.0,1
876,876,0.5223030055105616,0.5,0.0,0.0,459.0,887.0,0.0,1,164.0,1
877,877,-0.029572701606733198,-0.0,1.0,0.0,336.0,727.0,0.0,0,387.0,1
878,878,0.7038941949726553,0.7,0.0,0.0,407.0,564.0,0.0,1,269.0,1
879,879,0.5693068274566887,0.6,0.0,0.0,381.0,627.0,0.0,1,182.0,1
880,880,0.05984621409118018,0.1,0.0,0.0,303.0,805.0,0.0,1,152.0,1
881,881,-0.08342129280138966,-0.1,0.0,1.0,462.0,920.0,1.0,0,1618.0,1
882,882,-0.24719768855056645,-0.2,0.0,1.0,459.0,744.0,1.0,0,407.0,1
883,883,-0.7356147260771613,-0.7,1.0,0.0,299.0,945.0,0.0,0,46.0,1
884,884,-0.29657575767393685,-0.3,0.0,1.0,273.0,583.0,1.0,0,224.0,1
885,885,0.3252912012450594,0.3,0.0,0.0,414.0,523.0,0.0,1,283.0,1
886,886,-0.005777762227574312,-0.0,0.0,1.0,360.0,872.0,1.0,0,-82.0,1
887,887,-0.34022086930431295,-0.3,0.0,1.0,399.0,524.0,1.0,0,277.0,1
888,888,-0.11370631960089927,-0.1,0.0,1.0,266.0,706.0,1.0,0,658.0,1
889,889,-0.8909984673652579,-0.9,1.0,0.0,350.0,839.0,0.0,0,121.0,1
890,890,-0.8650430750083458,-0.9,1.0,0.0,465.0,841.0,0.0,0,74.0,1
891,891,-0.8217184077579424,-0.8,1.0,0.0,309.0,689.0,0.0,0,162.0,1
892,892,-0.0365276518983102,-0.0,1.0,0.0,366.0,527.0,0.0,0,1387.0,1
893,893,-0.873489051872698,-0.9,0.0,1.0,335.0,600.0,1.0,0,305.0,1
894,894,0.21036969450034848,0.2,1.0,1.0,328.0,643.0,1.0,1,459.0,1
895,895,-0.19452791899127508,-0.2,0.0,1.0,347.0,902.0,1.0,0,241.0,1
896,896,-0.8699420319322464,-0.9,1.0,0.0,438.0,675.0,0.0,0,207.0,1
897,897,-0.626593321076381,-0.6,1.0,0.0,412.0,702.0,0.0,0,136.0,1
898,898,-0.6945711470754857,-0.7,0.0,1.0,274.0,892.0,1.0,0,84.0,1
899,899,0.5217703642594876,0.5,1.0,1.0,386.0,939.0,1.0,1,75.0,1
900,900,-0.8896236717283595,-0.9,0.0,1.0,371.0,535.0,1.0,0,144.0,1
901,901,-0.704089219336695,-0.7,1.0,0.0,316.0,804.0,0.0,0,90.0,1
902,902,-0.6322610510589222,-0.6,1.0,0.0,475.0,563.0,0.0,0,302.0,1
903,903,0.734723939668693,0.7,0.0,0.0,386.0,662.0,0.0,1,172.0,1
904,904,0.8987872051469471,0.9,1.0,1.0,457.0,844.0,1.0,1,99.0,1
905,905,-0.06219071861967973,-0.1,0.0,1.0,251.0,936.0,1.0,0,463.0,1
906,906,-0.02283107583707189,-0.0,0.0,1.0,374.0,630.0,0.0,1,296.0,0
907,907,0.19144314645418936,0.2,1.0,1.0,412.0,721.0,1.0,1,597.0,1
908,908,-0.5472078825173192,-0.5,1.0,0.0,447.0,870.0,0.0,0,133.0,1
909,909,-0.5742347710316297,-0.6,0.0,1.0,451.0,549.0,1.0,0,310.0,1
910,910,-0.8449503941227365,-0.8,1.0,0.0,425.0,701.0,0.0,0,264.0,1
911,911,0.790175598149132,0.8,1.0,1.0,438.0,621.0,1.0,1,161.0,1
912,912,-0.2334576443905979,-0.2,1.0,0.0,345.0,765.0,0.0,0,210.0,1
913,913,-0.057196600369968986,-0.1,0.0,1.0,251.0,613.0,1.0,0,1286.0,1
914,914,-0.4663125907310792,-0.5,1.0,0.0,256.0,899.0,0.0,0,175.0,1
915,915,-0.4390633712768712,-0.4,0.0,1.0,435.0,906.0,1.0,0,69.0,1
916,916,-0.7969667012600805,-0.8,1.0,0.0,362.0,656.0,0.0,0,132.0,1
917,917,0.7395668452667242,0.7,0.0,0.0,323.0,757.0,0.0,1,170.0,1
918,918,-0.3558256430147132,-0.4,1.0,0.0,267.0,546.0,0.0,0,387.0,1
919,919,-0.30777355848079313,-0.3,0.0,1.0,250.0,650.0,1.0,0,190.0,1
920,920,0.36943300579284,0.4,0.0,0.0,487.0,603.0,0.0,1,170.0,1
921,921,0.023935486537186024,0.0,0.0,0.0,496.0,800.0,0.0,1,224.0,1
922,922,0.6906290892182768,0.7,0.0,0.0,257.0,945.0,0.0,1,158.0,1
923,923,-0.22599881972728364,-0.2,0.0,1.0,364.0,861.0,1.0,0,295.0,1
924,924,0.7911688962435902,0.8,0.0,0.0,332.0,516.0,0.0,1,362.0,1
925,925,-0.6417188572379042,-0.6,0.0,1.0,384.0,974.0,1.0,0,102.0,1
926,926,-0.017877291039664622,-0.0,1.0,0.0,397.0,633.0,0.0,0,610.0,1
927,927,0.493665123764638,0.5,1.0,1.0,389.0,945.0,1.0,1,156.0,1
928,928,-0.2709862018085136,-0.3,1.0,0.0,318.0,823.0,0.0,0,199.0,1
929,929,-0.52339714656618,-0.5,1.0,0.0,299.0,596.0,0.0,0,135.0,1
930,930,0.8390117388869051,0.8,0.0,0.0,311.0,934.0,0.0,1,75.0,1
931,931,-0.2002412315266111,-0.2,1.0,0.0,491.0,544.0,0.0,0,545.0,1
932,932,-0.6720433664797612,-0.7,0.0,1.0,438.0,959.0,1.0,0,103.0,1
933,933,0.3602467218548656,0.4,1.0,1.0,403.0,736.0,1.0,1,201.0,1
934,934,0.8881727580441144,0.9,1.0,1.0,325.0,747.0,1.0,1,178.0,1
935,935,0.07840486999419749,0.1,0.0,0.0,426.0,586.0,0.0,1,278.0,1
936,936,0.07526241691020064,0.1,1.0,1.0,386.0,549.0,1.0,1,595.0,1
937,937,0.3889730018987957,0.4,0.0,0.0,479.0,532.0,0.0,1,399.0,1
938,938,-0.8949703803715128,-0.9,1.0,0.0,349.0,909.0,0.0,0,62.0,1
939,939,0.30035229483961345,0.3,1.0,1.0,406.0,703.0,1.0,1,171.0,1
940,940,-0.3545953725496376,-0.4,0.0,1.0,279.0,976.0,1.0,0,155.0,1
941,941,-0.31734727255076,-0.3,0.0,1.0,468.0,869.0,1.0,0,193.0,1
942,942,0.8724714424282572,0.9,1.0,1.0,387.0,766.0,1.0,1,137.0,1
943,943,-0.22650675669863163,-0.2,1.0,0.0,356.0,640.0,0.0,0,674.0,1
944,944,0.1820700669106533,0.2,1.0,1.0,372.0,541.0,1.0,1,497.0,1
945,945,-0.8608070915987887,-0.9,0.0,1.0,453.0,752.0,1.0,0,415.0,1
946,946,0.5851527981157428,0.6,1.0,1.0,346.0,630.0,1.0,1,124.0,1
947,947,0.021024297128478864,0.0,1.0,1.0,465.0,744.0,0.0,0,491.0,0
948,948,-0.08674714184338139,-0.1,0.0,1.0,465.0,956.0,1.0,0,239.0,1
949,949,0.6105203943500214,0.6,0.0,0.0,493.0,772.0,0.0,1,175.0,1
950,950,0.14522412639729343,0.1,1.0,1.0,383.0,991.0,0.0,0,-294.0,0
951,951,-0.5492051990251237,-0.5,0.0,1.0,258.0,791.0,1.0,0,121.0,1
952,952,0.18872027849113604,0.2,0.0,0.0,402.0,528.0,0.0,1,390.0,1
953,953,0.649625797218259,0.6,0.0,0.0,253.0,526.0,0.0,1,321.0,1
954,954,-0.4129554222170357,-0.4,0.0,1.0,297.0,519.0,1.0,0,204.0,1
955,955,-0.2893886290130864,-0.3,0.0,1.0,354.0,565.0,1.0,0,491.0,1
956,956,0.23107770213045875,0.2,1.0,1.0,291.0,622.0,1.0,1,667.0,1
957,957,0.7001586255500029,0.7,0.0,0.0,461.0,670.0,0.0,1,119.0,1
958,958,0.015409056294921397,0.0,0.0,0.0,348.0,672.0,1.0,0,1980.0,0
959,959,0.6543029835365134,0.7,1.0,1.0,335.0,781.0,1.0,1,174.0,1
960,960,0.25140380682642294,0.3,1.0,1.0,426.0,549.0,1.0,1,335.0,1
961,961,-0.8072840646645666,-0.8,1.0,0.0,387.0,621.0,0.0,0,222.0,1
962,962,0.11542972641978622,0.1,0.0,0.0,356.0,663.0,0.0,1,261.0,1
963,963,-0.15782028434953244,-0.2,1.0,0.0,252.0,780.0,0.0,0,338.0,1
964,964,-0.12193125086806977,-0.1,1.0,0.0,482.0,935.0,0.0,0,53.0,1
965,965,0.7032669285608294,0.7,1.0,1.0,288.0,988.0,1.0,1,74.0,1
966,966,-0.7291390434139836,-0.7,0.0,1.0,472.0,719.0,1.0,0,179.0,1
967,967,0.6815552026911479,0.7,0.0,0.0,254.0,649.0,0.0,1,187.0,1
968,968,0.531967564626232,0.5,0.0,0.0,426.0,804.0,0.0,1,230.0,1
969,969,0.6287758868672452,0.6,1.0,1.0,416.0,715.0,1.0,1,139.0,1
970,970,0.2468043239920833,0.2,1.0,1.0,394.0,784.0,1.0,1,342.0,1
971,971,0.7075313547443659,0.7,1.0,1.0,262.0,704.0,1.0,1,244.0,1
972,972,-0.07999400901522424,-0.1,0.0,1.0,429.0,983.0,0.0,1,468.0,0
973,973,-0.7281781814956166,-0.7,1.0,0.0,460.0,970.0,0.0,0,80.0,1
974,974,-0.0865546253266889,-0.1,1.0,0.0,495.0,510.0,0.0,0,605.0,1
975,975,0.3700302646710466,0.4,1.0,1.0,298.0,819.0,1.0,1,373.0,1
976,976,-0.3633957613721881,-0.4,1.0,0.0,383.0,743.0,0.0,0,154.0,1
977,977,0.38995234310698723,0.4,1.0,1.0,341.0,957.0,1.0,1,82.0,1
978,978,0.07182420290188818,0.1,1.0,1.0,499.0,514.0,1.0,1,1157.0,1
979,979,0.8567918013200065,0.9,1.0,1.0,254.0,656.0,1.0,1,230.0,1
980,980,0.07288260160930626,0.1,1.0,1.0,452.0,755.0,1.0,1,453.0,1
981,981,0.5822594107158156,0.6,1.0,1.0,260.0,956.0,1.0,1,144.0,1
982,982,-0.5784701456434493,-0.6,1.0,0.0,371.0,997.0,0.0,0,222.0,1
983,983,-0.4604464067761061,-0.5,0.0,1.0,250.0,699.0,1.0,0,391.0,1
984,984,0.6344179326328537,0.6,1.0,1.0,388.0,946.0,1.0,1,126.0,1
985,985,-0.5152262635865601,-0.5,0.0,1.0,474.0,657.0,1.0,0,229.0,1
986,986,-0.46094349270801893,-0.5,1.0,0.0,295.0,917.0,0.0,0,78.0,1
987,987,0.14008112260390082,0.1,0.0,0.0,402.0,686.0,0.0,1,552.0,1
988,988,0.5887283400520015,0.6,1.0,1.0,402.0,648.0,1.0,1,270.0,1
989,989,0.5567506780546047,0.6,1.0,1.0,254.0,659.0,1.0,1,337.0,1
990,990,0.3861198475925013,0.4,0.0,0.0,375.0,807.0,0.0,1,218.0,1
991,991,0.6492865757861986,0.6,0.0,0.0,329.0,945.0,0.0,1,86.0,1
992,992,-0.11965170530978442,-0.1,1.0,0.0,273.0,705.0,0.0,0,652.0,1
993,993,-0.5705063643173486,-0.6,0.0,1.0,472.0,633.0,1.0,0,175.0,1
994,994,-0.8092914096741549,-0.8,1.0,0.0,318.0,840.0,0.0,0,102.0,1
995,995,-0.09077126223733722,-0.1,1.0,0.0,251.0,927.0,0.0,0,492.0,1
996,996,0.020848214661230324,0.0,1.0,1.0,375.0,823.0,1.0,1,1802.0,1
997,997,-0.5133681800300381,-0.5,0.0,1.0,318.0,625.0,1.0,0,517.0,1
998,998,-0.08080277105644706,-0.1,1.0,0.0,473.0,613.0,0.0,0,664.0,1
999,999,-0.8271479464751677,-0.8,1.0,0.0,315.0,758.0,0.0,0,127.0,1
1000,1000,-0.2610008664594329,-0.3,0.0,1.0,320.0,776.0,1.0,0,344.0,1
1001,1001,-0.35825535876704795,-0.4,1.0,0.0,445.0,643.0,0.0,0,192.0,1
1002,1002,-0.7864362347571909,-0.8,0.0,1.0,312.0,667.0,1.0,0,131.0,1
1003,1003,-0.6547070068457316,-0.7,1.0,0.0,334.0,934.0,0.0,0,82.0,1
1004,1004,-0.03873235818729093,-0.0,0.0,1.0,342.0,651.0,1.0,0,1547.0,1
1005,1005,0.6648616987580019,0.7,1.0,1.0,408.0,912.0,1.0,1,40.0,1
1006,1006,-0.661221827918302,-0.7,0.0,1.0,378.0,955.0,1.0,0,177.0,1
1007,1007,0.2725300961893845,0.3,0.0,0.0,408.0,673.0,0.0,1,289.0,1
1008,1008,-0.6672071576146187,-0.7,1.0,0.0,280.0,872.0,0.0,0,108.0,1
1009,1009,0.5346059581779922,0.5,1.0,1.0,461.0,543.0,1.0,1,376.0,1
1010,1010,0.47587666912280413,0.5,0.0,0.0,350.0,614.0,0.0,1,376.0,1
1011,1011,0.7612064404754656,0.8,1.0,1.0,361.0,515.0,1.0,1,194.0,1
1012,1012,-0.44705215120181657,-0.4,0.0,1.0,446.0,660.0,1.0,0,224.0,1
1013,1013,0.8619803818846626,0.9,1.0,1.0,319.0,980.0,1.0,1,131.0,1
1014,1014,0.043165609606986344,0.0,1.0,1.0,268.0,883.0,0.0,0,169.0,0
1015,1015,0.5611402007686909,0.6,1.0,1.0,431.0,892.0,1.0,1,107.0,1
1016,1016,-0.6844007190043707,-0.7,1.0,0.0,316.0,825.0,0.0,0,69.0,1
1017,1017,-0.1924354749524766,-0.2,1.0,0.0,420.0,535.0,0.0,0,505.0,1
1018,1018,0.4847227959335675,0.5,0.0,0.0,388.0,636.0,0.0,1,196.0,1
1019,1019,0.8879940546332054,0.9,1.0,1.0,462.0,876.0,1.0,1,122.0,1
1020,1020,0.5722110862377757,0.6,1.0,1.0,309.0,573.0,1.0,1,418.0,1
1021,1021,0.003642843776348492,0.0,1.0,1.0,472.0,606.0,1.0,1,662.0,1
1022,1022,-0.3109403807022886,-0.3,1.0,0.0,371.0,561.0,0.0,0,368.0,1
1023,1023,-0.4116602606209077,-0.4,0.0,1.0,348.0,958.0,1.0,0,84.0,1
1024,1024,-0.35958785345018673,-0.4,1.0,0.0,425.0,755.0,0.0,0,230.0,1
1025,1025,-0.6282130366482617,-0.6,0.0,1.0,433.0,881.0,1.0,0,156.0,1
1026,1026,0.592455699726479,0.6,1.0,1.0,489.0,564.0,1.0,1,397.0,1
1027,1027,-0.825694263781732,-0.8,0.0,1.0,343.0,767.0,1.0,0,80.0,1
1028,1028,-0.218366708678701,-0.2,0.0,1.0,494.0,744.0,1.0,0,372.0,1
1029,1029,0.48814054297308107,0.5,1.0,1.0,490.0,980.0,1.0,1,160.0,1
1030,1030,-0.03245321638585241,-0.0,0.0,1.0,392.0,534.0,1.0,0,1294.0,1
1031,1031,0.5936773351145656,0.6,1.0,1.0,453.0,879.0,1.0,1,118.0,1
1032,1032,0.5867017854480222,0.6,0.0,0.0,269.0,685.0,0.0,1,166.0,1
1033,1033,0.23223494826588664,0.2,1.0,1.0,346.0,743.0,1.0,1,361.0,1
1034,1034,-0.5551468948604636,-0.6,1.0,0.0,333.0,897.0,0.0,0,10.0,1
1035,1035,0.14865228904537975,0.1,0.0,0.0,271.0,530.0,0.0,1,499.0,1
1036,1036,0.47336694728470385,0.5,1.0,1.0,338.0,988.0,1.0,1,144.0,1
1037,1037,0.38483192510104247,0.4,0.0,0.0,414.0,747.0,0.0,1,159.0,1
1038,1038,-0.49024149978709836,-0.5,0.0,1.0,477.0,966.0,1.0,0,187.0,1
1039,1039,0.8427892976259802,0.8,0.0,0.0,404.0,578.0,0.0,1,258.0,1
1040,1040,0.7039648707152587,0.7,0.0,0.0,376.0,722.0,0.0,1,282.0,1
1041,1041,-0.005978401161537028,-0.0,0.0,1.0,344.0,808.0,1.0,0,1848.0,1
1042,1042,-0.855313730891779,-0.9,1.0,0.0,405.0,902.0,0.0,0,203.0,1
1043,1043,0.723067839196268,0.7,1.0,1.0,348.0,742.0,1.0,1,160.0,1
1044,1044,-0.16661730314144352,-0.2,1.0,0.0,386.0,531.0,0.0,0,373.0,1
1045,1045,0.1289056405408916,0.1,0.0,0.0,280.0,674.0,0.0,1,456.0,1
1046,1046,-0.7584209973610823,-0.8,0.0,1.0,264.0,933.0,1.0,0,113.0,1
1047,1047,0.8661223941468598,0.9,1.0,1.0,447.0,718.0,1.0,1,95.0,1
1048,1048,0.892343918840888,0.9,0.0,0.0,438.0,583.0,0.0,1,179.0,1
1049,1049,-0.7880510038247789,-0.8,1.0,0.0,283.0,610.0,0.0,0,177.0,1
1050,1050,-0.3232510547397234,-0.3,0.0,1.0,491.0,688.0,1.0,0,461.0,1
1051,1051,0.8976131452039305,0.9,0.0,0.0,310.0,784.0,0.0,1,66.0,1
1052,1052,0.08776479796010961,0.1,0.0,0.0,391.0,792.0,0.0,1,487.0,1
1053,1053,-0.2545639233595133,-0.3,0.0,1.0,312.0,676.0,1.0,0,302.0,1
1054,1054,-0.012750338958618546,-0.0,1.0,0.0,424.0,702.0,0.0,0,364.0,1
1055,1055,-0.5342910860782233,-0.5,0.0,1.0,408.0,679.0,1.0,0,293.0,1
1056,1056,-0.38633322057699304,-0.4,0.0,1.0,345.0,665.0,1.0,0,320.0,1
1057,1057,-0.29811124013728985,-0.3,1.0,0.0,412.0,943.0,0.0,0,125.0,1
1058,1058,0.11175223728250072,0.1,1.0,1.0,362.0,746.0,1.0,1,372.0,1
1059,1059,-0.43013102988473423,-0.4,0.0,1.0,292.0,618.0,1.0,0,200.0,1
1060,1060,0.0623564068967285,0.1,1.0,1.0,490.0,704.0,1.0,1,816.0,1
1061,1061,-0.4226189334354818,-0.4,0.0,1.0,463.0,651.0,1.0,0,186.0,1
1062,1062,0.22369551915923147,0.2,1.0,1.0,493.0,848.0,1.0,1,749.0,1
1063,1063,0.4064516638505232,0.4,0.0,0.0,341.0,512.0,0.0,1,427.0,1
1064,1064,0.3320896971662427,0.3,0.0,0.0,448.0,566.0,0.0,1,376.0,1
1065,1065,0.26492746243874576,0.3,1.0,1.0,372.0,987.0,1.0,1,291.0,1
1066,1066,0.8907113159317718,0.9,1.0,1.0,361.0,602.0,1.0,1,247.0,1
1067,1067,-0.0401920756555324,-0.0,1.0,0.0,392.0,589.0,0.0,0,959.0,1
1068,1068,-0.32614252113276687,-0.3,1.0,0.0,472.0,563.0,0.0,0,285.0,1
1069,1069,-0.39753344583577555,-0.4,1.0,0.0,302.0,857.0,0.0,0,111.0,1
1070,1070,0.6587746893137293,0.7,1.0,1.0,276.0,905.0,1.0,1,139.0,1
1071,1071,-0.06737743639810845,-0.1,1.0,0.0,323.0,703.0,0.0,0,784.0,1
1072,1072,-0.32439073661978324,-0.3,1.0,0.0,423.0,587.0,0.0,0,290.0,1
1073,1073,0.42603031493858234,0.4,0.0,0.0,320.0,799.0,0.0,1,281.0,1
1074,1074,0.4844132329265908,0.5,0.0,0.0,381.0,636.0,0.0,1,343.0,1
1075,1075,0.15472027343062866,0.2,0.0,0.0,347.0,689.0,0.0,1,284.0,1
1076,1076,-0.3758635245690537,-0.4,0.0,1.0,428.0,586.0,1.0,0,216.0,1
1077,1077,0.5601239207725427,0.6,0.0,0.0,369.0,764.0,0.0,1,337.0,1
1078,1078,-0.13146819061235027,-0.1,1.0,0.0,319.0,668.0,0.0,0,413.0,1
1079,1079,0.030064187839750844,0.0,0.0,0.0,491.0,843.0,0.0,1,1666.0,1
1080,1080,-0.380461668021694,-0.4,1.0,0.0,387.0,536.0,0.0,0,347.0,1
1081,1081,0.3279329572439914,0.3,0.0,0.0,411.0,888.0,0.0,1,211.0,1
1082,1082,-0.810428453553436,-0.8,0.0,1.0,426.0,643.0,1.0,0,161.0,1
1083,1083,-0.37934948061688367,-0.4,0.0,1.0,294.0,879.0,1.0,0,177.0,1
1084,1084,0.5265003789225672,0.5,0.0,0.0,355.0,527.0,0.0,1,188.0,1
1085,1085,0.6689904304053754,0.7,1.0,1.0,315.0,590.0,1.0,1,225.0,1
1086,1086,-0.4523607562435373,-0.5,0.0,1.0,496.0,506.0,1.0,0,348.0,1
1087,1087,-0.7376930738386165,-0.7,1.0,0.0,287.0,861.0,0.0,0,122.0,1
1088,1088,-0.23139527758649636,-0.2,0.0,1.0,422.0,524.0,1.0,0,424.0,1
1089,1089,0.4630297751295479,0.5,0.0,0.0,420.0,672.0,0.0,1,158.0,1
1090,1090,-0.7977104577545274,-0.8,1.0,0.0,358.0,536.0,0.0,0,246.0,1
1091,1091,0.2810991167190572,0.3,1.0,1.0,289.0,879.0,1.0,1,152.0,1
1092,1092,0.6610600313466465,0.7,0.0,0.0,261.0,688.0,0.0,1,591.0,1
1093,1093,0.24279411072978763,0.2,1.0,1.0,291.0,693.0,1.0,1,366.0,1
1094,1094,0.12992195053148825,0.1,0.0,0.0,432.0,807.0,0.0,1,151.0,1
1095,1095,-0.4368296786286661,-0.4,0.0,1.0,445.0,568.0,1.0,0,267.0,1
1096,1096,0.14175814838476775,0.1,0.0,0.0,486.0,704.0,0.0,1,400.0,1
1097,1097,0.31867814696163543,0.3,1.0,1.0,489.0,523.0,1.0,1,288.0,1
1098,1098,0.7230109718845678,0.7,0.0,0.0,361.0,517.0,0.0,1,282.0,1
1099,1099,0.49805217481283337,0.5,1.0,1.0,252.0,940.0,1.0,1,168.0,1
1100,1100,0.6080123245317558,0.6,0.0,0.0,310.0,979.0,0.0,1,51.0,1
1101,1101,-0.8343078199872225,-0.8,0.0,1.0,452.0,864.0,1.0,0,94.0,1
1102,1102,-0.12252510012930862,-0.1,0.0,1.0,443.0,504.0,1.0,0,793.0,1
1103,1103,0.10251797507167792,0.1,1.0,1.0,460.0,583.0,1.0,1,927.0,1
1104,1104,-0.5503192110398165,-0.6,1.0,0.0,400.0,723.0,0.0,0,187.0,1
1105,1105,0.8413882867755181,0.8,1.0,1.0,344.0,777.0,1.0,1,149.0,1
1106,1106,0.8897801399987088,0.9,0.0,0.0,400.0,579.0,0.0,1,311.0,1
1107,1107,-0.8693433649678128,-0.9,0.0,1.0,446.0,997.0,1.0,0,157.0,1
1108,1108,0.016590104956631158,0.0,0.0,0.0,281.0,839.0,1.0,0,1880.0,0
1109,1109,-0.40640198593390386,-0.4,1.0,0.0,456.0,634.0,0.0,0,170.0,1
1110,1110,0.3874413980614776,0.4,1.0,1.0,419.0,542.0,1.0,1,309.0,1
1111,1111,0.25694926176613586,0.3,1.0,1.0,388.0,891.0,1.0,1,351.0,1
1112,1112,0.23877020419368422,0.2,1.0,1.0,258.0,724.0,1.0,1,368.0,1
1113,1113,0.8692239545326884,0.9,0.0,0.0,404.0,956.0,0.0,1,110.0,1
1114,1114,-0.5347711285194073,-0.5,0.0,1.0,453.0,899.0,1.0,0,168.0,1
1115,1115,0.03131781292199287,0.0,1.0,1.0,269.0,793.0,1.0,1,1348.0,1
1116,1116,-0.6691779368411677,-0.7,0.0,1.0,300.0,811.0,1.0,0,199.0,1
1117,1117,0.853896828180026,0.9,1.0,1.0,256.0,999.0,1.0,1,115.0,1
1118,1118,-0.15032124114525058,-0.2,0.0,1.0,312.0,770.0,1.0,0,768.0,1
1119,1119,-0.808491985026701,-0.8,0.0,1.0,425.0,940.0,1.0,0,115.0,1
1120,1120,-0.7681706318269407,-0.8,0.0,1.0,456.0,654.0,1.0,0,160.0,1
1121,1121,0.20963408075837908,0.2,0.0,0.0,370.0,941.0,0.0,1,169.0,1
1122,1122,-0.23421443009447163,-0.2,0.0,1.0,378.0,748.0,1.0,0,274.0,1
1123,1123,0.40512090237480425,0.4,0.0,0.0,471.0,581.0,0.0,1,278.0,1
1124,1124,-0.5235233248767739,-0.5,1.0,0.0,309.0,945.0,0.0,0,126.0,1
1125,1125,0.1543311627697025,0.2,0.0,0.0,340.0,556.0,0.0,1,454.0,1
1126,1126,0.7919776765048144,0.8,1.0,1.0,254.0,612.0,1.0,1,264.0,1
1127,1127,-0.377600131868002,-0.4,1.0,0.0,478.0,754.0,0.0,0,248.0,1
1128,1128,-0.5013820472357986,-0.5,0.0,1.0,395.0,606.0,1.0,0,239.0,1
1129,1129,-0.22433450819116696,-0.2,1.0,0.0,442.0,976.0,0.0,0,142.0,1
1130,1130,-0.7901736534469826,-0.8,0.0,1.0,448.0,716.0,1.0,0,536.0,1
1131,1131,0.5455714592060031,0.5,0.0,0.0,471.0,695.0,0.0,1,244.0,1
1132,1132,0.05317102591564782,0.1,1.0,1.0,449.0,887.0,1.0,1,264.0,1
1133,1133,0.025487868107771372,0.0,0.0,0.0,428.0,873.0,0.0,1,1149.0,1
1134,1134,-0.4326020252082952,-0.4,0.0,1.0,283.0,619.0,1.0,0,348.0,1
1135,1135,0.7224970503572957,0.7,0.0,0.0,403.0,655.0,0.0,1,142.0,1
1136,1136,-0.021486312355508685,-0.0,0.0,1.0,426.0,823.0,1.0,0,1751.0,1
1137,1137,0.5151582145062769,0.5,1.0,1.0,332.0,993.0,1.0,1,225.0,1
1138,1138,-0.751004908451364,-0.8,1.0,0.0,319.0,828.0,0.0,0,143.0,1
1139,1139,0.3169166136557501,0.3,1.0,1.0,269.0,822.0,1.0,1,279.0,1
1140,1140,0.18380674181361145,0.2,0.0,0.0,361.0,827.0,0.0,1,452.0,1
1141,1141,0.4592821860586268,0.5,1.0,1.0,429.0,873.0,1.0,1,38.0,1
1142,1142,-0.15109583972237173,-0.2,1.0,0.0,259.0,523.0,0.0,0,508.0,1
1143,1143,0.7806120133518254,0.8,0.0,0.0,446.0,994.0,0.0,1,310.0,1
1144,1144,0.7537153607779469,0.8,0.0,0.0,363.0,860.0,0.0,1,107.0,1
1145,1145,-0.6430999745434929,-0.6,1.0,0.0,357.0,744.0,0.0,0,269.0,1
1146,1146,0.8125915207990565,0.8,0.0,0.0,459.0,664.0,0.0,1,207.0,1
1147,1147,0.35384524230296155,0.4,1.0,1.0,404.0,822.0,1.0,1,114.0,1
1148,1148,0.8109059671016595,0.8,1.0,1.0,492.0,872.0,1.0,1,116.0,1
1149,1149,0.07230949938945452,0.1,1.0,1.0,427.0,633.0,1.0,1,590.0,1
1150,1150,0.13176127996196063,0.1,1.0,1.0,454.0,896.0,1.0,1,160.0,1
1151,1151,0.7493996815595353,0.7,0.0,0.0,423.0,510.0,0.0,1,387.0,1
1152,1152,0.32688145378634526,0.3,0.0,0.0,335.0,525.0,0.0,1,350.0,1
1153,1153,-0.15298571890565182,-0.2,0.0,1.0,466.0,542.0,1.0,0,682.0,1
1154,1154,0.6245296797420977,0.6,1.0,1.0,331.0,752.0,1.0,1,127.0,1
1155,1155,-0.8910035450999159,-0.9,0.0,1.0,350.0,627.0,1.0,0,173.0,1
1156,1156,-0.7150381959462755,-0.7,1.0,0.0,320.0,723.0,0.0,0,107.0,1
1157,1157,-0.4299355229071163,-0.4,1.0,0.0,269.0,855.0,0.0,0,106.0,1
1158,1158,0.8987986212336835,0.9,0.0,0.0,478.0,786.0,0.0,1,236.0,1
1159,1159,-0.35613334091274884,-0.4,1.0,0.0,441.0,657.0,0.0,0,322.0,1
1160,1160,-0.20736002480795002,-0.2,1.0,0.0,282.0,684.0,0.0,0,284.0,1
1161,1161,0.1202165054154426,0.1,1.0,1.0,365.0,760.0,1.0,1,435.0,1
1162,1162,0.049939662661469764,0.0,0.0,0.0,447.0,958.0,0.0,1,1595.0,1
1163,1163,-0.16842932588380666,-0.2,1.0,0.0,392.0,882.0,0.0,0,136.0,1
1164,1164,0.6657443869306693,0.7,1.0,1.0,297.0,884.0,1.0,1,199.0,1
1165,1165,0.5272529531254299,0.5,1.0,1.0,286.0,836.0,1.0,1,208.0,1
1166,1166,0.89537426427118,0.9,0.0,0.0,339.0,585.0,0.0,1,156.0,1
1167,1167,0.8699833388045285,0.9,1.0,1.0,459.0,567.0,1.0,1,204.0,1
1168,1168,0.44640145167275114,0.4,1.0,1.0,418.0,714.0,1.0,1,258.0,1
1169,1169,-0.09065863792366191,-0.1,0.0,1.0,306.0,903.0,1.0,0,961.0,1
1170,1170,0.0640166862597733,0.1,0.0,0.0,276.0,726.0,0.0,1,418.0,1
1171,1171,-0.17006154276014007,-0.2,1.0,0.0,476.0,865.0,0.0,0,229.0,1
1172,1172,0.4136935043472797,0.4,1.0,1.0,469.0,735.0,1.0,1,186.0,1
1173,1173,0.061343831840513285,0.1,1.0,1.0,283.0,699.0,1.0,1,588.0,1
1174,1174,0.3365101777100187,0.3,0.0,0.0,482.0,537.0,0.0,1,331.0,1
1175,1175,0.42717834029402335,0.4,0.0,0.0,325.0,788.0,0.0,1,217.0,1
1176,1176,-0.24739176564822818,-0.2,1.0,0.0,496.0,981.0,0.0,0,153.0,1
1177,1177,-0.867686132282955,-0.9,0.0,1.0,270.0,704.0,1.0,0,166.0,1
1178,1178,0.003455632828661903,0.0,1.0,1.0,352.0,984.0,1.0,1,574.0,1
1179,1179,-0.41128173935403056,-0.4,0.0,1.0,375.0,922.0,1.0,0,153.0,1
1180,1180,-0.837996216213277,-0.8,1.0,0.0,366.0,762.0,0.0,0,232.0,1
1181,1181,-0.07038976610532188,-0.1,0.0,1.0,414.0,649.0,1.0,0,1937.0,1
1182,1182,0.3906445176635537,0.4,0.0,0.0,280.0,723.0,0.0,1,287.0,1
1183,1183,0.15451483100213748,0.2,1.0,1.0,456.0,863.0,1.0,1,181.0,1
1184,1184,0.20448559939274424,0.2,1.0,1.0,360.0,557.0,1.0,1,413.0,1
1185,1185,-0.781086576986913,-0.8,1.0,0.0,271.0,572.0,0.0,0,187.0,1
1186,1186,0.3243635065669096,0.3,0.0,0.0,293.0,859.0,0.0,1,308.0,1
1187,1187,-0.6011715965078854,-0.6,1.0,0.0,278.0,580.0,0.0,0,282.0,1
1188,1188,-0.8042570052979422,-0.8,1.0,0.0,307.0,804.0,0.0,0,109.0,1
1189,1189,0.7303990127115155,0.7,1.0,1.0,294.0,940.0,1.0,1,66.0,1
1190,1190,0.12248137310013718,0.1,0.0,0.0,463.0,696.0,0.0,1,591.0,1
1191,1191,-0.08894817571294977,-0.1,1.0,0.0,322.0,771.0,0.0,0,677.0,1
1192,1192,0.29981464635317623,0.3,0.0,0.0,458.0,621.0,0.0,1,251.0,1
1193,1193,0.1683270805619158,0.2,0.0,0.0,262.0,923.0,0.0,1,275.0,1
1194,1194,0.15103220667271333,0.2,1.0,1.0,340.0,663.0,1.0,1,677.0,1
1195,1195,0.5694357715297153,0.6,0.0,0.0,376.0,662.0,0.0,1,282.0,1
1196,1196,-0.43415871145296747,-0.4,0.0,1.0,274.0,810.0,1.0,0,296.0,1
1197,1197,-0.275212073029404,-0.3,0.0,1.0,288.0,969.0,1.0,0,103.0,1
1198,1198,-0.04174362712704638,-0.0,1.0,0.0,388.0,914.0,0.0,0,1698.0,1
1199,1199,0.8375754303804487,0.8,1.0,1.0,375.0,693.0,1.0,1,162.0,1
1200,1200,-0.12094180308519165,-0.1,1.0,0.0,457.0,939.0,0.0,0,1064.0,1
1201,1201,0.008263807052256156,0.0,1.0,1.0,491.0,789.0,1.0,1,1720.0,1
1202,1202,-0.6334159178563579,-0.6,0.0,1.0,280.0,770.0,1.0,0,210.0,1
1203,1203,-0.6400207806718983,-0.6,1.0,0.0,483.0,738.0,0.0,0,149.0,1
1204,1204,-0.623291487485361,-0.6,1.0,0.0,270.0,973.0,0.0,0,107.0,1
1205,1205,-0.4856531871700594,-0.5,0.0,1.0,415.0,940.0,1.0,0,215.0,1
1206,1206,0.36062454716016623,0.4,1.0,1.0,314.0,931.0,0.0,0,-5.0,0
1207,1207,-0.5427663583745185,-0.5,1.0,0.0,437.0,910.0,0.0,0,103.0,1
1208,1208,0.3094294041616529,0.3,1.0,1.0,421.0,773.0,1.0,1,276.0,1
1209,1209,-0.31630964542338535,-0.3,0.0,1.0,466.0,830.0,1.0,0,364.0,1
1210,1210,-0.5649068233577923,-0.6,0.0,1.0,310.0,659.0,1.0,0,381.0,1
1211,1211,0.13990537137623027,0.1,0.0,0.0,422.0,747.0,0.0,1,271.0,1
1212,1212,-0.5838406687421385,-0.6,1.0,0.0,389.0,954.0,0.0,0,107.0,1
1213,1213,0.02978232582541751,0.0,0.0,0.0,392.0,828.0,0.0,1,1190.0,1
1214,1214,-0.6592353689637513,-0.7,0.0,1.0,463.0,760.0,1.0,0,137.0,1
1215,1215,0.7147152028770906,0.7,1.0,1.0,352.0,600.0,1.0,1,578.0,1
1216,1216,0.45316866723960525,0.5,0.0,0.0,289.0,949.0,0.0,1,112.0,1
1217,1217,-0.19233418554653836,-0.2,1.0,0.0,322.0,589.0,0.0,0,249.0,1
1218,1218,0.868010224084868,0.9,1.0,1.0,489.0,543.0,1.0,1,228.0,1
1219,1219,0.8971110221302444,0.9,1.0,1.0,317.0,969.0,1.0,1,144.0,1
1220,1220,-0.8927176432340199,-0.9,1.0,0.0,386.0,572.0,0.0,0,242.0,1
1221,1221,0.18332347384402026,0.2,1.0,1.0,359.0,706.0,1.0,1,255.0,1
1222,1222,0.30923340359306006,0.3,1.0,1.0,442.0,665.0,1.0,1,323.0,1
1223,1223,0.6134857250731752,0.6,1.0,1.0,276.0,637.0,1.0,1,387.0,1
1224,1224,0.04295913843763266,0.0,0.0,0.0,365.0,947.0,0.0,1,1688.0,1
1225,1225,0.5381979268566334,0.5,1.0,1.0,441.0,926.0,1.0,1,183.0,1
1226,1226,-0.866627025066843,-0.9,1.0,0.0,312.0,715.0,0.0,0,63.0,1
1227,1227,0.4799232984084344,0.5,0.0,0.0,415.0,807.0,0.0,1,258.0,1
1228,1228,0.6180994070529283,0.6,1.0,1.0,392.0,621.0,1.0,1,177.0,1
1229,1229,-0.42926784445292465,-0.4,1.0,0.0,343.0,721.0,0.0,0,136.0,1
1230,1230,-0.026943770710840753,-0.0,0.0,1.0,456.0,529.0,1.0,0,2015.0,1
1231,1231,0.43288944546119745,0.4,1.0,1.0,408.0,584.0,1.0,1,228.0,1
1232,1232,0.23884333846702466,0.2,1.0,1.0,428.0,888.0,1.0,1,164.0,1
1233,1233,0.1007606386346035,0.1,0.0,0.0,310.0,500.0,0.0,1,450.0,1
1234,1234,0.677546335011798,0.7,1.0,1.0,413.0,625.0,1.0,1,202.0,1
1235,1235,-0.4392817639009884,-0.4,1.0,0.0,497.0,988.0,0.0,0,65.0,1
1236,1236,-0.3466887954994238,-0.3,0.0,1.0,338.0,889.0,1.0,0,213.0,1
1237,1237,0.07754289694567029,0.1,0.0,0.0,290.0,650.0,0.0,1,540.0,1
1238,1238,0.8200482133949706,0.8,1.0,1.0,320.0,937.0,1.0,1,73.0,1
1239,1239,0.42450313048583876,0.4,1.0,1.0,427.0,926.0,1.0,1,197.0,1
1240,1240,0.2918813517749749,0.3,1.0,1.0,299.0,606.0,1.0,1,265.0,1
1241,1241,0.37823995665527577,0.4,1.0,1.0,467.0,694.0,1.0,1,409.0,1
1242,1242,-0.1597041682996857,-0.2,1.0,0.0,417.0,574.0,0.0,0,369.0,1
1243,1243,-0.07906014593072608,-0.1,0.0,1.0,465.0,698.0,1.0,0,417.0,1
1244,1244,0.015270935257939433,0.0,0.0,0.0,271.0,617.0,0.0,1,1782.0,1
1245,1245,0.03380622520398646,0.0,1.0,1.0,448.0,959.0,0.0,0,853.0,0
1246,1246,-0.7257387153444825,-0.7,0.0,1.0,339.0,542.0,1.0,0,279.0,1
1247,1247,0.867195580553075,0.9,1.0,1.0,308.0,590.0,1.0,1,162.0,1
1248,1248,0.30244439396573675,0.3,1.0,1.0,385.0,838.0,1.0,1,187.0,1
1249,1249,0.09780451125257417,0.1,1.0,1.0,443.0,639.0,1.0,1,788.0,1
1250,1250,-0.22086411348389035,-0.2,0.0,1.0,316.0,846.0,1.0,0,238.0,1
1251,1251,-0.23123982580326763,-0.2,0.0,1.0,306.0,715.0,1.0,0,589.0,1
1252,1252,0.41373493870441724,0.4,0.0,0.0,472.0,814.0,0.0,1,104.0,1
1253,1253,-0.045290150013177266,-0.0,0.0,1.0,375.0,500.0,0.0,1,2125.0,0
1254,1254,-0.8475757546176337,-0.8,1.0,0.0,301.0,634.0,0.0,0,345.0,1
1255,1255,0.16819525218712983,0.2,1.0,1.0,336.0,897.0,1.0,1,347.0,1
1256,1256,0.2708050920817823,0.3,0.0,0.0,481.0,608.0,0.0,1,261.0,1
1257,1257,0.3445232559437249,0.3,0.0,0.0,498.0,704.0,0.0,1,258.0,1
1258,1258,0.6359517977183703,0.6,1.0,1.0,258.0,988.0,1.0,1,94.0,1
1259,1259,-0.7232130514074419,-0.7,1.0,0.0,285.0,733.0,0.0,0,112.0,1
1260,1260,0.3534284083179712,0.4,1.0,1.0,261.0,631.0,1.0,1,228.0,1
1261,1261,0.24504102459977573,0.2,0.0,0.0,411.0,875.0,0.0,1,194.0,1
1262,1262,0.1598583189446524,0.2,1.0,1.0,282.0,518.0,1.0,1,490.0,1
1263,1263,0.847416760545772,0.8,1.0,1.0,383.0,575.0,1.0,1,182.0,1
1264,1264,-0.23325862860490965,-0.2,1.0,0.0,333.0,552.0,0.0,0,365.0,1
1265,1265,0.211064993192427,0.2,1.0,1.0,256.0,922.0,1.0,1,252.0,1
1266,1266,0.8494025880629564,0.8,0.0,0.0,390.0,946.0,0.0,1,204.0,1
1267,1267,0.37567252325796907,0.4,1.0,1.0,332.0,536.0,1.0,1,422.0,1
1268,1268,0.1792548231240948,0.2,1.0,1.0,468.0,927.0,1.0,1,215.0,1
1269,1269,0.752200815250495,0.8,0.0,0.0,418.0,780.0,0.0,1,142.0,1
1270,1270,0.8906390687621485,0.9,0.0,0.0,378.0,818.0,0.0,1,234.0,1
1271,1271,0.252748602610792,0.3,1.0,1.0,357.0,513.0,1.0,1,370.0,1
1272,1272,0.47653160587199983,0.5,0.0,0.0,356.0,623.0,0.0,1,281.0,1
1273,1273,0.6052205529852307,0.6,1.0,1.0,416.0,642.0,1.0,1,142.0,1
1274,1274,-0.46331173661974007,-0.5,1.0,0.0,470.0,577.0,0.0,0,273.0,1
1275,1275,0.17566612546506055,0.2,0.0,0.0,322.0,984.0,0.0,1,574.0,1
1276,1276,0.5611748803651094,0.6,1.0,1.0,467.0,787.0,1.0,1,156.0,1
1277,1277,0.6442888488423965,0.6,1.0,1.0,487.0,617.0,1.0,1,196.0,1
1278,1278,-0.17266849151095542,-0.2,1.0,0.0,315.0,864.0,0.0,0,121.0,1
1279,1279,-0.6477470524566376,-0.6,0.0,1.0,320.0,534.0,1.0,0,216.0,1
1280,1280,-0.8091964783759857,-0.8,0.0,1.0,282.0,974.0,1.0,0,254.0,1
1281,1281,-0.7414606847982942,-0.7,0.0,1.0,409.0,668.0,1.0,0,183.0,1
1282,1282,0.6924722790106205,0.7,1.0,1.0,419.0,987.0,1.0,1,14.0,1
1283,1283,0.46834836735561514,0.5,0.0,0.0,255.0,984.0,0.0,1,111.0,1
1284,1284,-0.6254648691934741,-0.6,1.0,0.0,257.0,766.0,0.0,0,187.0,1
1285,1285,-0.4624635624065497,-0.5,0.0,1.0,389.0,719.0,1.0,0,202.0,1
1286,1286,-0.783955507916298,-0.8,1.0,0.0,361.0,547.0,0.0,0,302.0,1
1287,1287,0.36316914194401695,0.4,0.0,0.0,432.0,645.0,0.0,1,343.0,1
1288,1288,-0.682518896355314,-0.7,1.0,0.0,477.0,851.0,0.0,0,142.0,1
1289,1289,-0.6715195878016829,-0.7,0.0,1.0,380.0,682.0,1.0,0,178.0,1
1290,1290,-0.11766725140071232,-0.1,1.0,0.0,348.0,991.0,0.0,0,241.0,1
1291,1291,0.8129695539440794,0.8,1.0,1.0,318.0,767.0,1.0,1,125.0,1
1292,1292,-0.6520943113798038,-0.7,1.0,0.0,340.0,772.0,0.0,0,118.0,1
1293,1293,-0.28420064269324596,-0.3,1.0,0.0,388.0,591.0,0.0,0,311.0,1
1294,1294,0.25654836683920335,0.3,1.0,1.0,334.0,734.0,1.0,1,232.0,1
1295,1295,0.696004598772895,0.7,1.0,1.0,250.0,656.0,1.0,1,154.0,1
1296,1296,0.22073951140285375,0.2,1.0,1.0,271.0,703.0,1.0,1,316.0,1
1297,1297,-0.13120318609986137,-0.1,0.0,1.0,264.0,668.0,1.0,0,718.0,1
1298,1298,0.1794545408032563,0.2,0.0,0.0,279.0,861.0,0.0,1,100.0,1
1299,1299,-0.30562504252415057,-0.3,1.0,0.0,422.0,547.0,0.0,0,321.0,1
1300,1300,-0.4552077257035572,-0.5,0.0,1.0,333.0,602.0,1.0,0,195.0,1
1301,1301,-0.41881077772916236,-0.4,1.0,0.0,274.0,528.0,0.0,0,368.0,1
1302,1302,0.3235759243715034,0.3,0.0,0.0,257.0,610.0,0.0,1,463.0,1
1303,1303,-0.8354761028222899,-0.8,1.0,0.0,261.0,724.0,0.0,0,205.0,1
1304,1304,0.3676807188425538,0.4,1.0,1.0,308.0,594.0,1.0,1,328.0,1
1305,1305,-0.6550283399882166,-0.7,0.0,1.0,421.0,906.0,1.0,0,153.0,1
1306,1306,0.6427279956307027,0.6,1.0,1.0,318.0,726.0,1.0,1,206.0,1
1307,1307,0.6005198205738974,0.6,0.0,0.0,317.0,555.0,0.0,1,158.0,1
1308,1308,0.7006902373656577,0.7,1.0,1.0,493.0,810.0,1.0,1,137.0,1
1309,1309,-0.7686875018797,-0.8,1.0,0.0,263.0,946.0,0.0,0,71.0,1
1310,1310,0.7257323430718824,0.7,1.0,1.0,483.0,954.0,1.0,1,93.0,1
1311,1311,0.6738858397266466,0.7,0.0,0.0,293.0,690.0,0.0,1,187.0,1
1312,1312,-0.10740150428986683,-0.1,1.0,0.0,291.0,821.0,0.0,0,78.0,1
1313,1313,-0.36733169884870187,-0.4,1.0,0.0,253.0,574.0,0.0,0,243.0,1
1314,1314,0.5524150331744776,0.6,0.0,0.0,262.0,926.0,0.0,1,192.0,1
1315,1315,-0.4084165151701327,-0.4,0.0,1.0,398.0,606.0,1.0,0,256.0,1
1316,1316,-0.15514909544614786,-0.2,0.0,1.0,478.0,519.0,1.0,0,303.0,1
1317,1317,-0.7432370693272681,-0.7,1.0,0.0,293.0,995.0,0.0,0,132.0,1
1318,1318,-0.4861415759812035,-0.5,0.0,1.0,307.0,648.0,1.0,0,185.0,1
1319,1319,0.13725029956369583,0.1,1.0,1.0,413.0,546.0,1.0,1,321.0,1
1320,1320,0.19299336481533313,0.2,1.0,1.0,346.0,935.0,1.0,1,299.0,1
1321,1321,-0.03896642218746349,-0.0,0.0,1.0,333.0,505.0,1.0,0,932.0,1
1322,1322,0.8721172033723693,0.9,1.0,1.0,271.0,660.0,1.0,1,139.0,1
1323,1323,-0.06039327731534905,-0.1,1.0,0.0,424.0,676.0,0.0,0,340.0,1
1324,1324,-0.6479685435017903,-0.6,0.0,1.0,312.0,951.0,1.0,0,197.0,1
1325,1325,-0.33418301407685436,-0.3,1.0,0.0,410.0,579.0,0.0,0,231.0,1
1326,1326,-0.023057103083649166,-0.0,0.0,1.0,291.0,930.0,0.0,1,1779.0,0
1327,1327,0.6001662622942795,0.6,1.0,1.0,407.0,955.0,1.0,1,148.0,1
1328,1328,0.31194116975663777,0.3,0.0,0.0,332.0,954.0,0.0,1,94.0,1
1329,1329,0.42924433233398973,0.4,0.0,0.0,259.0,789.0,0.0,1,262.0,1
1330,1330,0.11870833138222048,0.1,0.0,0.0,255.0,903.0,0.0,1,202.0,1
1331,1331,-0.6006978268139243,-0.6,0.0,1.0,338.0,666.0,1.0,0,226.0,1
1332,1332,-0.6210256203471767,-0.6,1.0,0.0,325.0,789.0,0.0,0,326.0,1
1333,1333,-0.47418811606596445,-0.5,0.0,1.0,291.0,855.0,1.0,0,114.0,1
1334,1334,0.36715795063275747,0.4,0.0,0.0,401.0,752.0,0.0,1,407.0,1
1335,1335,0.02765775574829532,0.0,0.0,0.0,311.0,696.0,0.0,1,493.0,1
1336,1336,0.46426541921998876,0.5,0.0,0.0,373.0,843.0,0.0,1,94.0,1
1337,1337,-0.6582710911442379,-0.7,0.0,1.0,483.0,806.0,1.0,0,171.0,1
1338,1338,-0.5397786760436871,-0.5,1.0,0.0,319.0,864.0,0.0,0,127.0,1
1339,1339,0.3776672644220488,0.4,1.0,1.0,488.0,964.0,1.0,1,288.0,1
1340,1340,0.3172373953157249,0.3,0.0,0.0,329.0,627.0,0.0,1,324.0,1
1341,1341,0.8273206917390764,0.8,1.0,1.0,280.0,812.0,1.0,1,228.0,1
1342,1342,0.17933286339069798,0.2,0.0,0.0,294.0,770.0,0.0,1,426.0,1
1343,1343,-0.04200984986161793,-0.0,1.0,0.0,418.0,714.0,0.0,0,368.0,1
1344,1344,0.5026887787423927,0.5,1.0,1.0,290.0,679.0,1.0,1,341.0,1
1345,1345,-0.6734635237971448,-0.7,1.0,0.0,413.0,803.0,0.0,0,104.0,1
1346,1346,0.6116291461904816,0.6,0.0,0.0,274.0,564.0,0.0,1,322.0,1
1347,1347,-0.4231510488028328,-0.4,0.0,1.0,303.0,860.0,1.0,0,187.0,1
1348,1348,-0.6576489394621943,-0.7,1.0,0.0,475.0,671.0,0.0,0,224.0,1
1349,1349,-0.7023370828307531,-0.7,1.0,0.0,364.0,968.0,0.0,0,68.0,1
1350,1350,-0.6395000476688544,-0.6,1.0,0.0,317.0,958.0,0.0,0,95.0,1
1351,1351,-0.4951342293623209,-0.5,0.0,1.0,462.0,553.0,1.0,0,415.0,1
1352,1352,0.5663284610061735,0.6,1.0,1.0,278.0,939.0,1.0,1,233.0,1
1353,1353,-0.36737585453999344,-0.4,1.0,0.0,255.0,592.0,0.0,0,163.0,1
1354,1354,-0.5518044757012421,-0.6,1.0,0.0,305.0,971.0,0.0,0,94.0,1
1355,1355,0.7834472593700942,0.8,0.0,0.0,357.0,896.0,0.0,1,77.0,1
1356,1356,-0.8993626649892223,-0.9,0.0,1.0,254.0,919.0,1.0,0,177.0,1
1357,1357,-0.713211320933377,-0.7,1.0,0.0,416.0,593.0,0.0,0,241.0,1
1358,1358,-0.3824282660039916,-0.4,1.0,0.0,289.0,848.0,0.0,0,103.0,1
1359,1359,0.4923469345076307,0.5,1.0,1.0,367.0,920.0,1.0,1,93.0,1
1360,1360,0.7355992927405984,0.7,1.0,1.0,352.0,968.0,1.0,1,180.0,1
1361,1361,0.7841941355729479,0.8,0.0,0.0,439.0,993.0,0.0,1,118.0,1
1362,1362,0.4995041716298324,0.5,1.0,1.0,303.0,563.0,1.0,1,324.0,1
1363,1363,0.7252404793895363,0.7,0.0,0.0,407.0,969.0,0.0,1,224.0,1
1364,1364,0.08375086747555671,0.1,1.0,1.0,336.0,888.0,1.0,1,896.0,1
1365,1365,-0.3082340170190647,-0.3,1.0,0.0,378.0,611.0,0.0,0,181.0,1
1366,1366,0.8596087730857366,0.9,1.0,1.0,303.0,523.0,1.0,1,224.0,1
1367,1367,0.20820620340073426,0.2,0.0,0.0,297.0,750.0,0.0,1,193.0,1
1368,1368,0.5293598813859707,0.5,1.0,1.0,286.0,620.0,1.0,1,174.0,1
1369,1369,-0.2633642702795934,-0.3,1.0,0.0,493.0,792.0,0.0,0,205.0,1
1370,1370,-0.5974263551074984,-0.6,0.0,1.0,375.0,779.0,1.0,0,146.0,1
1371,1371,-0.760962676520342,-0.8,0.0,1.0,333.0,532.0,1.0,0,115.0,1
1372,1372,0.6912760048720415,0.7,0.0,0.0,256.0,941.0,0.0,1,83.0,1
1373,1373,-0.42727015802443014,-0.4,1.0,0.0,466.0,566.0,0.0,0,248.0,1
1374,1374,-0.30546723957569244,-0.3,0.0,1.0,409.0,861.0,1.0,0,340.0,1
1375,1375,-0.3836993219829682,-0.4,0.0,1.0,471.0,815.0,1.0,0,174.0,1
1376,1376,-0.651144882590242,-0.7,1.0,0.0,330.0,602.0,0.0,0,178.0,1
1377,1377,0.3127399717399785,0.3,1.0,1.0,279.0,909.0,1.0,1,112.0,1
1378,1378,-0.6416192921567814,-0.6,0.0,1.0,320.0,950.0,1.0,0,70.0,1
1379,1379,-0.713616579306503,-0.7,1.0,0.0,407.0,996.0,0.0,0,27.0,1
1380,1380,-0.6365492804094808,-0.6,1.0,0.0,265.0,808.0,0.0,0,287.0,1
1381,1381,0.5791184194899811,0.6,0.0,0.0,492.0,686.0,0.0,1,212.0,1
1382,1382,0.2566701034461004,0.3,1.0,1.0,272.0,933.0,1.0,1,255.0,1
1383,1383,-0.44785582847945976,-0.4,1.0,0.0,415.0,959.0,0.0,0,66.0,1
1384,1384,0.10849105353159938,0.1,1.0,1.0,355.0,537.0,1.0,1,518.0,1
1385,1385,0.7248718895221994,0.7,0.0,0.0,463.0,835.0,0.0,1,142.0,1
1386,1386,-0.7025273734804994,-0.7,1.0,0.0,369.0,750.0,0.0,0,111.0,1
1387,1387,-0.47544395297945996,-0.5,0.0,1.0,385.0,569.0,1.0,0,236.0,1
1388,1388,-0.3689499958344905,-0.4,0.0,1.0,475.0,791.0,1.0,0,194.0,1
1389,1389,0.8507158959582232,0.9,0.0,0.0,273.0,838.0,0.0,1,119.0,1
1390,1390,0.229621633980298,0.2,0.0,0.0,358.0,648.0,0.0,1,204.0,1
1391,1391,0.5699380123685752,0.6,0.0,0.0,358.0,545.0,0.0,1,207.0,1
1392,1392,-0.7150750388606882,-0.7,0.0,1.0,331.0,574.0,1.0,0,175.0,1
1393,1393,0.7607193216502347,0.8,1.0,1.0,479.0,997.0,1.0,1,84.0,1
1394,1394,-0.427975191021476,-0.4,0.0,1.0,482.0,793.0,1.0,0,255.0,1
1395,1395,-0.5525186471870946,-0.6,0.0,1.0,492.0,997.0,1.0,0,31.0,1
1396,1396,0.26558044514378787,0.3,1.0,1.0,315.0,848.0,1.0,1,137.0,1
1397,1397,0.5682417014915974,0.6,0.0,0.0,382.0,822.0,0.0,1,406.0,1
1398,1398,0.5004803014404181,0.5,0.0,0.0,334.0,512.0,0.0,1,304.0,1
1399,1399,-0.5053561311643155,-0.5,0.0,1.0,395.0,745.0,1.0,0,220.0,1
1400,1400,-0.3975102920973691,-0.4,1.0,0.0,290.0,716.0,0.0,0,254.0,1
1401,1401,0.45979166901077273,0.5,1.0,1.0,334.0,804.0,1.0,1,252.0,1
1402,1402,-0.5948821523186916,-0.6,1.0,0.0,313.0,831.0,0.0,0,266.0,1
1403,1403,-0.5542037415587857,-0.6,0.0,1.0,435.0,764.0,1.0,0,101.0,1
1404,1404,0.18344654622890377,0.2,1.0,1.0,257.0,827.0,1.0,1,156.0,1
1405,1405,0.6775314446840507,0.7,0.0,0.0,353.0,683.0,0.0,1,324.0,1
1406,1406,0.1538616098144453,0.2,1.0,1.0,272.0,713.0,1.0,1,605.0,1
1407,1407,0.692214137690161,0.7,0.0,0.0,412.0,611.0,0.0,1,307.0,1
1408,1408,0.3187989893836155,0.3,0.0,0.0,447.0,912.0,0.0,1,221.0,1
1409,1409,0.6482692826982831,0.6,1.0,1.0,334.0,641.0,1.0,1,195.0,1
1410,1410,0.6557826092404954,0.7,1.0,1.0,475.0,752.0,1.0,1,173.0,1
1411,1411,0.6024024551129353,0.6,1.0,1.0,470.0,868.0,1.0,1,132.0,1
1412,1412,0.7491356473357508,0.7,0.0,0.0,309.0,863.0,0.0,1,268.0,1
1413,1413,0.48070583139056444,0.5,0.0,0.0,269.0,506.0,0.0,1,145.0,1
1414,1414,0.14983711130111999,0.1,0.0,0.0,457.0,552.0,0.0,1,321.0,1
1415,1415,0.29532047434262865,0.3,1.0,1.0,432.0,547.0,1.0,1,251.0,1
1416,1416,-0.6274416974669478,-0.6,0.0,1.0,455.0,917.0,1.0,0,98.0,1
1417,1417,-0.8825196593435851,-0.9,1.0,0.0,429.0,952.0,0.0,0,239.0,1
1418,1418,0.4345662002011975,0.4,1.0,1.0,289.0,962.0,1.0,1,179.0,1
1419,1419,-0.5704710400107957,-0.6,0.0,1.0,266.0,562.0,1.0,0,192.0,1
1420,1420,0.6480915241101123,0.6,0.0,0.0,372.0,916.0,0.0,1,162.0,1
1421,1421,0.08455683721074392,0.1,1.0,1.0,481.0,651.0,1.0,1,638.0,1
1422,1422,0.26806178973774475,0.3,0.0,0.0,431.0,779.0,0.0,1,220.0,1
1423,1423,0.012792418128954153,0.0,0.0,0.0,360.0,507.0,1.0,0,1933.0,0
1424,1424,0.7072606422169444,0.7,0.0,0.0,282.0,828.0,0.0,1,330.0,1
1425,1425,0.1967187519616801,0.2,1.0,1.0,328.0,773.0,1.0,1,489.0,1
1426,1426,0.017460707833662603,0.0,1.0,1.0,372.0,629.0,0.0,0,1999.0,0
1427,1427,-0.695936562740652,-0.7,1.0,0.0,273.0,557.0,0.0,0,110.0,1
1428,1428,-0.6968652625176333,-0.7,1.0,0.0,429.0,973.0,0.0,0,78.0,1
1429,1429,-0.37714384022931724,-0.4,0.0,1.0,447.0,633.0,1.0,0,490.0,1
1430,1430,-0.1571360436351973,-0.2,1.0,0.0,369.0,782.0,0.0,0,459.0,1
1431,1431,0.5268856096943694,0.5,0.0,0.0,289.0,990.0,0.0,1,51.0,1
1432,1432,0.33907899943559305,0.3,0.0,0.0,475.0,850.0,0.0,1,295.0,1
1433,1433,-0.1672692228705711,-0.2,1.0,0.0,358.0,817.0,0.0,0,215.0,1
1434,1434,0.6218493691906325,0.6,1.0,1.0,250.0,656.0,1.0,1,244.0,1
1435,1435,-0.5555419805405746,-0.6,0.0,1.0,295.0,549.0,1.0,0,356.0,1
1436,1436,-0.018400501107736722,-0.0,0.0,1.0,313.0,688.0,1.0,0,669.0,1
1437,1437,0.31672724648382367,0.3,1.0,1.0,275.0,739.0,1.0,1,296.0,1
1438,1438,-0.43729655498100045,-0.4,0.0,1.0,355.0,698.0,1.0,0,257.0,1
1439,1439,0.786770671954239,0.8,0.0,0.0,360.0,807.0,0.0,1,353.0,1
1440,1440,-0.25685891627864343,-0.3,0.0,1.0,458.0,658.0,1.0,0,364.0,1
1441,1441,0.5844155052342487,0.6,0.0,0.0,357.0,875.0,0.0,1,78.0,1
1442,1442,0.3612970814939348,0.4,0.0,0.0,410.0,707.0,0.0,1,293.0,1
1443,1443,-0.05801149994337729,-0.1,0.0,1.0,448.0,924.0,1.0,0,1628.0,1
1444,1444,-0.8687355971800612,-0.9,1.0,0.0,279.0,912.0,0.0,0,109.0,1
1445,1445,-0.24165199681887162,-0.2,1.0,0.0,463.0,747.0,0.0,0,240.0,1
1446,1446,0.5032467972223492,0.5,1.0,1.0,483.0,629.0,1.0,1,398.0,1
1447,1447,0.5471022753698219,0.5,1.0,1.0,482.0,672.0,1.0,1,196.0,1
1448,1448,0.7620676320198584,0.8,1.0,1.0,429.0,920.0,1.0,1,111.0,1
1449,1449,-0.6111793069635092,-0.6,1.0,0.0,476.0,911.0,0.0,0,233.0,1
1450,1450,-0.7741754381838303,-0.8,0.0,1.0,362.0,926.0,1.0,0,262.0,1
1451,1451,0.19300926231774207,0.2,0.0,0.0,326.0,624.0,0.0,1,350.0,1
1452,1452,0.2029361754471063,0.2,1.0,1.0,323.0,758.0,1.0,1,229.0,1
1453,1453,0.5008354449578521,0.5,0.0,0.0,353.0,879.0,0.0,1,78.0,1
1454,1454,-0.7834957358128973,-0.8,1.0,0.0,392.0,970.0,0.0,0,78.0,1
1455,1455,-0.23940704681155334,-0.2,0.0,1.0,385.0,981.0,1.0,0,324.0,1
1456,1456,-0.6953176761016497,-0.7,0.0,1.0,328.0,877.0,1.0,0,285.0,1
1457,1457,-0.4320870550490299,-0.4,1.0,0.0,495.0,708.0,0.0,0,137.0,1
1458,1458,-0.052825222249365034,-0.1,1.0,0.0,281.0,602.0,0.0,0,887.0,1
1459,1459,0.36275912524432286,0.4,0.0,0.0,271.0,556.0,0.0,1,353.0,1
1460,1460,0.181369760345219,0.2,1.0,1.0,395.0,561.0,1.0,1,424.0,1
1461,1461,0.36967832278546997,0.4,1.0,1.0,481.0,993.0,1.0,1,196.0,1
1462,1462,0.37769011366963967,0.4,0.0,0.0,473.0,878.0,0.0,1,239.0,1
1463,1463,-0.3131640581011431,-0.3,1.0,0.0,335.0,789.0,0.0,0,206.0,1
1464,1464,-0.049944180074443234,-0.0,0.0,1.0,376.0,546.0,1.0,0,538.0,1
1465,1465,0.6192959974378757,0.6,1.0,1.0,397.0,741.0,1.0,1,152.0,1
1466,1466,-0.7073658153904194,-0.7,0.0,1.0,363.0,792.0,1.0,0,85.0,1
1467,1467,-0.7535041007701829,-0.8,0.0,1.0,293.0,585.0,1.0,0,122.0,1
1468,1468,0.13752773228473514,0.1,0.0,0.0,372.0,992.0,0.0,1,246.0,1
1469,1469,-0.16704275097153232,-0.2,1.0,0.0,459.0,764.0,0.0,0,357.0,1
1470,1470,-0.7415979395137302,-0.7,0.0,1.0,388.0,679.0,1.0,0,153.0,1
1471,1471,0.45735648313436006,0.5,0.0,0.0,274.0,959.0,0.0,1,137.0,1
1472,1472,0.41935381955936435,0.4,0.0,0.0,427.0,709.0,0.0,1,264.0,1
1473,1473,-0.5851086211120424,-0.6,0.0,1.0,342.0,768.0,1.0,0,270.0,1
1474,1474,-0.4918006145796936,-0.5,1.0,0.0,334.0,928.0,0.0,0,418.0,1
1475,1475,0.30958911250133114,0.3,1.0,1.0,375.0,557.0,1.0,1,408.0,1
1476,1476,-0.718275686156453,-0.7,1.0,0.0,474.0,803.0,0.0,0,123.0,1
1477,1477,-0.4408522303252461,-0.4,1.0,0.0,306.0,932.0,0.0,0,152.0,1
1478,1478,-0.10830332868467452,-0.1,0.0,1.0,319.0,516.0,1.0,0,635.0,1
1479,1479,0.47668170104964924,0.5,1.0,1.0,411.0,757.0,1.0,1,132.0,1
1480,1480,0.11588001510957635,0.1,1.0,1.0,476.0,732.0,1.0,1,362.0,1
1481,1481,0.5348817752192906,0.5,0.0,0.0,284.0,797.0,0.0,1,169.0,1
1482,1482,-0.31466966633550086,-0.3,0.0,1.0,293.0,853.0,1.0,0,154.0,1
1483,1483,-0.8432537832786058,-0.8,1.0,0.0,258.0,612.0,0.0,0,220.0,1
1484,1484,0.3687770670984768,0.4,1.0,1.0,363.0,645.0,1.0,1,82.0,1
1485,1485,0.37191084701353117,0.4,1.0,1.0,442.0,826.0,1.0,1,112.0,1
1486,1486,0.3078523955814191,0.3,1.0,1.0,345.0,641.0,1.0,1,274.0,1
1487,1487,-0.3519060226557338,-0.4,0.0,1.0,383.0,557.0,1.0,0,280.0,1
1488,1488,0.06142496266470643,0.1,1.0,1.0,366.0,918.0,1.0,1,896.0,1
1489,1489,-0.8525228317934372,-0.9,0.0,1.0,427.0,610.0,1.0,0,163.0,1
1490,1490,0.23979146023050524,0.2,1.0,1.0,421.0,685.0,1.0,1,404.0,1
1491,1491,-0.4296704370950313,-0.4,1.0,0.0,311.0,722.0,0.0,0,157.0,1
1492,1492,0.4845899890452451,0.5,1.0,1.0,386.0,517.0,1.0,1,407.0,1
1493,1493,0.09848666446698173,0.1,1.0,1.0,356.0,977.0,1.0,1,427.0,1
1494,1494,-0.037619004433015246,-0.0,0.0,1.0,293.0,848.0,1.0,0,1489.0,1
