,trial,coherence,coherence_bin,green_side,correct_side,target_onset,checker_onset,decision,green_decision,decision_time,correct_decision
0,0,-0.879573467356739,-0.9,0.0,1.0,401.0,940.0,0.0,1,1659.0,0
1,1,0.4493567821089842,0.4,1.0,1.0,375.0,842.0,0.0,0,-1187.0,0
2,2,-0.3116790383474487,-0.3,0.0,1.0,252.0,638.0,0.0,1,2110.0,0
3,3,-0.5911729027904662,-0.6,1.0,0.0,427.0,681.0,0.0,0,1892.0,1
4,4,0.8973901461294301,0.9,0.0,0.0,353.0,783.0,0.0,1,1864.0,1
5,5,-0.7652226947248818,-0.8,0.0,1.0,429.0,525.0,0.0,1,-934.0,0
6,6,0.5980550029591541,0.6,0.0,0.0,306.0,648.0,0.0,1,2046.0,1
7,7,0.14203067537129732,0.1,0.0,0.0,349.0,673.0,0.0,1,1978.0,1
8,8,-0.47362888702126277,-0.5,1.0,0.0,306.0,809.0,0.0,0,1885.0,1
9,9,0.5787674388798617,0.6,0.0,0.0,416.0,605.0,0.0,1,1979.0,1
10,10,0.7057946608595965,0.7,1.0,1.0,370.0,877.0,0.0,0,1753.0,0
11,11,0.8135368712659651,0.8,0.0,0.0,288.0,640.0,0.0,1,2072.0,1
12,12,-0.06891445582163591,-0.1,0.0,1.0,471.0,602.0,1.0,0,-1023.0,1
13,13,-0.35442189348683584,-0.4,1.0,0.0,481.0,685.0,0.0,0,1834.0,1
14,14,0.8813737304633552,0.9,1.0,1.0,364.0,733.0,0.0,0,1903.0,0
15,15,-0.5251743827097356,-0.5,1.0,0.0,451.0,556.0,0.0,0,1993.0,1
16,16,0.04029930859280151,0.0,0.0,0.0,466.0,551.0,0.0,1,1983.0,1
17,17,-0.5997180664260868,-0.6,0.0,1.0,435.0,989.0,1.0,0,-1404.0,1
18,18,0.5741175397098822,0.6,1.0,1.0,303.0,780.0,0.0,0,1917.0,0
19,19,0.8105400345468511,0.8,0.0,0.0,479.0,568.0,0.0,1,1953.0,1
20,20,0.2813393338050775,0.3,0.0,0.0,374.0,855.0,0.0,1,1771.0,1
21,21,0.40826185581624286,0.4,0.0,0.0,495.0,586.0,0.0,1,1919.0,1
22,22,0.692995473137561,0.7,0.0,0.0,288.0,935.0,1.0,0,-1193.0,0
23,23,-0.3672455190125903,-0.4,0.0,1.0,338.0,680.0,0.0,1,1982.0,0
24,24,0.3292367138568676,0.3,1.0,1.0,499.0,969.0,0.0,0,1532.0,0
25,25,0.17534636209202936,0.2,0.0,0.0,380.0,531.0,0.0,1,2089.0,1
26,26,-0.03722371959369586,-0.0,0.0,1.0,434.0,574.0,0.0,1,1992.0,0
27,27,-0.8146339087175057,-0.8,0.0,1.0,310.0,819.0,0.0,1,1871.0,0
28,28,0.17121644761561405,0.2,0.0,0.0,295.0,536.0,0.0,1,2169.0,1
29,29,0.4824717373853903,0.5,1.0,1.0,267.0,893.0,0.0,0,-1120.0,0
30,30,-0.6798802873917924,-0.7,0.0,1.0,496.0,574.0,0.0,1,1930.0,0
31,31,-0.7046621365456007,-0.7,0.0,1.0,275.0,573.0,0.0,1,2152.0,0
32,32,-0.19705284021895875,-0.2,0.0,1.0,414.0,677.0,0.0,1,1909.0,0
33,33,-0.49094101150678154,-0.5,0.0,1.0,357.0,739.0,1.0,0,-996.0,1
34,34,0.49475601208008346,0.5,0.0,0.0,329.0,751.0,0.0,1,1920.0,1
35,35,-0.4970836318587512,-0.5,1.0,0.0,426.0,820.0,0.0,0,1754.0,1
36,36,-0.8512767723383161,-0.9,1.0,0.0,375.0,581.0,0.0,0,2044.0,1
37,37,-0.4237950866424746,-0.4,1.0,0.0,282.0,611.0,0.0,0,2107.0,1
38,38,0.08635761655944685,0.1,0.0,0.0,359.0,677.0,0.0,1,1964.0,1
39,39,-0.13082940135663346,-0.1,0.0,1.0,268.0,563.0,0.0,1,2169.0,0
40,40,0.664924392157712,0.7,1.0,1.0,265.0,593.0,0.0,0,2142.0,0
41,41,-0.11100731597855873,-0.1,1.0,0.0,406.0,555.0,0.0,0,2039.0,1
42,42,-0.03788999253727876,-0.0,1.0,0.0,459.0,553.0,0.0,0,1988.0,1
43,43,0.43664157711846496,0.4,1.0,1.0,354.0,655.0,0.0,0,1991.0,0
44,44,0.6832052169017467,0.7,1.0,1.0,368.0,991.0,0.0,0,1641.0,0
45,45,0.10253687184732418,0.1,0.0,0.0,491.0,712.0,0.0,1,1797.0,1
46,46,-0.5671526625630857,-0.6,0.0,1.0,263.0,520.0,0.0,1,2217.0,0
47,47,-0.003690914238325793,-0.0,0.0,1.0,469.0,931.0,0.0,1,1600.0,0
48,48,0.08922136872580488,0.1,1.0,1.0,314.0,835.0,0.0,0,-1069.0,0
49,49,0.6939680797596622,0.7,0.0,0.0,410.0,920.0,0.0,1,-1330.0,1
50,50,-0.7111603101041278,-0.7,0.0,1.0,342.0,673.0,0.0,1,-965.0,0
51,51,0.1969511085243133,0.2,1.0,1.0,348.0,800.0,0.0,0,-1098.0,0
52,52,-0.498074252740142,-0.5,0.0,1.0,306.0,689.0,0.0,1,2005.0,0
53,53,0.41395872893590047,0.4,1.0,1.0,325.0,900.0,0.0,0,1775.0,0
54,54,0.3504716389272867,0.4,0.0,0.0,366.0,963.0,0.0,1,1671.0,1
55,55,-0.7753494486752999,-0.8,1.0,0.0,267.0,715.0,0.0,0,2018.0,1
56,56,-0.4754399886688528,-0.5,0.0,1.0,309.0,871.0,0.0,1,1820.0,0
57,57,-0.1316049914532098,-0.1,0.0,1.0,465.0,623.0,0.0,1,1912.0,0
58,58,-0.38259247836983024,-0.4,1.0,0.0,406.0,507.0,0.0,0,2087.0,1
59,59,0.5715232316487443,0.6,0.0,0.0,339.0,517.0,0.0,1,2144.0,1
60,60,-0.3420946660696781,-0.3,0.0,1.0,318.0,530.0,0.0,1,2152.0,0
61,61,-0.5619037783719449,-0.6,0.0,1.0,373.0,600.0,0.0,1,2027.0,0
62,62,-0.7886943499166623,-0.8,0.0,1.0,287.0,860.0,0.0,1,1853.0,0
63,63,0.6349602627977095,0.6,1.0,1.0,356.0,823.0,0.0,0,1821.0,0
64,64,0.06271436679223341,0.1,1.0,1.0,438.0,833.0,0.0,0,1729.0,0
65,65,-0.853923454866217,-0.9,1.0,0.0,253.0,695.0,0.0,0,2052.0,1
66,66,0.4617769701519657,0.5,1.0,1.0,382.0,960.0,0.0,0,1658.0,0
67,67,0.4856380892735911,0.5,0.0,0.0,321.0,727.0,0.0,1,1952.0,1
68,68,-0.5623427633235659,-0.6,1.0,0.0,327.0,589.0,0.0,0,2084.0,1
69,69,-0.6937924216905783,-0.7,0.0,1.0,415.0,908.0,0.0,1,1677.0,0
70,70,0.6639859759946111,0.7,1.0,1.0,303.0,976.0,0.0,0,1721.0,0
71,71,0.1268033008270938,0.1,1.0,1.0,306.0,694.0,0.0,0,2000.0,0
72,72,-0.8586288181852105,-0.9,0.0,1.0,412.0,592.0,0.0,1,1996.0,0
73,73,-0.4039541003233779,-0.4,1.0,0.0,257.0,680.0,0.0,0,2063.0,1
74,74,-0.2544431013248156,-0.3,0.0,1.0,421.0,652.0,0.0,1,1927.0,0
75,75,0.7297903834925635,0.7,0.0,0.0,410.0,703.0,1.0,0,-1063.0,0
76,76,0.4455123178567485,0.4,0.0,0.0,306.0,966.0,0.0,1,1728.0,1
77,77,-0.7880775546052899,-0.8,1.0,0.0,374.0,929.0,0.0,0,1697.0,1
78,78,-0.23345464703761587,-0.2,1.0,0.0,337.0,658.0,0.0,0,2005.0,1
79,79,0.5231865110364312,0.5,1.0,1.0,419.0,572.0,0.0,0,2009.0,0
80,80,0.8181703106371688,0.8,0.0,0.0,297.0,996.0,0.0,1,1707.0,1
81,81,0.6921097231019108,0.7,1.0,1.0,417.0,500.0,0.0,0,2083.0,0
82,82,0.6729584931286866,0.7,1.0,1.0,366.0,883.0,0.0,0,1751.0,0
83,83,-0.1943419374310228,-0.2,0.0,1.0,293.0,717.0,0.0,1,1990.0,0
84,84,0.2529946944618132,0.3,0.0,0.0,466.0,666.0,0.0,1,1868.0,1
85,85,-0.6606513423387139,-0.7,1.0,0.0,486.0,894.0,0.0,0,1620.0,1
86,86,0.27203673988181387,0.3,0.0,0.0,364.0,807.0,0.0,1,1829.0,1
87,87,-0.013771632197091987,-0.0,1.0,0.0,316.0,948.0,0.0,0,1736.0,1
88,88,0.04589144683368518,0.0,0.0,0.0,448.0,944.0,0.0,1,1608.0,1
89,89,-0.17463859565731543,-0.2,1.0,0.0,436.0,820.0,0.0,0,1744.0,1
90,90,0.6011482920930115,0.6,1.0,1.0,272.0,713.0,0.0,0,2015.0,0
91,91,-0.724558650766864,-0.7,1.0,0.0,389.0,945.0,0.0,0,1666.0,1
92,92,0.8700025192248567,0.9,0.0,0.0,421.0,824.0,0.0,1,1755.0,1
93,93,0.37058172891006047,0.4,1.0,1.0,384.0,799.0,0.0,0,1817.0,0
94,94,0.6963528290404538,0.7,1.0,1.0,306.0,757.0,0.0,0,1937.0,0
95,95,-0.8730423870156172,-0.9,0.0,1.0,266.0,930.0,0.0,1,1804.0,0
96,96,0.28309125290564896,0.3,1.0,1.0,320.0,517.0,0.0,0,2163.0,0
97,97,0.15508205278880938,0.2,0.0,0.0,268.0,860.0,0.0,1,1872.0,1
98,98,-0.893695999209257,-0.9,0.0,1.0,429.0,677.0,0.0,1,1894.0,0
99,99,0.030858266249867428,0.0,0.0,0.0,414.0,523.0,0.0,1,2063.0,1
100,100,-0.5927336433421134,-0.6,0.0,1.0,331.0,842.0,1.0,0,-1053.0,1
101,101,0.5771346621097372,0.6,1.0,1.0,446.0,798.0,0.0,0,1756.0,0
102,102,-0.044718433590908324,-0.0,1.0,0.0,285.0,551.0,0.0,0,2164.0,1
103,103,-0.4267655224270399,-0.4,1.0,0.0,328.0,715.0,0.0,0,1957.0,1
104,104,0.5243142369723061,0.5,1.0,1.0,349.0,514.0,0.0,0,2137.0,0
105,105,0.633506245357948,0.6,0.0,0.0,290.0,668.0,0.0,1,2042.0,1
106,106,0.358896461422365,0.4,0.0,0.0,397.0,938.0,0.0,1,1665.0,1
107,107,0.03624188792842675,0.0,0.0,0.0,484.0,819.0,0.0,1,-1283.0,1
108,108,0.3083641503604334,0.3,0.0,0.0,368.0,937.0,0.0,1,1695.0,1
109,109,-0.005383740868917353,-0.0,0.0,1.0,321.0,606.0,0.0,1,-867.0,0
110,110,-0.30667116765428815,-0.3,1.0,0.0,395.0,576.0,0.0,0,2029.0,1
111,111,-0.030906972746367445,-0.0,0.0,1.0,457.0,644.0,0.0,1,1899.0,0
112,112,-0.13592253550066413,-0.1,0.0,1.0,444.0,777.0,0.0,1,1779.0,0
113,113,0.8714974530271516,0.9,1.0,1.0,497.0,541.0,0.0,0,1962.0,0
114,114,0.8161340639611022,0.8,0.0,0.0,333.0,714.0,0.0,1,1953.0,1
115,115,0.5967920709700804,0.6,1.0,1.0,365.0,758.0,0.0,0,1877.0,0
116,116,0.8116891344473335,0.8,1.0,1.0,381.0,826.0,0.0,0,1793.0,0
117,117,-0.06126403998774177,-0.1,1.0,0.0,370.0,526.0,0.0,0,2104.0,1
118,118,0.6507089635045892,0.7,0.0,0.0,399.0,714.0,0.0,1,1887.0,1
119,119,-0.5023797193294135,-0.5,0.0,1.0,454.0,688.0,0.0,1,1858.0,0
120,120,0.77744689037995,0.8,1.0,1.0,274.0,901.0,0.0,0,1825.0,0
121,121,-0.450146653585865,-0.5,1.0,0.0,263.0,659.0,0.0,0,2078.0,1
122,122,-0.8199972484058535,-0.8,0.0,1.0,456.0,845.0,0.0,1,1699.0,0
123,123,-0.3757597163155495,-0.4,0.0,1.0,280.0,938.0,0.0,1,1782.0,0
124,124,-0.3854475450517223,-0.4,1.0,0.0,327.0,963.0,0.0,0,1710.0,1
125,125,-0.3883843473377222,-0.4,0.0,1.0,377.0,511.0,0.0,1,2112.0,0
126,126,0.388729293767626,0.4,1.0,1.0,486.0,843.0,0.0,0,1671.0,0
127,127,-0.3498496962862364,-0.3,1.0,0.0,351.0,674.0,0.0,0,1975.0,1
128,128,-0.21497629510009486,-0.2,1.0,0.0,255.0,995.0,0.0,0,1750.0,1
129,129,0.6107230261882813,0.6,0.0,0.0,269.0,700.0,0.0,1,2031.0,1
130,130,-0.2113673962259205,-0.2,0.0,1.0,399.0,828.0,0.0,1,1773.0,0
131,131,0.16684218256533934,0.2,0.0,0.0,369.0,543.0,0.0,1,2088.0,1
132,132,-0.061956450737517876,-0.1,1.0,0.0,383.0,975.0,0.0,0,1642.0,1
133,133,0.5576174711279548,0.6,0.0,0.0,435.0,946.0,0.0,1,-1321.0,1
134,134,0.16839913537261053,0.2,0.0,0.0,273.0,914.0,0.0,1,1813.0,1
135,135,-0.49167334987897066,-0.5,1.0,0.0,407.0,845.0,0.0,0,1748.0,1
136,136,-0.5968859853177377,-0.6,0.0,1.0,370.0,772.0,0.0,1,1858.0,0
137,137,0.2502354493617295,0.3,0.0,0.0,448.0,670.0,0.0,1,1882.0,1
138,138,-0.6182533022803327,-0.6,1.0,0.0,421.0,855.0,0.0,0,1724.0,1
139,139,-0.33014985209324277,-0.3,0.0,1.0,493.0,866.0,0.0,1,1641.0,0
140,140,-0.30545404898724315,-0.3,1.0,0.0,410.0,792.0,0.0,0,1798.0,1
141,141,-0.1034003853913733,-0.1,1.0,0.0,443.0,899.0,0.0,0,-1342.0,1
142,142,0.38282089040287925,0.4,0.0,0.0,309.0,669.0,0.0,1,-938.0,1
143,143,0.010261491650943477,0.0,1.0,1.0,314.0,977.0,1.0,1,-1061.0,1
144,144,0.27909646402621424,0.3,1.0,1.0,497.0,710.0,0.0,0,1793.0,0
145,145,-0.4774803449209626,-0.5,0.0,1.0,306.0,534.0,1.0,0,-830.0,1
146,146,0.5619990042651682,0.6,1.0,1.0,409.0,557.0,0.0,0,2034.0,0
147,147,-0.46883026619637863,-0.5,1.0,0.0,305.0,570.0,0.0,0,2125.0,1
148,148,-0.22297022789202714,-0.2,1.0,0.0,274.0,718.0,0.0,0,2008.0,1
149,149,0.39760127669300405,0.4,1.0,1.0,252.0,988.0,0.0,0,1760.0,0
150,150,-0.40865024470473377,-0.4,0.0,1.0,284.0,982.0,0.0,1,1734.0,0
151,151,-0.8805665738834,-0.9,1.0,0.0,378.0,566.0,0.0,0,2056.0,1
152,152,0.5478839162905126,0.5,1.0,1.0,363.0,537.0,0.0,0,2100.0,0
153,153,-0.7172778589736908,-0.7,1.0,0.0,289.0,703.0,0.0,0,2008.0,1
154,154,-0.8939760585894422,-0.9,1.0,0.0,450.0,805.0,1.0,1,-1255.0,0
155,155,0.3178635110396061,0.3,0.0,0.0,397.0,829.0,0.0,1,1774.0,1
156,156,0.013809181589596542,0.0,1.0,1.0,293.0,777.0,0.0,0,1930.0,0
157,157,0.7629232205109554,0.8,0.0,0.0,388.0,673.0,0.0,1,1939.0,1
158,158,-0.07336467960038395,-0.1,0.0,1.0,384.0,982.0,0.0,1,1634.0,0
159,159,0.4770758674134191,0.5,1.0,1.0,302.0,921.0,0.0,0,1777.0,0
160,160,0.4339714111622174,0.4,0.0,0.0,273.0,878.0,0.0,1,1849.0,1
161,161,-0.7010404276201379,-0.7,1.0,0.0,446.0,942.0,0.0,0,1612.0,1
162,162,-0.5150081841525043,-0.5,0.0,1.0,420.0,582.0,0.0,1,-822.0,0
163,163,0.47313695306157755,0.5,0.0,0.0,363.0,512.0,0.0,1,2125.0,1
164,164,0.23899697980324885,0.2,1.0,1.0,254.0,642.0,0.0,0,2104.0,0
165,165,-0.8795933779197995,-0.9,0.0,1.0,320.0,699.0,0.0,1,1981.0,0
166,166,-0.2529690345956589,-0.3,1.0,0.0,389.0,577.0,0.0,0,-836.0,1
167,167,0.08892527209702294,0.1,0.0,0.0,265.0,633.0,0.0,1,2102.0,1
168,168,-0.4999873339978869,-0.5,1.0,0.0,324.0,967.0,0.0,0,1709.0,1
169,169,0.5096881110284363,0.5,1.0,1.0,282.0,659.0,0.0,0,2059.0,0
170,170,0.49089741552751087,0.5,0.0,0.0,315.0,555.0,0.0,1,2130.0,1
171,171,-0.4609295142556995,-0.5,0.0,1.0,424.0,966.0,0.0,1,1610.0,0
172,172,-0.49944113671745255,-0.5,1.0,0.0,383.0,753.0,0.0,0,1864.0,1
173,173,0.41844627405684276,0.4,0.0,0.0,401.0,615.0,1.0,0,-876.0,0
174,174,-0.5808214070392126,-0.6,0.0,1.0,404.0,510.0,0.0,1,2086.0,0
175,175,-0.791321175329768,-0.8,0.0,1.0,493.0,992.0,0.0,1,1515.0,0
176,176,0.19244258335207054,0.2,0.0,0.0,389.0,625.0,0.0,1,1986.0,1
177,177,0.08705056558546176,0.1,1.0,1.0,309.0,796.0,1.0,1,-1075.0,1
178,178,0.11616374839599819,0.1,1.0,1.0,399.0,844.0,1.0,1,-1203.0,1
179,179,-0.5321047916503285,-0.5,0.0,1.0,478.0,632.0,0.0,1,1890.0,0
180,180,0.2627657262617936,0.3,0.0,0.0,307.0,634.0,0.0,1,2059.0,1
181,181,-0.27975641496501336,-0.3,1.0,0.0,366.0,620.0,0.0,0,-966.0,1
182,182,0.7361559004313364,0.7,1.0,1.0,278.0,845.0,0.0,0,1877.0,0
183,183,-0.6956264388559559,-0.7,0.0,1.0,421.0,926.0,1.0,0,-1227.0,1
184,184,0.19805359587891613,0.2,0.0,0.0,405.0,505.0,0.0,1,2090.0,1
185,185,0.7354833507941884,0.7,0.0,0.0,419.0,571.0,0.0,1,2010.0,1
186,186,0.29348049728935355,0.3,0.0,0.0,408.0,769.0,1.0,0,-1137.0,0
187,187,-0.641824910521591,-0.6,1.0,0.0,453.0,598.0,0.0,0,1949.0,1
188,188,0.2760807688304533,0.3,1.0,1.0,372.0,891.0,0.0,0,1737.0,0
189,189,0.5698936824691213,0.6,0.0,0.0,343.0,765.0,0.0,1,1892.0,1
190,190,0.015308750150126338,0.0,1.0,1.0,290.0,569.0,0.0,0,2141.0,0
191,191,0.6146780383260378,0.6,0.0,0.0,363.0,812.0,0.0,1,1825.0,1
192,192,0.793558295939962,0.8,0.0,0.0,337.0,645.0,1.0,0,-712.0,0
193,193,0.7842081545257465,0.8,1.0,1.0,268.0,698.0,0.0,0,2034.0,0
194,194,0.8368604425972411,0.8,1.0,1.0,300.0,526.0,0.0,0,2174.0,0
195,195,0.14448316865789568,0.1,1.0,1.0,345.0,784.0,0.0,0,1871.0,0
196,196,0.3231334134577083,0.3,0.0,0.0,445.0,582.0,1.0,0,-967.0,0
197,197,-0.8063292067850771,-0.8,1.0,0.0,358.0,504.0,0.0,0,2138.0,1
198,198,-0.037566270705089444,-0.0,0.0,1.0,433.0,929.0,0.0,1,1638.0,0
199,199,0.27981164724651675,0.3,0.0,0.0,275.0,729.0,0.0,1,1996.0,1
200,200,0.4935706213700036,0.5,0.0,0.0,331.0,597.0,0.0,1,2072.0,1
201,201,0.18949094882680606,0.2,1.0,1.0,383.0,867.0,0.0,0,1750.0,0
202,202,-0.26729655228668125,-0.3,1.0,0.0,445.0,938.0,0.0,0,1617.0,1
203,203,0.30823055356200546,0.3,0.0,0.0,264.0,822.0,0.0,1,1914.0,1
204,204,0.8712075196493146,0.9,1.0,1.0,296.0,931.0,0.0,0,1773.0,0
205,205,0.036656554808879416,0.0,1.0,1.0,427.0,599.0,0.0,0,1974.0,0
206,206,-0.4832414324730997,-0.5,1.0,0.0,378.0,651.0,0.0,0,1971.0,1
207,207,-0.8938773648776616,-0.9,1.0,0.0,478.0,555.0,0.0,0,1967.0,1
208,208,-0.31076046118300404,-0.3,0.0,1.0,331.0,500.0,0.0,1,2169.0,0
209,209,-0.3779832891383237,-0.4,0.0,1.0,303.0,834.0,0.0,1,1863.0,0
210,210,0.37249884721614135,0.4,0.0,0.0,276.0,796.0,0.0,1,1928.0,1
211,211,0.544436328654578,0.5,0.0,0.0,305.0,753.0,0.0,1,-718.0,1
212,212,0.3496712440499009,0.3,0.0,0.0,365.0,608.0,0.0,1,2027.0,1
213,213,0.2926101668903597,0.3,1.0,1.0,347.0,966.0,0.0,0,1687.0,0
214,214,0.5926784545542544,0.6,0.0,0.0,306.0,894.0,0.0,1,1800.0,1
215,215,0.28120187131677377,0.3,0.0,0.0,426.0,510.0,0.0,1,2064.0,1
216,216,0.8534967863558288,0.9,1.0,1.0,294.0,672.0,1.0,1,-946.0,1
217,217,0.5674150298813015,0.6,0.0,0.0,267.0,792.0,0.0,1,1941.0,1
218,218,0.6654711820983529,0.7,0.0,0.0,275.0,923.0,0.0,1,1802.0,1
219,219,-0.2577879300572422,-0.3,1.0,0.0,463.0,604.0,0.0,0,1933.0,1
220,220,0.6267461348629025,0.6,1.0,1.0,425.0,843.0,0.0,0,1732.0,0
221,221,0.04447899100357766,0.0,0.0,0.0,350.0,654.0,0.0,1,1996.0,1
222,222,0.29984311114460194,0.3,1.0,1.0,303.0,680.0,0.0,0,2017.0,0
223,223,0.6515628954875868,0.7,0.0,0.0,302.0,933.0,0.0,1,1765.0,1
224,224,0.1042704127481281,0.1,0.0,0.0,262.0,635.0,0.0,1,2103.0,1
225,225,-0.10951588472814477,-0.1,1.0,0.0,295.0,712.0,0.0,0,1993.0,1
226,226,0.16084905830612162,0.2,1.0,1.0,418.0,654.0,0.0,0,1928.0,0
227,227,-0.16166941990809847,-0.2,1.0,0.0,320.0,603.0,0.0,0,2077.0,1
228,228,0.3351732615587143,0.3,1.0,1.0,404.0,573.0,1.0,1,-887.0,1
229,229,0.3257935940316884,0.3,1.0,1.0,280.0,612.0,0.0,0,2108.0,0
230,230,0.3341593469288503,0.3,1.0,1.0,315.0,945.0,0.0,0,1740.0,0
231,231,-0.5096746336295586,-0.5,1.0,0.0,444.0,892.0,0.0,0,1664.0,1
232,232,-0.44298902049789385,-0.4,1.0,0.0,336.0,976.0,0.0,0,1688.0,1
233,233,0.2513131629529818,0.3,0.0,0.0,282.0,848.0,0.0,1,1870.0,1
234,234,-0.3098825889161789,-0.3,0.0,1.0,456.0,914.0,0.0,1,1630.0,0
235,235,0.27517604669665696,0.3,0.0,0.0,277.0,881.0,1.0,0,-888.0,0
236,236,-0.079365314836494,-0.1,1.0,0.0,381.0,863.0,0.0,0,1756.0,1
237,237,0.666212550439886,0.7,1.0,1.0,374.0,767.0,0.0,0,1859.0,0
238,238,-0.4802299939822525,-0.5,1.0,0.0,387.0,541.0,0.0,0,2072.0,1
239,239,0.391236908086081,0.4,0.0,0.0,360.0,748.0,0.0,1,1892.0,1
240,240,-0.2906142394269009,-0.3,0.0,1.0,497.0,903.0,0.0,1,1600.0,0
241,241,-0.07998776332384439,-0.1,0.0,1.0,270.0,886.0,0.0,1,1844.0,0
242,242,0.6774551307428435,0.7,0.0,0.0,301.0,567.0,0.0,1,2132.0,1
243,243,-0.580712815975928,-0.6,1.0,0.0,392.0,902.0,0.0,0,1706.0,1
244,244,-0.005335901065283144,-0.0,0.0,1.0,446.0,973.0,0.0,1,1581.0,0
245,245,-0.39697171279853916,-0.4,1.0,0.0,370.0,959.0,0.0,0,1671.0,1
246,246,0.20852645236977352,0.2,0.0,0.0,462.0,964.0,0.0,1,1574.0,1
247,247,0.8471547978140302,0.8,1.0,1.0,356.0,945.0,0.0,0,1699.0,0
248,248,0.4247345632813023,0.4,1.0,1.0,312.0,615.0,0.0,0,2073.0,0
249,249,0.1424115517762462,0.1,0.0,0.0,440.0,920.0,0.0,1,-1360.0,1
250,250,-0.3075053986494244,-0.3,0.0,1.0,499.0,901.0,0.0,1,1600.0,0
251,251,0.39180360409202175,0.4,1.0,1.0,268.0,650.0,0.0,0,2082.0,0
252,252,0.2285738179627107,0.2,1.0,1.0,416.0,894.0,0.0,0,1690.0,0
253,253,0.6521083452903317,0.7,0.0,0.0,284.0,811.0,0.0,1,1905.0,1
254,254,0.03788355100762475,0.0,1.0,1.0,334.0,849.0,0.0,0,1817.0,0
255,255,0.32344588083870696,0.3,0.0,0.0,346.0,879.0,0.0,1,1775.0,1
256,256,0.6267295445745659,0.6,0.0,0.0,396.0,844.0,0.0,1,1760.0,1
257,257,0.03846867389812847,0.0,1.0,1.0,480.0,685.0,0.0,0,1835.0,0
258,258,-0.8374036014075653,-0.8,0.0,1.0,460.0,985.0,0.0,1,1555.0,0
259,259,-0.0638745955399106,-0.1,0.0,1.0,252.0,549.0,0.0,1,2199.0,0
260,260,-0.37301335927350576,-0.4,0.0,1.0,482.0,974.0,0.0,1,1544.0,0
261,261,0.5318622028147503,0.5,0.0,0.0,389.0,930.0,0.0,1,1681.0,1
262,262,-0.4619424344086999,-0.5,1.0,0.0,424.0,956.0,0.0,0,1620.0,1
263,263,0.5519435411110684,0.6,1.0,1.0,369.0,519.0,0.0,0,2112.0,0
264,264,0.8599433507618363,0.9,0.0,0.0,320.0,549.0,0.0,1,2131.0,1
265,265,0.288617746037093,0.3,1.0,1.0,408.0,946.0,0.0,0,1646.0,0
266,266,0.12549982244499336,0.1,1.0,1.0,351.0,995.0,1.0,1,-1076.0,1
267,267,-0.4354471516476794,-0.4,0.0,1.0,462.0,504.0,0.0,1,2034.0,0
268,268,0.7308408956273461,0.7,1.0,1.0,436.0,535.0,0.0,0,2029.0,0
269,269,-0.1447478075706865,-0.1,1.0,0.0,256.0,910.0,0.0,0,1834.0,1
270,270,-0.5301738520038555,-0.5,1.0,0.0,464.0,537.0,0.0,0,1999.0,1
271,271,0.24226406144804635,0.2,1.0,1.0,415.0,771.0,0.0,0,1814.0,0
272,272,-0.592647837344463,-0.6,1.0,0.0,449.0,556.0,0.0,0,1995.0,1
273,273,0.5133374965955436,0.5,1.0,1.0,477.0,831.0,0.0,0,1692.0,0
274,274,-0.4818265399049808,-0.5,0.0,1.0,314.0,528.0,0.0,1,2158.0,0
275,275,0.5340636741882493,0.5,1.0,1.0,445.0,571.0,0.0,0,1984.0,0
276,276,0.7692431669023599,0.8,0.0,0.0,478.0,831.0,0.0,1,1691.0,1
277,277,-0.6143085177411689,-0.6,0.0,1.0,372.0,959.0,1.0,0,-1011.0,1
278,278,0.022174121832472138,0.0,0.0,0.0,284.0,694.0,0.0,1,2022.0,1
279,279,-0.7412673284197538,-0.7,0.0,1.0,427.0,747.0,0.0,1,1826.0,0
280,280,-0.42801702174938716,-0.4,1.0,0.0,273.0,758.0,0.0,0,1969.0,1
281,281,0.23507458237388967,0.2,0.0,0.0,367.0,502.0,0.0,1,2131.0,1
282,282,-0.5828065546753294,-0.6,0.0,1.0,499.0,577.0,0.0,1,1924.0,0
283,283,0.40559895970371274,0.4,0.0,0.0,426.0,745.0,1.0,0,-1141.0,0
284,284,-0.07228770315817945,-0.1,0.0,1.0,297.0,778.0,0.0,1,1925.0,0
285,285,-0.5250413794839007,-0.5,1.0,0.0,334.0,898.0,0.0,0,1768.0,1
286,286,-0.2077567952727032,-0.2,1.0,0.0,479.0,563.0,0.0,0,1958.0,1
287,287,-0.1220620130017751,-0.1,0.0,1.0,266.0,774.0,0.0,1,1960.0,0
288,288,0.6169754016185284,0.6,0.0,0.0,358.0,672.0,0.0,1,1970.0,1
289,289,0.5023386821488961,0.5,0.0,0.0,296.0,922.0,0.0,1,1782.0,1
290,290,-0.5329105635317485,-0.5,0.0,1.0,419.0,847.0,0.0,1,1734.0,0
291,291,0.2856938089145723,0.3,0.0,0.0,256.0,871.0,1.0,0,-1017.0,0
292,292,-0.5397591845511662,-0.5,0.0,1.0,256.0,587.0,0.0,1,2157.0,0
293,293,0.478939903705606,0.5,1.0,1.0,449.0,742.0,0.0,0,1809.0,0
294,294,0.8502335281155834,0.9,1.0,1.0,388.0,958.0,0.0,0,1654.0,0
295,295,-0.6709504630968004,-0.7,0.0,1.0,269.0,696.0,1.0,0,-705.0,1
296,296,0.5951332702873185,0.6,0.0,0.0,400.0,900.0,0.0,1,1700.0,1
297,297,-0.8697601885318968,-0.9,1.0,0.0,308.0,765.0,0.0,0,1927.0,1
298,298,0.6477515491490692,0.6,0.0,0.0,483.0,954.0,0.0,1,1563.0,1
299,299,0.8330312896922908,0.8,0.0,0.0,401.0,725.0,0.0,1,1874.0,1
300,300,0.7449731696442993,0.7,0.0,0.0,418.0,512.0,0.0,1,2070.0,1
301,301,0.22774473003631635,0.2,1.0,1.0,483.0,837.0,0.0,0,1680.0,0
302,302,0.48773063246688186,0.5,1.0,1.0,292.0,829.0,0.0,0,1879.0,0
303,303,0.3936445796160114,0.4,0.0,0.0,484.0,995.0,1.0,0,-1189.0,0
304,304,-0.6936869708571488,-0.7,1.0,0.0,294.0,507.0,0.0,0,2199.0,1
305,305,0.5850127805887181,0.6,0.0,0.0,344.0,949.0,0.0,1,1707.0,1
306,306,-0.8589203001968586,-0.9,0.0,1.0,382.0,899.0,0.0,1,1719.0,0
307,307,0.7975669085781677,0.8,0.0,0.0,452.0,995.0,0.0,1,-1307.0,1
308,308,0.6452621696228079,0.6,1.0,1.0,498.0,795.0,0.0,0,1707.0,0
309,309,-0.6245683730681202,-0.6,0.0,1.0,432.0,577.0,0.0,1,1991.0,0
310,310,-0.7891725736500712,-0.8,1.0,0.0,493.0,993.0,0.0,0,1514.0,1
311,311,0.5028139596128299,0.5,0.0,0.0,337.0,662.0,0.0,1,2001.0,1
312,312,0.03703173053421871,0.0,0.0,0.0,267.0,730.0,0.0,1,2003.0,1
313,313,0.6752881523153601,0.7,0.0,0.0,363.0,991.0,0.0,1,1646.0,1
314,314,-0.6777635206593795,-0.7,0.0,1.0,372.0,945.0,0.0,1,1683.0,0
315,315,0.06239972503409885,0.1,0.0,0.0,449.0,795.0,0.0,1,1756.0,1
316,316,0.24789273102166887,0.2,0.0,0.0,319.0,625.0,0.0,1,2056.0,1
317,317,0.26819059152391633,0.3,1.0,1.0,477.0,849.0,0.0,0,1674.0,0
318,318,0.6670042932116728,0.7,1.0,1.0,327.0,761.0,0.0,0,1912.0,0
319,319,-0.8277677575848037,-0.8,0.0,1.0,445.0,611.0,0.0,1,1944.0,0
320,320,-0.412627239233966,-0.4,1.0,0.0,392.0,765.0,0.0,0,1843.0,1
321,321,-0.190752085506934,-0.2,0.0,1.0,282.0,680.0,0.0,1,2038.0,0
322,322,0.37564707573729417,0.4,0.0,0.0,269.0,892.0,1.0,0,-1101.0,0
323,323,0.6425043873232684,0.6,0.0,0.0,485.0,626.0,1.0,0,-1101.0,0
324,324,0.6299357566390168,0.6,1.0,1.0,337.0,885.0,0.0,0,1778.0,0
325,325,-0.5187309013650536,-0.5,1.0,0.0,281.0,990.0,0.0,0,1729.0,1
326,326,0.04316227339140066,0.0,0.0,0.0,361.0,674.0,0.0,1,1965.0,1
327,327,0.722449855854857,0.7,0.0,0.0,420.0,927.0,0.0,1,1653.0,1
328,328,-0.37213546674784026,-0.4,1.0,0.0,301.0,778.0,0.0,0,1921.0,1
329,329,0.46703452829370196,0.5,1.0,1.0,366.0,721.0,0.0,0,1913.0,0
330,330,-0.8520037177871796,-0.9,0.0,1.0,327.0,909.0,0.0,1,1764.0,0
331,331,-0.6990610471612353,-0.7,0.0,1.0,342.0,775.0,0.0,1,1883.0,0
332,332,-0.6337272458509595,-0.6,1.0,0.0,380.0,526.0,0.0,0,2094.0,1
333,333,0.5184405502305592,0.5,0.0,0.0,338.0,650.0,0.0,1,2012.0,1
334,334,0.5944151973001889,0.6,1.0,1.0,371.0,627.0,0.0,0,2002.0,0
335,335,-0.705128445666829,-0.7,0.0,1.0,467.0,638.0,1.0,0,-1045.0,1
336,336,0.7797937992874301,0.8,1.0,1.0,350.0,766.0,0.0,0,1884.0,0
337,337,-0.14220740262694198,-0.1,0.0,1.0,284.0,538.0,1.0,0,-672.0,1
338,338,-0.2303094216142929,-0.2,1.0,0.0,465.0,839.0,0.0,0,1696.0,1
339,339,0.11509107018657849,0.1,1.0,1.0,371.0,954.0,0.0,0,1675.0,0
340,340,0.44939865493890696,0.4,0.0,0.0,359.0,958.0,0.0,1,1683.0,1
341,341,0.06850151078026956,0.1,1.0,1.0,266.0,894.0,0.0,0,1840.0,0
342,342,-0.33647006325213413,-0.3,1.0,0.0,283.0,892.0,0.0,0,1825.0,1
343,343,0.02537739598631894,0.0,0.0,0.0,312.0,629.0,0.0,1,-911.0,1
344,344,0.40972220094359113,0.4,0.0,0.0,353.0,834.0,0.0,1,1813.0,1
345,345,-0.14701407746056905,-0.1,1.0,0.0,452.0,932.0,0.0,0,1616.0,1
346,346,-0.740457370164103,-0.7,1.0,0.0,310.0,590.0,0.0,0,2100.0,1
347,347,0.21536291233450877,0.2,0.0,0.0,311.0,737.0,0.0,1,1952.0,1
348,348,0.7134104298849416,0.7,0.0,0.0,370.0,767.0,0.0,1,1863.0,1
349,349,-0.041794540605504804,-0.0,1.0,0.0,484.0,918.0,0.0,0,1598.0,1
350,350,-0.7550038719658121,-0.8,1.0,0.0,434.0,870.0,1.0,1,-1184.0,0
351,351,0.3830482050024965,0.4,0.0,0.0,332.0,620.0,0.0,1,-922.0,1
352,352,0.7984932447848104,0.8,0.0,0.0,438.0,671.0,0.0,1,1891.0,1
353,353,0.7863085063128555,0.8,0.0,0.0,280.0,700.0,0.0,1,-950.0,1
354,354,-0.2354697630189695,-0.2,1.0,0.0,465.0,738.0,1.0,1,-993.0,0
355,355,0.06317575864241254,0.1,0.0,0.0,250.0,747.0,0.0,1,2003.0,1
356,356,-0.5041120007928128,-0.5,0.0,1.0,371.0,718.0,0.0,1,1911.0,0
357,357,-0.8408080288459607,-0.8,0.0,1.0,360.0,548.0,0.0,1,2092.0,0
358,358,-0.017352483133945218,-0.0,0.0,1.0,373.0,720.0,0.0,1,1907.0,0
359,359,0.7640948499399666,0.8,0.0,0.0,262.0,927.0,0.0,1,1811.0,1
360,360,0.8538564066392332,0.9,1.0,1.0,368.0,848.0,0.0,0,1784.0,0
361,361,-0.7152441567617812,-0.7,1.0,0.0,478.0,995.0,0.0,0,1527.0,1
362,362,0.5883673791965806,0.6,1.0,1.0,258.0,821.0,0.0,0,1921.0,0
363,363,0.7901399481027619,0.8,1.0,1.0,458.0,733.0,0.0,0,1809.0,0
364,364,-0.6946523811486155,-0.7,0.0,1.0,429.0,827.0,0.0,1,1744.0,0
365,365,0.40794235502952325,0.4,0.0,0.0,453.0,568.0,0.0,1,1979.0,1
366,366,0.6132508272857683,0.6,1.0,1.0,445.0,521.0,0.0,0,2034.0,0
367,367,0.6570032759445338,0.7,1.0,1.0,380.0,896.0,0.0,0,1724.0,0
368,368,-0.08222509335152361,-0.1,1.0,0.0,313.0,522.0,0.0,0,2165.0,1
369,369,0.7818914077317413,0.8,0.0,0.0,379.0,612.0,0.0,1,2009.0,1
370,370,0.47703773229267477,0.5,1.0,1.0,253.0,576.0,0.0,0,2171.0,0
371,371,-0.7107629915939551,-0.7,1.0,0.0,393.0,782.0,0.0,0,1825.0,1
372,372,0.369349686033677,0.4,1.0,1.0,490.0,988.0,0.0,0,1522.0,0
373,373,-0.8348968898654379,-0.8,1.0,0.0,456.0,866.0,0.0,0,1678.0,1
374,374,0.4002711264117821,0.4,1.0,1.0,362.0,974.0,0.0,0,1664.0,0
375,375,-0.41532365576398594,-0.4,0.0,1.0,274.0,526.0,0.0,1,2200.0,0
376,376,-0.05757706955778419,-0.1,1.0,0.0,329.0,758.0,0.0,0,-847.0,1
377,377,0.672391393137351,0.7,0.0,0.0,460.0,928.0,0.0,1,1612.0,1
378,378,-0.4165785096233546,-0.4,0.0,1.0,300.0,599.0,0.0,1,2101.0,0
379,379,-0.6275746050601099,-0.6,1.0,0.0,367.0,528.0,0.0,0,2105.0,1
380,380,0.13465589127820177,0.1,0.0,0.0,480.0,925.0,0.0,1,1595.0,1
381,381,0.7267537356869892,0.7,0.0,0.0,312.0,646.0,0.0,1,2042.0,1
382,382,-0.8660805682657111,-0.9,1.0,0.0,468.0,897.0,0.0,0,1635.0,1
383,383,0.8175846434594046,0.8,0.0,0.0,298.0,865.0,0.0,1,1837.0,1
384,384,0.1260380844653376,0.1,0.0,0.0,314.0,828.0,0.0,1,1858.0,1
385,385,0.20169552884414965,0.2,0.0,0.0,469.0,549.0,0.0,1,1982.0,1
386,386,0.4594511846010608,0.5,1.0,1.0,259.0,743.0,0.0,0,1998.0,0
387,387,0.1897891603024603,0.2,1.0,1.0,493.0,959.0,0.0,0,-1422.0,0
388,388,0.8110972605101737,0.8,0.0,0.0,338.0,889.0,0.0,1,1773.0,1
389,389,0.06500012814990785,0.1,0.0,0.0,338.0,633.0,0.0,1,2029.0,1
390,390,-0.8401838664034208,-0.8,0.0,1.0,437.0,571.0,0.0,1,1992.0,0
391,391,-0.47408196722378254,-0.5,1.0,0.0,493.0,815.0,0.0,0,1692.0,1
392,392,-0.27759493964950066,-0.3,0.0,1.0,499.0,548.0,0.0,1,-1037.0,0
393,393,0.6360413918758171,0.6,1.0,1.0,442.0,660.0,0.0,0,1898.0,0
394,394,-0.8663822063149897,-0.9,0.0,1.0,460.0,515.0,0.0,1,2025.0,0
395,395,-0.4370182376570945,-0.4,0.0,1.0,451.0,833.0,1.0,0,-1014.0,1
396,396,0.04033863048216857,0.0,0.0,0.0,318.0,676.0,0.0,1,2006.0,1
397,397,0.5610470369969706,0.6,0.0,0.0,298.0,758.0,0.0,1,1944.0,1
398,398,0.13500412304811127,0.1,1.0,1.0,309.0,832.0,0.0,0,-981.0,0
399,399,-0.7323718618387497,-0.7,1.0,0.0,484.0,757.0,0.0,0,1759.0,1
400,400,-0.7400212161142197,-0.7,1.0,0.0,375.0,992.0,0.0,0,1633.0,1
401,401,-0.0573658397463076,-0.1,0.0,1.0,366.0,975.0,0.0,1,1659.0,0
402,402,0.7234826274598246,0.7,0.0,0.0,285.0,601.0,0.0,1,2114.0,1
403,403,0.20098285382879377,0.2,0.0,0.0,300.0,776.0,0.0,1,1924.0,1
404,404,0.21362187790214893,0.2,1.0,1.0,422.0,541.0,1.0,1,-913.0,1
405,405,-0.6174563602117917,-0.6,1.0,0.0,270.0,617.0,0.0,0,2113.0,1
406,406,0.07392708130808578,0.1,1.0,1.0,458.0,612.0,0.0,0,1930.0,0
407,407,0.68409357740142,0.7,1.0,1.0,306.0,644.0,0.0,0,2050.0,0
408,408,0.46733579054416874,0.5,0.0,0.0,309.0,521.0,0.0,1,2170.0,1
409,409,-0.702431303400751,-0.7,1.0,0.0,425.0,653.0,0.0,0,1922.0,1
410,410,0.04809668030155401,0.0,0.0,0.0,284.0,891.0,0.0,1,1825.0,1
411,411,0.16335255499805357,0.2,0.0,0.0,300.0,611.0,0.0,1,2089.0,1
412,412,-0.41383392175446426,-0.4,0.0,1.0,362.0,603.0,0.0,1,2035.0,0
413,413,0.5514326019825723,0.6,1.0,1.0,394.0,843.0,0.0,0,1763.0,0
414,414,0.31061909958707223,0.3,1.0,1.0,378.0,649.0,0.0,0,1973.0,0
415,415,0.20772628474699129,0.2,0.0,0.0,468.0,937.0,0.0,1,1595.0,1
416,416,-0.23174484036685017,-0.2,1.0,0.0,291.0,741.0,0.0,0,1968.0,1
417,417,-0.8192548223231478,-0.8,1.0,0.0,484.0,723.0,0.0,0,-1197.0,1
418,418,-0.541144542185644,-0.5,0.0,1.0,346.0,764.0,0.0,1,1890.0,0
419,419,0.5655169587790202,0.6,0.0,0.0,346.0,824.0,0.0,1,1830.0,1
420,420,-0.07824049585943527,-0.1,1.0,0.0,344.0,885.0,0.0,0,-1219.0,1
421,421,0.04431356900062977,0.0,0.0,0.0,303.0,934.0,0.0,1,1763.0,1
422,422,-0.10444272590512693,-0.1,1.0,0.0,302.0,519.0,1.0,1,-801.0,0
423,423,0.2020284053600233,0.2,0.0,0.0,275.0,987.0,0.0,1,1738.0,1
424,424,0.7081497308634151,0.7,1.0,1.0,495.0,566.0,0.0,0,1939.0,0
425,425,0.501624036052344,0.5,0.0,0.0,343.0,743.0,0.0,1,1914.0,1
426,426,0.6607294907409024,0.7,0.0,0.0,325.0,915.0,0.0,1,1760.0,1
427,427,-0.014069488102401162,-0.0,0.0,1.0,380.0,992.0,0.0,1,1628.0,0
428,428,-0.3128874812629967,-0.3,1.0,0.0,365.0,535.0,0.0,0,2100.0,1
429,429,0.823249883951377,0.8,0.0,0.0,378.0,960.0,1.0,0,-1208.0,0
430,430,0.7309887921328381,0.7,0.0,0.0,282.0,702.0,0.0,1,2016.0,1
431,431,0.36245143078507114,0.4,0.0,0.0,365.0,941.0,0.0,1,1694.0,1
432,432,-0.029983751480434084,-0.0,0.0,1.0,491.0,844.0,0.0,1,1665.0,0
433,433,0.16429989492179853,0.2,0.0,0.0,339.0,821.0,0.0,1,-1110.0,1
434,434,0.7242125286461639,0.7,0.0,0.0,316.0,827.0,0.0,1,1857.0,1
435,435,0.3231680554460751,0.3,0.0,0.0,280.0,942.0,0.0,1,1778.0,1
436,436,0.5539719405312117,0.6,0.0,0.0,336.0,581.0,0.0,1,2083.0,1
437,437,-0.7319216967236779,-0.7,1.0,0.0,367.0,956.0,0.0,0,1677.0,1
438,438,0.14387565176171824,0.1,1.0,1.0,466.0,732.0,0.0,0,1802.0,0
439,439,0.24132459402674022,0.2,1.0,1.0,338.0,725.0,0.0,0,1937.0,0
440,440,0.018588104066135536,0.0,1.0,1.0,487.0,937.0,0.0,0,1576.0,0
441,441,-0.5980567940113116,-0.6,0.0,1.0,390.0,790.0,0.0,1,1820.0,0
442,442,-0.09022580872318497,-0.1,0.0,1.0,289.0,920.0,0.0,1,1791.0,0
443,443,0.4684490512770333,0.5,1.0,1.0,359.0,727.0,0.0,0,1914.0,0
444,444,-0.09836890566199574,-0.1,1.0,0.0,442.0,904.0,0.0,0,1654.0,1
445,445,0.8790547426427194,0.9,0.0,0.0,478.0,740.0,0.0,1,1782.0,1
446,446,0.35495976999038314,0.4,0.0,0.0,491.0,730.0,0.0,1,1779.0,1
447,447,-0.885531847024193,-0.9,0.0,1.0,349.0,608.0,0.0,1,2043.0,0
448,448,-0.514741863878738,-0.5,1.0,0.0,318.0,922.0,1.0,1,-1230.0,0
449,449,0.47538438115622894,0.5,1.0,1.0,485.0,974.0,0.0,0,1541.0,0
450,450,-0.8433102779480395,-0.8,1.0,0.0,420.0,525.0,1.0,1,-675.0,0
451,451,0.170563500749234,0.2,1.0,1.0,343.0,900.0,0.0,0,-1223.0,0
452,452,-0.2880174516078723,-0.3,0.0,1.0,464.0,540.0,0.0,1,-994.0,0
453,453,0.10012412137734017,0.1,0.0,0.0,491.0,598.0,0.0,1,1911.0,1
454,454,0.7362055528864396,0.7,1.0,1.0,429.0,929.0,1.0,1,-1288.0,1
455,455,0.500529924465363,0.5,1.0,1.0,333.0,724.0,0.0,0,1943.0,0
456,456,0.8598128450518135,0.9,0.0,0.0,490.0,899.0,0.0,1,1611.0,1
457,457,0.5723223814661419,0.6,0.0,0.0,373.0,576.0,0.0,1,2051.0,1
458,458,-0.18782003761142196,-0.2,1.0,0.0,459.0,991.0,0.0,0,1550.0,1
459,459,-0.5306447162231678,-0.5,0.0,1.0,467.0,516.0,0.0,1,2017.0,0
460,460,-0.8257851193046758,-0.8,1.0,0.0,287.0,645.0,0.0,0,2068.0,1
461,461,0.7163412220090682,0.7,0.0,0.0,304.0,739.0,0.0,1,1957.0,1
462,462,-0.2548031982398138,-0.3,1.0,0.0,400.0,845.0,0.0,0,1755.0,1
463,463,-0.147953542248631,-0.1,1.0,0.0,344.0,624.0,0.0,0,2032.0,1
464,464,0.060363246686541805,0.1,1.0,1.0,366.0,946.0,0.0,0,1688.0,0
465,465,-0.8226849405613307,-0.8,0.0,1.0,327.0,883.0,1.0,0,-1150.0,1
466,466,-0.21531352098442413,-0.2,1.0,0.0,378.0,754.0,0.0,0,1868.0,1
467,467,0.29360206163638825,0.3,0.0,0.0,329.0,618.0,1.0,0,-887.0,0
468,468,-0.14788654528205836,-0.1,1.0,0.0,418.0,964.0,0.0,0,1618.0,1
469,469,0.7559504068494517,0.8,1.0,1.0,410.0,787.0,0.0,0,1803.0,0
470,470,-0.3983101691855758,-0.4,0.0,1.0,475.0,947.0,0.0,1,1578.0,0
471,471,-0.16062715400721528,-0.2,0.0,1.0,256.0,788.0,0.0,1,1956.0,0
472,472,-0.33646322855790944,-0.3,1.0,0.0,278.0,502.0,1.0,1,-640.0,0
473,473,-0.8059981032853,-0.8,0.0,1.0,256.0,868.0,1.0,0,-1114.0,1
474,474,-0.5827880405909576,-0.6,0.0,1.0,328.0,729.0,0.0,1,1943.0,0
475,475,-0.3881439627190283,-0.4,0.0,1.0,311.0,581.0,0.0,1,2108.0,0
476,476,-0.45139782435744186,-0.5,1.0,0.0,273.0,522.0,0.0,0,2205.0,1
477,477,0.40212965760222275,0.4,0.0,0.0,447.0,745.0,0.0,1,1808.0,1
478,478,0.32242246774830374,0.3,1.0,1.0,362.0,957.0,0.0,0,1681.0,0
479,479,-0.11107020684419844,-0.1,1.0,0.0,290.0,853.0,0.0,0,1857.0,1
480,480,0.2747940009811233,0.3,0.0,0.0,454.0,805.0,0.0,1,1741.0,1
481,481,0.22305184958187307,0.2,0.0,0.0,300.0,905.0,0.0,1,1795.0,1
482,482,0.5901294590620069,0.6,1.0,1.0,280.0,791.0,0.0,0,1929.0,0
483,483,0.8256599632106826,0.8,1.0,1.0,305.0,546.0,0.0,0,2149.0,0
484,484,0.5629360191830607,0.6,1.0,1.0,352.0,768.0,0.0,0,1880.0,0
485,485,0.46445649661125665,0.5,1.0,1.0,481.0,838.0,0.0,0,1681.0,0
486,486,-0.5035461541588433,-0.5,0.0,1.0,469.0,724.0,0.0,1,1807.0,0
487,487,-0.7964835076013602,-0.8,0.0,1.0,431.0,762.0,0.0,1,1807.0,0
488,488,-0.4894733539468101,-0.5,0.0,1.0,353.0,507.0,0.0,1,2140.0,0
489,489,0.1773480061938152,0.2,1.0,1.0,435.0,650.0,0.0,0,1915.0,0
490,490,0.4375258158717733,0.4,0.0,0.0,483.0,967.0,0.0,1,1550.0,1
491,491,-0.08545157837763939,-0.1,0.0,1.0,292.0,566.0,0.0,1,2142.0,0
492,492,0.7124813226036649,0.7,0.0,0.0,381.0,557.0,0.0,1,2062.0,1
493,493,0.10924409694382586,0.1,0.0,0.0,320.0,805.0,0.0,1,1875.0,1
494,494,-0.8348444937938033,-0.8,1.0,0.0,274.0,575.0,0.0,0,2151.0,1
495,495,0.45791927707562274,0.5,0.0,0.0,473.0,577.0,0.0,1,1950.0,1
496,496,-0.6994475339410816,-0.7,1.0,0.0,496.0,903.0,0.0,0,1601.0,1
497,497,-0.5301213884202083,-0.5,0.0,1.0,297.0,554.0,0.0,1,2149.0,0
498,498,-0.11938487303496126,-0.1,1.0,0.0,319.0,541.0,0.0,0,2140.0,1
499,499,0.7471489979611768,0.7,0.0,0.0,336.0,843.0,0.0,1,1821.0,1
500,500,0.7666035398858565,0.8,1.0,1.0,483.0,822.0,0.0,0,1695.0,0
501,501,-0.7426509638406802,-0.7,0.0,1.0,423.0,888.0,0.0,1,1689.0,0
502,502,0.549321407707008,0.5,1.0,1.0,450.0,540.0,0.0,0,2010.0,0
503,503,-0.2757236848755339,-0.3,1.0,0.0,266.0,544.0,0.0,0,2190.0,1
504,504,0.09307909041834805,0.1,0.0,0.0,402.0,825.0,0.0,1,1773.0,1
505,505,0.21328368185735613,0.2,1.0,1.0,303.0,614.0,0.0,0,2083.0,0
506,506,-0.19691433778737233,-0.2,0.0,1.0,334.0,536.0,0.0,1,2130.0,0
507,507,-0.7208086487032225,-0.7,1.0,0.0,351.0,804.0,0.0,0,1845.0,1
508,508,0.3373930632190151,0.3,0.0,0.0,340.0,826.0,0.0,1,-1096.0,1
509,509,-0.12993389911217046,-0.1,0.0,1.0,346.0,893.0,0.0,1,1761.0,0
510,510,0.8813427984034005,0.9,1.0,1.0,256.0,998.0,0.0,0,1746.0,0
511,511,0.8548750967512228,0.9,1.0,1.0,320.0,630.0,0.0,0,2050.0,0
512,512,-0.6221295317817508,-0.6,0.0,1.0,460.0,640.0,0.0,1,1900.0,0
513,513,0.2680395177924789,0.3,0.0,0.0,353.0,864.0,0.0,1,1783.0,1
514,514,-0.747803414852996,-0.7,1.0,0.0,407.0,538.0,0.0,0,2055.0,1
515,515,-0.4783225103824898,-0.5,0.0,1.0,305.0,565.0,0.0,1,2130.0,0
516,516,-0.12401496782286758,-0.1,0.0,1.0,455.0,752.0,0.0,1,1793.0,0
517,517,0.8296680213765409,0.8,0.0,0.0,429.0,537.0,0.0,1,2034.0,1
518,518,-0.2452681992234832,-0.2,1.0,0.0,451.0,725.0,0.0,0,1824.0,1
519,519,-0.4753111379847288,-0.5,0.0,1.0,342.0,940.0,0.0,1,1718.0,0
520,520,-0.24605179042539038,-0.2,0.0,1.0,387.0,603.0,0.0,1,2010.0,0
521,521,0.4881198754295223,0.5,1.0,1.0,290.0,760.0,0.0,0,1950.0,0
522,522,-0.1792224216242454,-0.2,0.0,1.0,380.0,819.0,0.0,1,1801.0,0
523,523,0.26800760174047744,0.3,0.0,0.0,427.0,583.0,0.0,1,1990.0,1
524,524,0.44870020972291214,0.4,0.0,0.0,405.0,748.0,0.0,1,1847.0,1
525,525,-0.3778063850310567,-0.4,1.0,0.0,419.0,862.0,0.0,0,1719.0,1
526,526,-0.811932668282472,-0.8,0.0,1.0,484.0,521.0,0.0,1,1995.0,0
527,527,-0.2947096394772014,-0.3,1.0,0.0,482.0,726.0,0.0,0,1792.0,1
528,528,-0.6056783129388563,-0.6,0.0,1.0,416.0,605.0,0.0,1,1979.0,0
529,529,0.3101340199125412,0.3,0.0,0.0,310.0,664.0,0.0,1,2026.0,1
530,530,-0.0036852680337865484,-0.0,0.0,1.0,380.0,610.0,1.0,0,-900.0,1
531,531,0.5726662162177664,0.6,1.0,1.0,383.0,602.0,0.0,0,2015.0,0
532,532,0.010875892445277535,0.0,1.0,1.0,282.0,846.0,0.0,0,1872.0,0
533,533,-0.1899875136648267,-0.2,0.0,1.0,344.0,807.0,0.0,1,1849.0,0
534,534,-0.12036374851161047,-0.1,1.0,0.0,484.0,623.0,0.0,0,1893.0,1
535,535,0.5404102553301567,0.5,0.0,0.0,499.0,774.0,0.0,1,1727.0,1
536,536,0.3597742333903132,0.4,0.0,0.0,414.0,813.0,0.0,1,1773.0,1
537,537,0.8286991368535227,0.8,0.0,0.0,451.0,977.0,0.0,1,1572.0,1
538,538,-0.1394738291308113,-0.1,0.0,1.0,280.0,790.0,1.0,0,-870.0,1
539,539,0.14842961953172973,0.1,0.0,0.0,487.0,784.0,0.0,1,1729.0,1
540,540,-0.3680089874082466,-0.4,1.0,0.0,348.0,693.0,0.0,0,1959.0,1
541,541,-0.23543506522117985,-0.2,1.0,0.0,334.0,581.0,0.0,0,2085.0,1
542,542,0.06508746124444598,0.1,0.0,0.0,372.0,675.0,0.0,1,1953.0,1
543,543,-0.659535365448755,-0.7,1.0,0.0,353.0,540.0,0.0,0,2107.0,1
544,544,-0.8341262118222534,-0.8,0.0,1.0,305.0,917.0,0.0,1,1778.0,0
545,545,0.6420837293165976,0.6,1.0,1.0,372.0,603.0,0.0,0,2025.0,0
546,546,0.26049143943927444,0.3,0.0,0.0,362.0,873.0,0.0,1,1765.0,1
547,547,0.49727253321422726,0.5,0.0,0.0,317.0,743.0,0.0,1,1940.0,1
548,548,-0.779730265864692,-0.8,1.0,0.0,355.0,754.0,0.0,0,1891.0,1
549,549,0.5379795741825367,0.5,1.0,1.0,292.0,502.0,0.0,0,2206.0,0
550,550,-0.7204176261766689,-0.7,1.0,0.0,340.0,820.0,0.0,0,-1100.0,1
551,551,-0.522495593295913,-0.5,1.0,0.0,308.0,845.0,0.0,0,1847.0,1
552,552,0.6455464127056766,0.6,1.0,1.0,426.0,727.0,0.0,0,1847.0,0
553,553,-0.1899844010434888,-0.2,1.0,0.0,436.0,840.0,0.0,0,1724.0,1
554,554,0.4122472027260785,0.4,1.0,1.0,291.0,762.0,0.0,0,1947.0,0
555,555,-0.7727530343606906,-0.8,0.0,1.0,435.0,922.0,0.0,1,1643.0,0
556,556,0.2445122821835951,0.2,0.0,0.0,316.0,961.0,0.0,1,1723.0,1
557,557,0.7591804531446683,0.8,1.0,1.0,440.0,997.0,0.0,0,1563.0,0
558,558,0.8560396257934498,0.9,0.0,0.0,353.0,671.0,0.0,1,1976.0,1
559,559,0.5895550500277632,0.6,0.0,0.0,254.0,870.0,0.0,1,1876.0,1
560,560,-0.765866651395618,-0.8,0.0,1.0,271.0,931.0,0.0,1,1798.0,0
561,561,-0.5137301753629246,-0.5,0.0,1.0,393.0,796.0,0.0,1,1811.0,0
562,562,-0.3654320909468718,-0.4,1.0,0.0,306.0,645.0,0.0,0,2049.0,1
563,563,-0.628021195286673,-0.6,0.0,1.0,453.0,970.0,0.0,1,1577.0,0
564,564,-0.6762837266196938,-0.7,0.0,1.0,254.0,949.0,0.0,1,1797.0,0
565,565,-0.06232648506548577,-0.1,1.0,0.0,446.0,593.0,0.0,0,1961.0,1
566,566,0.5236101846380862,0.5,0.0,0.0,309.0,984.0,0.0,1,1707.0,1
567,567,0.8793274643688543,0.9,0.0,0.0,347.0,657.0,0.0,1,1996.0,1
568,568,-0.38009283229280655,-0.4,1.0,0.0,274.0,798.0,0.0,0,1928.0,1
569,569,0.2839626307280706,0.3,0.0,0.0,432.0,912.0,0.0,1,1656.0,1
570,570,0.8255627442301224,0.8,0.0,0.0,352.0,979.0,0.0,1,1669.0,1
571,571,-0.3108289894329209,-0.3,1.0,0.0,335.0,509.0,0.0,0,2156.0,1
572,572,0.050618016734615745,0.1,0.0,0.0,462.0,510.0,0.0,1,2028.0,1
573,573,0.44425871806574924,0.4,1.0,1.0,335.0,507.0,0.0,0,-832.0,0
574,574,0.7237649257147462,0.7,1.0,1.0,385.0,944.0,0.0,0,1671.0,0
575,575,0.5693670284951237,0.6,0.0,0.0,400.0,999.0,0.0,1,1601.0,1
576,576,-0.2960103500123623,-0.3,0.0,1.0,263.0,981.0,0.0,1,1756.0,0
577,577,-0.419310936601937,-0.4,0.0,1.0,306.0,879.0,0.0,1,1815.0,0
578,578,0.42211519306442324,0.4,0.0,0.0,337.0,735.0,0.0,1,1928.0,1
579,579,0.47320836320135207,0.5,1.0,1.0,342.0,662.0,1.0,1,-874.0,1
580,580,-0.39316112007607484,-0.4,0.0,1.0,360.0,692.0,0.0,1,1948.0,0
581,581,-0.8389864755441316,-0.8,0.0,1.0,287.0,610.0,0.0,1,2103.0,0
582,582,-0.45190111680498796,-0.5,0.0,1.0,307.0,654.0,0.0,1,-951.0,0
583,583,-0.8621013357749274,-0.9,1.0,0.0,436.0,887.0,0.0,0,1677.0,1
584,584,-0.22257458202001112,-0.2,1.0,0.0,369.0,987.0,0.0,0,1644.0,1
585,585,-0.8485253992439332,-0.8,0.0,1.0,260.0,594.0,0.0,1,2146.0,0
586,586,0.6239205198826777,0.6,0.0,0.0,399.0,694.0,0.0,1,1907.0,1
587,587,0.5689313708076983,0.6,0.0,0.0,397.0,646.0,0.0,1,1957.0,1
588,588,0.5294807369655333,0.5,1.0,1.0,274.0,985.0,0.0,0,1741.0,0
589,589,-0.6038536111317969,-0.6,0.0,1.0,491.0,562.0,0.0,1,1947.0,0
590,590,0.609040034416027,0.6,0.0,0.0,327.0,667.0,0.0,1,2006.0,1
591,591,-0.310641490875761,-0.3,1.0,0.0,290.0,512.0,0.0,0,2198.0,1
592,592,-0.6162326223714221,-0.6,0.0,1.0,266.0,946.0,0.0,1,1788.0,0
593,593,-0.8096038084917528,-0.8,0.0,1.0,374.0,537.0,0.0,1,-861.0,0
594,594,0.8499606738588134,0.8,0.0,0.0,445.0,630.0,1.0,0,-1055.0,0
595,595,-0.05654007131716343,-0.1,1.0,0.0,318.0,523.0,0.0,0,2159.0,1
596,596,0.8834252113452393,0.9,1.0,1.0,399.0,567.0,0.0,0,-676.0,0
597,597,0.7182099223695436,0.7,0.0,0.0,250.0,629.0,1.0,0,-719.0,0
598,598,0.5414693622354562,0.5,0.0,0.0,450.0,849.0,0.0,1,1701.0,1
599,599,-0.4481433907083689,-0.4,1.0,0.0,370.0,695.0,0.0,0,1935.0,1
600,600,-0.24677404060968022,-0.2,1.0,0.0,408.0,764.0,0.0,0,-1152.0,1
601,601,0.7568761509425389,0.8,1.0,1.0,466.0,536.0,0.0,0,1998.0,0
602,602,-0.6474692103138808,-0.6,1.0,0.0,423.0,679.0,0.0,0,1898.0,1
603,603,-0.8552549541802811,-0.9,0.0,1.0,305.0,621.0,0.0,1,2074.0,0
604,604,-0.2932121675693862,-0.3,0.0,1.0,348.0,991.0,0.0,1,1661.0,0
605,605,0.49133007118893224,0.5,1.0,1.0,417.0,772.0,0.0,0,-1169.0,0
606,606,-0.49597439197044496,-0.5,1.0,0.0,427.0,922.0,0.0,0,1651.0,1
607,607,0.3422169967427876,0.3,0.0,0.0,322.0,639.0,1.0,0,-891.0,0
608,608,0.4004489753843937,0.4,1.0,1.0,338.0,886.0,0.0,0,1776.0,0
609,609,0.8759565984929288,0.9,1.0,1.0,374.0,776.0,0.0,0,1850.0,0
610,610,0.05483673862707683,0.1,0.0,0.0,324.0,528.0,0.0,1,2148.0,1
611,611,0.3936236756451973,0.4,1.0,1.0,490.0,662.0,0.0,0,1848.0,0
612,612,-0.6859723823991779,-0.7,0.0,1.0,340.0,815.0,0.0,1,1845.0,0
613,613,-0.29390240723140293,-0.3,1.0,0.0,394.0,954.0,0.0,0,1652.0,1
614,614,-0.4167856005332166,-0.4,1.0,0.0,291.0,732.0,0.0,0,1977.0,1
615,615,-0.31570546935049415,-0.3,0.0,1.0,461.0,582.0,0.0,1,1957.0,0
616,616,0.8862131177504055,0.9,1.0,1.0,292.0,873.0,0.0,0,1835.0,0
617,617,-0.6027802912090119,-0.6,1.0,0.0,336.0,963.0,0.0,0,1701.0,1
618,618,0.7921819678402936,0.8,0.0,0.0,306.0,733.0,0.0,1,1961.0,1
619,619,-0.31363281757746786,-0.3,0.0,1.0,262.0,741.0,0.0,1,1997.0,0
620,620,-0.57935039530904,-0.6,0.0,1.0,446.0,564.0,0.0,1,1990.0,0
621,621,-0.08518111253336091,-0.1,1.0,0.0,255.0,711.0,0.0,0,2034.0,1
622,622,-0.8479644227855532,-0.8,1.0,0.0,330.0,829.0,0.0,0,1841.0,1
623,623,-0.4493473802859998,-0.4,0.0,1.0,321.0,681.0,0.0,1,1998.0,0
624,624,-0.5402254220731948,-0.5,1.0,0.0,315.0,959.0,0.0,0,1726.0,1
625,625,0.32094810508167015,0.3,1.0,1.0,477.0,783.0,0.0,0,1740.0,0
626,626,-0.33286867319420677,-0.3,0.0,1.0,388.0,582.0,0.0,1,2030.0,0
627,627,0.7126667240078096,0.7,0.0,0.0,428.0,514.0,0.0,1,2058.0,1
628,628,0.7315909822342742,0.7,0.0,0.0,341.0,924.0,0.0,1,1735.0,1
629,629,0.04171499153963987,0.0,0.0,0.0,474.0,524.0,0.0,1,2002.0,1
630,630,0.43334155606408775,0.4,0.0,0.0,321.0,905.0,0.0,1,1774.0,1
631,631,0.1477060118171455,0.1,1.0,1.0,411.0,872.0,1.0,1,-1263.0,1
632,632,0.5139787335172833,0.5,0.0,0.0,455.0,907.0,0.0,1,1638.0,1
633,633,-0.32127511365330563,-0.3,0.0,1.0,329.0,958.0,1.0,0,-1067.0,1
634,634,0.014473387537374038,0.0,1.0,1.0,275.0,758.0,0.0,0,1967.0,0
635,635,0.7395196060934716,0.7,1.0,1.0,315.0,785.0,0.0,0,1900.0,0
636,636,0.3695273299874572,0.4,1.0,1.0,376.0,609.0,0.0,0,2015.0,0
637,637,-0.6738219594520083,-0.7,0.0,1.0,490.0,999.0,0.0,1,1511.0,0
638,638,0.8153243039568833,0.8,0.0,0.0,435.0,931.0,0.0,1,1634.0,1
639,639,0.6722596409195344,0.7,0.0,0.0,431.0,668.0,0.0,1,1901.0,1
640,640,-0.43884123913992074,-0.4,0.0,1.0,431.0,661.0,1.0,0,-742.0,1
641,641,0.32063455027020293,0.3,1.0,1.0,287.0,928.0,0.0,0,1785.0,0
642,642,-0.7407522082721665,-0.7,1.0,0.0,313.0,962.0,0.0,0,1725.0,1
643,643,-0.7589371827342077,-0.8,0.0,1.0,417.0,620.0,0.0,1,1963.0,0
644,644,-0.460049294043367,-0.5,0.0,1.0,453.0,669.0,0.0,1,1878.0,0
645,645,-0.7357966372736728,-0.7,0.0,1.0,270.0,938.0,0.0,1,1792.0,0
646,646,-0.6674972747811286,-0.7,0.0,1.0,303.0,680.0,0.0,1,2017.0,0
647,647,0.13642560943377002,0.1,0.0,0.0,354.0,608.0,0.0,1,2038.0,1
648,648,-0.40026352464250353,-0.4,1.0,0.0,380.0,579.0,0.0,0,2041.0,1
649,649,0.7094889675872637,0.7,1.0,1.0,328.0,609.0,0.0,0,2063.0,0
650,650,0.39837551873238397,0.4,1.0,1.0,363.0,688.0,0.0,0,1949.0,0
651,651,-0.7480575998277637,-0.7,1.0,0.0,481.0,948.0,0.0,0,1571.0,1
652,652,-0.6641004597656731,-0.7,0.0,1.0,410.0,797.0,0.0,1,1793.0,0
653,653,-0.8031382351908037,-0.8,0.0,1.0,400.0,750.0,0.0,1,1850.0,0
654,654,-0.7627973556730833,-0.8,0.0,1.0,318.0,694.0,0.0,1,1988.0,0
655,655,0.34628170882395215,0.3,0.0,0.0,429.0,928.0,0.0,1,1643.0,1
656,656,-0.7203920982350697,-0.7,1.0,0.0,480.0,888.0,0.0,0,1632.0,1
657,657,-0.32326769950277023,-0.3,1.0,0.0,392.0,577.0,0.0,0,2031.0,1
658,658,0.8549090822633599,0.9,1.0,1.0,355.0,842.0,0.0,0,1803.0,0
659,659,-0.8360375489820033,-0.8,0.0,1.0,285.0,649.0,0.0,1,2066.0,0
660,660,0.46180989126284244,0.5,0.0,0.0,372.0,522.0,0.0,1,2106.0,1
661,661,0.49816392170310764,0.5,0.0,0.0,427.0,677.0,0.0,1,1896.0,1
662,662,-0.15118592340386816,-0.2,0.0,1.0,461.0,565.0,0.0,1,1974.0,0
663,663,-0.37667331134928095,-0.4,1.0,0.0,328.0,553.0,0.0,0,2119.0,1
664,664,-0.6852802184420057,-0.7,1.0,0.0,255.0,984.0,0.0,0,1761.0,1
665,665,-0.846557110511464,-0.8,0.0,1.0,310.0,742.0,0.0,1,1948.0,0
666,666,0.4920644671077189,0.5,0.0,0.0,396.0,541.0,1.0,0,-877.0,0
667,667,-0.7714900863580552,-0.8,0.0,1.0,319.0,626.0,0.0,1,-855.0,0
668,668,0.31747705823972827,0.3,0.0,0.0,328.0,582.0,0.0,1,2090.0,1
669,669,-0.09934147848262143,-0.1,1.0,0.0,455.0,721.0,0.0,0,1824.0,1
670,670,-0.5823477479434203,-0.6,1.0,0.0,408.0,754.0,0.0,0,1838.0,1
671,671,-0.4363945274141496,-0.4,0.0,1.0,257.0,969.0,0.0,1,1774.0,0
672,672,0.37389980244464527,0.4,0.0,0.0,357.0,746.0,0.0,1,1897.0,1
673,673,0.7278682874776589,0.7,1.0,1.0,435.0,681.0,0.0,0,1884.0,0
674,674,-0.5094464325195713,-0.5,1.0,0.0,375.0,735.0,0.0,0,1890.0,1
675,675,-0.19266672270200647,-0.2,0.0,1.0,316.0,513.0,0.0,1,2171.0,0
676,676,-0.600130462498802,-0.6,1.0,0.0,270.0,767.0,0.0,0,1963.0,1
677,677,0.22852598574108118,0.2,0.0,0.0,386.0,509.0,0.0,1,2105.0,1
678,678,-0.17599372833688665,-0.2,0.0,1.0,284.0,579.0,0.0,1,2137.0,0
679,679,0.5538973575994636,0.6,0.0,0.0,445.0,638.0,0.0,1,1917.0,1
680,680,0.025998444010768784,0.0,1.0,1.0,458.0,890.0,0.0,0,-1308.0,0
681,681,-0.7460368638934056,-0.7,1.0,0.0,399.0,911.0,0.0,0,1690.0,1
682,682,-0.6856834710688188,-0.7,1.0,0.0,487.0,716.0,0.0,0,1797.0,1
683,683,0.8076949898951483,0.8,0.0,0.0,375.0,724.0,0.0,1,1901.0,1
684,684,0.779061459854634,0.8,1.0,1.0,411.0,990.0,0.0,0,1599.0,0
685,685,0.2668928681261665,0.3,0.0,0.0,439.0,930.0,0.0,1,1631.0,1
686,686,0.8085414892399697,0.8,1.0,1.0,339.0,984.0,0.0,0,1677.0,0
687,687,0.8482885327938555,0.8,1.0,1.0,498.0,947.0,0.0,0,1555.0,0
688,688,-0.2068377689443055,-0.2,0.0,1.0,294.0,874.0,0.0,1,1832.0,0
689,689,0.40735694877114226,0.4,0.0,0.0,421.0,652.0,0.0,1,1927.0,1
690,690,-0.6135168020502568,-0.6,1.0,0.0,337.0,786.0,0.0,0,1877.0,1
691,691,0.6359840853747604,0.6,1.0,1.0,319.0,774.0,0.0,0,1907.0,0
692,692,0.2810108927360814,0.3,0.0,0.0,489.0,586.0,0.0,1,1925.0,1
693,693,-0.6348494316023809,-0.6,1.0,0.0,396.0,937.0,0.0,0,1667.0,1
694,694,-0.00946090209587025,-0.0,0.0,1.0,375.0,597.0,0.0,1,2028.0,0
695,695,0.0052770872423570925,0.0,1.0,1.0,253.0,630.0,0.0,0,2117.0,0
696,696,-0.31396338820734937,-0.3,1.0,0.0,419.0,501.0,1.0,1,-890.0,0
697,697,-0.7420089792334013,-0.7,0.0,1.0,427.0,669.0,0.0,1,1904.0,0
698,698,-0.8336550364716627,-0.8,1.0,0.0,403.0,600.0,0.0,0,1997.0,1
699,699,-0.8558699342582182,-0.9,1.0,0.0,309.0,990.0,0.0,0,1701.0,1
700,700,-0.5763698010750333,-0.6,1.0,0.0,439.0,849.0,0.0,0,1712.0,1
701,701,0.6728843236061633,0.7,1.0,1.0,330.0,882.0,0.0,0,1788.0,0
702,702,-0.4992540687260652,-0.5,1.0,0.0,344.0,880.0,0.0,0,1776.0,1
703,703,-0.01887586282510767,-0.0,1.0,0.0,264.0,874.0,0.0,0,1862.0,1
704,704,0.612721961124668,0.6,0.0,0.0,255.0,646.0,0.0,1,2099.0,1
705,705,-0.791533437527536,-0.8,0.0,1.0,276.0,507.0,0.0,1,2217.0,0
706,706,0.11094854721100622,0.1,1.0,1.0,389.0,732.0,0.0,0,1879.0,0
707,707,0.3066520944211123,0.3,0.0,0.0,409.0,945.0,0.0,1,1646.0,1
708,708,0.325578824538188,0.3,0.0,0.0,311.0,638.0,0.0,1,2051.0,1
709,709,0.48758519535667333,0.5,0.0,0.0,409.0,993.0,1.0,0,-1352.0,0
710,710,0.8193546427841162,0.8,1.0,1.0,277.0,601.0,0.0,0,2122.0,0
711,711,-0.007406122983663832,-0.0,0.0,1.0,394.0,664.0,0.0,1,1942.0,0
712,712,0.20717042781888317,0.2,0.0,0.0,329.0,665.0,0.0,1,2006.0,1
713,713,-0.061691260911703294,-0.1,1.0,0.0,452.0,719.0,1.0,1,-1131.0,0
714,714,0.17488541544414937,0.2,0.0,0.0,352.0,790.0,0.0,1,1858.0,1
715,715,0.5232546750180717,0.5,0.0,0.0,273.0,548.0,0.0,1,2179.0,1
716,716,-0.8411628075948049,-0.8,0.0,1.0,377.0,916.0,0.0,1,1707.0,0
717,717,0.13023766359950095,0.1,1.0,1.0,424.0,827.0,0.0,0,1749.0,0
718,718,0.42754667745538544,0.4,1.0,1.0,327.0,671.0,0.0,0,2002.0,0
719,719,-0.09235802350964295,-0.1,0.0,1.0,399.0,589.0,0.0,1,2012.0,0
720,720,-0.10371754762336471,-0.1,0.0,1.0,425.0,935.0,1.0,0,-1310.0,1
721,721,-0.6170076030056202,-0.6,1.0,0.0,331.0,962.0,0.0,0,1707.0,1
722,722,-0.8538466818479443,-0.9,0.0,1.0,295.0,997.0,1.0,0,-902.0,1
723,723,-0.5015702961900206,-0.5,1.0,0.0,357.0,818.0,0.0,0,1825.0,1
724,724,0.4578294437776743,0.5,0.0,0.0,422.0,747.0,1.0,0,-1099.0,0
725,725,-0.7422179196832541,-0.7,0.0,1.0,273.0,928.0,1.0,0,-1171.0,1
726,726,-0.2611456680412825,-0.3,1.0,0.0,319.0,598.0,0.0,0,2083.0,1
727,727,0.5353842642231909,0.5,1.0,1.0,493.0,575.0,0.0,0,1932.0,0
728,728,-0.46676793417780466,-0.5,1.0,0.0,408.0,872.0,0.0,0,1720.0,1
729,729,0.7173508178551885,0.7,0.0,0.0,272.0,952.0,1.0,0,-1114.0,0
730,730,-0.5928351346795988,-0.6,1.0,0.0,280.0,550.0,0.0,0,2170.0,1
731,731,-0.7746551394789971,-0.8,1.0,0.0,451.0,973.0,0.0,0,1576.0,1
732,732,-0.25470590109369484,-0.3,0.0,1.0,279.0,546.0,1.0,0,-825.0,1
733,733,-0.3778071022818317,-0.4,0.0,1.0,493.0,733.0,0.0,1,1774.0,0
734,734,0.16758409296159293,0.2,0.0,0.0,309.0,513.0,0.0,1,2178.0,1
735,735,-0.8830114673993061,-0.9,1.0,0.0,344.0,740.0,0.0,0,1916.0,1
736,736,-0.5805331672790359,-0.6,1.0,0.0,342.0,902.0,0.0,0,1756.0,1
737,737,-0.35447430506039346,-0.4,0.0,1.0,470.0,792.0,0.0,1,1738.0,0
738,738,0.588879018578332,0.6,1.0,1.0,480.0,785.0,0.0,0,1735.0,0
739,739,0.4989173642778971,0.5,0.0,0.0,468.0,929.0,0.0,1,1603.0,1
740,740,-0.6549359355439616,-0.7,1.0,0.0,259.0,615.0,1.0,1,-834.0,0
741,741,0.4328899839009749,0.4,1.0,1.0,274.0,587.0,0.0,0,2139.0,0
742,742,0.2960165058576564,0.3,0.0,0.0,340.0,997.0,0.0,1,1663.0,1
743,743,0.7245391481322611,0.7,1.0,1.0,307.0,839.0,0.0,0,1854.0,0
744,744,0.5454598511798222,0.5,0.0,0.0,340.0,701.0,0.0,1,1959.0,1
745,745,0.16729101791526235,0.2,1.0,1.0,478.0,709.0,0.0,0,1813.0,0
746,746,0.39013081234500524,0.4,1.0,1.0,495.0,914.0,0.0,0,-1379.0,0
747,747,-0.4331985079337493,-0.4,1.0,0.0,311.0,593.0,0.0,0,2096.0,1
748,748,0.7269754467706676,0.7,1.0,1.0,258.0,886.0,0.0,0,1856.0,0
749,749,0.498148210098153,0.5,0.0,0.0,329.0,691.0,0.0,1,1980.0,1
750,750,0.2758189006690678,0.3,0.0,0.0,436.0,635.0,0.0,1,1929.0,1
751,751,0.7425687807491367,0.7,1.0,1.0,377.0,724.0,1.0,1,-831.0,1
752,752,0.4574284750046934,0.5,1.0,1.0,286.0,888.0,0.0,0,1826.0,0
753,753,0.06461649374271361,0.1,0.0,0.0,328.0,660.0,0.0,1,2012.0,1
754,754,0.2242989446457232,0.2,1.0,1.0,479.0,855.0,0.0,0,1666.0,0
755,755,0.09060521261634358,0.1,0.0,0.0,308.0,582.0,0.0,1,2110.0,1
756,756,-0.8927095635750185,-0.9,0.0,1.0,308.0,779.0,0.0,1,-1067.0,0
757,757,0.5292662289172335,0.5,0.0,0.0,307.0,987.0,0.0,1,1706.0,1
758,758,-0.6380545995017028,-0.6,1.0,0.0,264.0,959.0,0.0,0,1777.0,1
759,759,0.27433912172211816,0.3,0.0,0.0,369.0,542.0,0.0,1,2089.0,1
760,760,-0.5778179373407986,-0.6,1.0,0.0,278.0,868.0,0.0,0,-1106.0,1
761,761,0.23831237786864634,0.2,0.0,0.0,463.0,749.0,1.0,0,-832.0,0
762,762,0.8566100624090535,0.9,0.0,0.0,450.0,632.0,0.0,1,1918.0,1
763,763,-0.6145867683695593,-0.6,0.0,1.0,270.0,611.0,1.0,0,-541.0,1
764,764,-0.5950244422892963,-0.6,1.0,0.0,441.0,837.0,1.0,1,-1078.0,0
765,765,-0.6914350195774595,-0.7,1.0,0.0,252.0,628.0,0.0,0,2120.0,1
766,766,0.7759797013762103,0.8,0.0,0.0,432.0,679.0,0.0,1,1889.0,1
767,767,0.19087889152526316,0.2,1.0,1.0,357.0,620.0,0.0,0,2023.0,0
768,768,-0.18278088422362293,-0.2,0.0,1.0,294.0,517.0,0.0,1,2189.0,0
769,769,-0.8381929663051437,-0.8,1.0,0.0,451.0,541.0,0.0,0,2008.0,1
770,770,-0.06652807652364945,-0.1,1.0,0.0,427.0,771.0,0.0,0,1802.0,1
771,771,0.7598111970959581,0.8,0.0,0.0,334.0,713.0,0.0,1,1953.0,1
772,772,0.03676445627077762,0.0,1.0,1.0,448.0,540.0,0.0,0,2012.0,0
773,773,-0.6053170919275155,-0.6,1.0,0.0,434.0,654.0,0.0,0,1912.0,1
774,774,-0.5065964073949071,-0.5,0.0,1.0,472.0,778.0,0.0,1,1750.0,0
775,775,-0.4143278869023425,-0.4,1.0,0.0,264.0,602.0,0.0,0,2134.0,1
776,776,0.14763454619344396,0.1,1.0,1.0,352.0,863.0,0.0,0,1785.0,0
777,777,0.05574091099253786,0.1,0.0,0.0,309.0,814.0,0.0,1,1877.0,1
778,778,-0.25147167970980955,-0.3,1.0,0.0,408.0,920.0,0.0,0,1672.0,1
779,779,-0.7075904637826765,-0.7,1.0,0.0,421.0,829.0,1.0,1,-1140.0,0
780,780,0.3749063812938599,0.4,0.0,0.0,301.0,870.0,1.0,0,-1041.0,0
781,781,0.3841257290403838,0.4,1.0,1.0,431.0,993.0,0.0,0,1576.0,0
782,782,0.014246998532710498,0.0,1.0,1.0,259.0,573.0,0.0,0,2168.0,0
783,783,-0.27652961657591635,-0.3,1.0,0.0,386.0,641.0,0.0,0,1973.0,1
784,784,-0.5690229383689664,-0.6,0.0,1.0,277.0,826.0,0.0,1,1897.0,0
785,785,-0.026484485943296443,-0.0,1.0,0.0,341.0,858.0,0.0,0,1801.0,1
786,786,0.4131182716221461,0.4,1.0,1.0,479.0,524.0,0.0,0,1997.0,0
787,787,0.08243530904003082,0.1,1.0,1.0,421.0,804.0,0.0,0,1775.0,0
788,788,0.7752672643953268,0.8,0.0,0.0,325.0,915.0,0.0,1,1760.0,1
789,789,0.6627350238439537,0.7,1.0,1.0,416.0,971.0,0.0,0,1613.0,0
790,790,0.5852672638596487,0.6,0.0,0.0,442.0,857.0,0.0,1,1701.0,1
791,791,0.6484035270295249,0.6,1.0,1.0,483.0,856.0,0.0,0,1661.0,0
792,792,0.3887811806550977,0.4,1.0,1.0,338.0,808.0,0.0,0,1854.0,0
793,793,-0.8934512611799446,-0.9,1.0,0.0,289.0,673.0,1.0,1,-802.0,0
794,794,0.6362679255603373,0.6,0.0,0.0,260.0,821.0,0.0,1,1919.0,1
795,795,-0.6930873575066533,-0.7,0.0,1.0,423.0,991.0,0.0,1,1586.0,0
796,796,-0.7463135075481448,-0.7,1.0,0.0,433.0,787.0,0.0,0,1780.0,1
797,797,-0.08649622664840217,-0.1,0.0,1.0,283.0,761.0,0.0,1,1956.0,0
798,798,-0.5739945723591633,-0.6,1.0,0.0,397.0,691.0,0.0,0,1912.0,1
799,799,0.3307623199005364,0.3,0.0,0.0,304.0,754.0,0.0,1,1942.0,1
800,800,0.06174336209480058,0.1,1.0,1.0,345.0,557.0,0.0,0,2098.0,0
801,801,0.16456807181689592,0.2,1.0,1.0,437.0,557.0,0.0,0,2006.0,0
802,802,-0.8612099508918372,-0.9,0.0,1.0,352.0,657.0,0.0,1,-859.0,0
803,803,0.48367576360273257,0.5,1.0,1.0,455.0,923.0,0.0,0,1622.0,0
804,804,0.6745815903026992,0.7,1.0,1.0,447.0,976.0,0.0,0,1577.0,0
805,805,0.4913223298285735,0.5,0.0,0.0,447.0,542.0,0.0,1,2011.0,1
806,806,-0.18598705951847394,-0.2,0.0,1.0,439.0,601.0,0.0,1,1960.0,0
807,807,-0.3276467857294655,-0.3,0.0,1.0,413.0,934.0,0.0,1,1653.0,0
808,808,0.814233760819468,0.8,1.0,1.0,425.0,775.0,0.0,0,1800.0,0
809,809,0.3612135371027366,0.4,0.0,0.0,255.0,690.0,0.0,1,2055.0,1
810,810,0.12807734909952984,0.1,0.0,0.0,489.0,882.0,0.0,1,1629.0,1
811,811,-0.7318089313719884,-0.7,0.0,1.0,349.0,911.0,0.0,1,1740.0,0
812,812,0.43937202672410847,0.4,1.0,1.0,274.0,698.0,0.0,0,2028.0,0
813,813,-0.38119038821464546,-0.4,0.0,1.0,316.0,696.0,0.0,1,1988.0,0
814,814,0.531947027885531,0.5,1.0,1.0,488.0,763.0,0.0,0,1749.0,0
815,815,0.15440604606174235,0.2,1.0,1.0,448.0,522.0,0.0,0,2030.0,0
816,816,-0.5090740606801505,-0.5,0.0,1.0,475.0,961.0,0.0,1,1564.0,0
817,817,0.2962384827091188,0.3,0.0,0.0,345.0,964.0,0.0,1,1691.0,1
818,818,0.00034238100658068316,0.0,0.0,0.0,270.0,664.0,0.0,1,2066.0,1
819,819,-0.7053793686651908,-0.7,1.0,0.0,258.0,987.0,1.0,1,-1225.0,0
820,820,0.07451588214627258,0.1,0.0,0.0,293.0,500.0,0.0,1,2207.0,1
821,821,0.712682826007779,0.7,0.0,0.0,425.0,868.0,0.0,1,1707.0,1
822,822,0.681644693256794,0.7,0.0,0.0,310.0,984.0,0.0,1,1706.0,1
823,823,-0.28163200677540134,-0.3,1.0,0.0,473.0,740.0,0.0,0,1787.0,1
824,824,0.6719478305324079,0.7,1.0,1.0,487.0,731.0,0.0,0,1782.0,0
825,825,-0.5324754890476637,-0.5,0.0,1.0,444.0,698.0,1.0,0,-962.0,1
826,826,0.33969774390896357,0.3,1.0,1.0,485.0,760.0,0.0,0,1755.0,0
827,827,0.4965132515733167,0.5,1.0,1.0,346.0,944.0,1.0,1,-1090.0,1
828,828,-0.8515861276728007,-0.9,0.0,1.0,360.0,610.0,0.0,1,2030.0,0
829,829,0.4476521693483678,0.4,1.0,1.0,411.0,541.0,0.0,0,2048.0,0
830,830,-0.7596445332562289,-0.8,0.0,1.0,416.0,517.0,0.0,1,2067.0,0
831,831,-0.5292064769901064,-0.5,0.0,1.0,333.0,803.0,0.0,1,1864.0,0
832,832,-0.47334895623865214,-0.5,1.0,0.0,417.0,799.0,0.0,0,1784.0,1
833,833,-0.8953553163022674,-0.9,1.0,0.0,321.0,700.0,0.0,0,1979.0,1
834,834,-0.5289493361647103,-0.5,1.0,0.0,485.0,642.0,0.0,0,-1037.0,1
835,835,0.6233509526535052,0.6,1.0,1.0,353.0,709.0,0.0,0,1938.0,0
836,836,-0.28249466620599617,-0.3,1.0,0.0,399.0,814.0,0.0,0,1787.0,1
837,837,0.38943271195835194,0.4,0.0,0.0,316.0,534.0,0.0,1,2150.0,1
838,838,-0.5589312431408087,-0.6,1.0,0.0,468.0,876.0,0.0,0,1656.0,1
839,839,-0.07881687177954111,-0.1,0.0,1.0,309.0,637.0,0.0,1,2054.0,0
840,840,-0.602339563612216,-0.6,1.0,0.0,323.0,938.0,0.0,0,1739.0,1
841,841,-0.7607316900904445,-0.8,0.0,1.0,353.0,727.0,0.0,1,-970.0,0
842,842,-0.48194669862408446,-0.5,0.0,1.0,447.0,713.0,0.0,1,1840.0,0
843,843,0.3346785142370522,0.3,0.0,0.0,308.0,817.0,0.0,1,1875.0,1
844,844,0.29831698223108816,0.3,0.0,0.0,485.0,500.0,1.0,0,-665.0,0
845,845,0.8059352888472039,0.8,1.0,1.0,324.0,833.0,0.0,0,1843.0,0
846,846,0.859757256770571,0.9,1.0,1.0,268.0,908.0,0.0,0,1824.0,0
847,847,0.8596103806312435,0.9,1.0,1.0,439.0,545.0,0.0,0,2016.0,0
848,848,0.5229805491616605,0.5,0.0,0.0,379.0,725.0,0.0,1,1896.0,1
849,849,-0.012648155576470588,-0.0,0.0,1.0,441.0,698.0,0.0,1,1861.0,0
850,850,-0.16389310651711808,-0.2,0.0,1.0,299.0,758.0,0.0,1,1943.0,0
851,851,-0.09463257929513791,-0.1,1.0,0.0,339.0,747.0,0.0,0,1914.0,1
852,852,0.480462564329054,0.5,0.0,0.0,354.0,538.0,0.0,1,2108.0,1
853,853,-0.7738963695491936,-0.8,1.0,0.0,413.0,860.0,1.0,1,-1263.0,0
854,854,0.4472025930950013,0.4,0.0,0.0,361.0,613.0,0.0,1,2026.0,1
855,855,0.07586801690671485,0.1,0.0,0.0,422.0,578.0,0.0,1,2000.0,1
856,856,-0.5013626405759526,-0.5,1.0,0.0,458.0,954.0,0.0,0,1588.0,1
857,857,-0.7597471106163511,-0.8,0.0,1.0,281.0,640.0,0.0,1,2079.0,0
858,858,-0.4106851889151981,-0.4,1.0,0.0,266.0,936.0,0.0,0,1798.0,1
859,859,-0.2447488413233666,-0.2,0.0,1.0,436.0,704.0,0.0,1,1860.0,0
860,860,0.7399872056241944,0.7,0.0,0.0,269.0,904.0,0.0,1,1827.0,1
861,861,0.7226213707671717,0.7,0.0,0.0,318.0,824.0,0.0,1,1858.0,1
862,862,0.6093521424827361,0.6,0.0,0.0,301.0,840.0,0.0,1,1859.0,1
863,863,-0.7006651457579723,-0.7,0.0,1.0,373.0,976.0,0.0,1,1651.0,0
864,864,0.512139577207189,0.5,0.0,0.0,319.0,897.0,0.0,1,1784.0,1
865,865,-0.7570322870662426,-0.8,0.0,1.0,360.0,571.0,0.0,1,2069.0,0
866,866,-0.24420064618785509,-0.2,1.0,0.0,358.0,841.0,0.0,0,1801.0,1
867,867,0.007267399334423774,0.0,1.0,1.0,348.0,720.0,0.0,0,1932.0,0
868,868,0.09610661018242195,0.1,0.0,0.0,439.0,848.0,0.0,1,1713.0,1
869,869,0.011565534937858613,0.0,1.0,1.0,450.0,954.0,1.0,1,-1234.0,1
870,870,0.8605306930785298,0.9,0.0,0.0,280.0,934.0,0.0,1,1786.0,1
871,871,-0.8521352910569088,-0.9,1.0,0.0,469.0,635.0,0.0,0,1896.0,1
872,872,0.3302745227913392,0.3,1.0,1.0,405.0,539.0,0.0,0,2056.0,0
873,873,0.6357609108809937,0.6,1.0,1.0,397.0,554.0,0.0,0,2049.0,0
874,874,-0.3940347312593432,-0.4,1.0,0.0,479.0,642.0,0.0,0,1879.0,1
875,875,-0.1953758163314412,-0.2,0.0,1.0,338.0,811.0,1.0,0,-929.0,1
876,876,-0.7668371200361301,-0.8,1.0,0.0,417.0,879.0,0.0,0,1704.0,1
877,877,-0.09355711675802125,-0.1,1.0,0.0,457.0,920.0,0.0,0,1623.0,1
878,878,0.2523984416389532,0.3,1.0,1.0,265.0,989.0,0.0,0,1746.0,0
879,879,-0.6631798752601489,-0.7,1.0,0.0,274.0,636.0,0.0,0,2090.0,1
880,880,-0.7280963835965025,-0.7,1.0,0.0,308.0,521.0,0.0,0,2171.0,1
881,881,-0.2998333831297577,-0.3,0.0,1.0,459.0,603.0,0.0,1,1938.0,0
882,882,-0.20012562528995548,-0.2,0.0,1.0,471.0,579.0,0.0,1,1950.0,0
883,883,0.2263950007817287,0.2,1.0,1.0,329.0,845.0,0.0,0,1826.0,0
884,884,-0.0906921861312161,-0.1,1.0,0.0,435.0,892.0,0.0,0,1673.0,1
885,885,-0.6695575986425288,-0.7,0.0,1.0,443.0,554.0,1.0,0,-997.0,1
886,886,-0.13809484731391164,-0.1,1.0,0.0,347.0,630.0,0.0,0,2023.0,1
887,887,0.06983531993005487,0.1,1.0,1.0,464.0,626.0,0.0,0,1910.0,0
888,888,0.39333270881024707,0.4,1.0,1.0,330.0,630.0,0.0,0,2040.0,0
889,889,-0.40098888515755793,-0.4,0.0,1.0,381.0,790.0,0.0,1,1829.0,0
890,890,0.09782027849981056,0.1,0.0,0.0,265.0,676.0,0.0,1,2059.0,1
891,891,0.31100568600301026,0.3,1.0,1.0,325.0,520.0,0.0,0,2155.0,0
892,892,0.1141755898969784,0.1,1.0,1.0,298.0,877.0,0.0,0,1825.0,0
893,893,0.8877165537248736,0.9,1.0,1.0,412.0,645.0,0.0,0,1943.0,0
894,894,0.2977841081343372,0.3,0.0,0.0,304.0,624.0,0.0,1,2072.0,1
895,895,0.7975094291884249,0.8,1.0,1.0,444.0,876.0,0.0,0,1680.0,0
896,896,-0.7659554969683539,-0.8,0.0,1.0,375.0,564.0,0.0,1,2061.0,0
897,897,0.19217955331823322,0.2,0.0,0.0,355.0,526.0,1.0,0,-801.0,0
898,898,-0.5890959446671109,-0.6,0.0,1.0,254.0,581.0,0.0,1,2165.0,0
899,899,-0.4032445455866677,-0.4,1.0,0.0,460.0,510.0,0.0,0,2030.0,1
900,900,-0.06581952055949303,-0.1,0.0,1.0,495.0,601.0,0.0,1,1904.0,0
901,901,0.19363835962792353,0.2,1.0,1.0,276.0,928.0,0.0,0,-1174.0,0
902,902,-0.32629494008068605,-0.3,0.0,1.0,498.0,913.0,0.0,1,-1401.0,0
903,903,-0.13787253920431952,-0.1,0.0,1.0,286.0,990.0,0.0,1,1724.0,0
904,904,-0.48836295555633796,-0.5,0.0,1.0,430.0,550.0,0.0,1,2020.0,0
905,905,0.4965227465324381,0.5,1.0,1.0,409.0,540.0,0.0,0,2051.0,0
906,906,0.3174907724833135,0.3,0.0,0.0,384.0,789.0,1.0,0,-1103.0,0
907,907,0.6472207164743283,0.6,0.0,0.0,259.0,994.0,0.0,1,1747.0,1
908,908,-0.3227767178272223,-0.3,1.0,0.0,343.0,591.0,1.0,1,-904.0,0
909,909,-0.507905735321776,-0.5,0.0,1.0,328.0,700.0,0.0,1,1972.0,0
910,910,0.143244476096256,0.1,1.0,1.0,392.0,524.0,0.0,0,2084.0,0
911,911,-0.2487255812444743,-0.2,0.0,1.0,479.0,986.0,0.0,1,1535.0,0
912,912,-0.856886032924497,-0.9,1.0,0.0,297.0,764.0,0.0,0,-961.0,1
913,913,-0.632447749063988,-0.6,1.0,0.0,254.0,782.0,0.0,0,1964.0,1
914,914,0.43653087061190077,0.4,1.0,1.0,343.0,557.0,0.0,0,2100.0,0
915,915,-0.42082642456218994,-0.4,0.0,1.0,319.0,778.0,0.0,1,1903.0,0
916,916,-0.09915965103726998,-0.1,0.0,1.0,313.0,735.0,0.0,1,1952.0,0
917,917,0.49701289835781737,0.5,0.0,0.0,488.0,566.0,0.0,1,1946.0,1
918,918,0.19087975060764462,0.2,0.0,0.0,341.0,831.0,0.0,1,-1122.0,1
919,919,-0.13537469301416205,-0.1,0.0,1.0,378.0,713.0,0.0,1,1909.0,0
920,920,0.32534643155114773,0.3,0.0,0.0,425.0,598.0,0.0,1,1977.0,1
921,921,-0.5305965004125872,-0.5,1.0,0.0,368.0,947.0,0.0,0,1685.0,1
922,922,-0.10496850451349415,-0.1,0.0,1.0,477.0,719.0,0.0,1,1804.0,0
923,923,0.8015833331535157,0.8,0.0,0.0,346.0,501.0,0.0,1,2153.0,1
924,924,-0.6157726453972561,-0.6,1.0,0.0,417.0,788.0,0.0,0,1795.0,1
925,925,-0.019133521373347784,-0.0,1.0,0.0,392.0,855.0,0.0,0,1753.0,1
926,926,-0.7558478974153405,-0.8,0.0,1.0,275.0,628.0,0.0,1,2097.0,0
927,927,-0.38080416861060096,-0.4,1.0,0.0,275.0,774.0,0.0,0,1951.0,1
928,928,0.7659013215343694,0.8,1.0,1.0,292.0,798.0,1.0,1,-780.0,1
929,929,0.8431139391984982,0.8,0.0,0.0,362.0,678.0,0.0,1,1960.0,1
930,930,0.009003894093884912,0.0,1.0,1.0,361.0,732.0,0.0,0,1907.0,0
931,931,0.07910788788948142,0.1,1.0,1.0,478.0,585.0,0.0,0,1937.0,0
932,932,-0.1374099358897184,-0.1,1.0,0.0,265.0,803.0,0.0,0,1932.0,1
933,933,-0.18467819861598567,-0.2,0.0,1.0,277.0,752.0,0.0,1,1971.0,0
934,934,-0.884360182727624,-0.9,0.0,1.0,459.0,788.0,0.0,1,1753.0,0
935,935,0.5055232139485778,0.5,1.0,1.0,484.0,552.0,0.0,0,1964.0,0
936,936,0.5951369250412156,0.6,0.0,0.0,398.0,545.0,0.0,1,2057.0,1
937,937,0.17968967391197277,0.2,0.0,0.0,318.0,637.0,0.0,1,2045.0,1
938,938,0.44177402968941915,0.4,1.0,1.0,435.0,563.0,0.0,0,-828.0,0
939,939,-0.8127231134918469,-0.8,0.0,1.0,255.0,691.0,0.0,1,2054.0,0
940,940,-0.24778408530562035,-0.2,1.0,0.0,413.0,819.0,1.0,1,-922.0,0
941,941,0.6366209585066015,0.6,1.0,1.0,387.0,866.0,0.0,0,1747.0,0
942,942,0.2163393520874609,0.2,0.0,0.0,296.0,991.0,0.0,1,1713.0,1
943,943,0.3754154051045385,0.4,1.0,1.0,323.0,751.0,0.0,0,1926.0,0
944,944,-0.350210075601984,-0.4,0.0,1.0,342.0,950.0,0.0,1,-1262.0,0
945,945,-0.8501536015937112,-0.9,0.0,1.0,356.0,835.0,0.0,1,1809.0,0
946,946,0.5274698602880429,0.5,1.0,1.0,436.0,554.0,0.0,0,2010.0,0
947,947,0.08478831067724046,0.1,1.0,1.0,332.0,934.0,0.0,0,1734.0,0
948,948,0.7121365564995213,0.7,1.0,1.0,326.0,985.0,0.0,0,1689.0,0
949,949,0.86895035381995,0.9,0.0,0.0,270.0,824.0,0.0,1,1906.0,1
950,950,-0.31449033916524805,-0.3,0.0,1.0,416.0,524.0,0.0,1,-930.0,0
951,951,-0.7904823860189542,-0.8,1.0,0.0,413.0,760.0,0.0,0,1827.0,1
952,952,-0.2960011289205452,-0.3,0.0,1.0,313.0,693.0,0.0,1,1994.0,0
953,953,-0.1934875900766473,-0.2,1.0,0.0,325.0,835.0,0.0,0,-980.0,1
954,954,-0.3785607836211692,-0.4,0.0,1.0,357.0,743.0,0.0,1,1900.0,0
955,955,-0.2932196385835355,-0.3,0.0,1.0,332.0,664.0,1.0,0,-766.0,1
956,956,0.43283204359506866,0.4,0.0,0.0,348.0,724.0,0.0,1,1928.0,1
957,957,0.06896510613688245,0.1,0.0,0.0,416.0,573.0,0.0,1,2011.0,1
958,958,-0.7117266453693734,-0.7,1.0,0.0,480.0,696.0,0.0,0,-1156.0,1
959,959,0.8867199399179265,0.9,0.0,0.0,396.0,873.0,0.0,1,1731.0,1
960,960,0.5964216189353578,0.6,1.0,1.0,452.0,783.0,0.0,0,1765.0,0
961,961,0.2869431079657244,0.3,1.0,1.0,414.0,650.0,0.0,0,1936.0,0
962,962,-0.7429087630826331,-0.7,0.0,1.0,270.0,681.0,0.0,1,2049.0,0
963,963,0.7963371764944572,0.8,1.0,1.0,320.0,860.0,0.0,0,1820.0,0
964,964,0.5770598663278602,0.6,0.0,0.0,351.0,903.0,0.0,1,1746.0,1
965,965,0.6983486390059422,0.7,0.0,0.0,277.0,697.0,0.0,1,2026.0,1
966,966,0.5663371132093385,0.6,0.0,0.0,426.0,953.0,0.0,1,1621.0,1
967,967,-0.7404671674291126,-0.7,0.0,1.0,478.0,968.0,0.0,1,1554.0,0
968,968,-0.8583177048269613,-0.9,1.0,0.0,449.0,785.0,0.0,0,1766.0,1
969,969,-0.7101015379782273,-0.7,1.0,0.0,468.0,752.0,0.0,0,1780.0,1
970,970,-0.8318890502307672,-0.8,0.0,1.0,323.0,614.0,0.0,1,2063.0,0
971,971,-0.8140743618971136,-0.8,0.0,1.0,478.0,745.0,0.0,1,1777.0,0
972,972,-0.5629325519496959,-0.6,0.0,1.0,262.0,614.0,0.0,1,2124.0,0
973,973,0.2598661557728833,0.3,1.0,1.0,379.0,505.0,0.0,0,2116.0,0
974,974,-0.523702951197547,-0.5,1.0,0.0,365.0,817.0,0.0,0,1818.0,1
975,975,0.5446198819968698,0.5,1.0,1.0,423.0,542.0,0.0,0,2035.0,0
976,976,-0.7227551657573638,-0.7,0.0,1.0,310.0,599.0,0.0,1,2091.0,0
977,977,-0.8505931472244503,-0.9,0.0,1.0,302.0,729.0,0.0,1,1969.0,0
978,978,0.5523552970159137,0.6,0.0,0.0,334.0,575.0,0.0,1,2091.0,1
979,979,-0.452526898183411,-0.5,0.0,1.0,369.0,884.0,0.0,1,-1243.0,0
980,980,-0.17021926007800114,-0.2,1.0,0.0,364.0,774.0,0.0,0,1862.0,1
981,981,-0.7967766525308819,-0.8,1.0,0.0,435.0,861.0,0.0,0,1704.0,1
982,982,0.26227764997701464,0.3,1.0,1.0,340.0,979.0,0.0,0,1681.0,0
983,983,-0.34098379429227355,-0.3,1.0,0.0,315.0,870.0,0.0,0,1815.0,1
984,984,0.19854648384261042,0.2,1.0,1.0,480.0,558.0,0.0,0,1962.0,0
985,985,0.5048594938932546,0.5,1.0,1.0,476.0,943.0,0.0,0,1581.0,0
986,986,-0.836656068610945,-0.8,0.0,1.0,368.0,505.0,0.0,1,2127.0,0
987,987,0.6702197862691582,0.7,1.0,1.0,311.0,529.0,0.0,0,2160.0,0
988,988,-0.7426824435296574,-0.7,1.0,0.0,390.0,855.0,0.0,0,1755.0,1
989,989,-0.34595732636018195,-0.3,1.0,0.0,274.0,559.0,1.0,1,-683.0,0
990,990,0.4548545417220907,0.5,1.0,1.0,386.0,767.0,0.0,0,1847.0,0
991,991,0.31339018250126094,0.3,1.0,1.0,275.0,974.0,0.0,0,1751.0,0
992,992,-0.5410548898606153,-0.5,1.0,0.0,464.0,762.0,0.0,0,1774.0,1
993,993,0.7403580517509328,0.7,0.0,0.0,467.0,714.0,0.0,1,1819.0,1
994,994,0.6979998730505744,0.7,0.0,0.0,353.0,787.0,0.0,1,1860.0,1
995,995,-0.8119992895951939,-0.8,1.0,0.0,366.0,610.0,0.0,0,2024.0,1
996,996,-0.5214678367064634,-0.5,1.0,0.0,468.0,910.0,0.0,0,1622.0,1
997,997,0.2867610864171518,0.3,0.0,0.0,444.0,728.0,0.0,1,1828.0,1
998,998,-0.6340787616094221,-0.6,1.0,0.0,481.0,760.0,0.0,0,1759.0,1
999,999,-0.515602441431463,-0.5,0.0,1.0,420.0,944.0,0.0,1,1636.0,0
1000,1000,-0.8613139681082859,-0.9,1.0,0.0,294.0,660.0,0.0,0,2046.0,1
1001,1001,-0.2342688747393945,-0.2,1.0,0.0,390.0,611.0,0.0,0,1999.0,1
1002,1002,0.7398593305860784,0.7,1.0,1.0,399.0,620.0,0.0,0,1981.0,0
1003,1003,0.39196147863264497,0.4,1.0,1.0,464.0,992.0,0.0,0,1544.0,0
1004,1004,-0.2240837109044923,-0.2,0.0,1.0,482.0,981.0,0.0,1,1537.0,0
1005,1005,-0.8500525984416959,-0.9,1.0,0.0,315.0,561.0,0.0,0,2124.0,1
1006,1006,0.054949846025446725,0.1,0.0,0.0,266.0,979.0,0.0,1,1755.0,1
1007,1007,-0.1512174836982223,-0.2,1.0,0.0,306.0,969.0,0.0,0,-1185.0,1
1008,1008,-0.1115080425606807,-0.1,0.0,1.0,306.0,649.0,0.0,1,2045.0,0
1009,1009,0.3590467029621064,0.4,1.0,1.0,276.0,614.0,0.0,0,2110.0,0
1010,1010,-0.1775745807324891,-0.2,1.0,0.0,475.0,747.0,0.0,0,1778.0,1
1011,1011,-0.5614157069489412,-0.6,1.0,0.0,382.0,986.0,0.0,0,1632.0,1
1012,1012,0.6033962050028364,0.6,1.0,1.0,448.0,858.0,0.0,0,1694.0,0
1013,1013,-0.6981312925056393,-0.7,1.0,0.0,463.0,633.0,0.0,0,1904.0,1
1014,1014,0.49327089336545116,0.5,1.0,1.0,250.0,995.0,0.0,0,1755.0,0
1015,1015,-0.5865568477454768,-0.6,0.0,1.0,293.0,649.0,0.0,1,2058.0,0
1016,1016,0.5699011689762904,0.6,0.0,0.0,386.0,512.0,0.0,1,2102.0,1
1017,1017,-0.0667705245606407,-0.1,0.0,1.0,482.0,658.0,0.0,1,1860.0,0
1018,1018,-0.30831556073002264,-0.3,0.0,1.0,425.0,751.0,0.0,1,1824.0,0
1019,1019,0.6743637357294711,0.7,0.0,0.0,378.0,655.0,0.0,1,1967.0,1
1020,1020,0.3873884904741579,0.4,0.0,0.0,365.0,818.0,0.0,1,1817.0,1
1021,1021,0.7033344994874876,0.7,1.0,1.0,396.0,780.0,0.0,0,1824.0,0
1022,1022,-0.6254119284184863,-0.6,1.0,0.0,301.0,970.0,1.0,1,-1121.0,0
1023,1023,-0.7097299328025561,-0.7,0.0,1.0,492.0,526.0,0.0,1,1982.0,0
1024,1024,-0.5909414740586441,-0.6,1.0,0.0,378.0,684.0,0.0,0,1938.0,1
1025,1025,-0.3154412313814312,-0.3,0.0,1.0,473.0,798.0,0.0,1,1729.0,0
1026,1026,-0.439561031545958,-0.4,0.0,1.0,437.0,757.0,0.0,1,1806.0,0
1027,1027,0.8521996676204217,0.9,1.0,1.0,360.0,964.0,0.0,0,1676.0,0
1028,1028,0.7153815901426751,0.7,0.0,0.0,362.0,619.0,0.0,1,2019.0,1
1029,1029,0.33683043226144294,0.3,1.0,1.0,417.0,838.0,0.0,0,1745.0,0
1030,1030,-0.47458634396396554,-0.5,1.0,0.0,397.0,701.0,1.0,1,-1028.0,0
1031,1031,0.8920294151281293,0.9,1.0,1.0,407.0,822.0,0.0,0,1771.0,0
1032,1032,-0.32729778244764374,-0.3,0.0,1.0,359.0,704.0,0.0,1,1937.0,0
1033,1033,0.5965319598537976,0.6,0.0,0.0,291.0,862.0,0.0,1,1847.0,1
1034,1034,0.11308863248490886,0.1,0.0,0.0,296.0,889.0,0.0,1,1815.0,1
1035,1035,-0.8990026933040238,-0.9,0.0,1.0,274.0,999.0,0.0,1,1727.0,0
1036,1036,-0.5912297254645198,-0.6,0.0,1.0,342.0,722.0,0.0,1,1936.0,0
1037,1037,0.7644266775676724,0.8,1.0,1.0,257.0,749.0,0.0,0,1994.0,0
1038,1038,0.6736297306930993,0.7,0.0,0.0,354.0,855.0,0.0,1,1791.0,1
1039,1039,0.07687947243978954,0.1,0.0,0.0,317.0,740.0,1.0,0,-807.0,0
1040,1040,-0.7274966636409202,-0.7,0.0,1.0,404.0,649.0,0.0,1,1947.0,0
1041,1041,-0.3165542033642087,-0.3,1.0,0.0,278.0,786.0,1.0,1,-894.0,0
1042,1042,-0.43731604462707546,-0.4,1.0,0.0,431.0,773.0,0.0,0,1796.0,1
1043,1043,0.4360737189943237,0.4,0.0,0.0,485.0,550.0,0.0,1,1965.0,1
1044,1044,-0.33937148161012387,-0.3,1.0,0.0,465.0,979.0,0.0,0,1556.0,1
1045,1045,-0.6292915434967263,-0.6,0.0,1.0,268.0,949.0,0.0,1,1783.0,0
1046,1046,-0.1161494808351532,-0.1,0.0,1.0,328.0,621.0,1.0,0,-889.0,1
1047,1047,-0.19010436515479356,-0.2,0.0,1.0,372.0,686.0,1.0,0,-848.0,1
1048,1048,-0.32006994623514695,-0.3,0.0,1.0,499.0,987.0,0.0,1,1514.0,0
1049,1049,-0.31100938285562496,-0.3,1.0,0.0,308.0,910.0,0.0,0,1782.0,1
1050,1050,0.331050024247734,0.3,1.0,1.0,393.0,745.0,0.0,0,1862.0,0
1051,1051,0.2606979286661629,0.3,1.0,1.0,272.0,559.0,0.0,0,2169.0,0
1052,1052,0.6898309127226291,0.7,0.0,0.0,497.0,840.0,0.0,1,1663.0,1
1053,1053,-0.6521576466115522,-0.7,0.0,1.0,450.0,710.0,0.0,1,1840.0,0
1054,1054,0.2332471241814681,0.2,1.0,1.0,316.0,620.0,0.0,0,2064.0,0
1055,1055,-0.30800338754717294,-0.3,0.0,1.0,290.0,527.0,1.0,0,-737.0,1
1056,1056,-0.7535063613027541,-0.8,1.0,0.0,460.0,992.0,0.0,0,1548.0,1
1057,1057,-0.07488382984074493,-0.1,1.0,0.0,488.0,717.0,1.0,1,-865.0,0
1058,1058,-0.5135312028811183,-0.5,0.0,1.0,456.0,560.0,0.0,1,1984.0,0
1059,1059,-0.3266100302919106,-0.3,1.0,0.0,323.0,753.0,0.0,0,1924.0,1
1060,1060,0.5157921005456528,0.5,1.0,1.0,261.0,963.0,0.0,0,1776.0,0
1061,1061,-0.6253184388267328,-0.6,0.0,1.0,356.0,697.0,0.0,1,1947.0,0
1062,1062,-0.5573784355274625,-0.6,0.0,1.0,334.0,549.0,0.0,1,2117.0,0
1063,1063,-0.5061466723807899,-0.5,0.0,1.0,334.0,947.0,0.0,1,1719.0,0
1064,1064,0.24507203256512555,0.2,0.0,0.0,389.0,616.0,1.0,0,-955.0,0
1065,1065,-0.6122178646567202,-0.6,1.0,0.0,386.0,649.0,0.0,0,1965.0,1
1066,1066,0.11244323070047135,0.1,1.0,1.0,277.0,575.0,0.0,0,2148.0,0
1067,1067,-0.020258213779232315,-0.0,0.0,1.0,390.0,956.0,0.0,1,1654.0,0
1068,1068,-0.32350745852734974,-0.3,0.0,1.0,418.0,580.0,0.0,1,-828.0,0
1069,1069,0.6107601879084371,0.6,1.0,1.0,291.0,915.0,0.0,0,1794.0,0
1070,1070,-0.23202133527860036,-0.2,1.0,0.0,445.0,721.0,1.0,1,-1086.0,0
1071,1071,-0.08540845870310587,-0.1,1.0,0.0,382.0,653.0,0.0,0,1965.0,1
1072,1072,-0.0929216450514867,-0.1,0.0,1.0,334.0,661.0,0.0,1,2005.0,0
1073,1073,0.387462911650443,0.4,0.0,0.0,251.0,668.0,0.0,1,2081.0,1
1074,1074,0.7088071275266447,0.7,0.0,0.0,332.0,939.0,0.0,1,1729.0,1
1075,1075,0.34239027551962564,0.3,1.0,1.0,283.0,865.0,0.0,0,1852.0,0
1076,1076,-0.15537996855068015,-0.2,1.0,0.0,260.0,551.0,1.0,1,-691.0,0
1077,1077,-0.7097845523623423,-0.7,0.0,1.0,408.0,673.0,1.0,0,-1061.0,1
1078,1078,-0.5706948637742515,-0.6,1.0,0.0,276.0,700.0,0.0,0,2024.0,1
1079,1079,-0.6340562191209004,-0.6,1.0,0.0,294.0,645.0,0.0,0,2061.0,1
1080,1080,0.00862061811909165,0.0,0.0,0.0,488.0,988.0,0.0,1,1524.0,1
1081,1081,0.24227390164663076,0.2,0.0,0.0,411.0,732.0,0.0,1,1857.0,1
1082,1082,0.6307995166724386,0.6,0.0,0.0,296.0,969.0,0.0,1,1735.0,1
1083,1083,0.6622288668904818,0.7,0.0,0.0,350.0,800.0,0.0,1,1850.0,1
1084,1084,-0.7754663091197613,-0.8,0.0,1.0,429.0,645.0,0.0,1,1926.0,0
1085,1085,0.4852536182374759,0.5,0.0,0.0,365.0,897.0,0.0,1,1738.0,1
1086,1086,-0.24549941207837545,-0.2,1.0,0.0,321.0,906.0,1.0,1,-1207.0,0
1087,1087,0.3702882031100002,0.4,0.0,0.0,434.0,711.0,1.0,0,-1085.0,0
1088,1088,-0.8005950177296902,-0.8,1.0,0.0,304.0,746.0,0.0,0,1950.0,1
1089,1089,0.1817194065689164,0.2,1.0,1.0,428.0,833.0,0.0,0,1739.0,0
1090,1090,0.1377082312865482,0.1,0.0,0.0,277.0,581.0,0.0,1,2142.0,1
1091,1091,-0.3784015264671219,-0.4,1.0,0.0,302.0,942.0,0.0,0,1756.0,1
1092,1092,0.5988439613964992,0.6,1.0,1.0,490.0,657.0,0.0,0,1853.0,0
1093,1093,-0.047070267921313746,-0.0,0.0,1.0,438.0,593.0,0.0,1,1969.0,0
1094,1094,-0.8297857383116455,-0.8,0.0,1.0,433.0,546.0,0.0,1,2021.0,0
1095,1095,0.5529651570073896,0.6,0.0,0.0,422.0,617.0,0.0,1,1961.0,1
1096,1096,-0.47284247695618353,-0.5,1.0,0.0,395.0,755.0,0.0,0,1850.0,1
1097,1097,0.42566790437954183,0.4,0.0,0.0,462.0,849.0,0.0,1,1689.0,1
1098,1098,0.13423786212688216,0.1,0.0,0.0,347.0,936.0,0.0,1,1717.0,1
1099,1099,0.26391499603597246,0.3,1.0,1.0,447.0,875.0,0.0,0,1678.0,0
1100,1100,-0.22509903731102632,-0.2,1.0,0.0,301.0,773.0,0.0,0,1926.0,1
1101,1101,0.03019047668464747,0.0,1.0,1.0,342.0,709.0,0.0,0,1949.0,0
1102,1102,0.4558544934657035,0.5,1.0,1.0,480.0,796.0,1.0,1,-1266.0,1
1103,1103,-0.17844755991422612,-0.2,0.0,1.0,446.0,530.0,0.0,1,2024.0,0
1104,1104,0.8134380850558848,0.8,0.0,0.0,379.0,647.0,0.0,1,1974.0,1
1105,1105,0.34393303931291574,0.3,1.0,1.0,422.0,946.0,0.0,0,1632.0,0
1106,1106,-0.43480302613784627,-0.4,0.0,1.0,479.0,736.0,0.0,1,1785.0,0
1107,1107,0.729918473334154,0.7,1.0,1.0,367.0,930.0,0.0,0,1703.0,0
1108,1108,0.7373726297797868,0.7,1.0,1.0,498.0,669.0,0.0,0,1833.0,0
1109,1109,0.09272993031840426,0.1,0.0,0.0,399.0,724.0,0.0,1,1877.0,1
1110,1110,0.8189001243044373,0.8,0.0,0.0,399.0,564.0,0.0,1,2037.0,1
1111,1111,0.21720730419095957,0.2,1.0,1.0,353.0,687.0,0.0,0,1960.0,0
1112,1112,-0.3369891289790836,-0.3,1.0,0.0,288.0,833.0,0.0,0,1879.0,1
1113,1113,-0.6020928886222743,-0.6,0.0,1.0,276.0,634.0,1.0,0,-890.0,1
1114,1114,-0.050174612263863216,-0.1,0.0,1.0,499.0,797.0,0.0,1,1704.0,0
1115,1115,-0.8001365322077124,-0.8,0.0,1.0,311.0,590.0,0.0,1,2099.0,0
1116,1116,0.2485845040927065,0.2,1.0,1.0,251.0,927.0,0.0,0,1822.0,0
1117,1117,0.7801450479037831,0.8,1.0,1.0,384.0,513.0,0.0,0,2103.0,0
1118,1118,-0.8438911005173741,-0.8,0.0,1.0,467.0,520.0,0.0,1,2013.0,0
1119,1119,-0.8426356705016423,-0.8,0.0,1.0,334.0,995.0,0.0,1,1671.0,0
1120,1120,0.8649719977830076,0.9,0.0,0.0,407.0,651.0,0.0,1,1942.0,1
1121,1121,0.0409847693274894,0.0,1.0,1.0,258.0,981.0,0.0,0,1761.0,0
1122,1122,0.876175554696698,0.9,0.0,0.0,256.0,604.0,0.0,1,2140.0,1
1123,1123,-0.2362702348202309,-0.2,0.0,1.0,380.0,826.0,0.0,1,1794.0,0
1124,1124,-0.015974431734633532,-0.0,1.0,0.0,296.0,515.0,0.0,0,2189.0,1
1125,1125,0.3246545393002823,0.3,0.0,0.0,490.0,866.0,1.0,0,-1356.0,0
1126,1126,-0.14516526140274444,-0.1,1.0,0.0,427.0,970.0,1.0,1,-1317.0,0
1127,1127,-0.31580199432948286,-0.3,1.0,0.0,252.0,775.0,0.0,0,1973.0,1
1128,1128,0.3810638344801426,0.4,0.0,0.0,395.0,635.0,0.0,1,1970.0,1
1129,1129,-0.030385858876826655,-0.0,1.0,0.0,351.0,685.0,1.0,1,-1026.0,0
1130,1130,-0.6574419315192814,-0.7,1.0,0.0,444.0,647.0,0.0,0,1909.0,1
1131,1131,-0.33773804373416305,-0.3,1.0,0.0,384.0,905.0,0.0,0,1711.0,1
1132,1132,-0.6490621753618011,-0.6,1.0,0.0,262.0,688.0,0.0,0,2050.0,1
1133,1133,-0.40748458994910924,-0.4,0.0,1.0,314.0,883.0,0.0,1,1803.0,0
1134,1134,0.7629617186263805,0.8,0.0,0.0,345.0,628.0,1.0,0,-953.0,0
1135,1135,-0.19930144848183018,-0.2,0.0,1.0,351.0,984.0,0.0,1,1665.0,0
1136,1136,-0.31995325189474766,-0.3,1.0,0.0,429.0,624.0,0.0,0,1947.0,1
1137,1137,0.34959296764814296,0.3,1.0,1.0,425.0,808.0,1.0,1,-1203.0,1
1138,1138,0.14517632231050548,0.1,1.0,1.0,441.0,978.0,0.0,0,1581.0,0
1139,1139,0.7396455157013234,0.7,1.0,1.0,459.0,862.0,0.0,0,-1251.0,0
1140,1140,0.6683668986039534,0.7,0.0,0.0,489.0,729.0,0.0,1,1782.0,1
1141,1141,-0.7311007164637792,-0.7,1.0,0.0,303.0,839.0,0.0,0,1858.0,1
1142,1142,-0.2894739759573808,-0.3,0.0,1.0,287.0,657.0,0.0,1,2056.0,0
1143,1143,0.403014835167279,0.4,0.0,0.0,364.0,730.0,0.0,1,-1054.0,1
1144,1144,0.20805814110512666,0.2,1.0,1.0,465.0,989.0,0.0,0,1546.0,0
1145,1145,0.5595857054091292,0.6,1.0,1.0,462.0,515.0,0.0,0,2023.0,0
1146,1146,0.19866264532004607,0.2,1.0,1.0,355.0,675.0,0.0,0,1970.0,0
1147,1147,-0.5268919515011905,-0.5,0.0,1.0,313.0,930.0,0.0,1,-1213.0,0
1148,1148,-0.6053402236525072,-0.6,1.0,0.0,368.0,603.0,0.0,0,2029.0,1
1149,1149,0.2924879172362339,0.3,1.0,1.0,336.0,657.0,0.0,0,2007.0,0
1150,1150,-0.7205681374512867,-0.7,1.0,0.0,364.0,729.0,0.0,0,1907.0,1
1151,1151,-0.12755303822104802,-0.1,1.0,0.0,297.0,984.0,0.0,0,1719.0,1
1152,1152,0.46377034618807944,0.5,1.0,1.0,261.0,900.0,1.0,1,-1121.0,1
1153,1153,0.4693968553631064,0.5,1.0,1.0,482.0,865.0,1.0,1,-1097.0,1
1154,1154,-0.7450591787528671,-0.7,0.0,1.0,416.0,549.0,0.0,1,2035.0,0
1155,1155,-0.5697263886648443,-0.6,1.0,0.0,258.0,755.0,0.0,0,1987.0,1
1156,1156,0.10494086567996963,0.1,1.0,1.0,466.0,625.0,0.0,0,-1001.0,0
1157,1157,0.40929373629724874,0.4,1.0,1.0,408.0,991.0,0.0,0,1601.0,0
1158,1158,-0.2658761417495037,-0.3,1.0,0.0,419.0,586.0,0.0,0,1995.0,1
1159,1159,-0.10509922540180494,-0.1,1.0,0.0,250.0,633.0,0.0,0,2117.0,1
1160,1160,-0.2987169727378688,-0.3,0.0,1.0,458.0,911.0,0.0,1,1631.0,0
1161,1161,0.8799501223068263,0.9,0.0,0.0,406.0,830.0,0.0,1,1764.0,1
1162,1162,0.20896092070389816,0.2,0.0,0.0,423.0,639.0,0.0,1,1938.0,1
1163,1163,0.7833241930887801,0.8,1.0,1.0,449.0,868.0,0.0,0,1683.0,0
1164,1164,0.0067597662169258665,0.0,0.0,0.0,263.0,936.0,0.0,1,1801.0,1
1165,1165,0.41927476256859164,0.4,0.0,0.0,390.0,607.0,0.0,1,2003.0,1
1166,1166,-0.6002371323939808,-0.6,0.0,1.0,345.0,838.0,1.0,0,-1153.0,1
1167,1167,0.8246203927451999,0.8,0.0,0.0,253.0,667.0,0.0,1,2080.0,1
1168,1168,0.20593994367469548,0.2,0.0,0.0,279.0,665.0,0.0,1,2056.0,1
1169,1169,0.2398998317384219,0.2,0.0,0.0,291.0,577.0,1.0,0,-788.0,0
1170,1170,0.5418981257778738,0.5,1.0,1.0,352.0,509.0,0.0,0,2139.0,0
1171,1171,-0.8905189403211017,-0.9,0.0,1.0,335.0,924.0,0.0,1,1741.0,0
1172,1172,-0.7747706705502823,-0.8,1.0,0.0,438.0,993.0,1.0,1,-1121.0,0
1173,1173,0.06770574418632724,0.1,1.0,1.0,277.0,647.0,0.0,0,2076.0,0
1174,1174,-0.8184657617753333,-0.8,0.0,1.0,330.0,547.0,0.0,1,2123.0,0
1175,1175,-0.7826139627852831,-0.8,1.0,0.0,281.0,692.0,0.0,0,2027.0,1
1176,1176,0.7586175324863867,0.8,0.0,0.0,256.0,692.0,0.0,1,2052.0,1
1177,1177,-0.8056459578402667,-0.8,1.0,0.0,419.0,986.0,0.0,0,1595.0,1
1178,1178,-0.3923364677436765,-0.4,0.0,1.0,486.0,650.0,0.0,1,1864.0,0
1179,1179,0.34514553060326836,0.3,0.0,0.0,445.0,539.0,0.0,1,2016.0,1
1180,1180,-0.3656161533009653,-0.4,0.0,1.0,389.0,673.0,0.0,1,1938.0,0
1181,1181,-0.010943497598350893,-0.0,1.0,0.0,498.0,703.0,0.0,0,1799.0,1
1182,1182,0.8879297063231703,0.9,1.0,1.0,332.0,737.0,0.0,0,1931.0,0
1183,1183,0.7407090300225053,0.7,0.0,0.0,469.0,916.0,0.0,1,1615.0,1
1184,1184,0.09540364364526044,0.1,1.0,1.0,334.0,967.0,1.0,1,-1261.0,1
1185,1185,-0.18225018080376265,-0.2,1.0,0.0,310.0,914.0,1.0,1,-1224.0,0
1186,1186,0.6835167840353348,0.7,1.0,1.0,279.0,521.0,0.0,0,2200.0,0
1187,1187,-0.7248965876995688,-0.7,0.0,1.0,458.0,585.0,0.0,1,1957.0,0
1188,1188,-0.7549369543770783,-0.8,0.0,1.0,327.0,755.0,0.0,1,1918.0,0
1189,1189,-0.6171285314212949,-0.6,1.0,0.0,324.0,785.0,0.0,0,1891.0,1
1190,1190,0.202399629395967,0.2,0.0,0.0,387.0,702.0,1.0,0,-949.0,0
1191,1191,0.46129297105367273,0.5,1.0,1.0,400.0,676.0,0.0,0,1924.0,0
1192,1192,-0.1566306602511961,-0.2,1.0,0.0,440.0,578.0,0.0,0,1982.0,1
1193,1193,0.3785740535611627,0.4,1.0,1.0,490.0,506.0,0.0,0,2004.0,0
1194,1194,-0.23472170279444016,-0.2,1.0,0.0,406.0,868.0,0.0,0,1726.0,1
1195,1195,-0.007016168499172193,-0.0,0.0,1.0,270.0,589.0,0.0,1,2141.0,0
1196,1196,0.7202401146527743,0.7,1.0,1.0,393.0,693.0,0.0,0,1914.0,0
1197,1197,0.5792634165951679,0.6,1.0,1.0,470.0,880.0,0.0,0,-1330.0,0
1198,1198,-0.6161491410930114,-0.6,0.0,1.0,377.0,939.0,0.0,1,1684.0,0
1199,1199,-0.3611407366771996,-0.4,0.0,1.0,258.0,759.0,0.0,1,1983.0,0
1200,1200,-0.42952306883076763,-0.4,1.0,0.0,332.0,845.0,0.0,0,-1087.0,1
1201,1201,0.7866086468879451,0.8,1.0,1.0,302.0,676.0,0.0,0,2022.0,0
1202,1202,-0.8739460103647378,-0.9,0.0,1.0,383.0,934.0,0.0,1,1683.0,0
1203,1203,0.13002509100843074,0.1,1.0,1.0,281.0,691.0,1.0,1,-672.0,1
1204,1204,0.31862713103527074,0.3,0.0,0.0,490.0,584.0,0.0,1,1926.0,1
1205,1205,0.7790195814713256,0.8,1.0,1.0,313.0,768.0,1.0,1,-1071.0,1
1206,1206,0.10728587064640716,0.1,1.0,1.0,328.0,921.0,0.0,0,1751.0,0
1207,1207,0.757401834477584,0.8,0.0,0.0,497.0,728.0,0.0,1,1775.0,1
1208,1208,-0.7957144479813473,-0.8,1.0,0.0,322.0,691.0,0.0,0,1987.0,1
1209,1209,0.3682525211215665,0.4,0.0,0.0,495.0,901.0,0.0,1,1604.0,1
1210,1210,-0.36230598510993106,-0.4,0.0,1.0,268.0,736.0,0.0,1,-964.0,0
1211,1211,0.38462384395860927,0.4,1.0,1.0,439.0,679.0,0.0,0,1882.0,0
1212,1212,-0.8378736884146069,-0.8,0.0,1.0,279.0,802.0,0.0,1,1919.0,0
1213,1213,0.781227580280995,0.8,0.0,0.0,259.0,698.0,0.0,1,2043.0,1
1214,1214,-0.6615502369849825,-0.7,0.0,1.0,309.0,584.0,0.0,1,2107.0,0
1215,1215,-0.1850824574098533,-0.2,1.0,0.0,320.0,986.0,1.0,1,-1256.0,0
1216,1216,0.49695926964633463,0.5,0.0,0.0,261.0,819.0,0.0,1,1920.0,1
1217,1217,0.5643654250114963,0.6,1.0,1.0,457.0,652.0,0.0,0,1891.0,0
1218,1218,0.8729338900996603,0.9,1.0,1.0,258.0,883.0,0.0,0,1859.0,0
1219,1219,0.8218359180635838,0.8,0.0,0.0,489.0,571.0,1.0,0,-1010.0,0
1220,1220,0.40553670429590893,0.4,0.0,0.0,361.0,599.0,0.0,1,2040.0,1
1221,1221,0.32980157023289036,0.3,1.0,1.0,367.0,688.0,0.0,0,-1035.0,0
1222,1222,0.5326555470190285,0.5,1.0,1.0,380.0,824.0,0.0,0,1796.0,0
1223,1223,0.06428038294306626,0.1,0.0,0.0,382.0,783.0,0.0,1,1835.0,1
1224,1224,-0.7419207821723547,-0.7,0.0,1.0,352.0,644.0,0.0,1,2004.0,0
1225,1225,-0.2417801293958568,-0.2,1.0,0.0,460.0,726.0,0.0,0,1814.0,1
1226,1226,-0.6247247589176339,-0.6,0.0,1.0,443.0,676.0,0.0,1,1881.0,0
1227,1227,0.6414551771848968,0.6,0.0,0.0,416.0,600.0,0.0,1,1984.0,1
1228,1228,-0.3996511809763722,-0.4,0.0,1.0,445.0,945.0,0.0,1,1610.0,0
1229,1229,-0.31462941515583676,-0.3,0.0,1.0,450.0,509.0,0.0,1,2041.0,0
1230,1230,0.4711602714817734,0.5,1.0,1.0,308.0,925.0,0.0,0,1767.0,0
1231,1231,0.542305226969147,0.5,0.0,0.0,471.0,609.0,0.0,1,1920.0,1
1232,1232,0.5673930335763581,0.6,0.0,0.0,317.0,995.0,0.0,1,1688.0,1
1233,1233,-0.24688366867968947,-0.2,1.0,0.0,486.0,897.0,0.0,0,1617.0,1
1234,1234,0.6603391020121593,0.7,0.0,0.0,271.0,970.0,0.0,1,1759.0,1
1235,1235,-0.6630714218647967,-0.7,1.0,0.0,490.0,629.0,1.0,1,-1089.0,0
1236,1236,-0.3420689447394524,-0.3,1.0,0.0,410.0,592.0,0.0,0,1998.0,1
1237,1237,0.4441618131501194,0.4,0.0,0.0,339.0,648.0,0.0,1,2013.0,1
1238,1238,-0.1925044010975807,-0.2,1.0,0.0,492.0,715.0,0.0,0,1793.0,1
1239,1239,0.8487616648437527,0.8,0.0,0.0,360.0,500.0,0.0,1,2140.0,1
1240,1240,0.0007632271767658017,0.0,0.0,0.0,303.0,793.0,0.0,1,1904.0,1
1241,1241,0.4313392986201722,0.4,1.0,1.0,424.0,655.0,0.0,0,1921.0,0
1242,1242,-0.689828031485049,-0.7,1.0,0.0,472.0,796.0,0.0,0,1732.0,1
1243,1243,-0.19689286286811192,-0.2,1.0,0.0,346.0,700.0,0.0,0,1954.0,1
1244,1244,-0.16351566559904296,-0.2,0.0,1.0,355.0,589.0,0.0,1,2056.0,0
1245,1245,-0.49466943723217616,-0.5,1.0,0.0,302.0,755.0,0.0,0,-1057.0,1
1246,1246,-0.8635033155344942,-0.9,1.0,0.0,494.0,821.0,0.0,0,1685.0,1
1247,1247,0.6525411239533739,0.7,1.0,1.0,258.0,528.0,0.0,0,2214.0,0
1248,1248,0.4540858517975773,0.5,1.0,1.0,497.0,501.0,1.0,1,-908.0,1
1249,1249,0.40327655113077354,0.4,0.0,0.0,482.0,507.0,0.0,1,2011.0,1
1250,1250,0.6783778367970118,0.7,0.0,0.0,383.0,520.0,0.0,1,2097.0,1
1251,1251,0.09424226552137183,0.1,1.0,1.0,312.0,581.0,0.0,0,2107.0,0
1252,1252,0.034611898077781644,0.0,0.0,0.0,346.0,561.0,0.0,1,2093.0,1
1253,1253,0.6900232419769804,0.7,0.0,0.0,483.0,780.0,0.0,1,1737.0,1
1254,1254,0.520991936656625,0.5,0.0,0.0,447.0,588.0,0.0,1,1965.0,1
1255,1255,0.011920641248122532,0.0,0.0,0.0,415.0,951.0,0.0,1,1634.0,1
1256,1256,-0.4910667308868793,-0.5,1.0,0.0,474.0,635.0,0.0,0,1891.0,1
1257,1257,0.6992500728549805,0.7,0.0,0.0,431.0,803.0,0.0,1,1766.0,1
1258,1258,0.6431526183069743,0.6,0.0,0.0,332.0,758.0,0.0,1,-1080.0,1
1259,1259,0.12510268214576514,0.1,0.0,0.0,302.0,671.0,0.0,1,2027.0,1
1260,1260,0.47903492213165244,0.5,0.0,0.0,264.0,595.0,0.0,1,-779.0,1
1261,1261,0.20684017952744516,0.2,0.0,0.0,373.0,570.0,0.0,1,2057.0,1
1262,1262,-0.43729324999211033,-0.4,1.0,0.0,364.0,709.0,0.0,0,1927.0,1
1263,1263,-0.36738053634769174,-0.4,1.0,0.0,282.0,947.0,0.0,0,1771.0,1
1264,1264,-0.6643462375882139,-0.7,0.0,1.0,430.0,617.0,0.0,1,1953.0,0
1265,1265,-0.4658882754499442,-0.5,0.0,1.0,366.0,850.0,0.0,1,-1206.0,0
1266,1266,0.2639457718027137,0.3,1.0,1.0,409.0,596.0,0.0,0,1995.0,0
1267,1267,0.1513508152658677,0.2,1.0,1.0,436.0,884.0,0.0,0,1680.0,0
1268,1268,-0.4001438885264933,-0.4,0.0,1.0,327.0,795.0,0.0,1,1878.0,0
1269,1269,0.7217112520875443,0.7,1.0,1.0,369.0,613.0,0.0,0,2018.0,0
1270,1270,-0.57451734879467,-0.6,1.0,0.0,454.0,591.0,0.0,0,1955.0,1
1271,1271,-0.1189721952927788,-0.1,0.0,1.0,352.0,908.0,1.0,0,-1090.0,1
1272,1272,-0.5533233597176351,-0.6,0.0,1.0,425.0,773.0,0.0,1,1802.0,0
1273,1273,-0.23695452616055945,-0.2,0.0,1.0,372.0,940.0,0.0,1,1688.0,0
1274,1274,-0.4261458928413187,-0.4,0.0,1.0,439.0,723.0,0.0,1,1838.0,0
1275,1275,-0.7087618471728419,-0.7,0.0,1.0,406.0,828.0,0.0,1,1766.0,0
1276,1276,-0.13711364775815527,-0.1,0.0,1.0,262.0,665.0,0.0,1,2073.0,0
1277,1277,0.7449936587021014,0.7,0.0,0.0,383.0,663.0,0.0,1,1954.0,1
1278,1278,-0.20776056501056006,-0.2,0.0,1.0,257.0,825.0,0.0,1,1918.0,0
1279,1279,-0.8470870794887451,-0.8,1.0,0.0,266.0,966.0,0.0,0,1768.0,1
1280,1280,0.8930616370317576,0.9,1.0,1.0,275.0,845.0,0.0,0,1880.0,0
1281,1281,0.33198797886834275,0.3,0.0,0.0,432.0,677.0,0.0,1,1891.0,1
1282,1282,0.5378806415765433,0.5,1.0,1.0,268.0,565.0,0.0,0,2167.0,0
1283,1283,0.7055593814354867,0.7,0.0,0.0,289.0,569.0,0.0,1,2142.0,1
1284,1284,0.25616895159096476,0.3,0.0,0.0,473.0,566.0,0.0,1,-929.0,1
1285,1285,0.0707770416607767,0.1,0.0,0.0,444.0,624.0,1.0,0,-818.0,0
1286,1286,-0.6820628922042862,-0.7,0.0,1.0,438.0,732.0,0.0,1,1830.0,0
1287,1287,-0.38016086803580096,-0.4,1.0,0.0,467.0,997.0,0.0,0,1536.0,1
1288,1288,0.7898367256936717,0.8,1.0,1.0,430.0,897.0,0.0,0,1673.0,0
1289,1289,-0.8787250184288236,-0.9,1.0,0.0,273.0,898.0,0.0,0,1829.0,1
1290,1290,-0.5505799204859975,-0.6,0.0,1.0,403.0,853.0,0.0,1,1744.0,0
1291,1291,-0.4458876899909328,-0.4,0.0,1.0,267.0,827.0,0.0,1,-1074.0,0
1292,1292,-0.3254060856991676,-0.3,0.0,1.0,412.0,775.0,0.0,1,1813.0,0
1293,1293,-0.6139525987359007,-0.6,1.0,0.0,355.0,845.0,0.0,0,1800.0,1
1294,1294,0.18001935448154327,0.2,1.0,1.0,480.0,695.0,0.0,0,1825.0,0
1295,1295,0.44812186375711727,0.4,0.0,0.0,428.0,922.0,1.0,0,-1340.0,0
1296,1296,-0.791258077148572,-0.8,1.0,0.0,395.0,772.0,0.0,0,1833.0,1
1297,1297,-0.6221849945565312,-0.6,0.0,1.0,492.0,975.0,0.0,1,1533.0,0
1298,1298,0.013596978597221976,0.0,1.0,1.0,490.0,737.0,0.0,0,1773.0,0
1299,1299,-0.26927006962202105,-0.3,0.0,1.0,395.0,907.0,0.0,1,1698.0,0
1300,1300,0.03984809839895509,0.0,1.0,1.0,312.0,781.0,0.0,0,1907.0,0
1301,1301,-0.8322619909210327,-0.8,0.0,1.0,277.0,503.0,0.0,1,2220.0,0
1302,1302,0.7565760106986269,0.8,1.0,1.0,491.0,534.0,0.0,0,1975.0,0
1303,1303,0.09584725953907247,0.1,1.0,1.0,422.0,884.0,0.0,0,1694.0,0
1304,1304,0.5642954008539521,0.6,1.0,1.0,435.0,998.0,0.0,0,1567.0,0
1305,1305,-0.4435247196402032,-0.4,1.0,0.0,251.0,911.0,1.0,1,-1112.0,0
1306,1306,0.29191701110798396,0.3,1.0,1.0,367.0,617.0,0.0,0,2016.0,0
1307,1307,0.8036675887566268,0.8,0.0,0.0,426.0,956.0,0.0,1,1618.0,1
1308,1308,-0.6642169512926753,-0.7,0.0,1.0,251.0,965.0,0.0,1,1784.0,0
1309,1309,-0.5453309027725826,-0.5,0.0,1.0,291.0,824.0,0.0,1,1885.0,0
1310,1310,0.6925143949337772,0.7,0.0,0.0,395.0,664.0,0.0,1,1941.0,1
1311,1311,-0.7064253422259175,-0.7,1.0,0.0,445.0,914.0,0.0,0,1641.0,1
1312,1312,0.175058178587577,0.2,0.0,0.0,432.0,658.0,0.0,1,1910.0,1
1313,1313,-0.11436551243171844,-0.1,1.0,0.0,354.0,796.0,0.0,0,1850.0,1
1314,1314,0.46199831767799193,0.5,1.0,1.0,414.0,804.0,0.0,0,1782.0,0
1315,1315,-0.8075915382354426,-0.8,0.0,1.0,260.0,574.0,0.0,1,2166.0,0
1316,1316,-0.20783059350663569,-0.2,1.0,0.0,312.0,898.0,0.0,0,1790.0,1
1317,1317,0.4004372597740805,0.4,0.0,0.0,480.0,592.0,0.0,1,1928.0,1
1318,1318,0.3831819099985755,0.4,0.0,0.0,352.0,959.0,1.0,0,-1221.0,0
1319,1319,0.14927824223711805,0.1,0.0,0.0,343.0,615.0,0.0,1,2042.0,1
1320,1320,0.6459059288387493,0.6,0.0,0.0,413.0,935.0,0.0,1,1652.0,1
1321,1321,0.8285295721436517,0.8,1.0,1.0,298.0,534.0,0.0,0,2168.0,0
1322,1322,-0.8451933540164884,-0.8,0.0,1.0,440.0,608.0,0.0,1,1952.0,0
1323,1323,0.04833122042558147,0.0,0.0,0.0,397.0,822.0,0.0,1,1781.0,1
1324,1324,-0.25866168845652593,-0.3,0.0,1.0,277.0,872.0,0.0,1,1851.0,0
1325,1325,0.2900308007197264,0.3,0.0,0.0,468.0,904.0,0.0,1,1628.0,1
1326,1326,-0.09210055406758344,-0.1,1.0,0.0,260.0,524.0,0.0,0,2216.0,1
1327,1327,0.48215387806641485,0.5,1.0,1.0,439.0,731.0,1.0,1,-1080.0,1
1328,1328,-0.407124146784349,-0.4,1.0,0.0,346.0,653.0,0.0,0,2001.0,1
1329,1329,-0.1955846220134395,-0.2,0.0,1.0,358.0,991.0,0.0,1,1651.0,0
1330,1330,0.7783981536899699,0.8,0.0,0.0,296.0,837.0,0.0,1,1867.0,1
1331,1331,-0.7252799858908962,-0.7,1.0,0.0,433.0,746.0,0.0,0,1821.0,1
1332,1332,-0.6993875538408618,-0.7,1.0,0.0,355.0,651.0,0.0,0,1994.0,1
1333,1333,0.11996578147620707,0.1,0.0,0.0,467.0,677.0,0.0,1,1856.0,1
1334,1334,0.4149679602667863,0.4,1.0,1.0,451.0,580.0,0.0,0,1969.0,0
1335,1335,0.7774411941199347,0.8,0.0,0.0,498.0,571.0,0.0,1,1931.0,1
1336,1336,-0.4654012934765944,-0.5,1.0,0.0,378.0,846.0,0.0,0,1776.0,1
1337,1337,-0.544260048285544,-0.5,0.0,1.0,273.0,540.0,0.0,1,2187.0,0
1338,1338,0.3530187864221753,0.4,0.0,0.0,383.0,692.0,1.0,0,-1055.0,0
1339,1339,0.12428960552835255,0.1,0.0,0.0,451.0,607.0,0.0,1,1942.0,1
1340,1340,-0.8529667120265038,-0.9,1.0,0.0,333.0,598.0,0.0,0,2069.0,1
1341,1341,-0.5903497325692297,-0.6,1.0,0.0,412.0,973.0,0.0,0,1615.0,1
1342,1342,-0.35284210922058934,-0.4,0.0,1.0,291.0,773.0,0.0,1,1936.0,0
1343,1343,-0.6926036929998374,-0.7,1.0,0.0,321.0,773.0,0.0,0,1906.0,1
1344,1344,0.6900763478846875,0.7,1.0,1.0,489.0,656.0,0.0,0,1855.0,0
1345,1345,0.009068247201885815,0.0,0.0,0.0,479.0,762.0,1.0,0,-1051.0,0
1346,1346,-0.7881052213841682,-0.8,0.0,1.0,301.0,553.0,0.0,1,2146.0,0
1347,1347,0.413847705132652,0.4,0.0,0.0,301.0,910.0,0.0,1,1789.0,1
1348,1348,0.02298417180672052,0.0,0.0,0.0,399.0,868.0,0.0,1,1733.0,1
1349,1349,-0.4692527532664223,-0.5,1.0,0.0,471.0,529.0,0.0,0,2000.0,1
1350,1350,0.6500639382382277,0.7,0.0,0.0,414.0,660.0,0.0,1,1926.0,1
1351,1351,-0.7933404373851742,-0.8,1.0,0.0,492.0,513.0,0.0,0,-895.0,1
1352,1352,-0.08329143045185006,-0.1,0.0,1.0,428.0,692.0,0.0,1,1880.0,0
1353,1353,0.13924581644399148,0.1,0.0,0.0,342.0,916.0,0.0,1,1742.0,1
1354,1354,-0.09182713283003008,-0.1,1.0,0.0,348.0,949.0,0.0,0,1703.0,1
1355,1355,-0.6474958389182883,-0.6,1.0,0.0,439.0,897.0,1.0,1,-1266.0,0
1356,1356,0.00422218447573619,0.0,0.0,0.0,380.0,723.0,0.0,1,1897.0,1
1357,1357,-0.818717867113071,-0.8,1.0,0.0,340.0,548.0,0.0,0,2112.0,1
1358,1358,0.8838829051967371,0.9,0.0,0.0,468.0,524.0,0.0,1,2008.0,1
1359,1359,-0.638142898797406,-0.6,0.0,1.0,481.0,892.0,0.0,1,-1353.0,0
1360,1360,0.887014230895668,0.9,0.0,0.0,475.0,513.0,0.0,1,2012.0,1
1361,1361,-0.5478946117962327,-0.5,0.0,1.0,438.0,602.0,0.0,1,1960.0,0
1362,1362,0.8204084027182245,0.8,1.0,1.0,395.0,680.0,0.0,0,1925.0,0
1363,1363,-0.2995297988614025,-0.3,0.0,1.0,332.0,973.0,0.0,1,1695.0,0
1364,1364,-0.5238152001322721,-0.5,1.0,0.0,462.0,678.0,0.0,0,1860.0,1
1365,1365,0.13089470787543955,0.1,1.0,1.0,367.0,534.0,0.0,0,2099.0,0
1366,1366,-0.7803868220647963,-0.8,1.0,0.0,307.0,998.0,0.0,0,1695.0,1
1367,1367,-0.5546955165549172,-0.6,0.0,1.0,285.0,782.0,1.0,0,-917.0,1
1368,1368,0.7396404462510092,0.7,1.0,1.0,383.0,562.0,0.0,0,2055.0,0
1369,1369,0.6532036342167563,0.7,0.0,0.0,327.0,795.0,0.0,1,1878.0,1
1370,1370,0.5168145957532092,0.5,0.0,0.0,264.0,903.0,0.0,1,1833.0,1
1371,1371,0.28984946269783507,0.3,1.0,1.0,358.0,951.0,0.0,0,1691.0,0
1372,1372,-0.6643149741554635,-0.7,1.0,0.0,360.0,756.0,0.0,0,1884.0,1
1373,1373,0.6552200156522135,0.7,1.0,1.0,381.0,923.0,0.0,0,1696.0,0
1374,1374,0.5967694972342105,0.6,1.0,1.0,428.0,769.0,0.0,0,1803.0,0
1375,1375,0.3159160679884877,0.3,0.0,0.0,457.0,884.0,0.0,1,1659.0,1
1376,1376,0.3583007729690061,0.4,1.0,1.0,397.0,829.0,1.0,1,-1226.0,1
1377,1377,-0.15406260141815697,-0.2,0.0,1.0,375.0,722.0,0.0,1,1903.0,0
1378,1378,0.6127673208574113,0.6,0.0,0.0,250.0,774.0,0.0,1,-964.0,1
1379,1379,-0.18145293121852535,-0.2,1.0,0.0,288.0,871.0,0.0,0,1841.0,1
1380,1380,-0.3491214299921147,-0.3,1.0,0.0,285.0,867.0,0.0,0,1848.0,1
1381,1381,-0.06931958155552642,-0.1,0.0,1.0,437.0,518.0,0.0,1,2045.0,0
1382,1382,0.7648106575338379,0.8,0.0,0.0,357.0,658.0,0.0,1,1985.0,1
1383,1383,-0.4773680656959198,-0.5,0.0,1.0,332.0,963.0,0.0,1,1705.0,0
1384,1384,-0.20498665661662407,-0.2,1.0,0.0,468.0,759.0,0.0,0,1773.0,1
1385,1385,0.7724070038983316,0.8,1.0,1.0,487.0,956.0,0.0,0,1557.0,0
1386,1386,0.4073840421483633,0.4,1.0,1.0,390.0,646.0,0.0,0,1964.0,0
1387,1387,-0.46072327352378833,-0.5,1.0,0.0,449.0,831.0,0.0,0,1720.0,1
1388,1388,-0.6191633266120865,-0.6,0.0,1.0,484.0,885.0,1.0,0,-879.0,1
1389,1389,0.683808820730046,0.7,0.0,0.0,444.0,509.0,0.0,1,2047.0,1
1390,1390,-0.1413915406044085,-0.1,1.0,0.0,403.0,638.0,0.0,0,1959.0,1
1391,1391,0.4112757870877507,0.4,1.0,1.0,480.0,521.0,0.0,0,1999.0,0
1392,1392,0.18523681130382863,0.2,0.0,0.0,416.0,712.0,0.0,1,1872.0,1
1393,1393,-0.7753580214469342,-0.8,1.0,0.0,302.0,935.0,0.0,0,1763.0,1
1394,1394,-0.15764104108602817,-0.2,0.0,1.0,380.0,557.0,0.0,1,2063.0,0
1395,1395,0.8372275881994119,0.8,0.0,0.0,275.0,982.0,1.0,0,-1097.0,0
1396,1396,0.8307612154574667,0.8,0.0,0.0,461.0,955.0,0.0,1,1584.0,1
1397,1397,-0.6598745190712424,-0.7,0.0,1.0,422.0,916.0,0.0,1,1662.0,0
1398,1398,-0.6280548279028733,-0.6,0.0,1.0,424.0,953.0,0.0,1,1623.0,0
1399,1399,-0.1473356591518059,-0.1,0.0,1.0,281.0,632.0,0.0,1,-713.0,0
1400,1400,-0.08143311695100697,-0.1,1.0,0.0,440.0,552.0,0.0,0,2008.0,1
1401,1401,-0.37974810272957404,-0.4,1.0,0.0,444.0,669.0,1.0,1,-743.0,0
1402,1402,0.04692998663958914,0.0,1.0,1.0,493.0,668.0,1.0,1,-991.0,1
1403,1403,-0.5923248281890696,-0.6,0.0,1.0,438.0,743.0,1.0,0,-1001.0,1
1404,1404,0.7302039488605531,0.7,0.0,0.0,307.0,875.0,0.0,1,-1072.0,1
1405,1405,-0.39386219351392104,-0.4,0.0,1.0,312.0,837.0,1.0,0,-1059.0,1
1406,1406,-0.8999140649904409,-0.9,1.0,0.0,458.0,839.0,0.0,0,1703.0,1
1407,1407,0.6686725241024213,0.7,0.0,0.0,395.0,659.0,0.0,1,1946.0,1
1408,1408,-0.8993165354371185,-0.9,0.0,1.0,400.0,620.0,0.0,1,1980.0,0
1409,1409,-0.15720184079701593,-0.2,0.0,1.0,347.0,782.0,0.0,1,1871.0,0
1410,1410,0.6836276141636518,0.7,1.0,1.0,421.0,996.0,0.0,0,1583.0,0
1411,1411,0.046536478898805744,0.0,1.0,1.0,259.0,537.0,0.0,0,2204.0,0
1412,1412,0.28038639303092705,0.3,1.0,1.0,436.0,931.0,0.0,0,1633.0,0
1413,1413,-0.2836645351541235,-0.3,1.0,0.0,287.0,648.0,0.0,0,2065.0,1
1414,1414,-0.12790680136192079,-0.1,0.0,1.0,335.0,983.0,0.0,1,1682.0,0
1415,1415,-0.7274058751861323,-0.7,0.0,1.0,418.0,689.0,0.0,1,1893.0,0
1416,1416,0.39188545085779436,0.4,1.0,1.0,393.0,690.0,0.0,0,1917.0,0
1417,1417,-0.4362875199303405,-0.4,1.0,0.0,484.0,539.0,0.0,0,1977.0,1
1418,1418,0.39101393116672056,0.4,1.0,1.0,362.0,683.0,0.0,0,1955.0,0
1419,1419,0.4029158246713239,0.4,0.0,0.0,469.0,998.0,1.0,0,-1447.0,0
1420,1420,-0.6719863031540927,-0.7,1.0,0.0,453.0,861.0,1.0,1,-1294.0,0
1421,1421,-0.0806568644096397,-0.1,0.0,1.0,320.0,926.0,0.0,1,1754.0,0
1422,1422,-0.46658192111314606,-0.5,0.0,1.0,348.0,841.0,0.0,1,1811.0,0
1423,1423,0.8149920241042213,0.8,0.0,0.0,316.0,729.0,0.0,1,1955.0,1
1424,1424,0.026609745561416043,0.0,1.0,1.0,265.0,605.0,0.0,0,2130.0,0
1425,1425,-0.37621264115157105,-0.4,0.0,1.0,444.0,634.0,0.0,1,1922.0,0
1426,1426,0.8262395314626604,0.8,1.0,1.0,272.0,513.0,1.0,1,-785.0,1
1427,1427,-0.402825079314112,-0.4,1.0,0.0,360.0,534.0,0.0,0,2106.0,1
1428,1428,0.3379582117753416,0.3,0.0,0.0,350.0,709.0,1.0,0,-1049.0,0
1429,1429,0.4372195903438062,0.4,0.0,0.0,451.0,649.0,0.0,1,1900.0,1
1430,1430,-0.06070772462296581,-0.1,0.0,1.0,496.0,510.0,0.0,1,1994.0,0
1431,1431,-0.18440176806620068,-0.2,1.0,0.0,325.0,876.0,0.0,0,1799.0,1
1432,1432,-0.5531735430602929,-0.6,0.0,1.0,380.0,567.0,0.0,1,2053.0,0
1433,1433,0.29554083056301816,0.3,1.0,1.0,255.0,854.0,0.0,0,1891.0,0
1434,1434,0.5228137117355104,0.5,0.0,0.0,277.0,820.0,0.0,1,1903.0,1
1435,1435,0.5603706383888613,0.6,0.0,0.0,349.0,966.0,0.0,1,1685.0,1
1436,1436,-0.7027184847128368,-0.7,1.0,0.0,330.0,803.0,0.0,0,1867.0,1
1437,1437,0.7840896890912558,0.8,1.0,1.0,320.0,798.0,0.0,0,1882.0,0
1438,1438,0.8643566519284712,0.9,0.0,0.0,274.0,641.0,0.0,1,2085.0,1
1439,1439,-0.8297005698196424,-0.8,0.0,1.0,389.0,590.0,0.0,1,2021.0,0
1440,1440,0.42311125377141334,0.4,1.0,1.0,475.0,682.0,0.0,0,1843.0,0
1441,1441,0.6249090395779656,0.6,0.0,0.0,260.0,852.0,0.0,1,1888.0,1
1442,1442,0.4665658967252627,0.5,1.0,1.0,263.0,864.0,0.0,0,-1037.0,0
1443,1443,0.8136918390514903,0.8,1.0,1.0,271.0,738.0,1.0,1,-1009.0,1
1444,1444,-0.3613918451674153,-0.4,1.0,0.0,425.0,749.0,0.0,0,1826.0,1
1445,1445,0.23427931535038937,0.2,0.0,0.0,494.0,754.0,0.0,1,1752.0,1
1446,1446,-0.28463975306878053,-0.3,0.0,1.0,303.0,875.0,0.0,1,1822.0,0
1447,1447,-0.7525118832140657,-0.8,1.0,0.0,474.0,791.0,1.0,1,-1095.0,0
1448,1448,0.5957520971132818,0.6,1.0,1.0,280.0,590.0,0.0,0,2130.0,0
1449,1449,-0.545165036603924,-0.5,1.0,0.0,364.0,785.0,1.0,1,-949.0,0
1450,1450,0.5806953233989701,0.6,1.0,1.0,320.0,842.0,0.0,0,1838.0,0
1451,1451,-0.7454002765643764,-0.7,0.0,1.0,333.0,671.0,0.0,1,1996.0,0
1452,1452,0.3787040863971768,0.4,0.0,0.0,407.0,538.0,0.0,1,2055.0,1
1453,1453,-0.46699668199633027,-0.5,0.0,1.0,382.0,543.0,0.0,1,2075.0,0
1454,1454,-0.10096329944746774,-0.1,0.0,1.0,278.0,759.0,0.0,1,1963.0,0
1455,1455,0.729680680976844,0.7,1.0,1.0,342.0,837.0,0.0,0,1821.0,0
1456,1456,0.2408536406898688,0.2,0.0,0.0,477.0,874.0,0.0,1,1649.0,1
1457,1457,-0.5903579718623633,-0.6,1.0,0.0,399.0,925.0,0.0,0,1676.0,1
1458,1458,0.457245929039907,0.5,0.0,0.0,390.0,968.0,0.0,1,1642.0,1
1459,1459,0.22946041250045768,0.2,0.0,0.0,281.0,784.0,0.0,1,1935.0,1
1460,1460,0.8790403928479157,0.9,0.0,0.0,410.0,919.0,0.0,1,1671.0,1
1461,1461,0.5720715712905243,0.6,0.0,0.0,497.0,944.0,0.0,1,1559.0,1
1462,1462,0.454385794476344,0.5,0.0,0.0,422.0,597.0,0.0,1,1981.0,1
1463,1463,0.8554085551204963,0.9,1.0,1.0,348.0,646.0,0.0,0,2006.0,0
1464,1464,0.8721928344611377,0.9,1.0,1.0,429.0,939.0,0.0,0,1632.0,0
1465,1465,-0.6061821236329064,-0.6,0.0,1.0,312.0,558.0,0.0,1,2130.0,0
1466,1466,-0.8652809091566636,-0.9,0.0,1.0,325.0,871.0,1.0,0,-1016.0,1
1467,1467,-0.7300847103395486,-0.7,1.0,0.0,291.0,581.0,0.0,0,2128.0,1
1468,1468,0.7435715445862804,0.7,1.0,1.0,423.0,577.0,0.0,0,2000.0,0
1469,1469,-0.3894730742014697,-0.4,1.0,0.0,349.0,869.0,0.0,0,1782.0,1
1470,1470,-0.4733325091751654,-0.5,1.0,0.0,433.0,990.0,0.0,0,1577.0,1
1471,1471,-0.552785759958969,-0.6,0.0,1.0,253.0,896.0,0.0,1,-979.0,0
