,trial,coherence,coherence_bin,green_side,correct_side,target_onset,checker_onset,decision,green_decision,decision_time,correct_decision
0,0,-0.8349909378752021,-0.8,0.0,1.0,302.0,920.0,1.0,0,178.0,1
1,1,-0.35369577157360876,-0.4,0.0,1.0,409.0,882.0,1.0,0,279.0,1
2,2,-0.8040928258022446,-0.8,0.0,1.0,305.0,537.0,1.0,0,148.0,1
3,3,-0.740790029676262,-0.7,0.0,1.0,276.0,574.0,1.0,0,190.0,1
4,4,0.8011926993199644,0.8,1.0,1.0,382.0,939.0,1.0,1,69.0,1
5,5,-0.09871704520736646,-0.1,0.0,1.0,330.0,749.0,1.0,0,541.0,1
6,6,-0.47585000352975537,-0.5,0.0,1.0,382.0,703.0,1.0,0,355.0,1
7,7,0.1893682737815915,0.2,1.0,1.0,341.0,997.0,1.0,1,122.0,1
8,8,-0.3746114194223885,-0.4,0.0,1.0,277.0,781.0,1.0,0,632.0,1
9,9,-0.43318677972139963,-0.4,0.0,1.0,447.0,726.0,1.0,0,217.0,1
10,10,0.1486817739465881,0.1,0.0,0.0,404.0,825.0,0.0,1,1771.0,1
11,11,0.48041291420649,0.5,0.0,0.0,276.0,933.0,0.0,1,341.0,1
12,12,0.42278699998830416,0.4,0.0,0.0,435.0,966.0,0.0,1,239.0,1
13,13,0.4573117961959846,0.5,0.0,0.0,336.0,681.0,0.0,1,373.0,1
14,14,0.37685440115064905,0.4,1.0,1.0,261.0,748.0,1.0,1,281.0,1
15,15,0.48826166881223,0.5,0.0,0.0,303.0,588.0,0.0,1,189.0,1
16,16,0.10119513891901433,0.1,0.0,0.0,338.0,770.0,0.0,1,1002.0,1
17,17,0.3371066043840457,0.3,1.0,1.0,384.0,675.0,1.0,1,231.0,1
18,18,0.7682796586612862,0.8,1.0,1.0,448.0,765.0,1.0,1,197.0,1
19,19,0.40580132002925573,0.4,1.0,1.0,367.0,959.0,1.0,1,484.0,1
20,20,0.3950935497838989,0.4,0.0,0.0,470.0,647.0,0.0,1,603.0,1
21,21,-0.11619500415564743,-0.1,1.0,0.0,411.0,822.0,0.0,0,1227.0,1
22,22,-0.6093282945085602,-0.6,0.0,1.0,415.0,569.0,1.0,0,486.0,1
23,23,-0.36564625200055956,-0.4,1.0,0.0,448.0,808.0,0.0,0,854.0,1
24,24,0.3170526047344152,0.3,0.0,0.0,308.0,975.0,0.0,1,227.0,1
25,25,-0.3634536832583838,-0.4,1.0,0.0,255.0,790.0,0.0,0,205.0,1
26,26,0.583580317485671,0.6,0.0,0.0,314.0,705.0,0.0,1,201.0,1
27,27,-0.27446260205846773,-0.3,0.0,1.0,401.0,596.0,1.0,0,853.0,1
28,28,0.8879733098748795,0.9,0.0,0.0,291.0,615.0,0.0,1,154.0,1
29,29,-0.7237117743857049,-0.7,0.0,1.0,338.0,911.0,1.0,0,141.0,1
30,30,-0.21225342410988968,-0.2,1.0,0.0,420.0,763.0,0.0,0,537.0,1
31,31,0.7052336236386559,0.7,1.0,1.0,399.0,898.0,1.0,1,243.0,1
32,32,0.8431584689076311,0.8,1.0,1.0,328.0,765.0,1.0,1,237.0,1
33,33,0.18849933821207066,0.2,1.0,1.0,283.0,553.0,1.0,1,824.0,1
34,34,0.6772604037839384,0.7,0.0,0.0,453.0,807.0,0.0,1,210.0,1
35,35,-0.23053120438427277,-0.2,1.0,0.0,312.0,698.0,0.0,0,1990.0,1
36,36,-0.47078836804576557,-0.5,1.0,0.0,328.0,630.0,0.0,0,542.0,1
37,37,0.8529605409889628,0.9,0.0,0.0,436.0,991.0,0.0,1,123.0,1
38,38,-0.06415733768533072,-0.1,0.0,1.0,322.0,535.0,1.0,0,1863.0,1
39,39,0.42699620601824184,0.4,1.0,1.0,268.0,642.0,1.0,1,540.0,1
40,40,0.17463551749391149,0.2,0.0,0.0,490.0,990.0,0.0,1,1500.0,1
41,41,-0.8243947703016785,-0.8,1.0,0.0,425.0,926.0,0.0,0,259.0,1
42,42,-0.09410989649143175,-0.1,1.0,0.0,366.0,526.0,0.0,0,2108.0,1
43,43,0.7915950057930309,0.8,0.0,0.0,306.0,558.0,0.0,1,236.0,1
44,44,-0.8211832646587338,-0.8,1.0,0.0,279.0,924.0,0.0,0,307.0,1
45,45,-0.7107226904405777,-0.7,0.0,1.0,381.0,764.0,1.0,0,455.0,1
46,46,-0.8413747691324346,-0.8,1.0,0.0,469.0,886.0,0.0,0,185.0,1
47,47,0.5653116782928628,0.6,1.0,1.0,463.0,964.0,1.0,1,343.0,1
48,48,-0.45063967485851847,-0.5,1.0,0.0,301.0,757.0,0.0,0,692.0,1
49,49,0.11264431081870308,0.1,0.0,0.0,482.0,737.0,0.0,1,1221.0,1
50,50,-0.4672810493888481,-0.5,1.0,0.0,445.0,874.0,0.0,0,391.0,1
51,51,0.547992255888193,0.5,1.0,1.0,462.0,848.0,1.0,1,520.0,1
52,52,0.8017630381308988,0.8,1.0,1.0,276.0,721.0,1.0,1,293.0,1
53,53,0.6467470938634844,0.6,1.0,1.0,312.0,714.0,1.0,1,154.0,1
54,54,-0.02509312368219685,-0.0,0.0,1.0,427.0,573.0,1.0,0,2000.0,1
55,55,-0.4069463957409819,-0.4,0.0,1.0,466.0,751.0,1.0,0,173.0,1
56,56,-0.3401965901552222,-0.3,0.0,1.0,287.0,981.0,1.0,0,-488.0,1
57,57,-0.4534961442479671,-0.5,1.0,0.0,403.0,925.0,0.0,0,452.0,1
58,58,0.7515740380300729,0.8,1.0,1.0,413.0,556.0,1.0,1,251.0,1
59,59,0.10617550720403235,0.1,0.0,0.0,396.0,620.0,0.0,1,1554.0,1
60,60,-0.21791034408804777,-0.2,1.0,0.0,336.0,510.0,0.0,0,284.0,1
61,61,0.6022591859429626,0.6,1.0,1.0,283.0,863.0,1.0,1,234.0,1
62,62,-0.08457187818615552,-0.1,1.0,0.0,288.0,518.0,0.0,0,2194.0,1
63,63,-0.520673437427738,-0.5,1.0,0.0,263.0,867.0,0.0,0,210.0,1
64,64,-0.3798053274828196,-0.4,1.0,0.0,255.0,895.0,0.0,0,320.0,1
65,65,-0.6195158567607566,-0.6,1.0,0.0,334.0,728.0,0.0,0,368.0,1
66,66,0.5268454058325883,0.5,1.0,1.0,411.0,516.0,1.0,1,123.0,1
67,67,0.7938086144724111,0.8,0.0,0.0,372.0,992.0,0.0,1,176.0,1
68,68,0.41356935911044046,0.4,0.0,0.0,329.0,659.0,0.0,1,542.0,1
69,69,0.8146210851515651,0.8,1.0,1.0,400.0,621.0,1.0,1,149.0,1
70,70,0.5652112128404277,0.6,1.0,1.0,324.0,843.0,1.0,1,193.0,1
71,71,0.25128407741874714,0.3,1.0,1.0,298.0,730.0,1.0,1,312.0,1
72,72,-0.09752220253422683,-0.1,1.0,0.0,453.0,838.0,0.0,0,1709.0,1
73,73,-0.5536902932623204,-0.6,1.0,0.0,290.0,987.0,0.0,0,233.0,1
74,74,0.8820414548043748,0.9,1.0,1.0,362.0,581.0,1.0,1,177.0,1
75,75,0.843212831280005,0.8,0.0,0.0,459.0,702.0,0.0,1,179.0,1
76,76,-0.4456775305861549,-0.4,1.0,0.0,382.0,989.0,0.0,0,289.0,1
77,77,0.006365721487256115,0.0,0.0,0.0,419.0,570.0,0.0,1,2011.0,1
78,78,0.5671812166021565,0.6,0.0,0.0,330.0,580.0,0.0,1,320.0,1
79,79,0.06048717081409949,0.1,0.0,0.0,320.0,823.0,0.0,1,1607.0,1
80,80,0.7324057233835294,0.7,0.0,0.0,315.0,636.0,0.0,1,509.0,1
81,81,0.18893917502557234,0.2,0.0,0.0,267.0,907.0,0.0,1,1826.0,1
82,82,0.669599080573292,0.7,0.0,0.0,488.0,832.0,0.0,1,250.0,1
83,83,-0.1197146728710008,-0.1,1.0,0.0,454.0,624.0,0.0,0,1922.0,1
84,84,0.23384485567952218,0.2,1.0,1.0,349.0,608.0,1.0,1,683.0,1
85,85,-0.47348735575174805,-0.5,0.0,1.0,257.0,992.0,1.0,0,161.0,1
86,86,0.4257126231879552,0.4,1.0,1.0,324.0,693.0,1.0,1,173.0,1
87,87,-0.538517602551075,-0.5,0.0,1.0,413.0,918.0,1.0,0,389.0,1
88,88,-0.11933329175953256,-0.1,1.0,0.0,304.0,817.0,0.0,0,1879.0,1
89,89,-0.3166080158378468,-0.3,1.0,0.0,310.0,615.0,0.0,0,625.0,1
90,90,-0.2260154596052263,-0.2,1.0,0.0,413.0,648.0,0.0,0,1939.0,1
91,91,0.7862086521144308,0.8,1.0,1.0,369.0,962.0,1.0,1,249.0,1
92,92,-0.005745268984492347,-0.0,0.0,1.0,426.0,805.0,0.0,1,1769.0,0
93,93,-0.1953322589565405,-0.2,1.0,0.0,265.0,893.0,0.0,0,1842.0,1
94,94,0.08209736722029326,0.1,1.0,1.0,445.0,653.0,1.0,1,1222.0,1
95,95,0.04422574473874619,0.0,0.0,0.0,377.0,586.0,0.0,1,607.0,1
96,96,-0.5370276785091088,-0.5,0.0,1.0,491.0,991.0,1.0,0,308.0,1
97,97,0.8123812837964505,0.8,0.0,0.0,272.0,692.0,0.0,1,176.0,1
98,98,0.7298435628945855,0.7,1.0,1.0,464.0,627.0,1.0,1,189.0,1
99,99,-0.16956176927677136,-0.2,0.0,1.0,390.0,786.0,1.0,0,654.0,1
100,100,0.5307015934724714,0.5,1.0,1.0,307.0,925.0,1.0,1,148.0,1
101,101,-0.09223030520867104,-0.1,1.0,0.0,449.0,938.0,0.0,0,1613.0,1
102,102,-0.14566078164173157,-0.1,1.0,0.0,367.0,543.0,0.0,0,900.0,1
103,103,-0.7632435999213769,-0.8,1.0,0.0,395.0,538.0,0.0,0,727.0,1
104,104,-0.5704647030202544,-0.6,1.0,0.0,460.0,557.0,0.0,0,483.0,1
105,105,0.3387742769987182,0.3,0.0,0.0,491.0,657.0,0.0,1,442.0,1
106,106,0.635332447415237,0.6,1.0,1.0,486.0,845.0,1.0,1,189.0,1
107,107,0.6344504058703769,0.6,1.0,1.0,430.0,877.0,1.0,1,153.0,1
108,108,0.15596934414768027,0.2,1.0,1.0,392.0,981.0,1.0,1,47.0,1
109,109,0.6571188888179215,0.7,1.0,1.0,264.0,965.0,1.0,1,231.0,1
110,110,0.134070030697775,0.1,1.0,1.0,481.0,590.0,1.0,1,1929.0,1
111,111,0.3383289769598993,0.3,0.0,0.0,286.0,512.0,0.0,1,472.0,1
112,112,-0.647014302134576,-0.6,0.0,1.0,434.0,746.0,1.0,0,310.0,1
113,113,-0.47607733958518933,-0.5,0.0,1.0,472.0,716.0,1.0,0,282.0,1
114,114,-0.8777437870772261,-0.9,0.0,1.0,342.0,809.0,1.0,0,139.0,1
115,115,0.8218815744141409,0.8,0.0,0.0,321.0,872.0,0.0,1,117.0,1
116,116,-0.0816984102673699,-0.1,1.0,0.0,443.0,827.0,0.0,0,1670.0,1
117,117,0.3357581054070561,0.3,1.0,1.0,490.0,997.0,1.0,1,363.0,1
118,118,-0.35096783157662226,-0.4,1.0,0.0,445.0,679.0,0.0,0,1826.0,1
119,119,-0.8649028674632315,-0.9,0.0,1.0,406.0,716.0,1.0,0,118.0,1
120,120,-0.6605308403393876,-0.7,1.0,0.0,254.0,616.0,0.0,0,230.0,1
121,121,0.21290014213964936,0.2,0.0,0.0,441.0,954.0,0.0,1,855.0,1
122,122,0.6908512884533132,0.7,1.0,1.0,410.0,665.0,1.0,1,275.0,1
123,123,0.4314607116435899,0.4,1.0,1.0,252.0,684.0,1.0,1,314.0,1
124,124,-0.6515254873836336,-0.7,0.0,1.0,459.0,765.0,1.0,0,256.0,1
125,125,-0.5465098919985006,-0.5,1.0,0.0,433.0,678.0,0.0,0,329.0,1
126,126,0.7340720796922034,0.7,1.0,1.0,417.0,929.0,1.0,1,94.0,1
127,127,-0.22865784672046796,-0.2,0.0,1.0,351.0,768.0,1.0,0,541.0,1
128,128,0.46826195361940914,0.5,0.0,0.0,386.0,945.0,0.0,1,-211.0,1
129,129,0.4174693060718807,0.4,0.0,0.0,403.0,754.0,0.0,1,263.0,1
130,130,0.2960286770406205,0.3,0.0,0.0,286.0,671.0,0.0,1,293.0,1
131,131,0.5639829943413125,0.6,1.0,1.0,371.0,583.0,1.0,1,76.0,1
132,132,0.434397248449239,0.4,1.0,1.0,355.0,739.0,1.0,1,566.0,1
133,133,-0.7553889978605363,-0.8,0.0,1.0,455.0,691.0,1.0,0,244.0,1
134,134,-0.1350482517344206,-0.1,0.0,1.0,411.0,676.0,1.0,0,1743.0,1
135,135,-0.15407678228939847,-0.2,0.0,1.0,308.0,945.0,1.0,0,447.0,1
136,136,-0.8482653151858948,-0.8,0.0,1.0,468.0,713.0,1.0,0,349.0,1
137,137,0.5626376696219993,0.6,0.0,0.0,366.0,772.0,0.0,1,232.0,1
138,138,0.401355809472128,0.4,1.0,1.0,250.0,847.0,1.0,1,193.0,1
139,139,-0.029996426315303526,-0.0,1.0,0.0,295.0,963.0,0.0,0,1742.0,1
140,140,0.242963871890853,0.2,0.0,0.0,481.0,856.0,0.0,1,193.0,1
141,141,-0.7696159496731972,-0.8,1.0,0.0,266.0,526.0,0.0,0,108.0,1
142,142,0.013748679228767768,0.0,1.0,1.0,359.0,948.0,1.0,1,1693.0,1
143,143,-0.25489227707878515,-0.3,1.0,0.0,496.0,783.0,0.0,0,371.0,1
144,144,0.6155321332619689,0.6,0.0,0.0,377.0,612.0,0.0,1,261.0,1
145,145,-0.10853091164466078,-0.1,0.0,1.0,419.0,559.0,1.0,0,2022.0,1
146,146,0.643429751141371,0.6,1.0,1.0,337.0,855.0,1.0,1,218.0,1
147,147,-0.20528676444933336,-0.2,1.0,0.0,483.0,821.0,0.0,0,306.0,1
148,148,-0.5034909322699374,-0.5,0.0,1.0,480.0,648.0,1.0,0,142.0,1
149,149,0.8281876943002789,0.8,0.0,0.0,406.0,702.0,0.0,1,232.0,1
150,150,0.47501797746368946,0.5,0.0,0.0,447.0,679.0,0.0,1,214.0,1
151,151,-0.07051590327954771,-0.1,1.0,0.0,491.0,637.0,0.0,0,1872.0,1
152,152,0.4670564746928002,0.5,1.0,1.0,457.0,675.0,1.0,1,508.0,1
153,153,-0.07593734538063535,-0.1,1.0,0.0,316.0,634.0,1.0,1,2050.0,0
154,154,-0.08340827535989093,-0.1,0.0,1.0,354.0,866.0,1.0,0,1780.0,1
155,155,-0.8259777725205029,-0.8,0.0,1.0,310.0,649.0,1.0,0,221.0,1
156,156,-0.8390091266535468,-0.8,1.0,0.0,272.0,644.0,0.0,0,444.0,1
157,157,0.009560626127964933,0.0,0.0,0.0,297.0,842.0,0.0,1,1861.0,1
158,158,-0.04895564510867345,-0.0,0.0,1.0,292.0,615.0,1.0,0,-137.0,1
159,159,0.3674015808111134,0.4,0.0,0.0,259.0,582.0,0.0,1,269.0,1
160,160,0.2729591380006956,0.3,1.0,1.0,280.0,596.0,1.0,1,414.0,1
161,161,-0.3036038960391271,-0.3,1.0,0.0,278.0,896.0,0.0,0,966.0,1
162,162,-0.394400125064556,-0.4,0.0,1.0,346.0,994.0,1.0,0,280.0,1
163,163,0.2534352731738053,0.3,1.0,1.0,417.0,902.0,1.0,1,271.0,1
164,164,-0.09350173757653846,-0.1,0.0,1.0,388.0,513.0,1.0,0,2019.0,1
165,165,0.7551119165000056,0.8,1.0,1.0,314.0,606.0,1.0,1,160.0,1
166,166,0.6209312945575306,0.6,0.0,0.0,495.0,911.0,0.0,1,204.0,1
167,167,-0.15849077638134978,-0.2,0.0,1.0,394.0,683.0,1.0,0,433.0,1
168,168,-0.26470581658411985,-0.3,1.0,0.0,411.0,635.0,0.0,0,674.0,1
169,169,0.1294605168566466,0.1,0.0,0.0,417.0,886.0,0.0,1,1027.0,1
170,170,0.4772566403154096,0.5,1.0,1.0,413.0,702.0,1.0,1,465.0,1
171,171,0.6219699064698524,0.6,0.0,0.0,448.0,596.0,0.0,1,316.0,1
172,172,-0.4270325389263022,-0.4,1.0,0.0,425.0,902.0,0.0,0,1293.0,1
173,173,0.7688027180663607,0.8,1.0,1.0,407.0,942.0,1.0,1,251.0,1
174,174,-0.3999171813802035,-0.4,0.0,1.0,414.0,877.0,1.0,0,199.0,1
175,175,0.8748143551448601,0.9,0.0,0.0,494.0,613.0,0.0,1,233.0,1
176,176,0.6596406709058987,0.7,0.0,0.0,285.0,610.0,0.0,1,115.0,1
177,177,-0.33885469164017845,-0.3,1.0,0.0,335.0,783.0,0.0,0,812.0,1
178,178,0.30299855348378035,0.3,1.0,1.0,468.0,735.0,1.0,1,167.0,1
179,179,0.6374218232307999,0.6,1.0,1.0,283.0,860.0,1.0,1,397.0,1
180,180,0.5612617034129918,0.6,0.0,0.0,298.0,817.0,0.0,1,345.0,1
181,181,-0.5607202295539528,-0.6,1.0,0.0,405.0,539.0,0.0,0,316.0,1
182,182,-0.5003923664575001,-0.5,1.0,0.0,374.0,576.0,0.0,0,1270.0,1
183,183,-0.03308718235905583,-0.0,1.0,0.0,289.0,769.0,0.0,0,1942.0,1
184,184,0.11170925646129082,0.1,1.0,1.0,439.0,657.0,1.0,1,784.0,1
185,185,-0.29148893965308087,-0.3,1.0,0.0,465.0,706.0,0.0,0,709.0,1
186,186,-0.5029078397763324,-0.5,0.0,1.0,391.0,707.0,1.0,0,592.0,1
187,187,0.2976461942349179,0.3,1.0,1.0,271.0,826.0,1.0,1,313.0,1
188,188,0.48008436722711567,0.5,1.0,1.0,326.0,882.0,1.0,1,372.0,1
189,189,-0.4030406019438117,-0.4,1.0,0.0,418.0,972.0,0.0,0,270.0,1
190,190,0.314253849346131,0.3,1.0,1.0,302.0,831.0,1.0,1,847.0,1
191,191,0.485987363737005,0.5,0.0,0.0,430.0,555.0,0.0,1,175.0,1
192,192,0.15173574453191907,0.2,1.0,1.0,391.0,994.0,1.0,1,1465.0,1
193,193,-0.45954522282873506,-0.5,0.0,1.0,472.0,720.0,1.0,0,418.0,1
194,194,0.6633261768096662,0.7,0.0,0.0,486.0,786.0,0.0,1,-212.0,1
195,195,0.7184614062329499,0.7,0.0,0.0,278.0,702.0,0.0,1,190.0,1
196,196,-0.06642005459204436,-0.1,0.0,1.0,452.0,533.0,1.0,0,2015.0,1
197,197,-0.7457458130038659,-0.7,0.0,1.0,475.0,540.0,1.0,0,125.0,1
198,198,0.500820192898476,0.5,1.0,1.0,319.0,927.0,1.0,1,254.0,1
199,199,0.8286103001375508,0.8,0.0,0.0,331.0,574.0,0.0,1,165.0,1
200,200,0.1374968804673059,0.1,1.0,1.0,330.0,913.0,1.0,1,1027.0,1
201,201,-0.3165291493816291,-0.3,1.0,0.0,290.0,974.0,0.0,0,576.0,1
202,202,0.24493535839304859,0.2,1.0,1.0,357.0,796.0,1.0,1,757.0,1
203,203,-0.613443755196702,-0.6,1.0,0.0,454.0,874.0,0.0,0,362.0,1
204,204,-0.391481096747194,-0.4,1.0,0.0,486.0,574.0,0.0,0,650.0,1
205,205,0.5655868023486766,0.6,1.0,1.0,346.0,512.0,1.0,1,252.0,1
206,206,-0.025032004599571,-0.0,0.0,1.0,285.0,530.0,1.0,0,2185.0,1
207,207,0.4903091778338041,0.5,1.0,1.0,488.0,844.0,1.0,1,208.0,1
208,208,-0.6168993689881199,-0.6,1.0,0.0,381.0,770.0,0.0,0,1089.0,1
209,209,-0.046775818636453526,-0.0,0.0,1.0,316.0,806.0,1.0,0,878.0,1
210,210,-0.7543360912914118,-0.8,1.0,0.0,412.0,747.0,0.0,0,101.0,1
211,211,-0.5740048055090607,-0.6,0.0,1.0,464.0,757.0,1.0,0,229.0,1
212,212,-0.08125739503631824,-0.1,0.0,1.0,456.0,764.0,1.0,0,720.0,1
213,213,0.2538359166524943,0.3,0.0,0.0,383.0,508.0,0.0,1,739.0,1
214,214,-0.07514198617642442,-0.1,1.0,0.0,402.0,820.0,0.0,0,1778.0,1
215,215,-0.6432409651651184,-0.6,0.0,1.0,295.0,582.0,1.0,0,183.0,1
216,216,0.3839999807148483,0.4,1.0,1.0,373.0,727.0,1.0,1,1190.0,1
217,217,0.09216324612638538,0.1,1.0,1.0,428.0,683.0,1.0,1,1889.0,1
218,218,0.2514627507974675,0.3,1.0,1.0,371.0,524.0,1.0,1,1085.0,1
219,219,0.3010437861387135,0.3,0.0,0.0,428.0,662.0,0.0,1,340.0,1
220,220,-0.4349525755952562,-0.4,1.0,0.0,439.0,809.0,0.0,0,312.0,1
221,221,0.579263683283154,0.6,1.0,1.0,312.0,992.0,1.0,1,126.0,1
222,222,-0.2575851301481329,-0.3,0.0,1.0,357.0,738.0,1.0,0,635.0,1
223,223,-0.7813114935869847,-0.8,0.0,1.0,397.0,756.0,1.0,0,207.0,1
224,224,-0.01125780660760567,-0.0,0.0,1.0,366.0,903.0,1.0,0,1731.0,1
225,225,-0.0830900209063179,-0.1,0.0,1.0,300.0,965.0,1.0,0,-245.0,1
226,226,0.36973532190050873,0.4,1.0,1.0,383.0,878.0,1.0,1,349.0,1
227,227,0.1699764255789672,0.2,0.0,0.0,256.0,784.0,0.0,1,540.0,1
228,228,0.4574176194745304,0.5,1.0,1.0,415.0,729.0,1.0,1,326.0,1
229,229,-0.1771745941937508,-0.2,1.0,0.0,378.0,652.0,0.0,0,750.0,1
230,230,0.7220688669337881,0.7,0.0,0.0,385.0,801.0,0.0,1,194.0,1
231,231,0.7542468390576113,0.8,0.0,0.0,270.0,658.0,0.0,1,132.0,1
232,232,-0.5365342446865098,-0.5,0.0,1.0,447.0,764.0,1.0,0,509.0,1
233,233,0.30627642816463096,0.3,1.0,1.0,329.0,971.0,1.0,1,360.0,1
234,234,0.2987798181793343,0.3,0.0,0.0,313.0,840.0,0.0,1,287.0,1
235,235,-0.5248459854378325,-0.5,0.0,1.0,374.0,564.0,1.0,0,352.0,1
236,236,0.8373130050558938,0.8,1.0,1.0,299.0,956.0,1.0,1,95.0,1
237,237,0.11735793757480584,0.1,1.0,1.0,336.0,953.0,1.0,1,1611.0,1
238,238,0.21195677521991863,0.2,1.0,1.0,350.0,738.0,1.0,1,752.0,1
239,239,-0.34112889732454843,-0.3,0.0,1.0,411.0,973.0,1.0,0,276.0,1
240,240,-0.11921733769914733,-0.1,0.0,1.0,323.0,556.0,1.0,0,2121.0,1
241,241,0.06414269841687292,0.1,0.0,0.0,338.0,627.0,1.0,0,2035.0,0
242,242,0.1574429157977214,0.2,0.0,0.0,289.0,988.0,0.0,1,743.0,1
243,243,0.7731752154035657,0.8,1.0,1.0,354.0,528.0,1.0,1,328.0,1
244,244,0.5811001307927258,0.6,0.0,0.0,492.0,739.0,0.0,1,439.0,1
245,245,0.47613509829011014,0.5,0.0,0.0,384.0,891.0,0.0,1,115.0,1
246,246,0.278283089787389,0.3,1.0,1.0,458.0,812.0,1.0,1,470.0,1
247,247,0.3601960211521308,0.4,1.0,1.0,395.0,867.0,1.0,1,478.0,1
248,248,-0.41307535708812,-0.4,1.0,0.0,264.0,951.0,0.0,0,645.0,1
249,249,0.5740530960844222,0.6,0.0,0.0,347.0,602.0,0.0,1,221.0,1
250,250,0.25480613085216264,0.3,1.0,1.0,392.0,635.0,1.0,1,583.0,1
251,251,-0.8030644399412606,-0.8,0.0,1.0,250.0,838.0,1.0,0,102.0,1
252,252,-0.5218257208245631,-0.5,0.0,1.0,450.0,938.0,1.0,0,192.0,1
253,253,-0.37731691072851203,-0.4,1.0,0.0,436.0,742.0,0.0,0,732.0,1
254,254,0.21194148995737605,0.2,1.0,1.0,328.0,792.0,1.0,1,450.0,1
255,255,-0.8403448836895027,-0.8,0.0,1.0,363.0,921.0,1.0,0,196.0,1
256,256,0.15095584459512745,0.2,0.0,0.0,367.0,512.0,0.0,1,1311.0,1
257,257,-0.7252189253084278,-0.7,0.0,1.0,386.0,938.0,1.0,0,266.0,1
258,258,-0.7579484396082836,-0.8,0.0,1.0,318.0,688.0,1.0,0,324.0,1
259,259,0.4941196350703597,0.5,1.0,1.0,256.0,835.0,1.0,1,569.0,1
260,260,0.7258868101242771,0.7,1.0,1.0,414.0,696.0,1.0,1,330.0,1
261,261,-0.5947095728141851,-0.6,0.0,1.0,456.0,578.0,1.0,0,276.0,1
262,262,-0.11824428383826291,-0.1,0.0,1.0,450.0,981.0,1.0,0,299.0,1
263,263,-0.5644326414121117,-0.6,1.0,0.0,348.0,890.0,0.0,0,182.0,1
264,264,-0.7908699828868072,-0.8,1.0,0.0,255.0,832.0,0.0,0,343.0,1
265,265,-0.6491182887539559,-0.6,0.0,1.0,287.0,750.0,1.0,0,173.0,1
266,266,-0.4916830961213164,-0.5,1.0,0.0,493.0,698.0,0.0,0,339.0,1
267,267,0.13758717780906216,0.1,1.0,1.0,402.0,986.0,1.0,1,722.0,1
268,268,-0.5786884434079219,-0.6,0.0,1.0,288.0,765.0,1.0,0,147.0,1
269,269,-0.35175165423460253,-0.4,1.0,0.0,439.0,990.0,0.0,0,191.0,1
270,270,-0.2312472862344831,-0.2,1.0,0.0,464.0,743.0,0.0,0,373.0,1
271,271,-0.7264548137284382,-0.7,1.0,0.0,392.0,780.0,0.0,0,608.0,1
272,272,-0.8295499337004293,-0.8,0.0,1.0,434.0,784.0,1.0,0,262.0,1
273,273,-0.2257155423267938,-0.2,0.0,1.0,285.0,799.0,1.0,0,256.0,1
274,274,0.12672430350475972,0.1,1.0,1.0,313.0,960.0,1.0,1,1607.0,1
275,275,0.2159687057162164,0.2,0.0,0.0,326.0,608.0,0.0,1,356.0,1
276,276,-0.3221033163148531,-0.3,1.0,0.0,269.0,766.0,0.0,0,445.0,1
277,277,0.5966917009202509,0.6,1.0,1.0,259.0,580.0,1.0,1,171.0,1
278,278,-0.3026121895623759,-0.3,1.0,0.0,327.0,698.0,0.0,0,755.0,1
279,279,-0.21903075320787835,-0.2,1.0,0.0,371.0,861.0,0.0,0,858.0,1
280,280,0.8280020629250265,0.8,1.0,1.0,344.0,771.0,1.0,1,235.0,1
281,281,-0.7262749516761835,-0.7,0.0,1.0,262.0,998.0,1.0,0,180.0,1
282,282,0.2955522133058005,0.3,1.0,1.0,480.0,732.0,1.0,1,408.0,1
283,283,0.3427925962578898,0.3,0.0,0.0,273.0,739.0,0.0,1,438.0,1
284,284,0.36753633985645473,0.4,1.0,1.0,393.0,971.0,1.0,1,426.0,1
285,285,0.3440372802289605,0.3,1.0,1.0,454.0,863.0,1.0,1,823.0,1
286,286,0.6419654140359049,0.6,1.0,1.0,474.0,547.0,1.0,1,279.0,1
287,287,0.5267974163573447,0.5,1.0,1.0,276.0,800.0,1.0,1,254.0,1
288,288,-0.8071200638870915,-0.8,0.0,1.0,331.0,923.0,1.0,0,166.0,1
289,289,0.5669948933853824,0.6,0.0,0.0,285.0,868.0,0.0,1,147.0,1
290,290,-0.05575732326954752,-0.1,1.0,0.0,350.0,520.0,0.0,0,2130.0,1
291,291,-0.37934149870703304,-0.4,1.0,0.0,305.0,869.0,0.0,0,96.0,1
292,292,-0.549075197068269,-0.5,1.0,0.0,310.0,552.0,0.0,0,398.0,1
293,293,-0.32550587766997563,-0.3,1.0,0.0,300.0,536.0,0.0,0,774.0,1
294,294,0.7213682634589088,0.7,1.0,1.0,314.0,577.0,1.0,1,179.0,1
295,295,-0.5186891197830288,-0.5,1.0,0.0,322.0,665.0,0.0,0,383.0,1
296,296,-0.36688026315903344,-0.4,1.0,0.0,358.0,592.0,0.0,0,1160.0,1
297,297,-0.09287539805344036,-0.1,1.0,0.0,471.0,711.0,0.0,0,1818.0,1
298,298,-0.7073647366287364,-0.7,0.0,1.0,298.0,535.0,1.0,0,447.0,1
299,299,0.4836384989928445,0.5,0.0,0.0,454.0,934.0,1.0,0,-8.0,0
300,300,-0.3399554278127619,-0.3,1.0,0.0,255.0,927.0,0.0,0,788.0,1
301,301,-0.7504935304308222,-0.8,0.0,1.0,343.0,972.0,1.0,0,185.0,1
302,302,-0.2335405207785789,-0.2,1.0,0.0,384.0,797.0,1.0,1,-201.0,0
303,303,0.3061646779826931,0.3,1.0,1.0,488.0,892.0,1.0,1,320.0,1
304,304,-0.3952027267938386,-0.4,1.0,0.0,480.0,641.0,0.0,0,879.0,1
305,305,-0.8896386415664699,-0.9,1.0,0.0,484.0,811.0,0.0,0,155.0,1
306,306,-0.663599927339183,-0.7,1.0,0.0,434.0,950.0,0.0,0,366.0,1
307,307,-0.006529658656108661,-0.0,0.0,1.0,406.0,839.0,0.0,1,1755.0,0
308,308,0.25476732140599767,0.3,1.0,1.0,321.0,876.0,1.0,1,323.0,1
309,309,0.03332936604883541,0.0,1.0,1.0,498.0,665.0,1.0,1,1837.0,1
310,310,-0.6909689137334634,-0.7,0.0,1.0,474.0,938.0,1.0,0,198.0,1
311,311,-0.005724866450371402,-0.0,1.0,0.0,446.0,615.0,0.0,0,1939.0,1
312,312,-0.44397817578655824,-0.4,1.0,0.0,284.0,774.0,0.0,0,192.0,1
313,313,0.4464411306380497,0.4,1.0,1.0,385.0,863.0,1.0,1,242.0,1
314,314,0.32586999291875796,0.3,0.0,0.0,275.0,970.0,0.0,1,665.0,1
315,315,0.5555199750909355,0.6,1.0,1.0,298.0,827.0,1.0,1,185.0,1
316,316,0.219105288440555,0.2,0.0,0.0,325.0,648.0,0.0,1,1067.0,1
317,317,0.19762329466603024,0.2,1.0,1.0,425.0,621.0,1.0,1,894.0,1
318,318,-0.11493315198394782,-0.1,0.0,1.0,308.0,892.0,1.0,0,1040.0,1
319,319,-0.8077581508403473,-0.8,1.0,0.0,262.0,533.0,0.0,0,105.0,1
320,320,-0.6430143080226927,-0.6,0.0,1.0,460.0,959.0,1.0,0,261.0,1
321,321,-0.6921682136526232,-0.7,1.0,0.0,493.0,515.0,0.0,0,402.0,1
322,322,-0.04224049789151496,-0.0,0.0,1.0,381.0,631.0,1.0,0,1988.0,1
323,323,0.6770524915044148,0.7,0.0,0.0,479.0,763.0,0.0,1,168.0,1
324,324,-0.3818115911513328,-0.4,0.0,1.0,444.0,923.0,1.0,0,273.0,1
325,325,0.3469147138890313,0.3,1.0,1.0,430.0,796.0,1.0,1,464.0,1
326,326,-0.27540217360476404,-0.3,0.0,1.0,427.0,616.0,1.0,0,577.0,1
327,327,0.12138379674712862,0.1,0.0,0.0,419.0,656.0,0.0,1,1925.0,1
328,328,0.6787681157962636,0.7,0.0,0.0,337.0,912.0,0.0,1,311.0,1
329,329,-0.3375859137931433,-0.3,0.0,1.0,471.0,779.0,1.0,0,170.0,1
330,330,0.895766404340515,0.9,1.0,1.0,329.0,516.0,1.0,1,225.0,1
331,331,-0.6089267807204108,-0.6,0.0,1.0,435.0,518.0,1.0,0,437.0,1
332,332,-0.4683173567441865,-0.5,0.0,1.0,368.0,807.0,1.0,0,395.0,1
333,333,-0.8715887234350345,-0.9,0.0,1.0,282.0,951.0,1.0,0,177.0,1
334,334,0.7163489886274418,0.7,0.0,0.0,448.0,574.0,0.0,1,238.0,1
335,335,-0.7616359237751802,-0.8,1.0,0.0,282.0,572.0,0.0,0,206.0,1
336,336,0.455521802662639,0.5,1.0,1.0,429.0,522.0,1.0,1,239.0,1
337,337,0.1690228955305061,0.2,0.0,0.0,457.0,578.0,0.0,1,575.0,1
338,338,-0.730467048040075,-0.7,0.0,1.0,284.0,986.0,1.0,0,20.0,1
339,339,0.05571053867807241,0.1,0.0,0.0,319.0,624.0,0.0,1,2057.0,1
340,340,-0.11311832191038496,-0.1,0.0,1.0,276.0,625.0,1.0,0,809.0,1
341,341,0.5909965826965121,0.6,0.0,0.0,414.0,851.0,0.0,1,155.0,1
342,342,0.18307893644034212,0.2,1.0,1.0,358.0,854.0,1.0,1,1028.0,1
343,343,-0.0013031844906739032,-0.0,0.0,1.0,344.0,613.0,0.0,1,523.0,0
344,344,-0.37279438307317336,-0.4,0.0,1.0,251.0,725.0,1.0,0,174.0,1
345,345,-0.22635224816342292,-0.2,0.0,1.0,444.0,789.0,1.0,0,277.0,1
346,346,-0.515679746651126,-0.5,0.0,1.0,268.0,585.0,1.0,0,327.0,1
347,347,-0.31027538897030804,-0.3,1.0,0.0,333.0,543.0,0.0,0,894.0,1
348,348,-0.01945752340527307,-0.0,1.0,0.0,294.0,646.0,0.0,0,2060.0,1
349,349,0.7829303777714013,0.8,0.0,0.0,265.0,777.0,0.0,1,168.0,1
350,350,-0.05013128337506667,-0.1,1.0,0.0,309.0,737.0,1.0,1,1954.0,0
351,351,0.24375676808348612,0.2,0.0,0.0,315.0,816.0,0.0,1,389.0,1
352,352,-0.24359256868239787,-0.2,1.0,0.0,333.0,944.0,0.0,0,893.0,1
353,353,0.6818797614160449,0.7,0.0,0.0,287.0,667.0,0.0,1,176.0,1
354,354,0.5347143282196299,0.5,1.0,1.0,302.0,552.0,1.0,1,306.0,1
355,355,-0.014224613546318432,-0.0,1.0,0.0,399.0,765.0,0.0,0,1836.0,1
356,356,-0.49567294732074013,-0.5,1.0,0.0,310.0,852.0,0.0,0,258.0,1
357,357,-0.7524180251868837,-0.8,0.0,1.0,403.0,668.0,1.0,0,309.0,1
358,358,0.677969077522199,0.7,0.0,0.0,317.0,839.0,0.0,1,194.0,1
359,359,-0.4387324058870913,-0.4,1.0,0.0,306.0,933.0,0.0,0,571.0,1
360,360,-0.7173826490490048,-0.7,1.0,0.0,466.0,523.0,0.0,0,201.0,1
361,361,0.8071912680110623,0.8,1.0,1.0,317.0,517.0,1.0,1,396.0,1
362,362,0.725957834311931,0.7,0.0,0.0,270.0,970.0,0.0,1,200.0,1
363,363,-0.0669881559740485,-0.1,0.0,1.0,345.0,636.0,1.0,0,539.0,1
364,364,-0.6436907744714425,-0.6,0.0,1.0,270.0,990.0,1.0,0,280.0,1
365,365,-0.8952980086685957,-0.9,0.0,1.0,311.0,819.0,1.0,0,170.0,1
366,366,-0.5092728326289556,-0.5,0.0,1.0,483.0,586.0,1.0,0,-269.0,1
367,367,-0.6827533488321826,-0.7,1.0,0.0,347.0,957.0,0.0,0,326.0,1
368,368,0.40830325691000036,0.4,0.0,0.0,468.0,910.0,0.0,1,222.0,1
369,369,-0.670789486535823,-0.7,1.0,0.0,388.0,511.0,0.0,0,1181.0,1
370,370,0.4868602774196146,0.5,0.0,0.0,306.0,593.0,0.0,1,281.0,1
371,371,-0.606207634027645,-0.6,1.0,0.0,313.0,638.0,0.0,0,419.0,1
372,372,-0.6316516491384642,-0.6,1.0,0.0,408.0,582.0,0.0,0,820.0,1
373,373,0.4713340601238233,0.5,0.0,0.0,279.0,719.0,0.0,1,232.0,1
374,374,0.007487877828861511,0.0,0.0,0.0,323.0,568.0,0.0,1,809.0,1
375,375,-0.8651124865196093,-0.9,1.0,0.0,468.0,957.0,0.0,0,245.0,1
376,376,0.18885438669754617,0.2,1.0,1.0,274.0,943.0,1.0,1,563.0,1
377,377,0.7088102794731842,0.7,1.0,1.0,303.0,979.0,1.0,1,78.0,1
378,378,-0.7868221818299679,-0.8,0.0,1.0,265.0,993.0,1.0,0,192.0,1
379,379,0.38622351619320494,0.4,1.0,1.0,250.0,624.0,1.0,1,206.0,1
380,380,-0.10906993447193913,-0.1,0.0,1.0,285.0,927.0,1.0,0,678.0,1
381,381,0.5627443767718653,0.6,0.0,0.0,378.0,560.0,0.0,1,232.0,1
382,382,0.5378515839164887,0.5,0.0,0.0,374.0,969.0,0.0,1,207.0,1
383,383,0.4759769273571718,0.5,0.0,0.0,452.0,659.0,0.0,1,259.0,1
384,384,0.24321057496479004,0.2,0.0,0.0,294.0,941.0,0.0,1,215.0,1
385,385,-0.8336605528747575,-0.8,0.0,1.0,341.0,609.0,1.0,0,190.0,1
386,386,-0.43247825080804264,-0.4,1.0,0.0,295.0,952.0,1.0,1,-47.0,0
387,387,-0.014456977060019693,-0.0,1.0,0.0,492.0,669.0,1.0,1,1839.0,0
388,388,0.3807247295394126,0.4,1.0,1.0,403.0,516.0,1.0,1,291.0,1
389,389,-0.5929796202362466,-0.6,0.0,1.0,382.0,781.0,1.0,0,307.0,1
390,390,-0.07983552917417314,-0.1,1.0,0.0,280.0,884.0,0.0,0,1836.0,1
391,391,-0.5683608055331716,-0.6,0.0,1.0,376.0,637.0,1.0,0,337.0,1
392,392,0.24365221029367434,0.2,1.0,1.0,403.0,869.0,1.0,1,508.0,1
393,393,0.5654589918146754,0.6,0.0,0.0,316.0,794.0,0.0,1,650.0,1
394,394,0.4345209871851704,0.4,1.0,1.0,446.0,718.0,1.0,1,516.0,1
395,395,0.6196144140952203,0.6,0.0,0.0,370.0,744.0,0.0,1,306.0,1
396,396,0.571781225120155,0.6,0.0,0.0,355.0,729.0,0.0,1,226.0,1
397,397,-0.6991616788101039,-0.7,1.0,0.0,360.0,977.0,0.0,0,393.0,1
398,398,-0.4959216150985104,-0.5,1.0,0.0,306.0,653.0,0.0,0,251.0,1
399,399,0.43347970572731,0.4,0.0,0.0,384.0,973.0,0.0,1,613.0,1
400,400,0.16090836190485092,0.2,0.0,0.0,376.0,972.0,1.0,0,-498.0,0
401,401,-0.6468240517129693,-0.6,1.0,0.0,329.0,985.0,0.0,0,126.0,1
402,402,-0.34902954130777597,-0.3,0.0,1.0,446.0,604.0,1.0,0,730.0,1
403,403,0.3856184089847189,0.4,0.0,0.0,385.0,880.0,0.0,1,295.0,1
404,404,-0.8218020623093546,-0.8,1.0,0.0,336.0,723.0,0.0,0,151.0,1
405,405,-0.8804457838697075,-0.9,0.0,1.0,316.0,842.0,1.0,0,252.0,1
406,406,0.4819671717844999,0.5,0.0,0.0,331.0,823.0,0.0,1,266.0,1
407,407,-0.8352170293075318,-0.8,0.0,1.0,483.0,874.0,1.0,0,263.0,1
408,408,-0.7372848104815503,-0.7,0.0,1.0,324.0,698.0,1.0,0,178.0,1
409,409,0.5549603290975692,0.6,0.0,0.0,270.0,581.0,0.0,1,319.0,1
410,410,0.6814618072197164,0.7,0.0,0.0,355.0,514.0,0.0,1,211.0,1
411,411,-0.5873959455624995,-0.6,1.0,0.0,312.0,526.0,0.0,0,232.0,1
412,412,0.5734080900014594,0.6,1.0,1.0,366.0,644.0,1.0,1,400.0,1
413,413,-0.3979869304934265,-0.4,0.0,1.0,266.0,858.0,1.0,0,566.0,1
414,414,-0.6328566535294953,-0.6,0.0,1.0,401.0,781.0,1.0,0,308.0,1
415,415,0.3394625120817688,0.3,1.0,1.0,279.0,932.0,1.0,1,149.0,1
416,416,-0.19280093461696868,-0.2,0.0,1.0,284.0,689.0,1.0,0,787.0,1
417,417,0.2712794911071855,0.3,0.0,0.0,359.0,967.0,0.0,1,484.0,1
418,418,0.7616481887019252,0.8,0.0,0.0,318.0,724.0,0.0,1,238.0,1
419,419,-0.50602470113202,-0.5,1.0,0.0,315.0,725.0,0.0,0,510.0,1
420,420,-0.2139091444062332,-0.2,0.0,1.0,475.0,569.0,1.0,0,666.0,1
421,421,0.07202954155463837,0.1,0.0,0.0,416.0,899.0,0.0,1,1685.0,1
422,422,-0.28400444733584607,-0.3,1.0,0.0,331.0,731.0,0.0,0,778.0,1
423,423,0.81204152765393,0.8,1.0,1.0,291.0,793.0,1.0,1,316.0,1
424,424,-0.42673338651201587,-0.4,0.0,1.0,427.0,878.0,1.0,0,215.0,1
425,425,-0.3691688329494085,-0.4,0.0,1.0,362.0,532.0,1.0,0,86.0,1
426,426,-0.3504792979084592,-0.4,1.0,0.0,319.0,513.0,0.0,0,818.0,1
427,427,-0.787387699917134,-0.8,1.0,0.0,303.0,664.0,0.0,0,193.0,1
428,428,0.6209756033921457,0.6,1.0,1.0,270.0,868.0,1.0,1,232.0,1
429,429,-0.04903141798416555,-0.0,0.0,1.0,388.0,953.0,0.0,1,1659.0,0
430,430,0.19501566199509546,0.2,1.0,1.0,255.0,835.0,1.0,1,1800.0,1
431,431,0.25896303730908,0.3,0.0,0.0,261.0,693.0,0.0,1,966.0,1
432,432,0.5569584696840874,0.6,1.0,1.0,346.0,757.0,1.0,1,177.0,1
433,433,0.5477760208301344,0.5,0.0,0.0,313.0,935.0,0.0,1,302.0,1
434,434,-0.21780850478293234,-0.2,0.0,1.0,358.0,790.0,1.0,0,422.0,1
435,435,-0.48112341915479756,-0.5,1.0,0.0,440.0,776.0,0.0,0,574.0,1
436,436,0.12865471013022167,0.1,0.0,0.0,379.0,579.0,0.0,1,1942.0,1
437,437,0.13722348246640903,0.1,0.0,0.0,282.0,832.0,0.0,1,1106.0,1
438,438,0.11481605065239975,0.1,0.0,0.0,474.0,572.0,1.0,0,54.0,0
439,439,0.06885824277124819,0.1,1.0,1.0,394.0,869.0,1.0,1,1677.0,1
440,440,0.15556931238530447,0.2,0.0,0.0,409.0,659.0,0.0,1,1312.0,1
441,441,-0.4458810045118753,-0.4,0.0,1.0,462.0,765.0,1.0,0,313.0,1
442,442,-0.43935667700818254,-0.4,0.0,1.0,415.0,537.0,1.0,0,328.0,1
443,443,-0.13392312426459407,-0.1,1.0,0.0,483.0,541.0,0.0,0,1976.0,1
444,444,-0.4418789270503219,-0.4,1.0,0.0,495.0,774.0,0.0,0,461.0,1
445,445,-0.3683159273630382,-0.4,1.0,0.0,363.0,817.0,0.0,0,540.0,1
446,446,0.598654949463664,0.6,0.0,0.0,370.0,713.0,0.0,1,177.0,1
447,447,0.4376831488725842,0.4,0.0,0.0,499.0,850.0,0.0,1,251.0,1
448,448,-0.44932029847090454,-0.4,1.0,0.0,273.0,924.0,0.0,0,803.0,1
449,449,0.10073314499593777,0.1,0.0,0.0,369.0,688.0,0.0,1,913.0,1
450,450,0.050769905169107954,0.1,0.0,0.0,314.0,922.0,0.0,1,1734.0,1
451,451,-0.7336255025758284,-0.7,0.0,1.0,368.0,630.0,1.0,0,302.0,1
452,452,0.8358667425605909,0.8,1.0,1.0,401.0,530.0,1.0,1,339.0,1
453,453,0.8736692660443491,0.9,1.0,1.0,318.0,502.0,1.0,1,40.0,1
454,454,0.29865437123258387,0.3,1.0,1.0,334.0,864.0,1.0,1,272.0,1
455,455,0.47875928962028425,0.5,0.0,0.0,469.0,621.0,0.0,1,800.0,1
456,456,0.8536952336757017,0.9,1.0,1.0,284.0,970.0,1.0,1,86.0,1
457,457,0.43660032149462935,0.4,1.0,1.0,264.0,924.0,1.0,1,342.0,1
458,458,0.06404156265083139,0.1,0.0,0.0,427.0,527.0,0.0,1,406.0,1
459,459,0.4198937745266563,0.4,1.0,1.0,479.0,568.0,1.0,1,123.0,1
460,460,0.39593580689227925,0.4,1.0,1.0,459.0,976.0,1.0,1,135.0,1
461,461,-0.8559215639110297,-0.9,0.0,1.0,291.0,888.0,1.0,0,151.0,1
462,462,0.21800746006683636,0.2,0.0,0.0,271.0,543.0,0.0,1,766.0,1
463,463,0.1806549745790017,0.2,0.0,0.0,491.0,801.0,0.0,1,1708.0,1
464,464,-0.04529406798298086,-0.0,1.0,0.0,328.0,602.0,0.0,0,1080.0,1
465,465,-0.6460022213474008,-0.6,0.0,1.0,327.0,994.0,1.0,0,279.0,1
466,466,-0.6176237636251302,-0.6,0.0,1.0,401.0,692.0,1.0,0,397.0,1
467,467,0.7485906111410404,0.7,0.0,0.0,307.0,860.0,0.0,1,143.0,1
468,468,-0.8093298345036034,-0.8,0.0,1.0,403.0,538.0,1.0,0,189.0,1
469,469,0.07364763606774449,0.1,1.0,1.0,366.0,788.0,1.0,1,1846.0,1
470,470,0.1693128547507553,0.2,1.0,1.0,375.0,995.0,1.0,1,1630.0,1
471,471,-0.21961366065205312,-0.2,0.0,1.0,311.0,855.0,1.0,0,574.0,1
472,472,-0.3303002563351337,-0.3,0.0,1.0,400.0,750.0,1.0,0,130.0,1
473,473,-0.158034413142507,-0.2,1.0,0.0,447.0,550.0,0.0,0,1103.0,1
474,474,-0.39170625625858035,-0.4,0.0,1.0,251.0,893.0,1.0,0,186.0,1
475,475,0.8524778292961867,0.9,0.0,0.0,356.0,861.0,0.0,1,213.0,1
476,476,0.8262694354123566,0.8,1.0,1.0,316.0,681.0,1.0,1,273.0,1
477,477,0.17507707284819263,0.2,1.0,1.0,476.0,520.0,1.0,1,1944.0,1
478,478,-0.19101435022928193,-0.2,0.0,1.0,451.0,779.0,1.0,0,510.0,1
479,479,-0.6025888956016251,-0.6,0.0,1.0,250.0,559.0,1.0,0,481.0,1
480,480,-0.6654031062457217,-0.7,1.0,0.0,451.0,508.0,0.0,0,421.0,1
481,481,-0.2984295620233792,-0.3,0.0,1.0,448.0,585.0,1.0,0,517.0,1
482,482,0.5479001436952403,0.5,0.0,0.0,361.0,611.0,0.0,1,478.0,1
483,483,-0.39323916948109583,-0.4,1.0,0.0,301.0,699.0,0.0,0,890.0,1
484,484,0.8179844340558021,0.8,1.0,1.0,455.0,860.0,1.0,1,225.0,1
485,485,-0.7040540498050352,-0.7,1.0,0.0,438.0,519.0,0.0,0,993.0,1
486,486,0.7232471434335855,0.7,1.0,1.0,480.0,938.0,1.0,1,122.0,1
487,487,0.5451431904161387,0.5,0.0,0.0,359.0,656.0,0.0,1,185.0,1
488,488,-0.28025545327643686,-0.3,0.0,1.0,430.0,743.0,1.0,0,407.0,1
489,489,-0.7040296469372112,-0.7,1.0,0.0,258.0,884.0,0.0,0,418.0,1
490,490,-0.5436814571594983,-0.5,0.0,1.0,303.0,646.0,1.0,0,191.0,1
491,491,0.23481789239975426,0.2,0.0,0.0,275.0,827.0,0.0,1,668.0,1
492,492,-0.8236865160586225,-0.8,0.0,1.0,459.0,900.0,1.0,0,181.0,1
493,493,0.794335478432788,0.8,1.0,1.0,294.0,828.0,1.0,1,48.0,1
494,494,0.6117284876055732,0.6,0.0,0.0,374.0,734.0,0.0,1,352.0,1
495,495,0.4728023589165907,0.5,1.0,1.0,459.0,947.0,1.0,1,294.0,1
496,496,0.32205451454017153,0.3,0.0,0.0,268.0,872.0,0.0,1,310.0,1
497,497,-0.8811377125439358,-0.9,0.0,1.0,254.0,625.0,1.0,0,381.0,1
498,498,0.7290025924108893,0.7,0.0,0.0,366.0,757.0,0.0,1,377.0,1
499,499,-0.18139010034341685,-0.2,1.0,0.0,425.0,505.0,0.0,0,810.0,1
500,500,-0.366697299045709,-0.4,0.0,1.0,351.0,610.0,1.0,0,199.0,1
501,501,-0.1271177454708995,-0.1,0.0,1.0,419.0,845.0,1.0,0,116.0,1
502,502,0.7071356669751699,0.7,0.0,0.0,470.0,740.0,0.0,1,200.0,1
503,503,-0.6194746266137706,-0.6,0.0,1.0,402.0,797.0,1.0,0,141.0,1
504,504,0.7132349670002395,0.7,0.0,0.0,349.0,730.0,0.0,1,201.0,1
505,505,-0.13277975469408076,-0.1,1.0,0.0,431.0,579.0,0.0,0,1540.0,1
506,506,0.7129582774533713,0.7,1.0,1.0,402.0,716.0,1.0,1,412.0,1
507,507,0.7421909486235699,0.7,0.0,0.0,475.0,507.0,0.0,1,278.0,1
508,508,0.20459286459913806,0.2,1.0,1.0,428.0,560.0,1.0,1,312.0,1
509,509,0.365177595082102,0.4,1.0,1.0,280.0,897.0,1.0,1,423.0,1
510,510,0.17638133792723576,0.2,1.0,1.0,373.0,654.0,1.0,1,653.0,1
511,511,-0.3697633060656631,-0.4,0.0,1.0,255.0,813.0,1.0,0,202.0,1
512,512,0.27865509030348823,0.3,1.0,1.0,446.0,962.0,1.0,1,422.0,1
513,513,-0.028263446234492617,-0.0,0.0,1.0,371.0,594.0,1.0,0,225.0,1
514,514,0.478017964204022,0.5,1.0,1.0,287.0,669.0,1.0,1,264.0,1
515,515,0.6502739594627805,0.7,1.0,1.0,277.0,843.0,1.0,1,200.0,1
516,516,0.5430800014507943,0.5,1.0,1.0,340.0,602.0,1.0,1,328.0,1
517,517,-0.08626428602610714,-0.1,0.0,1.0,361.0,822.0,1.0,0,257.0,1
518,518,-0.8813080590430787,-0.9,0.0,1.0,450.0,590.0,1.0,0,190.0,1
519,519,-0.8895604107478783,-0.9,0.0,1.0,443.0,848.0,1.0,0,179.0,1
520,520,0.15239874435944423,0.2,0.0,0.0,447.0,601.0,0.0,1,872.0,1
521,521,0.7801226560841182,0.8,1.0,1.0,401.0,929.0,1.0,1,200.0,1
522,522,0.589263970610446,0.6,0.0,0.0,447.0,615.0,0.0,1,238.0,1
523,523,0.3220273977816842,0.3,0.0,0.0,355.0,971.0,0.0,1,194.0,1
524,524,-0.5154892669434993,-0.5,1.0,0.0,292.0,838.0,0.0,0,200.0,1
525,525,0.09952568939879236,0.1,1.0,1.0,253.0,957.0,1.0,1,1070.0,1
526,526,-0.4611154959699486,-0.5,0.0,1.0,345.0,898.0,1.0,0,707.0,1
527,527,-0.5721980633743422,-0.6,1.0,0.0,451.0,991.0,0.0,0,228.0,1
528,528,0.807993395548252,0.8,1.0,1.0,299.0,824.0,1.0,1,167.0,1
529,529,-0.8115802628661559,-0.8,0.0,1.0,443.0,884.0,1.0,0,183.0,1
530,530,-0.6665791279187346,-0.7,0.0,1.0,442.0,683.0,1.0,0,225.0,1
531,531,-0.8368831152967126,-0.8,0.0,1.0,376.0,581.0,1.0,0,153.0,1
532,532,-0.7965021010157478,-0.8,0.0,1.0,446.0,677.0,1.0,0,187.0,1
533,533,0.14682199629251247,0.1,0.0,0.0,398.0,960.0,0.0,1,802.0,1
534,534,-0.8922443150303354,-0.9,1.0,0.0,459.0,935.0,0.0,0,296.0,1
535,535,-0.6392820174340426,-0.6,0.0,1.0,464.0,920.0,1.0,0,116.0,1
536,536,0.7738171506293053,0.8,1.0,1.0,398.0,534.0,1.0,1,378.0,1
537,537,0.4919197902222642,0.5,1.0,1.0,313.0,901.0,1.0,1,246.0,1
538,538,0.04140109730727748,0.0,0.0,0.0,343.0,589.0,0.0,1,2068.0,1
539,539,0.7510645599573461,0.8,0.0,0.0,323.0,740.0,0.0,1,327.0,1
540,540,-0.8717274638587816,-0.9,1.0,0.0,376.0,924.0,0.0,0,150.0,1
541,541,0.11172960724870562,0.1,1.0,1.0,492.0,946.0,1.0,1,362.0,1
542,542,0.020638274623784425,0.0,1.0,1.0,383.0,504.0,0.0,0,2113.0,0
543,543,0.8001875133806783,0.8,0.0,0.0,365.0,913.0,0.0,1,232.0,1
544,544,0.8601896642086458,0.9,1.0,1.0,355.0,649.0,1.0,1,256.0,1
545,545,-0.7664343351385952,-0.8,0.0,1.0,306.0,998.0,1.0,0,196.0,1
546,546,-0.6096143157700624,-0.6,0.0,1.0,378.0,735.0,1.0,0,247.0,1
547,547,-0.702305241499084,-0.7,1.0,0.0,426.0,946.0,0.0,0,158.0,1
548,548,0.5873794000336462,0.6,1.0,1.0,295.0,774.0,1.0,1,61.0,1
549,549,0.8043172706218983,0.8,1.0,1.0,269.0,533.0,1.0,1,238.0,1
550,550,-0.7883559197863419,-0.8,0.0,1.0,413.0,991.0,1.0,0,246.0,1
551,551,0.08469755550003144,0.1,0.0,0.0,450.0,669.0,0.0,1,1421.0,1
552,552,-0.7225540345904629,-0.7,0.0,1.0,289.0,770.0,1.0,0,151.0,1
553,553,0.3018469544047061,0.3,1.0,1.0,350.0,751.0,1.0,1,499.0,1
554,554,-0.06355973380682978,-0.1,1.0,0.0,422.0,912.0,0.0,0,1666.0,1
555,555,0.5658150437246247,0.6,0.0,0.0,306.0,709.0,0.0,1,235.0,1
556,556,-0.03952964369762679,-0.0,1.0,0.0,316.0,725.0,0.0,0,1959.0,1
557,557,0.6841099580142797,0.7,0.0,0.0,258.0,513.0,0.0,1,219.0,1
558,558,0.7432476962153133,0.7,0.0,0.0,325.0,953.0,0.0,1,202.0,1
559,559,0.7934198704789582,0.8,0.0,0.0,331.0,994.0,0.0,1,185.0,1
560,560,0.6203806286620014,0.6,1.0,1.0,482.0,509.0,1.0,1,309.0,1
561,561,0.5756206622394223,0.6,0.0,0.0,286.0,990.0,0.0,1,404.0,1
562,562,0.6442042504404336,0.6,0.0,0.0,383.0,871.0,0.0,1,226.0,1
563,563,-0.4900138199096875,-0.5,1.0,0.0,308.0,877.0,0.0,0,225.0,1
564,564,0.26657759070908915,0.3,1.0,1.0,273.0,943.0,1.0,1,524.0,1
565,565,0.694713926034931,0.7,1.0,1.0,327.0,571.0,1.0,1,332.0,1
566,566,-0.04994956576138243,-0.0,1.0,0.0,455.0,863.0,0.0,0,1682.0,1
567,567,-0.4600141243960779,-0.5,1.0,0.0,497.0,927.0,0.0,0,376.0,1
568,568,-0.3057761897490705,-0.3,0.0,1.0,384.0,758.0,1.0,0,378.0,1
569,569,0.11376741144757918,0.1,1.0,1.0,293.0,648.0,1.0,1,779.0,1
570,570,-0.6069293606886024,-0.6,1.0,0.0,304.0,831.0,0.0,0,485.0,1
571,571,-0.6907302451636016,-0.7,1.0,0.0,256.0,720.0,0.0,0,794.0,1
572,572,-0.856728100874505,-0.9,0.0,1.0,468.0,547.0,1.0,0,215.0,1
573,573,-0.48308405966040496,-0.5,1.0,0.0,382.0,983.0,0.0,0,485.0,1
574,574,-0.21326156463024915,-0.2,0.0,1.0,484.0,921.0,1.0,0,435.0,1
575,575,0.6501956074343479,0.7,1.0,1.0,324.0,923.0,1.0,1,193.0,1
576,576,-0.6563067135144092,-0.7,0.0,1.0,422.0,835.0,1.0,0,243.0,1
577,577,0.4928040346596584,0.5,1.0,1.0,319.0,691.0,1.0,1,440.0,1
578,578,0.1618991263459405,0.2,1.0,1.0,458.0,792.0,1.0,1,1250.0,1
579,579,-0.7911065182851854,-0.8,1.0,0.0,409.0,899.0,0.0,0,152.0,1
580,580,0.3474067873781791,0.3,0.0,0.0,356.0,517.0,0.0,1,327.0,1
581,581,-0.46354437415481337,-0.5,0.0,1.0,457.0,642.0,1.0,0,461.0,1
582,582,0.04755119692377208,0.0,1.0,1.0,328.0,824.0,1.0,1,1848.0,1
583,583,-0.6303664560336413,-0.6,1.0,0.0,302.0,724.0,0.0,0,364.0,1
584,584,-0.8016164747273297,-0.8,0.0,1.0,483.0,508.0,1.0,0,159.0,1
585,585,-0.8239789564788725,-0.8,0.0,1.0,401.0,704.0,1.0,0,115.0,1
586,586,-0.8368658150061826,-0.8,0.0,1.0,437.0,633.0,1.0,0,160.0,1
587,587,0.2068693230435218,0.2,1.0,1.0,396.0,589.0,1.0,1,685.0,1
588,588,0.09179069855009137,0.1,1.0,1.0,262.0,534.0,0.0,0,2204.0,0
589,589,0.8674263437190844,0.9,1.0,1.0,326.0,926.0,1.0,1,208.0,1
590,590,-0.15947032314128906,-0.2,1.0,0.0,261.0,924.0,0.0,0,455.0,1
591,591,0.8252817710523986,0.8,0.0,0.0,284.0,675.0,0.0,1,371.0,1
592,592,0.06712234811852047,0.1,0.0,0.0,464.0,711.0,0.0,1,1665.0,1
593,593,0.08330289511883082,0.1,0.0,0.0,374.0,658.0,0.0,1,1278.0,1
594,594,-0.1252811277262068,-0.1,0.0,1.0,429.0,647.0,1.0,0,1924.0,1
595,595,-0.8849376874885677,-0.9,1.0,0.0,413.0,936.0,0.0,0,261.0,1
596,596,-0.13632534461992718,-0.1,0.0,1.0,498.0,686.0,1.0,0,1816.0,1
597,597,0.0122863607335022,0.0,1.0,1.0,372.0,990.0,0.0,0,1638.0,0
598,598,0.3115584491493698,0.3,0.0,0.0,300.0,636.0,0.0,1,234.0,1
599,599,-0.7740675217124704,-0.8,1.0,0.0,365.0,857.0,0.0,0,808.0,1
600,600,-0.741616000546085,-0.7,1.0,0.0,400.0,536.0,0.0,0,244.0,1
601,601,0.6725926282796678,0.7,0.0,0.0,268.0,670.0,0.0,1,242.0,1
602,602,0.5826562091010025,0.6,0.0,0.0,493.0,744.0,0.0,1,263.0,1
603,603,-0.5733420855670719,-0.6,1.0,0.0,457.0,586.0,0.0,0,167.0,1
604,604,-0.13375879973725302,-0.1,1.0,0.0,360.0,645.0,0.0,0,1715.0,1
605,605,-0.627504771671673,-0.6,1.0,0.0,477.0,569.0,0.0,0,214.0,1
606,606,0.7908514158694341,0.8,1.0,1.0,357.0,826.0,1.0,1,387.0,1
607,607,0.3574765012246276,0.4,0.0,0.0,363.0,751.0,0.0,1,576.0,1
608,608,-0.20872528978186744,-0.2,1.0,0.0,343.0,619.0,0.0,0,368.0,1
609,609,0.5363156981975773,0.5,1.0,1.0,371.0,630.0,1.0,1,219.0,1
610,610,0.43307930379839965,0.4,1.0,1.0,454.0,982.0,1.0,1,264.0,1
611,611,0.7074026575648563,0.7,1.0,1.0,391.0,863.0,1.0,1,426.0,1
612,612,-0.7674462645226331,-0.8,1.0,0.0,424.0,590.0,0.0,0,226.0,1
613,613,-0.8696457836280816,-0.9,0.0,1.0,427.0,867.0,1.0,0,96.0,1
614,614,-0.5252750568458695,-0.5,0.0,1.0,332.0,994.0,1.0,0,214.0,1
615,615,-0.8679408848229248,-0.9,0.0,1.0,360.0,733.0,1.0,0,527.0,1
616,616,-0.09539328094619315,-0.1,1.0,0.0,484.0,754.0,0.0,0,1762.0,1
617,617,0.766010135276396,0.8,0.0,0.0,308.0,602.0,0.0,1,270.0,1
618,618,-0.7768824341075119,-0.8,0.0,1.0,462.0,805.0,1.0,0,273.0,1
619,619,-0.8821800745828628,-0.9,1.0,0.0,398.0,738.0,0.0,0,704.0,1
620,620,-0.8021754129851175,-0.8,1.0,0.0,421.0,806.0,0.0,0,193.0,1
621,621,0.5530979912230068,0.6,0.0,0.0,413.0,727.0,0.0,1,150.0,1
622,622,0.5145651289027092,0.5,0.0,0.0,401.0,805.0,0.0,1,154.0,1
623,623,-0.5957217304911975,-0.6,0.0,1.0,385.0,956.0,0.0,1,19.0,0
624,624,0.6693232958959966,0.7,0.0,0.0,259.0,564.0,0.0,1,437.0,1
625,625,-0.084769945440896,-0.1,1.0,0.0,321.0,995.0,0.0,0,1684.0,1
626,626,-0.33211875693812254,-0.3,1.0,0.0,339.0,854.0,0.0,0,397.0,1
627,627,-0.8640023566063958,-0.9,1.0,0.0,426.0,848.0,0.0,0,336.0,1
628,628,-0.3956671795372724,-0.4,0.0,1.0,335.0,801.0,1.0,0,934.0,1
629,629,0.7891607177730483,0.8,0.0,0.0,259.0,798.0,0.0,1,173.0,1
630,630,0.46639158705187234,0.5,1.0,1.0,377.0,932.0,0.0,0,21.0,0
631,631,0.48451025563830774,0.5,0.0,0.0,490.0,685.0,0.0,1,515.0,1
632,632,0.8627586610476489,0.9,1.0,1.0,283.0,601.0,1.0,1,196.0,1
633,633,0.3906965154203438,0.4,1.0,1.0,311.0,530.0,1.0,1,229.0,1
634,634,0.752806254434253,0.8,1.0,1.0,485.0,531.0,1.0,1,304.0,1
635,635,-0.17294935551570245,-0.2,1.0,0.0,320.0,503.0,0.0,0,917.0,1
636,636,0.05591802621688968,0.1,1.0,1.0,354.0,533.0,1.0,1,2113.0,1
637,637,0.6004667137657588,0.6,1.0,1.0,337.0,723.0,1.0,1,290.0,1
638,638,0.3892616608615759,0.4,1.0,1.0,270.0,804.0,1.0,1,-294.0,1
639,639,-0.6022486776320903,-0.6,1.0,0.0,278.0,501.0,0.0,0,211.0,1
640,640,-0.8586290782142361,-0.9,1.0,0.0,390.0,592.0,0.0,0,998.0,1
641,641,0.1730195240891298,0.2,0.0,0.0,391.0,677.0,0.0,1,1892.0,1
642,642,0.5842853231861035,0.6,1.0,1.0,468.0,963.0,1.0,1,219.0,1
643,643,-0.5138755241173241,-0.5,0.0,1.0,313.0,607.0,1.0,0,610.0,1
644,644,0.18488053575605823,0.2,1.0,1.0,260.0,556.0,1.0,1,494.0,1
645,645,-0.5350336047620468,-0.5,0.0,1.0,407.0,856.0,1.0,0,517.0,1
646,646,-0.25059452046517416,-0.3,1.0,0.0,448.0,744.0,0.0,0,528.0,1
647,647,-0.8959311764284316,-0.9,1.0,0.0,499.0,608.0,0.0,0,123.0,1
648,648,0.40411938056676877,0.4,1.0,1.0,319.0,939.0,1.0,1,302.0,1
649,649,-0.15460265852325494,-0.2,1.0,0.0,461.0,670.0,0.0,0,689.0,1
650,650,0.6603139451166925,0.7,1.0,1.0,258.0,504.0,1.0,1,268.0,1
651,651,0.6203071469504987,0.6,0.0,0.0,279.0,544.0,0.0,1,317.0,1
652,652,-0.32757962310754873,-0.3,1.0,0.0,432.0,676.0,0.0,0,582.0,1
653,653,-0.09383345195879544,-0.1,0.0,1.0,373.0,961.0,1.0,0,1666.0,1
654,654,0.11570410362987926,0.1,0.0,0.0,443.0,761.0,1.0,0,-34.0,0
655,655,-0.29677518996173713,-0.3,0.0,1.0,414.0,909.0,1.0,0,367.0,1
656,656,0.4249372315774079,0.4,1.0,1.0,381.0,632.0,1.0,1,327.0,1
657,657,0.16333959027574652,0.2,0.0,0.0,258.0,781.0,0.0,1,1341.0,1
658,658,0.5595409796527059,0.6,1.0,1.0,365.0,972.0,1.0,1,213.0,1
659,659,0.39742199232874287,0.4,1.0,1.0,364.0,936.0,1.0,1,280.0,1
660,660,0.2574479631395329,0.3,0.0,0.0,476.0,957.0,0.0,1,447.0,1
661,661,-0.39752473117620835,-0.4,1.0,0.0,367.0,721.0,0.0,0,412.0,1
662,662,0.6764291927138296,0.7,0.0,0.0,424.0,687.0,0.0,1,239.0,1
663,663,0.06614660597444189,0.1,1.0,1.0,482.0,987.0,1.0,1,1531.0,1
664,664,0.4088181052284082,0.4,1.0,1.0,451.0,609.0,1.0,1,250.0,1
665,665,-0.3951119670078279,-0.4,1.0,0.0,325.0,775.0,0.0,0,700.0,1
666,666,0.6368188272320675,0.6,0.0,0.0,480.0,677.0,0.0,1,213.0,1
667,667,-0.7801120818882927,-0.8,1.0,0.0,330.0,656.0,0.0,0,144.0,1
668,668,-0.5457597776388514,-0.5,1.0,0.0,301.0,642.0,0.0,0,197.0,1
669,669,0.21214806651278073,0.2,1.0,1.0,258.0,955.0,1.0,1,417.0,1
670,670,0.6284248312355524,0.6,1.0,1.0,329.0,900.0,1.0,1,151.0,1
671,671,0.3800721546261353,0.4,0.0,0.0,415.0,921.0,0.0,1,274.0,1
672,672,-0.26265440459105116,-0.3,1.0,0.0,360.0,783.0,0.0,0,1107.0,1
673,673,0.8042147197985742,0.8,1.0,1.0,256.0,702.0,1.0,1,142.0,1
674,674,0.41016220816955606,0.4,0.0,0.0,277.0,691.0,0.0,1,192.0,1
675,675,0.8576962436690608,0.9,1.0,1.0,483.0,594.0,1.0,1,233.0,1
676,676,0.3745219567351131,0.4,0.0,0.0,343.0,563.0,0.0,1,374.0,1
677,677,0.15048184491754946,0.2,1.0,1.0,280.0,597.0,1.0,1,2023.0,1
678,678,0.3745126832482987,0.4,1.0,1.0,403.0,734.0,1.0,1,743.0,1
679,679,0.3546742418967842,0.4,1.0,1.0,480.0,766.0,1.0,1,684.0,1
680,680,0.6219406371771649,0.6,0.0,0.0,484.0,852.0,0.0,1,204.0,1
681,681,-0.8483623413048742,-0.8,1.0,0.0,324.0,785.0,0.0,0,231.0,1
682,682,-0.16583843026094203,-0.2,0.0,1.0,403.0,519.0,1.0,0,1218.0,1
683,683,-0.7834828584792756,-0.8,0.0,1.0,337.0,873.0,1.0,0,180.0,1
684,684,-0.5213867493763398,-0.5,0.0,1.0,293.0,926.0,1.0,0,191.0,1
685,685,-0.2474180172423709,-0.2,1.0,0.0,294.0,999.0,0.0,0,1707.0,1
686,686,-0.7440415906364186,-0.7,1.0,0.0,252.0,826.0,0.0,0,722.0,1
687,687,0.8567127781563532,0.9,1.0,1.0,388.0,573.0,1.0,1,179.0,1
688,688,0.3991554306074877,0.4,1.0,1.0,481.0,594.0,1.0,1,555.0,1
689,689,-0.6427869857737527,-0.6,1.0,0.0,409.0,932.0,0.0,0,879.0,1
690,690,-0.6337288892011048,-0.6,0.0,1.0,340.0,977.0,1.0,0,203.0,1
691,691,0.2960206470336836,0.3,0.0,0.0,399.0,629.0,0.0,1,632.0,1
692,692,0.002598459581855006,0.0,0.0,0.0,259.0,891.0,0.0,1,1850.0,1
693,693,-0.5636417301668797,-0.6,1.0,0.0,340.0,760.0,0.0,0,280.0,1
694,694,0.4205295966629875,0.4,1.0,1.0,492.0,877.0,1.0,1,271.0,1
695,695,-0.38753368819846046,-0.4,1.0,0.0,368.0,914.0,0.0,0,368.0,1
696,696,0.41001329599331926,0.4,0.0,0.0,332.0,890.0,0.0,1,428.0,1
697,697,0.8381188332139297,0.8,1.0,1.0,374.0,662.0,1.0,1,154.0,1
698,698,-0.5898331351919834,-0.6,1.0,0.0,378.0,538.0,0.0,0,784.0,1
699,699,0.8804923100765211,0.9,1.0,1.0,427.0,504.0,1.0,1,269.0,1
700,700,-0.8226673032632094,-0.8,1.0,0.0,352.0,895.0,0.0,0,1103.0,1
701,701,0.8706531391859936,0.9,0.0,0.0,316.0,589.0,0.0,1,295.0,1
702,702,-0.6241443617283353,-0.6,0.0,1.0,306.0,540.0,1.0,0,414.0,1
703,703,-0.7189370255934122,-0.7,0.0,1.0,300.0,710.0,1.0,0,330.0,1
704,704,0.29864539438108684,0.3,1.0,1.0,287.0,896.0,1.0,1,317.0,1
705,705,-0.8188435917096522,-0.8,0.0,1.0,481.0,898.0,1.0,0,191.0,1
706,706,-0.8810298622978884,-0.9,0.0,1.0,366.0,806.0,1.0,0,368.0,1
707,707,0.3246684785401942,0.3,0.0,0.0,355.0,866.0,0.0,1,389.0,1
708,708,-0.8121103997099152,-0.8,1.0,0.0,330.0,574.0,0.0,0,266.0,1
709,709,-0.8883107917633307,-0.9,1.0,0.0,497.0,887.0,0.0,0,266.0,1
710,710,-0.287412027863853,-0.3,0.0,1.0,494.0,919.0,1.0,0,917.0,1
711,711,0.656535626595686,0.7,0.0,0.0,468.0,621.0,0.0,1,281.0,1
712,712,-0.3109089520027155,-0.3,1.0,0.0,368.0,773.0,0.0,0,1409.0,1
713,713,0.1583469501900724,0.2,1.0,1.0,366.0,526.0,1.0,1,578.0,1
714,714,-0.042437706680843235,-0.0,0.0,1.0,296.0,500.0,0.0,1,2204.0,0
715,715,-0.20715742014423777,-0.2,1.0,0.0,486.0,502.0,0.0,0,822.0,1
716,716,-0.4754151690853781,-0.5,0.0,1.0,349.0,657.0,1.0,0,274.0,1
717,717,0.04528976762209258,0.0,0.0,0.0,366.0,699.0,0.0,1,1765.0,1
718,718,-0.445623720986031,-0.4,0.0,1.0,317.0,660.0,1.0,0,183.0,1
719,719,0.037634361167722674,0.0,0.0,0.0,388.0,785.0,0.0,1,1827.0,1
720,720,0.3381542244106016,0.3,0.0,0.0,304.0,533.0,0.0,1,523.0,1
721,721,0.7776915788335298,0.8,1.0,1.0,364.0,927.0,1.0,1,139.0,1
722,722,-0.631536485863653,-0.6,0.0,1.0,386.0,593.0,1.0,0,111.0,1
723,723,0.4448033299699562,0.4,0.0,0.0,360.0,502.0,0.0,1,268.0,1
724,724,0.2944578933438481,0.3,1.0,1.0,323.0,716.0,1.0,1,661.0,1
725,725,0.5777073501639708,0.6,1.0,1.0,295.0,642.0,1.0,1,383.0,1
726,726,0.6876620072491938,0.7,0.0,0.0,333.0,981.0,0.0,1,136.0,1
727,727,-0.08271001384717291,-0.1,0.0,1.0,309.0,934.0,1.0,0,1757.0,1
728,728,-0.6740137669402493,-0.7,0.0,1.0,288.0,771.0,1.0,0,201.0,1
729,729,0.4481260259657568,0.4,0.0,0.0,360.0,777.0,0.0,1,103.0,1
730,730,-0.05968675173874183,-0.1,1.0,0.0,391.0,532.0,0.0,0,2077.0,1
731,731,0.22417566471869377,0.2,0.0,0.0,351.0,680.0,0.0,1,579.0,1
732,732,0.3321573243554615,0.3,0.0,0.0,304.0,892.0,0.0,1,284.0,1
733,733,0.4948547371624,0.5,0.0,0.0,405.0,768.0,0.0,1,217.0,1
734,734,0.011301103412301061,0.0,1.0,1.0,435.0,620.0,1.0,1,1945.0,1
735,735,-0.04404180834423266,-0.0,1.0,0.0,481.0,574.0,0.0,0,1945.0,1
736,736,0.8245981587747183,0.8,1.0,1.0,454.0,523.0,1.0,1,193.0,1
737,737,0.7178002981657744,0.7,1.0,1.0,479.0,844.0,1.0,1,227.0,1
738,738,0.12826015103229327,0.1,0.0,0.0,319.0,914.0,0.0,1,837.0,1
739,739,0.18259134212108463,0.2,0.0,0.0,441.0,803.0,0.0,1,1756.0,1
740,740,0.25517731415306477,0.3,1.0,1.0,327.0,751.0,1.0,1,312.0,1
741,741,-0.20912344471435762,-0.2,0.0,1.0,295.0,800.0,1.0,0,305.0,1
742,742,0.4658116718747286,0.5,1.0,1.0,319.0,733.0,1.0,1,438.0,1
743,743,0.07373309372996883,0.1,0.0,0.0,326.0,834.0,0.0,1,490.0,1
744,744,0.36037373269548334,0.4,1.0,1.0,335.0,634.0,1.0,1,451.0,1
745,745,-0.5049625775082744,-0.5,0.0,1.0,355.0,983.0,1.0,0,272.0,1
746,746,0.10392244224855662,0.1,1.0,1.0,378.0,737.0,1.0,1,955.0,1
747,747,-0.07302448267288886,-0.1,0.0,1.0,359.0,955.0,1.0,0,376.0,1
748,748,0.5878378220413386,0.6,0.0,0.0,493.0,657.0,0.0,1,280.0,1
749,749,-0.7235218325304541,-0.7,1.0,0.0,495.0,670.0,0.0,0,135.0,1
750,750,-0.20812054232706456,-0.2,1.0,0.0,446.0,840.0,0.0,0,804.0,1
751,751,-0.4647982328241744,-0.5,0.0,1.0,261.0,990.0,1.0,0,259.0,1
752,752,-0.20997783237181222,-0.2,1.0,0.0,256.0,933.0,0.0,0,961.0,1
753,753,-0.7545176611172153,-0.8,0.0,1.0,454.0,991.0,1.0,0,395.0,1
754,754,-0.7813211456643088,-0.8,1.0,0.0,484.0,877.0,0.0,0,209.0,1
755,755,0.5877600930467589,0.6,1.0,1.0,362.0,894.0,1.0,1,194.0,1
756,756,-0.3615222996375924,-0.4,1.0,0.0,343.0,939.0,0.0,0,468.0,1
757,757,0.30180944287027855,0.3,0.0,0.0,431.0,996.0,0.0,1,873.0,1
758,758,-0.6810354490306445,-0.7,1.0,0.0,297.0,547.0,0.0,0,166.0,1
759,759,-0.7164841101468632,-0.7,1.0,0.0,372.0,510.0,0.0,0,618.0,1
760,760,0.6440316349363017,0.6,1.0,1.0,366.0,976.0,1.0,1,138.0,1
761,761,-0.7791943250735077,-0.8,0.0,1.0,250.0,823.0,1.0,0,247.0,1
762,762,-0.33655940748678215,-0.3,0.0,1.0,316.0,882.0,1.0,0,182.0,1
763,763,0.5506484686220331,0.6,0.0,0.0,457.0,639.0,0.0,1,304.0,1
764,764,0.6555491912718551,0.7,0.0,0.0,255.0,525.0,0.0,1,530.0,1
765,765,-0.455205660518815,-0.5,1.0,0.0,370.0,588.0,0.0,0,302.0,1
766,766,-0.27213388726012944,-0.3,1.0,0.0,303.0,650.0,0.0,0,247.0,1
767,767,0.461654486716054,0.5,1.0,1.0,422.0,748.0,1.0,1,180.0,1
768,768,-0.04173409892215474,-0.0,1.0,0.0,498.0,979.0,1.0,1,1523.0,0
769,769,-0.30402105564270654,-0.3,1.0,0.0,262.0,578.0,0.0,0,930.0,1
770,770,-0.4987112860419661,-0.5,0.0,1.0,408.0,502.0,1.0,0,700.0,1
771,771,-0.5186492684363351,-0.5,1.0,0.0,397.0,907.0,0.0,0,296.0,1
772,772,-0.7893690649342084,-0.8,1.0,0.0,449.0,825.0,0.0,0,276.0,1
773,773,-0.21396691899740483,-0.2,1.0,0.0,337.0,764.0,0.0,0,609.0,1
774,774,0.41290121890429277,0.4,1.0,1.0,323.0,910.0,1.0,1,457.0,1
775,775,0.14138021163807346,0.1,1.0,1.0,291.0,525.0,1.0,1,554.0,1
776,776,-0.8514347185791674,-0.9,0.0,1.0,259.0,767.0,1.0,0,144.0,1
777,777,0.030503188453342878,0.0,0.0,0.0,297.0,515.0,1.0,0,2188.0,0
778,778,-0.7324250273240469,-0.7,1.0,0.0,265.0,827.0,0.0,0,328.0,1
779,779,-0.8076472537679446,-0.8,1.0,0.0,327.0,813.0,0.0,0,350.0,1
780,780,0.1666392772131703,0.2,0.0,0.0,481.0,551.0,0.0,1,368.0,1
781,781,0.038277739759409735,0.0,1.0,1.0,379.0,661.0,1.0,1,1360.0,1
782,782,0.46675489335965914,0.5,1.0,1.0,370.0,782.0,1.0,1,218.0,1
783,783,-0.5966847701922433,-0.6,1.0,0.0,255.0,518.0,0.0,0,247.0,1
784,784,-0.7649907758488456,-0.8,1.0,0.0,463.0,963.0,0.0,0,324.0,1
785,785,-0.11337137889245774,-0.1,1.0,0.0,297.0,704.0,0.0,0,1999.0,1
786,786,-0.20053623511160978,-0.2,0.0,1.0,445.0,880.0,1.0,0,485.0,1
787,787,-0.893819606263655,-0.9,0.0,1.0,315.0,976.0,0.0,1,-531.0,0
788,788,-0.879693887069931,-0.9,1.0,0.0,436.0,518.0,0.0,0,686.0,1
789,789,0.060816900668785645,0.1,1.0,1.0,473.0,752.0,1.0,1,1775.0,1
790,790,0.1717034693460856,0.2,0.0,0.0,353.0,831.0,0.0,1,826.0,1
791,791,0.10858910332462324,0.1,1.0,1.0,407.0,548.0,1.0,1,485.0,1
792,792,0.11799151154895837,0.1,0.0,0.0,278.0,709.0,0.0,1,1693.0,1
793,793,0.6155584676317699,0.6,1.0,1.0,439.0,684.0,1.0,1,257.0,1
794,794,0.20615732561421918,0.2,0.0,0.0,385.0,538.0,0.0,1,1147.0,1
795,795,-0.1314518630814432,-0.1,0.0,1.0,385.0,644.0,1.0,0,781.0,1
796,796,0.3103671084388092,0.3,1.0,1.0,348.0,571.0,1.0,1,1011.0,1
797,797,0.279163937760465,0.3,1.0,1.0,479.0,853.0,1.0,1,618.0,1
798,798,-0.5531866215946843,-0.6,1.0,0.0,390.0,513.0,0.0,0,437.0,1
799,799,0.5069219209556369,0.5,1.0,1.0,284.0,880.0,1.0,1,476.0,1
800,800,0.48575668236334246,0.5,1.0,1.0,397.0,719.0,1.0,1,104.0,1
801,801,-0.3735887004605566,-0.4,0.0,1.0,475.0,762.0,1.0,0,123.0,1
802,802,0.42485552521989034,0.4,0.0,0.0,496.0,522.0,0.0,1,332.0,1
803,803,0.8125516260409417,0.8,1.0,1.0,474.0,971.0,1.0,1,195.0,1
804,804,0.7170656655255664,0.7,1.0,1.0,493.0,657.0,1.0,1,170.0,1
805,805,-0.7731575118331998,-0.8,0.0,1.0,395.0,801.0,1.0,0,124.0,1
806,806,0.8784391040068938,0.9,0.0,0.0,399.0,947.0,0.0,1,244.0,1
807,807,0.6315762983975929,0.6,1.0,1.0,449.0,700.0,1.0,1,531.0,1
808,808,-0.5906491482049938,-0.6,0.0,1.0,266.0,507.0,1.0,0,227.0,1
809,809,0.7103635093886577,0.7,0.0,0.0,373.0,893.0,0.0,1,174.0,1
810,810,0.27904907941849266,0.3,0.0,0.0,433.0,640.0,0.0,1,457.0,1
811,811,0.1955791599282427,0.2,1.0,1.0,474.0,800.0,1.0,1,1436.0,1
812,812,-0.5865491269186869,-0.6,1.0,0.0,449.0,837.0,0.0,0,434.0,1
813,813,-0.8080058513974784,-0.8,1.0,0.0,416.0,532.0,0.0,0,502.0,1
814,814,-0.6585585031445355,-0.7,1.0,0.0,266.0,931.0,0.0,0,223.0,1
815,815,0.28008004190498237,0.3,1.0,1.0,254.0,815.0,1.0,1,221.0,1
816,816,-0.20574441168852498,-0.2,1.0,0.0,309.0,552.0,0.0,0,349.0,1
817,817,-0.10139789920768028,-0.1,0.0,1.0,494.0,731.0,1.0,0,635.0,1
818,818,0.043048395116157434,0.0,1.0,1.0,272.0,730.0,1.0,1,758.0,1
819,819,-0.861586292011764,-0.9,0.0,1.0,478.0,850.0,1.0,0,122.0,1
820,820,-0.5270107520397858,-0.5,0.0,1.0,434.0,576.0,1.0,0,430.0,1
821,821,0.8795435144562086,0.9,1.0,1.0,431.0,867.0,1.0,1,372.0,1
822,822,0.0446702261223747,0.0,1.0,1.0,269.0,785.0,1.0,1,1946.0,1
823,823,0.32341119011857444,0.3,0.0,0.0,473.0,501.0,0.0,1,546.0,1
824,824,0.6896559672224319,0.7,0.0,0.0,271.0,913.0,0.0,1,186.0,1
825,825,-0.39164935608078444,-0.4,1.0,0.0,382.0,642.0,0.0,0,486.0,1
826,826,0.7119258760536725,0.7,0.0,0.0,305.0,625.0,0.0,1,300.0,1
827,827,-0.4110738536990946,-0.4,0.0,1.0,466.0,533.0,1.0,0,341.0,1
828,828,0.49928676482808,0.5,1.0,1.0,283.0,635.0,1.0,1,442.0,1
829,829,0.529660195980037,0.5,1.0,1.0,457.0,906.0,1.0,1,227.0,1
830,830,0.5191021942565172,0.5,1.0,1.0,491.0,578.0,1.0,1,271.0,1
831,831,-0.8940936624629832,-0.9,0.0,1.0,393.0,600.0,1.0,0,177.0,1
832,832,-0.8402403314127789,-0.8,0.0,1.0,460.0,534.0,1.0,0,466.0,1
833,833,-0.5678633634076897,-0.6,1.0,0.0,295.0,571.0,0.0,0,744.0,1
834,834,-0.36852867202119277,-0.4,0.0,1.0,496.0,790.0,1.0,0,314.0,1
835,835,0.13303736834378121,0.1,1.0,1.0,325.0,747.0,1.0,1,1318.0,1
836,836,-0.3562743727132909,-0.4,1.0,0.0,423.0,753.0,0.0,0,1824.0,1
837,837,-0.032021780047509774,-0.0,1.0,0.0,425.0,706.0,0.0,0,1869.0,1
838,838,-0.7624991158031803,-0.8,1.0,0.0,427.0,730.0,0.0,0,343.0,1
839,839,-0.13456574619205097,-0.1,0.0,1.0,387.0,869.0,1.0,0,1734.0,1
840,840,-0.07646974678158158,-0.1,1.0,0.0,487.0,819.0,0.0,0,204.0,1
841,841,-0.23849797854552468,-0.2,1.0,0.0,427.0,626.0,0.0,0,1697.0,1
842,842,-0.45775142245673023,-0.5,1.0,0.0,445.0,572.0,0.0,0,273.0,1
843,843,0.8780162979592684,0.9,1.0,1.0,461.0,576.0,1.0,1,283.0,1
844,844,-0.5562902905434078,-0.6,1.0,0.0,293.0,628.0,0.0,0,199.0,1
845,845,0.2630031750836218,0.3,0.0,0.0,390.0,730.0,0.0,1,970.0,1
846,846,0.557660054207085,0.6,1.0,1.0,321.0,823.0,1.0,1,356.0,1
847,847,-0.6043420587833834,-0.6,0.0,1.0,479.0,741.0,1.0,0,80.0,1
848,848,-0.6024595891461461,-0.6,1.0,0.0,290.0,799.0,0.0,0,631.0,1
849,849,-0.22342500235537832,-0.2,1.0,0.0,386.0,736.0,0.0,0,778.0,1
850,850,0.8329228352552988,0.8,1.0,1.0,284.0,791.0,1.0,1,305.0,1
851,851,-0.005110733738566187,-0.0,1.0,0.0,427.0,617.0,0.0,0,396.0,1
852,852,0.0929266750729214,0.1,0.0,0.0,365.0,906.0,0.0,1,1159.0,1
853,853,0.7648704775511631,0.8,1.0,1.0,431.0,614.0,1.0,1,405.0,1
854,854,0.34645977117781024,0.3,1.0,1.0,320.0,795.0,1.0,1,225.0,1
855,855,0.7725252274564588,0.8,1.0,1.0,389.0,650.0,1.0,1,201.0,1
856,856,-0.4953632308531502,-0.5,1.0,0.0,456.0,821.0,0.0,0,633.0,1
857,857,0.5412413818138576,0.5,1.0,1.0,381.0,744.0,1.0,1,225.0,1
858,858,-0.1886939459172603,-0.2,0.0,1.0,358.0,691.0,1.0,0,451.0,1
859,859,-0.5686520353097408,-0.6,1.0,0.0,423.0,694.0,0.0,0,1203.0,1
860,860,0.1896369736086715,0.2,1.0,1.0,379.0,808.0,1.0,1,573.0,1
861,861,0.4247215856263796,0.4,1.0,1.0,278.0,619.0,1.0,1,523.0,1
862,862,0.6227918448924396,0.6,0.0,0.0,465.0,815.0,0.0,1,160.0,1
863,863,-0.453017183467477,-0.5,1.0,0.0,364.0,729.0,0.0,0,887.0,1
864,864,-0.019288611577119807,-0.0,0.0,1.0,371.0,767.0,1.0,0,1862.0,1
865,865,-0.09058570253157638,-0.1,0.0,1.0,313.0,917.0,0.0,1,1770.0,0
866,866,0.3074304126898041,0.3,0.0,0.0,378.0,789.0,0.0,1,183.0,1
867,867,-0.21988192832277953,-0.2,0.0,1.0,413.0,666.0,1.0,0,581.0,1
868,868,0.6731266962091008,0.7,1.0,1.0,376.0,592.0,1.0,1,302.0,1
869,869,-0.0717648257886696,-0.1,1.0,0.0,417.0,790.0,0.0,0,203.0,1
870,870,-0.5037645320638361,-0.5,0.0,1.0,276.0,655.0,1.0,0,269.0,1
871,871,0.006160424088423544,0.0,0.0,0.0,357.0,667.0,1.0,0,1876.0,0
872,872,0.1327307461694024,0.1,1.0,1.0,290.0,699.0,1.0,1,1651.0,1
873,873,0.3556756916324305,0.4,1.0,1.0,284.0,666.0,1.0,1,420.0,1
874,874,-0.7563020565425149,-0.8,0.0,1.0,261.0,529.0,1.0,0,190.0,1
875,875,-0.2323269603300101,-0.2,0.0,1.0,306.0,585.0,1.0,0,589.0,1
876,876,-0.5782613731962407,-0.6,0.0,1.0,346.0,692.0,1.0,0,352.0,1
877,877,-0.5169100721722535,-0.5,1.0,0.0,401.0,781.0,0.0,0,588.0,1
878,878,-0.8485237834608567,-0.8,1.0,0.0,363.0,848.0,0.0,0,599.0,1
879,879,-0.8479351517781297,-0.8,1.0,0.0,271.0,946.0,0.0,0,153.0,1
880,880,-0.5553554570062078,-0.6,1.0,0.0,255.0,915.0,0.0,0,280.0,1
881,881,-0.7202187397857347,-0.7,0.0,1.0,422.0,629.0,1.0,0,149.0,1
882,882,0.16695430657929988,0.2,0.0,0.0,259.0,521.0,0.0,1,590.0,1
883,883,0.7559136726664469,0.8,0.0,0.0,421.0,978.0,0.0,1,191.0,1
884,884,-0.7055448925576109,-0.7,0.0,1.0,347.0,844.0,1.0,0,179.0,1
885,885,-0.5093665420077733,-0.5,1.0,0.0,389.0,766.0,0.0,0,1275.0,1
886,886,0.8583853691198601,0.9,0.0,0.0,428.0,580.0,0.0,1,232.0,1
887,887,0.5600967941741434,0.6,1.0,1.0,346.0,967.0,1.0,1,257.0,1
888,888,0.24283732264059188,0.2,1.0,1.0,397.0,893.0,1.0,1,190.0,1
889,889,0.6739227502663773,0.7,1.0,1.0,486.0,689.0,1.0,1,445.0,1
890,890,0.32613089137682516,0.3,1.0,1.0,415.0,508.0,1.0,1,867.0,1
891,891,0.770682025519909,0.8,1.0,1.0,262.0,853.0,1.0,1,125.0,1
892,892,0.49074713650360813,0.5,1.0,1.0,382.0,593.0,1.0,1,455.0,1
893,893,0.463094180404659,0.5,1.0,1.0,455.0,599.0,1.0,1,216.0,1
894,894,0.1981351518947555,0.2,1.0,1.0,462.0,847.0,1.0,1,821.0,1
895,895,0.006920290804701135,0.0,0.0,0.0,337.0,976.0,1.0,0,1687.0,0
896,896,-0.48062349403318955,-0.5,0.0,1.0,413.0,552.0,1.0,0,205.0,1
897,897,0.25427579338538575,0.3,0.0,0.0,268.0,864.0,0.0,1,358.0,1
898,898,0.3715034879076996,0.4,0.0,0.0,388.0,986.0,0.0,1,126.0,1
899,899,0.7970546783780897,0.8,0.0,0.0,386.0,583.0,0.0,1,281.0,1
900,900,-0.4329196165934623,-0.4,0.0,1.0,359.0,750.0,1.0,0,291.0,1
901,901,0.12901178922588585,0.1,1.0,1.0,467.0,562.0,1.0,1,1041.0,1
902,902,-0.2766356642053005,-0.3,0.0,1.0,376.0,727.0,1.0,0,137.0,1
903,903,0.8775751860892443,0.9,1.0,1.0,325.0,787.0,1.0,1,168.0,1
904,904,-0.036769345096660966,-0.0,1.0,0.0,483.0,935.0,0.0,0,1582.0,1
905,905,0.3979578381044345,0.4,1.0,1.0,384.0,533.0,1.0,1,253.0,1
906,906,-0.08079802652494861,-0.1,1.0,0.0,480.0,643.0,0.0,0,1877.0,1
907,907,0.6228759447574906,0.6,1.0,1.0,432.0,782.0,1.0,1,306.0,1
908,908,-0.4781319346202207,-0.5,1.0,0.0,358.0,812.0,0.0,0,490.0,1
909,909,-0.005658119727416255,-0.0,0.0,1.0,499.0,840.0,0.0,1,1661.0,0
910,910,-0.8085926232089935,-0.8,1.0,0.0,368.0,575.0,0.0,0,747.0,1
911,911,0.13076103350684443,0.1,1.0,1.0,352.0,663.0,1.0,1,55.0,1
912,912,-0.08560540303929742,-0.1,0.0,1.0,432.0,716.0,1.0,0,552.0,1
913,913,0.12487011191586539,0.1,0.0,0.0,311.0,583.0,0.0,1,386.0,1
914,914,0.5352347573417232,0.5,0.0,0.0,320.0,830.0,0.0,1,260.0,1
915,915,0.09056972521419449,0.1,1.0,1.0,470.0,905.0,1.0,1,1625.0,1
916,916,-0.12448850032251857,-0.1,0.0,1.0,292.0,781.0,1.0,0,1817.0,1
917,917,0.4892411688509638,0.5,0.0,0.0,451.0,872.0,1.0,0,-123.0,0
918,918,-0.6367637162143998,-0.6,1.0,0.0,317.0,536.0,0.0,0,317.0,1
919,919,-0.6200700376259087,-0.6,0.0,1.0,273.0,860.0,1.0,0,317.0,1
920,920,0.6876504264742395,0.7,0.0,0.0,332.0,653.0,0.0,1,95.0,1
921,921,0.580287199449867,0.6,0.0,0.0,256.0,663.0,0.0,1,561.0,1
922,922,0.3056811713572952,0.3,0.0,0.0,492.0,874.0,0.0,1,604.0,1
923,923,0.3456410732683076,0.3,0.0,0.0,252.0,642.0,0.0,1,356.0,1
924,924,0.6501395965009947,0.7,1.0,1.0,426.0,897.0,1.0,1,277.0,1
925,925,-0.496366740533645,-0.5,1.0,0.0,372.0,559.0,0.0,0,349.0,1
926,926,0.845121606748941,0.8,1.0,1.0,301.0,524.0,1.0,1,145.0,1
927,927,-0.2860988201768522,-0.3,0.0,1.0,382.0,850.0,1.0,0,508.0,1
928,928,0.016353787159977373,0.0,0.0,0.0,413.0,826.0,0.0,1,601.0,1
929,929,0.11093735879739042,0.1,0.0,0.0,436.0,787.0,0.0,1,1777.0,1
930,930,0.8188692107119381,0.8,0.0,0.0,434.0,508.0,0.0,1,228.0,1
931,931,-0.23701787561767473,-0.2,0.0,1.0,365.0,698.0,1.0,0,677.0,1
932,932,-0.5010818630740992,-0.5,1.0,0.0,479.0,956.0,0.0,0,535.0,1
933,933,-0.4125848872145751,-0.4,1.0,0.0,322.0,668.0,0.0,0,930.0,1
934,934,-0.8554197193857157,-0.9,0.0,1.0,438.0,503.0,1.0,0,179.0,1
935,935,0.5612692673544847,0.6,1.0,1.0,484.0,596.0,1.0,1,340.0,1
936,936,0.4570904397987444,0.5,0.0,0.0,348.0,943.0,0.0,1,269.0,1
937,937,-0.07579208101735857,-0.1,0.0,1.0,490.0,878.0,1.0,0,542.0,1
938,938,-0.24195234625591733,-0.2,0.0,1.0,314.0,977.0,1.0,0,559.0,1
939,939,0.31014872741533683,0.3,1.0,1.0,391.0,684.0,1.0,1,425.0,1
940,940,0.11190604898375922,0.1,1.0,1.0,315.0,932.0,1.0,1,1183.0,1
941,941,-0.45600643654034445,-0.5,1.0,0.0,274.0,922.0,0.0,0,214.0,1
942,942,-0.6197701273882383,-0.6,1.0,0.0,419.0,680.0,0.0,0,331.0,1
943,943,-0.04070570948874619,-0.0,1.0,0.0,452.0,557.0,1.0,1,1991.0,0
944,944,0.2484595498671477,0.2,1.0,1.0,426.0,704.0,1.0,1,130.0,1
945,945,-0.42965153183440213,-0.4,1.0,0.0,288.0,556.0,0.0,0,366.0,1
946,946,0.20186650335103173,0.2,1.0,1.0,471.0,552.0,1.0,1,647.0,1
947,947,-0.25847053146267707,-0.3,0.0,1.0,388.0,800.0,1.0,0,492.0,1
948,948,0.39054918064351185,0.4,0.0,0.0,295.0,767.0,0.0,1,428.0,1
949,949,-0.11067563148275394,-0.1,1.0,0.0,251.0,918.0,0.0,0,641.0,1
950,950,0.7837009182755469,0.8,1.0,1.0,447.0,597.0,1.0,1,216.0,1
951,951,0.8803683856872385,0.9,1.0,1.0,498.0,803.0,1.0,1,369.0,1
952,952,0.5527351816700746,0.6,0.0,0.0,317.0,529.0,0.0,1,124.0,1
953,953,0.7634745255998426,0.8,1.0,1.0,495.0,958.0,1.0,1,97.0,1
954,954,-0.22686785198181492,-0.2,0.0,1.0,265.0,522.0,1.0,0,353.0,1
955,955,0.2554357726792603,0.3,1.0,1.0,404.0,949.0,1.0,1,347.0,1
956,956,-0.6507704968193254,-0.7,0.0,1.0,406.0,693.0,1.0,0,231.0,1
957,957,0.7855822197226258,0.8,0.0,0.0,336.0,691.0,0.0,1,173.0,1
958,958,0.6584286631769768,0.7,1.0,1.0,456.0,591.0,1.0,1,323.0,1
959,959,-0.47534189247514097,-0.5,0.0,1.0,451.0,713.0,1.0,0,126.0,1
960,960,0.3605989762887266,0.4,1.0,1.0,390.0,893.0,1.0,1,437.0,1
961,961,0.44702993436653304,0.4,1.0,1.0,456.0,751.0,1.0,1,193.0,1
962,962,-0.8560434172405084,-0.9,0.0,1.0,275.0,699.0,1.0,0,216.0,1
963,963,0.8109559430095555,0.8,1.0,1.0,351.0,741.0,1.0,1,228.0,1
964,964,-0.2866889312942046,-0.3,1.0,0.0,274.0,531.0,0.0,0,525.0,1
965,965,0.06827951199466653,0.1,0.0,0.0,355.0,939.0,0.0,1,1496.0,1
966,966,-0.38316174916514245,-0.4,1.0,0.0,371.0,745.0,0.0,0,444.0,1
967,967,-0.7242929338258141,-0.7,1.0,0.0,452.0,835.0,0.0,0,1313.0,1
968,968,0.308808328277015,0.3,0.0,0.0,346.0,960.0,0.0,1,294.0,1
969,969,0.8819541646112258,0.9,1.0,1.0,440.0,701.0,1.0,1,159.0,1
970,970,0.494469322023639,0.5,1.0,1.0,420.0,934.0,1.0,1,356.0,1
971,971,-0.15443466820521712,-0.2,1.0,0.0,395.0,533.0,0.0,0,832.0,1
972,972,0.43883242966725844,0.4,0.0,0.0,391.0,975.0,0.0,1,-56.0,1
973,973,0.8157390109409949,0.8,0.0,0.0,481.0,972.0,0.0,1,117.0,1
974,974,0.5882232235262564,0.6,1.0,1.0,398.0,785.0,1.0,1,187.0,1
975,975,-0.7834706941986066,-0.8,1.0,0.0,449.0,625.0,0.0,0,226.0,1
976,976,0.2791416331985902,0.3,1.0,1.0,296.0,660.0,1.0,1,254.0,1
977,977,-0.07159387125010364,-0.1,0.0,1.0,387.0,851.0,1.0,0,1762.0,1
978,978,0.8477773396227469,0.8,1.0,1.0,460.0,729.0,1.0,1,131.0,1
979,979,0.5623998498779351,0.6,1.0,1.0,403.0,998.0,1.0,1,199.0,1
980,980,-0.23855375547044222,-0.2,0.0,1.0,442.0,853.0,1.0,0,375.0,1
981,981,-0.7632638605745877,-0.8,0.0,1.0,418.0,545.0,1.0,0,247.0,1
982,982,-0.3822615396537715,-0.4,0.0,1.0,331.0,580.0,1.0,0,239.0,1
983,983,-0.4644524997556752,-0.5,0.0,1.0,488.0,903.0,1.0,0,139.0,1
984,984,0.39675441673220424,0.4,1.0,1.0,280.0,807.0,1.0,1,383.0,1
985,985,0.68097672665484,0.7,0.0,0.0,291.0,701.0,0.0,1,488.0,1
986,986,0.44154560656619013,0.4,0.0,0.0,372.0,926.0,0.0,1,262.0,1
987,987,-0.4012411490254319,-0.4,0.0,1.0,385.0,830.0,1.0,0,325.0,1
988,988,-0.24766155355237696,-0.2,1.0,0.0,475.0,687.0,0.0,0,288.0,1
989,989,-0.7830387163320297,-0.8,0.0,1.0,305.0,782.0,1.0,0,163.0,1
990,990,-0.4158462664206672,-0.4,0.0,1.0,413.0,864.0,1.0,0,313.0,1
991,991,0.6251441010464881,0.6,0.0,0.0,425.0,925.0,0.0,1,190.0,1
992,992,0.01391041154268513,0.0,0.0,0.0,344.0,731.0,0.0,1,1925.0,1
993,993,0.6649925545391114,0.7,0.0,0.0,385.0,959.0,0.0,1,276.0,1
994,994,-0.43507232008795865,-0.4,0.0,1.0,336.0,709.0,1.0,0,425.0,1
995,995,0.09779261824358987,0.1,1.0,1.0,379.0,576.0,1.0,1,435.0,1
996,996,0.6858493881667315,0.7,1.0,1.0,256.0,716.0,1.0,1,268.0,1
997,997,-0.4343182577091512,-0.4,0.0,1.0,479.0,948.0,1.0,0,593.0,1
998,998,0.3990232465177147,0.4,1.0,1.0,373.0,953.0,1.0,1,484.0,1
999,999,-0.8594565536136114,-0.9,0.0,1.0,368.0,947.0,1.0,0,335.0,1
1000,1000,0.7748230693780948,0.8,1.0,1.0,361.0,767.0,1.0,1,212.0,1
1001,1001,0.11126744019157264,0.1,0.0,0.0,263.0,674.0,0.0,1,1433.0,1
1002,1002,0.6647183216740639,0.7,0.0,0.0,364.0,711.0,0.0,1,335.0,1
1003,1003,-0.8262911606614313,-0.8,1.0,0.0,285.0,964.0,0.0,0,141.0,1
1004,1004,0.48008328058549676,0.5,1.0,1.0,287.0,644.0,1.0,1,159.0,1
1005,1005,-0.24832641112513643,-0.2,0.0,1.0,389.0,925.0,1.0,0,1686.0,1
1006,1006,-0.6642360661913994,-0.7,1.0,0.0,268.0,800.0,0.0,0,222.0,1
1007,1007,-0.1341204294784184,-0.1,0.0,1.0,414.0,938.0,1.0,0,1648.0,1
1008,1008,-0.3590755865833304,-0.4,1.0,0.0,330.0,797.0,0.0,0,443.0,1
1009,1009,0.15739385671860673,0.2,1.0,1.0,324.0,715.0,1.0,1,-59.0,1
1010,1010,0.4639461385620772,0.5,0.0,0.0,282.0,970.0,0.0,1,288.0,1
1011,1011,0.6236621778642081,0.6,0.0,0.0,353.0,926.0,0.0,1,171.0,1
1012,1012,-0.5770953352751758,-0.6,1.0,0.0,306.0,515.0,0.0,0,609.0,1
1013,1013,-0.5844346572449843,-0.6,1.0,0.0,325.0,753.0,0.0,0,902.0,1
1014,1014,-0.7773243940125347,-0.8,1.0,0.0,368.0,722.0,0.0,0,370.0,1
1015,1015,-0.7698007355082562,-0.8,0.0,1.0,366.0,964.0,1.0,0,150.0,1
1016,1016,-0.22163000639587738,-0.2,1.0,0.0,482.0,862.0,0.0,0,856.0,1
1017,1017,0.27069764350454906,0.3,1.0,1.0,400.0,927.0,1.0,1,483.0,1
1018,1018,-0.038841547803945886,-0.0,0.0,1.0,343.0,710.0,1.0,0,1947.0,1
1019,1019,-0.152385398919625,-0.2,1.0,0.0,458.0,854.0,1.0,1,-272.0,0
1020,1020,0.22406220583729552,0.2,0.0,0.0,307.0,731.0,0.0,1,192.0,1
1021,1021,-0.26209387282743035,-0.3,0.0,1.0,420.0,896.0,1.0,0,534.0,1
1022,1022,0.029144019333724125,0.0,1.0,1.0,261.0,570.0,1.0,1,2169.0,1
1023,1023,-0.5762217471953179,-0.6,1.0,0.0,354.0,735.0,0.0,0,181.0,1
1024,1024,-0.8861685595153458,-0.9,0.0,1.0,266.0,945.0,1.0,0,329.0,1
1025,1025,0.747082997683549,0.7,1.0,1.0,252.0,616.0,1.0,1,192.0,1
1026,1026,0.10329040614774276,0.1,0.0,0.0,316.0,639.0,0.0,1,2045.0,1
1027,1027,0.519294191316965,0.5,1.0,1.0,482.0,711.0,1.0,1,177.0,1
1028,1028,-0.06854259853932632,-0.1,0.0,1.0,306.0,587.0,0.0,1,2107.0,0
1029,1029,-0.7578265939754627,-0.8,0.0,1.0,283.0,555.0,1.0,0,192.0,1
1030,1030,-0.8400626305249707,-0.8,0.0,1.0,388.0,570.0,1.0,0,172.0,1
1031,1031,0.8379091274448328,0.8,0.0,0.0,487.0,567.0,0.0,1,256.0,1
1032,1032,0.6803684388318952,0.7,1.0,1.0,363.0,639.0,1.0,1,568.0,1
1033,1033,-0.8765328185664314,-0.9,0.0,1.0,478.0,873.0,1.0,0,309.0,1
1034,1034,-0.5905488422033822,-0.6,0.0,1.0,407.0,972.0,1.0,0,-239.0,1
1035,1035,-0.6225922257051264,-0.6,1.0,0.0,313.0,923.0,0.0,0,284.0,1
1036,1036,-0.5706206212646174,-0.6,0.0,1.0,438.0,607.0,1.0,0,125.0,1
1037,1037,-0.6044523655057532,-0.6,1.0,0.0,295.0,822.0,0.0,0,443.0,1
1038,1038,-0.07614232063765902,-0.1,0.0,1.0,499.0,769.0,1.0,0,1732.0,1
1039,1039,-0.13199055570963591,-0.1,0.0,1.0,307.0,967.0,1.0,0,1286.0,1
1040,1040,-0.37710760889549033,-0.4,1.0,0.0,389.0,854.0,0.0,0,257.0,1
1041,1041,-0.4628775704476254,-0.5,1.0,0.0,330.0,714.0,0.0,0,126.0,1
1042,1042,0.3936492482631161,0.4,0.0,0.0,261.0,754.0,0.0,1,575.0,1
1043,1043,0.7482160751574228,0.7,1.0,1.0,486.0,820.0,1.0,1,364.0,1
1044,1044,0.7897872771522111,0.8,1.0,1.0,477.0,866.0,1.0,1,97.0,1
1045,1045,-0.371043652167685,-0.4,1.0,0.0,442.0,513.0,0.0,0,595.0,1
1046,1046,-0.16364563777035368,-0.2,1.0,0.0,287.0,565.0,0.0,0,878.0,1
1047,1047,-0.8239344870078036,-0.8,1.0,0.0,266.0,677.0,0.0,0,417.0,1
1048,1048,0.01785853122178349,0.0,1.0,1.0,426.0,773.0,0.0,0,1801.0,0
1049,1049,-0.5273492326986243,-0.5,0.0,1.0,320.0,732.0,1.0,0,308.0,1
1050,1050,0.8279533113102474,0.8,1.0,1.0,355.0,589.0,1.0,1,236.0,1
1051,1051,0.35450814027458677,0.4,0.0,0.0,347.0,818.0,0.0,1,475.0,1
1052,1052,-0.40539897338226316,-0.4,1.0,0.0,466.0,611.0,0.0,0,583.0,1
1053,1053,0.7633909209377762,0.8,1.0,1.0,305.0,991.0,1.0,1,254.0,1
1054,1054,0.21081474713589354,0.2,0.0,0.0,400.0,710.0,0.0,1,560.0,1
1055,1055,0.7311850347551411,0.7,0.0,0.0,457.0,816.0,0.0,1,207.0,1
1056,1056,-0.0942847276708565,-0.1,1.0,0.0,377.0,873.0,0.0,0,1750.0,1
1057,1057,0.857824754385612,0.9,1.0,1.0,402.0,692.0,1.0,1,256.0,1
1058,1058,-0.8791649746290321,-0.9,0.0,1.0,262.0,829.0,1.0,0,109.0,1
1059,1059,-0.6676215003558954,-0.7,1.0,0.0,345.0,633.0,0.0,0,542.0,1
1060,1060,0.06550055900558904,0.1,1.0,1.0,472.0,618.0,0.0,0,300.0,0
1061,1061,-0.4920361305219279,-0.5,1.0,0.0,476.0,623.0,0.0,0,401.0,1
1062,1062,-0.8170508493749997,-0.8,1.0,0.0,328.0,550.0,0.0,0,472.0,1
1063,1063,0.05026179723331925,0.1,1.0,1.0,363.0,967.0,1.0,1,1670.0,1
1064,1064,0.7617025966128151,0.8,0.0,0.0,335.0,628.0,0.0,1,297.0,1
1065,1065,-0.7899085216254152,-0.8,1.0,0.0,317.0,570.0,0.0,0,263.0,1
1066,1066,0.2446751870618199,0.2,1.0,1.0,299.0,506.0,1.0,1,495.0,1
1067,1067,-0.7448459961413127,-0.7,1.0,0.0,290.0,515.0,0.0,0,475.0,1
1068,1068,-0.2476864758201982,-0.2,1.0,0.0,397.0,619.0,0.0,0,794.0,1
1069,1069,0.30590674477800694,0.3,1.0,1.0,274.0,728.0,1.0,1,218.0,1
1070,1070,0.18866289743407483,0.2,0.0,0.0,434.0,859.0,0.0,1,427.0,1
1071,1071,0.7312076408251652,0.7,1.0,1.0,439.0,917.0,1.0,1,64.0,1
1072,1072,-0.07398089758777693,-0.1,1.0,0.0,252.0,772.0,0.0,0,1976.0,1
1073,1073,0.6778912856626466,0.7,1.0,1.0,273.0,573.0,1.0,1,604.0,1
1074,1074,-0.37757832350557574,-0.4,0.0,1.0,467.0,779.0,1.0,0,314.0,1
1075,1075,-0.5195493371551323,-0.5,0.0,1.0,319.0,670.0,1.0,0,301.0,1
1076,1076,0.14778428206433036,0.1,0.0,0.0,483.0,741.0,0.0,1,1736.0,1
1077,1077,-0.3547996497956625,-0.4,0.0,1.0,476.0,609.0,1.0,0,345.0,1
1078,1078,-0.4563972994182881,-0.5,0.0,1.0,330.0,516.0,1.0,0,384.0,1
1079,1079,0.8267798344641112,0.8,0.0,0.0,361.0,527.0,0.0,1,232.0,1
1080,1080,-0.028323879202232338,-0.0,0.0,1.0,281.0,831.0,1.0,0,1888.0,1
1081,1081,-0.29540968768978093,-0.3,1.0,0.0,335.0,826.0,0.0,0,699.0,1
1082,1082,0.6462013341062355,0.6,0.0,0.0,315.0,716.0,0.0,1,419.0,1
1083,1083,-0.6001209325739297,-0.6,0.0,1.0,262.0,535.0,1.0,0,563.0,1
1084,1084,-0.614577193550889,-0.6,0.0,1.0,283.0,683.0,1.0,0,324.0,1
1085,1085,-0.6382711289130285,-0.6,1.0,0.0,265.0,887.0,0.0,0,368.0,1
1086,1086,0.6968621964914502,0.7,0.0,0.0,282.0,792.0,0.0,1,196.0,1
1087,1087,0.15358349944389793,0.2,1.0,1.0,462.0,652.0,1.0,1,1116.0,1
1088,1088,-0.8646364296436122,-0.9,0.0,1.0,409.0,623.0,1.0,0,78.0,1
1089,1089,0.5777272987204051,0.6,1.0,1.0,252.0,998.0,1.0,1,190.0,1
1090,1090,0.5155534256375734,0.5,1.0,1.0,365.0,856.0,1.0,1,389.0,1
1091,1091,-0.0626670379266343,-0.1,1.0,0.0,344.0,523.0,1.0,1,2133.0,0
1092,1092,-0.2024277556541313,-0.2,0.0,1.0,355.0,981.0,1.0,0,534.0,1
1093,1093,0.6250154017256945,0.6,0.0,0.0,453.0,554.0,0.0,1,513.0,1
1094,1094,-0.09464504102846694,-0.1,1.0,0.0,427.0,713.0,0.0,0,1390.0,1
1095,1095,-0.3929565134308125,-0.4,1.0,0.0,356.0,744.0,0.0,0,290.0,1
1096,1096,-0.04786972112048682,-0.0,1.0,0.0,344.0,880.0,0.0,0,1776.0,1
1097,1097,-0.6327429229361445,-0.6,1.0,0.0,270.0,663.0,0.0,0,427.0,1
1098,1098,0.5019960401242795,0.5,1.0,1.0,421.0,544.0,1.0,1,295.0,1
1099,1099,-0.0174605412195592,-0.0,1.0,0.0,337.0,911.0,1.0,1,1752.0,0
1100,1100,0.2319720750096691,0.2,0.0,0.0,355.0,522.0,0.0,1,1293.0,1
1101,1101,0.8807413178900653,0.9,1.0,1.0,397.0,672.0,1.0,1,121.0,1
1102,1102,-0.3877742577026153,-0.4,0.0,1.0,443.0,546.0,1.0,0,281.0,1
1103,1103,-0.669837947290957,-0.7,0.0,1.0,445.0,653.0,1.0,0,332.0,1
1104,1104,0.35413377162812887,0.4,0.0,0.0,313.0,984.0,0.0,1,743.0,1
1105,1105,0.1004438120448129,0.1,0.0,0.0,349.0,994.0,0.0,1,447.0,1
1106,1106,-0.3195159395416898,-0.3,1.0,0.0,465.0,596.0,0.0,0,659.0,1
1107,1107,0.518104868865025,0.5,0.0,0.0,266.0,511.0,0.0,1,373.0,1
1108,1108,-0.44807027232653246,-0.4,1.0,0.0,454.0,884.0,0.0,0,352.0,1
1109,1109,-0.8373069198526912,-0.8,1.0,0.0,403.0,705.0,0.0,0,1122.0,1
1110,1110,0.8695066224562743,0.9,0.0,0.0,327.0,693.0,0.0,1,120.0,1
1111,1111,0.026218415159246056,0.0,0.0,0.0,427.0,886.0,1.0,0,1687.0,0
1112,1112,-0.6021203070227268,-0.6,0.0,1.0,355.0,847.0,1.0,0,378.0,1
1113,1113,0.3047521354118855,0.3,1.0,1.0,450.0,837.0,1.0,1,323.0,1
1114,1114,0.07611060063901953,0.1,0.0,0.0,468.0,781.0,0.0,1,1751.0,1
1115,1115,0.45228295555381737,0.5,1.0,1.0,353.0,504.0,1.0,1,163.0,1
1116,1116,-0.39592595129727126,-0.4,0.0,1.0,468.0,575.0,1.0,0,457.0,1
1117,1117,0.8078720052629386,0.8,0.0,0.0,362.0,581.0,0.0,1,227.0,1
1118,1118,-0.05782050870797539,-0.1,0.0,1.0,275.0,530.0,0.0,1,2195.0,0
1119,1119,-0.8045476140393542,-0.8,0.0,1.0,375.0,582.0,1.0,0,83.0,1
1120,1120,-0.01389047302154478,-0.0,0.0,1.0,281.0,884.0,1.0,0,1835.0,1
1121,1121,-0.8073431172741823,-0.8,0.0,1.0,436.0,539.0,1.0,0,185.0,1
1122,1122,-0.10188541640551729,-0.1,1.0,0.0,319.0,564.0,0.0,0,2117.0,1
1123,1123,0.7147578291103466,0.7,0.0,0.0,365.0,594.0,0.0,1,221.0,1
1124,1124,0.5239427833907692,0.5,0.0,0.0,304.0,791.0,0.0,1,125.0,1
1125,1125,0.45252248272417905,0.5,0.0,0.0,431.0,838.0,0.0,1,301.0,1
1126,1126,-0.8583910081101438,-0.9,0.0,1.0,331.0,590.0,1.0,0,429.0,1
1127,1127,0.6975843423036435,0.7,1.0,1.0,258.0,703.0,1.0,1,159.0,1
1128,1128,-0.2612026442560671,-0.3,1.0,0.0,444.0,560.0,0.0,0,1626.0,1
1129,1129,0.7686246301452481,0.8,1.0,1.0,328.0,758.0,1.0,1,204.0,1
1130,1130,-0.07397570328201208,-0.1,1.0,0.0,278.0,793.0,0.0,0,1929.0,1
1131,1131,0.8481655958839273,0.8,1.0,1.0,492.0,555.0,1.0,1,163.0,1
1132,1132,0.22337433167814014,0.2,0.0,0.0,415.0,878.0,0.0,1,647.0,1
1133,1133,-0.8793502278465213,-0.9,1.0,0.0,443.0,749.0,0.0,0,228.0,1
1134,1134,-0.09107400956495615,-0.1,1.0,0.0,383.0,696.0,1.0,1,1921.0,0
1135,1135,-0.3477419760461512,-0.3,1.0,0.0,482.0,527.0,0.0,0,1211.0,1
1136,1136,-0.017390678311123065,-0.0,0.0,1.0,442.0,749.0,1.0,0,899.0,1
1137,1137,0.7562345217724012,0.8,0.0,0.0,421.0,941.0,0.0,1,178.0,1
1138,1138,-0.7502360767173062,-0.8,0.0,1.0,290.0,581.0,1.0,0,209.0,1
1139,1139,-0.7143809033853393,-0.7,0.0,1.0,380.0,504.0,1.0,0,286.0,1
1140,1140,-0.4976621669029072,-0.5,1.0,0.0,473.0,695.0,0.0,0,222.0,1
1141,1141,-0.07560771799399002,-0.1,0.0,1.0,320.0,536.0,1.0,0,2144.0,1
1142,1142,-0.28092279075939286,-0.3,1.0,0.0,275.0,599.0,0.0,0,866.0,1
1143,1143,-0.3087685655137682,-0.3,0.0,1.0,322.0,980.0,1.0,0,478.0,1
1144,1144,0.45326870851588363,0.5,1.0,1.0,390.0,657.0,1.0,1,293.0,1
1145,1145,0.8457232881502522,0.8,1.0,1.0,470.0,505.0,1.0,1,165.0,1
1146,1146,-0.08000392788629374,-0.1,0.0,1.0,406.0,607.0,1.0,0,1987.0,1
1147,1147,-0.14512145144092947,-0.1,0.0,1.0,453.0,658.0,1.0,0,669.0,1
1148,1148,-0.6665807709661913,-0.7,1.0,0.0,434.0,847.0,0.0,0,209.0,1
1149,1149,0.6390126006065279,0.6,1.0,1.0,271.0,731.0,1.0,1,158.0,1
1150,1150,0.007544870435407969,0.0,1.0,1.0,261.0,709.0,1.0,1,1760.0,1
1151,1151,0.118121755108065,0.1,0.0,0.0,305.0,851.0,0.0,1,1844.0,1
1152,1152,0.3064870732225172,0.3,0.0,0.0,499.0,944.0,0.0,1,-13.0,1
1153,1153,-0.09607127096069112,-0.1,0.0,1.0,289.0,981.0,1.0,0,1730.0,1
1154,1154,-0.7650967315904178,-0.8,0.0,1.0,284.0,722.0,1.0,0,254.0,1
1155,1155,0.36330384703544205,0.4,1.0,1.0,371.0,785.0,1.0,1,624.0,1
1156,1156,-0.5900389534597241,-0.6,1.0,0.0,291.0,970.0,0.0,0,199.0,1
1157,1157,-0.19247202085769055,-0.2,1.0,0.0,473.0,852.0,0.0,0,705.0,1
1158,1158,-0.11455425061200997,-0.1,0.0,1.0,456.0,963.0,1.0,0,761.0,1
1159,1159,-0.166725758743419,-0.2,0.0,1.0,337.0,563.0,1.0,0,1660.0,1
1160,1160,0.476265611356118,0.5,0.0,0.0,426.0,593.0,0.0,1,91.0,1
1161,1161,-0.5260543207202448,-0.5,1.0,0.0,403.0,619.0,0.0,0,1288.0,1
1162,1162,0.233381417817066,0.2,0.0,0.0,441.0,724.0,0.0,1,175.0,1
1163,1163,-0.13850398183500334,-0.1,0.0,1.0,418.0,605.0,1.0,0,837.0,1
1164,1164,0.14950048760578827,0.1,0.0,0.0,472.0,548.0,0.0,1,400.0,1
1165,1165,0.30560790204538646,0.3,1.0,1.0,418.0,897.0,1.0,1,345.0,1
1166,1166,0.08262733298567215,0.1,1.0,1.0,391.0,913.0,1.0,1,1696.0,1
1167,1167,-0.05760160892915833,-0.1,1.0,0.0,357.0,948.0,0.0,0,1695.0,1
1168,1168,-0.6083087741577307,-0.6,0.0,1.0,399.0,953.0,1.0,0,178.0,1
1169,1169,0.23920810453387042,0.2,1.0,1.0,451.0,838.0,1.0,1,521.0,1
1170,1170,-0.1481150299421643,-0.1,0.0,1.0,345.0,934.0,1.0,0,831.0,1
1171,1171,0.8081048419683164,0.8,0.0,0.0,417.0,567.0,0.0,1,156.0,1
1172,1172,-0.07965868535554921,-0.1,0.0,1.0,318.0,615.0,1.0,0,2067.0,1
1173,1173,0.20967699468573742,0.2,1.0,1.0,320.0,946.0,1.0,1,344.0,1
1174,1174,0.39350846095242675,0.4,0.0,0.0,278.0,530.0,0.0,1,102.0,1
1175,1175,0.8785144140496478,0.9,1.0,1.0,410.0,619.0,1.0,1,211.0,1
1176,1176,0.19728020428276005,0.2,1.0,1.0,345.0,783.0,1.0,1,1642.0,1
1177,1177,0.4607164113050469,0.5,1.0,1.0,257.0,820.0,1.0,1,353.0,1
1178,1178,0.2164710215468365,0.2,1.0,1.0,477.0,873.0,1.0,1,390.0,1
1179,1179,0.7625767773042188,0.8,1.0,1.0,351.0,588.0,1.0,1,181.0,1
1180,1180,0.5446178558886249,0.5,1.0,1.0,299.0,780.0,1.0,1,371.0,1
1181,1181,-0.48963334467947484,-0.5,1.0,0.0,250.0,890.0,0.0,0,710.0,1
1182,1182,0.020658120324061557,0.0,0.0,0.0,294.0,665.0,0.0,1,491.0,1
1183,1183,-0.7483594990163402,-0.7,0.0,1.0,316.0,757.0,1.0,0,447.0,1
1184,1184,-0.40910035572759884,-0.4,0.0,1.0,431.0,623.0,1.0,0,536.0,1
1185,1185,-0.5313187254852332,-0.5,1.0,0.0,368.0,937.0,0.0,0,1085.0,1
1186,1186,-0.7856403672747041,-0.8,0.0,1.0,411.0,682.0,1.0,0,267.0,1
1187,1187,0.8628476171680309,0.9,0.0,0.0,334.0,598.0,0.0,1,388.0,1
1188,1188,-0.8071747823777694,-0.8,0.0,1.0,410.0,757.0,1.0,0,173.0,1
1189,1189,-0.10168665371464813,-0.1,0.0,1.0,366.0,896.0,1.0,0,1738.0,1
1190,1190,0.5622035758719713,0.6,0.0,0.0,285.0,529.0,0.0,1,226.0,1
1191,1191,0.33864369768659086,0.3,0.0,0.0,478.0,717.0,0.0,1,205.0,1
1192,1192,0.6085527197136823,0.6,1.0,1.0,303.0,712.0,1.0,1,355.0,1
1193,1193,0.632328803794803,0.6,0.0,0.0,369.0,755.0,0.0,1,166.0,1
1194,1194,0.5371388070980906,0.5,0.0,0.0,308.0,721.0,0.0,1,451.0,1
1195,1195,0.3984045161573856,0.4,0.0,0.0,444.0,698.0,0.0,1,328.0,1
1196,1196,0.8199688279684582,0.8,0.0,0.0,290.0,667.0,0.0,1,333.0,1
1197,1197,-0.1306437377563635,-0.1,1.0,0.0,460.0,798.0,0.0,0,1632.0,1
1198,1198,-0.2223440784582914,-0.2,1.0,0.0,303.0,548.0,0.0,0,609.0,1
1199,1199,-0.3360321825200244,-0.3,0.0,1.0,490.0,550.0,1.0,0,1600.0,1
1200,1200,0.42352843949125385,0.4,0.0,0.0,343.0,891.0,0.0,1,336.0,1
1201,1201,0.22408786124350744,0.2,0.0,0.0,323.0,625.0,0.0,1,552.0,1
1202,1202,0.8188159749101197,0.8,0.0,0.0,462.0,701.0,0.0,1,227.0,1
1203,1203,-0.041022373486785835,-0.0,0.0,1.0,400.0,604.0,0.0,1,1996.0,0
1204,1204,-0.1729608285208375,-0.2,1.0,0.0,431.0,547.0,0.0,0,632.0,1
1205,1205,0.6210450396837369,0.6,0.0,0.0,280.0,918.0,0.0,1,202.0,1
1206,1206,-0.5334306339752264,-0.5,0.0,1.0,276.0,910.0,1.0,0,154.0,1
1207,1207,-0.5083381766580285,-0.5,1.0,0.0,276.0,722.0,0.0,0,1092.0,1
1208,1208,-0.16888293720388237,-0.2,1.0,0.0,407.0,971.0,0.0,0,1622.0,1
1209,1209,-0.5894064816741975,-0.6,0.0,1.0,318.0,531.0,1.0,0,191.0,1
1210,1210,-0.5018375569894544,-0.5,0.0,1.0,453.0,738.0,1.0,0,329.0,1
1211,1211,0.31290747315525624,0.3,0.0,0.0,302.0,935.0,0.0,1,283.0,1
1212,1212,-0.126168686163719,-0.1,1.0,0.0,461.0,737.0,0.0,0,1802.0,1
1213,1213,-0.6681796943239832,-0.7,1.0,0.0,294.0,558.0,0.0,0,178.0,1
1214,1214,0.7867406742581758,0.8,1.0,1.0,463.0,820.0,1.0,1,347.0,1
1215,1215,-0.7606661971733677,-0.8,1.0,0.0,305.0,874.0,0.0,0,221.0,1
1216,1216,-0.4294917729682943,-0.4,0.0,1.0,344.0,546.0,1.0,0,530.0,1
1217,1217,0.29509116441690864,0.3,0.0,0.0,408.0,592.0,0.0,1,570.0,1
1218,1218,-0.2593955151552977,-0.3,0.0,1.0,455.0,655.0,1.0,0,70.0,1
1219,1219,0.31265941992113666,0.3,1.0,1.0,432.0,880.0,1.0,1,328.0,1
1220,1220,0.29090614395934133,0.3,1.0,1.0,355.0,921.0,1.0,1,614.0,1
1221,1221,-0.043241157198309454,-0.0,0.0,1.0,431.0,611.0,1.0,0,1958.0,1
1222,1222,0.24399228616429836,0.2,0.0,0.0,407.0,571.0,0.0,1,1632.0,1
1223,1223,0.23989041031844238,0.2,0.0,0.0,366.0,500.0,0.0,1,124.0,1
1224,1224,-0.11089501160809334,-0.1,1.0,0.0,383.0,560.0,0.0,0,2057.0,1
1225,1225,0.5274143759219309,0.5,0.0,0.0,274.0,698.0,0.0,1,158.0,1
1226,1226,-0.25459922874451235,-0.3,0.0,1.0,422.0,836.0,1.0,0,802.0,1
1227,1227,-0.6311057498429595,-0.6,0.0,1.0,259.0,530.0,1.0,0,241.0,1
1228,1228,0.7727681630786717,0.8,1.0,1.0,262.0,577.0,1.0,1,191.0,1
1229,1229,0.511745771370831,0.5,0.0,0.0,486.0,878.0,0.0,1,306.0,1
1230,1230,-0.8473267553908618,-0.8,1.0,0.0,359.0,601.0,0.0,0,450.0,1
1231,1231,-0.4644548861400547,-0.5,0.0,1.0,284.0,901.0,1.0,0,45.0,1
1232,1232,-0.4938538682656823,-0.5,0.0,1.0,391.0,685.0,1.0,0,174.0,1
1233,1233,0.5964851804521761,0.6,0.0,0.0,417.0,807.0,0.0,1,526.0,1
1234,1234,-0.41424055308212643,-0.4,1.0,0.0,491.0,656.0,0.0,0,833.0,1
1235,1235,0.6713932925651015,0.7,0.0,0.0,423.0,534.0,0.0,1,163.0,1
1236,1236,0.4400061681718589,0.4,1.0,1.0,465.0,791.0,1.0,1,424.0,1
1237,1237,-0.8803974283518886,-0.9,0.0,1.0,497.0,699.0,1.0,0,184.0,1
1238,1238,0.8934553686354182,0.9,0.0,0.0,465.0,754.0,0.0,1,141.0,1
1239,1239,0.24766552023389232,0.2,1.0,1.0,254.0,858.0,1.0,1,968.0,1
1240,1240,0.6466547113531823,0.6,1.0,1.0,252.0,922.0,1.0,1,156.0,1
1241,1241,0.4720029502817987,0.5,1.0,1.0,463.0,857.0,1.0,1,340.0,1
1242,1242,-0.16731794128003208,-0.2,1.0,0.0,384.0,824.0,0.0,0,1652.0,1
1243,1243,-0.48598061819629007,-0.5,0.0,1.0,276.0,512.0,1.0,0,202.0,1
1244,1244,0.7806622275129521,0.8,1.0,1.0,288.0,854.0,1.0,1,168.0,1
1245,1245,-0.85987778062801,-0.9,1.0,0.0,453.0,625.0,0.0,0,482.0,1
1246,1246,-0.32930506356582623,-0.3,1.0,0.0,368.0,563.0,0.0,0,1339.0,1
1247,1247,-0.7116380919427029,-0.7,1.0,0.0,482.0,940.0,0.0,0,708.0,1
1248,1248,0.2745390568279097,0.3,0.0,0.0,286.0,669.0,0.0,1,445.0,1
1249,1249,0.7059435446057153,0.7,1.0,1.0,384.0,530.0,1.0,1,156.0,1
1250,1250,0.4094619478678684,0.4,1.0,1.0,294.0,948.0,1.0,1,418.0,1
1251,1251,0.1651267052698816,0.2,0.0,0.0,326.0,767.0,0.0,1,587.0,1
1252,1252,0.3474442842668356,0.3,1.0,1.0,413.0,642.0,1.0,1,375.0,1
1253,1253,0.04222614604570896,0.0,1.0,1.0,342.0,619.0,0.0,0,2039.0,0
1254,1254,0.14498605160978661,0.1,0.0,0.0,329.0,743.0,0.0,1,1498.0,1
1255,1255,-0.031021303084312057,-0.0,0.0,1.0,426.0,611.0,0.0,1,1963.0,0
1256,1256,0.4358642765595838,0.4,1.0,1.0,363.0,905.0,1.0,1,192.0,1
1257,1257,-0.4643585855709655,-0.5,0.0,1.0,371.0,633.0,1.0,0,206.0,1
1258,1258,-0.4715881204022877,-0.5,1.0,0.0,434.0,888.0,0.0,0,348.0,1
1259,1259,0.5042078217618521,0.5,0.0,0.0,331.0,576.0,0.0,1,353.0,1
1260,1260,-0.5444485713634521,-0.5,0.0,1.0,499.0,774.0,1.0,0,267.0,1
1261,1261,-0.7606177114076503,-0.8,1.0,0.0,489.0,994.0,0.0,0,297.0,1
1262,1262,0.6128390537620473,0.6,0.0,0.0,347.0,580.0,0.0,1,293.0,1
1263,1263,-0.40776616989114806,-0.4,1.0,0.0,258.0,544.0,0.0,0,338.0,1
1264,1264,-0.3839728579159294,-0.4,0.0,1.0,438.0,990.0,1.0,0,352.0,1
1265,1265,0.4866239959957114,0.5,0.0,0.0,416.0,879.0,0.0,1,155.0,1
1266,1266,0.1618412911066186,0.2,0.0,0.0,310.0,859.0,0.0,1,-249.0,1
1267,1267,-0.5781913955191025,-0.6,1.0,0.0,305.0,811.0,0.0,0,144.0,1
1268,1268,-0.3389358288165272,-0.3,1.0,0.0,392.0,637.0,0.0,0,571.0,1
1269,1269,-0.25130939741746827,-0.3,0.0,1.0,363.0,654.0,1.0,0,1433.0,1
1270,1270,0.6333983823621981,0.6,1.0,1.0,374.0,937.0,1.0,1,249.0,1
1271,1271,-0.09734195612570917,-0.1,0.0,1.0,319.0,678.0,1.0,0,1173.0,1
1272,1272,-0.15611789268530762,-0.2,1.0,0.0,453.0,714.0,0.0,0,1833.0,1
1273,1273,-0.5429209681570888,-0.5,0.0,1.0,319.0,894.0,1.0,0,167.0,1
1274,1274,0.6277050201669291,0.6,0.0,0.0,258.0,903.0,0.0,1,179.0,1
1275,1275,0.5243827519226233,0.5,1.0,1.0,465.0,856.0,1.0,1,359.0,1
1276,1276,-0.2873951760963408,-0.3,0.0,1.0,253.0,818.0,1.0,0,759.0,1
1277,1277,0.32800083022261795,0.3,1.0,1.0,468.0,638.0,1.0,1,574.0,1
1278,1278,0.3231606013805389,0.3,1.0,1.0,373.0,901.0,1.0,1,496.0,1
1279,1279,-0.29304249569137786,-0.3,0.0,1.0,452.0,844.0,1.0,0,864.0,1
1280,1280,0.7716545001133445,0.8,0.0,0.0,424.0,543.0,0.0,1,313.0,1
1281,1281,-0.18338200018052908,-0.2,1.0,0.0,342.0,582.0,0.0,0,766.0,1
1282,1282,-0.8898753449042885,-0.9,0.0,1.0,482.0,719.0,1.0,0,209.0,1
1283,1283,-0.5659139694524123,-0.6,1.0,0.0,346.0,574.0,0.0,0,540.0,1
1284,1284,0.05542398136642135,0.1,1.0,1.0,414.0,573.0,1.0,1,2013.0,1
1285,1285,0.6208138311587158,0.6,0.0,0.0,431.0,813.0,0.0,1,116.0,1
1286,1286,0.8126812661018289,0.8,1.0,1.0,335.0,526.0,1.0,1,229.0,1
1287,1287,0.020278995805741773,0.0,0.0,0.0,330.0,706.0,0.0,1,1964.0,1
1288,1288,0.7143202156499905,0.7,1.0,1.0,427.0,739.0,1.0,1,244.0,1
1289,1289,0.4251016798314623,0.4,0.0,0.0,252.0,583.0,0.0,1,325.0,1
1290,1290,0.5035272534148868,0.5,1.0,1.0,395.0,570.0,1.0,1,195.0,1
1291,1291,-0.41728924676041945,-0.4,0.0,1.0,429.0,884.0,1.0,0,547.0,1
1292,1292,0.01991892358181724,0.0,1.0,1.0,263.0,964.0,1.0,1,1773.0,1
1293,1293,-0.5675058080152178,-0.6,0.0,1.0,372.0,831.0,1.0,0,117.0,1
1294,1294,-0.052298160775222424,-0.1,0.0,1.0,306.0,626.0,1.0,0,2068.0,1
1295,1295,0.6208777044277066,0.6,0.0,0.0,343.0,886.0,0.0,1,221.0,1
1296,1296,0.3013007593265432,0.3,1.0,1.0,452.0,503.0,1.0,1,525.0,1
1297,1297,0.8458098809526932,0.8,0.0,0.0,315.0,659.0,0.0,1,226.0,1
1298,1298,0.7916068989322765,0.8,1.0,1.0,365.0,580.0,1.0,1,225.0,1
1299,1299,-0.28005250783121083,-0.3,1.0,0.0,261.0,508.0,0.0,0,771.0,1
1300,1300,-0.6144534434158486,-0.6,0.0,1.0,294.0,556.0,1.0,0,420.0,1
1301,1301,-0.09887410267717067,-0.1,0.0,1.0,421.0,777.0,1.0,0,1482.0,1
1302,1302,0.5138397665016131,0.5,1.0,1.0,411.0,710.0,1.0,1,349.0,1
1303,1303,-0.5605653766132233,-0.6,0.0,1.0,267.0,814.0,1.0,0,369.0,1
1304,1304,-0.6196700813954142,-0.6,0.0,1.0,336.0,791.0,1.0,0,203.0,1
1305,1305,-0.44525141099615817,-0.4,1.0,0.0,442.0,764.0,0.0,0,684.0,1
1306,1306,0.6941062117518936,0.7,0.0,0.0,446.0,771.0,0.0,1,213.0,1
1307,1307,0.7564190281133415,0.8,0.0,0.0,301.0,508.0,0.0,1,231.0,1
1308,1308,0.49969283134759557,0.5,1.0,1.0,327.0,719.0,1.0,1,434.0,1
1309,1309,-0.14057864747264914,-0.1,1.0,0.0,437.0,520.0,0.0,0,693.0,1
1310,1310,0.6024358756352085,0.6,1.0,1.0,408.0,810.0,1.0,1,342.0,1
1311,1311,0.35625384367544577,0.4,1.0,1.0,306.0,639.0,1.0,1,75.0,1
1312,1312,-0.5950173662994502,-0.6,1.0,0.0,385.0,665.0,0.0,0,220.0,1
1313,1313,-0.5828207945705439,-0.6,0.0,1.0,267.0,869.0,1.0,0,194.0,1
1314,1314,-0.7740728137295093,-0.8,0.0,1.0,298.0,902.0,1.0,0,20.0,1
1315,1315,-0.869991037690457,-0.9,1.0,0.0,359.0,710.0,0.0,0,421.0,1
1316,1316,0.6754980388633608,0.7,0.0,0.0,318.0,815.0,0.0,1,77.0,1
1317,1317,-0.556516357752632,-0.6,0.0,1.0,308.0,638.0,1.0,0,224.0,1
1318,1318,-0.6594938604913612,-0.7,0.0,1.0,290.0,774.0,1.0,0,96.0,1
1319,1319,0.037321716532687677,0.0,0.0,0.0,416.0,703.0,0.0,1,1111.0,1
1320,1320,0.4105116017813416,0.4,0.0,0.0,449.0,665.0,0.0,1,376.0,1
1321,1321,-0.24227146576637626,-0.2,0.0,1.0,460.0,616.0,1.0,0,664.0,1
1322,1322,-0.2368572742426459,-0.2,1.0,0.0,257.0,781.0,0.0,0,452.0,1
1323,1323,-0.27764204219033717,-0.3,1.0,0.0,440.0,882.0,0.0,0,1018.0,1
1324,1324,-0.3769883825674908,-0.4,1.0,0.0,316.0,616.0,0.0,0,1348.0,1
1325,1325,0.2868466053345534,0.3,1.0,1.0,391.0,795.0,1.0,1,404.0,1
1326,1326,-0.7603611736616586,-0.8,1.0,0.0,285.0,943.0,0.0,0,452.0,1
1327,1327,0.15946394956441534,0.2,0.0,0.0,380.0,996.0,0.0,1,734.0,1
1328,1328,0.6863105981176779,0.7,1.0,1.0,258.0,933.0,1.0,1,129.0,1
1329,1329,-0.05691539993575967,-0.1,0.0,1.0,395.0,912.0,1.0,0,1693.0,1
1330,1330,-0.4347669085096071,-0.4,1.0,0.0,339.0,824.0,0.0,0,367.0,1
1331,1331,0.09717403922495116,0.1,0.0,0.0,300.0,979.0,0.0,1,341.0,1
1332,1332,-0.20393673315362593,-0.2,0.0,1.0,277.0,711.0,1.0,0,562.0,1
1333,1333,0.6475934270642923,0.6,1.0,1.0,384.0,695.0,1.0,1,181.0,1
1334,1334,-0.8072254404835608,-0.8,0.0,1.0,272.0,659.0,1.0,0,179.0,1
1335,1335,0.14982053710229237,0.1,0.0,0.0,389.0,719.0,0.0,1,752.0,1
1336,1336,-0.8547696704711039,-0.9,0.0,1.0,441.0,570.0,1.0,0,139.0,1
1337,1337,0.8787307995651331,0.9,1.0,1.0,436.0,749.0,1.0,1,245.0,1
1338,1338,0.34439368633598255,0.3,1.0,1.0,264.0,577.0,1.0,1,399.0,1
1339,1339,-0.4869090553892424,-0.5,1.0,0.0,426.0,739.0,0.0,0,365.0,1
1340,1340,0.06024403548081769,0.1,0.0,0.0,387.0,693.0,1.0,0,1920.0,0
1341,1341,0.8131179158830969,0.8,0.0,0.0,298.0,817.0,0.0,1,185.0,1
1342,1342,0.5386228631821656,0.5,1.0,1.0,433.0,962.0,1.0,1,195.0,1
1343,1343,-0.08458935832480907,-0.1,0.0,1.0,419.0,572.0,1.0,0,2009.0,1
1344,1344,0.04019159119931559,0.0,1.0,1.0,410.0,939.0,1.0,1,1651.0,1
1345,1345,0.4957302235424622,0.5,0.0,0.0,401.0,765.0,0.0,1,214.0,1
1346,1346,-0.13588660391372853,-0.1,0.0,1.0,404.0,927.0,1.0,0,509.0,1
1347,1347,-0.732224753136735,-0.7,1.0,0.0,302.0,890.0,0.0,0,228.0,1
1348,1348,-0.5150097142030992,-0.5,0.0,1.0,260.0,614.0,1.0,0,286.0,1
1349,1349,0.3650491531172485,0.4,0.0,0.0,340.0,842.0,0.0,1,318.0,1
1350,1350,-0.3525675034594199,-0.4,0.0,1.0,457.0,986.0,1.0,0,237.0,1
1351,1351,-0.44898392547378096,-0.4,0.0,1.0,335.0,594.0,1.0,0,241.0,1
1352,1352,0.4312087066422009,0.4,0.0,0.0,401.0,504.0,0.0,1,675.0,1
1353,1353,0.6930930831954917,0.7,0.0,0.0,427.0,781.0,0.0,1,152.0,1
1354,1354,0.2535359712469448,0.3,0.0,0.0,420.0,830.0,0.0,1,420.0,1
1355,1355,0.3301743469224486,0.3,1.0,1.0,312.0,600.0,1.0,1,448.0,1
1356,1356,-0.6059799972640112,-0.6,1.0,0.0,423.0,515.0,0.0,0,282.0,1
1357,1357,0.45150141840531777,0.5,1.0,1.0,405.0,576.0,1.0,1,309.0,1
1358,1358,-0.062711354593469,-0.1,1.0,0.0,330.0,654.0,0.0,0,2016.0,1
1359,1359,-0.40422117538892105,-0.4,0.0,1.0,466.0,774.0,1.0,0,330.0,1
1360,1360,-0.8157286068184552,-0.8,0.0,1.0,252.0,982.0,1.0,0,146.0,1
1361,1361,0.3474290438747484,0.3,0.0,0.0,361.0,673.0,0.0,1,1336.0,1
1362,1362,-0.2546039429483655,-0.3,0.0,1.0,328.0,559.0,1.0,0,1093.0,1
1363,1363,-0.25783476165918895,-0.3,1.0,0.0,455.0,838.0,0.0,0,677.0,1
1364,1364,-0.28448077438661223,-0.3,0.0,1.0,358.0,677.0,1.0,0,205.0,1
1365,1365,0.48941773468191097,0.5,1.0,1.0,448.0,606.0,1.0,1,226.0,1
1366,1366,-0.01872470968252493,-0.0,0.0,1.0,364.0,800.0,0.0,1,1836.0,0
1367,1367,0.12966153246346035,0.1,1.0,1.0,462.0,897.0,1.0,1,751.0,1
1368,1368,0.3372653350228939,0.3,1.0,1.0,330.0,653.0,1.0,1,447.0,1
1369,1369,0.6498295088241234,0.6,0.0,0.0,257.0,583.0,0.0,1,170.0,1
1370,1370,0.1894994076802371,0.2,0.0,0.0,343.0,619.0,0.0,1,418.0,1
1371,1371,0.8993263083730377,0.9,0.0,0.0,424.0,838.0,0.0,1,138.0,1
1372,1372,-0.7550232806185575,-0.8,1.0,0.0,491.0,745.0,0.0,0,924.0,1
1373,1373,0.8164115349663211,0.8,1.0,1.0,388.0,578.0,1.0,1,334.0,1
1374,1374,-0.07451233248759981,-0.1,1.0,0.0,383.0,794.0,0.0,0,1823.0,1
1375,1375,-0.037387471703368313,-0.0,1.0,0.0,353.0,602.0,0.0,0,2045.0,1
1376,1376,-0.039842415345711424,-0.0,1.0,0.0,333.0,612.0,0.0,0,2055.0,1
1377,1377,0.6704057835224112,0.7,1.0,1.0,366.0,726.0,1.0,1,258.0,1
1378,1378,0.14415315248833604,0.1,0.0,0.0,292.0,540.0,0.0,1,1328.0,1
1379,1379,-0.18058341699890623,-0.2,1.0,0.0,259.0,624.0,0.0,0,987.0,1
1380,1380,0.11519574771408092,0.1,0.0,0.0,355.0,675.0,0.0,1,450.0,1
1381,1381,0.2660616877808125,0.3,1.0,1.0,346.0,601.0,1.0,1,753.0,1
1382,1382,0.08319057622059511,0.1,1.0,1.0,294.0,612.0,1.0,1,884.0,1
1383,1383,0.6845924024997702,0.7,1.0,1.0,306.0,604.0,1.0,1,90.0,1
1384,1384,0.442358942660409,0.4,0.0,0.0,364.0,769.0,0.0,1,227.0,1
1385,1385,0.14212375861965387,0.1,1.0,1.0,438.0,655.0,1.0,1,607.0,1
1386,1386,0.011316659805938323,0.0,0.0,0.0,267.0,958.0,1.0,0,1775.0,0
1387,1387,0.3060017999786545,0.3,0.0,0.0,454.0,959.0,0.0,1,667.0,1
1388,1388,0.8870326829653074,0.9,1.0,1.0,424.0,850.0,1.0,1,446.0,1
1389,1389,-0.22904466845112037,-0.2,0.0,1.0,422.0,565.0,1.0,0,533.0,1
1390,1390,0.3412249939100048,0.3,1.0,1.0,317.0,730.0,1.0,1,333.0,1
1391,1391,-0.15850620005082094,-0.2,1.0,0.0,296.0,592.0,0.0,0,1602.0,1
1392,1392,0.7274246744047336,0.7,0.0,0.0,468.0,890.0,0.0,1,232.0,1
1393,1393,-0.16186804802193988,-0.2,1.0,0.0,325.0,659.0,0.0,0,1886.0,1
1394,1394,0.8639539109961637,0.9,0.0,0.0,386.0,853.0,0.0,1,121.0,1
1395,1395,0.17323511185485085,0.2,0.0,0.0,255.0,632.0,0.0,1,1523.0,1
1396,1396,0.7933036469884448,0.8,0.0,0.0,459.0,761.0,0.0,1,120.0,1
1397,1397,0.519168240217237,0.5,1.0,1.0,477.0,692.0,1.0,1,401.0,1
1398,1398,0.7953405889697099,0.8,1.0,1.0,402.0,990.0,1.0,1,208.0,1
1399,1399,-0.3803636559075535,-0.4,1.0,0.0,333.0,969.0,0.0,0,1698.0,1
1400,1400,-0.007788504724741907,-0.0,1.0,0.0,422.0,870.0,1.0,1,1708.0,0
1401,1401,0.0022740162788875695,0.0,0.0,0.0,437.0,727.0,0.0,1,1686.0,1
1402,1402,-0.32223153750935973,-0.3,0.0,1.0,305.0,728.0,1.0,0,157.0,1
1403,1403,-0.7949380424350243,-0.8,1.0,0.0,427.0,896.0,0.0,0,677.0,1
1404,1404,0.7747320077504519,0.8,1.0,1.0,482.0,809.0,1.0,1,269.0,1
1405,1405,-0.0842037010743083,-0.1,0.0,1.0,315.0,516.0,1.0,0,2169.0,1
1406,1406,0.13562193870765238,0.1,0.0,0.0,397.0,594.0,0.0,1,439.0,1
1407,1407,-0.3265496431112115,-0.3,1.0,0.0,262.0,658.0,0.0,0,500.0,1
1408,1408,-0.5409258601052928,-0.5,1.0,0.0,344.0,881.0,0.0,0,145.0,1
1409,1409,0.7710081942799084,0.8,0.0,0.0,432.0,690.0,0.0,1,158.0,1
1410,1410,0.8773695453864302,0.9,1.0,1.0,412.0,803.0,1.0,1,205.0,1
1411,1411,0.755648517495482,0.8,0.0,0.0,400.0,656.0,0.0,1,314.0,1
1412,1412,0.10175103487710768,0.1,1.0,1.0,331.0,519.0,1.0,1,690.0,1
1413,1413,0.31669858374074955,0.3,1.0,1.0,302.0,574.0,1.0,1,1024.0,1
1414,1414,-0.6486959842028852,-0.6,0.0,1.0,306.0,541.0,1.0,0,253.0,1
1415,1415,0.06402370051324535,0.1,0.0,0.0,382.0,905.0,0.0,1,1713.0,1
1416,1416,0.2331732176874085,0.2,0.0,0.0,477.0,902.0,0.0,1,591.0,1
1417,1417,0.7770539800425421,0.8,1.0,1.0,341.0,922.0,1.0,1,127.0,1
1418,1418,0.0896108564655308,0.1,0.0,0.0,460.0,839.0,0.0,1,1551.0,1
1419,1419,-0.2452459342203105,-0.2,1.0,0.0,254.0,942.0,0.0,0,1304.0,1
1420,1420,0.6099368632241865,0.6,0.0,0.0,412.0,914.0,0.0,1,174.0,1
1421,1421,0.7073208062898589,0.7,0.0,0.0,302.0,673.0,0.0,1,115.0,1
1422,1422,-0.4150389294010001,-0.4,1.0,0.0,332.0,544.0,0.0,0,484.0,1
1423,1423,-0.8496103659396657,-0.8,1.0,0.0,391.0,959.0,0.0,0,210.0,1
1424,1424,0.7671305175391877,0.8,0.0,0.0,481.0,960.0,0.0,1,149.0,1
1425,1425,0.46243113152847004,0.5,1.0,1.0,439.0,775.0,1.0,1,246.0,1
1426,1426,-0.12496124412297938,-0.1,1.0,0.0,435.0,657.0,0.0,0,1908.0,1
1427,1427,0.4595991503870408,0.5,0.0,0.0,283.0,765.0,0.0,1,132.0,1
1428,1428,-0.4072120425107504,-0.4,1.0,0.0,318.0,938.0,0.0,0,374.0,1
1429,1429,0.3873142327207716,0.4,1.0,1.0,314.0,624.0,1.0,1,342.0,1
1430,1430,-0.002211024385108451,-0.0,0.0,1.0,384.0,588.0,0.0,1,1448.0,0
1431,1431,0.16899251266623472,0.2,0.0,0.0,270.0,861.0,0.0,1,1869.0,1
1432,1432,0.18416853070077288,0.2,1.0,1.0,375.0,740.0,1.0,1,665.0,1
1433,1433,-0.7683148357397986,-0.8,0.0,1.0,337.0,510.0,1.0,0,373.0,1
1434,1434,-0.7179591279325782,-0.7,1.0,0.0,333.0,536.0,0.0,0,991.0,1
1435,1435,-0.0639627694242687,-0.1,1.0,0.0,390.0,841.0,0.0,0,1769.0,1
1436,1436,0.14735675736839926,0.1,1.0,1.0,331.0,546.0,1.0,1,413.0,1
1437,1437,-0.7180168238165954,-0.7,0.0,1.0,257.0,911.0,1.0,0,152.0,1
1438,1438,-0.1645335174280821,-0.2,0.0,1.0,463.0,645.0,1.0,0,372.0,1
1439,1439,-0.6994777163912572,-0.7,0.0,1.0,477.0,562.0,1.0,0,221.0,1
1440,1440,-0.8857244734714165,-0.9,0.0,1.0,443.0,796.0,1.0,0,321.0,1
1441,1441,0.20763001536148862,0.2,0.0,0.0,292.0,918.0,0.0,1,660.0,1
1442,1442,0.00912855005035007,0.0,1.0,1.0,499.0,748.0,1.0,1,1753.0,1
1443,1443,-0.7127310828691701,-0.7,0.0,1.0,276.0,855.0,1.0,0,129.0,1
1444,1444,-0.463947048844832,-0.5,0.0,1.0,423.0,727.0,1.0,0,150.0,1
1445,1445,0.1838662331301365,0.2,0.0,0.0,284.0,893.0,0.0,1,613.0,1
1446,1446,-0.15571708901010184,-0.2,1.0,0.0,459.0,962.0,0.0,0,1579.0,1
1447,1447,-0.22026993323373112,-0.2,0.0,1.0,303.0,929.0,1.0,0,658.0,1
1448,1448,-0.8262720461190618,-0.8,1.0,0.0,293.0,654.0,0.0,0,233.0,1
1449,1449,-0.140551845920179,-0.1,1.0,0.0,408.0,839.0,0.0,0,1753.0,1
1450,1450,0.5661175460779907,0.6,0.0,0.0,368.0,707.0,0.0,1,245.0,1
1451,1451,-0.565215257305614,-0.6,1.0,0.0,433.0,682.0,0.0,0,1025.0,1
1452,1452,-0.18297063593934582,-0.2,0.0,1.0,467.0,532.0,1.0,0,421.0,1
1453,1453,-0.4112259403549349,-0.4,0.0,1.0,472.0,595.0,1.0,0,443.0,1
1454,1454,-0.606089117495737,-0.6,0.0,1.0,278.0,551.0,1.0,0,241.0,1
1455,1455,-0.6825387101841325,-0.7,1.0,0.0,469.0,909.0,0.0,0,152.0,1
1456,1456,-0.722575751573713,-0.7,1.0,0.0,479.0,811.0,0.0,0,320.0,1
1457,1457,-0.720929473040782,-0.7,0.0,1.0,314.0,786.0,1.0,0,420.0,1
1458,1458,-0.8115010431222753,-0.8,1.0,0.0,450.0,795.0,0.0,0,1755.0,1
1459,1459,-0.2648683227897465,-0.3,0.0,1.0,350.0,993.0,1.0,0,927.0,1
1460,1460,0.6142057719107094,0.6,1.0,1.0,397.0,735.0,1.0,1,388.0,1
1461,1461,0.2670933313055427,0.3,0.0,0.0,361.0,902.0,0.0,1,637.0,1
1462,1462,0.35670168317646744,0.4,0.0,0.0,474.0,920.0,1.0,0,-274.0,0
1463,1463,0.1046475890581281,0.1,0.0,0.0,396.0,959.0,0.0,1,1645.0,1
1464,1464,-0.011074307438283082,-0.0,1.0,0.0,285.0,953.0,1.0,1,1762.0,0
1465,1465,0.40969812421235063,0.4,0.0,0.0,468.0,804.0,0.0,1,538.0,1
1466,1466,0.7112282977767416,0.7,1.0,1.0,313.0,622.0,1.0,1,225.0,1
1467,1467,0.16417173439461974,0.2,0.0,0.0,385.0,593.0,0.0,1,512.0,1
1468,1468,0.4140927274542484,0.4,0.0,0.0,348.0,541.0,0.0,1,121.0,1
1469,1469,0.7047155518593923,0.7,0.0,0.0,344.0,860.0,0.0,1,206.0,1
1470,1470,0.7734602642977572,0.8,0.0,0.0,462.0,907.0,0.0,1,181.0,1
1471,1471,0.6522055498120501,0.7,0.0,0.0,448.0,583.0,0.0,1,179.0,1
1472,1472,-0.5291293380458424,-0.5,1.0,0.0,325.0,846.0,0.0,0,1459.0,1
1473,1473,-0.7510869264000833,-0.8,0.0,1.0,300.0,616.0,1.0,0,154.0,1
1474,1474,-0.18382009469851968,-0.2,1.0,0.0,274.0,871.0,0.0,0,1195.0,1
1475,1475,-0.6953976630023472,-0.7,1.0,0.0,390.0,746.0,0.0,0,154.0,1
1476,1476,0.33827548134900376,0.3,0.0,0.0,352.0,961.0,0.0,1,277.0,1
1477,1477,0.720417244795099,0.7,1.0,1.0,334.0,602.0,1.0,1,184.0,1
1478,1478,-0.371408024497206,-0.4,0.0,1.0,343.0,711.0,1.0,0,476.0,1
1479,1479,-0.41483644055383306,-0.4,0.0,1.0,276.0,585.0,1.0,0,499.0,1
1480,1480,0.5507165878058974,0.6,0.0,0.0,454.0,570.0,0.0,1,256.0,1
1481,1481,0.05778051960148112,0.1,1.0,1.0,492.0,562.0,1.0,1,996.0,1
1482,1482,0.37833320008895666,0.4,0.0,0.0,304.0,779.0,0.0,1,427.0,1
1483,1483,0.33852277090938887,0.3,1.0,1.0,482.0,788.0,1.0,1,120.0,1
1484,1484,0.24386747924475072,0.2,0.0,0.0,278.0,742.0,0.0,1,810.0,1
1485,1485,-0.7809500257875633,-0.8,1.0,0.0,296.0,958.0,0.0,0,396.0,1
1486,1486,-0.24130121490825884,-0.2,0.0,1.0,463.0,809.0,1.0,0,228.0,1
1487,1487,-0.48129717133805117,-0.5,0.0,1.0,445.0,636.0,1.0,0,269.0,1
1488,1488,-0.15963643436981434,-0.2,1.0,0.0,365.0,882.0,0.0,0,1223.0,1
1489,1489,-0.3194211845160817,-0.3,0.0,1.0,456.0,542.0,1.0,0,342.0,1
1490,1490,-0.6339673409298465,-0.6,0.0,1.0,322.0,687.0,1.0,0,141.0,1
