,trial,coherence,coherence_bin,green_side,correct_side,target_onset,checker_onset,decision,green_decision,decision_time,correct_decision
0,0,-0.7012168493359251,-0.7,1.0,0.0,464.0,681.0,0.0,0,235.0,1
1,1,-0.7170037195118889,-0.7,0.0,1.0,433.0,784.0,1.0,0,673.0,1
2,2,0.3821153359530284,0.4,0.0,0.0,360.0,526.0,0.0,1,1524.0,1
3,3,0.5838623503470749,0.6,0.0,0.0,318.0,850.0,0.0,1,622.0,1
4,4,-0.6184601255704374,-0.6,0.0,1.0,262.0,911.0,0.0,1,-173.0,0
5,5,0.6371119862962552,0.6,0.0,0.0,481.0,704.0,0.0,1,375.0,1
6,6,-0.3502392654416264,-0.4,1.0,0.0,364.0,660.0,0.0,0,1356.0,1
7,7,0.7557784650908937,0.8,1.0,1.0,396.0,895.0,1.0,1,349.0,1
8,8,-0.1894317348605904,-0.2,1.0,0.0,331.0,612.0,0.0,0,387.0,1
9,9,0.47327602364743104,0.5,1.0,1.0,398.0,714.0,1.0,1,198.0,1
10,10,0.7434282930069419,0.7,0.0,0.0,493.0,885.0,0.0,1,272.0,1
11,11,-0.24363450911302553,-0.2,1.0,0.0,392.0,749.0,0.0,0,589.0,1
12,12,-0.6485584430305926,-0.6,1.0,0.0,313.0,666.0,0.0,0,241.0,1
13,13,0.44397504657963915,0.4,0.0,0.0,300.0,712.0,0.0,1,188.0,1
14,14,0.22601549471032378,0.2,0.0,0.0,441.0,616.0,0.0,1,463.0,1
15,15,-0.7193923343437587,-0.7,1.0,0.0,432.0,811.0,0.0,0,267.0,1
16,16,-0.8667839010061446,-0.9,1.0,0.0,440.0,914.0,0.0,0,396.0,1
17,17,0.3003805952847426,0.3,0.0,0.0,330.0,839.0,0.0,1,541.0,1
18,18,0.21993518076494312,0.2,1.0,1.0,486.0,528.0,1.0,1,1496.0,1
19,19,-0.16356772201516545,-0.2,1.0,0.0,320.0,716.0,0.0,0,954.0,1
20,20,0.6073165400218256,0.6,1.0,1.0,380.0,673.0,1.0,1,237.0,1
21,21,0.5910802867567967,0.6,0.0,0.0,388.0,588.0,0.0,1,354.0,1
22,22,-0.36582478992270717,-0.4,1.0,0.0,340.0,953.0,1.0,1,-153.0,0
23,23,-0.29460685631210537,-0.3,0.0,1.0,392.0,512.0,1.0,0,756.0,1
24,24,0.8899237832609784,0.9,0.0,0.0,412.0,799.0,0.0,1,429.0,1
25,25,-0.39512328082649006,-0.4,0.0,1.0,412.0,662.0,1.0,0,1316.0,1
26,26,-0.8975761117066986,-0.9,1.0,0.0,486.0,634.0,0.0,0,180.0,1
27,27,-0.5705033022733325,-0.6,0.0,1.0,468.0,854.0,1.0,0,368.0,1
28,28,0.6679838535207486,0.7,1.0,1.0,253.0,537.0,1.0,1,380.0,1
29,29,0.4433069858025226,0.4,0.0,0.0,393.0,640.0,0.0,1,337.0,1
30,30,0.815173941835701,0.8,0.0,0.0,480.0,866.0,0.0,1,184.0,1
31,31,-0.5727352430363054,-0.6,1.0,0.0,441.0,815.0,0.0,0,524.0,1
32,32,0.06817931977378311,0.1,1.0,1.0,455.0,955.0,1.0,1,1090.0,1
33,33,0.6991349858445687,0.7,1.0,1.0,495.0,799.0,1.0,1,-174.0,1
34,34,-0.828090126749727,-0.8,0.0,1.0,407.0,868.0,1.0,0,405.0,1
35,35,-0.5308723915788045,-0.5,0.0,1.0,256.0,740.0,1.0,0,354.0,1
36,36,-0.508921982299784,-0.5,0.0,1.0,313.0,804.0,1.0,0,3883.0,1
37,37,-0.6486849178534733,-0.6,1.0,0.0,400.0,920.0,0.0,0,70.0,1
38,38,-0.31439217324890334,-0.3,1.0,0.0,456.0,932.0,0.0,0,962.0,1
39,39,-0.4434083236421245,-0.4,0.0,1.0,487.0,891.0,1.0,0,3622.0,1
40,40,-0.5626873742469165,-0.6,0.0,1.0,369.0,787.0,1.0,0,144.0,1
41,41,0.8017803166067333,0.8,0.0,0.0,428.0,683.0,0.0,1,319.0,1
42,42,-0.2662828660988311,-0.3,0.0,1.0,335.0,747.0,1.0,0,2488.0,1
43,43,0.30346366585437845,0.3,0.0,0.0,486.0,873.0,0.0,1,531.0,1
44,44,-0.5804312766859991,-0.6,0.0,1.0,280.0,666.0,1.0,0,574.0,1
45,45,-0.8170091375535452,-0.8,1.0,0.0,342.0,721.0,0.0,0,377.0,1
46,46,-0.44833927392895706,-0.4,0.0,1.0,291.0,912.0,1.0,0,307.0,1
47,47,0.7783052102552072,0.8,1.0,1.0,457.0,579.0,1.0,1,134.0,1
48,48,-0.24264298674744444,-0.2,0.0,1.0,484.0,735.0,1.0,0,1371.0,1
49,49,-0.860481548893045,-0.9,0.0,1.0,321.0,681.0,1.0,0,268.0,1
50,50,-0.4010649214558776,-0.4,0.0,1.0,457.0,838.0,1.0,0,615.0,1
51,51,-0.6998255015252052,-0.7,1.0,0.0,426.0,930.0,0.0,0,214.0,1
52,52,-0.023234339282769967,-0.0,1.0,0.0,279.0,893.0,0.0,0,3828.0,1
53,53,0.7659055120209953,0.8,0.0,0.0,346.0,928.0,0.0,1,-364.0,1
54,54,0.6268421795881415,0.6,1.0,1.0,361.0,661.0,1.0,1,468.0,1
55,55,0.2640610033025058,0.3,1.0,1.0,262.0,857.0,1.0,1,111.0,1
56,56,0.38152554773367064,0.4,0.0,0.0,255.0,531.0,0.0,1,264.0,1
57,57,-0.6061022411076129,-0.6,0.0,1.0,401.0,768.0,1.0,0,391.0,1
58,58,0.10837381114584554,0.1,1.0,1.0,462.0,946.0,1.0,1,912.0,1
59,59,-0.4514080847388082,-0.5,0.0,1.0,263.0,977.0,1.0,0,1050.0,1
60,60,0.17255503940422756,0.2,0.0,0.0,388.0,992.0,0.0,1,1640.0,1
61,61,-0.4579066098370759,-0.5,1.0,0.0,475.0,848.0,0.0,0,637.0,1
62,62,0.6851090138950763,0.7,1.0,1.0,479.0,521.0,1.0,1,-230.0,1
63,63,0.6116606779459454,0.6,1.0,1.0,348.0,885.0,1.0,1,437.0,1
64,64,0.11512911893197841,0.1,1.0,1.0,324.0,918.0,1.0,1,1428.0,1
65,65,0.03653277355578155,0.0,0.0,0.0,467.0,928.0,0.0,1,2645.0,1
66,66,-0.5177202865520159,-0.5,1.0,0.0,252.0,758.0,0.0,0,860.0,1
67,67,0.8342980625503974,0.8,0.0,0.0,358.0,710.0,0.0,1,82.0,1
68,68,0.10806573286588239,0.1,1.0,1.0,301.0,849.0,1.0,1,770.0,1
69,69,0.5736388072433926,0.6,1.0,1.0,460.0,860.0,1.0,1,180.0,1
70,70,-0.10853007822475846,-0.1,0.0,1.0,477.0,615.0,1.0,0,458.0,1
71,71,0.2347150997518307,0.2,0.0,0.0,382.0,917.0,0.0,1,611.0,1
72,72,0.7552430222279297,0.8,0.0,0.0,474.0,885.0,0.0,1,541.0,1
73,73,0.8067657449527631,0.8,1.0,1.0,419.0,653.0,1.0,1,398.0,1
74,74,-0.8353966378372967,-0.8,1.0,0.0,496.0,718.0,0.0,0,386.0,1
75,75,0.2139036758131344,0.2,1.0,1.0,362.0,628.0,1.0,1,1050.0,1
76,76,-0.8082228907467907,-0.8,1.0,0.0,488.0,867.0,0.0,0,165.0,1
77,77,0.2379972255403099,0.2,0.0,0.0,278.0,720.0,0.0,1,352.0,1
78,78,0.6091101627737946,0.6,1.0,1.0,391.0,915.0,1.0,1,164.0,1
79,79,0.23176905118849056,0.2,1.0,1.0,310.0,523.0,1.0,1,1357.0,1
80,80,0.3115946568923792,0.3,1.0,1.0,463.0,686.0,1.0,1,671.0,1
81,81,-0.11326007228292168,-0.1,0.0,1.0,351.0,919.0,1.0,0,2850.0,1
82,82,0.3364423987302064,0.3,1.0,1.0,446.0,997.0,1.0,1,397.0,1
83,83,-0.8810446458459631,-0.9,1.0,0.0,489.0,667.0,0.0,0,214.0,1
84,84,0.27634197098991164,0.3,0.0,0.0,474.0,523.0,0.0,1,393.0,1
85,85,0.350430766141948,0.4,0.0,0.0,322.0,543.0,0.0,1,535.0,1
86,86,0.19939319445338566,0.2,0.0,0.0,391.0,685.0,0.0,1,844.0,1
87,87,0.4612554354092381,0.5,0.0,0.0,432.0,956.0,0.0,1,592.0,1
88,88,-0.4173701963875449,-0.4,0.0,1.0,393.0,986.0,1.0,0,541.0,1
89,89,0.3203894944728728,0.3,0.0,0.0,375.0,900.0,0.0,1,935.0,1
90,90,-0.25347259469887384,-0.3,1.0,0.0,307.0,601.0,0.0,0,662.0,1
91,91,0.22746325672512901,0.2,1.0,1.0,304.0,915.0,1.0,1,261.0,1
92,92,-0.757725698456614,-0.8,1.0,0.0,301.0,881.0,0.0,0,578.0,1
93,93,0.7377435051001241,0.7,1.0,1.0,435.0,714.0,1.0,1,641.0,1
94,94,-0.3663334562654479,-0.4,1.0,0.0,397.0,897.0,0.0,0,556.0,1
95,95,-0.6627157951193426,-0.7,0.0,1.0,280.0,860.0,1.0,0,130.0,1
96,96,0.7234919713906244,0.7,1.0,1.0,360.0,870.0,1.0,1,-50.0,1
97,97,0.7187023603613957,0.7,0.0,0.0,276.0,828.0,0.0,1,536.0,1
98,98,-0.2955104218959921,-0.3,1.0,0.0,421.0,530.0,0.0,0,839.0,1
99,99,-0.4877045344459675,-0.5,1.0,0.0,294.0,591.0,0.0,0,895.0,1
100,100,-0.6726860974971828,-0.7,0.0,1.0,264.0,940.0,1.0,0,166.0,1
101,101,-0.17023901634618133,-0.2,1.0,0.0,405.0,847.0,0.0,0,1268.0,1
102,102,0.4820801648148879,0.5,0.0,0.0,254.0,863.0,0.0,1,653.0,1
103,103,0.21461462253379027,0.2,1.0,1.0,347.0,717.0,1.0,1,836.0,1
104,104,0.3636955034295438,0.4,0.0,0.0,418.0,682.0,0.0,1,370.0,1
105,105,0.16874521862484027,0.2,0.0,0.0,478.0,628.0,0.0,1,2014.0,1
106,106,0.4848113968966751,0.5,1.0,1.0,490.0,597.0,1.0,1,473.0,1
107,107,-0.7867463591841583,-0.8,0.0,1.0,433.0,614.0,1.0,0,233.0,1
108,108,-0.6527257011536007,-0.7,0.0,1.0,262.0,604.0,1.0,0,4134.0,1
109,109,-0.19811405607785726,-0.2,0.0,1.0,483.0,706.0,1.0,0,1621.0,1
110,110,0.14865529608509653,0.1,0.0,0.0,352.0,803.0,0.0,1,1315.0,1
111,111,0.12342925890464829,0.1,1.0,1.0,498.0,501.0,1.0,1,2351.0,1
112,112,-0.030135721545537897,-0.0,1.0,0.0,300.0,758.0,1.0,1,1832.0,0
113,113,0.4333956198197991,0.4,0.0,0.0,281.0,546.0,0.0,1,413.0,1
114,114,-0.5354859853362655,-0.5,0.0,1.0,484.0,961.0,1.0,0,515.0,1
115,115,-0.19891115583794894,-0.2,1.0,0.0,445.0,605.0,0.0,0,900.0,1
116,116,0.3074278853223321,0.3,1.0,1.0,291.0,778.0,1.0,1,771.0,1
117,117,0.008871019030235905,0.0,0.0,0.0,334.0,947.0,1.0,0,-331.0,0
118,118,-0.6936103449978519,-0.7,0.0,1.0,321.0,511.0,1.0,0,268.0,1
119,119,-0.4120098135898284,-0.4,1.0,0.0,349.0,841.0,0.0,0,620.0,1
120,120,0.5813214138013368,0.6,1.0,1.0,309.0,948.0,1.0,1,613.0,1
121,121,0.02887941357605439,0.0,0.0,0.0,300.0,806.0,0.0,1,3894.0,1
122,122,0.0553948684657487,0.1,0.0,0.0,273.0,745.0,0.0,1,2742.0,1
123,123,-0.07207612201119495,-0.1,0.0,1.0,286.0,587.0,1.0,0,4127.0,1
124,124,-0.6531500610900609,-0.7,0.0,1.0,350.0,811.0,1.0,0,139.0,1
125,125,-0.5541787281682609,-0.6,0.0,1.0,338.0,712.0,1.0,0,420.0,1
126,126,0.07420711662137225,0.1,1.0,1.0,469.0,598.0,1.0,1,1363.0,1
127,127,-0.7510860260607635,-0.8,1.0,0.0,492.0,757.0,0.0,0,331.0,1
128,128,0.08288330797990684,0.1,0.0,0.0,485.0,972.0,0.0,1,3543.0,1
129,129,0.18512875404353923,0.2,0.0,0.0,351.0,744.0,0.0,1,2495.0,1
130,130,-0.446904105629602,-0.4,1.0,0.0,497.0,937.0,0.0,0,676.0,1
131,131,-0.09248633674952422,-0.1,0.0,1.0,420.0,900.0,1.0,0,120.0,1
132,132,-0.5097716705795812,-0.5,0.0,1.0,497.0,667.0,1.0,0,3836.0,1
133,133,-0.18017155825694853,-0.2,1.0,0.0,460.0,854.0,0.0,0,2006.0,1
134,134,0.7621001409426903,0.8,1.0,1.0,259.0,510.0,1.0,1,361.0,1
135,135,-0.3625760559758304,-0.4,0.0,1.0,393.0,942.0,1.0,0,255.0,1
136,136,0.5808700762429314,0.6,0.0,0.0,408.0,864.0,0.0,1,438.0,1
137,137,-0.13564852644663927,-0.1,0.0,1.0,352.0,975.0,1.0,0,1903.0,1
138,138,-0.4680527509177737,-0.5,1.0,0.0,298.0,614.0,0.0,0,1038.0,1
139,139,-0.8256802787230312,-0.8,0.0,1.0,260.0,742.0,1.0,0,3998.0,1
140,140,0.8263789687984201,0.8,0.0,0.0,251.0,512.0,0.0,1,227.0,1
141,141,0.20778416688646806,0.2,1.0,1.0,424.0,925.0,1.0,1,1271.0,1
142,142,0.11381484243817164,0.1,0.0,0.0,256.0,695.0,0.0,1,369.0,1
143,143,-0.1394771438702156,-0.1,1.0,0.0,443.0,675.0,0.0,0,2392.0,1
144,144,0.7068677070178527,0.7,0.0,0.0,267.0,559.0,0.0,1,324.0,1
145,145,0.41602766678426184,0.4,0.0,0.0,308.0,658.0,0.0,1,674.0,1
146,146,-0.20917785398713185,-0.2,0.0,1.0,265.0,749.0,1.0,0,486.0,1
147,147,-0.7716060476361604,-0.8,1.0,0.0,499.0,569.0,0.0,0,352.0,1
148,148,-0.39501679775325793,-0.4,0.0,1.0,261.0,933.0,1.0,0,96.0,1
149,149,-0.5683622720470025,-0.6,0.0,1.0,481.0,845.0,1.0,0,414.0,1
150,150,-0.4623093184996226,-0.5,0.0,1.0,390.0,796.0,1.0,0,424.0,1
151,151,-0.6398136878690233,-0.6,1.0,0.0,428.0,786.0,0.0,0,206.0,1
152,152,-0.8366052942357859,-0.8,1.0,0.0,271.0,789.0,0.0,0,240.0,1
153,153,-0.579066032946093,-0.6,0.0,1.0,469.0,998.0,1.0,0,243.0,1
154,154,0.8031271564378811,0.8,1.0,1.0,479.0,814.0,1.0,1,297.0,1
155,155,-0.751571198521813,-0.8,0.0,1.0,364.0,575.0,1.0,0,271.0,1
156,156,-0.0480408434852202,-0.0,1.0,0.0,434.0,978.0,1.0,1,-182.0,0
157,157,0.11907029060772112,0.1,1.0,1.0,441.0,667.0,1.0,1,1462.0,1
158,158,-0.45442411433052904,-0.5,1.0,0.0,272.0,791.0,0.0,0,557.0,1
159,159,-0.6652225957883757,-0.7,1.0,0.0,438.0,747.0,0.0,0,345.0,1
160,160,-0.4519049631294363,-0.5,1.0,0.0,394.0,821.0,0.0,0,475.0,1
161,161,0.7979859176909624,0.8,0.0,0.0,433.0,751.0,0.0,1,516.0,1
162,162,-0.15125868606324777,-0.2,1.0,0.0,375.0,663.0,0.0,0,3652.0,1
163,163,-0.661127104924894,-0.7,1.0,0.0,264.0,908.0,0.0,0,448.0,1
164,164,0.5851398394248374,0.6,0.0,0.0,490.0,948.0,0.0,1,322.0,1
165,165,0.2666014668182338,0.3,0.0,0.0,301.0,905.0,0.0,1,334.0,1
166,166,0.211207715625079,0.2,0.0,0.0,354.0,724.0,0.0,1,402.0,1
167,167,-0.5393849904889672,-0.5,0.0,1.0,444.0,628.0,1.0,0,528.0,1
168,168,0.8293153016464437,0.8,1.0,1.0,299.0,546.0,1.0,1,505.0,1
169,169,-0.2817719877683459,-0.3,1.0,0.0,317.0,945.0,0.0,0,1288.0,1
170,170,-0.7628519989522968,-0.8,0.0,1.0,347.0,523.0,1.0,0,260.0,1
171,171,0.222027844077901,0.2,0.0,0.0,357.0,830.0,0.0,1,623.0,1
172,172,-0.4239661304846538,-0.4,1.0,0.0,458.0,542.0,0.0,0,820.0,1
173,173,-0.6895966521417913,-0.7,1.0,0.0,492.0,833.0,0.0,0,605.0,1
174,174,0.8999054304138662,0.9,0.0,0.0,296.0,735.0,0.0,1,249.0,1
175,175,-0.5272974997728391,-0.5,1.0,0.0,470.0,672.0,0.0,0,688.0,1
176,176,-0.8364166495756378,-0.8,0.0,1.0,293.0,744.0,1.0,0,143.0,1
177,177,-0.2727346192066721,-0.3,0.0,1.0,388.0,970.0,1.0,0,1212.0,1
178,178,0.10399954738815331,0.1,1.0,1.0,309.0,583.0,1.0,1,2338.0,1
179,179,-0.20016974790517938,-0.2,1.0,0.0,490.0,950.0,0.0,0,930.0,1
180,180,-0.712419170477546,-0.7,1.0,0.0,387.0,950.0,0.0,0,273.0,1
181,181,0.32852410002894195,0.3,1.0,1.0,378.0,719.0,1.0,1,403.0,1
182,182,0.10558794274717742,0.1,1.0,1.0,333.0,634.0,1.0,1,3233.0,1
183,183,0.5858279223314512,0.6,1.0,1.0,342.0,800.0,1.0,1,208.0,1
184,184,-0.8391553505181834,-0.8,1.0,0.0,451.0,824.0,0.0,0,265.0,1
185,185,0.13659635182229846,0.1,1.0,1.0,393.0,986.0,1.0,1,661.0,1
186,186,-0.8001813162495881,-0.8,0.0,1.0,296.0,611.0,1.0,0,363.0,1
187,187,-0.6512894533482481,-0.7,1.0,0.0,294.0,741.0,0.0,0,355.0,1
188,188,0.5848426498002989,0.6,1.0,1.0,324.0,882.0,1.0,1,214.0,1
189,189,-0.3444457259826199,-0.3,1.0,0.0,476.0,653.0,0.0,0,941.0,1
190,190,-0.2248827810300139,-0.2,0.0,1.0,490.0,605.0,1.0,0,755.0,1
191,191,-0.5283343333446813,-0.5,1.0,0.0,440.0,932.0,0.0,0,378.0,1
192,192,-0.5518245823862993,-0.6,1.0,0.0,404.0,913.0,0.0,0,403.0,1
193,193,-0.23854133702758518,-0.2,0.0,1.0,465.0,697.0,1.0,0,788.0,1
194,194,-0.35109507784314464,-0.4,1.0,0.0,404.0,547.0,0.0,0,809.0,1
195,195,-0.3606603283317522,-0.4,0.0,1.0,276.0,968.0,1.0,0,376.0,1
196,196,-0.17490619816058806,-0.2,1.0,0.0,275.0,719.0,0.0,0,1356.0,1
197,197,0.3495077797640477,0.3,0.0,0.0,399.0,668.0,0.0,1,1033.0,1
198,198,0.6276679342377914,0.6,1.0,1.0,380.0,832.0,1.0,1,358.0,1
199,199,0.7744918246362921,0.8,1.0,1.0,370.0,803.0,1.0,1,357.0,1
200,200,-0.7345915845848884,-0.7,1.0,0.0,303.0,716.0,0.0,0,311.0,1
201,201,0.8331962042820357,0.8,0.0,0.0,445.0,966.0,0.0,1,169.0,1
202,202,0.49623617314681134,0.5,0.0,0.0,374.0,548.0,0.0,1,198.0,1
203,203,-0.8480335604540976,-0.8,1.0,0.0,475.0,880.0,0.0,0,365.0,1
204,204,0.5627839747986777,0.6,0.0,0.0,431.0,626.0,0.0,1,293.0,1
205,205,0.3861136376888795,0.4,0.0,0.0,372.0,717.0,0.0,1,461.0,1
206,206,0.04545866618230632,0.0,0.0,0.0,377.0,809.0,1.0,0,2874.0,0
207,207,0.0735125058130478,0.1,0.0,0.0,407.0,972.0,0.0,1,471.0,1
208,208,0.5299656971547547,0.5,0.0,0.0,483.0,941.0,0.0,1,316.0,1
209,209,-0.786492289832526,-0.8,1.0,0.0,282.0,648.0,0.0,0,370.0,1
210,210,0.47467933395770034,0.5,1.0,1.0,374.0,873.0,1.0,1,273.0,1
211,211,0.18288777316544025,0.2,0.0,0.0,463.0,675.0,0.0,1,612.0,1
212,212,-0.5119087648975735,-0.5,0.0,1.0,341.0,706.0,1.0,0,1013.0,1
213,213,0.8402251128008656,0.8,0.0,0.0,400.0,558.0,0.0,1,152.0,1
214,214,0.14919613164840395,0.1,0.0,0.0,456.0,788.0,0.0,1,3286.0,1
215,215,-0.389582450466998,-0.4,1.0,0.0,497.0,503.0,0.0,0,490.0,1
216,216,-0.8759262775282072,-0.9,0.0,1.0,353.0,836.0,1.0,0,81.0,1
217,217,-0.010640374669359298,-0.0,1.0,0.0,405.0,930.0,1.0,1,-285.0,0
218,218,0.5093634903855918,0.5,0.0,0.0,378.0,852.0,0.0,1,850.0,1
219,219,-0.17702349248093352,-0.2,1.0,0.0,428.0,546.0,0.0,0,1626.0,1
220,220,-0.07253669734144497,-0.1,1.0,0.0,397.0,923.0,0.0,0,3320.0,1
221,221,0.8647794529992164,0.9,1.0,1.0,481.0,514.0,1.0,1,505.0,1
222,222,0.7518106728549973,0.8,1.0,1.0,399.0,631.0,1.0,1,500.0,1
223,223,0.6316207614200521,0.6,1.0,1.0,464.0,937.0,1.0,1,479.0,1
224,224,-0.48177470506136405,-0.5,0.0,1.0,270.0,847.0,1.0,0,1003.0,1
225,225,0.539913002641511,0.5,1.0,1.0,250.0,752.0,1.0,1,278.0,1
226,226,-0.4282458716726197,-0.4,1.0,0.0,363.0,611.0,0.0,0,336.0,1
227,227,0.18096836134243144,0.2,0.0,0.0,300.0,589.0,0.0,1,741.0,1
228,228,0.13949251721580247,0.1,0.0,0.0,364.0,976.0,0.0,1,120.0,1
229,229,0.16289823486273247,0.2,0.0,0.0,367.0,957.0,0.0,1,876.0,1
230,230,-0.62190002984298,-0.6,1.0,0.0,298.0,888.0,0.0,0,524.0,1
231,231,-0.45428136839057653,-0.5,0.0,1.0,460.0,589.0,1.0,0,291.0,1
232,232,0.8954102570181034,0.9,1.0,1.0,372.0,729.0,1.0,1,279.0,1
233,233,-0.07696248475820355,-0.1,0.0,1.0,367.0,664.0,1.0,0,2099.0,1
234,234,0.5739951147837264,0.6,0.0,0.0,431.0,745.0,0.0,1,354.0,1
235,235,0.4889202404092482,0.5,1.0,1.0,454.0,908.0,1.0,1,128.0,1
236,236,-0.2527803611811481,-0.3,1.0,0.0,387.0,566.0,0.0,0,547.0,1
237,237,0.5977470494797795,0.6,1.0,1.0,286.0,546.0,0.0,0,-92.0,0
238,238,-0.7465836678350364,-0.7,1.0,0.0,363.0,582.0,0.0,0,225.0,1
239,239,0.15234068166909298,0.2,1.0,1.0,434.0,600.0,1.0,1,836.0,1
240,240,0.8823010190628605,0.9,0.0,0.0,278.0,641.0,0.0,1,121.0,1
241,241,-0.6337100885276885,-0.6,1.0,0.0,448.0,564.0,0.0,0,198.0,1
242,242,0.6753820668012623,0.7,0.0,0.0,482.0,866.0,0.0,1,272.0,1
243,243,-0.15845569482788358,-0.2,0.0,1.0,302.0,535.0,1.0,0,683.0,1
244,244,0.8032141398837843,0.8,0.0,0.0,412.0,507.0,0.0,1,211.0,1
245,245,0.7623211002625173,0.8,0.0,0.0,319.0,839.0,0.0,1,232.0,1
246,246,-0.4825463236287164,-0.5,1.0,0.0,498.0,986.0,0.0,0,686.0,1
247,247,-0.46018115250952596,-0.5,1.0,0.0,343.0,631.0,0.0,0,566.0,1
248,248,-0.620169107190137,-0.6,0.0,1.0,274.0,757.0,1.0,0,1219.0,1
249,249,-0.8885377497132252,-0.9,0.0,1.0,281.0,541.0,1.0,0,248.0,1
250,250,0.3495862157061306,0.3,1.0,1.0,341.0,956.0,1.0,1,213.0,1
251,251,-0.5163715052058088,-0.5,1.0,0.0,431.0,897.0,0.0,0,472.0,1
252,252,-0.21209330247951297,-0.2,0.0,1.0,472.0,571.0,1.0,0,857.0,1
253,253,-0.6096562079109145,-0.6,0.0,1.0,408.0,649.0,1.0,0,283.0,1
254,254,-0.8510446828666101,-0.9,0.0,1.0,356.0,912.0,1.0,0,262.0,1
255,255,-0.47354013836358494,-0.5,1.0,0.0,290.0,657.0,0.0,0,693.0,1
256,256,0.47217068921541305,0.5,0.0,0.0,384.0,800.0,0.0,1,316.0,1
257,257,0.4696997552298078,0.5,1.0,1.0,483.0,548.0,1.0,1,409.0,1
258,258,-0.7814099935270755,-0.8,1.0,0.0,316.0,818.0,0.0,0,536.0,1
259,259,0.32205471501813554,0.3,0.0,0.0,333.0,615.0,0.0,1,832.0,1
260,260,-0.13154973081363275,-0.1,1.0,0.0,331.0,551.0,0.0,0,778.0,1
261,261,-0.5575884191298572,-0.6,1.0,0.0,425.0,995.0,0.0,0,390.0,1
262,262,-0.5564255186560976,-0.6,0.0,1.0,323.0,627.0,1.0,0,360.0,1
263,263,0.6207455642590723,0.6,0.0,0.0,430.0,777.0,0.0,1,393.0,1
264,264,-0.8622461937836292,-0.9,0.0,1.0,474.0,834.0,1.0,0,562.0,1
265,265,-0.06048491446027349,-0.1,1.0,0.0,305.0,851.0,0.0,0,3844.0,1
266,266,-0.20237548631936342,-0.2,1.0,0.0,278.0,559.0,0.0,0,1553.0,1
267,267,0.618901521557062,0.6,0.0,0.0,282.0,891.0,0.0,1,317.0,1
268,268,-0.0021441119849006096,-0.0,1.0,0.0,405.0,518.0,1.0,1,1417.0,0
269,269,0.1468119185388289,0.1,0.0,0.0,313.0,573.0,0.0,1,1954.0,1
270,270,-0.7797664750372583,-0.8,1.0,0.0,324.0,950.0,0.0,0,286.0,1
271,271,-0.6955239280729493,-0.7,1.0,0.0,278.0,985.0,0.0,0,257.0,1
272,272,0.13151500074791345,0.1,0.0,0.0,369.0,598.0,0.0,1,2383.0,1
273,273,-0.10457657635463691,-0.1,0.0,1.0,404.0,556.0,1.0,0,3870.0,1
274,274,0.5134670977499826,0.5,0.0,0.0,338.0,623.0,0.0,1,289.0,1
275,275,-0.09381461854537265,-0.1,1.0,0.0,388.0,907.0,0.0,0,955.0,1
276,276,0.4868009319372829,0.5,1.0,1.0,369.0,990.0,1.0,1,381.0,1
277,277,-0.4404637722286695,-0.4,1.0,0.0,300.0,970.0,0.0,0,860.0,1
278,278,0.07143520555497562,0.1,0.0,0.0,300.0,781.0,1.0,0,3919.0,0
279,279,0.12484821309182037,0.1,1.0,1.0,351.0,616.0,1.0,1,363.0,1
280,280,0.18391113221250566,0.2,1.0,1.0,380.0,533.0,1.0,1,1447.0,1
281,281,0.03352023772081303,0.0,1.0,1.0,368.0,631.0,1.0,1,4001.0,1
282,282,0.4146768767521051,0.4,1.0,1.0,428.0,875.0,1.0,1,387.0,1
283,283,-0.28975636722281417,-0.3,0.0,1.0,368.0,616.0,1.0,0,716.0,1
284,284,0.3272629792329328,0.3,0.0,0.0,330.0,623.0,0.0,1,477.0,1
285,285,0.8301895355177137,0.8,1.0,1.0,403.0,923.0,1.0,1,104.0,1
286,286,0.4961543220729564,0.5,1.0,1.0,326.0,976.0,1.0,1,-332.0,1
287,287,-0.6340813531612182,-0.6,1.0,0.0,260.0,588.0,0.0,0,252.0,1
288,288,0.7187911493201499,0.7,1.0,1.0,431.0,596.0,1.0,1,603.0,1
289,289,-0.8016653290546294,-0.8,1.0,0.0,353.0,973.0,0.0,0,264.0,1
290,290,-0.4677739965488434,-0.5,0.0,1.0,316.0,758.0,1.0,0,636.0,1
291,291,-0.5220211226923949,-0.5,0.0,1.0,273.0,965.0,1.0,0,242.0,1
292,292,0.4122584621203732,0.4,0.0,0.0,463.0,878.0,0.0,1,649.0,1
293,293,-0.6338772361106113,-0.6,1.0,0.0,319.0,651.0,0.0,0,650.0,1
294,294,-0.7837934848801761,-0.8,0.0,1.0,389.0,780.0,1.0,0,201.0,1
295,295,0.1766337116965685,0.2,0.0,0.0,312.0,560.0,0.0,1,1618.0,1
296,296,-0.8711136201228307,-0.9,1.0,0.0,464.0,861.0,0.0,0,145.0,1
297,297,0.06137917486586819,0.1,0.0,0.0,454.0,862.0,0.0,1,3684.0,1
298,298,-0.3466951198673567,-0.3,1.0,0.0,458.0,901.0,0.0,0,1221.0,1
299,299,-0.4753168388246158,-0.5,1.0,0.0,371.0,834.0,0.0,0,325.0,1
300,300,0.5328108711293108,0.5,0.0,0.0,366.0,845.0,0.0,1,289.0,1
301,301,0.7277157987463995,0.7,1.0,1.0,436.0,601.0,1.0,1,323.0,1
302,302,0.5537462828732115,0.6,0.0,0.0,421.0,908.0,0.0,1,401.0,1
303,303,-0.7831883404384548,-0.8,0.0,1.0,426.0,692.0,1.0,0,1062.0,1
304,304,0.33711783774686255,0.3,0.0,0.0,276.0,642.0,0.0,1,492.0,1
305,305,-0.30782693583438103,-0.3,1.0,0.0,318.0,898.0,0.0,0,744.0,1
306,306,-0.3966530345371657,-0.4,0.0,1.0,265.0,862.0,1.0,0,1193.0,1
307,307,0.7563279793831629,0.8,1.0,1.0,415.0,977.0,1.0,1,328.0,1
308,308,-0.04982490348863622,-0.0,1.0,0.0,304.0,790.0,0.0,0,3906.0,1
309,309,-0.18592040459061854,-0.2,1.0,0.0,326.0,641.0,0.0,0,773.0,1
310,310,-0.22541578843892185,-0.2,0.0,1.0,383.0,590.0,1.0,0,1787.0,1
311,311,-0.3821805941556786,-0.4,1.0,0.0,289.0,737.0,0.0,0,424.0,1
312,312,0.7026083506935016,0.7,0.0,0.0,339.0,748.0,0.0,1,293.0,1
313,313,-0.2362141393168532,-0.2,1.0,0.0,369.0,563.0,0.0,0,668.0,1
314,314,0.5756632849265811,0.6,0.0,0.0,322.0,886.0,1.0,0,-218.0,0
315,315,-0.1953152493986441,-0.2,1.0,0.0,456.0,694.0,0.0,0,1000.0,1
316,316,0.7530063153120178,0.8,1.0,1.0,333.0,761.0,1.0,1,926.0,1
317,317,-0.004492569078347497,-0.0,0.0,1.0,469.0,854.0,1.0,0,3207.0,1
318,318,0.7462471992803589,0.7,0.0,0.0,359.0,763.0,0.0,1,168.0,1
319,319,0.5802749003322519,0.6,0.0,0.0,336.0,854.0,0.0,1,460.0,1
320,320,0.12742229881922051,0.1,0.0,0.0,423.0,861.0,0.0,1,556.0,1
321,321,-0.2327785347134026,-0.2,0.0,1.0,309.0,966.0,1.0,0,305.0,1
322,322,0.801455152429645,0.8,1.0,1.0,467.0,989.0,1.0,1,314.0,1
323,323,0.39280541476646647,0.4,1.0,1.0,373.0,525.0,1.0,1,392.0,1
324,324,0.15646208112210747,0.2,1.0,1.0,446.0,982.0,1.0,1,752.0,1
325,325,0.6991201337528264,0.7,0.0,0.0,479.0,978.0,0.0,1,293.0,1
326,326,0.22109009600985907,0.2,0.0,0.0,368.0,797.0,0.0,1,965.0,1
327,327,0.487551489444385,0.5,0.0,0.0,328.0,507.0,0.0,1,805.0,1
328,328,0.4352946334202038,0.4,0.0,0.0,439.0,596.0,0.0,1,775.0,1
329,329,-0.19519649306681452,-0.2,0.0,1.0,446.0,582.0,1.0,0,1492.0,1
330,330,-0.6925848762076483,-0.7,0.0,1.0,318.0,515.0,1.0,0,4167.0,1
331,331,0.4674486856176564,0.5,0.0,0.0,326.0,619.0,0.0,1,245.0,1
332,332,-0.1723048340301454,-0.2,1.0,0.0,327.0,849.0,0.0,0,1654.0,1
333,333,0.05931882057647264,0.1,1.0,1.0,446.0,854.0,1.0,1,3300.0,1
334,334,-0.8559079022058241,-0.9,0.0,1.0,433.0,722.0,1.0,0,475.0,1
335,335,-0.589729529806075,-0.6,1.0,0.0,344.0,572.0,0.0,0,254.0,1
336,336,-0.6380812934413884,-0.6,0.0,1.0,322.0,541.0,1.0,0,727.0,1
337,337,0.4034820907208171,0.4,0.0,0.0,284.0,822.0,0.0,1,784.0,1
338,338,0.22848465485998448,0.2,1.0,1.0,319.0,876.0,1.0,1,935.0,1
339,339,0.2973097631786029,0.3,0.0,0.0,419.0,991.0,1.0,0,-350.0,0
340,340,0.42243100551314205,0.4,1.0,1.0,332.0,666.0,1.0,1,2522.0,1
341,341,0.37684288382674025,0.4,1.0,1.0,460.0,863.0,1.0,1,487.0,1
342,342,-0.01520576187971101,-0.0,1.0,0.0,455.0,690.0,1.0,1,3855.0,0
343,343,-0.17361333734224205,-0.2,0.0,1.0,349.0,771.0,1.0,0,740.0,1
344,344,-0.4043647757719729,-0.4,0.0,1.0,325.0,766.0,1.0,0,1189.0,1
345,345,0.001964644280596506,0.0,0.0,0.0,391.0,853.0,0.0,1,3756.0,1
346,346,-0.8833296104679577,-0.9,1.0,0.0,393.0,877.0,1.0,1,20.0,0
347,347,-0.044958017243395654,-0.0,1.0,0.0,468.0,701.0,0.0,0,3831.0,1
348,348,-0.7195795610502993,-0.7,0.0,1.0,312.0,632.0,1.0,0,376.0,1
349,349,-0.5905014475680962,-0.6,1.0,0.0,329.0,704.0,0.0,0,537.0,1
350,350,0.5083339224726166,0.5,0.0,0.0,300.0,945.0,0.0,1,635.0,1
351,351,0.10330564294533018,0.1,1.0,1.0,498.0,650.0,1.0,1,442.0,1
352,352,-0.8180638332821822,-0.8,0.0,1.0,364.0,967.0,1.0,0,3669.0,1
353,353,0.5543793160166494,0.6,1.0,1.0,460.0,692.0,1.0,1,148.0,1
354,354,-0.38776649214841763,-0.4,1.0,0.0,480.0,684.0,0.0,0,386.0,1
355,355,-0.4334326329359958,-0.4,0.0,1.0,497.0,649.0,1.0,0,854.0,1
356,356,0.013462847142898138,0.0,0.0,0.0,268.0,905.0,1.0,0,3827.0,0
357,357,-0.169689081878464,-0.2,1.0,0.0,266.0,591.0,0.0,0,2063.0,1
358,358,-0.795165343539161,-0.8,0.0,1.0,275.0,757.0,1.0,0,198.0,1
359,359,-0.04514874771800015,-0.0,0.0,1.0,358.0,675.0,1.0,0,1017.0,1
360,360,-0.5516388678237792,-0.6,1.0,0.0,314.0,982.0,0.0,0,514.0,1
361,361,-0.3680175373748047,-0.4,1.0,0.0,281.0,672.0,0.0,0,737.0,1
362,362,0.7627959299233521,0.8,0.0,0.0,374.0,613.0,0.0,1,193.0,1
363,363,-0.1268920918663281,-0.1,0.0,1.0,478.0,751.0,1.0,0,3211.0,1
364,364,0.826801921921538,0.8,1.0,1.0,366.0,934.0,1.0,1,210.0,1
365,365,0.15359542288058192,0.2,0.0,0.0,381.0,912.0,0.0,1,717.0,1
366,366,0.10513675113771581,0.1,1.0,1.0,345.0,659.0,1.0,1,2206.0,1
367,367,0.6518177891602203,0.7,0.0,0.0,474.0,930.0,0.0,1,166.0,1
368,368,0.7474132451834948,0.7,0.0,0.0,395.0,643.0,0.0,1,502.0,1
369,369,0.7941804964658797,0.8,1.0,1.0,401.0,625.0,1.0,1,234.0,1
370,370,0.8977701393403433,0.9,1.0,1.0,353.0,745.0,1.0,1,82.0,1
371,371,0.6858139178472878,0.7,1.0,1.0,266.0,897.0,1.0,1,27.0,1
372,372,-0.19128474361350956,-0.2,1.0,0.0,301.0,716.0,0.0,0,2103.0,1
373,373,0.4512396005127107,0.5,1.0,1.0,280.0,945.0,1.0,1,115.0,1
374,374,-0.7183006080090091,-0.7,1.0,0.0,346.0,633.0,0.0,0,251.0,1
375,375,0.5286262889602337,0.5,0.0,0.0,459.0,852.0,0.0,1,949.0,1
376,376,0.8153079590053799,0.8,0.0,0.0,396.0,696.0,0.0,1,468.0,1
377,377,-0.13776372646872936,-0.1,1.0,0.0,357.0,712.0,0.0,0,1621.0,1
378,378,0.3863330996529394,0.4,1.0,1.0,415.0,843.0,1.0,1,502.0,1
379,379,-0.7115050269129019,-0.7,0.0,1.0,344.0,774.0,1.0,0,2012.0,1
380,380,0.6846266142096801,0.7,0.0,0.0,372.0,670.0,0.0,1,188.0,1
381,381,-0.5622793172904212,-0.6,0.0,1.0,388.0,766.0,1.0,0,626.0,1
382,382,0.31706688043993203,0.3,0.0,0.0,390.0,884.0,0.0,1,566.0,1
383,383,-0.2834920994061384,-0.3,1.0,0.0,461.0,633.0,0.0,0,1406.0,1
384,384,-0.5535044736324255,-0.6,1.0,0.0,399.0,934.0,0.0,0,-253.0,1
385,385,-0.8801721642740982,-0.9,1.0,0.0,399.0,519.0,0.0,0,102.0,1
386,386,0.5473385931063698,0.5,0.0,0.0,453.0,945.0,0.0,1,782.0,1
387,387,-0.4972255869401685,-0.5,0.0,1.0,436.0,923.0,1.0,0,151.0,1
388,388,-0.46521247553842,-0.5,1.0,0.0,487.0,530.0,0.0,0,373.0,1
389,389,0.6153143267535258,0.6,0.0,0.0,485.0,931.0,0.0,1,594.0,1
390,390,0.27907093145712636,0.3,1.0,1.0,261.0,906.0,1.0,1,233.0,1
391,391,0.5699273026061421,0.6,0.0,0.0,390.0,513.0,0.0,1,287.0,1
392,392,-0.42896422906862713,-0.4,0.0,1.0,391.0,802.0,1.0,0,1087.0,1
393,393,-0.029183327459672892,-0.0,0.0,1.0,274.0,633.0,1.0,0,413.0,1
394,394,-0.6491947672177245,-0.6,0.0,1.0,375.0,529.0,1.0,0,286.0,1
395,395,-0.13187296414643968,-0.1,1.0,0.0,342.0,839.0,0.0,0,89.0,1
396,396,0.7971036376092929,0.8,1.0,1.0,485.0,790.0,1.0,1,205.0,1
397,397,-0.8300482636077232,-0.8,1.0,0.0,385.0,535.0,0.0,0,320.0,1
398,398,-0.34960489643293,-0.3,1.0,0.0,349.0,719.0,0.0,0,992.0,1
399,399,-0.8632494952239879,-0.9,1.0,0.0,387.0,996.0,0.0,0,437.0,1
400,400,0.7639374143198613,0.8,0.0,0.0,401.0,975.0,0.0,1,744.0,1
401,401,-0.19259867673986353,-0.2,0.0,1.0,332.0,955.0,1.0,0,1023.0,1
402,402,0.09963584420061444,0.1,0.0,0.0,406.0,730.0,1.0,0,3864.0,0
403,403,-0.3176552091242312,-0.3,1.0,0.0,279.0,907.0,0.0,0,734.0,1
404,404,0.3297262954520045,0.3,0.0,0.0,287.0,741.0,0.0,1,622.0,1
405,405,0.09715653898746246,0.1,1.0,1.0,292.0,599.0,1.0,1,1679.0,1
406,406,0.7767406210024214,0.8,0.0,0.0,399.0,549.0,0.0,1,632.0,1
407,407,-0.6004884356278308,-0.6,0.0,1.0,398.0,758.0,0.0,1,14.0,0
408,408,0.05533459973544952,0.1,0.0,0.0,283.0,605.0,1.0,0,3322.0,0
409,409,0.23344316474156546,0.2,1.0,1.0,377.0,627.0,1.0,1,1006.0,1
410,410,-0.4529547547317227,-0.5,1.0,0.0,374.0,660.0,0.0,0,656.0,1
411,411,0.755755503373491,0.8,1.0,1.0,256.0,855.0,1.0,1,279.0,1
412,412,-0.7808861007123016,-0.8,0.0,1.0,297.0,771.0,1.0,0,252.0,1
413,413,-0.8571698120992954,-0.9,1.0,0.0,429.0,587.0,0.0,0,494.0,1
414,414,-0.5683547888619551,-0.6,0.0,1.0,357.0,607.0,1.0,0,346.0,1
415,415,-0.06752179513675016,-0.1,1.0,0.0,466.0,795.0,1.0,1,3739.0,0
416,416,0.25990061174402623,0.3,1.0,1.0,314.0,980.0,1.0,1,176.0,1
417,417,0.03277803984634797,0.0,0.0,0.0,359.0,992.0,1.0,0,3649.0,0
418,418,0.7467677917317456,0.7,0.0,0.0,443.0,705.0,0.0,1,162.0,1
419,419,-0.6626303769895745,-0.7,0.0,1.0,452.0,792.0,1.0,0,1896.0,1
420,420,0.26184282851999285,0.3,0.0,0.0,283.0,548.0,0.0,1,729.0,1
421,421,0.20027525680209413,0.2,0.0,0.0,468.0,968.0,1.0,0,94.0,0
422,422,-0.49646837166098384,-0.5,1.0,0.0,479.0,652.0,0.0,0,499.0,1
423,423,0.4668752944169988,0.5,1.0,1.0,283.0,776.0,1.0,1,301.0,1
424,424,-0.8845656098325493,-0.9,0.0,1.0,310.0,854.0,1.0,0,676.0,1
425,425,0.08063201791470942,0.1,0.0,0.0,455.0,809.0,0.0,1,3736.0,1
426,426,0.7643739889285187,0.8,1.0,1.0,351.0,937.0,1.0,1,52.0,1
427,427,0.4877908785024131,0.5,0.0,0.0,451.0,695.0,0.0,1,204.0,1
428,428,0.5721587508895106,0.6,1.0,1.0,298.0,704.0,1.0,1,238.0,1
429,429,-0.23868090906732353,-0.2,0.0,1.0,321.0,938.0,1.0,0,381.0,1
430,430,-0.14830836498022903,-0.1,0.0,1.0,395.0,868.0,1.0,0,1067.0,1
431,431,-0.7359530826482409,-0.7,1.0,0.0,278.0,574.0,0.0,0,468.0,1
432,432,-0.384614999004803,-0.4,1.0,0.0,429.0,742.0,0.0,0,599.0,1
433,433,0.40641226611889125,0.4,0.0,0.0,275.0,979.0,0.0,1,876.0,1
434,434,-0.4175886072794626,-0.4,0.0,1.0,417.0,592.0,1.0,0,381.0,1
435,435,0.6624745765738763,0.7,0.0,0.0,431.0,885.0,0.0,1,334.0,1
436,436,-0.7736888710809874,-0.8,0.0,1.0,401.0,722.0,1.0,0,3877.0,1
437,437,-0.08622259139466637,-0.1,1.0,0.0,357.0,971.0,1.0,1,3672.0,0
438,438,0.1314305202462861,0.1,1.0,1.0,411.0,754.0,1.0,1,765.0,1
439,439,0.37363165116468544,0.4,0.0,0.0,410.0,566.0,0.0,1,414.0,1
440,440,0.8431217552531659,0.8,0.0,0.0,476.0,633.0,0.0,1,401.0,1
441,441,0.2979295960830187,0.3,0.0,0.0,253.0,708.0,0.0,1,139.0,1
442,442,0.5473698325958084,0.5,1.0,1.0,415.0,771.0,1.0,1,324.0,1
443,443,0.5575322751830335,0.6,1.0,1.0,315.0,665.0,1.0,1,230.0,1
444,444,0.009062158766196649,0.0,0.0,0.0,491.0,908.0,1.0,0,671.0,0
445,445,-0.3825380642113452,-0.4,0.0,1.0,267.0,558.0,1.0,0,425.0,1
446,446,0.5988577930999596,0.6,1.0,1.0,392.0,627.0,1.0,1,271.0,1
447,447,0.33211169468733004,0.3,0.0,0.0,376.0,704.0,0.0,1,820.0,1
448,448,0.7284122440515505,0.7,1.0,1.0,341.0,677.0,1.0,1,182.0,1
449,449,-0.6517690820044872,-0.7,0.0,1.0,377.0,935.0,1.0,0,58.0,1
450,450,0.7346086133513682,0.7,0.0,0.0,494.0,625.0,0.0,1,181.0,1
451,451,0.3428269010930428,0.3,0.0,0.0,312.0,974.0,0.0,1,-66.0,1
452,452,0.5526087720506961,0.6,1.0,1.0,453.0,592.0,1.0,1,675.0,1
453,453,0.8405556678211376,0.8,1.0,1.0,352.0,895.0,1.0,1,203.0,1
454,454,-0.2931276605963731,-0.3,1.0,0.0,344.0,926.0,0.0,0,1690.0,1
455,455,-0.869527018652738,-0.9,1.0,0.0,280.0,667.0,0.0,0,433.0,1
456,456,-0.845299723723084,-0.8,1.0,0.0,271.0,908.0,0.0,0,211.0,1
457,457,-0.6931052981176133,-0.7,0.0,1.0,356.0,700.0,1.0,0,214.0,1
458,458,0.6980702389285575,0.7,0.0,0.0,307.0,599.0,0.0,1,534.0,1
459,459,0.47414448586797897,0.5,0.0,0.0,452.0,866.0,0.0,1,572.0,1
460,460,-0.30392265932631457,-0.3,1.0,0.0,490.0,670.0,0.0,0,950.0,1
461,461,0.13471381409898397,0.1,1.0,1.0,339.0,918.0,1.0,1,1163.0,1
462,462,-0.4469624534669151,-0.4,1.0,0.0,342.0,995.0,0.0,0,473.0,1
463,463,-0.579171456041081,-0.6,0.0,1.0,359.0,625.0,1.0,0,256.0,1
464,464,-0.46199198519109375,-0.5,0.0,1.0,273.0,856.0,1.0,0,271.0,1
465,465,-0.624166849480275,-0.6,1.0,0.0,400.0,998.0,0.0,0,402.0,1
466,466,0.22018659891895298,0.2,1.0,1.0,492.0,831.0,1.0,1,427.0,1
467,467,0.3526828814577029,0.4,1.0,1.0,273.0,524.0,1.0,1,243.0,1
468,468,-0.5363335073761497,-0.5,1.0,0.0,436.0,997.0,0.0,0,467.0,1
469,469,-0.6810692280276676,-0.7,0.0,1.0,374.0,509.0,1.0,0,357.0,1
470,470,0.23437450268007443,0.2,1.0,1.0,255.0,676.0,1.0,1,259.0,1
471,471,-0.6865306717381829,-0.7,0.0,1.0,474.0,869.0,1.0,0,187.0,1
472,472,-0.3990101501071338,-0.4,0.0,1.0,417.0,675.0,1.0,0,128.0,1
473,473,-0.20082535106945365,-0.2,1.0,0.0,353.0,545.0,0.0,0,2582.0,1
474,474,0.8794948770143535,0.9,1.0,1.0,342.0,520.0,1.0,1,118.0,1
475,475,0.351410548014761,0.4,0.0,0.0,448.0,776.0,0.0,1,326.0,1
476,476,0.48368598877148117,0.5,1.0,1.0,263.0,924.0,1.0,1,313.0,1
477,477,0.3864301038295549,0.4,0.0,0.0,273.0,903.0,0.0,1,314.0,1
478,478,0.24430910069415124,0.2,0.0,0.0,278.0,663.0,0.0,1,599.0,1
479,479,-0.3486970216345102,-0.3,0.0,1.0,387.0,726.0,1.0,0,257.0,1
480,480,0.10597430540881236,0.1,0.0,0.0,404.0,768.0,0.0,1,1488.0,1
481,481,-0.08682502513563983,-0.1,1.0,0.0,362.0,557.0,0.0,0,4081.0,1
482,482,0.17223210212554385,0.2,0.0,0.0,413.0,542.0,0.0,1,945.0,1
483,483,0.8417660380056445,0.8,0.0,0.0,389.0,644.0,0.0,1,137.0,1
484,484,-0.39678295677265674,-0.4,1.0,0.0,257.0,745.0,0.0,0,748.0,1
485,485,0.7649968746729684,0.8,0.0,0.0,461.0,763.0,0.0,1,566.0,1
486,486,0.2184678931465881,0.2,1.0,1.0,437.0,747.0,1.0,1,786.0,1
487,487,-0.8982828723429597,-0.9,1.0,0.0,370.0,973.0,0.0,0,317.0,1
488,488,0.2019070699906106,0.2,1.0,1.0,446.0,913.0,1.0,1,401.0,1
489,489,0.08557859992371564,0.1,0.0,0.0,339.0,989.0,0.0,1,3672.0,1
490,490,-0.8763413117006815,-0.9,0.0,1.0,295.0,731.0,1.0,0,184.0,1
491,491,0.05151619542622354,0.1,0.0,0.0,364.0,614.0,0.0,1,4022.0,1
492,492,-0.14965867966748636,-0.1,0.0,1.0,339.0,794.0,1.0,0,927.0,1
493,493,0.025681130688922305,0.0,0.0,0.0,269.0,881.0,0.0,1,3020.0,1
494,494,-0.8116671065964589,-0.8,0.0,1.0,439.0,884.0,1.0,0,397.0,1
495,495,-0.18111277449319718,-0.2,1.0,0.0,436.0,841.0,0.0,0,3723.0,1
496,496,-0.7351374443705194,-0.7,0.0,1.0,329.0,741.0,1.0,0,120.0,1
497,497,-0.046769398199550616,-0.0,1.0,0.0,396.0,969.0,0.0,0,3635.0,1
498,498,0.5861300008144142,0.6,0.0,0.0,434.0,632.0,0.0,1,344.0,1
499,499,0.2780971650123417,0.3,1.0,1.0,413.0,602.0,1.0,1,765.0,1
500,500,0.22276718176307353,0.2,0.0,0.0,498.0,579.0,0.0,1,773.0,1
501,501,0.38298712573677796,0.4,1.0,1.0,255.0,810.0,1.0,1,165.0,1
502,502,0.6193186701070489,0.6,1.0,1.0,345.0,711.0,1.0,1,154.0,1
503,503,-0.031574546847331075,-0.0,1.0,0.0,478.0,692.0,1.0,1,3830.0,0
504,504,0.8696553353254396,0.9,1.0,1.0,388.0,899.0,1.0,1,203.0,1
505,505,0.8296619022599666,0.8,0.0,0.0,381.0,782.0,0.0,1,217.0,1
506,506,0.14393492364132265,0.1,0.0,0.0,339.0,553.0,0.0,1,548.0,1
507,507,0.6382596645056623,0.6,1.0,1.0,344.0,737.0,1.0,1,369.0,1
508,508,-0.6709424742137918,-0.7,1.0,0.0,284.0,657.0,0.0,0,199.0,1
509,509,0.20765666527157645,0.2,1.0,1.0,282.0,829.0,1.0,1,869.0,1
510,510,-0.4566171039325228,-0.5,1.0,0.0,272.0,647.0,0.0,0,791.0,1
511,511,-0.7927210666868685,-0.8,0.0,1.0,469.0,617.0,1.0,0,114.0,1
512,512,0.8313097197093199,0.8,1.0,1.0,481.0,613.0,1.0,1,136.0,1
513,513,0.7637655999504972,0.8,0.0,0.0,440.0,618.0,0.0,1,212.0,1
514,514,-0.8302208345858639,-0.8,0.0,1.0,438.0,706.0,1.0,0,176.0,1
515,515,0.041084856726917196,0.0,0.0,0.0,479.0,523.0,0.0,1,3348.0,1
516,516,-0.5254092598708041,-0.5,1.0,0.0,445.0,509.0,0.0,0,816.0,1
517,517,-0.7761833425999101,-0.8,1.0,0.0,463.0,539.0,0.0,0,218.0,1
518,518,0.24615794887021514,0.2,1.0,1.0,410.0,580.0,1.0,1,1040.0,1
519,519,0.7253966032473896,0.7,1.0,1.0,293.0,788.0,1.0,1,239.0,1
520,520,-0.8390969589969803,-0.8,0.0,1.0,422.0,660.0,1.0,0,198.0,1
521,521,0.4485196443874363,0.4,0.0,0.0,317.0,695.0,0.0,1,468.0,1
522,522,-0.1403997102353548,-0.1,0.0,1.0,451.0,862.0,1.0,0,1307.0,1
523,523,0.20991417466362317,0.2,0.0,0.0,294.0,669.0,0.0,1,897.0,1
524,524,0.028895551547115872,0.0,0.0,0.0,446.0,507.0,0.0,1,1527.0,1
525,525,0.11292113779187629,0.1,1.0,1.0,359.0,870.0,1.0,1,951.0,1
526,526,0.6371723441661677,0.6,1.0,1.0,327.0,916.0,1.0,1,317.0,1
527,527,-0.38875892487020614,-0.4,0.0,1.0,291.0,937.0,1.0,0,1192.0,1
528,528,0.0528507051896282,0.1,0.0,0.0,478.0,591.0,0.0,1,1041.0,1
529,529,0.0926869246736386,0.1,0.0,0.0,357.0,704.0,0.0,1,1269.0,1
530,530,0.3748984231089484,0.4,1.0,1.0,434.0,998.0,1.0,1,438.0,1
531,531,0.34267273416107813,0.3,0.0,0.0,489.0,571.0,0.0,1,230.0,1
532,532,0.20233263911631416,0.2,1.0,1.0,495.0,752.0,1.0,1,483.0,1
533,533,0.1372502829076937,0.1,0.0,0.0,441.0,851.0,0.0,1,1478.0,1
534,534,-0.7795305222355832,-0.8,0.0,1.0,255.0,668.0,1.0,0,217.0,1
535,535,-0.21131220538998563,-0.2,0.0,1.0,423.0,518.0,1.0,0,979.0,1
536,536,-0.18557111169585028,-0.2,0.0,1.0,437.0,773.0,1.0,0,910.0,1
537,537,0.04327780794494851,0.0,1.0,1.0,417.0,522.0,1.0,1,141.0,1
538,538,-0.36997155479001886,-0.4,1.0,0.0,415.0,530.0,0.0,0,1225.0,1
539,539,-0.43184150656008424,-0.4,0.0,1.0,329.0,761.0,1.0,0,360.0,1
540,540,0.14800190272808356,0.1,0.0,0.0,350.0,801.0,0.0,1,959.0,1
541,541,0.20556055602356105,0.2,1.0,1.0,478.0,555.0,1.0,1,277.0,1
542,542,-0.3372925139773142,-0.3,0.0,1.0,335.0,986.0,1.0,0,-351.0,1
543,543,0.14087784155636063,0.1,1.0,1.0,367.0,773.0,1.0,1,740.0,1
544,544,0.06144415940548864,0.1,1.0,1.0,273.0,658.0,1.0,1,799.0,1
545,545,0.8031671369434178,0.8,0.0,0.0,285.0,951.0,1.0,0,-366.0,0
546,546,-0.5370625185765625,-0.5,0.0,1.0,257.0,693.0,1.0,0,450.0,1
547,547,0.8653769182260965,0.9,0.0,0.0,475.0,624.0,0.0,1,241.0,1
548,548,0.42217985738387165,0.4,1.0,1.0,389.0,838.0,1.0,1,243.0,1
549,549,-0.8105978265840437,-0.8,0.0,1.0,337.0,714.0,1.0,0,139.0,1
550,550,0.03887467527409094,0.0,1.0,1.0,316.0,595.0,1.0,1,1849.0,1
551,551,0.42642242632853533,0.4,0.0,0.0,420.0,710.0,0.0,1,580.0,1
552,552,0.4906700394178304,0.5,1.0,1.0,254.0,801.0,1.0,1,285.0,1
553,553,0.355054471092474,0.4,0.0,0.0,320.0,859.0,0.0,1,531.0,1
554,554,0.014222541131882593,0.0,0.0,0.0,408.0,800.0,0.0,1,3792.0,1
555,555,-0.06633819993441059,-0.1,1.0,0.0,351.0,666.0,1.0,1,3983.0,0
556,556,0.4855117734455673,0.5,1.0,1.0,282.0,592.0,1.0,1,686.0,1
557,557,-0.6511273316915196,-0.7,0.0,1.0,341.0,577.0,1.0,0,332.0,1
558,558,0.3058875233385957,0.3,0.0,0.0,453.0,959.0,1.0,0,-22.0,0
559,559,0.12115966420283042,0.1,1.0,1.0,266.0,648.0,1.0,1,686.0,1
560,560,-0.35953696104786215,-0.4,0.0,1.0,331.0,543.0,1.0,0,646.0,1
561,561,-0.4915996461126915,-0.5,0.0,1.0,419.0,708.0,1.0,0,733.0,1
562,562,-0.05533355336527024,-0.1,1.0,0.0,255.0,803.0,0.0,0,3942.0,1
563,563,0.316486914959328,0.3,1.0,1.0,257.0,700.0,1.0,1,693.0,1
564,564,0.4801995123256467,0.5,0.0,0.0,390.0,710.0,0.0,1,1240.0,1
565,565,-0.8266950316098501,-0.8,0.0,1.0,428.0,921.0,1.0,0,371.0,1
566,566,-0.18945554211807103,-0.2,0.0,1.0,387.0,935.0,1.0,0,1468.0,1
567,567,-0.010164184387645547,-0.0,0.0,1.0,375.0,525.0,1.0,0,4100.0,1
568,568,-0.7854699172681452,-0.8,0.0,1.0,457.0,775.0,1.0,0,128.0,1
569,569,-0.2091986587786514,-0.2,1.0,0.0,345.0,941.0,0.0,0,834.0,1
570,570,-0.8231037755237659,-0.8,0.0,1.0,361.0,681.0,1.0,0,308.0,1
571,571,0.1680784238810572,0.2,0.0,0.0,395.0,948.0,0.0,1,3517.0,1
572,572,-0.8964142516830019,-0.9,1.0,0.0,304.0,756.0,0.0,0,220.0,1
573,573,-0.5098195228046466,-0.5,0.0,1.0,286.0,671.0,1.0,0,243.0,1
574,574,0.5748163276428516,0.6,1.0,1.0,449.0,793.0,1.0,1,258.0,1
575,575,-0.8762801827344009,-0.9,0.0,1.0,401.0,874.0,1.0,0,215.0,1
576,576,0.3051422865981158,0.3,0.0,0.0,258.0,920.0,0.0,1,432.0,1
577,577,0.7767687213268063,0.8,0.0,0.0,298.0,870.0,1.0,0,-338.0,0
578,578,-0.5921288653125172,-0.6,1.0,0.0,405.0,637.0,0.0,0,318.0,1
579,579,-0.6519880196950849,-0.7,1.0,0.0,327.0,518.0,0.0,0,365.0,1
580,580,0.4417584646792251,0.4,0.0,0.0,450.0,508.0,0.0,1,332.0,1
581,581,-0.3611071915044549,-0.4,0.0,1.0,398.0,697.0,1.0,0,1065.0,1
582,582,-0.03673150335138042,-0.0,1.0,0.0,339.0,885.0,1.0,1,3776.0,0
583,583,0.4012773249859628,0.4,1.0,1.0,287.0,968.0,1.0,1,275.0,1
584,584,-0.4635501713765312,-0.5,1.0,0.0,391.0,763.0,0.0,0,406.0,1
585,585,-0.7918576306586677,-0.8,1.0,0.0,287.0,638.0,0.0,0,195.0,1
586,586,-0.06590952939930128,-0.1,0.0,1.0,284.0,587.0,1.0,0,1319.0,1
587,587,0.8628425974020301,0.9,1.0,1.0,370.0,543.0,1.0,1,227.0,1
588,588,-0.5696071539907476,-0.6,0.0,1.0,487.0,667.0,1.0,0,246.0,1
589,589,-0.0762942967448631,-0.1,1.0,0.0,278.0,596.0,0.0,0,2436.0,1
590,590,-0.23227402611760473,-0.2,0.0,1.0,345.0,594.0,1.0,0,1071.0,1
591,591,-0.2705549947017942,-0.3,1.0,0.0,416.0,865.0,0.0,0,509.0,1
592,592,-0.08967297392211504,-0.1,0.0,1.0,407.0,613.0,1.0,0,1660.0,1
593,593,0.46760257233401126,0.5,1.0,1.0,287.0,730.0,1.0,1,273.0,1
594,594,0.7675775396453829,0.8,1.0,1.0,311.0,668.0,1.0,1,-49.0,1
595,595,-0.4143975555281479,-0.4,0.0,1.0,286.0,675.0,1.0,0,459.0,1
596,596,-0.42865206186117183,-0.4,0.0,1.0,497.0,690.0,1.0,0,3813.0,1
597,597,0.18726963523566276,0.2,1.0,1.0,437.0,949.0,1.0,1,364.0,1
598,598,-0.02192179658963922,-0.0,0.0,1.0,497.0,543.0,1.0,0,3960.0,1
599,599,-0.2963695225565016,-0.3,1.0,0.0,390.0,865.0,0.0,0,1165.0,1
600,600,-0.21143917354963193,-0.2,0.0,1.0,437.0,946.0,1.0,0,517.0,1
601,601,-0.6542162566035308,-0.7,0.0,1.0,495.0,592.0,1.0,0,343.0,1
602,602,-0.8299652703730758,-0.8,0.0,1.0,388.0,831.0,1.0,0,161.0,1
603,603,0.0703736269823011,0.1,0.0,0.0,352.0,679.0,0.0,1,1179.0,1
604,604,0.7988409474395467,0.8,1.0,1.0,484.0,740.0,1.0,1,256.0,1
605,605,0.26470507810594757,0.3,0.0,0.0,310.0,974.0,0.0,1,336.0,1
606,606,0.33603816632420813,0.3,1.0,1.0,290.0,515.0,1.0,1,625.0,1
607,607,-0.6337559077833701,-0.6,0.0,1.0,371.0,802.0,1.0,0,57.0,1
608,608,0.19488699650512176,0.2,0.0,0.0,433.0,959.0,0.0,1,1968.0,1
609,609,0.35113167706021897,0.4,0.0,0.0,414.0,694.0,0.0,1,1012.0,1
610,610,-0.2704011245540302,-0.3,1.0,0.0,476.0,651.0,0.0,0,2063.0,1
611,611,0.17131803666569512,0.2,1.0,1.0,458.0,842.0,1.0,1,350.0,1
612,612,0.42504376050446024,0.4,1.0,1.0,409.0,788.0,1.0,1,293.0,1
613,613,0.3293329870530025,0.3,1.0,1.0,264.0,696.0,1.0,1,240.0,1
614,614,-0.49649293812971096,-0.5,1.0,0.0,411.0,729.0,0.0,0,220.0,1
615,615,-0.4217718233193077,-0.4,0.0,1.0,276.0,590.0,1.0,0,574.0,1
616,616,-0.21632151683930267,-0.2,0.0,1.0,464.0,899.0,1.0,0,1007.0,1
617,617,-0.30025141270625233,-0.3,0.0,1.0,453.0,730.0,1.0,0,967.0,1
618,618,-0.8231907872080112,-0.8,1.0,0.0,405.0,569.0,0.0,0,316.0,1
619,619,0.03396062314768533,0.0,0.0,0.0,278.0,954.0,0.0,1,598.0,1
620,620,0.811255326278706,0.8,1.0,1.0,347.0,704.0,1.0,1,499.0,1
621,621,0.0336668742859626,0.0,1.0,1.0,313.0,568.0,1.0,1,2249.0,1
622,622,0.6317405793276639,0.6,1.0,1.0,452.0,611.0,1.0,1,647.0,1
623,623,0.13620595377703582,0.1,0.0,0.0,267.0,707.0,0.0,1,796.0,1
624,624,0.25928462880079006,0.3,1.0,1.0,320.0,610.0,1.0,1,540.0,1
625,625,0.28288253763034665,0.3,1.0,1.0,280.0,864.0,1.0,1,296.0,1
626,626,0.7154781618459584,0.7,1.0,1.0,380.0,513.0,1.0,1,637.0,1
627,627,-0.5783970818465666,-0.6,0.0,1.0,290.0,558.0,1.0,0,312.0,1
628,628,-0.6810360008780706,-0.7,0.0,1.0,314.0,951.0,1.0,0,215.0,1
629,629,-0.4654774107768244,-0.5,1.0,0.0,287.0,824.0,0.0,0,249.0,1
630,630,-0.31976940968446155,-0.3,0.0,1.0,441.0,671.0,1.0,0,1358.0,1
631,631,-0.17190811692011432,-0.2,1.0,0.0,331.0,791.0,0.0,0,1508.0,1
632,632,-0.5820942481459327,-0.6,0.0,1.0,429.0,740.0,1.0,0,341.0,1
633,633,0.2998873149441551,0.3,0.0,0.0,389.0,696.0,0.0,1,705.0,1
634,634,-0.6090089458369998,-0.6,1.0,0.0,433.0,835.0,0.0,0,572.0,1
635,635,0.2989242069782797,0.3,1.0,1.0,260.0,551.0,1.0,1,489.0,1
636,636,-0.47395201342890025,-0.5,1.0,0.0,302.0,877.0,1.0,1,-169.0,0
637,637,0.025878797899461015,0.0,0.0,0.0,346.0,721.0,1.0,0,1043.0,0
638,638,-0.7174790550202981,-0.7,1.0,0.0,442.0,777.0,0.0,0,361.0,1
639,639,0.5064480482479888,0.5,1.0,1.0,469.0,753.0,1.0,1,468.0,1
640,640,0.514347915805987,0.5,1.0,1.0,254.0,571.0,1.0,1,385.0,1
641,641,-0.8774929462049109,-0.9,1.0,0.0,495.0,841.0,0.0,0,294.0,1
642,642,0.32571347891198055,0.3,1.0,1.0,281.0,705.0,1.0,1,324.0,1
643,643,-0.39516255175424475,-0.4,1.0,0.0,284.0,710.0,0.0,0,856.0,1
644,644,0.7384855555362925,0.7,0.0,0.0,469.0,760.0,0.0,1,331.0,1
645,645,0.44205271499492615,0.4,0.0,0.0,360.0,820.0,0.0,1,270.0,1
646,646,0.16136079820110794,0.2,1.0,1.0,280.0,983.0,1.0,1,897.0,1
647,647,0.2078434977989615,0.2,1.0,1.0,371.0,665.0,1.0,1,864.0,1
648,648,-0.8620423098962402,-0.9,0.0,1.0,408.0,566.0,1.0,0,4026.0,1
649,649,-0.5070498003562158,-0.5,1.0,0.0,427.0,981.0,0.0,0,162.0,1
650,650,-0.2338923087302499,-0.2,1.0,0.0,328.0,894.0,0.0,0,1608.0,1
651,651,0.7184576873109706,0.7,0.0,0.0,367.0,926.0,0.0,1,377.0,1
652,652,-0.7891433796288915,-0.8,0.0,1.0,478.0,966.0,1.0,0,336.0,1
653,653,-0.24226599632465273,-0.2,0.0,1.0,296.0,571.0,1.0,0,453.0,1
654,654,-0.7405873737044943,-0.7,0.0,1.0,349.0,911.0,1.0,0,330.0,1
655,655,-0.37198051127324216,-0.4,1.0,0.0,496.0,853.0,0.0,0,531.0,1
656,656,-0.8414745375171823,-0.8,0.0,1.0,481.0,577.0,1.0,0,482.0,1
657,657,0.29210019019931643,0.3,1.0,1.0,478.0,508.0,1.0,1,114.0,1
658,658,-0.7733816722153792,-0.8,1.0,0.0,469.0,744.0,0.0,0,117.0,1
659,659,0.014962644920528123,0.0,1.0,1.0,363.0,545.0,1.0,1,1042.0,1
660,660,0.878350842325267,0.9,0.0,0.0,288.0,678.0,0.0,1,134.0,1
661,661,0.28715334149707694,0.3,0.0,0.0,348.0,860.0,0.0,1,602.0,1
662,662,-0.14473177422315053,-0.1,1.0,0.0,260.0,607.0,0.0,0,1023.0,1
663,663,0.6549346338168728,0.7,0.0,0.0,323.0,729.0,0.0,1,368.0,1
664,664,-0.6592682802186831,-0.7,0.0,1.0,474.0,973.0,1.0,0,1423.0,1
665,665,0.6911203035443977,0.7,1.0,1.0,481.0,566.0,1.0,1,243.0,1
666,666,0.3401574841369136,0.3,0.0,0.0,490.0,807.0,0.0,1,593.0,1
667,667,-0.23779024111934732,-0.2,1.0,0.0,440.0,563.0,0.0,0,457.0,1
668,668,0.050534439091643124,0.1,1.0,1.0,388.0,611.0,1.0,1,4001.0,1
669,669,0.09890056990333151,0.1,1.0,1.0,291.0,747.0,1.0,1,2982.0,1
670,670,0.6157328905007057,0.6,1.0,1.0,452.0,691.0,1.0,1,387.0,1
671,671,-0.1316624316750148,-0.1,1.0,0.0,405.0,553.0,0.0,0,1782.0,1
672,672,-0.7437987039723635,-0.7,0.0,1.0,348.0,690.0,1.0,0,132.0,1
673,673,-0.7128134911935572,-0.7,1.0,0.0,456.0,988.0,0.0,0,386.0,1
674,674,0.1375771002855316,0.1,0.0,0.0,423.0,933.0,0.0,1,1404.0,1
675,675,0.7249739876707678,0.7,0.0,0.0,265.0,862.0,0.0,1,153.0,1
676,676,-0.875643614752596,-0.9,1.0,0.0,287.0,951.0,0.0,0,482.0,1
677,677,0.10228281469588707,0.1,1.0,1.0,420.0,852.0,1.0,1,1878.0,1
678,678,-0.03511595497150233,-0.0,0.0,1.0,455.0,545.0,1.0,0,680.0,1
679,679,-0.8261792246771991,-0.8,0.0,1.0,321.0,724.0,1.0,0,115.0,1
680,680,-0.21355931343692536,-0.2,1.0,0.0,290.0,597.0,0.0,0,1393.0,1
681,681,-0.31049675097481644,-0.3,0.0,1.0,282.0,960.0,1.0,0,418.0,1
682,682,0.4743694518381213,0.5,1.0,1.0,298.0,646.0,1.0,1,416.0,1
683,683,-0.12559785768306586,-0.1,0.0,1.0,260.0,559.0,1.0,0,2691.0,1
684,684,-0.26829191504410854,-0.3,0.0,1.0,272.0,760.0,1.0,0,888.0,1
685,685,-0.06484689870399174,-0.1,0.0,1.0,408.0,844.0,1.0,0,1388.0,1
686,686,0.6729867553260972,0.7,0.0,0.0,439.0,622.0,0.0,1,229.0,1
687,687,-0.8447877878921519,-0.8,1.0,0.0,253.0,869.0,0.0,0,428.0,1
688,688,0.5508195274428743,0.6,1.0,1.0,292.0,961.0,1.0,1,277.0,1
689,689,-0.5377222651523265,-0.5,0.0,1.0,274.0,946.0,1.0,0,360.0,1
690,690,-0.2581841201274734,-0.3,1.0,0.0,309.0,793.0,0.0,0,1048.0,1
691,691,-0.8454605865958491,-0.8,1.0,0.0,407.0,819.0,0.0,0,834.0,1
692,692,-0.7575842837915201,-0.8,0.0,1.0,303.0,650.0,1.0,0,167.0,1
693,693,0.26593405569359485,0.3,1.0,1.0,328.0,571.0,1.0,1,691.0,1
694,694,-0.6910662013570036,-0.7,0.0,1.0,307.0,528.0,1.0,0,415.0,1
695,695,0.046995786090283986,0.0,1.0,1.0,482.0,936.0,1.0,1,1652.0,1
696,696,0.34810542937385114,0.3,1.0,1.0,419.0,882.0,1.0,1,219.0,1
697,697,-0.5497006392610979,-0.5,1.0,0.0,434.0,572.0,0.0,0,1094.0,1
698,698,-0.41587602536062945,-0.4,1.0,0.0,288.0,983.0,0.0,0,609.0,1
699,699,-0.09695709417703446,-0.1,1.0,0.0,298.0,663.0,1.0,1,4039.0,0
700,700,0.781854466111947,0.8,1.0,1.0,402.0,867.0,1.0,1,-19.0,1
701,701,0.7388584851179919,0.7,1.0,1.0,339.0,958.0,1.0,1,283.0,1
702,702,-0.5028663432848992,-0.5,0.0,1.0,275.0,563.0,1.0,0,202.0,1
703,703,0.15432475583164929,0.2,1.0,1.0,447.0,741.0,1.0,1,682.0,1
704,704,0.44144836698877443,0.4,0.0,0.0,405.0,846.0,0.0,1,299.0,1
705,705,0.8983095550151047,0.9,0.0,0.0,415.0,635.0,0.0,1,380.0,1
706,706,-0.6899501852769594,-0.7,0.0,1.0,430.0,661.0,1.0,0,209.0,1
707,707,-0.27658274338161803,-0.3,0.0,1.0,423.0,703.0,1.0,0,564.0,1
708,708,0.15305610300312,0.2,0.0,0.0,418.0,872.0,0.0,1,1690.0,1
709,709,0.8967868953183683,0.9,0.0,0.0,406.0,500.0,0.0,1,704.0,1
710,710,0.8462645063177933,0.8,1.0,1.0,336.0,882.0,1.0,1,102.0,1
711,711,-0.8491350598646755,-0.8,1.0,0.0,278.0,597.0,0.0,0,365.0,1
712,712,-0.3035836948433299,-0.3,1.0,0.0,408.0,706.0,0.0,0,466.0,1
713,713,0.856211386401491,0.9,0.0,0.0,272.0,739.0,0.0,1,219.0,1
714,714,0.37764421687831995,0.4,1.0,1.0,472.0,976.0,1.0,1,422.0,1
715,715,0.15398173865885034,0.2,0.0,0.0,496.0,865.0,0.0,1,709.0,1
716,716,0.37760191229412243,0.4,0.0,0.0,404.0,916.0,1.0,0,-280.0,0
717,717,-0.13037730203204356,-0.1,1.0,0.0,439.0,751.0,0.0,0,3810.0,1
718,718,-0.8292542998598256,-0.8,0.0,1.0,499.0,505.0,1.0,0,356.0,1
719,719,-0.5206181102817647,-0.5,1.0,0.0,260.0,790.0,0.0,0,470.0,1
720,720,-0.7610775286170839,-0.8,0.0,1.0,299.0,964.0,1.0,0,127.0,1
721,721,-0.3050498964823092,-0.3,0.0,1.0,333.0,997.0,1.0,0,600.0,1
722,722,-0.6862955193757247,-0.7,0.0,1.0,427.0,769.0,1.0,0,624.0,1
723,723,0.12977385753787496,0.1,0.0,0.0,408.0,577.0,0.0,1,385.0,1
724,724,-0.8275460981843125,-0.8,0.0,1.0,324.0,624.0,1.0,0,4052.0,1
725,725,-0.2228855110697373,-0.2,1.0,0.0,447.0,626.0,0.0,0,1297.0,1
726,726,0.3927830048201252,0.4,1.0,1.0,479.0,809.0,1.0,1,562.0,1
727,727,0.4321799297060184,0.4,1.0,1.0,482.0,774.0,1.0,1,744.0,1
728,728,-0.10845412223146778,-0.1,1.0,0.0,365.0,660.0,0.0,0,945.0,1
729,729,-0.7887550360524195,-0.8,1.0,0.0,388.0,814.0,0.0,0,348.0,1
730,730,-0.3012524981374175,-0.3,1.0,0.0,426.0,792.0,0.0,0,342.0,1
731,731,-0.46371225608321676,-0.5,1.0,0.0,391.0,882.0,0.0,0,847.0,1
732,732,-0.2707753641497387,-0.3,1.0,0.0,455.0,765.0,0.0,0,580.0,1
733,733,0.18553670803373434,0.2,1.0,1.0,284.0,638.0,1.0,1,2508.0,1
734,734,-0.8705870876329163,-0.9,1.0,0.0,263.0,663.0,0.0,0,304.0,1
735,735,-0.48163465586425175,-0.5,0.0,1.0,472.0,948.0,1.0,0,550.0,1
736,736,-0.5963135193058282,-0.6,0.0,1.0,357.0,826.0,1.0,0,517.0,1
737,737,-0.21490148555026833,-0.2,1.0,0.0,387.0,844.0,0.0,0,1839.0,1
738,738,-0.7340016631353748,-0.7,0.0,1.0,349.0,641.0,1.0,0,180.0,1
739,739,-0.12359643256019703,-0.1,0.0,1.0,269.0,589.0,1.0,0,602.0,1
740,740,0.39865493686294984,0.4,0.0,0.0,307.0,518.0,0.0,1,435.0,1
741,741,-0.43786880391496086,-0.4,0.0,1.0,284.0,935.0,1.0,0,1091.0,1
742,742,0.21917910797430784,0.2,1.0,1.0,396.0,846.0,1.0,1,448.0,1
743,743,0.4974221025197575,0.5,0.0,0.0,318.0,779.0,0.0,1,283.0,1
744,744,0.4276746143140958,0.4,0.0,0.0,335.0,783.0,0.0,1,422.0,1
745,745,-0.5865012068146578,-0.6,0.0,1.0,499.0,925.0,1.0,0,96.0,1
746,746,-0.8509841027836597,-0.9,1.0,0.0,263.0,599.0,0.0,0,338.0,1
747,747,-0.584479585477299,-0.6,0.0,1.0,259.0,940.0,1.0,0,3801.0,1
748,748,-0.7608973812769324,-0.8,1.0,0.0,320.0,665.0,0.0,0,305.0,1
749,749,-0.6335513634076376,-0.6,1.0,0.0,273.0,984.0,0.0,0,-447.0,1
750,750,-0.27578229916265884,-0.3,1.0,0.0,344.0,781.0,0.0,0,1605.0,1
751,751,0.7902735914926197,0.8,0.0,0.0,292.0,577.0,0.0,1,581.0,1
752,752,-0.32694354691327665,-0.3,1.0,0.0,433.0,823.0,0.0,0,1134.0,1
753,753,0.8281888899813007,0.8,0.0,0.0,449.0,648.0,0.0,1,203.0,1
754,754,0.726808155724305,0.7,0.0,0.0,266.0,691.0,0.0,1,223.0,1
755,755,0.40612427805242424,0.4,1.0,1.0,449.0,966.0,1.0,1,465.0,1
756,756,-0.5525985288371063,-0.6,1.0,0.0,359.0,799.0,0.0,0,272.0,1
757,757,-0.1481189732118361,-0.1,0.0,1.0,459.0,826.0,1.0,0,2235.0,1
758,758,0.6523917227461281,0.7,1.0,1.0,386.0,697.0,1.0,1,267.0,1
759,759,0.4594273768389384,0.5,0.0,0.0,484.0,795.0,0.0,1,271.0,1
760,760,0.2057787707024633,0.2,1.0,1.0,335.0,585.0,1.0,1,460.0,1
761,761,0.010609360164690829,0.0,1.0,1.0,355.0,960.0,1.0,1,3565.0,1
762,762,-0.014417254574823568,-0.0,0.0,1.0,346.0,885.0,0.0,1,-251.0,0
763,763,0.3201982765702539,0.3,1.0,1.0,319.0,553.0,1.0,1,728.0,1
764,764,0.8988503874046675,0.9,0.0,0.0,463.0,597.0,0.0,1,210.0,1
765,765,-0.0023553991246322292,-0.0,0.0,1.0,382.0,552.0,0.0,1,4066.0,0
766,766,0.05413334192091712,0.1,0.0,0.0,326.0,716.0,0.0,1,1438.0,1
767,767,0.13330576845148812,0.1,1.0,1.0,448.0,964.0,1.0,1,758.0,1
768,768,-0.48304771509221694,-0.5,1.0,0.0,303.0,855.0,0.0,0,422.0,1
769,769,0.6637994977352354,0.7,1.0,1.0,445.0,895.0,1.0,1,580.0,1
770,770,0.36173096774410574,0.4,0.0,0.0,282.0,541.0,0.0,1,527.0,1
771,771,0.30306385357398546,0.3,1.0,1.0,396.0,681.0,1.0,1,293.0,1
772,772,-0.3984893867865662,-0.4,1.0,0.0,337.0,944.0,0.0,0,789.0,1
773,773,0.5228250637148896,0.5,0.0,0.0,301.0,768.0,0.0,1,621.0,1
774,774,0.671978418494731,0.7,1.0,1.0,325.0,632.0,1.0,1,423.0,1
775,775,0.4321359783789843,0.4,0.0,0.0,470.0,768.0,0.0,1,942.0,1
776,776,0.25310103943156903,0.3,0.0,0.0,317.0,983.0,0.0,1,1150.0,1
777,777,0.8659461679626191,0.9,1.0,1.0,360.0,986.0,1.0,1,-126.0,1
778,778,-0.19201094508153238,-0.2,0.0,1.0,298.0,826.0,1.0,0,1586.0,1
779,779,-0.11070702894036111,-0.1,1.0,0.0,353.0,714.0,1.0,1,3933.0,0
780,780,-0.08976013454268095,-0.1,0.0,1.0,461.0,601.0,1.0,0,968.0,1
781,781,0.010233575485661062,0.0,0.0,0.0,300.0,590.0,1.0,0,1670.0,0
782,782,-0.4302674999152884,-0.4,0.0,1.0,271.0,763.0,1.0,0,386.0,1
783,783,0.39604969777858956,0.4,0.0,0.0,323.0,613.0,0.0,1,724.0,1
784,784,-0.8456701674750027,-0.8,1.0,0.0,335.0,851.0,0.0,0,254.0,1
785,785,0.8168299116720267,0.8,0.0,0.0,400.0,642.0,0.0,1,108.0,1
786,786,-0.677313552361163,-0.7,0.0,1.0,493.0,684.0,1.0,0,233.0,1
787,787,-0.21821450521903007,-0.2,0.0,1.0,395.0,628.0,1.0,0,1997.0,1
788,788,0.5190147630640282,0.5,1.0,1.0,261.0,621.0,1.0,1,178.0,1
789,789,-0.5826153021470779,-0.6,1.0,0.0,412.0,814.0,0.0,0,294.0,1
790,790,0.7659447645678735,0.8,1.0,1.0,260.0,610.0,1.0,1,290.0,1
791,791,-0.3772156308359109,-0.4,0.0,1.0,395.0,522.0,1.0,0,1983.0,1
792,792,0.2859083431249735,0.3,1.0,1.0,339.0,843.0,1.0,1,638.0,1
793,793,-0.6485187799125707,-0.6,1.0,0.0,278.0,760.0,0.0,0,202.0,1
794,794,-0.22582660267182186,-0.2,0.0,1.0,352.0,774.0,1.0,0,354.0,1
795,795,0.5495177918705226,0.5,0.0,0.0,397.0,792.0,0.0,1,261.0,1
796,796,0.3517566200199832,0.4,0.0,0.0,268.0,584.0,0.0,1,928.0,1
797,797,0.41991890127303766,0.4,1.0,1.0,366.0,699.0,1.0,1,285.0,1
798,798,-0.5733321420063703,-0.6,0.0,1.0,285.0,944.0,1.0,0,341.0,1
799,799,-0.6179348635019356,-0.6,1.0,0.0,464.0,636.0,0.0,0,300.0,1
800,800,-0.6373220440244609,-0.6,1.0,0.0,346.0,707.0,0.0,0,527.0,1
801,801,-0.7246267076125293,-0.7,0.0,1.0,316.0,882.0,1.0,0,322.0,1
802,802,-0.08080848864546031,-0.1,0.0,1.0,268.0,916.0,0.0,1,166.0,0
803,803,0.6288030702181181,0.6,1.0,1.0,383.0,775.0,1.0,1,272.0,1
804,804,0.10529050967382958,0.1,0.0,0.0,294.0,520.0,0.0,1,2286.0,1
805,805,0.5423638674432479,0.5,1.0,1.0,472.0,993.0,1.0,1,215.0,1
806,806,-0.8079717946400232,-0.8,1.0,0.0,271.0,516.0,0.0,0,443.0,1
807,807,0.7818084832021471,0.8,0.0,0.0,295.0,739.0,0.0,1,316.0,1
808,808,-0.6072989468550454,-0.6,1.0,0.0,441.0,639.0,0.0,0,240.0,1
809,809,-0.05349228852464427,-0.1,1.0,0.0,328.0,826.0,0.0,0,3846.0,1
810,810,0.6349985844149934,0.6,0.0,0.0,281.0,602.0,0.0,1,467.0,1
811,811,-0.5927285634486847,-0.6,1.0,0.0,447.0,848.0,0.0,0,695.0,1
812,812,-0.8573765672847989,-0.9,1.0,0.0,387.0,803.0,0.0,0,240.0,1
813,813,-0.3302385340659151,-0.3,0.0,1.0,425.0,807.0,1.0,0,868.0,1
814,814,0.5388317344748789,0.5,1.0,1.0,295.0,821.0,1.0,1,464.0,1
815,815,0.4824809430082423,0.5,0.0,0.0,380.0,817.0,0.0,1,983.0,1
816,816,0.8710828433203256,0.9,0.0,0.0,255.0,644.0,0.0,1,431.0,1
817,817,0.278981678835187,0.3,1.0,1.0,300.0,526.0,1.0,1,844.0,1
818,818,-0.38479163025057794,-0.4,1.0,0.0,292.0,762.0,0.0,0,666.0,1
819,819,-0.6439324987141961,-0.6,1.0,0.0,367.0,860.0,0.0,0,413.0,1
820,820,0.13007797704570068,0.1,1.0,1.0,292.0,862.0,1.0,1,1356.0,1
821,821,-0.7728215749760692,-0.8,0.0,1.0,370.0,595.0,1.0,0,315.0,1
822,822,0.1322165141789472,0.1,1.0,1.0,374.0,809.0,1.0,1,1267.0,1
823,823,-0.635910371366192,-0.6,1.0,0.0,307.0,951.0,0.0,0,932.0,1
824,824,-0.14953246770491457,-0.1,0.0,1.0,399.0,558.0,1.0,0,1713.0,1
825,825,-0.880155328992356,-0.9,0.0,1.0,330.0,852.0,1.0,0,68.0,1
826,826,-0.5869857540934033,-0.6,1.0,0.0,277.0,810.0,0.0,0,403.0,1
827,827,-0.5278958330017884,-0.5,1.0,0.0,499.0,583.0,0.0,0,338.0,1
828,828,-0.291269128174947,-0.3,1.0,0.0,311.0,699.0,0.0,0,600.0,1
829,829,-0.46366509356001034,-0.5,0.0,1.0,340.0,699.0,1.0,0,471.0,1
830,830,-0.6958132032385149,-0.7,0.0,1.0,321.0,678.0,1.0,0,201.0,1
831,831,0.004689287419761157,0.0,1.0,1.0,408.0,880.0,0.0,0,3712.0,0
832,832,0.6205910413331436,0.6,0.0,0.0,467.0,765.0,0.0,1,498.0,1
833,833,0.3519244408739227,0.4,0.0,0.0,338.0,529.0,0.0,1,623.0,1
834,834,0.4893150551837645,0.5,0.0,0.0,470.0,772.0,0.0,1,418.0,1
835,835,0.26890055474933494,0.3,0.0,0.0,481.0,801.0,0.0,1,468.0,1
836,836,-0.5426766147880822,-0.5,0.0,1.0,482.0,987.0,1.0,0,461.0,1
837,837,0.687845456199753,0.7,1.0,1.0,302.0,626.0,1.0,1,282.0,1
838,838,0.18451824940249073,0.2,1.0,1.0,414.0,564.0,1.0,1,562.0,1
839,839,0.6554889006460539,0.7,1.0,1.0,479.0,751.0,1.0,1,520.0,1
840,840,0.12821855018870887,0.1,1.0,1.0,492.0,701.0,1.0,1,997.0,1
841,841,-0.6265420557740167,-0.6,1.0,0.0,436.0,760.0,0.0,0,224.0,1
842,842,0.6701506764157624,0.7,1.0,1.0,260.0,506.0,1.0,1,134.0,1
843,843,0.12576501958563957,0.1,1.0,1.0,325.0,906.0,1.0,1,949.0,1
844,844,0.37772233923512666,0.4,0.0,0.0,329.0,712.0,0.0,1,919.0,1
845,845,-0.04702397332766439,-0.0,0.0,1.0,366.0,941.0,1.0,0,1403.0,1
846,846,0.06553954704703602,0.1,0.0,0.0,379.0,883.0,0.0,1,3598.0,1
847,847,-0.7930465887117717,-0.8,1.0,0.0,269.0,909.0,0.0,0,252.0,1
848,848,-0.1777722951690558,-0.2,1.0,0.0,369.0,699.0,0.0,0,2232.0,1
849,849,-0.5280791010114234,-0.5,1.0,0.0,260.0,567.0,0.0,0,353.0,1
850,850,-0.3723016348564028,-0.4,0.0,1.0,376.0,815.0,1.0,0,659.0,1
851,851,0.13391574403477324,0.1,1.0,1.0,414.0,875.0,1.0,1,161.0,1
852,852,-0.605541033932276,-0.6,0.0,1.0,258.0,799.0,1.0,0,373.0,1
853,853,-0.42099826462937606,-0.4,0.0,1.0,346.0,530.0,1.0,0,264.0,1
854,854,-0.13368780076384257,-0.1,0.0,1.0,302.0,839.0,1.0,0,1899.0,1
855,855,0.49853242379464546,0.5,0.0,0.0,262.0,861.0,0.0,1,427.0,1
856,856,0.6008405782102161,0.6,0.0,0.0,392.0,916.0,0.0,1,632.0,1
857,857,0.20525823113188502,0.2,1.0,1.0,254.0,689.0,1.0,1,1027.0,1
858,858,-0.747836984277349,-0.7,0.0,1.0,466.0,839.0,1.0,0,105.0,1
859,859,-0.29717647833358096,-0.3,0.0,1.0,308.0,954.0,1.0,0,228.0,1
860,860,-0.84992466125638,-0.8,1.0,0.0,418.0,755.0,0.0,0,297.0,1
861,861,-0.4389375211492616,-0.4,1.0,0.0,439.0,602.0,0.0,0,589.0,1
862,862,-0.8535705228228632,-0.9,0.0,1.0,252.0,790.0,1.0,0,378.0,1
863,863,0.8352840910848575,0.8,0.0,0.0,269.0,503.0,0.0,1,228.0,1
864,864,0.0934416558692226,0.1,1.0,1.0,391.0,914.0,1.0,1,505.0,1
865,865,0.3223395700653334,0.3,1.0,1.0,385.0,853.0,1.0,1,222.0,1
866,866,0.4978541136886273,0.5,0.0,0.0,315.0,562.0,0.0,1,833.0,1
867,867,-0.4919339647871653,-0.5,0.0,1.0,391.0,963.0,1.0,0,76.0,1
868,868,-0.4088419041662934,-0.4,0.0,1.0,465.0,502.0,1.0,0,333.0,1
869,869,0.04564336513623313,0.0,0.0,0.0,287.0,514.0,0.0,1,1499.0,1
870,870,0.23321771901934418,0.2,0.0,0.0,402.0,737.0,0.0,1,751.0,1
871,871,0.8844243511203532,0.9,0.0,0.0,379.0,837.0,0.0,1,504.0,1
872,872,-0.8112135278492738,-0.8,0.0,1.0,423.0,688.0,1.0,0,709.0,1
873,873,0.19291724562595436,0.2,1.0,1.0,405.0,594.0,1.0,1,591.0,1
874,874,-0.6957197318407944,-0.7,0.0,1.0,498.0,951.0,1.0,0,111.0,1
875,875,0.09922527793960345,0.1,1.0,1.0,490.0,702.0,1.0,1,548.0,1
876,876,-0.15307947675047218,-0.2,0.0,1.0,399.0,861.0,1.0,0,1460.0,1
877,877,-0.4301268805676297,-0.4,1.0,0.0,380.0,923.0,0.0,0,197.0,1
878,878,-0.15372415567132136,-0.2,0.0,1.0,474.0,881.0,1.0,0,455.0,1
879,879,0.2710679157557906,0.3,1.0,1.0,269.0,771.0,1.0,1,570.0,1
880,880,-0.6541833178138395,-0.7,1.0,0.0,284.0,634.0,0.0,0,382.0,1
881,881,-0.05883938332023175,-0.1,1.0,0.0,399.0,855.0,1.0,1,1286.0,0
882,882,0.1469172248416465,0.1,0.0,0.0,416.0,669.0,0.0,1,1545.0,1
883,883,-0.5332201843558384,-0.5,1.0,0.0,442.0,583.0,0.0,0,545.0,1
884,884,0.7382348126701007,0.7,0.0,0.0,301.0,620.0,0.0,1,109.0,1
885,885,-0.14619244873191828,-0.1,0.0,1.0,386.0,858.0,1.0,0,1586.0,1
886,886,0.3928973085433082,0.4,0.0,0.0,437.0,575.0,0.0,1,1198.0,1
887,887,0.5558791313126882,0.6,1.0,1.0,466.0,541.0,1.0,1,283.0,1
888,888,-0.5149835519168551,-0.5,1.0,0.0,450.0,936.0,0.0,0,754.0,1
889,889,0.6091350103850547,0.6,1.0,1.0,398.0,757.0,1.0,1,275.0,1
890,890,0.48395105570224073,0.5,0.0,0.0,419.0,632.0,0.0,1,359.0,1
891,891,-0.43360629051365246,-0.4,1.0,0.0,251.0,815.0,0.0,0,494.0,1
892,892,-0.1325220476165272,-0.1,1.0,0.0,375.0,859.0,0.0,0,3766.0,1
893,893,0.7710447443842113,0.8,1.0,1.0,266.0,526.0,1.0,1,148.0,1
894,894,-0.826727673791891,-0.8,1.0,0.0,258.0,590.0,0.0,0,352.0,1
895,895,0.672004677628867,0.7,1.0,1.0,363.0,666.0,1.0,1,61.0,1
896,896,-0.2794634993661237,-0.3,0.0,1.0,412.0,815.0,1.0,0,273.0,1
897,897,-0.0847028767094885,-0.1,0.0,1.0,454.0,743.0,1.0,0,1913.0,1
898,898,0.861926879243805,0.9,1.0,1.0,346.0,754.0,1.0,1,160.0,1
899,899,-0.10508202623447016,-0.1,0.0,1.0,486.0,662.0,1.0,0,2102.0,1
900,900,0.6556194441117972,0.7,1.0,1.0,270.0,815.0,1.0,1,495.0,1
901,901,-0.5719461032249189,-0.6,1.0,0.0,478.0,933.0,0.0,0,349.0,1
902,902,0.11903062209928816,0.1,1.0,1.0,277.0,773.0,1.0,1,1230.0,1
903,903,0.8566822750983981,0.9,1.0,1.0,344.0,940.0,1.0,1,156.0,1
904,904,0.4784820413375682,0.5,1.0,1.0,414.0,556.0,1.0,1,390.0,1
905,905,-0.5941997463655057,-0.6,1.0,0.0,458.0,766.0,0.0,0,376.0,1
906,906,0.6878117207423632,0.7,1.0,1.0,483.0,903.0,1.0,1,124.0,1
907,907,0.8642704570214673,0.9,0.0,0.0,427.0,826.0,0.0,1,587.0,1
908,908,0.7519358535223596,0.8,0.0,0.0,491.0,761.0,0.0,1,518.0,1
909,909,0.48169960575322224,0.5,0.0,0.0,292.0,769.0,0.0,1,1459.0,1
910,910,0.14202362108105537,0.1,0.0,0.0,372.0,547.0,0.0,1,541.0,1
911,911,0.3136949816544138,0.3,0.0,0.0,308.0,986.0,0.0,1,976.0,1
912,912,-0.2167931361324389,-0.2,0.0,1.0,436.0,839.0,1.0,0,1775.0,1
913,913,-0.0625908263767384,-0.1,1.0,0.0,473.0,862.0,0.0,0,3665.0,1
914,914,0.44795237052598613,0.4,0.0,0.0,255.0,511.0,0.0,1,394.0,1
915,915,0.5808605240498775,0.6,0.0,0.0,378.0,585.0,1.0,0,-63.0,0
916,916,0.7514939567131677,0.8,0.0,0.0,365.0,717.0,0.0,1,398.0,1
917,917,0.6384274731935541,0.6,0.0,0.0,334.0,842.0,0.0,1,174.0,1
918,918,-0.8209608780489829,-0.8,0.0,1.0,333.0,514.0,1.0,0,263.0,1
919,919,0.21011938614374326,0.2,1.0,1.0,434.0,911.0,1.0,1,495.0,1
920,920,0.1427846423249265,0.1,1.0,1.0,426.0,776.0,1.0,1,2798.0,1
921,921,-0.16586075061085936,-0.2,0.0,1.0,409.0,587.0,1.0,0,334.0,1
922,922,-0.2547823491530298,-0.3,1.0,0.0,494.0,776.0,1.0,1,-140.0,0
923,923,0.3143909485373543,0.3,1.0,1.0,304.0,690.0,1.0,1,556.0,1
924,924,0.5660140685046281,0.6,1.0,1.0,276.0,645.0,1.0,1,419.0,1
925,925,-0.5555832020839984,-0.6,1.0,0.0,448.0,975.0,0.0,0,127.0,1
926,926,0.7641102463007409,0.8,0.0,0.0,355.0,535.0,0.0,1,220.0,1
927,927,0.7534029079803776,0.8,1.0,1.0,263.0,516.0,1.0,1,451.0,1
928,928,-0.17117885296347612,-0.2,1.0,0.0,263.0,987.0,0.0,0,2420.0,1
929,929,0.47769810288409265,0.5,0.0,0.0,396.0,566.0,0.0,1,968.0,1
930,930,-0.42460010002262266,-0.4,0.0,1.0,366.0,962.0,1.0,0,592.0,1
931,931,0.2766721903149535,0.3,1.0,1.0,455.0,894.0,1.0,1,1461.0,1
932,932,-0.7752458484429537,-0.8,0.0,1.0,312.0,861.0,1.0,0,107.0,1
933,933,-0.42057556612046,-0.4,0.0,1.0,421.0,792.0,1.0,0,657.0,1
934,934,-0.314715158886395,-0.3,0.0,1.0,347.0,555.0,1.0,0,568.0,1
935,935,0.36862678221308764,0.4,0.0,0.0,467.0,630.0,0.0,1,573.0,1
936,936,0.6472473440476597,0.6,0.0,0.0,260.0,884.0,0.0,1,786.0,1
937,937,0.013770052194896465,0.0,0.0,0.0,430.0,831.0,0.0,1,3739.0,1
938,938,0.5081066036675882,0.5,0.0,0.0,341.0,622.0,0.0,1,347.0,1
939,939,0.551875034227112,0.6,0.0,0.0,478.0,861.0,0.0,1,271.0,1
940,940,0.12448530146067294,0.1,1.0,1.0,446.0,801.0,1.0,1,1663.0,1
941,941,-0.091750412014027,-0.1,0.0,1.0,297.0,644.0,1.0,0,2309.0,1
942,942,0.7560043488870728,0.8,0.0,0.0,420.0,652.0,0.0,1,278.0,1
943,943,-0.5932058072961003,-0.6,1.0,0.0,268.0,781.0,0.0,0,201.0,1
944,944,-0.18029071965792087,-0.2,0.0,1.0,269.0,588.0,1.0,0,443.0,1
945,945,0.4567455121606586,0.5,1.0,1.0,407.0,640.0,1.0,1,193.0,1
946,946,0.887167434374473,0.9,0.0,0.0,467.0,930.0,0.0,1,193.0,1
947,947,0.1290132510782035,0.1,1.0,1.0,440.0,506.0,1.0,1,34.0,1
948,948,0.4512860719592823,0.5,0.0,0.0,311.0,635.0,0.0,1,464.0,1
949,949,0.4931984976607743,0.5,0.0,0.0,412.0,583.0,0.0,1,305.0,1
950,950,0.20727454773274567,0.2,0.0,0.0,431.0,624.0,0.0,1,375.0,1
951,951,-0.2172260328212975,-0.2,0.0,1.0,496.0,842.0,1.0,0,472.0,1
952,952,0.664718557611803,0.7,1.0,1.0,421.0,552.0,1.0,1,207.0,1
953,953,-0.5528863704655607,-0.6,1.0,0.0,478.0,978.0,0.0,0,474.0,1
954,954,0.041216177234208784,0.0,1.0,1.0,450.0,861.0,1.0,1,539.0,1
955,955,-0.3249187838631381,-0.3,1.0,0.0,450.0,589.0,0.0,0,1461.0,1
956,956,-0.20164258264708002,-0.2,1.0,0.0,270.0,601.0,0.0,0,1399.0,1
957,957,0.5857056113069462,0.6,1.0,1.0,404.0,947.0,1.0,1,-71.0,1
958,958,-0.640536038930049,-0.6,1.0,0.0,390.0,540.0,0.0,0,450.0,1
959,959,0.6724132430860782,0.7,1.0,1.0,352.0,750.0,1.0,1,338.0,1
960,960,-0.5329616741498009,-0.5,0.0,1.0,347.0,559.0,0.0,1,-116.0,0
961,961,0.8034829548026635,0.8,1.0,1.0,416.0,892.0,1.0,1,352.0,1
962,962,0.7843059109697447,0.8,1.0,1.0,267.0,658.0,1.0,1,175.0,1
963,963,0.35759647495768176,0.4,1.0,1.0,279.0,914.0,1.0,1,437.0,1
964,964,0.11082571326257329,0.1,0.0,0.0,450.0,755.0,0.0,1,775.0,1
965,965,0.6588469707053853,0.7,1.0,1.0,271.0,722.0,1.0,1,537.0,1
966,966,0.464810760705224,0.5,0.0,0.0,272.0,640.0,0.0,1,398.0,1
967,967,0.4896936442419185,0.5,1.0,1.0,434.0,505.0,1.0,1,301.0,1
968,968,0.09963552772033812,0.1,1.0,1.0,293.0,641.0,1.0,1,1216.0,1
969,969,0.4343605278469601,0.4,1.0,1.0,468.0,572.0,1.0,1,280.0,1
970,970,0.16378158222551142,0.2,1.0,1.0,448.0,700.0,1.0,1,632.0,1
971,971,-0.6856530361634761,-0.7,0.0,1.0,367.0,875.0,1.0,0,118.0,1
972,972,-0.7871827997568243,-0.8,0.0,1.0,493.0,853.0,1.0,0,124.0,1
973,973,-0.6832821565923561,-0.7,0.0,1.0,414.0,610.0,1.0,0,106.0,1
974,974,0.1517466560278059,0.2,1.0,1.0,260.0,944.0,1.0,1,686.0,1
975,975,-0.3917061403084824,-0.4,1.0,0.0,380.0,636.0,0.0,0,564.0,1
976,976,0.26825147011283923,0.3,1.0,1.0,281.0,748.0,1.0,1,321.0,1
977,977,0.7998912704841395,0.8,0.0,0.0,309.0,795.0,0.0,1,636.0,1
978,978,-0.8643836039964825,-0.9,0.0,1.0,369.0,914.0,1.0,0,427.0,1
979,979,0.6675356300450993,0.7,0.0,0.0,448.0,686.0,0.0,1,386.0,1
980,980,-0.4802361658884524,-0.5,1.0,0.0,372.0,834.0,0.0,0,704.0,1
981,981,-0.17394198268133076,-0.2,1.0,0.0,313.0,929.0,0.0,0,988.0,1
982,982,0.16400618010094503,0.2,0.0,0.0,282.0,569.0,0.0,1,609.0,1
983,983,-0.6134433962341785,-0.6,1.0,0.0,456.0,580.0,0.0,0,194.0,1
984,984,0.8351098307548418,0.8,0.0,0.0,279.0,643.0,0.0,1,288.0,1
985,985,0.6983860786880315,0.7,1.0,1.0,330.0,570.0,1.0,1,340.0,1
986,986,-0.27625014639131273,-0.3,1.0,0.0,409.0,985.0,0.0,0,1146.0,1
987,987,-0.40642197587132584,-0.4,0.0,1.0,483.0,607.0,1.0,0,270.0,1
988,988,0.8022481737852584,0.8,0.0,0.0,301.0,772.0,0.0,1,457.0,1
989,989,0.6430194885647257,0.6,1.0,1.0,303.0,795.0,1.0,1,282.0,1
990,990,0.7385560181293408,0.7,1.0,1.0,264.0,700.0,1.0,1,476.0,1
991,991,-0.14481844521470022,-0.1,1.0,0.0,424.0,858.0,0.0,0,3718.0,1
992,992,0.14960285391569517,0.1,0.0,0.0,498.0,508.0,0.0,1,974.0,1
993,993,-0.8632941550181581,-0.9,1.0,0.0,273.0,589.0,0.0,0,438.0,1
994,994,-0.6709237740402679,-0.7,1.0,0.0,497.0,771.0,0.0,0,562.0,1
995,995,0.7427387102801396,0.7,1.0,1.0,375.0,789.0,1.0,1,246.0,1
996,996,0.7666193511074969,0.8,1.0,1.0,444.0,566.0,1.0,1,320.0,1
997,997,0.8224698790140402,0.8,1.0,1.0,367.0,668.0,1.0,1,125.0,1
998,998,-0.7244003292178585,-0.7,1.0,0.0,454.0,629.0,0.0,0,1187.0,1
999,999,0.020691545909438336,0.0,0.0,0.0,290.0,966.0,0.0,1,1664.0,1
1000,1000,0.8436572217587784,0.8,0.0,0.0,289.0,706.0,0.0,1,225.0,1
1001,1001,0.08806161101334287,0.1,0.0,0.0,337.0,788.0,0.0,1,1045.0,1
1002,1002,0.6769663990570028,0.7,0.0,0.0,374.0,920.0,0.0,1,226.0,1
1003,1003,0.7375125621916486,0.7,1.0,1.0,287.0,722.0,1.0,1,321.0,1
1004,1004,0.6851892792347708,0.7,0.0,0.0,312.0,696.0,0.0,1,232.0,1
1005,1005,0.04539321823169251,0.0,1.0,1.0,316.0,549.0,1.0,1,3265.0,1
1006,1006,0.16080930280207817,0.2,1.0,1.0,251.0,807.0,1.0,1,812.0,1
1007,1007,0.5634325304101052,0.6,0.0,0.0,253.0,664.0,0.0,1,613.0,1
1008,1008,-0.5209665071637422,-0.5,0.0,1.0,275.0,876.0,1.0,0,1119.0,1
1009,1009,0.06839274572954668,0.1,1.0,1.0,472.0,577.0,1.0,1,2431.0,1
1010,1010,-0.6165723975146495,-0.6,0.0,1.0,470.0,762.0,1.0,0,308.0,1
1011,1011,-0.4918919973217153,-0.5,0.0,1.0,277.0,974.0,1.0,0,79.0,1
1012,1012,0.13866581447304382,0.1,0.0,0.0,473.0,646.0,0.0,1,871.0,1
1013,1013,0.8927982556848949,0.9,0.0,0.0,469.0,506.0,0.0,1,535.0,1
1014,1014,0.8596611756665312,0.9,1.0,1.0,426.0,566.0,1.0,1,288.0,1
1015,1015,0.6401027627946848,0.6,0.0,0.0,351.0,544.0,0.0,1,255.0,1
1016,1016,0.7306516103859103,0.7,0.0,0.0,414.0,865.0,0.0,1,311.0,1
1017,1017,0.3290063837539513,0.3,1.0,1.0,346.0,542.0,1.0,1,222.0,1
1018,1018,0.7126408403428378,0.7,1.0,1.0,464.0,587.0,1.0,1,279.0,1
1019,1019,0.6295774268832123,0.6,0.0,0.0,406.0,710.0,0.0,1,404.0,1
1020,1020,-0.09813494513132204,-0.1,0.0,1.0,478.0,688.0,1.0,0,2234.0,1
1021,1021,-0.8477345444097982,-0.8,1.0,0.0,341.0,942.0,0.0,0,287.0,1
1022,1022,0.06013545783176899,0.1,0.0,0.0,436.0,747.0,0.0,1,1127.0,1
1023,1023,0.010683818790318544,0.0,1.0,1.0,372.0,783.0,1.0,1,2055.0,1
1024,1024,0.14895881110022435,0.1,0.0,0.0,257.0,944.0,0.0,1,399.0,1
1025,1025,-0.8224897630256951,-0.8,1.0,0.0,396.0,556.0,0.0,0,318.0,1
1026,1026,0.143973235968491,0.1,1.0,1.0,437.0,826.0,1.0,1,297.0,1
1027,1027,0.040908893768157095,0.0,1.0,1.0,330.0,943.0,1.0,1,157.0,1
1028,1028,-0.8440386737772081,-0.8,1.0,0.0,469.0,998.0,0.0,0,403.0,1
1029,1029,-0.7920668398610753,-0.8,0.0,1.0,395.0,733.0,1.0,0,332.0,1
1030,1030,0.6132009978621918,0.6,0.0,0.0,306.0,885.0,0.0,1,379.0,1
1031,1031,-0.008012192193186052,-0.0,1.0,0.0,344.0,810.0,0.0,0,3846.0,1
1032,1032,0.07558206641564569,0.1,1.0,1.0,308.0,676.0,1.0,1,3186.0,1
1033,1033,0.007356517628581027,0.0,1.0,1.0,381.0,930.0,1.0,1,559.0,1
1034,1034,0.8715568071117478,0.9,1.0,1.0,456.0,959.0,1.0,1,155.0,1
1035,1035,0.4456208762565069,0.4,0.0,0.0,262.0,729.0,0.0,1,579.0,1
1036,1036,0.206946401190664,0.2,0.0,0.0,371.0,711.0,0.0,1,1728.0,1
1037,1037,0.20505483637809763,0.2,1.0,1.0,353.0,745.0,1.0,1,262.0,1
1038,1038,0.26130178215663313,0.3,1.0,1.0,456.0,545.0,1.0,1,519.0,1
1039,1039,0.36555297532490727,0.4,1.0,1.0,325.0,951.0,1.0,1,174.0,1
1040,1040,0.4521740091067815,0.5,0.0,0.0,372.0,843.0,0.0,1,405.0,1
1041,1041,-0.03457928611305838,-0.0,1.0,0.0,324.0,885.0,1.0,1,3791.0,0
1042,1042,0.3804009016838209,0.4,1.0,1.0,413.0,743.0,1.0,1,174.0,1
1043,1043,0.30342002292824277,0.3,0.0,0.0,382.0,645.0,0.0,1,1183.0,1
1044,1044,0.33722971674914637,0.3,0.0,0.0,355.0,504.0,0.0,1,781.0,1
1045,1045,-0.24576286719953433,-0.2,0.0,1.0,469.0,902.0,1.0,0,449.0,1
1046,1046,-0.0767141011596314,-0.1,0.0,1.0,480.0,581.0,1.0,0,2189.0,1
1047,1047,0.8709938320375182,0.9,1.0,1.0,326.0,660.0,1.0,1,174.0,1
1048,1048,-0.4069444254984554,-0.4,0.0,1.0,411.0,510.0,1.0,0,109.0,1
1049,1049,0.213383822760994,0.2,1.0,1.0,265.0,587.0,1.0,1,298.0,1
1050,1050,-0.16605510971035553,-0.2,1.0,0.0,362.0,637.0,0.0,0,4001.0,1
1051,1051,-0.6736842853008052,-0.7,1.0,0.0,307.0,771.0,0.0,0,602.0,1
1052,1052,-0.004220081060473002,-0.0,1.0,0.0,405.0,644.0,1.0,1,3951.0,0
1053,1053,-0.25546842394847025,-0.3,0.0,1.0,253.0,948.0,1.0,0,1359.0,1
1054,1054,0.8828428701189445,0.9,0.0,0.0,362.0,928.0,0.0,1,710.0,1
1055,1055,-0.3019736376496074,-0.3,1.0,0.0,493.0,978.0,0.0,0,1519.0,1
1056,1056,-0.5753175089945893,-0.6,0.0,1.0,414.0,961.0,1.0,0,195.0,1
1057,1057,-0.41389346822112655,-0.4,0.0,1.0,463.0,619.0,1.0,0,1038.0,1
1058,1058,0.4473351445940049,0.4,0.0,0.0,474.0,601.0,0.0,1,665.0,1
1059,1059,-0.8903297209641268,-0.9,1.0,0.0,407.0,915.0,0.0,0,218.0,1
1060,1060,0.43210240342939155,0.4,1.0,1.0,363.0,895.0,1.0,1,72.0,1
1061,1061,-0.7887088902864143,-0.8,1.0,0.0,399.0,900.0,0.0,0,151.0,1
1062,1062,0.4050959680222904,0.4,1.0,1.0,462.0,754.0,1.0,1,174.0,1
1063,1063,0.6641383288162092,0.7,0.0,0.0,370.0,878.0,0.0,1,142.0,1
1064,1064,-0.7500775355268291,-0.8,0.0,1.0,480.0,810.0,1.0,0,170.0,1
1065,1065,-0.7235463092568778,-0.7,0.0,1.0,426.0,590.0,1.0,0,404.0,1
1066,1066,-0.24523374832556333,-0.2,0.0,1.0,313.0,772.0,1.0,0,795.0,1
1067,1067,0.2972612115773542,0.3,0.0,0.0,297.0,634.0,0.0,1,719.0,1
1068,1068,-0.39870608043460243,-0.4,1.0,0.0,433.0,925.0,0.0,0,572.0,1
1069,1069,0.78880267035152,0.8,1.0,1.0,282.0,524.0,1.0,1,324.0,1
1070,1070,0.7056753060415114,0.7,1.0,1.0,377.0,936.0,1.0,1,467.0,1
1071,1071,-0.4158861648941982,-0.4,0.0,1.0,431.0,638.0,1.0,0,1651.0,1
1072,1072,0.7531819871761473,0.8,1.0,1.0,420.0,881.0,1.0,1,199.0,1
1073,1073,0.860596316620238,0.9,0.0,0.0,288.0,665.0,0.0,1,247.0,1
1074,1074,0.8456264228873117,0.8,1.0,1.0,467.0,852.0,1.0,1,231.0,1
1075,1075,0.6545745974685396,0.7,1.0,1.0,279.0,643.0,1.0,1,178.0,1
1076,1076,-0.8098070791222984,-0.8,0.0,1.0,250.0,943.0,1.0,0,527.0,1
1077,1077,-0.31020251063299453,-0.3,0.0,1.0,317.0,550.0,1.0,0,1343.0,1
1078,1078,-0.09642742272631122,-0.1,1.0,0.0,250.0,903.0,1.0,1,1187.0,0
1079,1079,0.20133431949787728,0.2,1.0,1.0,460.0,716.0,1.0,1,344.0,1
1080,1080,-0.34906593611201875,-0.3,1.0,0.0,471.0,982.0,0.0,0,1247.0,1
1081,1081,-0.6777991344750387,-0.7,1.0,0.0,426.0,630.0,1.0,1,4.0,0
1082,1082,-0.07550051941397062,-0.1,1.0,0.0,292.0,945.0,0.0,0,3763.0,1
1083,1083,0.4169589448406318,0.4,1.0,1.0,376.0,700.0,1.0,1,284.0,1
1084,1084,0.16351008636978615,0.2,1.0,1.0,425.0,520.0,1.0,1,235.0,1
1085,1085,0.3191382083329758,0.3,1.0,1.0,429.0,561.0,1.0,1,510.0,1
1086,1086,0.10319722611214399,0.1,1.0,1.0,279.0,518.0,1.0,1,1323.0,1
1087,1087,0.7418763837067256,0.7,1.0,1.0,445.0,826.0,1.0,1,259.0,1
1088,1088,0.2514564730915051,0.3,1.0,1.0,433.0,976.0,1.0,1,671.0,1
1089,1089,-0.22832812878720077,-0.2,1.0,0.0,357.0,839.0,0.0,0,224.0,1
1090,1090,0.3676442297335313,0.4,0.0,0.0,410.0,674.0,0.0,1,1086.0,1
1091,1091,-0.16738689318407018,-0.2,0.0,1.0,379.0,603.0,1.0,0,718.0,1
1092,1092,0.5327165952582086,0.5,0.0,0.0,488.0,685.0,0.0,1,337.0,1
1093,1093,0.59758463701956,0.6,0.0,0.0,345.0,718.0,0.0,1,397.0,1
1094,1094,0.6166454511076821,0.6,1.0,1.0,400.0,957.0,1.0,1,493.0,1
1095,1095,0.6006095451261065,0.6,0.0,0.0,331.0,650.0,0.0,1,409.0,1
1096,1096,0.7276956956881816,0.7,1.0,1.0,445.0,514.0,1.0,1,391.0,1
1097,1097,-0.6547547243383631,-0.7,0.0,1.0,301.0,989.0,1.0,0,370.0,1
1098,1098,0.4335494930175253,0.4,1.0,1.0,343.0,757.0,1.0,1,270.0,1
1099,1099,0.4377385907394148,0.4,0.0,0.0,439.0,808.0,0.0,1,763.0,1
1100,1100,0.1281355593693757,0.1,1.0,1.0,360.0,905.0,1.0,1,345.0,1
1101,1101,0.8215392288857718,0.8,1.0,1.0,446.0,854.0,1.0,1,410.0,1
1102,1102,0.5487759234803679,0.5,1.0,1.0,497.0,907.0,1.0,1,376.0,1
1103,1103,-0.17920342381595522,-0.2,1.0,0.0,422.0,901.0,1.0,1,147.0,0
1104,1104,-0.057761850410240956,-0.1,0.0,1.0,330.0,590.0,1.0,0,1190.0,1
1105,1105,0.4992575891596821,0.5,0.0,0.0,481.0,989.0,0.0,1,470.0,1
1106,1106,0.6217524496472296,0.6,1.0,1.0,352.0,766.0,1.0,1,262.0,1
1107,1107,-0.6327643270119272,-0.6,1.0,0.0,406.0,745.0,0.0,0,649.0,1
1108,1108,0.08666305130502538,0.1,0.0,0.0,395.0,599.0,0.0,1,476.0,1
1109,1109,0.607816943134632,0.6,0.0,0.0,321.0,588.0,0.0,1,261.0,1
1110,1110,-0.8800521407281642,-0.9,1.0,0.0,312.0,699.0,0.0,0,179.0,1
1111,1111,0.46379315903801566,0.5,0.0,0.0,272.0,599.0,0.0,1,279.0,1
1112,1112,-0.8247114432456324,-0.8,1.0,0.0,471.0,906.0,0.0,0,403.0,1
1113,1113,-0.22026574144090727,-0.2,1.0,0.0,302.0,941.0,0.0,0,967.0,1
1114,1114,-0.5510424931102803,-0.6,0.0,1.0,395.0,773.0,1.0,0,362.0,1
1115,1115,-0.5216029050889408,-0.5,1.0,0.0,284.0,964.0,0.0,0,512.0,1
1116,1116,0.19565873072054074,0.2,0.0,0.0,453.0,724.0,0.0,1,323.0,1
1117,1117,-0.7011339421322523,-0.7,1.0,0.0,317.0,881.0,0.0,0,152.0,1
1118,1118,-0.4811664980811155,-0.5,0.0,1.0,312.0,588.0,1.0,0,150.0,1
1119,1119,-0.13798053479366001,-0.1,0.0,1.0,486.0,891.0,1.0,0,1143.0,1
1120,1120,0.011199426218622022,0.0,1.0,1.0,433.0,902.0,1.0,1,3665.0,1
1121,1121,0.11296439112747925,0.1,0.0,0.0,306.0,617.0,1.0,0,4077.0,0
1122,1122,-0.2738654136796169,-0.3,1.0,0.0,401.0,645.0,0.0,0,824.0,1
1123,1123,-0.21364581472514088,-0.2,1.0,0.0,485.0,899.0,0.0,0,1046.0,1
1124,1124,0.2538643082450637,0.3,0.0,0.0,337.0,763.0,0.0,1,670.0,1
1125,1125,0.7005862196751597,0.7,0.0,0.0,493.0,800.0,0.0,1,577.0,1
1126,1126,0.10941531043678465,0.1,0.0,0.0,251.0,891.0,0.0,1,958.0,1
1127,1127,0.4875762448357822,0.5,0.0,0.0,390.0,761.0,0.0,1,319.0,1
1128,1128,-0.08361594100485781,-0.1,0.0,1.0,311.0,787.0,1.0,0,982.0,1
1129,1129,-0.32921489819709815,-0.3,0.0,1.0,288.0,737.0,1.0,0,645.0,1
1130,1130,-0.20388548772057213,-0.2,1.0,0.0,347.0,524.0,1.0,1,9.0,0
1131,1131,0.21798429611890324,0.2,0.0,0.0,290.0,848.0,0.0,1,732.0,1
1132,1132,-0.01774616826742037,-0.0,1.0,0.0,358.0,701.0,1.0,1,1021.0,0
1133,1133,0.6925641296184323,0.7,0.0,0.0,477.0,724.0,0.0,1,489.0,1
1134,1134,-0.3783331365523578,-0.4,0.0,1.0,495.0,692.0,1.0,0,1153.0,1
1135,1135,-0.8674515618693475,-0.9,1.0,0.0,271.0,839.0,0.0,0,260.0,1
1136,1136,-0.40865360945145185,-0.4,1.0,0.0,498.0,764.0,0.0,0,748.0,1
1137,1137,-0.46345246556172776,-0.5,1.0,0.0,255.0,743.0,0.0,0,622.0,1
1138,1138,0.3640579862815828,0.4,1.0,1.0,494.0,610.0,1.0,1,206.0,1
1139,1139,0.21086720598381403,0.2,0.0,0.0,480.0,742.0,0.0,1,1178.0,1
1140,1140,-0.669496880186133,-0.7,0.0,1.0,487.0,986.0,1.0,0,507.0,1
1141,1141,0.5509594550582625,0.6,1.0,1.0,252.0,908.0,1.0,1,320.0,1
1142,1142,0.33188864654349326,0.3,0.0,0.0,351.0,654.0,0.0,1,625.0,1
1143,1143,0.5920786121635849,0.6,0.0,0.0,265.0,748.0,0.0,1,427.0,1
1144,1144,-0.2551650354038183,-0.3,0.0,1.0,277.0,762.0,1.0,0,2311.0,1
1145,1145,0.8168255736012949,0.8,0.0,0.0,471.0,738.0,0.0,1,561.0,1
1146,1146,-0.7390610267077437,-0.7,0.0,1.0,357.0,766.0,1.0,0,167.0,1
1147,1147,-0.2612549991803913,-0.3,0.0,1.0,365.0,882.0,1.0,0,673.0,1
1148,1148,-0.8002025970208191,-0.8,1.0,0.0,353.0,587.0,0.0,0,230.0,1
1149,1149,0.598086151477195,0.6,1.0,1.0,287.0,712.0,1.0,1,161.0,1
1150,1150,-0.1742742527337905,-0.2,0.0,1.0,470.0,781.0,1.0,0,3449.0,1
1151,1151,0.0697476777568038,0.1,0.0,0.0,293.0,661.0,0.0,1,2316.0,1
1152,1152,0.7341369200100892,0.7,0.0,0.0,348.0,544.0,0.0,1,418.0,1
1153,1153,-0.7888188864578128,-0.8,0.0,1.0,323.0,733.0,1.0,0,204.0,1
1154,1154,-0.6602048787368755,-0.7,0.0,1.0,439.0,937.0,1.0,0,204.0,1
1155,1155,0.6337734890815226,0.6,0.0,0.0,361.0,869.0,0.0,1,290.0,1
1156,1156,0.3054499752065435,0.3,1.0,1.0,363.0,908.0,1.0,1,759.0,1
1157,1157,-0.8085582838092162,-0.8,0.0,1.0,479.0,971.0,1.0,0,220.0,1
1158,1158,0.11537812583836826,0.1,0.0,0.0,280.0,724.0,0.0,1,16.0,1
1159,1159,0.7499561076359821,0.7,1.0,1.0,454.0,516.0,1.0,1,420.0,1
1160,1160,-0.7256953870144819,-0.7,1.0,0.0,303.0,826.0,0.0,0,711.0,1
1161,1161,0.4612125790161242,0.5,0.0,0.0,282.0,722.0,0.0,1,226.0,1
1162,1162,-0.7558466705355763,-0.8,1.0,0.0,410.0,502.0,0.0,0,288.0,1
1163,1163,0.6688325665279929,0.7,0.0,0.0,286.0,665.0,0.0,1,389.0,1
1164,1164,0.470958247484072,0.5,1.0,1.0,459.0,550.0,1.0,1,301.0,1
1165,1165,0.24052239855376267,0.2,1.0,1.0,329.0,956.0,1.0,1,775.0,1
1166,1166,0.5364303606070825,0.5,1.0,1.0,438.0,802.0,1.0,1,1540.0,1
1167,1167,0.3864613697242155,0.4,0.0,0.0,343.0,814.0,0.0,1,973.0,1
1168,1168,0.08663638613184754,0.1,0.0,0.0,325.0,722.0,0.0,1,3613.0,1
1169,1169,0.057341299944209445,0.1,0.0,0.0,464.0,965.0,0.0,1,2531.0,1
1170,1170,0.46313352969250554,0.5,0.0,0.0,417.0,819.0,0.0,1,304.0,1
1171,1171,0.09220426131515247,0.1,0.0,0.0,448.0,766.0,0.0,1,3786.0,1
1172,1172,-0.5691695237979492,-0.6,1.0,0.0,369.0,893.0,0.0,0,48.0,1
1173,1173,-0.12778542799178028,-0.1,1.0,0.0,444.0,638.0,0.0,0,1498.0,1
1174,1174,0.03255099742551415,0.0,0.0,0.0,311.0,680.0,1.0,0,4009.0,0
1175,1175,-0.341692015130455,-0.3,0.0,1.0,364.0,907.0,1.0,0,549.0,1
1176,1176,0.0871718266617526,0.1,0.0,0.0,453.0,922.0,1.0,0,3625.0,0
1177,1177,-0.7673300234488666,-0.8,0.0,1.0,273.0,858.0,1.0,0,449.0,1
1178,1178,-0.030188232051964414,-0.0,1.0,0.0,421.0,899.0,0.0,0,3680.0,1
1179,1179,0.5091487219678014,0.5,1.0,1.0,273.0,615.0,1.0,1,372.0,1
1180,1180,0.30112545700463056,0.3,0.0,0.0,478.0,500.0,0.0,1,502.0,1
1181,1181,-0.8932353088501581,-0.9,0.0,1.0,266.0,846.0,1.0,0,3888.0,1
1182,1182,-0.7741754618206218,-0.8,1.0,0.0,352.0,707.0,0.0,0,381.0,1
1183,1183,0.405516343453182,0.4,1.0,1.0,321.0,592.0,1.0,1,377.0,1
1184,1184,-0.20965011402783595,-0.2,1.0,0.0,468.0,706.0,0.0,0,1386.0,1
1185,1185,0.3111163381060985,0.3,1.0,1.0,387.0,811.0,1.0,1,1642.0,1
1186,1186,-0.6391470648051826,-0.6,0.0,1.0,416.0,622.0,1.0,0,242.0,1
1187,1187,-0.8725870010299592,-0.9,1.0,0.0,420.0,808.0,0.0,0,252.0,1
1188,1188,0.2201792612618999,0.2,0.0,0.0,409.0,758.0,0.0,1,3013.0,1
1189,1189,0.8626089089387837,0.9,1.0,1.0,311.0,529.0,1.0,1,360.0,1
1190,1190,-0.7827093423799604,-0.8,1.0,0.0,304.0,980.0,0.0,0,236.0,1
1191,1191,-0.16574674932175115,-0.2,1.0,0.0,291.0,991.0,0.0,0,2178.0,1
1192,1192,0.5634431092446864,0.6,1.0,1.0,430.0,585.0,1.0,1,1275.0,1
1193,1193,0.2614692669756734,0.3,0.0,0.0,388.0,813.0,1.0,0,-461.0,0
1194,1194,0.5026793275463922,0.5,0.0,0.0,476.0,834.0,0.0,1,510.0,1
1195,1195,-0.10038722449184168,-0.1,0.0,1.0,477.0,627.0,1.0,0,466.0,1
1196,1196,0.26381222676652094,0.3,0.0,0.0,361.0,637.0,0.0,1,372.0,1
1197,1197,-0.5941828514192531,-0.6,0.0,1.0,323.0,829.0,1.0,0,78.0,1
1198,1198,0.30014341262559585,0.3,1.0,1.0,253.0,542.0,1.0,1,1105.0,1
1199,1199,-0.2880658491691849,-0.3,0.0,1.0,438.0,945.0,1.0,0,237.0,1
1200,1200,0.12139406889864934,0.1,0.0,0.0,321.0,985.0,0.0,1,1364.0,1
1201,1201,0.1295645505832944,0.1,1.0,1.0,394.0,926.0,1.0,1,750.0,1
1202,1202,-0.3066292843158859,-0.3,1.0,0.0,402.0,913.0,0.0,0,705.0,1
1203,1203,-0.8553203469992738,-0.9,0.0,1.0,343.0,833.0,1.0,0,3824.0,1
1204,1204,-0.1838680091944691,-0.2,0.0,1.0,419.0,962.0,1.0,0,639.0,1
1205,1205,0.2563933527928194,0.3,0.0,0.0,301.0,541.0,0.0,1,938.0,1
1206,1206,0.7663561517452121,0.8,0.0,0.0,255.0,761.0,0.0,1,604.0,1
1207,1207,-0.17897813708235633,-0.2,1.0,0.0,480.0,972.0,0.0,0,2248.0,1
1208,1208,0.8776612819178858,0.9,0.0,0.0,432.0,693.0,0.0,1,585.0,1
1209,1209,-0.5416879180979055,-0.5,1.0,0.0,479.0,603.0,0.0,0,678.0,1
1210,1210,0.4009180365619468,0.4,1.0,1.0,323.0,584.0,1.0,1,943.0,1
1211,1211,0.34033343985773035,0.3,1.0,1.0,339.0,691.0,1.0,1,550.0,1
1212,1212,-0.25663698422923575,-0.3,0.0,1.0,275.0,528.0,1.0,0,1247.0,1
1213,1213,-0.30996834736004086,-0.3,1.0,0.0,442.0,540.0,0.0,0,418.0,1
1214,1214,0.5656491472532544,0.6,0.0,0.0,297.0,648.0,0.0,1,125.0,1
1215,1215,0.0766723322618148,0.1,1.0,1.0,364.0,950.0,1.0,1,3686.0,1
1216,1216,-0.7146276107696254,-0.7,0.0,1.0,361.0,798.0,1.0,0,191.0,1
1217,1217,0.33126600864684297,0.3,1.0,1.0,305.0,645.0,1.0,1,470.0,1
1218,1218,-0.05525077613712703,-0.1,0.0,1.0,350.0,959.0,1.0,0,1131.0,1
1219,1219,0.3117951147519654,0.3,0.0,0.0,465.0,591.0,0.0,1,694.0,1
1220,1220,-0.09805966248802334,-0.1,1.0,0.0,363.0,788.0,0.0,0,2379.0,1
1221,1221,0.6463545201041022,0.6,1.0,1.0,410.0,978.0,1.0,1,542.0,1
1222,1222,-0.8101682010955721,-0.8,1.0,0.0,263.0,886.0,0.0,0,561.0,1
1223,1223,0.44697666602441666,0.4,0.0,0.0,487.0,800.0,0.0,1,223.0,1
1224,1224,0.7479605869123048,0.7,1.0,1.0,463.0,629.0,1.0,1,718.0,1
1225,1225,0.4481427699496229,0.4,0.0,0.0,463.0,637.0,0.0,1,700.0,1
1226,1226,0.8079328188706402,0.8,1.0,1.0,392.0,972.0,1.0,1,296.0,1
1227,1227,0.3711114462602697,0.4,1.0,1.0,394.0,713.0,1.0,1,473.0,1
1228,1228,-0.8174304965268003,-0.8,1.0,0.0,311.0,593.0,0.0,0,346.0,1
1229,1229,-0.061667781157806356,-0.1,1.0,0.0,281.0,976.0,0.0,0,3163.0,1
1230,1230,0.8838692973798276,0.9,1.0,1.0,299.0,645.0,1.0,1,296.0,1
1231,1231,0.6160716698840695,0.6,1.0,1.0,328.0,991.0,1.0,1,321.0,1
1232,1232,0.8619062684615094,0.9,0.0,0.0,394.0,620.0,0.0,1,246.0,1
1233,1233,-0.5127765947969858,-0.5,1.0,0.0,299.0,865.0,0.0,0,656.0,1
1234,1234,0.15581654294496727,0.2,0.0,0.0,305.0,759.0,0.0,1,616.0,1
1235,1235,0.2361790292824234,0.2,0.0,0.0,327.0,874.0,0.0,1,1629.0,1
1236,1236,0.5134018738822018,0.5,0.0,0.0,420.0,700.0,0.0,1,850.0,1
1237,1237,0.5597299464501903,0.6,1.0,1.0,425.0,908.0,1.0,1,277.0,1
1238,1238,-0.14663732842064148,-0.1,0.0,1.0,354.0,690.0,1.0,0,3166.0,1
1239,1239,0.7734048115874775,0.8,1.0,1.0,437.0,536.0,1.0,1,147.0,1
1240,1240,-0.14415385739375275,-0.1,0.0,1.0,463.0,933.0,1.0,0,664.0,1
1241,1241,0.45135866084217235,0.5,0.0,0.0,300.0,613.0,0.0,1,587.0,1
1242,1242,0.7862464830597532,0.8,1.0,1.0,343.0,886.0,1.0,1,3771.0,1
1243,1243,0.43389555856102924,0.4,1.0,1.0,497.0,985.0,1.0,1,738.0,1
1244,1244,-0.611550465781213,-0.6,0.0,1.0,331.0,918.0,1.0,0,301.0,1
1245,1245,0.829318979533178,0.8,0.0,0.0,324.0,931.0,0.0,1,515.0,1
1246,1246,0.5162646886084367,0.5,1.0,1.0,410.0,682.0,1.0,1,548.0,1
1247,1247,0.7684117413521802,0.8,0.0,0.0,490.0,772.0,0.0,1,228.0,1
1248,1248,-0.23848610866208653,-0.2,0.0,1.0,348.0,939.0,1.0,0,2273.0,1
1249,1249,0.8600945242022392,0.9,1.0,1.0,265.0,884.0,1.0,1,661.0,1
1250,1250,-0.2944829147492155,-0.3,1.0,0.0,478.0,513.0,0.0,0,389.0,1
1251,1251,0.1087109185530929,0.1,1.0,1.0,404.0,575.0,1.0,1,661.0,1
1252,1252,-0.6497246538687614,-0.6,1.0,0.0,308.0,775.0,0.0,0,317.0,1
1253,1253,0.7250251480365196,0.7,0.0,0.0,347.0,602.0,0.0,1,631.0,1
1254,1254,-0.6405228362655682,-0.6,0.0,1.0,347.0,942.0,1.0,0,161.0,1
1255,1255,-0.5690469502616775,-0.6,1.0,0.0,315.0,845.0,0.0,0,340.0,1
1256,1256,-0.04117229125329658,-0.0,1.0,0.0,338.0,758.0,1.0,1,3904.0,0
1257,1257,-0.6928945881640124,-0.7,0.0,1.0,309.0,763.0,1.0,0,218.0,1
1258,1258,0.10921277331534351,0.1,0.0,0.0,419.0,974.0,0.0,1,1357.0,1
1259,1259,-0.10673250103237442,-0.1,0.0,1.0,321.0,818.0,1.0,0,1351.0,1
1260,1260,-0.07465815165674661,-0.1,0.0,1.0,288.0,685.0,1.0,0,757.0,1
1261,1261,-0.4767776099871893,-0.5,0.0,1.0,268.0,775.0,1.0,0,507.0,1
1262,1262,0.33709940810119654,0.3,1.0,1.0,460.0,518.0,1.0,1,432.0,1
1263,1263,-0.4956553350622267,-0.5,1.0,0.0,427.0,641.0,0.0,0,372.0,1
1264,1264,-0.21801189154913947,-0.2,1.0,0.0,315.0,645.0,0.0,0,650.0,1
1265,1265,0.13145177846330725,0.1,0.0,0.0,355.0,627.0,0.0,1,1788.0,1
1266,1266,-0.18543551534129288,-0.2,0.0,1.0,371.0,911.0,1.0,0,2778.0,1
1267,1267,-0.42807826146171357,-0.4,0.0,1.0,439.0,589.0,1.0,0,382.0,1
1268,1268,-0.24366251934124594,-0.2,0.0,1.0,365.0,922.0,1.0,0,1113.0,1
1269,1269,-0.6193975106601595,-0.6,0.0,1.0,445.0,888.0,1.0,0,347.0,1
1270,1270,-0.3828081432859789,-0.4,0.0,1.0,430.0,758.0,1.0,0,392.0,1
1271,1271,0.4242047451694927,0.4,0.0,0.0,461.0,845.0,0.0,1,304.0,1
1272,1272,-0.2749800688731975,-0.3,1.0,0.0,251.0,528.0,0.0,0,721.0,1
1273,1273,0.7118545065934757,0.7,1.0,1.0,359.0,520.0,1.0,1,241.0,1
1274,1274,0.6381310122173759,0.6,0.0,0.0,368.0,656.0,0.0,1,796.0,1
1275,1275,0.6787000965746487,0.7,1.0,1.0,484.0,829.0,1.0,1,177.0,1
1276,1276,0.28067442102399365,0.3,0.0,0.0,423.0,950.0,0.0,1,1257.0,1
1277,1277,0.04687250843382018,0.0,0.0,0.0,347.0,545.0,0.0,1,4108.0,1
1278,1278,-0.09846360554471012,-0.1,1.0,0.0,304.0,808.0,0.0,0,2458.0,1
1279,1279,0.628799359688191,0.6,1.0,1.0,491.0,783.0,1.0,1,266.0,1
1280,1280,-0.658792255909247,-0.7,0.0,1.0,448.0,697.0,1.0,0,275.0,1
1281,1281,-0.510449459745669,-0.5,1.0,0.0,432.0,615.0,0.0,0,463.0,1
1282,1282,0.17492181193321266,0.2,1.0,1.0,293.0,830.0,1.0,1,387.0,1
1283,1283,0.696408516098919,0.7,0.0,0.0,443.0,962.0,0.0,1,715.0,1
1284,1284,-0.3685631743593154,-0.4,0.0,1.0,435.0,824.0,1.0,0,381.0,1
1285,1285,-0.7872228491018085,-0.8,0.0,1.0,255.0,984.0,1.0,0,351.0,1
1286,1286,0.6343193201189105,0.6,1.0,1.0,276.0,719.0,1.0,1,295.0,1
1287,1287,-0.48661759573922964,-0.5,0.0,1.0,480.0,518.0,1.0,0,132.0,1
1288,1288,0.8302200000082857,0.8,0.0,0.0,259.0,665.0,0.0,1,326.0,1
1289,1289,0.6084208221624862,0.6,0.0,0.0,469.0,989.0,0.0,1,542.0,1
1290,1290,0.7438396289008101,0.7,0.0,0.0,393.0,765.0,0.0,1,182.0,1
1291,1291,-0.35860340552376657,-0.4,1.0,0.0,286.0,926.0,0.0,0,818.0,1
1292,1292,-0.2778651623862698,-0.3,0.0,1.0,404.0,655.0,1.0,0,311.0,1
1293,1293,0.14110644598026478,0.1,1.0,1.0,383.0,556.0,1.0,1,2691.0,1
1294,1294,-0.5485332730500629,-0.5,1.0,0.0,396.0,731.0,0.0,0,403.0,1
1295,1295,-0.32067651246746876,-0.3,1.0,0.0,324.0,806.0,0.0,0,910.0,1
1296,1296,0.03383668887839897,0.0,1.0,1.0,293.0,552.0,1.0,1,895.0,1
1297,1297,-0.23800757937150963,-0.2,1.0,0.0,396.0,640.0,0.0,0,774.0,1
1298,1298,-0.5276237388802383,-0.5,1.0,0.0,432.0,704.0,0.0,0,504.0,1
1299,1299,-0.6071251096532553,-0.6,1.0,0.0,368.0,878.0,0.0,0,594.0,1
1300,1300,0.09279582113987306,0.1,0.0,0.0,499.0,517.0,0.0,1,3764.0,1
1301,1301,0.06828645013029133,0.1,0.0,0.0,311.0,537.0,0.0,1,4152.0,1
1302,1302,0.49693178560723916,0.5,1.0,1.0,271.0,850.0,1.0,1,389.0,1
1303,1303,0.6465008351185103,0.6,1.0,1.0,434.0,930.0,1.0,1,296.0,1
1304,1304,0.03860642900147826,0.0,1.0,1.0,370.0,800.0,1.0,1,2070.0,1
1305,1305,0.638961440971329,0.6,1.0,1.0,374.0,819.0,1.0,1,277.0,1
1306,1306,-0.8124564228570934,-0.8,1.0,0.0,436.0,946.0,0.0,0,128.0,1
1307,1307,0.81829736128726,0.8,0.0,0.0,377.0,654.0,0.0,1,279.0,1
1308,1308,0.7430701536060001,0.7,1.0,1.0,464.0,765.0,1.0,1,191.0,1
1309,1309,0.7427615777219428,0.7,1.0,1.0,349.0,574.0,1.0,1,287.0,1
1310,1310,0.5418339987072621,0.5,1.0,1.0,319.0,609.0,1.0,1,292.0,1
1311,1311,0.2781836272001378,0.3,1.0,1.0,296.0,887.0,1.0,1,657.0,1
1312,1312,-0.5994658980757577,-0.6,1.0,0.0,309.0,773.0,0.0,0,178.0,1
1313,1313,-0.4475667880725483,-0.4,1.0,0.0,370.0,587.0,0.0,0,343.0,1
1314,1314,-0.6762529617151677,-0.7,0.0,1.0,431.0,742.0,1.0,0,347.0,1
1315,1315,-0.5931516607507907,-0.6,1.0,0.0,402.0,813.0,0.0,0,275.0,1
1316,1316,0.4037222757553084,0.4,1.0,1.0,466.0,623.0,1.0,1,181.0,1
1317,1317,-0.39587200062790207,-0.4,0.0,1.0,353.0,956.0,1.0,0,201.0,1
1318,1318,-0.3425470807294504,-0.3,1.0,0.0,385.0,686.0,0.0,0,769.0,1
1319,1319,-0.12278844508940756,-0.1,1.0,0.0,267.0,550.0,1.0,1,13.0,0
1320,1320,0.20559715592236316,0.2,1.0,1.0,259.0,790.0,1.0,1,471.0,1
1321,1321,0.311312129268709,0.3,1.0,1.0,408.0,560.0,1.0,1,222.0,1
1322,1322,0.870825567645889,0.9,0.0,0.0,487.0,934.0,1.0,0,-391.0,0
1323,1323,0.5521855131073282,0.6,1.0,1.0,385.0,655.0,1.0,1,250.0,1
1324,1324,0.06250624554163464,0.1,0.0,0.0,307.0,956.0,0.0,1,1827.0,1
1325,1325,-0.8399091943030551,-0.8,0.0,1.0,351.0,812.0,1.0,0,227.0,1
1326,1326,0.7282110003548622,0.7,1.0,1.0,382.0,763.0,1.0,1,115.0,1
1327,1327,-0.5282382216892876,-0.5,0.0,1.0,339.0,911.0,1.0,0,3750.0,1
1328,1328,0.2339129616250174,0.2,1.0,1.0,286.0,656.0,1.0,1,218.0,1
1329,1329,-0.7782816287225766,-0.8,1.0,0.0,413.0,724.0,0.0,0,663.0,1
1330,1330,0.061886679100048525,0.1,1.0,1.0,362.0,959.0,1.0,1,599.0,1
1331,1331,0.8593614913747197,0.9,0.0,0.0,315.0,538.0,0.0,1,527.0,1
1332,1332,0.7884159618095911,0.8,1.0,1.0,494.0,955.0,1.0,1,221.0,1
1333,1333,0.04453332743992611,0.0,0.0,0.0,353.0,617.0,1.0,0,2180.0,0
1334,1334,-0.15437409772985633,-0.2,0.0,1.0,253.0,874.0,1.0,0,2753.0,1
1335,1335,-0.42994084827311,-0.4,1.0,0.0,413.0,752.0,0.0,0,525.0,1
1336,1336,-0.7083769080207938,-0.7,0.0,1.0,375.0,683.0,1.0,0,592.0,1
1337,1337,0.3157126950212571,0.3,1.0,1.0,393.0,685.0,1.0,1,302.0,1
1338,1338,0.06619318024810583,0.1,0.0,0.0,434.0,854.0,0.0,1,782.0,1
1339,1339,-0.6843937087895021,-0.7,1.0,0.0,294.0,768.0,0.0,0,328.0,1
1340,1340,-0.39024238243419496,-0.4,0.0,1.0,352.0,991.0,1.0,0,457.0,1
1341,1341,-0.6489691960095292,-0.6,1.0,0.0,277.0,631.0,0.0,0,572.0,1
1342,1342,0.21889068897921338,0.2,0.0,0.0,424.0,972.0,0.0,1,704.0,1
1343,1343,0.6677331308126987,0.7,0.0,0.0,483.0,665.0,0.0,1,322.0,1
1344,1344,-0.6836304555657298,-0.7,0.0,1.0,472.0,611.0,1.0,0,397.0,1
1345,1345,0.3644436357781985,0.4,0.0,0.0,284.0,793.0,0.0,1,443.0,1
1346,1346,-0.21536759708901365,-0.2,0.0,1.0,485.0,716.0,0.0,1,69.0,0
1347,1347,0.17261672673528727,0.2,1.0,1.0,453.0,623.0,1.0,1,1014.0,1
1348,1348,-0.3977187390017196,-0.4,1.0,0.0,455.0,681.0,0.0,0,174.0,1
1349,1349,0.5212556997906331,0.5,1.0,1.0,305.0,548.0,1.0,1,347.0,1
1350,1350,0.6461491354144201,0.6,0.0,0.0,263.0,759.0,0.0,1,138.0,1
1351,1351,-0.3014764037191118,-0.3,1.0,0.0,313.0,707.0,0.0,0,930.0,1
1352,1352,-0.41119940561081214,-0.4,1.0,0.0,395.0,518.0,0.0,0,557.0,1
1353,1353,0.33528632932640823,0.3,0.0,0.0,307.0,536.0,0.0,1,497.0,1
1354,1354,-0.825638719841791,-0.8,0.0,1.0,260.0,964.0,1.0,0,116.0,1
1355,1355,-0.0536844765243879,-0.1,0.0,1.0,362.0,916.0,1.0,0,3722.0,1
1356,1356,-0.2354681924815707,-0.2,0.0,1.0,468.0,565.0,1.0,0,307.0,1
1357,1357,0.3671771442501309,0.4,0.0,0.0,285.0,620.0,0.0,1,405.0,1
1358,1358,0.5596617557817748,0.6,0.0,0.0,493.0,558.0,0.0,1,439.0,1
1359,1359,0.3854296847204569,0.4,1.0,1.0,281.0,525.0,1.0,1,474.0,1
1360,1360,-0.2007633020305848,-0.2,0.0,1.0,252.0,710.0,1.0,0,1248.0,1
1361,1361,0.7289753570846648,0.7,0.0,0.0,316.0,697.0,0.0,1,217.0,1
1362,1362,-0.26095061481443527,-0.3,1.0,0.0,449.0,655.0,0.0,0,716.0,1
1363,1363,0.3346318421917195,0.3,1.0,1.0,460.0,976.0,1.0,1,1284.0,1
1364,1364,0.3506413368110225,0.4,0.0,0.0,381.0,630.0,0.0,1,289.0,1
1365,1365,-0.13048153973130594,-0.1,1.0,0.0,330.0,773.0,1.0,1,3897.0,0
1366,1366,-0.8164098509222842,-0.8,1.0,0.0,417.0,826.0,0.0,0,327.0,1
1367,1367,-0.5515322052435938,-0.6,0.0,1.0,399.0,531.0,1.0,0,410.0,1
1368,1368,-0.819517287450296,-0.8,1.0,0.0,378.0,749.0,0.0,0,533.0,1
1369,1369,-0.8233898329154645,-0.8,0.0,1.0,475.0,813.0,1.0,0,182.0,1
1370,1370,-0.23973727736680417,-0.2,1.0,0.0,256.0,573.0,0.0,0,741.0,1
1371,1371,-0.5296100209352059,-0.5,0.0,1.0,320.0,596.0,1.0,0,2454.0,1
1372,1372,-0.5715695070808469,-0.6,1.0,0.0,345.0,534.0,0.0,0,601.0,1
1373,1373,-0.24488573592188378,-0.2,0.0,1.0,274.0,740.0,1.0,0,776.0,1
1374,1374,-0.20482797341960202,-0.2,1.0,0.0,402.0,679.0,0.0,0,329.0,1
1375,1375,-0.5373741572491215,-0.5,0.0,1.0,346.0,752.0,1.0,0,252.0,1
1376,1376,-0.00464983319097545,-0.0,1.0,0.0,287.0,935.0,1.0,1,3238.0,0
1377,1377,-0.38790643822558346,-0.4,0.0,1.0,438.0,659.0,1.0,0,573.0,1
1378,1378,0.241626397729234,0.2,0.0,0.0,401.0,859.0,0.0,1,780.0,1
1379,1379,0.34127367562036637,0.3,1.0,1.0,413.0,665.0,1.0,1,312.0,1
1380,1380,0.1804290545016537,0.2,0.0,0.0,481.0,505.0,0.0,1,734.0,1
1381,1381,0.7727131204675733,0.8,0.0,0.0,275.0,651.0,0.0,1,344.0,1
1382,1382,-0.6599760816227507,-0.7,1.0,0.0,448.0,680.0,0.0,0,482.0,1
1383,1383,0.4986413295263238,0.5,1.0,1.0,400.0,617.0,1.0,1,283.0,1
1384,1384,0.06841863941725157,0.1,1.0,1.0,265.0,951.0,1.0,1,2654.0,1
1385,1385,0.4088637980358226,0.4,1.0,1.0,403.0,621.0,1.0,1,56.0,1
1386,1386,-0.07812498505250298,-0.1,0.0,1.0,410.0,647.0,1.0,0,813.0,1
1387,1387,-0.8081285501429638,-0.8,1.0,0.0,345.0,584.0,0.0,0,321.0,1
1388,1388,0.39959725473809915,0.4,0.0,0.0,442.0,947.0,0.0,1,501.0,1
1389,1389,0.3056433721237565,0.3,1.0,1.0,320.0,750.0,1.0,1,360.0,1
1390,1390,0.5359758149413864,0.5,1.0,1.0,277.0,563.0,1.0,1,400.0,1
1391,1391,0.6526263773417186,0.7,1.0,1.0,314.0,936.0,1.0,1,160.0,1
1392,1392,-0.20816326540626273,-0.2,0.0,1.0,460.0,916.0,1.0,0,2134.0,1
1393,1393,0.0559041214461059,0.1,0.0,0.0,295.0,910.0,0.0,1,1175.0,1
1394,1394,0.45389493353011356,0.5,1.0,1.0,350.0,838.0,1.0,1,222.0,1
1395,1395,0.46521515013380965,0.5,0.0,0.0,461.0,846.0,0.0,1,813.0,1
1396,1396,-0.17224261883263747,-0.2,1.0,0.0,335.0,814.0,0.0,0,2471.0,1
1397,1397,0.09093842604296176,0.1,0.0,0.0,491.0,636.0,0.0,1,1513.0,1
1398,1398,0.6488564873433259,0.6,0.0,0.0,432.0,819.0,0.0,1,319.0,1
1399,1399,-0.2864603158801857,-0.3,1.0,0.0,303.0,581.0,0.0,0,266.0,1
1400,1400,-0.49346847097916885,-0.5,1.0,0.0,435.0,844.0,0.0,0,921.0,1
1401,1401,0.16887042133842323,0.2,1.0,1.0,378.0,820.0,1.0,1,902.0,1
1402,1402,0.0458299548879999,0.0,0.0,0.0,330.0,835.0,0.0,1,3835.0,1
1403,1403,-0.6301862443964509,-0.6,0.0,1.0,492.0,733.0,1.0,0,1505.0,1
1404,1404,0.5419375674766641,0.5,0.0,0.0,433.0,784.0,0.0,1,293.0,1
1405,1405,0.5118989754550495,0.5,0.0,0.0,485.0,862.0,0.0,1,343.0,1
1406,1406,-0.7873212563230191,-0.8,0.0,1.0,333.0,713.0,1.0,0,454.0,1
1407,1407,0.6369105339111972,0.6,1.0,1.0,433.0,878.0,1.0,1,569.0,1
1408,1408,-0.17956475098838698,-0.2,1.0,0.0,416.0,808.0,1.0,1,-234.0,0
1409,1409,-0.004060484394834418,-0.0,1.0,0.0,386.0,833.0,1.0,1,211.0,0
1410,1410,-0.28215077143458633,-0.3,1.0,0.0,336.0,561.0,0.0,0,1543.0,1
1411,1411,-0.2355966160256645,-0.2,0.0,1.0,309.0,953.0,1.0,0,1108.0,1
1412,1412,-0.36485137684917657,-0.4,1.0,0.0,466.0,827.0,0.0,0,697.0,1
1413,1413,-0.03884862054595073,-0.0,1.0,0.0,417.0,666.0,1.0,1,3917.0,0
1414,1414,-0.8821455395509257,-0.9,0.0,1.0,321.0,843.0,1.0,0,3836.0,1
1415,1415,-0.07368922737963168,-0.1,1.0,0.0,427.0,868.0,0.0,0,3705.0,1
1416,1416,0.8763355792767901,0.9,0.0,0.0,284.0,632.0,0.0,1,454.0,1
1417,1417,-0.009357315731999272,-0.0,1.0,0.0,493.0,841.0,0.0,0,3666.0,1
1418,1418,0.4200502490409731,0.4,1.0,1.0,460.0,666.0,1.0,1,344.0,1
1419,1419,-0.8566015184492602,-0.9,0.0,1.0,297.0,748.0,0.0,1,3955.0,0
1420,1420,-0.6913514455999772,-0.7,1.0,0.0,350.0,706.0,0.0,0,664.0,1
1421,1421,-0.7605634219257967,-0.8,0.0,1.0,460.0,601.0,1.0,0,969.0,1
1422,1422,0.8548495865688034,0.9,0.0,0.0,268.0,969.0,0.0,1,323.0,1
1423,1423,-0.2977172187850421,-0.3,1.0,0.0,409.0,884.0,0.0,0,957.0,1
1424,1424,0.7567356339755597,0.8,1.0,1.0,477.0,659.0,1.0,1,564.0,1
1425,1425,0.607278404025735,0.6,1.0,1.0,341.0,916.0,1.0,1,413.0,1
1426,1426,0.38055952107548896,0.4,0.0,0.0,295.0,746.0,0.0,1,679.0,1
1427,1427,-0.67680630348071,-0.7,1.0,0.0,271.0,622.0,0.0,0,237.0,1
1428,1428,0.804743424834094,0.8,0.0,0.0,462.0,590.0,0.0,1,168.0,1
1429,1429,-0.777389760407584,-0.8,0.0,1.0,264.0,703.0,0.0,1,-187.0,0
1430,1430,0.13537259567766735,0.1,0.0,0.0,414.0,723.0,1.0,0,-27.0,0
1431,1431,-0.3345904550012756,-0.3,0.0,1.0,449.0,819.0,1.0,0,52.0,1
1432,1432,-0.12324232802004731,-0.1,0.0,1.0,441.0,714.0,1.0,0,-165.0,1
1433,1433,-0.06296728141782748,-0.1,1.0,0.0,427.0,947.0,1.0,1,3626.0,0
1434,1434,-0.13334291187933311,-0.1,0.0,1.0,276.0,558.0,1.0,0,2386.0,1
1435,1435,0.004079515963019809,0.0,1.0,1.0,369.0,800.0,1.0,1,3251.0,1
1436,1436,0.5008989936645892,0.5,1.0,1.0,335.0,974.0,1.0,1,-189.0,1
1437,1437,-0.16042733647024188,-0.2,0.0,1.0,267.0,717.0,1.0,0,3376.0,1
1438,1438,-0.5936045864328147,-0.6,0.0,1.0,484.0,688.0,1.0,0,308.0,1
1439,1439,0.3656824881906092,0.4,0.0,0.0,261.0,905.0,0.0,1,524.0,1
1440,1440,-0.3935260272567712,-0.4,1.0,0.0,436.0,766.0,0.0,0,848.0,1
1441,1441,-0.6514615939598426,-0.7,0.0,1.0,282.0,516.0,1.0,0,172.0,1
1442,1442,-0.7442175542921217,-0.7,1.0,0.0,333.0,999.0,0.0,0,418.0,1
1443,1443,0.33962950007004833,0.3,1.0,1.0,259.0,840.0,1.0,1,121.0,1
1444,1444,-0.35941440400957825,-0.4,1.0,0.0,348.0,971.0,0.0,0,561.0,1
1445,1445,-0.5927686815862188,-0.6,1.0,0.0,268.0,537.0,0.0,0,1055.0,1
1446,1446,0.6605311048341872,0.7,0.0,0.0,446.0,647.0,0.0,1,167.0,1
1447,1447,-0.11604217678943729,-0.1,1.0,0.0,285.0,658.0,0.0,0,4057.0,1
1448,1448,-0.4252642614275534,-0.4,1.0,0.0,443.0,572.0,0.0,0,635.0,1
1449,1449,-0.13984253150745496,-0.1,1.0,0.0,350.0,843.0,0.0,0,3807.0,1
1450,1450,0.8360588959349763,0.8,1.0,1.0,432.0,901.0,1.0,1,377.0,1
1451,1451,0.8247195224374565,0.8,1.0,1.0,425.0,722.0,1.0,1,263.0,1
1452,1452,0.8730663191349056,0.9,1.0,1.0,301.0,627.0,1.0,1,332.0,1
1453,1453,-0.44977295025339487,-0.4,1.0,0.0,307.0,541.0,0.0,0,392.0,1
1454,1454,0.11178711477046621,0.1,1.0,1.0,420.0,697.0,1.0,1,473.0,1
1455,1455,0.6906272312463256,0.7,1.0,1.0,385.0,546.0,1.0,1,379.0,1
1456,1456,0.44054660604655693,0.4,0.0,0.0,327.0,543.0,0.0,1,710.0,1
1457,1457,-0.8164461643068169,-0.8,1.0,0.0,305.0,813.0,0.0,0,452.0,1
1458,1458,0.8613392264407868,0.9,0.0,0.0,347.0,944.0,0.0,1,319.0,1
1459,1459,0.5027539129185649,0.5,0.0,0.0,443.0,983.0,0.0,1,824.0,1
1460,1460,0.15449739821097508,0.2,1.0,1.0,341.0,683.0,1.0,1,1016.0,1
1461,1461,0.4343479542629799,0.4,1.0,1.0,344.0,909.0,1.0,1,257.0,1
1462,1462,-0.6417948185693847,-0.6,1.0,0.0,478.0,663.0,0.0,0,329.0,1
1463,1463,-0.48537044978275634,-0.5,0.0,1.0,482.0,544.0,1.0,0,294.0,1
1464,1464,-0.012437644373899381,-0.0,0.0,1.0,274.0,764.0,0.0,1,3962.0,0
1465,1465,0.5924960649351635,0.6,1.0,1.0,279.0,908.0,1.0,1,423.0,1
1466,1466,0.3264313708373311,0.3,1.0,1.0,435.0,685.0,1.0,1,430.0,1
1467,1467,-0.8375107961341601,-0.8,1.0,0.0,414.0,544.0,0.0,0,562.0,1
1468,1468,0.40759787065894393,0.4,0.0,0.0,443.0,961.0,0.0,1,276.0,1
1469,1469,0.8692798843328197,0.9,1.0,1.0,306.0,892.0,1.0,1,-318.0,1
1470,1470,-0.8729312652157633,-0.9,1.0,0.0,361.0,895.0,1.0,1,-86.0,0
1471,1471,-0.47230464973510494,-0.5,1.0,0.0,295.0,669.0,0.0,0,366.0,1
1472,1472,-0.8849781655530042,-0.9,1.0,0.0,298.0,568.0,0.0,0,234.0,1
1473,1473,-0.2600632807719042,-0.3,0.0,1.0,312.0,843.0,1.0,0,175.0,1
1474,1474,0.4436140997084045,0.4,1.0,1.0,380.0,583.0,1.0,1,967.0,1
1475,1475,0.13514424531397273,0.1,0.0,0.0,279.0,688.0,0.0,1,1513.0,1
1476,1476,0.4402444115766383,0.4,1.0,1.0,376.0,684.0,1.0,1,440.0,1
1477,1477,-0.7306865113390338,-0.7,0.0,1.0,447.0,608.0,1.0,0,3675.0,1
1478,1478,0.06993497708491714,0.1,0.0,0.0,298.0,555.0,0.0,1,4147.0,1
1479,1479,0.2880538401859495,0.3,0.0,0.0,265.0,539.0,0.0,1,1056.0,1
1480,1480,-0.2728790478627565,-0.3,0.0,1.0,473.0,735.0,1.0,0,1812.0,1
1481,1481,-0.0832366616931196,-0.1,1.0,0.0,432.0,956.0,0.0,0,3612.0,1
1482,1482,0.5546967610252634,0.6,1.0,1.0,314.0,867.0,1.0,1,99.0,1
1483,1483,-0.6934069712460644,-0.7,1.0,0.0,385.0,567.0,0.0,0,218.0,1
1484,1484,0.053738317100219035,0.1,1.0,1.0,382.0,938.0,1.0,1,190.0,1
1485,1485,-0.05989808536426333,-0.1,1.0,0.0,333.0,762.0,0.0,0,3905.0,1
1486,1486,0.8218573514318638,0.8,1.0,1.0,434.0,946.0,1.0,1,250.0,1
1487,1487,0.12950166157997145,0.1,0.0,0.0,400.0,542.0,0.0,1,638.0,1
1488,1488,-0.3726759001517881,-0.4,1.0,0.0,309.0,532.0,0.0,0,979.0,1
1489,1489,0.577541640185507,0.6,0.0,0.0,497.0,954.0,0.0,1,379.0,1
