,trial,coherence,coherence_bin,green_side,correct_side,target_onset,checker_onset,decision,green_decision,decision_time,correct_decision
0,0,0.7762170833710315,0.8,1.0,1.0,410.0,961.0,0.0,0,3629.0,0
1,1,0.37431980174306634,0.4,0.0,0.0,399.0,744.0,0.0,1,3857.0,1
2,2,-0.3539442863572685,-0.4,1.0,0.0,299.0,982.0,0.0,0,3719.0,1
3,3,-0.5232377675133995,-0.5,0.0,1.0,484.0,519.0,0.0,1,3997.0,0
4,4,0.08461952098430348,0.1,1.0,1.0,259.0,676.0,0.0,0,4065.0,0
5,5,-0.3467270036245226,-0.3,1.0,0.0,312.0,579.0,0.0,0,4109.0,1
6,6,-0.7389946812144974,-0.7,0.0,1.0,293.0,775.0,0.0,1,3932.0,0
7,7,-0.1286324718674533,-0.1,1.0,0.0,422.0,651.0,1.0,1,-1073.0,0
8,8,-0.5058660576600229,-0.5,0.0,1.0,427.0,956.0,0.0,1,3617.0,0
9,9,-0.33054851820983444,-0.3,0.0,1.0,481.0,866.0,1.0,0,-1317.0,1
10,10,0.38626753935989566,0.4,1.0,1.0,324.0,893.0,0.0,0,3783.0,0
11,11,0.09649405984062687,0.1,0.0,0.0,361.0,526.0,0.0,1,4113.0,1
12,12,0.351263048178616,0.4,0.0,0.0,328.0,892.0,0.0,1,3780.0,1
13,13,0.6399203789335325,0.6,1.0,1.0,416.0,536.0,0.0,0,4048.0,0
14,14,-0.09578453015717692,-0.1,0.0,1.0,379.0,684.0,0.0,1,3937.0,0
15,15,-0.05716213832803363,-0.1,1.0,0.0,472.0,618.0,1.0,1,-1050.0,0
16,16,0.5058839310688127,0.5,0.0,0.0,373.0,546.0,0.0,1,4081.0,1
17,17,-0.6252002023663223,-0.6,0.0,1.0,434.0,735.0,0.0,1,3831.0,0
18,18,-0.016404658223397983,-0.0,1.0,0.0,448.0,768.0,0.0,0,3784.0,1
19,19,0.21920794599314897,0.2,1.0,1.0,472.0,519.0,1.0,1,-781.0,1
20,20,-0.7227559648746529,-0.7,1.0,0.0,365.0,655.0,0.0,0,3980.0,1
21,21,0.20553720562082944,0.2,1.0,1.0,371.0,754.0,0.0,0,3875.0,0
22,22,0.06657598479309379,0.1,1.0,1.0,389.0,815.0,0.0,0,3796.0,0
23,23,-0.5264153312605087,-0.5,0.0,1.0,281.0,901.0,1.0,0,-1092.0,1
24,24,0.725393276933615,0.7,1.0,1.0,471.0,522.0,0.0,0,4007.0,0
25,25,-0.4363226537589187,-0.4,0.0,1.0,267.0,926.0,0.0,1,3807.0,0
26,26,-0.8866794436835074,-0.9,0.0,1.0,399.0,806.0,0.0,1,3795.0,0
27,27,-0.3113603265285041,-0.3,1.0,0.0,409.0,606.0,0.0,0,3985.0,1
28,28,0.5910224639384073,0.6,1.0,1.0,355.0,999.0,0.0,0,3646.0,0
29,29,-0.40210305729917856,-0.4,0.0,1.0,252.0,835.0,1.0,0,-1047.0,1
30,30,0.7903946475849856,0.8,1.0,1.0,294.0,679.0,0.0,0,4027.0,0
31,31,-0.655915241951185,-0.7,0.0,1.0,276.0,621.0,0.0,1,4103.0,0
32,32,0.4426762921457631,0.4,0.0,0.0,372.0,885.0,0.0,1,3743.0,1
33,33,-0.4209465388550711,-0.4,0.0,1.0,295.0,700.0,0.0,1,4005.0,0
34,34,0.8913839688117279,0.9,0.0,0.0,368.0,877.0,0.0,1,3755.0,1
35,35,-0.667579993195805,-0.7,1.0,0.0,430.0,935.0,0.0,0,3635.0,1
36,36,-0.2053316088261803,-0.2,1.0,0.0,275.0,671.0,0.0,0,4054.0,1
37,37,-0.8603100291354019,-0.9,1.0,0.0,415.0,547.0,0.0,0,4038.0,1
38,38,0.6948492038419679,0.7,1.0,1.0,401.0,855.0,0.0,0,3744.0,0
39,39,-0.7082322751649717,-0.7,0.0,1.0,378.0,695.0,0.0,1,3927.0,0
40,40,0.43408207109559627,0.4,1.0,1.0,258.0,749.0,0.0,0,3993.0,0
41,41,0.6578858989730815,0.7,0.0,0.0,499.0,793.0,0.0,1,3708.0,1
42,42,-0.23194687684251758,-0.2,0.0,1.0,448.0,620.0,0.0,1,3932.0,0
43,43,0.3236309864731072,0.3,0.0,0.0,429.0,993.0,0.0,1,3578.0,1
44,44,-0.4009525644686856,-0.4,1.0,0.0,352.0,637.0,0.0,0,4011.0,1
45,45,0.14817949435554512,0.1,0.0,0.0,473.0,503.0,0.0,1,4024.0,1
46,46,0.5244013921653795,0.5,0.0,0.0,436.0,937.0,0.0,1,3627.0,1
47,47,0.6928632980423634,0.7,0.0,0.0,365.0,749.0,0.0,1,3886.0,1
48,48,-0.8896195233749141,-0.9,1.0,0.0,316.0,686.0,0.0,0,3998.0,1
49,49,0.08624585937815354,0.1,0.0,0.0,347.0,755.0,0.0,1,3898.0,1
50,50,0.2213432680820474,0.2,1.0,1.0,438.0,583.0,0.0,0,3979.0,0
51,51,-0.7778762034196884,-0.8,1.0,0.0,261.0,992.0,0.0,0,3747.0,1
52,52,-0.7832831172867213,-0.8,0.0,1.0,425.0,752.0,0.0,1,3823.0,0
53,53,-0.3081966099957284,-0.3,0.0,1.0,294.0,842.0,0.0,1,3864.0,0
54,54,0.13477144634319893,0.1,0.0,0.0,495.0,782.0,0.0,1,3723.0,1
55,55,0.4118113908486757,0.4,0.0,0.0,450.0,876.0,0.0,1,3674.0,1
56,56,0.7539935658438762,0.8,0.0,0.0,368.0,544.0,0.0,1,4088.0,1
57,57,-0.7344229967383474,-0.7,1.0,0.0,297.0,832.0,0.0,0,3871.0,1
58,58,-0.7970756773113067,-0.8,1.0,0.0,274.0,698.0,0.0,0,4028.0,1
59,59,-0.5673789581203375,-0.6,1.0,0.0,477.0,985.0,1.0,1,-1432.0,0
60,60,0.23736699601337696,0.2,0.0,0.0,450.0,510.0,0.0,1,4040.0,1
61,61,0.3688403307907141,0.4,1.0,1.0,256.0,969.0,0.0,0,3775.0,0
62,62,-0.6136929245793346,-0.6,0.0,1.0,269.0,638.0,0.0,1,4093.0,0
63,63,0.6863933571287592,0.7,0.0,0.0,263.0,940.0,0.0,1,3797.0,1
64,64,0.5135007639783858,0.5,1.0,1.0,401.0,817.0,0.0,0,3782.0,0
65,65,-0.032047405689110464,-0.0,1.0,0.0,423.0,792.0,0.0,0,3785.0,1
66,66,-0.5570956725418548,-0.6,1.0,0.0,486.0,787.0,0.0,0,3727.0,1
67,67,-0.6850857186340322,-0.7,1.0,0.0,279.0,659.0,0.0,0,4062.0,1
68,68,0.7024047310458318,0.7,0.0,0.0,411.0,686.0,0.0,1,3903.0,1
69,69,0.6677604826877631,0.7,1.0,1.0,425.0,714.0,1.0,1,-989.0,1
70,70,0.6631581361247628,0.7,1.0,1.0,335.0,917.0,0.0,0,3748.0,0
71,71,-0.27511169926280044,-0.3,1.0,0.0,361.0,734.0,0.0,0,3905.0,1
72,72,-0.38432193118071656,-0.4,0.0,1.0,267.0,784.0,0.0,1,3949.0,0
73,73,-0.754693003811535,-0.8,1.0,0.0,371.0,920.0,0.0,0,3709.0,1
74,74,0.8065919985792006,0.8,0.0,0.0,278.0,845.0,1.0,0,-993.0,0
75,75,-0.36436507495126214,-0.4,0.0,1.0,497.0,888.0,0.0,1,3615.0,0
76,76,-0.5305265698996313,-0.5,1.0,0.0,498.0,905.0,0.0,0,3597.0,1
77,77,0.5497386108805608,0.5,1.0,1.0,283.0,575.0,0.0,0,4142.0,0
78,78,0.8308997981639296,0.8,1.0,1.0,253.0,528.0,0.0,0,4219.0,0
79,79,-0.7256155156852494,-0.7,1.0,0.0,437.0,675.0,0.0,0,3888.0,1
80,80,-0.3248160853379629,-0.3,1.0,0.0,443.0,917.0,0.0,0,3640.0,1
81,81,0.5619951361142467,0.6,0.0,0.0,261.0,573.0,0.0,1,4166.0,1
82,82,-0.19663391893958548,-0.2,1.0,0.0,366.0,608.0,1.0,1,-924.0,0
83,83,-0.7130315907861897,-0.7,0.0,1.0,445.0,609.0,0.0,1,3946.0,0
84,84,0.4100656440919265,0.4,1.0,1.0,448.0,990.0,0.0,0,3562.0,0
85,85,0.2562561888236673,0.3,1.0,1.0,399.0,507.0,0.0,0,4094.0,0
86,86,-0.5714222761383795,-0.6,1.0,0.0,309.0,503.0,0.0,0,4188.0,1
87,87,-0.10032442473198455,-0.1,1.0,0.0,409.0,786.0,0.0,0,3805.0,1
88,88,-0.43328904775106636,-0.4,0.0,1.0,450.0,630.0,0.0,1,3920.0,0
89,89,-0.3999429488440407,-0.4,0.0,1.0,322.0,939.0,0.0,1,3739.0,0
90,90,0.4090651662464714,0.4,1.0,1.0,260.0,638.0,0.0,0,4102.0,0
91,91,-0.10554968977804613,-0.1,0.0,1.0,333.0,750.0,0.0,1,3917.0,0
92,92,0.4660689162665391,0.5,1.0,1.0,408.0,820.0,1.0,1,-1148.0,1
93,93,0.6692336118088332,0.7,0.0,0.0,447.0,629.0,0.0,1,3924.0,1
94,94,0.25611136510077903,0.3,1.0,1.0,253.0,576.0,0.0,0,4171.0,0
95,95,0.07821543034689937,0.1,0.0,0.0,446.0,658.0,0.0,1,3896.0,1
96,96,0.056067475833603275,0.1,0.0,0.0,467.0,698.0,0.0,1,3835.0,1
97,97,-0.8435348939318651,-0.8,1.0,0.0,410.0,705.0,0.0,0,3885.0,1
98,98,0.6826564035343347,0.7,0.0,0.0,467.0,551.0,0.0,1,-528.0,1
99,99,0.05179529471667588,0.1,0.0,0.0,455.0,922.0,0.0,1,3623.0,1
100,100,-0.2075192249172626,-0.2,0.0,1.0,261.0,719.0,0.0,1,4020.0,0
101,101,0.8918663201894134,0.9,1.0,1.0,437.0,904.0,0.0,0,3659.0,0
102,102,0.2590372175355077,0.3,0.0,0.0,311.0,897.0,0.0,1,3792.0,1
103,103,0.8004645738596515,0.8,1.0,1.0,275.0,663.0,0.0,0,4062.0,0
104,104,-0.563092593268985,-0.6,0.0,1.0,414.0,706.0,0.0,1,3880.0,0
105,105,-0.052819098148844,-0.1,0.0,1.0,467.0,931.0,0.0,1,3602.0,0
106,106,0.15921282329618724,0.2,0.0,0.0,384.0,962.0,0.0,1,3654.0,1
107,107,-0.3518829310416979,-0.4,1.0,0.0,413.0,612.0,0.0,0,3975.0,1
108,108,0.5601935741426146,0.6,0.0,0.0,318.0,671.0,0.0,1,4011.0,1
109,109,-0.4790211310423137,-0.5,0.0,1.0,473.0,810.0,0.0,1,3717.0,0
110,110,0.5349417176714958,0.5,0.0,0.0,352.0,736.0,0.0,1,3912.0,1
111,111,0.0698225206200559,0.1,1.0,1.0,361.0,721.0,0.0,0,3918.0,0
112,112,-0.1282180402090839,-0.1,0.0,1.0,442.0,632.0,0.0,1,3926.0,0
113,113,0.4221812727990931,0.4,0.0,0.0,433.0,518.0,0.0,1,4049.0,1
114,114,0.3407893952083557,0.3,1.0,1.0,491.0,831.0,0.0,0,3678.0,0
115,115,-0.6691804866862847,-0.7,0.0,1.0,456.0,936.0,0.0,1,3608.0,0
116,116,0.38276087893768984,0.4,1.0,1.0,384.0,917.0,0.0,0,3699.0,0
117,117,-0.48308662759039916,-0.5,0.0,1.0,329.0,640.0,0.0,1,4031.0,0
118,118,0.11371018278467104,0.1,0.0,0.0,376.0,540.0,0.0,1,4084.0,1
119,119,-0.7319164282963364,-0.7,1.0,0.0,443.0,933.0,0.0,0,3624.0,1
120,120,-0.7105053803435755,-0.7,0.0,1.0,456.0,542.0,0.0,1,4002.0,0
121,121,0.30077062961170864,0.3,0.0,0.0,498.0,977.0,0.0,1,3525.0,1
122,122,0.3324179614448547,0.3,0.0,0.0,473.0,547.0,0.0,1,-560.0,1
123,123,-0.8245980853030062,-0.8,1.0,0.0,403.0,676.0,0.0,0,3921.0,1
124,124,0.7313892585782428,0.7,1.0,1.0,490.0,628.0,0.0,0,3882.0,0
125,125,-0.19387309069892134,-0.2,1.0,0.0,261.0,548.0,0.0,0,4191.0,1
126,126,-0.5054026647392682,-0.5,1.0,0.0,293.0,830.0,0.0,0,3877.0,1
127,127,0.36289879872753017,0.4,0.0,0.0,440.0,830.0,0.0,1,3730.0,1
128,128,-0.8874022487148765,-0.9,1.0,0.0,377.0,504.0,0.0,0,4119.0,1
129,129,-0.8812175599253234,-0.9,0.0,1.0,377.0,795.0,0.0,1,3828.0,0
130,130,0.12116873059583144,0.1,0.0,0.0,419.0,769.0,0.0,1,3812.0,1
131,131,0.08482376889259657,0.1,1.0,1.0,408.0,736.0,1.0,1,-1024.0,1
132,132,0.6581471834413745,0.7,0.0,0.0,257.0,673.0,0.0,1,4070.0,1
133,133,0.4200337282136687,0.4,0.0,0.0,367.0,516.0,0.0,1,4117.0,1
134,134,0.7957800634878432,0.8,1.0,1.0,405.0,945.0,0.0,0,3650.0,0
135,135,0.5873445310662807,0.6,0.0,0.0,321.0,691.0,0.0,1,3988.0,1
136,136,-0.004874784488631656,-0.0,1.0,0.0,391.0,963.0,1.0,1,-1244.0,0
137,137,0.3854135450739903,0.4,1.0,1.0,457.0,814.0,0.0,0,3729.0,0
138,138,0.8531223910253808,0.9,1.0,1.0,400.0,897.0,0.0,0,3703.0,0
139,139,0.07885828599600586,0.1,0.0,0.0,480.0,743.0,0.0,1,3777.0,1
140,140,-0.5851693074279899,-0.6,1.0,0.0,471.0,521.0,0.0,0,4008.0,1
141,141,0.15543560752451657,0.2,0.0,0.0,309.0,605.0,0.0,1,4086.0,1
142,142,-0.36764890904755865,-0.4,0.0,1.0,410.0,921.0,0.0,1,3669.0,0
143,143,0.24157572778418135,0.2,0.0,0.0,410.0,885.0,1.0,0,-1215.0,0
144,144,0.8126019928000449,0.8,0.0,0.0,487.0,525.0,0.0,1,3988.0,1
145,145,0.21145286794199614,0.2,1.0,1.0,252.0,557.0,0.0,0,4191.0,0
146,146,0.7696795553137427,0.8,0.0,0.0,402.0,728.0,1.0,0,-840.0,0
147,147,0.07730533414950835,0.1,0.0,0.0,374.0,772.0,0.0,1,3854.0,1
148,148,0.7761428222670789,0.8,0.0,0.0,499.0,982.0,0.0,1,3519.0,1
149,149,-0.37033742595116026,-0.4,0.0,1.0,312.0,752.0,0.0,1,3936.0,0
150,150,0.5726401690790831,0.6,1.0,1.0,278.0,916.0,1.0,1,-1174.0,1
151,151,0.746857618603784,0.7,0.0,0.0,413.0,714.0,0.0,1,3873.0,1
152,152,0.1355020363409537,0.1,1.0,1.0,473.0,919.0,0.0,0,3608.0,0
153,153,-0.6135297373984208,-0.6,1.0,0.0,424.0,812.0,0.0,0,3764.0,1
154,154,-0.07430453569152773,-0.1,1.0,0.0,258.0,527.0,0.0,0,4215.0,1
155,155,-0.8112973750985812,-0.8,1.0,0.0,496.0,530.0,0.0,0,3974.0,1
156,156,-0.6624984229361052,-0.7,0.0,1.0,390.0,592.0,1.0,0,-832.0,1
157,157,0.30534607687789295,0.3,0.0,0.0,320.0,928.0,0.0,1,3752.0,1
158,158,-0.24608611014604298,-0.2,0.0,1.0,269.0,641.0,0.0,1,4090.0,0
159,159,0.7843989974080335,0.8,0.0,0.0,409.0,612.0,0.0,1,3979.0,1
160,160,0.7825408065295599,0.8,1.0,1.0,286.0,725.0,0.0,0,3989.0,0
161,161,0.7499048513963346,0.7,1.0,1.0,350.0,655.0,1.0,1,-775.0,1
162,162,-0.8683349313978702,-0.9,1.0,0.0,370.0,702.0,0.0,0,3928.0,1
163,163,0.8896196477225892,0.9,0.0,0.0,411.0,825.0,0.0,1,3764.0,1
164,164,0.2295087985126011,0.2,1.0,1.0,391.0,652.0,1.0,1,-1003.0,1
165,165,-0.25108819822671724,-0.3,0.0,1.0,417.0,976.0,0.0,1,3607.0,0
166,166,0.21879595361602477,0.2,0.0,0.0,351.0,833.0,0.0,1,3816.0,1
167,167,0.28500963015616565,0.3,1.0,1.0,427.0,544.0,0.0,0,4029.0,0
168,168,0.856992699690592,0.9,1.0,1.0,471.0,952.0,1.0,1,-1303.0,1
169,169,-0.7272968199781529,-0.7,0.0,1.0,316.0,645.0,0.0,1,4039.0,0
170,170,0.14416192081003942,0.1,1.0,1.0,433.0,810.0,0.0,0,3757.0,0
171,171,0.6849656084008798,0.7,0.0,0.0,427.0,753.0,0.0,1,3820.0,1
172,172,-0.6267725861049511,-0.6,1.0,0.0,449.0,546.0,0.0,0,4005.0,1
173,173,-0.8889428975935668,-0.9,0.0,1.0,309.0,794.0,0.0,1,3897.0,0
174,174,0.2943029401624654,0.3,0.0,0.0,439.0,861.0,0.0,1,3700.0,1
175,175,-0.6599287084058639,-0.7,0.0,1.0,352.0,923.0,0.0,1,3725.0,0
176,176,0.5003171231007185,0.5,1.0,1.0,451.0,928.0,0.0,0,3621.0,0
177,177,-0.03539397874512917,-0.0,0.0,1.0,300.0,666.0,0.0,1,4034.0,0
178,178,-0.19175034954527237,-0.2,1.0,0.0,462.0,869.0,0.0,0,3669.0,1
179,179,-0.3512194229273303,-0.4,1.0,0.0,283.0,593.0,0.0,0,4124.0,1
180,180,0.4930474681458298,0.5,1.0,1.0,484.0,881.0,0.0,0,3635.0,0
181,181,-0.3192675990964101,-0.3,0.0,1.0,354.0,748.0,0.0,1,3898.0,0
182,182,0.6092381429875432,0.6,0.0,0.0,259.0,650.0,0.0,1,4091.0,1
183,183,-0.14187776526165363,-0.1,1.0,0.0,404.0,502.0,0.0,0,4094.0,1
184,184,-0.8850602462801531,-0.9,0.0,1.0,291.0,747.0,0.0,1,3962.0,0
185,185,0.6261191589367939,0.6,1.0,1.0,498.0,629.0,0.0,0,3873.0,0
186,186,0.14668920555568332,0.1,1.0,1.0,489.0,506.0,0.0,0,4005.0,0
187,187,-0.022548459030470647,-0.0,0.0,1.0,307.0,626.0,0.0,1,4067.0,0
188,188,0.5075856577791006,0.5,0.0,0.0,357.0,812.0,1.0,0,-1119.0,0
189,189,-0.7277774244612034,-0.7,0.0,1.0,466.0,638.0,0.0,1,3896.0,0
190,190,0.05474556007996689,0.1,0.0,0.0,317.0,544.0,0.0,1,4139.0,1
191,191,-0.1803047361350758,-0.2,0.0,1.0,270.0,849.0,0.0,1,3881.0,0
192,192,-0.34392448951334054,-0.3,0.0,1.0,265.0,575.0,0.0,1,4160.0,0
193,193,0.7661090963733451,0.8,1.0,1.0,470.0,761.0,0.0,0,3769.0,0
194,194,-0.5980453311844218,-0.6,1.0,0.0,408.0,766.0,0.0,0,3826.0,1
195,195,-0.14342834351689993,-0.1,0.0,1.0,492.0,751.0,0.0,1,3757.0,0
196,196,-0.13104494459068705,-0.1,1.0,0.0,352.0,702.0,0.0,0,3946.0,1
197,197,-0.6001142130964975,-0.6,0.0,1.0,419.0,756.0,0.0,1,3825.0,0
198,198,0.5533220808969884,0.6,0.0,0.0,485.0,602.0,1.0,0,-927.0,0
199,199,-0.10309550860611139,-0.1,1.0,0.0,419.0,785.0,0.0,0,3796.0,1
200,200,-0.38064439311839027,-0.4,0.0,1.0,395.0,810.0,0.0,1,3795.0,0
201,201,0.2921194029400932,0.3,0.0,0.0,456.0,534.0,0.0,1,4010.0,1
202,202,-0.749168717309862,-0.7,1.0,0.0,343.0,677.0,0.0,0,3980.0,1
203,203,-0.7666027225285785,-0.8,0.0,1.0,322.0,983.0,0.0,1,3695.0,0
204,204,0.32671244057670934,0.3,0.0,0.0,260.0,662.0,0.0,1,4078.0,1
205,205,0.14663190174775476,0.1,0.0,0.0,438.0,544.0,0.0,1,4018.0,1
206,206,-0.6942815469231451,-0.7,0.0,1.0,286.0,745.0,0.0,1,3969.0,0
207,207,-0.08760789518610324,-0.1,0.0,1.0,409.0,515.0,0.0,1,4076.0,0
208,208,-0.1849464773401276,-0.2,0.0,1.0,355.0,913.0,0.0,1,3732.0,0
209,209,-0.696085762358647,-0.7,0.0,1.0,310.0,622.0,1.0,0,-872.0,1
210,210,0.48622551830863603,0.5,0.0,0.0,272.0,970.0,0.0,1,3758.0,1
211,211,-0.599563884485296,-0.6,0.0,1.0,366.0,884.0,0.0,1,3750.0,0
212,212,-0.16660600260182212,-0.2,1.0,0.0,476.0,553.0,0.0,0,3971.0,1
213,213,-0.4342081848689786,-0.4,0.0,1.0,395.0,555.0,0.0,1,-540.0,0
214,214,-0.4663490451741832,-0.5,0.0,1.0,432.0,512.0,0.0,1,4056.0,0
215,215,-0.7076938236707866,-0.7,0.0,1.0,383.0,893.0,0.0,1,3724.0,0
216,216,0.20314314567266234,0.2,1.0,1.0,327.0,533.0,0.0,0,4140.0,0
217,217,-0.5579171950008408,-0.6,0.0,1.0,334.0,852.0,0.0,1,3814.0,0
218,218,-0.8025586126174455,-0.8,0.0,1.0,281.0,725.0,0.0,1,3994.0,0
219,219,-0.33600504846812573,-0.3,0.0,1.0,467.0,623.0,0.0,1,3910.0,0
220,220,-0.8730505242242196,-0.9,1.0,0.0,474.0,728.0,0.0,0,3798.0,1
221,221,-0.1384750187570154,-0.1,1.0,0.0,485.0,973.0,0.0,0,3542.0,1
222,222,0.3832061475809322,0.4,0.0,0.0,415.0,720.0,0.0,1,3865.0,1
223,223,-0.22860708019905285,-0.2,0.0,1.0,444.0,603.0,0.0,1,3953.0,0
224,224,-0.26948400817746976,-0.3,1.0,0.0,439.0,859.0,1.0,1,-1178.0,0
225,225,0.3453136434062324,0.3,0.0,0.0,343.0,799.0,0.0,1,3858.0,1
226,226,-0.5224461502653577,-0.5,1.0,0.0,340.0,829.0,0.0,0,3831.0,1
227,227,-0.668791681229915,-0.7,1.0,0.0,307.0,648.0,0.0,0,4045.0,1
228,228,-0.5017796024807788,-0.5,1.0,0.0,424.0,525.0,0.0,0,4051.0,1
229,229,-0.25662914567903505,-0.3,0.0,1.0,256.0,512.0,0.0,1,4232.0,0
230,230,-0.2378234172023751,-0.2,1.0,0.0,403.0,648.0,1.0,1,-971.0,0
231,231,0.7128877153525625,0.7,1.0,1.0,472.0,927.0,0.0,0,3601.0,0
232,232,-0.34106384159177305,-0.3,1.0,0.0,295.0,907.0,0.0,0,3798.0,1
233,233,0.3452922583949737,0.3,1.0,1.0,441.0,783.0,0.0,0,3776.0,0
234,234,-0.6042203483348758,-0.6,0.0,1.0,320.0,788.0,0.0,1,3892.0,0
235,235,-0.7661282676400504,-0.8,1.0,0.0,458.0,904.0,0.0,0,3638.0,1
236,236,0.5944813558199681,0.6,1.0,1.0,339.0,981.0,0.0,0,3680.0,0
237,237,0.09804112748192262,0.1,1.0,1.0,251.0,778.0,0.0,0,3971.0,0
238,238,0.4269878884184687,0.4,1.0,1.0,456.0,990.0,0.0,0,3554.0,0
239,239,-0.4897062746629068,-0.5,1.0,0.0,391.0,801.0,0.0,0,3808.0,1
240,240,0.2658350650189819,0.3,1.0,1.0,289.0,952.0,0.0,0,3759.0,0
241,241,-0.447182676709962,-0.4,1.0,0.0,429.0,695.0,0.0,0,3876.0,1
242,242,-0.25942676747196347,-0.3,0.0,1.0,476.0,829.0,1.0,0,-1185.0,1
243,243,0.8355667660457512,0.8,1.0,1.0,311.0,684.0,0.0,0,4005.0,0
244,244,-0.8459553800058135,-0.8,1.0,0.0,272.0,759.0,0.0,0,3969.0,1
245,245,-0.20037793950679628,-0.2,0.0,1.0,486.0,566.0,0.0,1,3948.0,0
246,246,0.7465214647239548,0.7,0.0,0.0,274.0,987.0,0.0,1,3739.0,1
247,247,-0.8836579907444794,-0.9,0.0,1.0,283.0,843.0,0.0,1,3874.0,0
248,248,-0.11857607914849544,-0.1,0.0,1.0,363.0,593.0,0.0,1,4044.0,0
249,249,-0.023338527045372204,-0.0,0.0,1.0,316.0,736.0,0.0,1,3948.0,0
250,250,-0.8808464836897977,-0.9,1.0,0.0,403.0,548.0,1.0,1,-711.0,0
251,251,0.4324721181006851,0.4,1.0,1.0,483.0,516.0,0.0,0,4001.0,0
252,252,-0.21254864913999416,-0.2,1.0,0.0,397.0,715.0,0.0,0,3888.0,1
253,253,0.17424963606597588,0.2,0.0,0.0,305.0,583.0,0.0,1,4112.0,1
254,254,0.20128642019880416,0.2,0.0,0.0,295.0,863.0,0.0,1,3842.0,1
255,255,-0.40237963716373,-0.4,1.0,0.0,400.0,769.0,0.0,0,3831.0,1
256,256,-0.27245725940255583,-0.3,0.0,1.0,404.0,631.0,0.0,1,3965.0,0
257,257,-0.6211802789153585,-0.6,0.0,1.0,349.0,961.0,0.0,1,3690.0,0
258,258,0.607026959833317,0.6,0.0,0.0,311.0,719.0,0.0,1,-730.0,1
259,259,0.2518056555322824,0.3,1.0,1.0,494.0,955.0,0.0,0,3551.0,0
260,260,0.5980907011897528,0.6,1.0,1.0,423.0,966.0,0.0,0,3611.0,0
261,261,-0.0927358857780215,-0.1,1.0,0.0,429.0,757.0,0.0,0,3814.0,1
262,262,-0.10217206447686533,-0.1,1.0,0.0,334.0,823.0,0.0,0,3843.0,1
263,263,0.141327457769021,0.1,0.0,0.0,429.0,663.0,0.0,1,-852.0,1
264,264,-0.5862768743921862,-0.6,0.0,1.0,466.0,767.0,0.0,1,3767.0,0
265,265,0.1626113126267762,0.2,0.0,0.0,331.0,824.0,1.0,0,-1155.0,0
266,266,0.7902699016276257,0.8,0.0,0.0,421.0,820.0,0.0,1,3759.0,1
267,267,0.8900648207861602,0.9,0.0,0.0,472.0,968.0,0.0,1,3560.0,1
268,268,0.03488068136320377,0.0,0.0,0.0,334.0,909.0,0.0,1,3757.0,1
269,269,0.04668087163489154,0.0,1.0,1.0,277.0,881.0,0.0,0,3842.0,0
270,270,-0.3946702241199058,-0.4,0.0,1.0,288.0,630.0,0.0,1,4082.0,0
271,271,-0.006842506724855091,-0.0,1.0,0.0,266.0,793.0,0.0,0,3941.0,1
272,272,-0.7818835180030806,-0.8,1.0,0.0,337.0,616.0,0.0,0,4047.0,1
273,273,0.5215391940018194,0.5,0.0,0.0,463.0,981.0,0.0,1,3556.0,1
274,274,0.031954547538934674,0.0,1.0,1.0,428.0,517.0,0.0,0,4055.0,0
275,275,-0.30658003040314186,-0.3,0.0,1.0,370.0,527.0,0.0,1,4103.0,0
276,276,-0.038869433109034124,-0.0,0.0,1.0,453.0,606.0,0.0,1,-639.0,0
277,277,-0.2929817036387532,-0.3,1.0,0.0,452.0,617.0,0.0,0,3931.0,1
278,278,0.880124211662256,0.9,1.0,1.0,403.0,593.0,0.0,0,4004.0,0
279,279,-0.738239963510474,-0.7,1.0,0.0,353.0,726.0,0.0,0,3921.0,1
280,280,0.20907664751839528,0.2,1.0,1.0,463.0,668.0,0.0,0,3869.0,0
281,281,0.5543989673538746,0.6,0.0,0.0,478.0,513.0,0.0,1,4009.0,1
282,282,0.20808025214265313,0.2,1.0,1.0,331.0,590.0,0.0,0,4079.0,0
283,283,-0.4198478822243757,-0.4,1.0,0.0,456.0,969.0,0.0,0,3575.0,1
284,284,0.48484203902189404,0.5,1.0,1.0,435.0,607.0,0.0,0,3958.0,0
285,285,-0.4829907416290211,-0.5,0.0,1.0,497.0,897.0,0.0,1,-894.0,0
286,286,-0.584653338503843,-0.6,0.0,1.0,344.0,574.0,0.0,1,4082.0,0
287,287,-0.2573015114017855,-0.3,1.0,0.0,342.0,616.0,1.0,1,-788.0,0
288,288,0.20570158935920768,0.2,1.0,1.0,357.0,578.0,0.0,0,4065.0,0
289,289,-0.20017095225838732,-0.2,1.0,0.0,490.0,889.0,1.0,1,-1369.0,0
290,290,0.4941301106590018,0.5,1.0,1.0,347.0,572.0,0.0,0,4081.0,0
291,291,-0.3223484761321346,-0.3,1.0,0.0,332.0,623.0,0.0,0,-585.0,1
292,292,-0.7905987509983112,-0.8,1.0,0.0,297.0,973.0,0.0,0,3730.0,1
293,293,0.05743059317459642,0.1,1.0,1.0,292.0,595.0,0.0,0,4113.0,0
294,294,-0.5776607306998365,-0.6,0.0,1.0,489.0,833.0,0.0,1,3678.0,0
295,295,-0.2813497221059371,-0.3,0.0,1.0,344.0,731.0,0.0,1,3925.0,0
296,296,-0.7449793506003913,-0.7,1.0,0.0,442.0,875.0,0.0,0,3683.0,1
297,297,-0.7818898048256054,-0.8,1.0,0.0,412.0,752.0,0.0,0,3836.0,1
298,298,-0.3762024781317539,-0.4,0.0,1.0,353.0,599.0,0.0,1,4048.0,0
299,299,0.8203350301442495,0.8,1.0,1.0,253.0,669.0,0.0,0,4078.0,0
300,300,0.48753874306235245,0.5,0.0,0.0,440.0,544.0,0.0,1,4016.0,1
301,301,0.28141568502121117,0.3,0.0,0.0,363.0,769.0,0.0,1,3868.0,1
302,302,0.2971997039479567,0.3,1.0,1.0,284.0,917.0,0.0,0,3799.0,0
303,303,-0.024927039037900944,-0.0,0.0,1.0,393.0,561.0,0.0,1,4046.0,0
304,304,-0.28673204042085265,-0.3,1.0,0.0,450.0,585.0,0.0,0,3965.0,1
305,305,-0.7214840098910913,-0.7,0.0,1.0,259.0,785.0,0.0,1,3956.0,0
306,306,0.3381331381950202,0.3,1.0,1.0,340.0,890.0,0.0,0,3770.0,0
307,307,0.34414921995430936,0.3,1.0,1.0,390.0,568.0,0.0,0,4042.0,0
308,308,0.8310387149634321,0.8,1.0,1.0,439.0,672.0,0.0,0,3889.0,0
309,309,-0.23385445093758928,-0.2,0.0,1.0,256.0,683.0,0.0,1,4061.0,0
310,310,0.07756679196733185,0.1,1.0,1.0,308.0,548.0,0.0,0,4144.0,0
311,311,-0.6082831111016942,-0.6,1.0,0.0,383.0,777.0,0.0,0,3840.0,1
312,312,-0.014125157207475425,-0.0,0.0,1.0,499.0,731.0,0.0,1,3770.0,0
313,313,-0.6807870949745498,-0.7,0.0,1.0,376.0,853.0,0.0,1,3771.0,0
314,314,-0.7586665692661638,-0.8,1.0,0.0,435.0,873.0,0.0,0,3692.0,1
315,315,0.6368004507279136,0.6,0.0,0.0,431.0,913.0,0.0,1,3656.0,1
316,316,-0.0422355161161897,-0.0,1.0,0.0,358.0,809.0,0.0,0,3833.0,1
317,317,0.7872230420649741,0.8,0.0,0.0,485.0,712.0,0.0,1,3803.0,1
318,318,-0.8710022528932274,-0.9,1.0,0.0,332.0,726.0,0.0,0,3942.0,1
319,319,-0.5854326748838026,-0.6,1.0,0.0,417.0,577.0,0.0,0,4006.0,1
320,320,-0.6247688132500724,-0.6,0.0,1.0,453.0,771.0,0.0,1,3776.0,0
321,321,0.2934293154565649,0.3,1.0,1.0,437.0,779.0,0.0,0,3784.0,0
322,322,0.24972130218013155,0.2,0.0,0.0,422.0,549.0,0.0,1,4029.0,1
323,323,0.13953068709637673,0.1,1.0,1.0,322.0,931.0,0.0,0,3747.0,0
324,324,-0.6740804898759538,-0.7,0.0,1.0,399.0,784.0,0.0,1,3817.0,0
325,325,0.009599171239597859,0.0,1.0,1.0,275.0,651.0,0.0,0,4074.0,0
326,326,0.11036110552194967,0.1,0.0,0.0,312.0,774.0,0.0,1,3914.0,1
327,327,-0.39689120764185726,-0.4,1.0,0.0,288.0,947.0,0.0,0,3765.0,1
328,328,-0.8377089260072994,-0.8,1.0,0.0,460.0,618.0,0.0,0,3922.0,1
329,329,-0.23347788596399177,-0.2,1.0,0.0,414.0,561.0,1.0,1,-605.0,0
330,330,0.12478959881212914,0.1,1.0,1.0,472.0,862.0,0.0,0,3666.0,0
331,331,0.23118327673575323,0.2,1.0,1.0,455.0,862.0,0.0,0,3683.0,0
332,332,-0.7366056665901534,-0.7,0.0,1.0,379.0,553.0,0.0,1,4068.0,0
333,333,-0.5721432537403119,-0.6,0.0,1.0,357.0,879.0,0.0,1,3764.0,0
334,334,-0.29523260616738,-0.3,0.0,1.0,496.0,713.0,0.0,1,3791.0,0
335,335,-0.7346080309985208,-0.7,1.0,0.0,332.0,844.0,0.0,0,3824.0,1
336,336,-0.034442267375708546,-0.0,0.0,1.0,433.0,628.0,0.0,1,3939.0,0
337,337,-0.8842638146591534,-0.9,0.0,1.0,369.0,877.0,0.0,1,3754.0,0
338,338,0.4201064914978617,0.4,1.0,1.0,272.0,768.0,0.0,0,3960.0,0
339,339,0.7575570890716267,0.8,1.0,1.0,319.0,527.0,0.0,0,4154.0,0
340,340,0.20369514332843475,0.2,1.0,1.0,361.0,670.0,0.0,0,3969.0,0
341,341,-0.6001830108537074,-0.6,1.0,0.0,461.0,759.0,0.0,0,3780.0,1
342,342,-0.694468046078571,-0.7,0.0,1.0,268.0,897.0,0.0,1,3835.0,0
343,343,0.21107351858931855,0.2,0.0,0.0,401.0,758.0,0.0,1,3841.0,1
344,344,0.4819283729301117,0.5,0.0,0.0,274.0,577.0,0.0,1,4149.0,1
345,345,-0.22138149531019635,-0.2,1.0,0.0,300.0,744.0,0.0,0,3956.0,1
346,346,0.06430559926429624,0.1,0.0,0.0,345.0,975.0,0.0,1,3680.0,1
347,347,-0.14167484822056609,-0.1,1.0,0.0,432.0,799.0,0.0,0,3769.0,1
348,348,-0.4004901238644443,-0.4,1.0,0.0,372.0,923.0,0.0,0,3705.0,1
349,349,-0.4833659793097513,-0.5,0.0,1.0,381.0,893.0,0.0,1,3726.0,0
350,350,-0.6245449627726125,-0.6,0.0,1.0,362.0,994.0,0.0,1,3644.0,0
351,351,0.7851286793674871,0.8,0.0,0.0,318.0,688.0,0.0,1,3994.0,1
352,352,-0.3451835206512819,-0.3,0.0,1.0,493.0,912.0,0.0,1,3595.0,0
353,353,0.3182728134824121,0.3,0.0,0.0,322.0,887.0,0.0,1,3791.0,1
354,354,0.5271038026263076,0.5,1.0,1.0,252.0,508.0,0.0,0,4240.0,0
355,355,0.6378148547379044,0.6,0.0,0.0,433.0,775.0,1.0,0,-1018.0,0
356,356,-0.20809082255317268,-0.2,0.0,1.0,491.0,867.0,0.0,1,3642.0,0
357,357,0.3041047239560063,0.3,0.0,0.0,336.0,940.0,0.0,1,3724.0,1
358,358,-0.2948576111956781,-0.3,0.0,1.0,285.0,507.0,0.0,1,4208.0,0
359,359,0.02309814283639411,0.0,0.0,0.0,462.0,536.0,0.0,1,4002.0,1
360,360,-0.4778516321199142,-0.5,0.0,1.0,293.0,850.0,0.0,1,3857.0,0
361,361,-0.722610799304693,-0.7,1.0,0.0,297.0,620.0,0.0,0,4083.0,1
362,362,-0.17913501963634326,-0.2,1.0,0.0,272.0,800.0,1.0,1,-1012.0,0
363,363,0.8484131507612424,0.8,0.0,0.0,359.0,892.0,0.0,1,3749.0,1
364,364,-0.033248234884366124,-0.0,1.0,0.0,432.0,768.0,0.0,0,3800.0,1
365,365,0.1868355839408794,0.2,1.0,1.0,281.0,608.0,0.0,0,4111.0,0
366,366,-0.7575346634545967,-0.8,0.0,1.0,358.0,865.0,0.0,1,3777.0,0
367,367,-0.8727507645324637,-0.9,0.0,1.0,383.0,846.0,0.0,1,3771.0,0
368,368,-0.553034311683483,-0.6,0.0,1.0,404.0,743.0,0.0,1,3853.0,0
369,369,0.8021886264231918,0.8,0.0,0.0,383.0,851.0,0.0,1,3766.0,1
370,370,-0.5808836896629999,-0.6,1.0,0.0,480.0,818.0,0.0,0,3702.0,1
371,371,-0.14263857987497464,-0.1,1.0,0.0,362.0,956.0,0.0,0,3682.0,1
372,372,0.17842219363013656,0.2,0.0,0.0,338.0,628.0,0.0,1,4034.0,1
373,373,-0.6025761151433396,-0.6,0.0,1.0,499.0,728.0,0.0,1,3773.0,0
374,374,-0.7598505799031564,-0.8,1.0,0.0,447.0,698.0,0.0,0,3855.0,1
375,375,0.8484324334404877,0.8,0.0,0.0,345.0,573.0,0.0,1,4082.0,1
376,376,0.07690872275097693,0.1,1.0,1.0,377.0,721.0,0.0,0,3902.0,0
377,377,-0.7019484377123985,-0.7,0.0,1.0,331.0,847.0,0.0,1,3822.0,0
378,378,-0.35212480521067446,-0.4,1.0,0.0,283.0,948.0,0.0,0,3769.0,1
379,379,-0.7160153252883042,-0.7,0.0,1.0,462.0,552.0,0.0,1,3986.0,0
380,380,-0.08282806879714466,-0.1,0.0,1.0,498.0,819.0,0.0,1,3683.0,0
381,381,-0.8208441047037124,-0.8,0.0,1.0,275.0,907.0,0.0,1,3818.0,0
382,382,-0.038250861040612816,-0.0,0.0,1.0,349.0,927.0,0.0,1,3724.0,0
383,383,0.6316678399026209,0.6,1.0,1.0,363.0,525.0,0.0,0,4112.0,0
384,384,0.07563759650812885,0.1,1.0,1.0,383.0,608.0,0.0,0,4009.0,0
385,385,0.8209463241750924,0.8,1.0,1.0,344.0,661.0,0.0,0,3995.0,0
386,386,0.02738116337253127,0.0,1.0,1.0,491.0,620.0,0.0,0,3889.0,0
387,387,0.7606584885560338,0.8,0.0,0.0,421.0,729.0,0.0,1,3850.0,1
388,388,-0.32666735601345354,-0.3,1.0,0.0,305.0,721.0,0.0,0,3974.0,1
389,389,0.3597695629844352,0.4,1.0,1.0,362.0,777.0,0.0,0,3861.0,0
390,390,0.5082781414320395,0.5,1.0,1.0,282.0,964.0,0.0,0,3754.0,0
391,391,-0.22379094943561284,-0.2,0.0,1.0,291.0,564.0,0.0,1,4145.0,0
392,392,-0.8854859890676264,-0.9,1.0,0.0,416.0,967.0,0.0,0,3617.0,1
393,393,-0.5296404451359735,-0.5,1.0,0.0,427.0,853.0,0.0,0,3720.0,1
394,394,-0.8996595388315975,-0.9,0.0,1.0,402.0,635.0,0.0,1,3963.0,0
395,395,-0.45653920770187617,-0.5,0.0,1.0,281.0,549.0,0.0,1,4170.0,0
396,396,0.7643475404357832,0.8,0.0,0.0,278.0,739.0,0.0,1,3983.0,1
397,397,-0.22030064341443312,-0.2,0.0,1.0,370.0,917.0,0.0,1,3713.0,0
398,398,0.45054838127864116,0.5,0.0,0.0,301.0,825.0,0.0,1,3874.0,1
399,399,-0.1944439425517287,-0.2,0.0,1.0,269.0,822.0,0.0,1,3909.0,0
400,400,0.29243017964136386,0.3,1.0,1.0,279.0,747.0,0.0,0,3974.0,0
401,401,-0.019587977132055068,-0.0,0.0,1.0,369.0,945.0,0.0,1,3686.0,0
402,402,-0.35080050693989284,-0.4,1.0,0.0,311.0,950.0,0.0,0,3739.0,1
403,403,0.7041334311661068,0.7,0.0,0.0,354.0,805.0,1.0,0,-1089.0,0
404,404,0.650107311518488,0.7,0.0,0.0,304.0,677.0,0.0,1,4019.0,1
405,405,0.5819063901351266,0.6,0.0,0.0,439.0,779.0,0.0,1,3782.0,1
406,406,-0.2627643614342561,-0.3,0.0,1.0,491.0,546.0,0.0,1,3963.0,0
407,407,0.6901561098121983,0.7,1.0,1.0,436.0,983.0,0.0,0,3581.0,0
408,408,-0.02204675627668462,-0.0,1.0,0.0,295.0,754.0,0.0,0,3951.0,1
409,409,-0.2148467698635671,-0.2,0.0,1.0,326.0,587.0,0.0,1,4087.0,0
410,410,-0.10944314158904467,-0.1,0.0,1.0,313.0,980.0,0.0,1,3707.0,0
411,411,-0.6965655038226676,-0.7,0.0,1.0,323.0,606.0,0.0,1,4071.0,0
412,412,0.16790643617333723,0.2,1.0,1.0,410.0,970.0,1.0,1,-1300.0,1
413,413,0.023925425198943473,0.0,1.0,1.0,250.0,735.0,0.0,0,4015.0,0
414,414,0.5996853816845419,0.6,1.0,1.0,310.0,691.0,0.0,0,3999.0,0
415,415,-0.6992381780970827,-0.7,0.0,1.0,258.0,567.0,0.0,1,4175.0,0
416,416,-0.6137178703056938,-0.6,0.0,1.0,337.0,931.0,0.0,1,3732.0,0
417,417,-0.7718126499771583,-0.8,0.0,1.0,364.0,611.0,0.0,1,4025.0,0
418,418,0.4111881636618476,0.4,1.0,1.0,267.0,770.0,0.0,0,3963.0,0
419,419,0.8769460789254683,0.9,1.0,1.0,390.0,910.0,0.0,0,3700.0,0
420,420,0.0765965641438251,0.1,0.0,0.0,304.0,753.0,0.0,1,3943.0,1
421,421,0.04899066246648831,0.0,1.0,1.0,287.0,560.0,0.0,0,4153.0,0
422,422,0.7056528682417246,0.7,1.0,1.0,321.0,989.0,0.0,0,3690.0,0
423,423,-0.018365786094534653,-0.0,1.0,0.0,311.0,890.0,0.0,0,3799.0,1
424,424,0.0030195827566315003,0.0,1.0,1.0,278.0,889.0,0.0,0,3833.0,0
425,425,0.6081220477987234,0.6,1.0,1.0,342.0,912.0,0.0,0,-714.0,0
426,426,0.25507248945641037,0.3,0.0,0.0,408.0,976.0,0.0,1,3616.0,1
427,427,0.4718073967498414,0.5,1.0,1.0,490.0,739.0,0.0,0,3771.0,0
428,428,0.13529995195183775,0.1,1.0,1.0,470.0,972.0,0.0,0,3558.0,0
429,429,0.30326996411767004,0.3,1.0,1.0,498.0,745.0,0.0,0,3757.0,0
430,430,-0.4250989402297794,-0.4,0.0,1.0,319.0,852.0,0.0,1,3829.0,0
431,431,-0.019745341536376082,-0.0,0.0,1.0,415.0,836.0,0.0,1,3749.0,0
432,432,-0.03965461223192834,-0.0,0.0,1.0,250.0,961.0,0.0,1,3789.0,0
433,433,-0.29732527586581614,-0.3,1.0,0.0,439.0,942.0,0.0,0,3619.0,1
434,434,-0.384915661373587,-0.4,1.0,0.0,416.0,863.0,0.0,0,3721.0,1
435,435,0.5360335091122673,0.5,1.0,1.0,297.0,704.0,0.0,0,3999.0,0
436,436,0.5032917940269054,0.5,1.0,1.0,388.0,561.0,0.0,0,4051.0,0
437,437,0.2469865670160335,0.2,0.0,0.0,342.0,725.0,0.0,1,3933.0,1
438,438,0.02753478489215544,0.0,0.0,0.0,391.0,663.0,1.0,0,-974.0,0
439,439,-0.8031609682774395,-0.8,0.0,1.0,490.0,648.0,0.0,1,3862.0,0
440,440,-0.5231878329023399,-0.5,0.0,1.0,422.0,992.0,0.0,1,3586.0,0
441,441,-0.5106545796336441,-0.5,1.0,0.0,437.0,787.0,0.0,0,3776.0,1
442,442,-0.7080948617345889,-0.7,0.0,1.0,333.0,938.0,0.0,1,3729.0,0
443,443,0.7687566613820894,0.8,1.0,1.0,312.0,576.0,0.0,0,4112.0,0
444,444,0.7411812381644082,0.7,1.0,1.0,329.0,747.0,0.0,0,3924.0,0
445,445,-0.7540787898134669,-0.8,1.0,0.0,404.0,961.0,0.0,0,3635.0,1
446,446,-0.12504121172161042,-0.1,1.0,0.0,342.0,902.0,0.0,0,3756.0,1
447,447,-0.4344117549216412,-0.4,0.0,1.0,391.0,901.0,0.0,1,3708.0,0
448,448,0.1878251259417375,0.2,0.0,0.0,305.0,571.0,0.0,1,4124.0,1
449,449,-0.7282330425624872,-0.7,0.0,1.0,378.0,998.0,0.0,1,3624.0,0
450,450,0.034703543360925626,0.0,0.0,0.0,409.0,646.0,0.0,1,3945.0,1
451,451,0.0959226691319589,0.1,0.0,0.0,448.0,659.0,0.0,1,3893.0,1
452,452,-0.068903517912555,-0.1,0.0,1.0,361.0,779.0,0.0,1,3860.0,0
453,453,-0.1260071192447243,-0.1,1.0,0.0,419.0,867.0,0.0,0,3714.0,1
454,454,-0.6054854758970798,-0.6,0.0,1.0,357.0,630.0,0.0,1,4013.0,0
455,455,-0.16135877569470336,-0.2,1.0,0.0,383.0,754.0,0.0,0,3863.0,1
456,456,0.02699472383845236,0.0,1.0,1.0,443.0,595.0,0.0,0,3962.0,0
457,457,-0.28718991301024355,-0.3,0.0,1.0,279.0,689.0,0.0,1,4032.0,0
458,458,0.6955111899347991,0.7,1.0,1.0,319.0,865.0,0.0,0,-784.0,0
459,459,-0.43719809432579043,-0.4,0.0,1.0,318.0,911.0,0.0,1,3771.0,0
460,460,-0.3616722370148848,-0.4,0.0,1.0,399.0,940.0,0.0,1,3661.0,0
461,461,-0.6703201146950908,-0.7,0.0,1.0,320.0,990.0,0.0,1,3690.0,0
462,462,0.07105269058714336,0.1,0.0,0.0,401.0,531.0,0.0,1,4068.0,1
463,463,-0.8243994112415218,-0.8,0.0,1.0,267.0,500.0,0.0,1,4233.0,0
464,464,-0.2477011903893217,-0.2,1.0,0.0,314.0,519.0,0.0,0,4167.0,1
465,465,-0.6983530724500646,-0.7,0.0,1.0,390.0,536.0,0.0,1,4074.0,0
466,466,0.7082007930647861,0.7,0.0,0.0,344.0,535.0,0.0,1,4121.0,1
467,467,-0.35850692222607305,-0.4,0.0,1.0,383.0,727.0,0.0,1,3890.0,0
468,468,0.2602100939193682,0.3,1.0,1.0,456.0,734.0,0.0,0,3810.0,0
469,469,-0.4306744447720483,-0.4,0.0,1.0,386.0,855.0,0.0,1,3759.0,0
470,470,-0.0896111938862254,-0.1,1.0,0.0,324.0,732.0,0.0,0,3944.0,1
471,471,-0.3691131531235269,-0.4,0.0,1.0,281.0,814.0,1.0,0,-855.0,1
472,472,0.8390609555700833,0.8,0.0,0.0,407.0,825.0,0.0,1,3768.0,1
473,473,0.45145099207030925,0.5,0.0,0.0,352.0,758.0,0.0,1,3890.0,1
474,474,0.7007862110952235,0.7,1.0,1.0,354.0,726.0,0.0,0,3920.0,0
475,475,-0.31981421262195453,-0.3,1.0,0.0,354.0,761.0,0.0,0,3885.0,1
476,476,0.8458038906151942,0.8,1.0,1.0,319.0,779.0,0.0,0,3902.0,0
477,477,-0.5003806401281676,-0.5,0.0,1.0,453.0,895.0,0.0,1,3652.0,0
478,478,-0.19442769587885134,-0.2,1.0,0.0,360.0,652.0,0.0,0,3988.0,1
479,479,0.8322757091737697,0.8,0.0,0.0,262.0,791.0,0.0,1,3947.0,1
480,480,0.1385504897686819,0.1,1.0,1.0,264.0,969.0,0.0,0,3767.0,0
481,481,0.11752509079120144,0.1,1.0,1.0,267.0,518.0,0.0,0,4215.0,0
482,482,-0.19760821844848886,-0.2,1.0,0.0,420.0,621.0,0.0,0,3959.0,1
483,483,0.1887230241722525,0.2,1.0,1.0,431.0,668.0,1.0,1,-869.0,1
484,484,0.6790663345114,0.7,0.0,0.0,383.0,765.0,0.0,1,3852.0,1
485,485,0.3789108803787157,0.4,0.0,0.0,488.0,523.0,0.0,1,3989.0,1
486,486,-0.34797905379816063,-0.3,0.0,1.0,329.0,845.0,0.0,1,3826.0,0
487,487,-0.20590358678213827,-0.2,0.0,1.0,467.0,681.0,0.0,1,3852.0,0
488,488,-0.13471120511429702,-0.1,1.0,0.0,375.0,829.0,0.0,0,3796.0,1
489,489,-0.5988440262820824,-0.6,1.0,0.0,369.0,684.0,0.0,0,3947.0,1
490,490,0.6826232168483127,0.7,1.0,1.0,334.0,505.0,0.0,0,4161.0,0
491,491,0.5884660209909681,0.6,0.0,0.0,323.0,988.0,1.0,0,-1241.0,0
492,492,0.8802261949700533,0.9,1.0,1.0,482.0,749.0,0.0,0,3769.0,0
493,493,0.5192631793366235,0.5,0.0,0.0,292.0,995.0,0.0,1,3713.0,1
494,494,-0.28869098916341973,-0.3,1.0,0.0,389.0,918.0,0.0,0,3693.0,1
495,495,0.41783536942005217,0.4,0.0,0.0,300.0,821.0,0.0,1,3879.0,1
496,496,0.5647748241123082,0.6,1.0,1.0,418.0,945.0,0.0,0,3637.0,0
497,497,-0.6353088095257666,-0.6,0.0,1.0,378.0,937.0,1.0,0,-1255.0,1
498,498,-0.19052818900792567,-0.2,1.0,0.0,494.0,895.0,0.0,0,-1099.0,1
499,499,-0.3460248835630212,-0.3,1.0,0.0,406.0,635.0,0.0,0,3959.0,1
500,500,-0.7387476951302152,-0.7,1.0,0.0,433.0,706.0,1.0,1,-1119.0,0
501,501,0.7201610062192659,0.7,1.0,1.0,402.0,613.0,0.0,0,3985.0,0
502,502,0.5698109708081808,0.6,0.0,0.0,478.0,820.0,0.0,1,3702.0,1
503,503,-0.6429165854157899,-0.6,1.0,0.0,461.0,884.0,1.0,1,-1325.0,0
504,504,0.770655816293054,0.8,0.0,0.0,351.0,758.0,1.0,0,-1039.0,0
505,505,0.4359637648462312,0.4,1.0,1.0,329.0,644.0,0.0,0,4027.0,0
506,506,-0.4123750702046192,-0.4,0.0,1.0,287.0,946.0,0.0,1,3767.0,0
507,507,0.725793430207394,0.7,1.0,1.0,479.0,680.0,0.0,0,3841.0,0
508,508,-0.40593713617316907,-0.4,0.0,1.0,366.0,836.0,0.0,1,3798.0,0
509,509,-0.6359195186853797,-0.6,0.0,1.0,440.0,583.0,0.0,1,3977.0,0
510,510,-0.5771140099071466,-0.6,0.0,1.0,342.0,963.0,0.0,1,3695.0,0
511,511,0.27944212068367735,0.3,1.0,1.0,432.0,984.0,0.0,0,-1396.0,0
512,512,-0.08250963522836863,-0.1,1.0,0.0,448.0,635.0,0.0,0,3917.0,1
513,513,0.06480021806136704,0.1,0.0,0.0,441.0,678.0,0.0,1,3881.0,1
514,514,-0.3626967546065786,-0.4,0.0,1.0,336.0,984.0,0.0,1,3680.0,0
515,515,-0.8555588320602517,-0.9,0.0,1.0,273.0,663.0,0.0,1,4064.0,0
516,516,0.25682510776767964,0.3,1.0,1.0,260.0,562.0,0.0,0,4178.0,0
517,517,0.5398649572499078,0.5,1.0,1.0,256.0,688.0,0.0,0,4056.0,0
518,518,-0.7234117297735436,-0.7,0.0,1.0,344.0,637.0,0.0,1,4019.0,0
519,519,-0.16707190069393618,-0.2,0.0,1.0,499.0,717.0,0.0,1,3784.0,0
520,520,0.7367132807621602,0.7,1.0,1.0,485.0,621.0,0.0,0,3894.0,0
521,521,0.04803122990555231,0.0,0.0,0.0,458.0,882.0,0.0,1,3660.0,1
522,522,0.32474037597550154,0.3,1.0,1.0,340.0,655.0,0.0,0,4005.0,0
523,523,0.664840651621669,0.7,0.0,0.0,274.0,597.0,0.0,1,4129.0,1
524,524,-0.7719693353790945,-0.8,0.0,1.0,367.0,705.0,0.0,1,3928.0,0
525,525,0.41381555171798456,0.4,0.0,0.0,400.0,722.0,0.0,1,3878.0,1
526,526,0.5097529575190091,0.5,1.0,1.0,480.0,610.0,1.0,1,-1070.0,1
527,527,-0.210495321118931,-0.2,0.0,1.0,411.0,611.0,0.0,1,3978.0,0
528,528,-0.8429044019494291,-0.8,1.0,0.0,425.0,706.0,0.0,0,3869.0,1
529,529,0.31070488536983853,0.3,1.0,1.0,347.0,997.0,0.0,0,3656.0,0
530,530,0.5807458718393045,0.6,1.0,1.0,252.0,587.0,1.0,1,-789.0,1
531,531,0.4340358322465717,0.4,0.0,0.0,465.0,923.0,0.0,1,3612.0,1
532,532,-0.6882110371321282,-0.7,1.0,0.0,416.0,669.0,0.0,0,3915.0,1
533,533,0.1239272366140366,0.1,0.0,0.0,334.0,908.0,0.0,1,3758.0,1
534,534,0.41496282461414535,0.4,1.0,1.0,354.0,652.0,0.0,0,3994.0,0
535,535,-0.4729572755184436,-0.5,1.0,0.0,291.0,801.0,0.0,0,3908.0,1
536,536,0.26574672132604016,0.3,1.0,1.0,309.0,688.0,0.0,0,4003.0,0
537,537,-0.21947134684130765,-0.2,0.0,1.0,448.0,804.0,0.0,1,3748.0,0
538,538,0.6763863026784128,0.7,0.0,0.0,446.0,801.0,0.0,1,3753.0,1
539,539,0.12036112878336958,0.1,0.0,0.0,411.0,963.0,0.0,1,3626.0,1
540,540,-0.6260431506622847,-0.6,0.0,1.0,326.0,737.0,0.0,1,3937.0,0
541,541,0.3477718699511564,0.3,0.0,0.0,292.0,695.0,0.0,1,4013.0,1
542,542,0.790475911518049,0.8,0.0,0.0,380.0,970.0,0.0,1,3650.0,1
543,543,0.8155168449047844,0.8,1.0,1.0,467.0,630.0,0.0,0,3903.0,0
544,544,0.6702858632435359,0.7,0.0,0.0,371.0,787.0,0.0,1,3842.0,1
545,545,0.2104652540318498,0.2,1.0,1.0,313.0,979.0,0.0,0,3708.0,0
546,546,0.006504815959907262,0.0,1.0,1.0,373.0,945.0,0.0,0,3682.0,0
547,547,0.8391095008179593,0.8,1.0,1.0,377.0,871.0,0.0,0,3752.0,0
548,548,-0.3532372475989505,-0.4,1.0,0.0,494.0,617.0,0.0,0,3889.0,1
549,549,0.7366020585611573,0.7,1.0,1.0,343.0,889.0,0.0,0,3768.0,0
550,550,0.3821263312155846,0.4,1.0,1.0,297.0,621.0,0.0,0,4082.0,0
551,551,-0.6878858872947655,-0.7,1.0,0.0,367.0,796.0,0.0,0,3837.0,1
552,552,-0.5182313291880041,-0.5,1.0,0.0,444.0,732.0,0.0,0,3824.0,1
553,553,-0.8385976381223615,-0.8,1.0,0.0,320.0,711.0,0.0,0,3969.0,1
554,554,0.5710392500786837,0.6,0.0,0.0,365.0,766.0,0.0,1,3869.0,1
555,555,0.3417969771503865,0.3,0.0,0.0,313.0,667.0,0.0,1,4020.0,1
556,556,-0.5285016241652286,-0.5,1.0,0.0,363.0,564.0,0.0,0,4073.0,1
557,557,-0.0377363299630229,-0.0,1.0,0.0,422.0,684.0,0.0,0,3894.0,1
558,558,0.5025844572277532,0.5,1.0,1.0,285.0,768.0,0.0,0,3947.0,0
559,559,-0.6168542017624535,-0.6,1.0,0.0,323.0,934.0,0.0,0,3743.0,1
560,560,-0.23318447130945807,-0.2,1.0,0.0,482.0,642.0,0.0,0,3876.0,1
561,561,-0.09665029321281471,-0.1,0.0,1.0,317.0,716.0,0.0,1,3967.0,0
562,562,0.34180746337732126,0.3,1.0,1.0,263.0,550.0,0.0,0,4187.0,0
563,563,0.6683007962611868,0.7,0.0,0.0,282.0,826.0,1.0,0,-998.0,0
564,564,-0.40934931604998764,-0.4,0.0,1.0,273.0,577.0,0.0,1,4150.0,0
565,565,0.6570151305511781,0.7,0.0,0.0,382.0,600.0,0.0,1,4018.0,1
566,566,0.019714213458959517,0.0,1.0,1.0,376.0,770.0,0.0,0,3854.0,0
567,567,-0.25572671421123006,-0.3,0.0,1.0,362.0,619.0,0.0,1,4019.0,0
568,568,-0.8164478920069493,-0.8,0.0,1.0,258.0,884.0,0.0,1,3858.0,0
569,569,-0.27878140760334114,-0.3,1.0,0.0,432.0,734.0,0.0,0,3834.0,1
570,570,0.8486799222007956,0.8,0.0,0.0,325.0,890.0,0.0,1,3785.0,1
571,571,0.4200841012219422,0.4,1.0,1.0,333.0,622.0,0.0,0,4045.0,0
572,572,-0.2856408029479711,-0.3,1.0,0.0,445.0,555.0,0.0,0,4000.0,1
573,573,-0.13544269658319297,-0.1,1.0,0.0,297.0,687.0,0.0,0,4016.0,1
574,574,0.7782641511954821,0.8,1.0,1.0,381.0,876.0,1.0,1,-1027.0,1
575,575,0.8596634406686033,0.9,1.0,1.0,254.0,863.0,0.0,0,3883.0,0
576,576,-0.7490771808286841,-0.7,0.0,1.0,309.0,522.0,0.0,1,4169.0,0
577,577,-0.44776650458824996,-0.4,0.0,1.0,413.0,826.0,0.0,1,3761.0,0
578,578,0.724382948647014,0.7,1.0,1.0,296.0,852.0,0.0,0,3852.0,0
579,579,0.3242270962961805,0.3,1.0,1.0,318.0,716.0,0.0,0,3966.0,0
580,580,-0.8901417456426386,-0.9,0.0,1.0,499.0,740.0,0.0,1,3761.0,0
581,581,0.39168814048048584,0.4,1.0,1.0,252.0,931.0,0.0,0,3817.0,0
582,582,0.251536701219108,0.3,0.0,0.0,466.0,827.0,0.0,1,3707.0,1
583,583,-0.3243603337558174,-0.3,1.0,0.0,412.0,890.0,1.0,1,-1172.0,0
584,584,0.46488828993602993,0.5,1.0,1.0,355.0,895.0,0.0,0,3750.0,0
585,585,-0.241176019052742,-0.2,0.0,1.0,413.0,625.0,0.0,1,3962.0,0
586,586,0.5623482035878381,0.6,1.0,1.0,399.0,521.0,0.0,0,4080.0,0
587,587,0.31174974925067367,0.3,1.0,1.0,326.0,843.0,0.0,0,3831.0,0
588,588,-0.42924999658566115,-0.4,0.0,1.0,451.0,526.0,0.0,1,4023.0,0
589,589,-0.2722467293047396,-0.3,0.0,1.0,298.0,691.0,0.0,1,4011.0,0
590,590,0.8489051440363052,0.8,0.0,0.0,286.0,698.0,0.0,1,4016.0,1
591,591,0.7946602651381754,0.8,0.0,0.0,430.0,644.0,0.0,1,3926.0,1
592,592,-0.6363858665789026,-0.6,0.0,1.0,473.0,947.0,0.0,1,3580.0,0
593,593,0.35179608338009405,0.4,1.0,1.0,295.0,781.0,0.0,0,3924.0,0
594,594,0.20527978734808083,0.2,1.0,1.0,336.0,683.0,0.0,0,3981.0,0
595,595,-0.02684769507952456,-0.0,0.0,1.0,380.0,615.0,0.0,1,4005.0,0
596,596,0.5918362084486867,0.6,0.0,0.0,323.0,899.0,0.0,1,3778.0,1
597,597,-0.2633176336797005,-0.3,0.0,1.0,325.0,930.0,0.0,1,3745.0,0
598,598,-0.5147543103063208,-0.5,1.0,0.0,328.0,890.0,0.0,0,3782.0,1
599,599,-0.721631695725952,-0.7,1.0,0.0,317.0,911.0,0.0,0,3772.0,1
600,600,0.8257306359456816,0.8,1.0,1.0,355.0,687.0,1.0,1,-1022.0,1
601,601,-0.6357678000689169,-0.6,0.0,1.0,498.0,971.0,0.0,1,3531.0,0
602,602,0.4996878238134822,0.5,1.0,1.0,415.0,836.0,1.0,1,-1241.0,1
603,603,-0.8374802900185828,-0.8,0.0,1.0,498.0,701.0,0.0,1,3801.0,0
604,604,0.4187565404007788,0.4,1.0,1.0,485.0,661.0,0.0,0,3854.0,0
605,605,-0.14760512732170294,-0.1,0.0,1.0,262.0,629.0,0.0,1,4109.0,0
606,606,0.6341686862195656,0.6,1.0,1.0,417.0,910.0,0.0,0,3673.0,0
607,607,-0.8075489769311872,-0.8,1.0,0.0,353.0,898.0,0.0,0,3749.0,1
608,608,0.40090005531291395,0.4,1.0,1.0,463.0,771.0,0.0,0,3766.0,0
609,609,0.07441813883457715,0.1,1.0,1.0,389.0,733.0,0.0,0,-672.0,0
610,610,0.22741718135154054,0.2,0.0,0.0,373.0,610.0,0.0,1,4017.0,1
611,611,-0.5528983667126066,-0.6,0.0,1.0,354.0,934.0,0.0,1,3712.0,0
612,612,-0.6966052479709977,-0.7,0.0,1.0,296.0,778.0,0.0,1,3926.0,0
613,613,-0.28994027942181566,-0.3,1.0,0.0,318.0,974.0,0.0,0,3708.0,1
614,614,0.1927618597360291,0.2,1.0,1.0,300.0,747.0,0.0,0,3953.0,0
615,615,0.8660483970951295,0.9,1.0,1.0,340.0,981.0,0.0,0,3679.0,0
616,616,-0.36681166434844625,-0.4,0.0,1.0,404.0,897.0,0.0,1,3699.0,0
617,617,0.1872987357260426,0.2,0.0,0.0,319.0,939.0,0.0,1,3742.0,1
618,618,-0.4334449939153647,-0.4,1.0,0.0,479.0,929.0,0.0,0,3592.0,1
619,619,-0.6985004377652467,-0.7,1.0,0.0,262.0,714.0,0.0,0,4024.0,1
620,620,0.7137712270701292,0.7,1.0,1.0,456.0,643.0,0.0,0,3901.0,0
621,621,-0.8921879681029534,-0.9,1.0,0.0,410.0,918.0,0.0,0,3672.0,1
622,622,-0.3878013823662825,-0.4,0.0,1.0,312.0,558.0,0.0,1,4130.0,0
623,623,0.4515396862818989,0.5,1.0,1.0,322.0,815.0,0.0,0,3863.0,0
624,624,-0.6413070445320279,-0.6,1.0,0.0,444.0,551.0,0.0,0,4005.0,1
625,625,0.6106002816091155,0.6,0.0,0.0,423.0,723.0,0.0,1,3854.0,1
626,626,0.6160374565523837,0.6,1.0,1.0,376.0,633.0,0.0,0,3991.0,0
627,627,0.7629016676019366,0.8,1.0,1.0,279.0,568.0,0.0,0,4153.0,0
628,628,-0.2996770514244915,-0.3,0.0,1.0,461.0,608.0,0.0,1,3931.0,0
629,629,0.6794732268107594,0.7,0.0,0.0,276.0,580.0,0.0,1,4144.0,1
630,630,-0.193675188223293,-0.2,0.0,1.0,314.0,988.0,0.0,1,3698.0,0
631,631,-0.40049021918274513,-0.4,1.0,0.0,312.0,525.0,0.0,0,4163.0,1
632,632,-0.46600884028987544,-0.5,1.0,0.0,378.0,901.0,0.0,0,3721.0,1
633,633,-0.3940471498993181,-0.4,0.0,1.0,288.0,704.0,0.0,1,4008.0,0
634,634,-0.3050742918886762,-0.3,0.0,1.0,318.0,864.0,1.0,0,-952.0,1
635,635,-0.6100564848080215,-0.6,0.0,1.0,314.0,835.0,0.0,1,3851.0,0
636,636,-0.1681643295008426,-0.2,1.0,0.0,420.0,742.0,1.0,1,-802.0,0
637,637,0.6840457481500831,0.7,1.0,1.0,342.0,950.0,0.0,0,3708.0,0
638,638,0.496659285108873,0.5,0.0,0.0,338.0,925.0,0.0,1,3737.0,1
639,639,0.29127177101662716,0.3,0.0,0.0,262.0,732.0,0.0,1,4006.0,1
640,640,0.29954362798126033,0.3,1.0,1.0,404.0,591.0,0.0,0,4005.0,0
641,641,0.3110256104797212,0.3,0.0,0.0,388.0,961.0,0.0,1,3651.0,1
642,642,-0.8427467781503162,-0.8,1.0,0.0,356.0,698.0,0.0,0,3946.0,1
643,643,0.20680183726186285,0.2,1.0,1.0,449.0,918.0,0.0,0,3633.0,0
644,644,-0.19230989758772898,-0.2,0.0,1.0,373.0,527.0,0.0,1,4100.0,0
645,645,0.5462076776115278,0.5,0.0,0.0,475.0,650.0,0.0,1,3875.0,1
646,646,0.6088349662730467,0.6,0.0,0.0,362.0,502.0,0.0,1,4136.0,1
647,647,0.2529341784032487,0.3,0.0,0.0,404.0,808.0,0.0,1,3788.0,1
648,648,-0.25179953999341154,-0.3,1.0,0.0,434.0,681.0,0.0,0,3885.0,1
649,649,-0.7826243042470756,-0.8,1.0,0.0,399.0,756.0,0.0,0,3845.0,1
650,650,-0.1629876290215556,-0.2,1.0,0.0,312.0,886.0,0.0,0,3802.0,1
651,651,-0.8352302664900416,-0.8,1.0,0.0,499.0,721.0,0.0,0,3780.0,1
652,652,-0.6542654022979214,-0.7,0.0,1.0,436.0,729.0,0.0,1,3835.0,0
653,653,-0.5818988754664451,-0.6,0.0,1.0,353.0,633.0,0.0,1,4014.0,0
654,654,-0.4214178278699578,-0.4,0.0,1.0,291.0,522.0,0.0,1,4187.0,0
655,655,0.7363459548488519,0.7,1.0,1.0,427.0,877.0,0.0,0,3696.0,0
656,656,0.6476786230137775,0.6,0.0,0.0,278.0,874.0,0.0,1,3848.0,1
657,657,0.6069914612200425,0.6,0.0,0.0,373.0,977.0,0.0,1,3650.0,1
658,658,0.4934316239583335,0.5,1.0,1.0,421.0,628.0,0.0,0,3951.0,0
659,659,0.3738096397840348,0.4,1.0,1.0,301.0,537.0,0.0,0,4162.0,0
660,660,-0.6708388669995593,-0.7,0.0,1.0,302.0,771.0,0.0,1,3927.0,0
661,661,-0.07045096563096709,-0.1,0.0,1.0,440.0,735.0,0.0,1,3825.0,0
662,662,0.5448939284044035,0.5,1.0,1.0,334.0,672.0,0.0,0,3994.0,0
663,663,-0.8809935411862518,-0.9,1.0,0.0,271.0,961.0,0.0,0,3768.0,1
664,664,-0.16094193091461095,-0.2,1.0,0.0,373.0,694.0,0.0,0,3933.0,1
665,665,0.77656074118236,0.8,0.0,0.0,294.0,883.0,0.0,1,3823.0,1
666,666,0.13055231516253307,0.1,0.0,0.0,326.0,714.0,0.0,1,3960.0,1
667,667,-0.8615746879662535,-0.9,1.0,0.0,270.0,610.0,0.0,0,4120.0,1
668,668,-0.6944906664845851,-0.7,0.0,1.0,422.0,851.0,0.0,1,3727.0,0
669,669,-0.03683110194626227,-0.0,0.0,1.0,251.0,575.0,0.0,1,4174.0,0
670,670,-0.06138287868641468,-0.1,0.0,1.0,383.0,976.0,0.0,1,3641.0,0
671,671,-0.4324737269196194,-0.4,0.0,1.0,327.0,570.0,1.0,0,-807.0,1
672,672,-0.3595266663184119,-0.4,0.0,1.0,291.0,670.0,0.0,1,4039.0,0
673,673,-0.03153603083409828,-0.0,1.0,0.0,274.0,824.0,0.0,0,3902.0,1
674,674,-0.0707395333615134,-0.1,0.0,1.0,323.0,925.0,0.0,1,3752.0,0
675,675,0.5571196245995137,0.6,1.0,1.0,369.0,787.0,0.0,0,3844.0,0
676,676,-0.30073796990745494,-0.3,1.0,0.0,436.0,592.0,0.0,0,3972.0,1
677,677,0.19113838990666265,0.2,1.0,1.0,480.0,619.0,0.0,0,3901.0,0
678,678,0.21949514378495916,0.2,1.0,1.0,329.0,995.0,0.0,0,3676.0,0
679,679,0.07625856352524085,0.1,0.0,0.0,367.0,512.0,0.0,1,4121.0,1
680,680,-0.3993662678418639,-0.4,0.0,1.0,380.0,588.0,0.0,1,4032.0,0
681,681,-0.7404546329098792,-0.7,1.0,0.0,280.0,649.0,0.0,0,4071.0,1
682,682,-0.09063442875236427,-0.1,0.0,1.0,404.0,513.0,0.0,1,4083.0,0
683,683,0.5800078688563498,0.6,0.0,0.0,287.0,527.0,0.0,1,4186.0,1
684,684,-0.16661235735117141,-0.2,0.0,1.0,434.0,525.0,0.0,1,4041.0,0
685,685,-0.6269805537392862,-0.6,0.0,1.0,392.0,533.0,1.0,0,-895.0,1
686,686,0.22337491176397772,0.2,1.0,1.0,481.0,945.0,0.0,0,3574.0,0
687,687,0.5115183619172682,0.5,0.0,0.0,298.0,953.0,0.0,1,3749.0,1
688,688,-0.4070331625417178,-0.4,0.0,1.0,476.0,876.0,1.0,0,-1272.0,1
689,689,0.7078225985602963,0.7,1.0,1.0,384.0,913.0,0.0,0,3703.0,0
690,690,0.4029248818535035,0.4,1.0,1.0,341.0,546.0,1.0,1,-627.0,1
691,691,-0.6710267838697535,-0.7,1.0,0.0,346.0,744.0,1.0,1,-910.0,0
692,692,0.7320486649053756,0.7,0.0,0.0,307.0,774.0,0.0,1,3919.0,1
693,693,0.22894112363790875,0.2,0.0,0.0,495.0,705.0,0.0,1,3800.0,1
694,694,-0.6211155645125028,-0.6,1.0,0.0,380.0,507.0,0.0,0,4113.0,1
695,695,0.5329692264102458,0.5,0.0,0.0,458.0,889.0,1.0,0,-1347.0,0
696,696,-0.11955667252423574,-0.1,1.0,0.0,349.0,874.0,0.0,0,3777.0,1
697,697,0.15123908800213248,0.2,0.0,0.0,329.0,718.0,0.0,1,3953.0,1
698,698,-0.5380182317247932,-0.5,0.0,1.0,433.0,708.0,0.0,1,3859.0,0
699,699,-0.0908430482598983,-0.1,1.0,0.0,365.0,853.0,0.0,0,3782.0,1
700,700,0.45159406374222366,0.5,1.0,1.0,286.0,788.0,0.0,0,3926.0,0
701,701,-0.4045816632187829,-0.4,0.0,1.0,256.0,749.0,0.0,1,3995.0,0
702,702,-0.5807991202629248,-0.6,1.0,0.0,400.0,595.0,0.0,0,4005.0,1
703,703,0.5346724327106173,0.5,1.0,1.0,276.0,785.0,1.0,1,-951.0,1
704,704,0.3091137126967122,0.3,0.0,0.0,334.0,883.0,0.0,1,3783.0,1
705,705,-0.10723615571243006,-0.1,1.0,0.0,392.0,860.0,1.0,1,-1092.0,0
706,706,-0.2817284463888856,-0.3,1.0,0.0,379.0,636.0,1.0,1,-985.0,0
707,707,-0.8209759813572448,-0.8,0.0,1.0,369.0,520.0,1.0,0,-839.0,1
708,708,0.47209169355848035,0.5,0.0,0.0,259.0,856.0,0.0,1,3885.0,1
709,709,-0.1874522652294316,-0.2,1.0,0.0,312.0,807.0,0.0,0,3881.0,1
710,710,-0.5610422356763693,-0.6,1.0,0.0,262.0,670.0,1.0,1,-902.0,0
711,711,-0.45662135341091414,-0.5,1.0,0.0,380.0,776.0,0.0,0,3844.0,1
712,712,0.5243413443609802,0.5,1.0,1.0,335.0,697.0,0.0,0,3968.0,0
713,713,0.4884023115364605,0.5,1.0,1.0,282.0,781.0,0.0,0,3937.0,0
714,714,0.6874359106039819,0.7,1.0,1.0,353.0,960.0,0.0,0,3687.0,0
715,715,-0.8022997480072003,-0.8,0.0,1.0,427.0,817.0,0.0,1,3756.0,0
716,716,-0.08360434004979922,-0.1,0.0,1.0,383.0,890.0,1.0,0,-1173.0,1
717,717,0.4645405800625154,0.5,0.0,0.0,459.0,698.0,0.0,1,3843.0,1
718,718,0.5083901689994089,0.5,1.0,1.0,477.0,682.0,0.0,0,3841.0,0
719,719,-0.808174031319122,-0.8,0.0,1.0,253.0,504.0,0.0,1,4243.0,0
720,720,-0.5595500669015738,-0.6,0.0,1.0,387.0,539.0,0.0,1,4074.0,0
721,721,0.8679702294547037,0.9,0.0,0.0,443.0,574.0,0.0,1,3983.0,1
722,722,-0.7469051167552481,-0.7,0.0,1.0,397.0,658.0,0.0,1,3945.0,0
723,723,-0.08504461162721189,-0.1,0.0,1.0,297.0,581.0,0.0,1,4122.0,0
724,724,-0.5865973913649201,-0.6,1.0,0.0,252.0,639.0,0.0,0,4109.0,1
725,725,-0.06559885430378964,-0.1,0.0,1.0,404.0,759.0,0.0,1,3837.0,0
726,726,-0.7733981363313416,-0.8,1.0,0.0,396.0,936.0,0.0,0,3668.0,1
727,727,-0.5415604204602645,-0.5,1.0,0.0,391.0,538.0,0.0,0,4071.0,1
728,728,0.17169024903075625,0.2,1.0,1.0,290.0,683.0,0.0,0,4027.0,0
729,729,-0.6951570557948908,-0.7,0.0,1.0,369.0,564.0,0.0,1,4067.0,0
730,730,0.458302983122472,0.5,1.0,1.0,410.0,884.0,0.0,0,3706.0,0
731,731,0.44884288016763885,0.4,1.0,1.0,467.0,787.0,0.0,0,3746.0,0
732,732,0.757710778484788,0.8,0.0,0.0,318.0,696.0,0.0,1,3986.0,1
733,733,-0.33954253836644044,-0.3,0.0,1.0,393.0,960.0,1.0,0,-1113.0,1
734,734,0.2484208629007204,0.2,0.0,0.0,369.0,581.0,0.0,1,4050.0,1
735,735,0.22267990343760247,0.2,1.0,1.0,369.0,656.0,0.0,0,3975.0,0
736,736,-0.16971926473714016,-0.2,1.0,0.0,339.0,730.0,0.0,0,3931.0,1
737,737,-0.7190311762162431,-0.7,0.0,1.0,478.0,931.0,0.0,1,3591.0,0
738,738,-0.042200814442305834,-0.0,0.0,1.0,433.0,720.0,0.0,1,3847.0,0
739,739,-0.7529373181229586,-0.8,1.0,0.0,439.0,615.0,0.0,0,3946.0,1
740,740,-0.04827439534074063,-0.0,1.0,0.0,321.0,539.0,0.0,0,4140.0,1
741,741,-0.033825550422895034,-0.0,0.0,1.0,291.0,639.0,0.0,1,4070.0,0
742,742,-0.836924254509951,-0.8,1.0,0.0,312.0,803.0,0.0,0,3885.0,1
743,743,0.02448837829971029,0.0,1.0,1.0,341.0,501.0,0.0,0,4158.0,0
744,744,0.5418233548284223,0.5,1.0,1.0,425.0,522.0,0.0,0,4053.0,0
745,745,0.8440833861349087,0.8,1.0,1.0,431.0,546.0,0.0,0,4023.0,0
746,746,-0.37492571613267534,-0.4,1.0,0.0,456.0,685.0,0.0,0,3859.0,1
747,747,0.4665473541006774,0.5,1.0,1.0,276.0,951.0,1.0,1,-1207.0,1
748,748,0.11514426717815407,0.1,0.0,0.0,409.0,907.0,0.0,1,3684.0,1
749,749,0.1228191849132082,0.1,1.0,1.0,483.0,986.0,0.0,0,3531.0,0
750,750,0.6085484034959853,0.6,0.0,0.0,488.0,508.0,0.0,1,4004.0,1
751,751,0.5256132598459614,0.5,1.0,1.0,331.0,847.0,0.0,0,3822.0,0
752,752,0.0933800569900557,0.1,0.0,0.0,457.0,651.0,0.0,1,3892.0,1
753,753,0.043213197688196536,0.0,1.0,1.0,492.0,571.0,0.0,0,3937.0,0
754,754,-0.6640238734247176,-0.7,1.0,0.0,435.0,581.0,0.0,0,3984.0,1
755,755,-0.732400531761811,-0.7,1.0,0.0,288.0,522.0,0.0,0,4190.0,1
756,756,0.13348463497720087,0.1,1.0,1.0,335.0,851.0,0.0,0,3814.0,0
757,757,-0.0921587333195425,-0.1,1.0,0.0,482.0,878.0,0.0,0,3640.0,1
758,758,0.6576666926286004,0.7,0.0,0.0,358.0,917.0,0.0,1,3725.0,1
759,759,-0.8594700720060272,-0.9,1.0,0.0,465.0,689.0,0.0,0,3846.0,1
760,760,0.8107341338160666,0.8,0.0,0.0,355.0,979.0,0.0,1,3666.0,1
761,761,0.06275331022279629,0.1,1.0,1.0,379.0,645.0,0.0,0,3976.0,0
762,762,-0.4503196780277846,-0.5,1.0,0.0,357.0,690.0,0.0,0,-657.0,1
763,763,-0.76050710154683,-0.8,1.0,0.0,283.0,557.0,0.0,0,4160.0,1
764,764,0.4738049182579457,0.5,1.0,1.0,431.0,526.0,0.0,0,4043.0,0
765,765,0.7106593476660356,0.7,1.0,1.0,431.0,867.0,0.0,0,3702.0,0
766,766,0.0764725043747535,0.1,0.0,0.0,468.0,959.0,0.0,1,3573.0,1
767,767,0.7602509759042707,0.8,1.0,1.0,451.0,829.0,0.0,0,3720.0,0
768,768,-0.6525379043353413,-0.7,0.0,1.0,442.0,691.0,0.0,1,3867.0,0
769,769,-0.2648334387507819,-0.3,1.0,0.0,333.0,535.0,0.0,0,4132.0,1
770,770,-0.6624700525263082,-0.7,0.0,1.0,276.0,538.0,1.0,0,-644.0,1
771,771,-0.2869922070900566,-0.3,0.0,1.0,447.0,694.0,0.0,1,3859.0,0
772,772,-0.8769947707243367,-0.9,1.0,0.0,412.0,503.0,0.0,0,4085.0,1
773,773,-0.42591736767400434,-0.4,0.0,1.0,336.0,802.0,0.0,1,3862.0,0
774,774,-0.46791686008821454,-0.5,1.0,0.0,301.0,634.0,0.0,0,4065.0,1
775,775,0.4267638884067838,0.4,0.0,0.0,427.0,585.0,0.0,1,3988.0,1
776,776,0.3709768377074777,0.4,1.0,1.0,437.0,694.0,0.0,0,3869.0,0
777,777,-0.11746901270524868,-0.1,0.0,1.0,484.0,561.0,0.0,1,3955.0,0
778,778,0.3436786660203289,0.3,0.0,0.0,308.0,983.0,0.0,1,3709.0,1
779,779,-0.20631535537952495,-0.2,1.0,0.0,497.0,620.0,0.0,0,3883.0,1
780,780,-0.17804829246614784,-0.2,0.0,1.0,269.0,639.0,0.0,1,4092.0,0
781,781,0.38265994616848464,0.4,0.0,0.0,318.0,994.0,0.0,1,3688.0,1
782,782,0.6735531983075517,0.7,1.0,1.0,419.0,729.0,0.0,0,3852.0,0
783,783,-0.5814734768571681,-0.6,1.0,0.0,374.0,928.0,1.0,1,-1232.0,0
784,784,0.07808800625200785,0.1,1.0,1.0,397.0,591.0,0.0,0,4012.0,0
785,785,-0.5895690647728316,-0.6,1.0,0.0,394.0,539.0,0.0,0,4067.0,1
786,786,0.31943987801004103,0.3,1.0,1.0,483.0,935.0,0.0,0,3582.0,0
787,787,-0.37444533652481926,-0.4,1.0,0.0,317.0,563.0,1.0,1,-850.0,0
788,788,-0.7788194057993221,-0.8,1.0,0.0,400.0,664.0,0.0,0,3936.0,1
789,789,0.7461956545555534,0.7,1.0,1.0,419.0,641.0,0.0,0,3940.0,0
790,790,0.5591761339640849,0.6,0.0,0.0,398.0,842.0,0.0,1,3760.0,1
791,791,0.5400884973962873,0.5,1.0,1.0,463.0,756.0,0.0,0,3781.0,0
792,792,0.6206441838465205,0.6,0.0,0.0,263.0,560.0,0.0,1,4177.0,1
793,793,-0.3563746767127661,-0.4,1.0,0.0,413.0,500.0,0.0,0,4087.0,1
794,794,0.3011618468394869,0.3,0.0,0.0,312.0,816.0,0.0,1,3872.0,1
795,795,-0.0803672058427064,-0.1,0.0,1.0,401.0,946.0,0.0,1,3653.0,0
796,796,-0.060636058836381346,-0.1,0.0,1.0,425.0,754.0,0.0,1,3821.0,0
797,797,0.18478844932825045,0.2,1.0,1.0,391.0,618.0,0.0,0,3991.0,0
798,798,0.5218234882004796,0.5,1.0,1.0,328.0,507.0,0.0,0,4165.0,0
799,799,-0.687583463550793,-0.7,0.0,1.0,305.0,906.0,0.0,1,3789.0,0
800,800,0.6958615716628315,0.7,0.0,0.0,427.0,990.0,0.0,1,3583.0,1
801,801,-0.5608292223929172,-0.6,1.0,0.0,495.0,839.0,0.0,0,3666.0,1
802,802,-0.41869417604758924,-0.4,1.0,0.0,268.0,586.0,0.0,0,4146.0,1
803,803,-0.8693385935954576,-0.9,0.0,1.0,426.0,798.0,0.0,1,3776.0,0
804,804,0.2184695187266451,0.2,1.0,1.0,375.0,967.0,0.0,0,3658.0,0
805,805,0.14777121943879823,0.1,0.0,0.0,264.0,748.0,0.0,1,3988.0,1
806,806,0.8989708753024382,0.9,1.0,1.0,404.0,976.0,0.0,0,3620.0,0
807,807,0.049846010810302044,0.0,0.0,0.0,484.0,636.0,0.0,1,3880.0,1
808,808,-0.5057176297181476,-0.5,0.0,1.0,466.0,644.0,0.0,1,3890.0,0
809,809,-0.6430622010423839,-0.6,1.0,0.0,459.0,949.0,0.0,0,3592.0,1
810,810,-0.07601092937986942,-0.1,0.0,1.0,381.0,840.0,0.0,1,3779.0,0
811,811,-0.8255298691562604,-0.8,1.0,0.0,323.0,759.0,1.0,1,-922.0,0
812,812,0.30521083058545695,0.3,1.0,1.0,498.0,636.0,0.0,0,3866.0,0
813,813,0.07724653571214968,0.1,0.0,0.0,442.0,828.0,0.0,1,3730.0,1
814,814,0.23531712303970942,0.2,1.0,1.0,287.0,732.0,0.0,0,3981.0,0
815,815,-0.6150011450758639,-0.6,0.0,1.0,355.0,609.0,0.0,1,4036.0,0
816,816,-0.3440456921214189,-0.3,1.0,0.0,471.0,530.0,0.0,0,3999.0,1
817,817,-0.31279432671118157,-0.3,1.0,0.0,255.0,551.0,0.0,0,4194.0,1
818,818,0.4625702757677673,0.5,1.0,1.0,497.0,706.0,0.0,0,3797.0,0
819,819,0.04839059162941395,0.0,1.0,1.0,498.0,729.0,0.0,0,3773.0,0
820,820,0.1574408989594963,0.2,0.0,0.0,495.0,764.0,0.0,1,3741.0,1
821,821,-0.4189317639622708,-0.4,0.0,1.0,458.0,753.0,0.0,1,3789.0,0
822,822,-0.5314447481015353,-0.5,0.0,1.0,462.0,657.0,0.0,1,3881.0,0
823,823,0.6388960626127386,0.6,0.0,0.0,312.0,502.0,0.0,1,4186.0,1
824,824,0.6765347349581802,0.7,0.0,0.0,405.0,844.0,0.0,1,3751.0,1
825,825,-0.5667636278930988,-0.6,0.0,1.0,427.0,926.0,1.0,0,-1263.0,1
826,826,-0.8439891944649484,-0.8,1.0,0.0,292.0,750.0,0.0,0,3958.0,1
827,827,-0.5499166487351568,-0.5,1.0,0.0,389.0,738.0,0.0,0,3873.0,1
828,828,-0.10168725164715964,-0.1,0.0,1.0,307.0,545.0,0.0,1,4148.0,0
829,829,0.6897331874811922,0.7,1.0,1.0,401.0,582.0,0.0,0,4017.0,0
830,830,-0.7892997854717496,-0.8,0.0,1.0,399.0,645.0,1.0,0,-904.0,1
831,831,-0.015050849904348018,-0.0,0.0,1.0,485.0,614.0,0.0,1,3901.0,0
832,832,-0.16971082345958943,-0.2,0.0,1.0,262.0,881.0,1.0,0,-1023.0,1
833,833,0.022655614904755428,0.0,0.0,0.0,435.0,971.0,0.0,1,3594.0,1
834,834,-0.7298041591314803,-0.7,0.0,1.0,436.0,556.0,0.0,1,4008.0,0
835,835,-0.3643245961535484,-0.4,0.0,1.0,497.0,647.0,0.0,1,-764.0,0
836,836,-0.2709964970030283,-0.3,1.0,0.0,302.0,601.0,0.0,0,4097.0,1
837,837,0.087983316875894,0.1,1.0,1.0,420.0,645.0,0.0,0,3935.0,0
838,838,-0.3474384155172192,-0.3,0.0,1.0,288.0,661.0,0.0,1,4051.0,0
839,839,-0.3182350135444115,-0.3,0.0,1.0,308.0,876.0,0.0,1,3816.0,0
840,840,-0.1346066297765267,-0.1,0.0,1.0,328.0,711.0,0.0,1,3961.0,0
841,841,0.8010890219535841,0.8,0.0,0.0,332.0,825.0,0.0,1,3843.0,1
842,842,-0.2071839557210905,-0.2,1.0,0.0,317.0,907.0,0.0,0,3776.0,1
843,843,0.5245272952194197,0.5,1.0,1.0,350.0,844.0,0.0,0,3806.0,0
844,844,0.4520134854983545,0.5,0.0,0.0,399.0,503.0,0.0,1,4098.0,1
845,845,-0.8853259083651064,-0.9,0.0,1.0,376.0,668.0,0.0,1,3956.0,0
846,846,0.028367661235865427,0.0,0.0,0.0,288.0,632.0,1.0,0,-670.0,0
847,847,-0.26549357559986364,-0.3,1.0,0.0,443.0,677.0,0.0,0,3880.0,1
848,848,-0.05401563510587326,-0.1,1.0,0.0,251.0,825.0,0.0,0,3924.0,1
849,849,-0.07634032681715786,-0.1,1.0,0.0,297.0,958.0,0.0,0,3745.0,1
850,850,-0.8438913481911998,-0.8,0.0,1.0,375.0,566.0,0.0,1,4059.0,0
851,851,0.06899725250427169,0.1,0.0,0.0,478.0,695.0,1.0,0,-1013.0,0
852,852,0.37496917160778975,0.4,1.0,1.0,318.0,578.0,0.0,0,4104.0,0
853,853,-0.275168166767895,-0.3,1.0,0.0,405.0,596.0,0.0,0,3999.0,1
854,854,-0.07969686710315715,-0.1,0.0,1.0,421.0,876.0,0.0,1,3703.0,0
855,855,-0.7934096582209675,-0.8,1.0,0.0,367.0,798.0,0.0,0,3835.0,1
856,856,-0.23326803505078209,-0.2,0.0,1.0,390.0,711.0,0.0,1,3899.0,0
857,857,0.7653209246751432,0.8,1.0,1.0,444.0,778.0,0.0,0,3778.0,0
858,858,-0.8390085056446936,-0.8,0.0,1.0,276.0,933.0,0.0,1,3791.0,0
859,859,0.08393262782217037,0.1,1.0,1.0,354.0,625.0,0.0,0,4021.0,0
860,860,0.8649765215350697,0.9,1.0,1.0,363.0,542.0,0.0,0,4095.0,0
861,861,-0.45628377047005797,-0.5,1.0,0.0,313.0,718.0,0.0,0,3969.0,1
862,862,-0.7439031412272694,-0.7,1.0,0.0,451.0,919.0,1.0,1,-1340.0,0
863,863,0.6813748573565478,0.7,0.0,0.0,469.0,738.0,0.0,1,3793.0,1
864,864,0.4341194044421949,0.4,0.0,0.0,481.0,781.0,1.0,0,-1222.0,0
865,865,0.2729528840940777,0.3,1.0,1.0,309.0,578.0,0.0,0,4113.0,0
866,866,0.01422486479338636,0.0,1.0,1.0,367.0,677.0,0.0,0,3956.0,0
867,867,0.7384945353479649,0.7,1.0,1.0,303.0,673.0,0.0,0,4024.0,0
868,868,0.23695135724795813,0.2,0.0,0.0,287.0,636.0,0.0,1,4077.0,1
869,869,-0.6130872083134108,-0.6,0.0,1.0,410.0,622.0,0.0,1,3968.0,0
870,870,0.6541883658592841,0.7,0.0,0.0,498.0,568.0,0.0,1,3934.0,1
871,871,-0.6254687455304095,-0.6,0.0,1.0,442.0,622.0,0.0,1,3936.0,0
872,872,0.18100495828991836,0.2,0.0,0.0,489.0,514.0,0.0,1,3997.0,1
873,873,-0.7871266298844671,-0.8,1.0,0.0,263.0,948.0,0.0,0,3789.0,1
874,874,-0.3890819425333967,-0.4,1.0,0.0,419.0,993.0,0.0,0,3588.0,1
875,875,-0.8894421734710394,-0.9,0.0,1.0,427.0,929.0,0.0,1,3644.0,0
876,876,-0.15270659637864226,-0.2,0.0,1.0,348.0,500.0,1.0,0,-708.0,1
877,877,0.567872081261548,0.6,0.0,0.0,356.0,605.0,0.0,1,4039.0,1
878,878,-0.41135194743016734,-0.4,1.0,0.0,443.0,788.0,0.0,0,3769.0,1
879,879,-0.1456988160243443,-0.1,1.0,0.0,389.0,730.0,0.0,0,3881.0,1
880,880,-0.8627313869614541,-0.9,1.0,0.0,264.0,540.0,0.0,0,4196.0,1
881,881,-0.856721772494729,-0.9,1.0,0.0,478.0,541.0,0.0,0,3981.0,1
882,882,-0.3941945154503097,-0.4,0.0,1.0,306.0,792.0,0.0,1,3902.0,0
883,883,-0.23399971265269404,-0.2,1.0,0.0,405.0,692.0,0.0,0,3903.0,1
884,884,0.5448595748048101,0.5,1.0,1.0,372.0,934.0,0.0,0,3694.0,0
885,885,-0.43690590757219194,-0.4,0.0,1.0,398.0,701.0,0.0,1,3901.0,0
886,886,-0.7424682517847329,-0.7,1.0,0.0,382.0,685.0,0.0,0,3933.0,1
887,887,-0.6813655647503668,-0.7,1.0,0.0,283.0,539.0,0.0,0,4178.0,1
888,888,0.5026845641135133,0.5,0.0,0.0,463.0,683.0,0.0,1,3854.0,1
889,889,0.6538661725465745,0.7,1.0,1.0,266.0,911.0,0.0,0,3823.0,0
890,890,-0.7629796263201646,-0.8,1.0,0.0,487.0,855.0,0.0,0,3658.0,1
891,891,-0.49292638172801806,-0.5,0.0,1.0,277.0,762.0,0.0,1,3961.0,0
892,892,-0.14842293092741743,-0.1,0.0,1.0,470.0,714.0,0.0,1,3816.0,0
893,893,-0.08749013521822646,-0.1,0.0,1.0,463.0,925.0,0.0,1,3612.0,0
894,894,0.726040833833023,0.7,1.0,1.0,265.0,994.0,0.0,0,3741.0,0
895,895,0.6313412365577701,0.6,1.0,1.0,468.0,772.0,0.0,0,3760.0,0
896,896,-0.6668030080194758,-0.7,1.0,0.0,320.0,528.0,0.0,0,4152.0,1
897,897,0.809738162530013,0.8,0.0,0.0,303.0,968.0,0.0,1,3729.0,1
898,898,-0.6379997632091523,-0.6,1.0,0.0,488.0,573.0,0.0,0,-811.0,1
899,899,0.4842390475269044,0.5,1.0,1.0,284.0,906.0,0.0,0,3810.0,0
900,900,-0.48015856716051447,-0.5,1.0,0.0,430.0,864.0,0.0,0,3706.0,1
901,901,-0.6857151027503671,-0.7,1.0,0.0,459.0,861.0,0.0,0,3680.0,1
902,902,0.8112028618241144,0.8,0.0,0.0,328.0,612.0,0.0,1,4060.0,1
903,903,-0.7029717783319172,-0.7,1.0,0.0,361.0,664.0,0.0,0,3975.0,1
904,904,0.4551856439665066,0.5,1.0,1.0,262.0,581.0,0.0,0,4157.0,0
905,905,0.21729788426415786,0.2,1.0,1.0,344.0,596.0,0.0,0,4060.0,0
906,906,-0.5206961963933873,-0.5,1.0,0.0,264.0,739.0,0.0,0,3997.0,1
907,907,0.1890141200565031,0.2,1.0,1.0,472.0,648.0,0.0,0,3880.0,0
908,908,-0.5805590223902977,-0.6,0.0,1.0,452.0,950.0,0.0,1,3598.0,0
909,909,0.6200944141859351,0.6,1.0,1.0,441.0,904.0,0.0,0,3655.0,0
910,910,0.8336904224010738,0.8,1.0,1.0,414.0,883.0,0.0,0,3703.0,0
911,911,0.7070301822394284,0.7,1.0,1.0,489.0,987.0,0.0,0,3524.0,0
912,912,-0.6227600053573389,-0.6,0.0,1.0,450.0,859.0,0.0,1,3691.0,0
913,913,0.849272590801392,0.8,0.0,0.0,458.0,951.0,1.0,0,-1389.0,0
914,914,-0.2960885933504487,-0.3,1.0,0.0,389.0,565.0,0.0,0,4046.0,1
915,915,0.837301718373943,0.8,1.0,1.0,255.0,892.0,0.0,0,3853.0,0
916,916,-0.5737931617642817,-0.6,0.0,1.0,374.0,733.0,0.0,1,3893.0,0
917,917,0.8421177078542775,0.8,0.0,0.0,431.0,981.0,0.0,1,3588.0,1
918,918,0.27565197557991394,0.3,0.0,0.0,387.0,686.0,0.0,1,3927.0,1
919,919,0.49532734036925896,0.5,0.0,0.0,441.0,874.0,0.0,1,3685.0,1
920,920,-0.4077340431387814,-0.4,0.0,1.0,385.0,614.0,1.0,0,-969.0,1
921,921,0.6068947393054692,0.6,1.0,1.0,366.0,664.0,0.0,0,3970.0,0
922,922,-0.8070148602679988,-0.8,0.0,1.0,258.0,919.0,0.0,1,3823.0,0
923,923,0.11882672994634225,0.1,1.0,1.0,368.0,505.0,0.0,0,4127.0,0
924,924,0.6853104060178653,0.7,0.0,0.0,362.0,688.0,0.0,1,3950.0,1
925,925,-0.30910892654061006,-0.3,0.0,1.0,421.0,694.0,0.0,1,3885.0,0
926,926,0.021496427699839726,0.0,0.0,0.0,472.0,741.0,0.0,1,3787.0,1
927,927,-0.10107488507013451,-0.1,0.0,1.0,481.0,901.0,0.0,1,3618.0,0
928,928,0.4101757445213897,0.4,0.0,0.0,334.0,829.0,0.0,1,3837.0,1
929,929,0.24496643079510327,0.2,1.0,1.0,288.0,941.0,0.0,0,3771.0,0
930,930,-0.15409124560081133,-0.2,0.0,1.0,350.0,571.0,0.0,1,4079.0,0
931,931,-0.7140177208379715,-0.7,1.0,0.0,464.0,936.0,1.0,1,-1380.0,0
932,932,0.6642445538248242,0.7,1.0,1.0,395.0,795.0,0.0,0,3810.0,0
933,933,-0.4900643323141245,-0.5,1.0,0.0,342.0,611.0,0.0,0,4047.0,1
934,934,0.2491765099272899,0.2,1.0,1.0,320.0,947.0,0.0,0,3733.0,0
935,935,0.21033718424414938,0.2,1.0,1.0,294.0,864.0,0.0,0,3842.0,0
936,936,-0.5531751071750909,-0.6,1.0,0.0,293.0,901.0,0.0,0,3806.0,1
937,937,-0.8272319902192459,-0.8,0.0,1.0,402.0,638.0,0.0,1,3960.0,0
938,938,0.06451422719794564,0.1,0.0,0.0,370.0,906.0,0.0,1,3724.0,1
939,939,0.09072716806703818,0.1,0.0,0.0,258.0,561.0,0.0,1,4181.0,1
940,940,-0.1931165174176075,-0.2,1.0,0.0,404.0,601.0,0.0,0,3995.0,1
941,941,-0.10366518649253509,-0.1,0.0,1.0,378.0,521.0,0.0,1,4101.0,0
942,942,-0.1132657173398739,-0.1,0.0,1.0,360.0,980.0,1.0,0,-1220.0,1
943,943,0.08283643616365033,0.1,1.0,1.0,299.0,618.0,0.0,0,4083.0,0
944,944,-0.899324036269683,-0.9,0.0,1.0,290.0,523.0,0.0,1,4187.0,0
945,945,0.5411201943200895,0.5,1.0,1.0,494.0,889.0,0.0,0,-1123.0,0
946,946,0.26619663684085226,0.3,1.0,1.0,374.0,916.0,1.0,1,-1210.0,1
947,947,-0.3511114008885886,-0.4,0.0,1.0,297.0,556.0,0.0,1,4147.0,0
948,948,-0.3131862110305085,-0.3,1.0,0.0,419.0,588.0,0.0,0,3993.0,1
949,949,0.501662670037638,0.5,0.0,0.0,364.0,644.0,0.0,1,3992.0,1
950,950,0.8208174102252047,0.8,1.0,1.0,432.0,604.0,0.0,0,3964.0,0
951,951,-0.27607543860395944,-0.3,1.0,0.0,323.0,785.0,1.0,1,-1088.0,0
952,952,0.24759507302211714,0.2,0.0,0.0,369.0,849.0,0.0,1,3782.0,1
953,953,0.027326336263111872,0.0,0.0,0.0,288.0,810.0,0.0,1,3902.0,1
954,954,0.6192674790728844,0.6,1.0,1.0,491.0,541.0,0.0,0,3968.0,0
955,955,0.8019462098341669,0.8,1.0,1.0,385.0,549.0,0.0,0,4066.0,0
956,956,0.7712809907581203,0.8,0.0,0.0,377.0,967.0,0.0,1,3656.0,1
957,957,-0.2862512681270052,-0.3,0.0,1.0,372.0,646.0,0.0,1,3982.0,0
958,958,-0.554267057138301,-0.6,1.0,0.0,408.0,522.0,0.0,0,4070.0,1
959,959,0.0138980767698198,0.0,1.0,1.0,371.0,775.0,0.0,0,3854.0,0
960,960,0.8704492247206842,0.9,1.0,1.0,363.0,940.0,1.0,1,-1253.0,1
961,961,-0.37542380639008655,-0.4,0.0,1.0,372.0,598.0,0.0,1,4030.0,0
962,962,-0.620822720614324,-0.6,0.0,1.0,287.0,961.0,0.0,1,3752.0,0
963,963,0.1734000575166511,0.2,0.0,0.0,298.0,860.0,0.0,1,3842.0,1
964,964,0.045431902635808985,0.0,1.0,1.0,316.0,725.0,0.0,0,3959.0,0
965,965,-0.44193981873987787,-0.4,0.0,1.0,409.0,732.0,0.0,1,3859.0,0
966,966,0.4548855527085168,0.5,0.0,0.0,387.0,970.0,0.0,1,3643.0,1
967,967,0.6218938608341963,0.6,1.0,1.0,326.0,638.0,0.0,0,4036.0,0
968,968,-0.505764960035719,-0.5,0.0,1.0,448.0,631.0,0.0,1,3921.0,0
969,969,-0.6646513746568491,-0.7,1.0,0.0,291.0,875.0,0.0,0,3834.0,1
970,970,-0.22048218222355287,-0.2,1.0,0.0,341.0,602.0,0.0,0,4057.0,1
971,971,-0.6298293876958421,-0.6,1.0,0.0,458.0,745.0,1.0,1,-1053.0,0
972,972,0.0046028605751951,0.0,0.0,0.0,265.0,644.0,0.0,1,4091.0,1
973,973,0.09792257664018278,0.1,1.0,1.0,485.0,624.0,0.0,0,3891.0,0
974,974,-0.4620669661066942,-0.5,1.0,0.0,288.0,584.0,0.0,0,4128.0,1
975,975,-0.8303066514146159,-0.8,0.0,1.0,492.0,661.0,0.0,1,3847.0,0
976,976,-0.27536778191126654,-0.3,0.0,1.0,392.0,926.0,0.0,1,3682.0,0
977,977,-0.47709760102577603,-0.5,0.0,1.0,329.0,958.0,0.0,1,3713.0,0
978,978,-0.1848598594550911,-0.2,0.0,1.0,321.0,632.0,0.0,1,4047.0,0
979,979,-0.05643820406004485,-0.1,0.0,1.0,310.0,659.0,1.0,0,-599.0,1
980,980,0.21228160096172133,0.2,1.0,1.0,340.0,817.0,0.0,0,3843.0,0
981,981,0.8680311060986688,0.9,0.0,0.0,361.0,856.0,1.0,0,-1167.0,0
982,982,-0.07580838149980795,-0.1,1.0,0.0,426.0,931.0,0.0,0,3643.0,1
983,983,0.6446729464936171,0.6,0.0,0.0,343.0,580.0,0.0,1,4077.0,1
984,984,-0.23038862271383242,-0.2,1.0,0.0,331.0,865.0,0.0,0,3804.0,1
985,985,-0.13461266731539134,-0.1,1.0,0.0,476.0,548.0,0.0,0,3976.0,1
986,986,-0.3317616487130237,-0.3,1.0,0.0,482.0,505.0,0.0,0,4013.0,1
987,987,0.5331543957267822,0.5,1.0,1.0,339.0,521.0,0.0,0,4140.0,0
988,988,-0.5179659672920495,-0.5,1.0,0.0,421.0,947.0,0.0,0,3632.0,1
989,989,0.6709163085107189,0.7,0.0,0.0,432.0,821.0,0.0,1,3747.0,1
990,990,0.3375169772236658,0.3,0.0,0.0,376.0,823.0,0.0,1,3801.0,1
991,991,-0.7395663534078205,-0.7,0.0,1.0,360.0,672.0,1.0,0,-1022.0,1
992,992,0.5815845321238496,0.6,0.0,0.0,307.0,616.0,0.0,1,4077.0,1
993,993,0.04396874855573785,0.0,1.0,1.0,439.0,913.0,0.0,0,3648.0,0
994,994,0.7118474259820565,0.7,0.0,0.0,290.0,630.0,0.0,1,4080.0,1
995,995,-0.3086735545056236,-0.3,0.0,1.0,391.0,979.0,0.0,1,3630.0,0
996,996,-0.5128403830348192,-0.5,0.0,1.0,454.0,577.0,0.0,1,3969.0,0
997,997,-0.006291022569122617,-0.0,1.0,0.0,419.0,672.0,0.0,0,3909.0,1
998,998,-0.7277126037474484,-0.7,1.0,0.0,463.0,834.0,0.0,0,3703.0,1
999,999,0.49336630216220845,0.5,0.0,0.0,279.0,971.0,0.0,1,3750.0,1
1000,1000,0.5635078141750666,0.6,1.0,1.0,461.0,866.0,0.0,0,-577.0,0
1001,1001,-0.883562312757674,-0.9,1.0,0.0,264.0,935.0,0.0,0,-969.0,1
1002,1002,0.2981636313993522,0.3,1.0,1.0,473.0,538.0,0.0,0,3989.0,0
1003,1003,-0.8312772010412719,-0.8,1.0,0.0,325.0,657.0,0.0,0,4018.0,1
1004,1004,0.5208312549630466,0.5,1.0,1.0,368.0,995.0,0.0,0,3637.0,0
1005,1005,-0.17913758899243037,-0.2,0.0,1.0,351.0,566.0,0.0,1,-327.0,0
1006,1006,0.6141144213343611,0.6,0.0,0.0,305.0,721.0,0.0,1,3974.0,1
1007,1007,0.7894357796049273,0.8,0.0,0.0,277.0,990.0,0.0,1,3733.0,1
1008,1008,0.07311564668921133,0.1,0.0,0.0,377.0,610.0,0.0,1,4013.0,1
1009,1009,-0.14787754389759866,-0.1,1.0,0.0,350.0,600.0,0.0,0,4050.0,1
1010,1010,-0.014876624526963478,-0.0,0.0,1.0,298.0,993.0,0.0,1,3709.0,0
1011,1011,-0.3884885658054802,-0.4,0.0,1.0,433.0,851.0,0.0,1,3716.0,0
1012,1012,-0.2101637752463874,-0.2,1.0,0.0,485.0,793.0,0.0,0,3722.0,1
1013,1013,0.697973273482981,0.7,1.0,1.0,345.0,619.0,0.0,0,4036.0,0
1014,1014,-0.7716250566775632,-0.8,0.0,1.0,448.0,653.0,0.0,1,3899.0,0
1015,1015,-0.5657884720988449,-0.6,0.0,1.0,424.0,683.0,0.0,1,3893.0,0
1016,1016,-0.6922097631987383,-0.7,0.0,1.0,483.0,974.0,0.0,1,3543.0,0
1017,1017,-0.05451179782366933,-0.1,0.0,1.0,402.0,775.0,0.0,1,3823.0,0
1018,1018,0.08760182104770042,0.1,1.0,1.0,380.0,825.0,0.0,0,3795.0,0
1019,1019,-0.11405300555395093,-0.1,1.0,0.0,317.0,638.0,0.0,0,4045.0,1
1020,1020,-0.5490222993364735,-0.5,1.0,0.0,374.0,634.0,0.0,0,3992.0,1
1021,1021,-0.5517367772728998,-0.6,1.0,0.0,307.0,779.0,0.0,0,3914.0,1
1022,1022,0.33788453323010004,0.3,0.0,0.0,258.0,604.0,0.0,1,4138.0,1
1023,1023,-0.8713743061889923,-0.9,1.0,0.0,431.0,983.0,0.0,0,3586.0,1
1024,1024,0.06576037742441332,0.1,0.0,0.0,361.0,714.0,0.0,1,3925.0,1
1025,1025,0.6930118450685493,0.7,0.0,0.0,410.0,548.0,0.0,1,4042.0,1
1026,1026,-0.01775754890702186,-0.0,1.0,0.0,302.0,737.0,0.0,0,3961.0,1
1027,1027,0.3294847490153313,0.3,0.0,0.0,281.0,602.0,0.0,1,4117.0,1
1028,1028,-0.48631327669153895,-0.5,0.0,1.0,437.0,551.0,0.0,1,4012.0,0
1029,1029,0.46267950520791257,0.5,1.0,1.0,446.0,652.0,0.0,0,3902.0,0
1030,1030,0.20232712987567203,0.2,1.0,1.0,432.0,700.0,0.0,0,3868.0,0
1031,1031,0.7185532292593201,0.7,1.0,1.0,416.0,777.0,0.0,0,3807.0,0
1032,1032,-0.43870205908423043,-0.4,1.0,0.0,398.0,777.0,0.0,0,3825.0,1
1033,1033,-0.5607417405406611,-0.6,1.0,0.0,274.0,687.0,1.0,1,-901.0,0
1034,1034,-0.33489890565600133,-0.3,1.0,0.0,256.0,878.0,0.0,0,3866.0,1
1035,1035,-0.5589656108961834,-0.6,0.0,1.0,422.0,781.0,0.0,1,3797.0,0
1036,1036,-0.607608419795628,-0.6,1.0,0.0,425.0,690.0,0.0,0,3885.0,1
1037,1037,-0.09360811960499504,-0.1,1.0,0.0,399.0,843.0,0.0,0,3758.0,1
1038,1038,0.784209653593653,0.8,1.0,1.0,293.0,530.0,0.0,0,4177.0,0
1039,1039,-0.23406774658646534,-0.2,1.0,0.0,388.0,792.0,0.0,0,3820.0,1
1040,1040,0.29605933323684386,0.3,0.0,0.0,475.0,945.0,0.0,1,3580.0,1
1041,1041,-0.2524271689102292,-0.3,0.0,1.0,475.0,980.0,0.0,1,3545.0,0
1042,1042,0.49392356231387236,0.5,0.0,0.0,354.0,743.0,0.0,1,3903.0,1
1043,1043,-0.8255671717416083,-0.8,1.0,0.0,340.0,998.0,0.0,0,3662.0,1
1044,1044,-0.7154604411490931,-0.7,1.0,0.0,477.0,655.0,0.0,0,3868.0,1
1045,1045,-0.38357727348002035,-0.4,1.0,0.0,338.0,930.0,0.0,0,3732.0,1
1046,1046,0.7524536350447687,0.8,0.0,0.0,404.0,695.0,0.0,1,3901.0,1
1047,1047,-0.4835487008695821,-0.5,1.0,0.0,390.0,691.0,0.0,0,3919.0,1
1048,1048,-0.669083105831822,-0.7,0.0,1.0,454.0,950.0,0.0,1,3596.0,0
1049,1049,0.02435493862748983,0.0,1.0,1.0,459.0,778.0,0.0,0,3763.0,0
1050,1050,0.22999097066164198,0.2,0.0,0.0,328.0,980.0,0.0,1,3692.0,1
1051,1051,-0.1283515404671366,-0.1,1.0,0.0,252.0,534.0,0.0,0,4214.0,1
1052,1052,-0.5666519082781023,-0.6,0.0,1.0,342.0,935.0,0.0,1,3723.0,0
1053,1053,0.8370591335146028,0.8,0.0,0.0,496.0,873.0,0.0,1,3631.0,1
1054,1054,-0.04135098941603221,-0.0,0.0,1.0,307.0,664.0,0.0,1,4029.0,0
1055,1055,0.28413210475430783,0.3,0.0,0.0,301.0,531.0,0.0,1,4168.0,1
1056,1056,0.6136876852974963,0.6,0.0,0.0,415.0,668.0,0.0,1,3917.0,1
1057,1057,0.12311739746002093,0.1,0.0,0.0,441.0,876.0,0.0,1,3683.0,1
1058,1058,-0.7433258148932791,-0.7,0.0,1.0,362.0,524.0,0.0,1,4114.0,0
1059,1059,0.8874006013620378,0.9,1.0,1.0,409.0,915.0,0.0,0,3676.0,0
1060,1060,-0.5885851146170541,-0.6,0.0,1.0,270.0,863.0,0.0,1,3867.0,0
1061,1061,0.08925394565355926,0.1,0.0,0.0,362.0,529.0,0.0,1,4109.0,1
1062,1062,0.1696105446819519,0.2,0.0,0.0,280.0,631.0,0.0,1,4089.0,1
1063,1063,-0.6078969991637049,-0.6,0.0,1.0,316.0,516.0,0.0,1,4168.0,0
1064,1064,-0.28747923338746517,-0.3,1.0,0.0,342.0,505.0,0.0,0,4153.0,1
1065,1065,-0.33511924810722915,-0.3,1.0,0.0,344.0,581.0,0.0,0,4075.0,1
1066,1066,0.6139883604788982,0.6,1.0,1.0,358.0,673.0,0.0,0,3969.0,0
1067,1067,0.2856599339981797,0.3,1.0,1.0,277.0,698.0,0.0,0,4025.0,0
1068,1068,-0.38835489363436637,-0.4,1.0,0.0,378.0,524.0,0.0,0,4098.0,1
1069,1069,-0.5477586653329702,-0.5,0.0,1.0,483.0,948.0,0.0,1,3569.0,0
1070,1070,-0.3766806584200456,-0.4,0.0,1.0,337.0,847.0,0.0,1,3816.0,0
1071,1071,0.4986644834968269,0.5,1.0,1.0,439.0,701.0,0.0,0,3860.0,0
1072,1072,0.606468294717947,0.6,1.0,1.0,309.0,586.0,0.0,0,4105.0,0
1073,1073,-0.6431492173835645,-0.6,0.0,1.0,495.0,859.0,1.0,0,-1264.0,1
1074,1074,-0.23488490491645075,-0.2,0.0,1.0,428.0,749.0,0.0,1,3823.0,0
1075,1075,0.39606360923465556,0.4,0.0,0.0,289.0,640.0,0.0,1,4071.0,1
1076,1076,-0.31938925847802346,-0.3,0.0,1.0,421.0,970.0,0.0,1,3609.0,0
1077,1077,-0.2469348246967007,-0.2,1.0,0.0,331.0,862.0,0.0,0,3807.0,1
1078,1078,-0.6053848392053176,-0.6,1.0,0.0,356.0,779.0,0.0,0,3865.0,1
1079,1079,0.6450323073600824,0.6,1.0,1.0,386.0,828.0,0.0,0,3786.0,0
1080,1080,0.6678970932936689,0.7,1.0,1.0,297.0,856.0,0.0,0,3847.0,0
1081,1081,0.8948179581245009,0.9,0.0,0.0,475.0,896.0,0.0,1,3629.0,1
1082,1082,0.2065907980428935,0.2,1.0,1.0,384.0,843.0,1.0,1,-1117.0,1
1083,1083,-0.6890951505535227,-0.7,1.0,0.0,370.0,654.0,0.0,0,3976.0,1
1084,1084,-0.8316675891385481,-0.8,0.0,1.0,381.0,869.0,0.0,1,3750.0,0
1085,1085,-0.4239460610953338,-0.4,0.0,1.0,464.0,975.0,0.0,1,3561.0,0
1086,1086,0.7799301681836658,0.8,0.0,0.0,463.0,522.0,0.0,1,4015.0,1
1087,1087,-0.17292961580952315,-0.2,0.0,1.0,388.0,827.0,0.0,1,3785.0,0
1088,1088,0.5011476318026221,0.5,0.0,0.0,457.0,845.0,0.0,1,-1132.0,1
1089,1089,-0.012475341284157282,-0.0,1.0,0.0,492.0,747.0,0.0,0,3761.0,1
1090,1090,-0.3807797555572273,-0.4,1.0,0.0,419.0,855.0,0.0,0,-1024.0,1
1091,1091,0.5847195626760168,0.6,1.0,1.0,430.0,660.0,0.0,0,3910.0,0
1092,1092,-0.629970999738026,-0.6,0.0,1.0,419.0,545.0,0.0,1,4036.0,0
1093,1093,-0.19765157794277133,-0.2,1.0,0.0,368.0,906.0,1.0,1,-1264.0,0
1094,1094,-0.8758596997049634,-0.9,1.0,0.0,369.0,622.0,1.0,1,-991.0,0
1095,1095,-0.8563589792187879,-0.9,0.0,1.0,406.0,624.0,0.0,1,3970.0,0
1096,1096,0.7773772823938586,0.8,1.0,1.0,312.0,626.0,0.0,0,4062.0,0
1097,1097,-0.7313363590484895,-0.7,0.0,1.0,488.0,710.0,1.0,0,-1198.0,1
1098,1098,0.000596079318852416,0.0,1.0,1.0,362.0,880.0,0.0,0,3758.0,0
1099,1099,-0.5702257771854449,-0.6,1.0,0.0,372.0,757.0,0.0,0,3871.0,1
1100,1100,0.0306817441074142,0.0,1.0,1.0,476.0,925.0,0.0,0,3599.0,0
1101,1101,0.570929416840034,0.6,1.0,1.0,341.0,617.0,0.0,0,4042.0,0
1102,1102,0.029624193761067175,0.0,0.0,0.0,284.0,617.0,0.0,1,-611.0,1
1103,1103,0.4140358399676042,0.4,0.0,0.0,360.0,608.0,0.0,1,4032.0,1
1104,1104,0.169504024399438,0.2,1.0,1.0,385.0,623.0,0.0,0,3992.0,0
1105,1105,-0.8801387572184154,-0.9,0.0,1.0,487.0,951.0,0.0,1,3562.0,0
1106,1106,-0.19294118517665082,-0.2,0.0,1.0,342.0,585.0,0.0,1,4073.0,0
1107,1107,-0.008459146058838907,-0.0,1.0,0.0,499.0,709.0,0.0,0,3792.0,1
1108,1108,0.6619100212837535,0.7,1.0,1.0,471.0,550.0,0.0,0,3979.0,0
1109,1109,0.18295132386376733,0.2,1.0,1.0,369.0,886.0,0.0,0,3745.0,0
1110,1110,0.015268131397348728,0.0,1.0,1.0,261.0,749.0,0.0,0,3990.0,0
1111,1111,-0.20314817614386105,-0.2,1.0,0.0,425.0,746.0,0.0,0,3829.0,1
1112,1112,-0.65977454626459,-0.7,1.0,0.0,297.0,743.0,0.0,0,3960.0,1
1113,1113,-0.20665798380672817,-0.2,0.0,1.0,483.0,637.0,0.0,1,3880.0,0
1114,1114,-0.7082909650704866,-0.7,0.0,1.0,302.0,545.0,0.0,1,4153.0,0
1115,1115,0.06167161376082331,0.1,1.0,1.0,292.0,839.0,0.0,0,3869.0,0
1116,1116,-0.35592026455486336,-0.4,1.0,0.0,302.0,960.0,0.0,0,-1032.0,1
1117,1117,0.2715968145162969,0.3,1.0,1.0,357.0,592.0,0.0,0,4051.0,0
1118,1118,-0.49499968672533406,-0.5,1.0,0.0,295.0,650.0,0.0,0,4055.0,1
1119,1119,-0.17964569461894675,-0.2,1.0,0.0,349.0,799.0,0.0,0,3852.0,1
1120,1120,0.313358821280023,0.3,1.0,1.0,287.0,619.0,0.0,0,4094.0,0
1121,1121,0.02736120102581674,0.0,1.0,1.0,460.0,725.0,0.0,0,3815.0,0
1122,1122,-0.2059006694182438,-0.2,0.0,1.0,443.0,520.0,0.0,1,4037.0,0
1123,1123,-0.2168345620508625,-0.2,1.0,0.0,440.0,814.0,0.0,0,3746.0,1
1124,1124,0.0014081017178035893,0.0,1.0,1.0,319.0,586.0,0.0,0,4095.0,0
1125,1125,0.3849284496622146,0.4,1.0,1.0,294.0,543.0,0.0,0,4163.0,0
1126,1126,-0.1486400997173204,-0.1,0.0,1.0,352.0,859.0,0.0,1,3789.0,0
1127,1127,0.40098538283800667,0.4,1.0,1.0,371.0,615.0,0.0,0,4014.0,0
1128,1128,-0.43278103313687977,-0.4,1.0,0.0,344.0,808.0,0.0,0,3848.0,1
1129,1129,0.5587325706196297,0.6,0.0,0.0,338.0,930.0,0.0,1,3732.0,1
1130,1130,-0.5103119303241364,-0.5,0.0,1.0,440.0,734.0,0.0,1,3826.0,0
1131,1131,0.7864558744809674,0.8,1.0,1.0,282.0,934.0,0.0,0,3784.0,0
1132,1132,0.05236018597443659,0.1,0.0,0.0,351.0,882.0,0.0,1,3767.0,1
1133,1133,-0.535768783500612,-0.5,1.0,0.0,440.0,690.0,0.0,0,3870.0,1
1134,1134,-0.09772673533639853,-0.1,1.0,0.0,294.0,845.0,0.0,0,3861.0,1
1135,1135,0.7090184037417374,0.7,1.0,1.0,343.0,690.0,0.0,0,3967.0,0
1136,1136,-0.8982253928545119,-0.9,1.0,0.0,488.0,794.0,0.0,0,3718.0,1
1137,1137,-0.022638750253493378,-0.0,0.0,1.0,363.0,754.0,0.0,1,3883.0,0
1138,1138,-0.48106237562636267,-0.5,0.0,1.0,362.0,955.0,0.0,1,3683.0,0
1139,1139,-0.6180306063915575,-0.6,1.0,0.0,398.0,884.0,0.0,0,3718.0,1
1140,1140,0.7614649465856663,0.8,1.0,1.0,459.0,654.0,0.0,0,3887.0,0
1141,1141,-0.2382541717014729,-0.2,1.0,0.0,254.0,943.0,0.0,0,3803.0,1
1142,1142,-0.3095259027085199,-0.3,0.0,1.0,489.0,739.0,0.0,1,3772.0,0
1143,1143,0.024361096728724108,0.0,1.0,1.0,410.0,940.0,0.0,0,3650.0,0
1144,1144,-0.17620998052339976,-0.2,1.0,0.0,365.0,661.0,0.0,0,3974.0,1
1145,1145,0.4993093924751294,0.5,0.0,0.0,478.0,592.0,1.0,0,-1000.0,0
1146,1146,-0.32378755426134587,-0.3,1.0,0.0,262.0,971.0,0.0,0,3767.0,1
1147,1147,-0.11859602303929084,-0.1,1.0,0.0,271.0,822.0,0.0,0,3907.0,1
1148,1148,0.714127988218822,0.7,0.0,0.0,364.0,958.0,0.0,1,3678.0,1
1149,1149,0.2893358382883119,0.3,0.0,0.0,388.0,773.0,1.0,0,-1081.0,0
1150,1150,-0.7980244277249785,-0.8,1.0,0.0,464.0,534.0,0.0,0,4002.0,1
1151,1151,-0.1691786795322796,-0.2,0.0,1.0,468.0,787.0,0.0,1,3745.0,0
1152,1152,-0.20813609819942225,-0.2,0.0,1.0,497.0,871.0,0.0,1,3632.0,0
1153,1153,0.22482535022139205,0.2,0.0,0.0,292.0,636.0,0.0,1,4072.0,1
1154,1154,0.898091941655149,0.9,1.0,1.0,463.0,553.0,0.0,0,3984.0,0
1155,1155,0.8184727712952037,0.8,0.0,0.0,432.0,821.0,0.0,1,3747.0,1
1156,1156,0.3635766102178325,0.4,1.0,1.0,476.0,803.0,0.0,0,-859.0,0
1157,1157,-0.21079744544561385,-0.2,1.0,0.0,396.0,708.0,0.0,0,3896.0,1
1158,1158,-0.5635368547106412,-0.6,1.0,0.0,389.0,806.0,1.0,1,-1175.0,0
1159,1159,-0.34671829041569235,-0.3,1.0,0.0,494.0,768.0,0.0,0,3738.0,1
1160,1160,0.2307182014013932,0.2,1.0,1.0,460.0,982.0,0.0,0,3558.0,0
1161,1161,-0.3741102994407556,-0.4,1.0,0.0,381.0,525.0,0.0,0,4094.0,1
1162,1162,0.8659355919084529,0.9,1.0,1.0,262.0,817.0,0.0,0,3921.0,0
1163,1163,-0.7742636521361791,-0.8,0.0,1.0,259.0,647.0,0.0,1,4094.0,0
1164,1164,-0.8504803869760963,-0.9,1.0,0.0,273.0,665.0,0.0,0,4062.0,1
1165,1165,0.003159922534275661,0.0,0.0,0.0,275.0,713.0,0.0,1,4012.0,1
1166,1166,0.020821352765226897,0.0,0.0,0.0,399.0,564.0,0.0,1,4037.0,1
1167,1167,-0.538452706710849,-0.5,1.0,0.0,485.0,650.0,1.0,1,-1065.0,0
1168,1168,-0.40382585655615966,-0.4,0.0,1.0,305.0,830.0,0.0,1,3865.0,0
1169,1169,-0.3530611869810588,-0.4,0.0,1.0,329.0,771.0,0.0,1,3900.0,0
1170,1170,-0.6781052929303574,-0.7,0.0,1.0,470.0,505.0,0.0,1,4025.0,0
1171,1171,-0.1265031278969071,-0.1,0.0,1.0,272.0,723.0,0.0,1,4005.0,0
1172,1172,0.4764157807016446,0.5,1.0,1.0,398.0,919.0,0.0,0,3683.0,0
1173,1173,0.481187757217557,0.5,0.0,0.0,251.0,766.0,1.0,0,-907.0,0
1174,1174,-0.23202990258475786,-0.2,1.0,0.0,369.0,699.0,0.0,0,3932.0,1
1175,1175,-0.2133861444413303,-0.2,1.0,0.0,259.0,871.0,0.0,0,3870.0,1
1176,1176,-0.4813248321805383,-0.5,1.0,0.0,343.0,739.0,0.0,0,3918.0,1
1177,1177,-0.2130070680198809,-0.2,1.0,0.0,274.0,652.0,1.0,1,-846.0,0
1178,1178,-0.8437436797749219,-0.8,1.0,0.0,479.0,925.0,0.0,0,3596.0,1
1179,1179,-0.43184067099845114,-0.4,1.0,0.0,448.0,947.0,0.0,0,3605.0,1
1180,1180,-0.8017119095457417,-0.8,0.0,1.0,285.0,634.0,1.0,0,-719.0,1
1181,1181,0.4169599311173303,0.4,0.0,0.0,313.0,841.0,0.0,1,3846.0,1
1182,1182,0.20754582182397374,0.2,0.0,0.0,348.0,914.0,0.0,1,3738.0,1
1183,1183,0.21611611162708788,0.2,1.0,1.0,324.0,830.0,0.0,0,3846.0,0
1184,1184,-0.8312543832726959,-0.8,0.0,1.0,374.0,918.0,0.0,1,3708.0,0
1185,1185,-0.6164882963572509,-0.6,0.0,1.0,477.0,900.0,0.0,1,3623.0,0
1186,1186,-0.20564905158112745,-0.2,0.0,1.0,416.0,658.0,0.0,1,-814.0,0
1187,1187,0.3902220350203637,0.4,0.0,0.0,372.0,638.0,0.0,1,3990.0,1
1188,1188,0.371821856627201,0.4,1.0,1.0,494.0,526.0,0.0,0,3980.0,0
1189,1189,-0.837859004403903,-0.8,0.0,1.0,399.0,646.0,0.0,1,3955.0,0
1190,1190,-0.8028307760076491,-0.8,0.0,1.0,414.0,645.0,0.0,1,3941.0,0
1191,1191,0.20746398699936186,0.2,0.0,0.0,303.0,729.0,0.0,1,3968.0,1
1192,1192,-0.6778586786226992,-0.7,0.0,1.0,331.0,560.0,0.0,1,4109.0,0
1193,1193,0.6212843710780164,0.6,1.0,1.0,370.0,761.0,0.0,0,3869.0,0
1194,1194,0.37175978811361154,0.4,1.0,1.0,458.0,739.0,0.0,0,3803.0,0
1195,1195,0.2149785596719228,0.2,1.0,1.0,499.0,513.0,0.0,0,3988.0,0
1196,1196,0.6991558358420603,0.7,0.0,0.0,375.0,621.0,0.0,1,4004.0,1
1197,1197,-0.08028073734608399,-0.1,0.0,1.0,477.0,802.0,0.0,1,3721.0,0
1198,1198,-0.4356175935477199,-0.4,1.0,0.0,426.0,769.0,0.0,0,3805.0,1
1199,1199,-0.35032618789027803,-0.4,1.0,0.0,407.0,745.0,0.0,0,3848.0,1
1200,1200,0.27297338938796945,0.3,1.0,1.0,264.0,864.0,0.0,0,3872.0,0
1201,1201,0.5393425462363511,0.5,1.0,1.0,297.0,744.0,0.0,0,3959.0,0
1202,1202,-0.7481219792382411,-0.7,0.0,1.0,382.0,825.0,0.0,1,3793.0,0
1203,1203,0.6866301867030465,0.7,1.0,1.0,425.0,610.0,0.0,0,3965.0,0
1204,1204,0.8906776095175627,0.9,1.0,1.0,471.0,974.0,0.0,0,3555.0,0
1205,1205,0.33354497494978996,0.3,0.0,0.0,487.0,695.0,0.0,1,3818.0,1
1206,1206,-0.7084000865517404,-0.7,1.0,0.0,300.0,766.0,0.0,0,3934.0,1
1207,1207,0.20372620347311166,0.2,0.0,0.0,402.0,960.0,0.0,1,3638.0,1
1208,1208,0.6370896347482412,0.6,1.0,1.0,366.0,597.0,0.0,0,4037.0,0
1209,1209,-0.12299914107764898,-0.1,0.0,1.0,297.0,628.0,0.0,1,4075.0,0
1210,1210,0.5896746149966027,0.6,1.0,1.0,253.0,944.0,0.0,0,3803.0,0
1211,1211,-0.6943571524129131,-0.7,1.0,0.0,455.0,564.0,0.0,0,3981.0,1
1212,1212,0.009871059810004024,0.0,1.0,1.0,478.0,544.0,0.0,0,3978.0,0
1213,1213,-0.8271602675252172,-0.8,0.0,1.0,348.0,950.0,0.0,1,3702.0,0
1214,1214,0.34601805735115343,0.3,0.0,0.0,275.0,863.0,1.0,0,-1028.0,0
1215,1215,0.5348453409621833,0.5,1.0,1.0,321.0,976.0,0.0,0,3703.0,0
1216,1216,-0.1082246043454147,-0.1,0.0,1.0,309.0,895.0,0.0,1,3796.0,0
1217,1217,-0.7119001896604951,-0.7,0.0,1.0,260.0,964.0,0.0,1,3776.0,0
1218,1218,-0.39031835205041376,-0.4,1.0,0.0,327.0,692.0,0.0,0,3981.0,1
1219,1219,-0.2860757959427659,-0.3,0.0,1.0,327.0,606.0,0.0,1,4067.0,0
1220,1220,-0.4670635461319292,-0.5,1.0,0.0,337.0,526.0,1.0,1,-773.0,0
1221,1221,-0.8810411993707562,-0.9,1.0,0.0,313.0,724.0,0.0,0,3963.0,1
1222,1222,-0.29926002280442066,-0.3,0.0,1.0,462.0,865.0,0.0,1,3673.0,0
1223,1223,0.6083208249641135,0.6,1.0,1.0,284.0,823.0,0.0,0,3893.0,0
1224,1224,0.8289524908707512,0.8,1.0,1.0,267.0,790.0,1.0,1,-917.0,1
1225,1225,0.39588666255826477,0.4,0.0,0.0,461.0,783.0,1.0,0,-1154.0,0
1226,1226,-0.28765411363741766,-0.3,1.0,0.0,424.0,698.0,0.0,0,3878.0,1
1227,1227,-0.5583967824169727,-0.6,0.0,1.0,318.0,833.0,1.0,0,-1031.0,1
1228,1228,-0.8584990583531936,-0.9,0.0,1.0,462.0,621.0,1.0,0,-973.0,1
1229,1229,0.4410027043085195,0.4,0.0,0.0,319.0,873.0,0.0,1,3808.0,1
1230,1230,-0.86759543258169,-0.9,1.0,0.0,419.0,955.0,0.0,0,-1014.0,1
1231,1231,-0.1997516681389434,-0.2,0.0,1.0,437.0,851.0,0.0,1,3712.0,0
1232,1232,0.6404923732337279,0.6,0.0,0.0,318.0,603.0,1.0,0,-881.0,0
1233,1233,-0.06194321442345507,-0.1,0.0,1.0,313.0,745.0,0.0,1,3942.0,0
1234,1234,0.5399856300753888,0.5,0.0,0.0,437.0,880.0,0.0,1,3683.0,1
1235,1235,-0.06286875936181358,-0.1,0.0,1.0,392.0,954.0,0.0,1,3654.0,0
1236,1236,0.6164510689176589,0.6,0.0,0.0,457.0,879.0,1.0,0,-1086.0,0
1237,1237,0.5576883780599763,0.6,0.0,0.0,498.0,533.0,0.0,1,3969.0,1
1238,1238,-0.4015512688286807,-0.4,1.0,0.0,302.0,685.0,0.0,0,4013.0,1
1239,1239,0.08113120703713439,0.1,1.0,1.0,300.0,580.0,0.0,0,4120.0,0
1240,1240,0.6669631599829194,0.7,0.0,0.0,260.0,968.0,0.0,1,3772.0,1
1241,1241,-0.377025426636587,-0.4,1.0,0.0,334.0,973.0,0.0,0,3693.0,1
1242,1242,-0.4262292671789016,-0.4,0.0,1.0,337.0,567.0,0.0,1,-764.0,0
1243,1243,-0.11221627598099204,-0.1,0.0,1.0,320.0,791.0,0.0,1,3889.0,0
1244,1244,0.08231381241987645,0.1,0.0,0.0,293.0,739.0,0.0,1,3968.0,1
1245,1245,-0.7539192575208361,-0.8,0.0,1.0,375.0,780.0,0.0,1,3845.0,0
1246,1246,-0.8965150972429763,-0.9,0.0,1.0,337.0,828.0,0.0,1,3835.0,0
1247,1247,0.5313607783942432,0.5,1.0,1.0,361.0,926.0,0.0,0,3713.0,0
1248,1248,-0.17354892934917687,-0.2,0.0,1.0,393.0,502.0,0.0,1,4105.0,0
1249,1249,-0.8112540898834982,-0.8,0.0,1.0,346.0,837.0,0.0,1,3817.0,0
1250,1250,-0.423541031206911,-0.4,0.0,1.0,355.0,953.0,0.0,1,3692.0,0
1251,1251,0.12701228109724327,0.1,0.0,0.0,420.0,940.0,1.0,0,-1170.0,0
1252,1252,0.4365178329039431,0.4,1.0,1.0,442.0,673.0,0.0,0,3885.0,0
1253,1253,0.15642792111130832,0.2,1.0,1.0,476.0,508.0,0.0,0,4016.0,0
1254,1254,-0.8130607792218513,-0.8,1.0,0.0,404.0,707.0,0.0,0,3889.0,1
1255,1255,-0.7005716261145797,-0.7,0.0,1.0,378.0,876.0,0.0,1,3746.0,0
1256,1256,-0.8632663179535719,-0.9,1.0,0.0,354.0,664.0,1.0,1,-928.0,0
1257,1257,-0.5028360169380204,-0.5,0.0,1.0,256.0,838.0,1.0,0,-974.0,1
1258,1258,-0.8271298876044366,-0.8,1.0,0.0,416.0,562.0,0.0,0,4022.0,1
1259,1259,0.052733914011830585,0.1,1.0,1.0,453.0,876.0,0.0,0,3671.0,0
1260,1260,0.6753268138966789,0.7,1.0,1.0,399.0,651.0,0.0,0,3950.0,0
1261,1261,0.5512407358925558,0.6,0.0,0.0,255.0,519.0,0.0,1,4226.0,1
1262,1262,-0.20521838852154828,-0.2,1.0,0.0,294.0,839.0,0.0,0,3867.0,1
1263,1263,-0.7837918245476001,-0.8,1.0,0.0,493.0,905.0,0.0,0,3602.0,1
1264,1264,-0.5479878310451701,-0.5,1.0,0.0,483.0,899.0,0.0,0,3618.0,1
1265,1265,-0.8064708449835175,-0.8,1.0,0.0,318.0,674.0,1.0,1,-812.0,0
1266,1266,-0.4257230440749953,-0.4,0.0,1.0,357.0,548.0,0.0,1,4095.0,0
1267,1267,0.7063875195124824,0.7,0.0,0.0,279.0,540.0,0.0,1,4181.0,1
1268,1268,-0.44710864527015814,-0.4,0.0,1.0,277.0,652.0,0.0,1,4071.0,0
1269,1269,0.08120121597928143,0.1,0.0,0.0,310.0,801.0,0.0,1,3889.0,1
1270,1270,0.821330940104069,0.8,1.0,1.0,405.0,654.0,0.0,0,3941.0,0
1271,1271,-0.3514753963718743,-0.4,0.0,1.0,359.0,697.0,1.0,0,-1046.0,1
1272,1272,-0.003091318827746714,-0.0,0.0,1.0,372.0,711.0,1.0,0,-1023.0,1
1273,1273,-0.11272486734322329,-0.1,1.0,0.0,433.0,898.0,0.0,0,3669.0,1
1274,1274,0.06856294050576583,0.1,1.0,1.0,380.0,880.0,0.0,0,3740.0,0
1275,1275,-0.728712689174615,-0.7,0.0,1.0,437.0,525.0,0.0,1,4038.0,0
1276,1276,0.7634372727664945,0.8,0.0,0.0,293.0,742.0,0.0,1,3965.0,1
1277,1277,0.5334843822753838,0.5,0.0,0.0,313.0,794.0,0.0,1,3893.0,1
1278,1278,0.588840266502389,0.6,0.0,0.0,428.0,970.0,0.0,1,3602.0,1
1279,1279,-0.11800052190117072,-0.1,0.0,1.0,498.0,756.0,0.0,1,3746.0,0
1280,1280,-0.24887505140363586,-0.2,1.0,0.0,466.0,904.0,1.0,1,-1320.0,0
1281,1281,0.0998859454317178,0.1,0.0,0.0,306.0,767.0,1.0,0,-1053.0,0
1282,1282,0.07914618439387944,0.1,0.0,0.0,379.0,558.0,0.0,1,4063.0,1
1283,1283,0.5345568210670718,0.5,1.0,1.0,281.0,772.0,0.0,0,3947.0,0
1284,1284,0.8225705263622193,0.8,0.0,0.0,323.0,912.0,0.0,1,3765.0,1
1285,1285,-0.5671910640416444,-0.6,0.0,1.0,321.0,880.0,0.0,1,3799.0,0
1286,1286,0.3857346367488056,0.4,0.0,0.0,384.0,698.0,0.0,1,3918.0,1
1287,1287,0.21998643964226983,0.2,0.0,0.0,471.0,888.0,0.0,1,3641.0,1
1288,1288,0.05126862276387556,0.1,0.0,0.0,371.0,657.0,0.0,1,3972.0,1
1289,1289,0.6106318996949259,0.6,1.0,1.0,349.0,848.0,0.0,0,3803.0,0
1290,1290,0.23460939739037723,0.2,0.0,0.0,330.0,623.0,0.0,1,4047.0,1
1291,1291,0.2199296301766679,0.2,1.0,1.0,489.0,996.0,0.0,0,3515.0,0
1292,1292,-0.15602336896749447,-0.2,0.0,1.0,296.0,894.0,0.0,1,3810.0,0
1293,1293,0.7649484287869895,0.8,1.0,1.0,441.0,629.0,0.0,0,3930.0,0
1294,1294,-0.6393609928644668,-0.6,0.0,1.0,372.0,726.0,0.0,1,3902.0,0
1295,1295,-0.8605481339652262,-0.9,1.0,0.0,467.0,845.0,0.0,0,3688.0,1
1296,1296,-0.09115742187070086,-0.1,1.0,0.0,413.0,507.0,0.0,0,4080.0,1
1297,1297,-0.2632932747767732,-0.3,0.0,1.0,370.0,766.0,0.0,1,3864.0,0
1298,1298,0.10134639363314124,0.1,0.0,0.0,421.0,851.0,0.0,1,3728.0,1
1299,1299,-0.3442575991989749,-0.3,0.0,1.0,300.0,985.0,0.0,1,3715.0,0
1300,1300,0.868723651553383,0.9,1.0,1.0,325.0,723.0,0.0,0,3952.0,0
1301,1301,-0.07840561935526758,-0.1,1.0,0.0,420.0,988.0,0.0,0,3592.0,1
1302,1302,0.20398576163860882,0.2,1.0,1.0,258.0,935.0,0.0,0,3807.0,0
1303,1303,-0.28002621517864346,-0.3,0.0,1.0,252.0,599.0,0.0,1,4149.0,0
1304,1304,0.10632819278630856,0.1,1.0,1.0,410.0,652.0,0.0,0,3938.0,0
1305,1305,0.8999752613314643,0.9,1.0,1.0,305.0,898.0,0.0,0,3797.0,0
1306,1306,-0.25195288416466743,-0.3,1.0,0.0,338.0,822.0,0.0,0,3840.0,1
1307,1307,0.21408343608292368,0.2,0.0,0.0,317.0,874.0,0.0,1,3809.0,1
1308,1308,-0.3240736417758212,-0.3,0.0,1.0,349.0,974.0,0.0,1,3677.0,0
1309,1309,-0.005886983456110939,-0.0,1.0,0.0,338.0,590.0,0.0,0,4072.0,1
1310,1310,0.8816884820838636,0.9,0.0,0.0,368.0,518.0,0.0,1,4114.0,1
1311,1311,-0.8416026654130829,-0.8,0.0,1.0,430.0,607.0,0.0,1,3963.0,0
1312,1312,0.8233894836813195,0.8,0.0,0.0,356.0,770.0,0.0,1,3874.0,1
1313,1313,0.4432100639213362,0.4,1.0,1.0,327.0,957.0,1.0,1,-1234.0,1
1314,1314,0.13315603382981667,0.1,0.0,0.0,362.0,914.0,0.0,1,3724.0,1
1315,1315,0.7290275503732612,0.7,1.0,1.0,366.0,983.0,0.0,0,3651.0,0
1316,1316,0.5319985101043562,0.5,1.0,1.0,260.0,824.0,1.0,1,-974.0,1
1317,1317,0.30128677783105184,0.3,0.0,0.0,298.0,736.0,0.0,1,3966.0,1
1318,1318,0.4116410087995265,0.4,0.0,0.0,317.0,628.0,0.0,1,4055.0,1
1319,1319,0.8828878562783772,0.9,0.0,0.0,447.0,863.0,0.0,1,3690.0,1
1320,1320,-0.555428378014412,-0.6,0.0,1.0,399.0,935.0,0.0,1,3666.0,0
1321,1321,-0.3805549290877618,-0.4,1.0,0.0,361.0,586.0,0.0,0,4053.0,1
1322,1322,-0.31616335068425594,-0.3,1.0,0.0,317.0,513.0,0.0,0,4170.0,1
1323,1323,-0.8194447521355275,-0.8,0.0,1.0,417.0,820.0,0.0,1,3763.0,0
1324,1324,0.2670786397924584,0.3,1.0,1.0,411.0,872.0,0.0,0,3717.0,0
1325,1325,-0.7449897589521435,-0.7,1.0,0.0,418.0,943.0,0.0,0,3639.0,1
1326,1326,-0.4683788039762015,-0.5,0.0,1.0,413.0,815.0,0.0,1,3772.0,0
1327,1327,0.053987308374062404,0.1,1.0,1.0,333.0,541.0,0.0,0,4126.0,0
1328,1328,0.13968391024419746,0.1,0.0,0.0,319.0,874.0,0.0,1,3807.0,1
1329,1329,0.2976173429374601,0.3,0.0,0.0,294.0,864.0,0.0,1,3842.0,1
1330,1330,0.2834708680291048,0.3,1.0,1.0,448.0,675.0,0.0,0,3877.0,0
1331,1331,0.8506995344289975,0.9,0.0,0.0,324.0,976.0,0.0,1,3700.0,1
1332,1332,0.71138054670195,0.7,0.0,0.0,443.0,979.0,0.0,1,3578.0,1
1333,1333,0.21840996209086627,0.2,0.0,0.0,260.0,883.0,0.0,1,3857.0,1
1334,1334,0.7269937372620087,0.7,1.0,1.0,497.0,601.0,0.0,0,3902.0,0
1335,1335,-0.38436096042074774,-0.4,0.0,1.0,433.0,624.0,0.0,1,3943.0,0
1336,1336,0.09743671865108172,0.1,0.0,0.0,498.0,605.0,0.0,1,3897.0,1
1337,1337,-0.6155569123222908,-0.6,0.0,1.0,382.0,541.0,0.0,1,4077.0,0
1338,1338,0.11776548012858112,0.1,0.0,0.0,331.0,650.0,0.0,1,4019.0,1
1339,1339,0.3284881104612819,0.3,0.0,0.0,305.0,761.0,0.0,1,3934.0,1
1340,1340,-0.5565174728078365,-0.6,0.0,1.0,368.0,813.0,0.0,1,3819.0,0
1341,1341,0.20008261098340496,0.2,1.0,1.0,331.0,696.0,0.0,0,3973.0,0
1342,1342,-0.36619157719676987,-0.4,0.0,1.0,452.0,999.0,0.0,1,3549.0,0
1343,1343,0.45805980395143153,0.5,1.0,1.0,346.0,760.0,0.0,0,-596.0,0
1344,1344,-0.7980809327040533,-0.8,1.0,0.0,278.0,805.0,0.0,0,3917.0,1
1345,1345,0.8869618732847292,0.9,1.0,1.0,487.0,930.0,0.0,0,3583.0,0
1346,1346,0.24687730806296215,0.2,1.0,1.0,265.0,791.0,0.0,0,3944.0,0
1347,1347,-0.37041257095707436,-0.4,1.0,0.0,306.0,921.0,1.0,1,-1097.0,0
1348,1348,0.8645212943996826,0.9,0.0,0.0,378.0,764.0,0.0,1,3858.0,1
1349,1349,0.6960348939290436,0.7,0.0,0.0,393.0,806.0,0.0,1,3801.0,1
1350,1350,0.6362069560671931,0.6,1.0,1.0,461.0,708.0,0.0,0,3831.0,0
1351,1351,0.6709385400993223,0.7,1.0,1.0,328.0,628.0,0.0,0,4044.0,0
1352,1352,0.8079174724749912,0.8,0.0,0.0,343.0,598.0,0.0,1,4059.0,1
1353,1353,0.37597113493378675,0.4,1.0,1.0,410.0,881.0,0.0,0,3709.0,0
1354,1354,0.36729616809852417,0.4,1.0,1.0,402.0,665.0,0.0,0,3933.0,0
1355,1355,-0.21890873502422714,-0.2,1.0,0.0,482.0,651.0,0.0,0,3867.0,1
1356,1356,0.7757624449907553,0.8,1.0,1.0,266.0,637.0,0.0,0,4097.0,0
1357,1357,0.025219946662828452,0.0,1.0,1.0,326.0,649.0,0.0,0,4025.0,0
1358,1358,-0.13877683670816388,-0.1,0.0,1.0,302.0,704.0,1.0,0,-936.0,1
1359,1359,0.42372475472150384,0.4,1.0,1.0,479.0,986.0,1.0,1,-1285.0,1
1360,1360,-0.5696923107963971,-0.6,1.0,0.0,324.0,708.0,0.0,0,3968.0,1
1361,1361,-0.32556362298609687,-0.3,0.0,1.0,314.0,519.0,0.0,1,4167.0,0
1362,1362,0.0884749922171022,0.1,1.0,1.0,433.0,658.0,0.0,0,3909.0,0
1363,1363,-0.8222252511374565,-0.8,0.0,1.0,261.0,759.0,0.0,1,3980.0,0
1364,1364,0.4096757749115444,0.4,0.0,0.0,403.0,844.0,0.0,1,3753.0,1
1365,1365,-0.4095699731322495,-0.4,1.0,0.0,322.0,524.0,0.0,0,4154.0,1
1366,1366,0.49954865373859614,0.5,1.0,1.0,285.0,744.0,0.0,0,3971.0,0
1367,1367,-0.19882515357198072,-0.2,1.0,0.0,352.0,518.0,0.0,0,4130.0,1
1368,1368,-0.374477172838378,-0.4,1.0,0.0,479.0,692.0,0.0,0,3829.0,1
1369,1369,-0.6761372037102951,-0.7,1.0,0.0,280.0,922.0,0.0,0,3798.0,1
1370,1370,-0.41697767199234265,-0.4,1.0,0.0,254.0,508.0,0.0,0,4238.0,1
1371,1371,0.5128835363514664,0.5,1.0,1.0,469.0,595.0,0.0,0,3936.0,0
1372,1372,0.06366012968048629,0.1,0.0,0.0,497.0,648.0,0.0,1,3855.0,1
1373,1373,-0.8197995451610053,-0.8,1.0,0.0,441.0,552.0,0.0,0,4007.0,1
1374,1374,0.1319144419963244,0.1,1.0,1.0,271.0,626.0,1.0,1,-897.0,1
1375,1375,0.11203701446299641,0.1,1.0,1.0,325.0,912.0,0.0,0,3763.0,0
1376,1376,-0.20680915441730585,-0.2,1.0,0.0,321.0,691.0,0.0,0,3988.0,1
1377,1377,-0.24175229721730263,-0.2,1.0,0.0,289.0,722.0,0.0,0,3989.0,1
1378,1378,0.010978124232616793,0.0,0.0,0.0,405.0,558.0,1.0,0,-843.0,0
1379,1379,0.524134041409163,0.5,0.0,0.0,465.0,948.0,0.0,1,3587.0,1
1380,1380,-0.6330830887696738,-0.6,1.0,0.0,290.0,557.0,0.0,0,4153.0,1
1381,1381,-0.8697840152432238,-0.9,1.0,0.0,460.0,824.0,0.0,0,3716.0,1
1382,1382,-0.5659516862174113,-0.6,1.0,0.0,260.0,858.0,0.0,0,3882.0,1
1383,1383,0.049534983377886865,0.0,1.0,1.0,439.0,852.0,0.0,0,3709.0,0
1384,1384,-0.1025131138648373,-0.1,0.0,1.0,333.0,945.0,0.0,1,3722.0,0
1385,1385,-0.7918399437601399,-0.8,1.0,0.0,340.0,642.0,0.0,0,4018.0,1
1386,1386,0.4944609009320412,0.5,0.0,0.0,480.0,547.0,0.0,1,3973.0,1
1387,1387,-0.12602495296200356,-0.1,1.0,0.0,250.0,721.0,0.0,0,4029.0,1
1388,1388,-0.43387165285546714,-0.4,1.0,0.0,399.0,876.0,0.0,0,3725.0,1
1389,1389,-0.665383872522766,-0.7,0.0,1.0,404.0,573.0,0.0,1,4023.0,0
1390,1390,0.8138000713799879,0.8,0.0,0.0,306.0,856.0,1.0,0,-1112.0,0
1391,1391,0.606992265814006,0.6,1.0,1.0,359.0,748.0,0.0,0,3893.0,0
1392,1392,-0.5601257592135954,-0.6,0.0,1.0,393.0,528.0,0.0,1,4079.0,0
1393,1393,-0.6430174693397614,-0.6,1.0,0.0,399.0,858.0,0.0,0,3743.0,1
1394,1394,0.635544206560314,0.6,0.0,0.0,308.0,662.0,0.0,1,4030.0,1
1395,1395,0.17594209371053593,0.2,0.0,0.0,256.0,854.0,0.0,1,3890.0,1
1396,1396,0.27426531482903915,0.3,0.0,0.0,420.0,503.0,0.0,1,4077.0,1
1397,1397,0.7028038636060442,0.7,0.0,0.0,378.0,533.0,1.0,0,-901.0,0
1398,1398,-0.3920979021812103,-0.4,1.0,0.0,355.0,699.0,0.0,0,3946.0,1
1399,1399,0.6370550541368737,0.6,1.0,1.0,436.0,923.0,0.0,0,3641.0,0
1400,1400,0.5490133094609863,0.5,0.0,0.0,283.0,904.0,0.0,1,3813.0,1
1401,1401,0.47429476757840383,0.5,1.0,1.0,481.0,647.0,0.0,0,3872.0,0
1402,1402,-0.023652156049846718,-0.0,0.0,1.0,454.0,865.0,0.0,1,3681.0,0
1403,1403,0.8714756951652488,0.9,0.0,0.0,403.0,546.0,0.0,1,4051.0,1
1404,1404,0.2522750203423939,0.3,1.0,1.0,328.0,794.0,0.0,0,3878.0,0
1405,1405,0.8804800805738514,0.9,1.0,1.0,448.0,857.0,0.0,0,3695.0,0
1406,1406,0.1913134913221789,0.2,1.0,1.0,359.0,544.0,0.0,0,4097.0,0
1407,1407,-0.22161875232192918,-0.2,1.0,0.0,440.0,560.0,0.0,0,4000.0,1
1408,1408,0.6473115261427903,0.6,1.0,1.0,373.0,918.0,0.0,0,3709.0,0
1409,1409,-0.00011643765246605042,-0.0,1.0,0.0,349.0,949.0,0.0,0,3702.0,1
1410,1410,-0.7121747488011169,-0.7,1.0,0.0,288.0,814.0,0.0,0,3898.0,1
1411,1411,0.20866606688611544,0.2,1.0,1.0,384.0,500.0,0.0,0,4116.0,0
1412,1412,-0.41572954476609797,-0.4,1.0,0.0,447.0,992.0,0.0,0,3561.0,1
1413,1413,0.8820078700552939,0.9,1.0,1.0,275.0,740.0,0.0,0,3985.0,0
1414,1414,0.3810408296745734,0.4,0.0,0.0,369.0,642.0,0.0,1,3989.0,1
1415,1415,0.5637454774704626,0.6,0.0,0.0,454.0,973.0,0.0,1,3573.0,1
1416,1416,-0.7623740382547844,-0.8,0.0,1.0,272.0,568.0,0.0,1,4160.0,0
1417,1417,-0.7232427717253707,-0.7,1.0,0.0,280.0,972.0,0.0,0,3748.0,1
1418,1418,-0.0010113424144088112,-0.0,0.0,1.0,490.0,559.0,0.0,1,3951.0,0
1419,1419,-0.45885950059775654,-0.5,1.0,0.0,474.0,648.0,0.0,0,3878.0,1
1420,1420,-0.1403531975541379,-0.1,0.0,1.0,300.0,538.0,0.0,1,4162.0,0
1421,1421,-0.2949042298351312,-0.3,1.0,0.0,386.0,604.0,0.0,0,4010.0,1
1422,1422,0.7374948983473367,0.7,1.0,1.0,369.0,729.0,0.0,0,3902.0,0
1423,1423,-0.5072674125149201,-0.5,0.0,1.0,334.0,578.0,0.0,1,4088.0,0
1424,1424,-0.4566297480872622,-0.5,1.0,0.0,255.0,513.0,0.0,0,4232.0,1
1425,1425,-0.4929502771891059,-0.5,1.0,0.0,466.0,642.0,0.0,0,3892.0,1
1426,1426,0.0489328430518533,0.0,0.0,0.0,487.0,668.0,0.0,1,3845.0,1
1427,1427,0.31451980300408156,0.3,1.0,1.0,478.0,827.0,0.0,0,3695.0,0
1428,1428,0.5018874903411573,0.5,1.0,1.0,412.0,926.0,0.0,0,3662.0,0
1429,1429,0.896611645480731,0.9,0.0,0.0,359.0,626.0,0.0,1,4015.0,1
1430,1430,-0.8095300118332788,-0.8,0.0,1.0,454.0,836.0,0.0,1,3710.0,0
1431,1431,-0.398504022357992,-0.4,1.0,0.0,283.0,751.0,1.0,1,-964.0,0
1432,1432,-0.4827374723924546,-0.5,1.0,0.0,347.0,813.0,0.0,0,3840.0,1
1433,1433,0.5859117319347239,0.6,0.0,0.0,337.0,554.0,0.0,1,4109.0,1
1434,1434,-0.5257822445140476,-0.5,1.0,0.0,403.0,854.0,0.0,0,3743.0,1
1435,1435,0.5135528054729049,0.5,1.0,1.0,484.0,978.0,1.0,1,-1222.0,1
1436,1436,-0.6297808388927917,-0.6,1.0,0.0,407.0,817.0,0.0,0,3776.0,1
1437,1437,-0.39188469575220564,-0.4,0.0,1.0,456.0,915.0,0.0,1,3629.0,0
1438,1438,-0.591909672341957,-0.6,0.0,1.0,379.0,609.0,0.0,1,4012.0,0
1439,1439,0.7902192625967855,0.8,1.0,1.0,289.0,935.0,1.0,1,-1204.0,1
1440,1440,-0.5983379919494538,-0.6,0.0,1.0,327.0,537.0,0.0,1,4136.0,0
1441,1441,0.7210343626573047,0.7,0.0,0.0,374.0,776.0,0.0,1,3850.0,1
1442,1442,0.20727672318812485,0.2,1.0,1.0,342.0,621.0,0.0,0,4037.0,0
1443,1443,-0.767562954582357,-0.8,1.0,0.0,261.0,925.0,0.0,0,3814.0,1
1444,1444,-0.8955227220756979,-0.9,0.0,1.0,323.0,812.0,0.0,1,3865.0,0
1445,1445,-0.061645579100412795,-0.1,0.0,1.0,303.0,803.0,0.0,1,3894.0,0
1446,1446,-0.28373334175346543,-0.3,0.0,1.0,268.0,903.0,0.0,1,3829.0,0
1447,1447,-0.02082475580993237,-0.0,0.0,1.0,377.0,990.0,0.0,1,3633.0,0
1448,1448,0.8938394309912628,0.9,1.0,1.0,487.0,980.0,0.0,0,3533.0,0
1449,1449,0.5112758032651653,0.5,1.0,1.0,450.0,881.0,0.0,0,3669.0,0
1450,1450,-0.23478570417482525,-0.2,1.0,0.0,330.0,710.0,0.0,0,3960.0,1
1451,1451,-0.16025115050907668,-0.2,1.0,0.0,346.0,681.0,0.0,0,3973.0,1
1452,1452,-0.2337775538669301,-0.2,1.0,0.0,428.0,668.0,0.0,0,3904.0,1
1453,1453,0.06770573968829252,0.1,0.0,0.0,400.0,969.0,0.0,1,3631.0,1
1454,1454,0.38532466186996983,0.4,1.0,1.0,331.0,600.0,0.0,0,4069.0,0
1455,1455,-0.01726208234307336,-0.0,0.0,1.0,393.0,917.0,0.0,1,3690.0,0
1456,1456,-0.4543083521670324,-0.5,0.0,1.0,311.0,657.0,0.0,1,4032.0,0
1457,1457,0.8286027113262103,0.8,0.0,0.0,294.0,567.0,0.0,1,4139.0,1
1458,1458,-0.030889293735591572,-0.0,1.0,0.0,338.0,865.0,0.0,0,3797.0,1
1459,1459,0.07189677397560501,0.1,1.0,1.0,251.0,841.0,0.0,0,3908.0,0
1460,1460,-0.7336260181529735,-0.7,0.0,1.0,438.0,793.0,0.0,1,3769.0,0
1461,1461,0.018176865065062997,0.0,0.0,0.0,416.0,513.0,0.0,1,4071.0,1
1462,1462,-0.08682878502490599,-0.1,1.0,0.0,420.0,605.0,0.0,0,3975.0,1
1463,1463,0.008651277463876395,0.0,0.0,0.0,371.0,732.0,0.0,1,3897.0,1
1464,1464,-0.7034564804125962,-0.7,1.0,0.0,422.0,842.0,0.0,0,3736.0,1
1465,1465,-0.8850122646098364,-0.9,0.0,1.0,362.0,551.0,0.0,1,4087.0,0
1466,1466,-0.7599946488575912,-0.8,0.0,1.0,332.0,760.0,0.0,1,3908.0,0
1467,1467,0.19641210767565875,0.2,1.0,1.0,387.0,577.0,0.0,0,4036.0,0
1468,1468,-0.39148254810476113,-0.4,1.0,0.0,395.0,973.0,0.0,0,3632.0,1
1469,1469,-0.8647684683507091,-0.9,0.0,1.0,459.0,964.0,0.0,1,3577.0,0
