,trial,coherence,coherence_bin,green_side,correct_side,target_onset,checker_onset,decision,green_decision,decision_time,correct_decision
0,0,-0.5655249852378144,-0.6,0.0,1.0,297.0,756.0,0.0,1,1947.0,0
1,1,0.11632460149569723,0.1,1.0,1.0,411.0,996.0,0.0,0,1593.0,0
2,2,0.04096754545678072,0.0,1.0,1.0,392.0,670.0,1.0,1,-1052.0,1
3,3,0.8604831073881997,0.9,0.0,0.0,415.0,854.0,0.0,1,-1189.0,1
4,4,0.8112614942657247,0.8,1.0,1.0,409.0,734.0,1.0,1,-1073.0,1
5,5,-0.7131521893162927,-0.7,1.0,0.0,373.0,732.0,0.0,0,1895.0,1
6,6,0.621918483859692,0.6,0.0,0.0,344.0,693.0,0.0,1,1963.0,1
7,7,0.16801199815838752,0.2,0.0,0.0,488.0,562.0,0.0,1,1950.0,1
8,8,0.6232583359479097,0.6,0.0,0.0,320.0,747.0,0.0,1,1933.0,1
9,9,0.7574641282683326,0.8,1.0,1.0,348.0,704.0,0.0,0,1948.0,0
10,10,0.005330552403437494,0.0,1.0,1.0,278.0,905.0,0.0,0,1817.0,0
11,11,0.6425780721727353,0.6,1.0,1.0,316.0,687.0,0.0,0,1997.0,0
12,12,-0.054711483156632434,-0.1,0.0,1.0,402.0,817.0,0.0,1,-1119.0,0
13,13,0.37673684582298883,0.4,1.0,1.0,291.0,844.0,0.0,0,1865.0,0
14,14,-0.8000371526027279,-0.8,1.0,0.0,386.0,656.0,0.0,0,1958.0,1
15,15,-0.029346485939215627,-0.0,0.0,1.0,272.0,933.0,0.0,1,1795.0,0
16,16,-0.20762811389621816,-0.2,1.0,0.0,487.0,684.0,0.0,0,1829.0,1
17,17,0.5722488690869555,0.6,0.0,0.0,316.0,545.0,0.0,1,2139.0,1
18,18,0.7026869646860251,0.7,0.0,0.0,389.0,709.0,0.0,1,1902.0,1
19,19,-0.03604850989985109,-0.0,0.0,1.0,349.0,770.0,0.0,1,1881.0,0
20,20,0.7532650080034159,0.8,1.0,1.0,412.0,651.0,0.0,0,1937.0,0
21,21,0.4726682498803759,0.5,1.0,1.0,268.0,778.0,0.0,0,1954.0,0
22,22,-0.6313485790289298,-0.6,1.0,0.0,493.0,852.0,0.0,0,1655.0,1
23,23,0.13097502584338871,0.1,1.0,1.0,385.0,542.0,0.0,0,2073.0,0
24,24,-0.10163756057731033,-0.1,1.0,0.0,410.0,706.0,0.0,0,1884.0,1
25,25,-0.5334559624412283,-0.5,1.0,0.0,317.0,688.0,0.0,0,1995.0,1
26,26,-0.23289888728433117,-0.2,0.0,1.0,419.0,730.0,0.0,1,1851.0,0
27,27,-0.03461802396220803,-0.0,0.0,1.0,383.0,787.0,0.0,1,1830.0,0
28,28,0.5887878159140866,0.6,0.0,0.0,267.0,804.0,0.0,1,1929.0,1
29,29,0.6432269864065031,0.6,1.0,1.0,453.0,665.0,0.0,0,1882.0,0
30,30,-0.023423525942088075,-0.0,0.0,1.0,432.0,727.0,0.0,1,1841.0,0
31,31,-0.8299983360176028,-0.8,0.0,1.0,391.0,920.0,0.0,1,1689.0,0
32,32,0.6864408457196568,0.7,0.0,0.0,352.0,579.0,0.0,1,2069.0,1
33,33,-0.02955084942320252,-0.0,1.0,0.0,350.0,596.0,0.0,0,2054.0,1
34,34,-0.7358410659009076,-0.7,0.0,1.0,301.0,900.0,0.0,1,1799.0,0
35,35,-0.6119482640832308,-0.6,0.0,1.0,306.0,796.0,0.0,1,1898.0,0
36,36,-0.7359931743459722,-0.7,0.0,1.0,383.0,708.0,0.0,1,1909.0,0
37,37,0.40024835536909886,0.4,1.0,1.0,471.0,719.0,0.0,0,1810.0,0
38,38,-0.2833927234814966,-0.3,1.0,0.0,262.0,923.0,0.0,0,1815.0,1
39,39,0.8302258426999166,0.8,0.0,0.0,406.0,857.0,0.0,1,1737.0,1
40,40,0.042770102908886276,0.0,0.0,0.0,270.0,832.0,0.0,1,1898.0,1
41,41,0.06790871641276575,0.1,0.0,0.0,419.0,989.0,0.0,1,1592.0,1
42,42,-0.23142067142776546,-0.2,0.0,1.0,341.0,716.0,0.0,1,1943.0,0
43,43,0.4810948416473174,0.5,0.0,0.0,327.0,920.0,0.0,1,1753.0,1
44,44,0.7403247907725273,0.7,0.0,0.0,465.0,948.0,0.0,1,1587.0,1
45,45,-0.6467856518298281,-0.6,0.0,1.0,315.0,714.0,0.0,1,1971.0,0
46,46,0.28238166651851404,0.3,0.0,0.0,365.0,762.0,0.0,1,1873.0,1
47,47,0.46676711715594743,0.5,0.0,0.0,372.0,736.0,0.0,1,1892.0,1
48,48,0.09749642429046834,0.1,1.0,1.0,422.0,885.0,0.0,0,1693.0,0
49,49,-0.8955267984142457,-0.9,1.0,0.0,455.0,785.0,0.0,0,1760.0,1
50,50,0.5457531858659265,0.5,1.0,1.0,354.0,600.0,0.0,0,2046.0,0
51,51,-0.6038892777495328,-0.6,1.0,0.0,365.0,882.0,0.0,0,1753.0,1
52,52,-0.05287719436654137,-0.1,0.0,1.0,440.0,958.0,0.0,1,1602.0,0
53,53,0.4878702110371326,0.5,1.0,1.0,435.0,624.0,0.0,0,1941.0,0
54,54,0.4294477864160601,0.4,0.0,0.0,480.0,555.0,0.0,1,1965.0,1
55,55,-0.22213159786052428,-0.2,1.0,0.0,453.0,558.0,0.0,0,1989.0,1
56,56,-0.043525663695716976,-0.0,0.0,1.0,291.0,650.0,0.0,1,2059.0,0
57,57,-0.28944896820502186,-0.3,1.0,0.0,440.0,827.0,0.0,0,1733.0,1
58,58,0.50700610498076,0.5,1.0,1.0,326.0,554.0,0.0,0,2120.0,0
59,59,-0.4743313617133928,-0.5,1.0,0.0,490.0,660.0,1.0,1,-1130.0,0
60,60,-0.8392142566684124,-0.8,0.0,1.0,335.0,519.0,0.0,1,2146.0,0
61,61,-0.744923745859819,-0.7,1.0,0.0,379.0,878.0,0.0,0,1743.0,1
62,62,-0.014814246876487802,-0.0,0.0,1.0,293.0,896.0,0.0,1,1811.0,0
63,63,0.5714756057002178,0.6,1.0,1.0,393.0,721.0,0.0,0,1886.0,0
64,64,0.6958138951959881,0.7,1.0,1.0,481.0,810.0,0.0,0,1709.0,0
65,65,-0.662403389751865,-0.7,0.0,1.0,357.0,590.0,0.0,1,2053.0,0
66,66,0.7870785495773619,0.8,0.0,0.0,426.0,572.0,0.0,1,2002.0,1
67,67,0.12663259960745965,0.1,1.0,1.0,380.0,532.0,0.0,0,2088.0,0
68,68,0.5827222933396646,0.6,1.0,1.0,497.0,555.0,0.0,0,1948.0,0
69,69,0.21637602541437218,0.2,1.0,1.0,401.0,610.0,0.0,0,1989.0,0
70,70,0.5653518409496406,0.6,1.0,1.0,301.0,586.0,0.0,0,2113.0,0
71,71,0.7164953757726716,0.7,0.0,0.0,395.0,737.0,0.0,1,1868.0,1
72,72,-0.20091755723302362,-0.2,1.0,0.0,284.0,526.0,0.0,0,2190.0,1
73,73,0.390053171022254,0.4,1.0,1.0,484.0,852.0,0.0,0,1664.0,0
74,74,0.8754104912620305,0.9,1.0,1.0,461.0,557.0,0.0,0,1982.0,0
75,75,0.2675138820698665,0.3,0.0,0.0,420.0,662.0,1.0,0,-932.0,0
76,76,-0.751175016266964,-0.8,1.0,0.0,449.0,928.0,0.0,0,1623.0,1
77,77,-0.1916967862350879,-0.2,0.0,1.0,254.0,562.0,0.0,1,2184.0,0
78,78,0.430359802713442,0.4,0.0,0.0,280.0,864.0,0.0,1,1856.0,1
79,79,0.599789467658889,0.6,0.0,0.0,341.0,696.0,0.0,1,1963.0,1
80,80,-0.2909996837366102,-0.3,0.0,1.0,371.0,706.0,0.0,1,1923.0,0
81,81,0.23690752908018975,0.2,1.0,1.0,382.0,946.0,0.0,0,1672.0,0
82,82,0.33955278432891534,0.3,0.0,0.0,409.0,514.0,0.0,1,2077.0,1
83,83,0.8841670784395163,0.9,1.0,1.0,314.0,777.0,0.0,0,1909.0,0
84,84,0.6079073986759945,0.6,1.0,1.0,410.0,590.0,0.0,0,2000.0,0
85,85,-0.7795841474402855,-0.8,0.0,1.0,341.0,584.0,0.0,1,2075.0,0
86,86,0.12802145626904304,0.1,0.0,0.0,357.0,874.0,0.0,1,1769.0,1
87,87,0.8366548539666813,0.8,0.0,0.0,405.0,858.0,0.0,1,1737.0,1
88,88,0.05416405879553321,0.1,1.0,1.0,292.0,869.0,0.0,0,1839.0,0
89,89,-0.4543230257451138,-0.5,0.0,1.0,250.0,896.0,0.0,1,-676.0,0
90,90,0.8829850929163788,0.9,1.0,1.0,485.0,505.0,0.0,0,2010.0,0
91,91,0.3642025712836302,0.4,1.0,1.0,395.0,772.0,0.0,0,1833.0,0
92,92,0.35556409760645147,0.4,0.0,0.0,310.0,666.0,0.0,1,2024.0,1
93,93,-0.7790865638990503,-0.8,0.0,1.0,453.0,853.0,0.0,1,1694.0,0
94,94,-0.1480481340052,-0.1,1.0,0.0,338.0,959.0,0.0,0,1703.0,1
95,95,0.4405411016992963,0.4,1.0,1.0,357.0,729.0,0.0,0,1914.0,0
96,96,-0.22192615330668974,-0.2,0.0,1.0,270.0,905.0,0.0,1,1825.0,0
97,97,0.4518219161797704,0.5,0.0,0.0,358.0,811.0,0.0,1,-1139.0,1
98,98,0.8050710510289446,0.8,1.0,1.0,457.0,777.0,0.0,0,1766.0,0
99,99,0.07464683754571522,0.1,1.0,1.0,253.0,755.0,0.0,0,1992.0,0
100,100,0.3940009571625621,0.4,0.0,0.0,263.0,833.0,0.0,1,1904.0,1
101,101,0.7706541504956707,0.8,1.0,1.0,290.0,837.0,0.0,0,1873.0,0
102,102,0.7849164382525678,0.8,1.0,1.0,368.0,961.0,0.0,0,1671.0,0
103,103,-0.4512077784094418,-0.5,1.0,0.0,396.0,638.0,0.0,0,-924.0,1
104,104,0.7488640346909393,0.7,1.0,1.0,298.0,753.0,0.0,0,-991.0,0
105,105,0.0010670388773781347,0.0,0.0,0.0,370.0,960.0,0.0,1,1670.0,1
106,106,0.32317040514979556,0.3,1.0,1.0,443.0,582.0,0.0,0,1975.0,0
107,107,-0.39547127329871756,-0.4,0.0,1.0,348.0,857.0,0.0,1,1795.0,0
108,108,0.5767309379868865,0.6,0.0,0.0,393.0,636.0,0.0,1,1971.0,1
109,109,-0.3504779394101727,-0.4,0.0,1.0,255.0,636.0,0.0,1,2109.0,0
110,110,0.7897366393658717,0.8,1.0,1.0,365.0,702.0,0.0,0,1933.0,0
111,111,0.20946641702480429,0.2,0.0,0.0,329.0,945.0,0.0,1,1726.0,1
112,112,0.6904622477150278,0.7,1.0,1.0,411.0,649.0,0.0,0,1940.0,0
113,113,0.7533310637449634,0.8,1.0,1.0,262.0,543.0,1.0,1,-795.0,1
114,114,0.4442992522454351,0.4,1.0,1.0,357.0,760.0,0.0,0,1883.0,0
115,115,0.704852031934026,0.7,1.0,1.0,255.0,638.0,0.0,0,2107.0,0
116,116,0.8839875337835922,0.9,0.0,0.0,386.0,939.0,0.0,1,1675.0,1
117,117,0.24646840987429475,0.2,0.0,0.0,497.0,898.0,0.0,1,1605.0,1
118,118,0.17034257878425707,0.2,1.0,1.0,375.0,701.0,0.0,0,1924.0,0
119,119,-0.3336483645188181,-0.3,1.0,0.0,283.0,512.0,0.0,0,2205.0,1
120,120,-0.40558317705009755,-0.4,1.0,0.0,431.0,791.0,0.0,0,1778.0,1
121,121,0.3601109181881307,0.4,0.0,0.0,483.0,968.0,0.0,1,1549.0,1
122,122,0.1517092078234311,0.2,1.0,1.0,456.0,755.0,0.0,0,1789.0,0
123,123,-0.2797621500436639,-0.3,0.0,1.0,445.0,507.0,0.0,1,2048.0,0
124,124,0.7524812382278853,0.8,0.0,0.0,339.0,677.0,0.0,1,1984.0,1
125,125,0.2480215120101502,0.2,1.0,1.0,457.0,640.0,0.0,0,1903.0,0
126,126,-0.5539527307476586,-0.6,0.0,1.0,475.0,858.0,0.0,1,1667.0,0
127,127,0.536001847259081,0.5,1.0,1.0,322.0,584.0,0.0,0,2094.0,0
128,128,-0.7414699427449835,-0.7,0.0,1.0,477.0,867.0,0.0,1,1656.0,0
129,129,0.780375555812327,0.8,0.0,0.0,429.0,521.0,0.0,1,2050.0,1
130,130,-0.01741746941072686,-0.0,0.0,1.0,492.0,838.0,0.0,1,1670.0,0
131,131,-0.4252978103124202,-0.4,0.0,1.0,391.0,653.0,0.0,1,1956.0,0
132,132,-0.8791612900514455,-0.9,0.0,1.0,258.0,767.0,0.0,1,1975.0,0
133,133,-0.3059978178350361,-0.3,0.0,1.0,389.0,714.0,0.0,1,1897.0,0
134,134,-0.7643077773130145,-0.8,0.0,1.0,324.0,878.0,0.0,1,1798.0,0
135,135,-0.33443562197191123,-0.3,0.0,1.0,283.0,890.0,0.0,1,1827.0,0
136,136,-0.5764211583986775,-0.6,1.0,0.0,487.0,578.0,0.0,0,1935.0,1
137,137,-0.6450382638601543,-0.6,0.0,1.0,484.0,702.0,0.0,1,1814.0,0
138,138,-0.8602983881086711,-0.9,0.0,1.0,464.0,522.0,0.0,1,2014.0,0
139,139,0.7811826612099763,0.8,1.0,1.0,289.0,926.0,0.0,0,1785.0,0
140,140,-0.4858009039546133,-0.5,1.0,0.0,365.0,926.0,0.0,0,1709.0,1
141,141,-0.058231122469616814,-0.1,0.0,1.0,360.0,646.0,0.0,1,1994.0,0
142,142,0.6779910524030773,0.7,1.0,1.0,330.0,693.0,0.0,0,1977.0,0
143,143,0.1749043183115394,0.2,1.0,1.0,253.0,984.0,0.0,0,1763.0,0
144,144,-0.5580967825594292,-0.6,0.0,1.0,289.0,664.0,0.0,1,2047.0,0
145,145,-0.38075918690403865,-0.4,0.0,1.0,339.0,522.0,0.0,1,2139.0,0
146,146,-0.287965319060545,-0.3,1.0,0.0,373.0,687.0,0.0,0,1940.0,1
147,147,0.15907383097421024,0.2,0.0,0.0,309.0,887.0,0.0,1,1804.0,1
148,148,0.039281405637172195,0.0,1.0,1.0,253.0,668.0,0.0,0,2079.0,0
149,149,0.7960751916943071,0.8,0.0,0.0,443.0,615.0,0.0,1,1942.0,1
150,150,-0.032885963503155424,-0.0,0.0,1.0,314.0,937.0,0.0,1,1749.0,0
151,151,-0.3245657831859017,-0.3,0.0,1.0,475.0,987.0,0.0,1,1538.0,0
152,152,-0.8593280779997908,-0.9,0.0,1.0,485.0,548.0,0.0,1,1967.0,0
153,153,-0.2574171313630813,-0.3,0.0,1.0,378.0,999.0,0.0,1,1623.0,0
154,154,-0.44354581769669604,-0.4,1.0,0.0,334.0,550.0,0.0,0,2116.0,1
155,155,0.828115984279404,0.8,0.0,0.0,404.0,531.0,0.0,1,2065.0,1
156,156,0.08372498897803915,0.1,0.0,0.0,457.0,553.0,0.0,1,1990.0,1
157,157,-0.4071777463706861,-0.4,1.0,0.0,446.0,709.0,0.0,0,1845.0,1
158,158,-0.763309038229276,-0.8,1.0,0.0,293.0,923.0,0.0,0,1784.0,1
159,159,-0.4748022614684129,-0.5,0.0,1.0,259.0,760.0,1.0,0,-989.0,1
160,160,-0.8438187897292443,-0.8,0.0,1.0,357.0,591.0,0.0,1,2052.0,0
161,161,0.5744878115136799,0.6,0.0,0.0,438.0,553.0,0.0,1,2009.0,1
162,162,-0.6285387837626717,-0.6,1.0,0.0,275.0,874.0,0.0,0,1851.0,1
163,163,-0.6451506496499093,-0.6,0.0,1.0,335.0,728.0,0.0,1,1937.0,0
164,164,0.26831054267181875,0.3,1.0,1.0,319.0,656.0,0.0,0,2025.0,0
165,165,-0.38390245148811875,-0.4,0.0,1.0,345.0,641.0,0.0,1,2014.0,0
166,166,-0.24379506498310077,-0.2,0.0,1.0,406.0,518.0,0.0,1,2076.0,0
167,167,0.0918518713653711,0.1,1.0,1.0,402.0,932.0,0.0,0,1666.0,0
168,168,-0.7881368488622229,-0.8,0.0,1.0,366.0,879.0,0.0,1,1755.0,0
169,169,-0.029562907197644428,-0.0,1.0,0.0,316.0,808.0,0.0,0,1876.0,1
170,170,0.43736754421715196,0.4,1.0,1.0,496.0,661.0,0.0,0,1843.0,0
171,171,0.5971437500159228,0.6,0.0,0.0,302.0,899.0,0.0,1,1799.0,1
172,172,-0.14046092140156197,-0.1,1.0,0.0,461.0,640.0,0.0,0,1899.0,1
173,173,0.7673971138667618,0.8,1.0,1.0,255.0,545.0,0.0,0,2200.0,0
174,174,-0.06630239029206098,-0.1,1.0,0.0,464.0,525.0,0.0,0,2011.0,1
175,175,0.5844422673482946,0.6,0.0,0.0,267.0,596.0,0.0,1,2137.0,1
176,176,-0.6185211424747439,-0.6,1.0,0.0,457.0,763.0,0.0,0,1780.0,1
177,177,0.06924514509557556,0.1,0.0,0.0,488.0,508.0,0.0,1,2004.0,1
178,178,0.4822331072191218,0.5,1.0,1.0,336.0,694.0,0.0,0,1970.0,0
179,179,0.3552118255322615,0.4,1.0,1.0,480.0,906.0,1.0,1,-1346.0,1
180,180,0.7191433579173622,0.7,0.0,0.0,456.0,813.0,0.0,1,1731.0,1
181,181,-0.8627581437975731,-0.9,1.0,0.0,444.0,904.0,0.0,0,1652.0,1
182,182,0.6693679584178521,0.7,1.0,1.0,304.0,786.0,0.0,0,1910.0,0
183,183,-0.3842562113793814,-0.4,1.0,0.0,482.0,711.0,0.0,0,1807.0,1
184,184,-0.6767646057166314,-0.7,0.0,1.0,450.0,926.0,0.0,1,1624.0,0
185,185,-0.8523138901064627,-0.9,1.0,0.0,340.0,782.0,0.0,0,1878.0,1
186,186,0.3912808419200212,0.4,0.0,0.0,281.0,518.0,0.0,1,2201.0,1
187,187,-0.3575243978748519,-0.4,0.0,1.0,424.0,657.0,0.0,1,1919.0,0
188,188,0.2807801875500814,0.3,0.0,0.0,413.0,756.0,0.0,1,1831.0,1
189,189,0.7169023589401885,0.7,0.0,0.0,406.0,831.0,0.0,1,1763.0,1
190,190,-0.3793136284700196,-0.4,0.0,1.0,497.0,951.0,0.0,1,1552.0,0
191,191,0.2545103278558739,0.3,0.0,0.0,484.0,535.0,0.0,1,1981.0,1
192,192,-0.49326563636878273,-0.5,0.0,1.0,321.0,966.0,0.0,1,1713.0,0
193,193,0.5824308924991918,0.6,1.0,1.0,260.0,860.0,0.0,0,1880.0,0
194,194,-0.3209658428824588,-0.3,1.0,0.0,399.0,957.0,0.0,0,1644.0,1
195,195,0.3319695893878424,0.3,1.0,1.0,475.0,869.0,0.0,0,1656.0,0
196,196,-0.34436717382827675,-0.3,0.0,1.0,431.0,601.0,0.0,1,1968.0,0
197,197,0.10691527009819757,0.1,0.0,0.0,467.0,941.0,0.0,1,1592.0,1
198,198,-0.48879465900609326,-0.5,0.0,1.0,413.0,628.0,0.0,1,1959.0,0
199,199,0.23193894913028534,0.2,0.0,0.0,435.0,581.0,0.0,1,1984.0,1
200,200,-0.39742018422260605,-0.4,0.0,1.0,328.0,675.0,0.0,1,1997.0,0
201,201,-0.8167216723561878,-0.8,0.0,1.0,267.0,636.0,0.0,1,2097.0,0
202,202,0.2692821198072034,0.3,1.0,1.0,283.0,552.0,0.0,0,2165.0,0
203,203,0.10950081533257772,0.1,0.0,0.0,288.0,792.0,0.0,1,1920.0,1
204,204,-0.6802100633460322,-0.7,0.0,1.0,346.0,668.0,0.0,1,1986.0,0
205,205,-0.6216923807721033,-0.6,1.0,0.0,359.0,869.0,0.0,0,1772.0,1
206,206,-0.5594878239977872,-0.6,0.0,1.0,281.0,599.0,0.0,1,2120.0,0
207,207,0.2080921470949949,0.2,0.0,0.0,353.0,990.0,0.0,1,1657.0,1
208,208,0.7386609253771598,0.7,1.0,1.0,282.0,638.0,0.0,0,2080.0,0
209,209,0.19574616166974546,0.2,0.0,0.0,362.0,844.0,0.0,1,1794.0,1
210,210,-0.011249590609641147,-0.0,0.0,1.0,279.0,613.0,0.0,1,2108.0,0
211,211,0.2021471086080212,0.2,1.0,1.0,388.0,972.0,0.0,0,1640.0,0
212,212,-0.6420280065848181,-0.6,0.0,1.0,424.0,807.0,0.0,1,1769.0,0
213,213,-0.6518352288676798,-0.7,1.0,0.0,250.0,519.0,0.0,0,2231.0,1
214,214,0.08890749973345013,0.1,1.0,1.0,477.0,946.0,1.0,1,-1393.0,1
215,215,0.3616800026438144,0.4,0.0,0.0,443.0,944.0,0.0,1,1613.0,1
216,216,-0.6290551106871748,-0.6,0.0,1.0,402.0,929.0,0.0,1,1669.0,0
217,217,0.7999003405497077,0.8,1.0,1.0,418.0,560.0,0.0,0,-928.0,0
218,218,-0.29469569147272445,-0.3,0.0,1.0,371.0,760.0,0.0,1,1869.0,0
219,219,0.5848729578620321,0.6,1.0,1.0,409.0,995.0,0.0,0,1596.0,0
220,220,-0.43506776194331237,-0.4,0.0,1.0,337.0,844.0,0.0,1,1819.0,0
221,221,0.2827397059462421,0.3,1.0,1.0,405.0,708.0,0.0,0,1887.0,0
222,222,-0.3899580560131942,-0.4,1.0,0.0,392.0,699.0,0.0,0,1909.0,1
223,223,0.7137556426058721,0.7,0.0,0.0,413.0,858.0,0.0,1,1729.0,1
224,224,-0.26311305948854957,-0.3,0.0,1.0,298.0,941.0,0.0,1,1761.0,0
225,225,-0.7480023835057525,-0.7,1.0,0.0,456.0,970.0,0.0,0,1574.0,1
226,226,-0.6225146329447635,-0.6,0.0,1.0,294.0,802.0,0.0,1,1904.0,0
227,227,0.21987811575329863,0.2,1.0,1.0,461.0,979.0,1.0,1,-1400.0,1
228,228,0.16590761934750076,0.2,0.0,0.0,445.0,890.0,0.0,1,1665.0,1
229,229,-0.2639252039071901,-0.3,0.0,1.0,419.0,674.0,0.0,1,1907.0,0
230,230,-0.8946246973137799,-0.9,1.0,0.0,453.0,819.0,0.0,0,1728.0,1
231,231,-0.02266920563729502,-0.0,1.0,0.0,422.0,998.0,1.0,1,-1380.0,0
232,232,0.8002551193345461,0.8,1.0,1.0,274.0,956.0,0.0,0,1770.0,0
233,233,0.08097764822838471,0.1,0.0,0.0,355.0,852.0,0.0,1,1793.0,1
234,234,0.16280047472997217,0.2,0.0,0.0,365.0,736.0,0.0,1,1899.0,1
235,235,0.4377703467600055,0.4,0.0,0.0,370.0,607.0,0.0,1,2023.0,1
236,236,-0.026314063529049747,-0.0,0.0,1.0,343.0,632.0,0.0,1,2025.0,0
237,237,0.8589871086496611,0.9,1.0,1.0,411.0,661.0,0.0,0,1928.0,0
238,238,0.30112258800578606,0.3,1.0,1.0,369.0,687.0,0.0,0,1944.0,0
239,239,-0.47051939285831124,-0.5,1.0,0.0,340.0,792.0,0.0,0,-1122.0,1
240,240,0.6318181349634074,0.6,0.0,0.0,482.0,587.0,0.0,1,1931.0,1
241,241,0.7724363333425047,0.8,0.0,0.0,471.0,890.0,0.0,1,1639.0,1
242,242,0.31022744704032734,0.3,1.0,1.0,488.0,863.0,0.0,0,1649.0,0
243,243,0.5082884659288222,0.5,1.0,1.0,384.0,912.0,0.0,0,1704.0,0
244,244,-0.21746962052669327,-0.2,0.0,1.0,443.0,704.0,0.0,1,1853.0,0
245,245,-0.5243247359594512,-0.5,1.0,0.0,495.0,845.0,0.0,0,1660.0,1
246,246,-0.10956639659241385,-0.1,1.0,0.0,441.0,925.0,0.0,0,1634.0,1
247,247,0.4325755312570222,0.4,0.0,0.0,448.0,984.0,0.0,1,1568.0,1
248,248,0.6065357259162582,0.6,0.0,0.0,283.0,774.0,0.0,1,1943.0,1
249,249,-0.12466684992741406,-0.1,1.0,0.0,446.0,642.0,0.0,0,1912.0,1
250,250,0.8359307944480449,0.8,0.0,0.0,435.0,731.0,0.0,1,1834.0,1
251,251,0.3493482730720733,0.3,0.0,0.0,365.0,529.0,0.0,1,2106.0,1
252,252,-0.39989994113436533,-0.4,1.0,0.0,354.0,727.0,0.0,0,1919.0,1
253,253,0.8179737754637278,0.8,0.0,0.0,272.0,696.0,0.0,1,2032.0,1
254,254,-0.15394200049832585,-0.2,0.0,1.0,347.0,620.0,0.0,1,2033.0,0
255,255,-0.5820275386165019,-0.6,1.0,0.0,295.0,537.0,0.0,0,2168.0,1
256,256,-0.040635430770316394,-0.0,1.0,0.0,351.0,838.0,0.0,0,1811.0,1
257,257,0.48524717946369644,0.5,1.0,1.0,389.0,848.0,0.0,0,1763.0,0
258,258,-0.7181283317598214,-0.7,1.0,0.0,376.0,513.0,0.0,0,2111.0,1
259,259,0.5820685620018499,0.6,1.0,1.0,419.0,989.0,0.0,0,-1138.0,0
260,260,0.0031150230000790424,0.0,1.0,1.0,446.0,560.0,0.0,0,1994.0,0
261,261,-0.16372948147412103,-0.2,0.0,1.0,426.0,981.0,0.0,1,1593.0,0
262,262,-0.1934300355672599,-0.2,1.0,0.0,289.0,697.0,0.0,0,2014.0,1
263,263,-0.27507938402098797,-0.3,1.0,0.0,280.0,692.0,0.0,0,2028.0,1
264,264,-0.5873570371897149,-0.6,0.0,1.0,471.0,630.0,0.0,1,1899.0,0
265,265,0.7712421246682167,0.8,1.0,1.0,419.0,586.0,0.0,0,1995.0,0
266,266,-0.6571059288359864,-0.7,0.0,1.0,311.0,725.0,0.0,1,1964.0,0
267,267,0.7720334490538628,0.8,0.0,0.0,289.0,781.0,0.0,1,1930.0,1
268,268,-0.03767209800350946,-0.0,1.0,0.0,294.0,598.0,0.0,0,2108.0,1
269,269,-0.1736363186557628,-0.2,1.0,0.0,307.0,596.0,0.0,0,2097.0,1
270,270,-0.7965905058702855,-0.8,0.0,1.0,334.0,668.0,0.0,1,1998.0,0
271,271,-0.6514790650628665,-0.7,0.0,1.0,464.0,578.0,0.0,1,1958.0,0
272,272,0.009397278787612429,0.0,1.0,1.0,318.0,950.0,0.0,0,1732.0,0
273,273,0.17192761264014156,0.2,0.0,0.0,439.0,854.0,0.0,1,1707.0,1
274,274,0.7256502159872719,0.7,0.0,0.0,427.0,839.0,0.0,1,1734.0,1
275,275,-0.026659075704801416,-0.0,1.0,0.0,338.0,756.0,0.0,0,1906.0,1
276,276,-0.6956516639172634,-0.7,0.0,1.0,491.0,938.0,0.0,1,1571.0,0
277,277,0.5278995026109997,0.5,0.0,0.0,462.0,707.0,0.0,1,1831.0,1
278,278,-0.8789298976405824,-0.9,1.0,0.0,261.0,749.0,0.0,0,1990.0,1
279,279,0.7289229742838185,0.7,1.0,1.0,272.0,537.0,0.0,0,2191.0,0
280,280,-0.2671350620762808,-0.3,0.0,1.0,427.0,985.0,0.0,1,1588.0,0
281,281,0.020587425611410692,0.0,1.0,1.0,470.0,508.0,0.0,0,2022.0,0
282,282,0.24573906934683276,0.2,1.0,1.0,367.0,645.0,0.0,0,1988.0,0
283,283,-0.32223194939259325,-0.3,0.0,1.0,300.0,992.0,0.0,1,1708.0,0
284,284,-0.5275457401853927,-0.5,1.0,0.0,284.0,747.0,0.0,0,1969.0,1
285,285,-0.5865119591571473,-0.6,0.0,1.0,276.0,823.0,0.0,1,1901.0,0
286,286,-0.6013061350541125,-0.6,0.0,1.0,398.0,848.0,0.0,1,1754.0,0
287,287,-0.2621334904469993,-0.3,0.0,1.0,440.0,841.0,0.0,1,1719.0,0
288,288,0.5599457912243332,0.6,0.0,0.0,378.0,920.0,1.0,0,-1278.0,0
289,289,0.8770526097484818,0.9,0.0,0.0,317.0,983.0,0.0,1,1700.0,1
290,290,0.6013628345346363,0.6,0.0,0.0,485.0,609.0,0.0,1,1906.0,1
291,291,-0.5975367842137573,-0.6,1.0,0.0,378.0,793.0,0.0,0,1829.0,1
292,292,0.05723999513931666,0.1,0.0,0.0,345.0,935.0,0.0,1,1720.0,1
293,293,0.35667434988340496,0.4,1.0,1.0,425.0,922.0,0.0,0,1653.0,0
294,294,0.5761872659409525,0.6,0.0,0.0,440.0,874.0,0.0,1,1686.0,1
295,295,-0.4616826578821797,-0.5,0.0,1.0,410.0,830.0,1.0,0,-1180.0,1
296,296,-0.44700200465785284,-0.4,1.0,0.0,295.0,768.0,0.0,0,1937.0,1
297,297,0.10806007730470546,0.1,1.0,1.0,289.0,710.0,0.0,0,2001.0,0
298,298,0.08943129971798813,0.1,1.0,1.0,338.0,588.0,0.0,0,2074.0,0
299,299,0.6471914736338368,0.6,1.0,1.0,401.0,505.0,0.0,0,2094.0,0
300,300,0.7267742134053666,0.7,1.0,1.0,297.0,673.0,0.0,0,2030.0,0
301,301,-0.47593229716653923,-0.5,1.0,0.0,301.0,734.0,0.0,0,1965.0,1
302,302,0.6744661041961685,0.7,1.0,1.0,268.0,927.0,0.0,0,1805.0,0
303,303,0.5053901191743017,0.5,1.0,1.0,321.0,718.0,0.0,0,1961.0,0
304,304,0.6597829326898402,0.7,1.0,1.0,288.0,824.0,0.0,0,1888.0,0
305,305,-0.6971806699443077,-0.7,1.0,0.0,466.0,759.0,0.0,0,1775.0,1
306,306,-0.6336267408247627,-0.6,1.0,0.0,263.0,742.0,0.0,0,1995.0,1
307,307,0.030980302995591735,0.0,0.0,0.0,287.0,625.0,0.0,1,2088.0,1
308,308,-0.5051364205805706,-0.5,0.0,1.0,463.0,538.0,0.0,1,1999.0,0
309,309,0.830265737755724,0.8,1.0,1.0,448.0,717.0,0.0,0,1835.0,0
310,310,0.11497589362900829,0.1,1.0,1.0,489.0,767.0,0.0,0,1744.0,0
311,311,0.10141262791032524,0.1,0.0,0.0,300.0,979.0,0.0,1,1721.0,1
312,312,-0.5527733331362941,-0.6,1.0,0.0,313.0,661.0,0.0,0,2026.0,1
313,313,0.7675896270241552,0.8,1.0,1.0,444.0,775.0,0.0,0,1781.0,0
314,314,0.8438677237830566,0.8,1.0,1.0,344.0,589.0,0.0,0,2067.0,0
315,315,0.0017735516010622954,0.0,1.0,1.0,278.0,547.0,0.0,0,2175.0,0
316,316,0.5112379715137062,0.5,0.0,0.0,493.0,821.0,0.0,1,1686.0,1
317,317,-0.7665291786374884,-0.8,0.0,1.0,477.0,669.0,0.0,1,1854.0,0
318,318,0.05303419675460075,0.1,1.0,1.0,426.0,607.0,0.0,0,1967.0,0
319,319,0.7222083901918109,0.7,0.0,0.0,310.0,969.0,0.0,1,1721.0,1
320,320,-0.554031867968418,-0.6,0.0,1.0,374.0,870.0,1.0,0,-1244.0,1
321,321,-0.21731684924989203,-0.2,0.0,1.0,283.0,864.0,0.0,1,1853.0,0
322,322,0.19306054880451506,0.2,0.0,0.0,481.0,594.0,0.0,1,1925.0,1
323,323,0.29897304051143847,0.3,1.0,1.0,346.0,717.0,0.0,0,1937.0,0
324,324,-0.18247554907163954,-0.2,1.0,0.0,406.0,514.0,0.0,0,2080.0,1
325,325,-0.6580157906868509,-0.7,0.0,1.0,476.0,561.0,0.0,1,1963.0,0
326,326,-0.49397685770104893,-0.5,1.0,0.0,430.0,541.0,0.0,0,2029.0,1
327,327,0.6367002709255646,0.6,1.0,1.0,480.0,745.0,0.0,0,1775.0,0
328,328,0.2019139849476156,0.2,1.0,1.0,308.0,715.0,0.0,0,1977.0,0
329,329,-0.22892577797202995,-0.2,0.0,1.0,361.0,923.0,0.0,1,1716.0,0
330,330,-0.882089370524854,-0.9,1.0,0.0,455.0,742.0,0.0,0,1803.0,1
331,331,0.724965864728721,0.7,1.0,1.0,360.0,615.0,0.0,0,2025.0,0
332,332,0.5661274327493254,0.6,0.0,0.0,423.0,644.0,1.0,0,-1027.0,0
333,333,-0.6638688079580417,-0.7,1.0,0.0,440.0,551.0,0.0,0,2009.0,1
334,334,-0.7852134143650104,-0.8,0.0,1.0,469.0,850.0,0.0,1,-1299.0,0
335,335,0.8607263877681856,0.9,0.0,0.0,262.0,598.0,0.0,1,2140.0,1
336,336,0.6228025368130831,0.6,1.0,1.0,356.0,817.0,0.0,0,1827.0,0
337,337,-0.4652737578728434,-0.5,0.0,1.0,422.0,938.0,0.0,1,1640.0,0
338,338,0.1746185001120376,0.2,0.0,0.0,384.0,814.0,0.0,1,1802.0,1
339,339,-0.6737883670479883,-0.7,0.0,1.0,403.0,990.0,0.0,1,1607.0,0
340,340,-0.2759305235025946,-0.3,1.0,0.0,323.0,661.0,0.0,0,2016.0,1
341,341,0.0018520072078115346,0.0,1.0,1.0,438.0,800.0,0.0,0,1762.0,0
342,342,0.6461265649438009,0.6,0.0,0.0,278.0,576.0,0.0,1,2146.0,1
343,343,0.028043341710048963,0.0,0.0,0.0,302.0,573.0,0.0,1,2125.0,1
344,344,-0.6860910465150567,-0.7,0.0,1.0,418.0,920.0,1.0,0,-1278.0,1
345,345,-0.30444112245011967,-0.3,1.0,0.0,267.0,968.0,0.0,0,1765.0,1
346,346,-0.3778422993809605,-0.4,0.0,1.0,276.0,868.0,0.0,1,1856.0,0
347,347,-0.8358252525959834,-0.8,0.0,1.0,298.0,938.0,0.0,1,1764.0,0
348,348,-0.5155894980201636,-0.5,1.0,0.0,479.0,657.0,0.0,0,1864.0,1
349,349,-0.5545199425638885,-0.6,1.0,0.0,480.0,947.0,0.0,0,1573.0,1
350,350,0.5448022086461294,0.5,0.0,0.0,251.0,679.0,0.0,1,2070.0,1
351,351,0.2825278933483236,0.3,1.0,1.0,333.0,656.0,0.0,0,2011.0,0
352,352,0.5392792773929437,0.5,1.0,1.0,414.0,820.0,0.0,0,1766.0,0
353,353,0.5448577387207602,0.5,0.0,0.0,444.0,953.0,0.0,1,1603.0,1
354,354,-0.7213502189978228,-0.7,0.0,1.0,409.0,528.0,0.0,1,2063.0,0
355,355,0.44760902501213373,0.4,0.0,0.0,349.0,925.0,0.0,1,1726.0,1
356,356,0.6805611858694031,0.7,1.0,1.0,307.0,543.0,0.0,0,2150.0,0
357,357,-0.586498637164087,-0.6,1.0,0.0,487.0,597.0,0.0,0,1916.0,1
358,358,-0.5945035989070415,-0.6,1.0,0.0,342.0,561.0,0.0,0,2097.0,1
359,359,-0.3042938127931405,-0.3,1.0,0.0,271.0,784.0,0.0,0,1945.0,1
360,360,0.1561567546394459,0.2,1.0,1.0,391.0,937.0,0.0,0,1672.0,0
361,361,-0.35613854957924207,-0.4,1.0,0.0,255.0,626.0,0.0,0,2119.0,1
362,362,-0.8328833894467292,-0.8,1.0,0.0,267.0,582.0,0.0,0,2151.0,1
363,363,-0.67963765488347,-0.7,1.0,0.0,360.0,641.0,0.0,0,1999.0,1
364,364,0.4097616269850254,0.4,1.0,1.0,454.0,572.0,0.0,0,1974.0,0
365,365,-0.2838835673680562,-0.3,1.0,0.0,375.0,643.0,0.0,0,1982.0,1
366,366,0.8957889187711748,0.9,0.0,0.0,337.0,871.0,0.0,1,1792.0,1
367,367,-0.30868346272692426,-0.3,1.0,0.0,279.0,729.0,0.0,0,1992.0,1
368,368,-0.7861684064724642,-0.8,1.0,0.0,422.0,574.0,0.0,0,2004.0,1
369,369,-0.4161574747929013,-0.4,1.0,0.0,455.0,701.0,0.0,0,1844.0,1
370,370,0.013270817050477057,0.0,1.0,1.0,462.0,603.0,0.0,0,1935.0,0
371,371,-0.8505055869892729,-0.9,1.0,0.0,427.0,559.0,0.0,0,2014.0,1
372,372,0.4013413455649756,0.4,0.0,0.0,421.0,659.0,0.0,1,1920.0,1
373,373,-0.8032807952711923,-0.8,0.0,1.0,405.0,659.0,0.0,1,1936.0,0
374,374,-0.2899701276318857,-0.3,1.0,0.0,374.0,949.0,0.0,0,1677.0,1
375,375,0.43532420232452973,0.4,0.0,0.0,324.0,636.0,0.0,1,2040.0,1
376,376,0.7952533392030249,0.8,0.0,0.0,254.0,895.0,0.0,1,1851.0,1
377,377,0.35853537585186734,0.4,0.0,0.0,415.0,659.0,0.0,1,1926.0,1
378,378,0.34846675306352937,0.3,1.0,1.0,410.0,827.0,0.0,0,1763.0,0
379,379,-0.5275912447300308,-0.5,1.0,0.0,303.0,997.0,1.0,1,-1230.0,0
380,380,-0.039072494714512906,-0.0,0.0,1.0,332.0,567.0,0.0,1,2101.0,0
381,381,-0.384918984734249,-0.4,1.0,0.0,409.0,603.0,0.0,0,1988.0,1
382,382,-0.7906264061999502,-0.8,1.0,0.0,397.0,784.0,0.0,0,1819.0,1
383,383,-0.1709793300013729,-0.2,1.0,0.0,273.0,539.0,0.0,0,2188.0,1
384,384,0.6435020600686755,0.6,1.0,1.0,396.0,838.0,0.0,0,1766.0,0
385,385,0.7787098834527965,0.8,0.0,0.0,384.0,718.0,0.0,1,1898.0,1
386,386,-0.3759394519108752,-0.4,1.0,0.0,305.0,724.0,0.0,0,1971.0,1
387,387,0.019466998640757294,0.0,0.0,0.0,409.0,642.0,0.0,1,1949.0,1
388,388,-0.09811207054675108,-0.1,0.0,1.0,402.0,663.0,1.0,0,-945.0,1
389,389,-0.634633668933283,-0.6,0.0,1.0,456.0,663.0,0.0,1,-1069.0,0
390,390,-0.3112988229150473,-0.3,0.0,1.0,343.0,872.0,0.0,1,1785.0,0
391,391,-0.05850225784274077,-0.1,0.0,1.0,449.0,855.0,0.0,1,1696.0,0
392,392,-0.2750287592126919,-0.3,1.0,0.0,255.0,569.0,0.0,0,2176.0,1
393,393,0.7188446976292838,0.7,0.0,0.0,473.0,528.0,0.0,1,1999.0,1
394,394,-0.4724068959946032,-0.5,1.0,0.0,349.0,755.0,1.0,1,-1014.0,0
395,395,0.02250827051624893,0.0,1.0,1.0,353.0,703.0,0.0,0,1944.0,0
396,396,-0.2341198788582214,-0.2,1.0,0.0,494.0,763.0,0.0,0,1743.0,1
397,397,-0.7989152484445412,-0.8,0.0,1.0,272.0,692.0,0.0,1,2036.0,0
398,398,0.24057036814400778,0.2,0.0,0.0,387.0,707.0,0.0,1,1906.0,1
399,399,-0.846350951101807,-0.8,0.0,1.0,454.0,873.0,0.0,1,1673.0,0
400,400,0.4758267601167957,0.5,1.0,1.0,441.0,753.0,0.0,0,1806.0,0
401,401,-0.30494371815713106,-0.3,1.0,0.0,348.0,883.0,0.0,0,1769.0,1
402,402,0.04112488426310157,0.0,1.0,1.0,479.0,822.0,0.0,0,1699.0,0
403,403,-0.06409452543299854,-0.1,1.0,0.0,314.0,854.0,0.0,0,1832.0,1
404,404,0.33999947772677064,0.3,1.0,1.0,353.0,927.0,0.0,0,1720.0,0
405,405,0.1096448075588744,0.1,1.0,1.0,345.0,671.0,0.0,0,1984.0,0
406,406,0.8330256346891162,0.8,1.0,1.0,359.0,697.0,0.0,0,1944.0,0
407,407,0.47175454041668974,0.5,0.0,0.0,313.0,902.0,0.0,1,1785.0,1
408,408,-0.026811132341222343,-0.0,1.0,0.0,334.0,851.0,0.0,0,1815.0,1
409,409,-0.555067903463615,-0.6,0.0,1.0,469.0,713.0,0.0,1,1818.0,0
410,410,-0.4483319497290499,-0.4,0.0,1.0,250.0,749.0,0.0,1,2001.0,0
411,411,-0.16181355728578029,-0.2,0.0,1.0,394.0,857.0,0.0,1,1749.0,0
412,412,-0.0513402147476133,-0.1,0.0,1.0,353.0,985.0,0.0,1,1662.0,0
413,413,0.5095087787154801,0.5,1.0,1.0,435.0,595.0,0.0,0,1970.0,0
414,414,-0.5478861331710005,-0.5,1.0,0.0,328.0,758.0,0.0,0,1914.0,1
415,415,-0.06643990382064358,-0.1,0.0,1.0,337.0,961.0,0.0,1,1702.0,0
416,416,-0.19748130801892239,-0.2,1.0,0.0,254.0,837.0,0.0,0,-991.0,1
417,417,0.3148313220350051,0.3,0.0,0.0,320.0,824.0,0.0,1,1856.0,1
418,418,-0.45337435712468493,-0.5,1.0,0.0,456.0,614.0,0.0,0,1930.0,1
419,419,-0.583062994846345,-0.6,1.0,0.0,449.0,834.0,0.0,0,1717.0,1
420,420,-0.5676508251303354,-0.6,1.0,0.0,394.0,820.0,0.0,0,1786.0,1
421,421,-0.11310224815401904,-0.1,1.0,0.0,362.0,681.0,0.0,0,1957.0,1
422,422,-0.6152796514984554,-0.6,1.0,0.0,494.0,698.0,0.0,0,1808.0,1
423,423,-0.694611469441298,-0.7,0.0,1.0,259.0,650.0,0.0,1,2091.0,0
424,424,0.5193144121673031,0.5,1.0,1.0,398.0,571.0,0.0,0,2031.0,0
425,425,-0.626012874751698,-0.6,1.0,0.0,493.0,919.0,0.0,0,1588.0,1
426,426,0.12076924593150495,0.1,1.0,1.0,298.0,803.0,0.0,0,-1101.0,0
427,427,-0.38335074841417305,-0.4,0.0,1.0,385.0,739.0,0.0,1,-1024.0,0
428,428,0.596976907942154,0.6,1.0,1.0,373.0,726.0,0.0,0,1901.0,0
429,429,-0.6091235962390252,-0.6,1.0,0.0,495.0,557.0,0.0,0,1948.0,1
430,430,0.20907310191410333,0.2,0.0,0.0,498.0,770.0,0.0,1,1732.0,1
431,431,-0.7677231804498346,-0.8,0.0,1.0,343.0,776.0,0.0,1,1881.0,0
432,432,0.42233231343801425,0.4,0.0,0.0,438.0,826.0,0.0,1,1736.0,1
433,433,0.8479344156481997,0.8,0.0,0.0,411.0,976.0,0.0,1,1613.0,1
434,434,0.2073001341664139,0.2,1.0,1.0,487.0,607.0,0.0,0,-1044.0,0
435,435,0.5622885286346951,0.6,0.0,0.0,430.0,540.0,0.0,1,2030.0,1
436,436,-0.44819672419675277,-0.4,0.0,1.0,447.0,676.0,1.0,0,-1093.0,1
437,437,0.875962843991602,0.9,0.0,0.0,420.0,874.0,0.0,1,1706.0,1
438,438,0.6261009797668745,0.6,1.0,1.0,399.0,568.0,0.0,0,2033.0,0
439,439,0.5724390544978949,0.6,1.0,1.0,260.0,813.0,0.0,0,1927.0,0
440,440,-0.6616891136810689,-0.7,1.0,0.0,350.0,946.0,0.0,0,1704.0,1
441,441,0.21958740223518014,0.2,1.0,1.0,436.0,742.0,0.0,0,1822.0,0
442,442,-0.6471407244571984,-0.6,1.0,0.0,301.0,717.0,0.0,0,1982.0,1
443,443,0.6198821917694909,0.6,1.0,1.0,394.0,940.0,0.0,0,1666.0,0
444,444,-0.19111360872433192,-0.2,1.0,0.0,451.0,636.0,0.0,0,1913.0,1
445,445,-0.5433415477187106,-0.5,1.0,0.0,455.0,622.0,0.0,0,1923.0,1
446,446,-0.6476994896539567,-0.6,0.0,1.0,451.0,837.0,0.0,1,1712.0,0
447,447,-0.0956013312551145,-0.1,1.0,0.0,362.0,700.0,0.0,0,1938.0,1
448,448,0.6377971135740174,0.6,1.0,1.0,486.0,948.0,0.0,0,1566.0,0
449,449,0.08206109339694756,0.1,0.0,0.0,431.0,724.0,0.0,1,1845.0,1
450,450,0.5452998395784673,0.5,1.0,1.0,301.0,958.0,0.0,0,1741.0,0
451,451,0.15817236825399872,0.2,1.0,1.0,317.0,689.0,0.0,0,1994.0,0
452,452,-0.7364658811365997,-0.7,1.0,0.0,339.0,829.0,0.0,0,1832.0,1
453,453,-0.01813359674844195,-0.0,0.0,1.0,348.0,951.0,0.0,1,1701.0,0
454,454,-0.2499277209146552,-0.2,0.0,1.0,311.0,679.0,1.0,0,-970.0,1
455,455,0.7510622426938033,0.8,1.0,1.0,337.0,573.0,0.0,0,-820.0,0
456,456,0.8189565497861565,0.8,0.0,0.0,477.0,603.0,0.0,1,1920.0,1
457,457,-0.291372618840295,-0.3,0.0,1.0,290.0,831.0,0.0,1,1879.0,0
458,458,0.635141349590861,0.6,1.0,1.0,482.0,622.0,0.0,0,1896.0,0
459,459,-0.5511415496516645,-0.6,0.0,1.0,295.0,728.0,0.0,1,1977.0,0
460,460,-0.3766094124943137,-0.4,1.0,0.0,270.0,818.0,0.0,0,-1018.0,1
461,461,-0.8697458739460372,-0.9,0.0,1.0,477.0,852.0,0.0,1,1671.0,0
462,462,0.2351762352452743,0.2,1.0,1.0,360.0,738.0,0.0,0,-1068.0,0
463,463,0.27805342832401536,0.3,0.0,0.0,353.0,661.0,0.0,1,1986.0,1
464,464,0.26106966976725665,0.3,0.0,0.0,349.0,608.0,0.0,1,2043.0,1
465,465,0.890278089551002,0.9,0.0,0.0,316.0,598.0,0.0,1,2086.0,1
466,466,-0.8972581764666663,-0.9,1.0,0.0,365.0,566.0,0.0,0,2069.0,1
467,467,-0.050016726266533085,-0.1,1.0,0.0,431.0,915.0,0.0,0,1654.0,1
468,468,-0.6397353850930205,-0.6,1.0,0.0,424.0,942.0,0.0,0,1634.0,1
469,469,0.5680596243183861,0.6,0.0,0.0,389.0,546.0,0.0,1,2065.0,1
470,470,0.3064681847401517,0.3,1.0,1.0,294.0,684.0,0.0,0,2022.0,0
471,471,-0.8371894374454947,-0.8,1.0,0.0,365.0,866.0,0.0,0,1769.0,1
472,472,-0.15227776924225267,-0.2,0.0,1.0,443.0,697.0,0.0,1,1860.0,0
473,473,0.05775628657151444,0.1,0.0,0.0,321.0,848.0,0.0,1,1831.0,1
474,474,0.3399812386950506,0.3,1.0,1.0,430.0,917.0,0.0,0,1653.0,0
475,475,-0.09701174511376931,-0.1,1.0,0.0,458.0,970.0,0.0,0,1572.0,1
476,476,-0.7384142326486813,-0.7,1.0,0.0,460.0,951.0,0.0,0,-1401.0,1
477,477,0.63317002875476,0.6,1.0,1.0,339.0,695.0,0.0,0,1966.0,0
478,478,0.5633426139185017,0.6,0.0,0.0,261.0,968.0,0.0,1,1771.0,1
479,479,0.6908504914182766,0.7,1.0,1.0,405.0,549.0,0.0,0,2046.0,0
480,480,-0.10370300176035196,-0.1,1.0,0.0,398.0,606.0,0.0,0,1996.0,1
481,481,0.7334464323963467,0.7,0.0,0.0,462.0,991.0,0.0,1,1547.0,1
482,482,0.25924360741407704,0.3,0.0,0.0,324.0,807.0,0.0,1,1869.0,1
483,483,0.5735090726297779,0.6,1.0,1.0,481.0,539.0,0.0,0,1980.0,0
484,484,-0.6332999392117051,-0.6,0.0,1.0,281.0,507.0,0.0,1,2212.0,0
485,485,-0.8564446992548225,-0.9,1.0,0.0,481.0,699.0,0.0,0,1820.0,1
486,486,-0.13495736466166752,-0.1,1.0,0.0,266.0,624.0,0.0,0,2110.0,1
487,487,-0.3020349153858426,-0.3,0.0,1.0,370.0,683.0,0.0,1,1947.0,0
488,488,0.1010043456042441,0.1,1.0,1.0,350.0,719.0,0.0,0,1931.0,0
489,489,0.12776503226046498,0.1,0.0,0.0,433.0,907.0,0.0,1,1660.0,1
490,490,-0.39179713627235724,-0.4,0.0,1.0,313.0,950.0,0.0,1,1737.0,0
491,491,0.6777102103459517,0.7,0.0,0.0,281.0,639.0,0.0,1,2080.0,1
492,492,0.054843373193321665,0.1,0.0,0.0,478.0,628.0,0.0,1,1894.0,1
493,493,0.5069563106816671,0.5,1.0,1.0,429.0,755.0,0.0,0,1816.0,0
494,494,0.22929453708124548,0.2,0.0,0.0,309.0,601.0,0.0,1,2090.0,1
495,495,-0.07788635183730597,-0.1,1.0,0.0,433.0,827.0,0.0,0,1740.0,1
496,496,0.32124998497646995,0.3,0.0,0.0,386.0,579.0,0.0,1,2035.0,1
497,497,-0.4099041156554008,-0.4,1.0,0.0,404.0,524.0,0.0,0,2072.0,1
498,498,-0.7287049434300782,-0.7,0.0,1.0,415.0,776.0,0.0,1,1809.0,0
499,499,0.19218148485084818,0.2,1.0,1.0,435.0,873.0,0.0,0,1692.0,0
500,500,0.7473085781360992,0.7,0.0,0.0,350.0,750.0,0.0,1,1900.0,1
501,501,-0.09797614258734832,-0.1,0.0,1.0,339.0,761.0,0.0,1,1900.0,0
502,502,0.7194079075243817,0.7,1.0,1.0,367.0,874.0,0.0,0,1759.0,0
503,503,-0.4456383535315099,-0.4,1.0,0.0,460.0,842.0,0.0,0,1698.0,1
504,504,-0.8417612369100271,-0.8,1.0,0.0,400.0,537.0,0.0,0,2063.0,1
505,505,0.5686800579723542,0.6,1.0,1.0,490.0,625.0,0.0,0,1885.0,0
506,506,-0.6226470622153301,-0.6,0.0,1.0,440.0,563.0,0.0,1,1997.0,0
507,507,-0.240286323296926,-0.2,1.0,0.0,497.0,705.0,0.0,0,1798.0,1
508,508,-0.8527547952790998,-0.9,0.0,1.0,388.0,901.0,0.0,1,1711.0,0
509,509,-0.3961708683611814,-0.4,1.0,0.0,447.0,533.0,0.0,0,2020.0,1
510,510,-0.18653572088910964,-0.2,0.0,1.0,266.0,512.0,0.0,1,2222.0,0
511,511,-0.5111113114581631,-0.5,1.0,0.0,369.0,957.0,0.0,0,1674.0,1
512,512,0.04488165742735162,0.0,0.0,0.0,368.0,883.0,0.0,1,1749.0,1
513,513,-0.632894053277701,-0.6,1.0,0.0,425.0,825.0,0.0,0,1750.0,1
514,514,-0.3306544333194067,-0.3,0.0,1.0,376.0,622.0,0.0,1,2002.0,0
515,515,-0.11298760115977613,-0.1,1.0,0.0,357.0,857.0,1.0,1,-1024.0,0
516,516,0.008409910060477088,0.0,1.0,1.0,276.0,648.0,0.0,0,2076.0,0
517,517,-0.17336355121895353,-0.2,1.0,0.0,320.0,603.0,0.0,0,2077.0,1
518,518,0.12851887478899438,0.1,1.0,1.0,271.0,525.0,0.0,0,2204.0,0
519,519,-0.17082822458893132,-0.2,0.0,1.0,262.0,704.0,0.0,1,2034.0,0
520,520,-0.552110164199631,-0.6,0.0,1.0,335.0,857.0,0.0,1,1808.0,0
521,521,-0.3430538453430584,-0.3,0.0,1.0,444.0,705.0,0.0,1,1851.0,0
522,522,0.3724168050209461,0.4,0.0,0.0,447.0,535.0,1.0,0,-962.0,0
523,523,0.36194730474410297,0.4,1.0,1.0,273.0,576.0,0.0,0,2151.0,0
524,524,-0.4241952043786908,-0.4,0.0,1.0,287.0,884.0,0.0,1,1829.0,0
525,525,-0.34655333166282176,-0.3,1.0,0.0,309.0,619.0,0.0,0,2072.0,1
526,526,-0.23968068707836865,-0.2,0.0,1.0,275.0,960.0,0.0,1,1765.0,0
527,527,0.5670075422460011,0.6,1.0,1.0,424.0,588.0,0.0,0,1988.0,0
528,528,-0.40539287637569277,-0.4,1.0,0.0,471.0,877.0,0.0,0,1652.0,1
529,529,0.34339528145464315,0.3,0.0,0.0,411.0,614.0,0.0,1,1975.0,1
530,530,-0.673203303587249,-0.7,1.0,0.0,382.0,846.0,0.0,0,-1208.0,1
531,531,-0.5156656275177077,-0.5,1.0,0.0,378.0,857.0,0.0,0,1765.0,1
532,532,-0.24473206315727836,-0.2,1.0,0.0,326.0,596.0,0.0,0,2078.0,1
533,533,0.8048468594872761,0.8,0.0,0.0,328.0,694.0,0.0,1,1978.0,1
534,534,0.49862084202235757,0.5,1.0,1.0,312.0,899.0,0.0,0,1789.0,0
535,535,0.7693106169747018,0.8,1.0,1.0,398.0,541.0,0.0,0,2061.0,0
536,536,-0.44643525753102636,-0.4,1.0,0.0,438.0,615.0,0.0,0,1947.0,1
537,537,-0.06364396129002325,-0.1,1.0,0.0,252.0,788.0,0.0,0,1960.0,1
538,538,-0.17128108175949874,-0.2,0.0,1.0,391.0,918.0,0.0,1,1691.0,0
539,539,0.08369949381359354,0.1,1.0,1.0,323.0,577.0,0.0,0,2100.0,0
540,540,0.19409543192801404,0.2,1.0,1.0,352.0,920.0,0.0,0,1728.0,0
541,541,-0.26892051336043055,-0.3,0.0,1.0,389.0,973.0,0.0,1,1638.0,0
542,542,0.43283145048441185,0.4,0.0,0.0,257.0,654.0,0.0,1,2089.0,1
543,543,0.27047753171751554,0.3,1.0,1.0,345.0,650.0,0.0,0,2005.0,0
544,544,-0.8693676745410384,-0.9,1.0,0.0,413.0,640.0,0.0,0,1947.0,1
545,545,0.2895197607515759,0.3,1.0,1.0,472.0,714.0,0.0,0,1814.0,0
546,546,-0.21923231139813182,-0.2,0.0,1.0,272.0,977.0,0.0,1,1751.0,0
547,547,-0.577965796153703,-0.6,0.0,1.0,394.0,734.0,0.0,1,1872.0,0
548,548,0.038493738482165196,0.0,1.0,1.0,499.0,535.0,0.0,0,-944.0,0
549,549,0.1400697753539627,0.1,0.0,0.0,300.0,580.0,0.0,1,2120.0,1
550,550,0.35185275352517975,0.4,1.0,1.0,323.0,771.0,0.0,0,1906.0,0
551,551,-0.10493837851885923,-0.1,0.0,1.0,305.0,541.0,0.0,1,2154.0,0
552,552,-0.7068879318330222,-0.7,1.0,0.0,490.0,782.0,0.0,0,1728.0,1
553,553,-0.8964237886872107,-0.9,1.0,0.0,339.0,975.0,0.0,0,1686.0,1
554,554,0.6677582762549014,0.7,1.0,1.0,340.0,606.0,0.0,0,2054.0,0
555,555,0.6973706999073511,0.7,1.0,1.0,377.0,573.0,0.0,0,2050.0,0
556,556,-0.8475162723466284,-0.8,0.0,1.0,434.0,637.0,1.0,0,-971.0,1
557,557,0.6190326871504209,0.6,0.0,0.0,318.0,895.0,0.0,1,1787.0,1
558,558,-0.7043925585404578,-0.7,0.0,1.0,266.0,902.0,0.0,1,1832.0,0
559,559,0.3091210851629612,0.3,1.0,1.0,298.0,718.0,0.0,0,1984.0,0
560,560,-0.4362816252158743,-0.4,1.0,0.0,475.0,984.0,0.0,0,1541.0,1
561,561,-0.44751477692110014,-0.4,1.0,0.0,299.0,797.0,0.0,0,1904.0,1
562,562,-0.3900600314537802,-0.4,0.0,1.0,278.0,836.0,0.0,1,1886.0,0
563,563,-0.8335799747570733,-0.8,1.0,0.0,470.0,676.0,0.0,0,1854.0,1
564,564,-0.8394160086909154,-0.8,1.0,0.0,313.0,723.0,0.0,0,1964.0,1
565,565,0.24280017975813595,0.2,1.0,1.0,322.0,717.0,0.0,0,1961.0,0
566,566,-0.018887211426971584,-0.0,0.0,1.0,290.0,937.0,0.0,1,1773.0,0
567,567,0.5269038618502401,0.5,1.0,1.0,413.0,665.0,0.0,0,1922.0,0
568,568,-0.5668044357719384,-0.6,0.0,1.0,322.0,934.0,0.0,1,-1256.0,0
569,569,0.6738891490335078,0.7,1.0,1.0,363.0,664.0,0.0,0,1973.0,0
570,570,-0.4012987762687314,-0.4,1.0,0.0,435.0,840.0,0.0,0,1725.0,1
571,571,0.7358334868040067,0.7,0.0,0.0,443.0,641.0,0.0,1,1916.0,1
572,572,0.8841399976794736,0.9,1.0,1.0,406.0,575.0,0.0,0,2019.0,0
573,573,0.03895894766735497,0.0,1.0,1.0,331.0,599.0,0.0,0,2070.0,0
574,574,-0.8330288375261642,-0.8,1.0,0.0,457.0,598.0,0.0,0,1945.0,1
575,575,0.6856574484223413,0.7,0.0,0.0,349.0,829.0,0.0,1,1822.0,1
576,576,0.2703932565783719,0.3,1.0,1.0,428.0,515.0,0.0,0,-843.0,0
577,577,-0.428406850904926,-0.4,1.0,0.0,305.0,795.0,0.0,0,1900.0,1
578,578,0.10006206686294006,0.1,1.0,1.0,395.0,750.0,0.0,0,1855.0,0
579,579,-0.5456589309801936,-0.5,0.0,1.0,374.0,825.0,0.0,1,1801.0,0
580,580,-0.09847403564241886,-0.1,1.0,0.0,294.0,525.0,0.0,0,2181.0,1
581,581,-0.15543746345947929,-0.2,1.0,0.0,471.0,939.0,0.0,0,-1280.0,1
582,582,-0.7004066219504377,-0.7,1.0,0.0,409.0,902.0,0.0,0,1689.0,1
583,583,0.8356858543798166,0.8,1.0,1.0,467.0,537.0,0.0,0,1996.0,0
584,584,0.7437131757876757,0.7,1.0,1.0,302.0,935.0,0.0,0,1763.0,0
585,585,0.26138053238373893,0.3,0.0,0.0,375.0,845.0,0.0,1,1780.0,1
586,586,0.7458851527680627,0.7,1.0,1.0,469.0,814.0,0.0,0,1717.0,0
587,587,-0.35342894778302425,-0.4,1.0,0.0,405.0,699.0,0.0,0,1896.0,1
588,588,0.6116272434952071,0.6,1.0,1.0,464.0,678.0,0.0,0,1858.0,0
589,589,0.3993834260131267,0.4,0.0,0.0,411.0,642.0,0.0,1,1947.0,1
590,590,0.13423901187063303,0.1,1.0,1.0,250.0,748.0,0.0,0,2002.0,0
591,591,-0.3072207881641834,-0.3,0.0,1.0,341.0,814.0,0.0,1,1845.0,0
592,592,-0.7533235470167916,-0.8,0.0,1.0,456.0,589.0,0.0,1,1955.0,0
593,593,0.41342425073063305,0.4,1.0,1.0,408.0,859.0,0.0,0,1733.0,0
594,594,0.3784839561118237,0.4,1.0,1.0,278.0,539.0,0.0,0,2183.0,0
595,595,0.5037826803465358,0.5,1.0,1.0,379.0,739.0,0.0,0,1882.0,0
596,596,0.020091540504781902,0.0,0.0,0.0,370.0,650.0,0.0,1,1980.0,1
597,597,0.8619565691417453,0.9,1.0,1.0,456.0,544.0,1.0,1,-910.0,1
598,598,0.08659624663478793,0.1,0.0,0.0,275.0,932.0,0.0,1,1793.0,1
599,599,0.036677000030714946,0.0,1.0,1.0,425.0,743.0,1.0,1,-1158.0,1
600,600,0.41700847919783957,0.4,1.0,1.0,413.0,901.0,0.0,0,1686.0,0
601,601,0.766567034359987,0.8,1.0,1.0,381.0,797.0,0.0,0,1822.0,0
602,602,0.24017899241511376,0.2,0.0,0.0,439.0,585.0,0.0,1,1976.0,1
603,603,-0.345408359216019,-0.3,1.0,0.0,410.0,740.0,1.0,1,-1130.0,0
604,604,-0.6782757236703629,-0.7,1.0,0.0,260.0,570.0,0.0,0,2170.0,1
605,605,-0.35432215297931946,-0.4,1.0,0.0,432.0,649.0,0.0,0,1919.0,1
606,606,0.10102121758174876,0.1,1.0,1.0,422.0,890.0,0.0,0,1688.0,0
607,607,-0.4787172550416451,-0.5,1.0,0.0,261.0,534.0,0.0,0,2205.0,1
608,608,0.23510563876504798,0.2,0.0,0.0,269.0,755.0,0.0,1,1976.0,1
609,609,-0.35366255761441945,-0.4,1.0,0.0,499.0,871.0,0.0,0,1630.0,1
610,610,-0.3159845873065743,-0.3,0.0,1.0,421.0,963.0,0.0,1,1616.0,0
611,611,-0.4800798823081342,-0.5,1.0,0.0,382.0,815.0,0.0,0,1803.0,1
612,612,0.12210170606126092,0.1,0.0,0.0,394.0,870.0,0.0,1,1736.0,1
613,613,0.13572487121422816,0.1,0.0,0.0,375.0,910.0,0.0,1,1715.0,1
614,614,-0.5467667538354379,-0.5,0.0,1.0,317.0,701.0,0.0,1,1982.0,0
615,615,0.5511272730438664,0.6,1.0,1.0,267.0,724.0,0.0,0,2009.0,0
616,616,0.3065618046247379,0.3,0.0,0.0,482.0,623.0,0.0,1,1895.0,1
617,617,0.5185028374922095,0.5,1.0,1.0,285.0,681.0,0.0,0,2034.0,0
618,618,0.3227231388854198,0.3,1.0,1.0,259.0,821.0,0.0,0,1920.0,0
619,619,-0.6801700944625955,-0.7,0.0,1.0,257.0,752.0,0.0,1,1991.0,0
620,620,-0.5776579668537161,-0.6,0.0,1.0,285.0,574.0,0.0,1,2141.0,0
621,621,-0.8715624404639802,-0.9,0.0,1.0,252.0,743.0,0.0,1,2005.0,0
622,622,-0.5077050512599253,-0.5,1.0,0.0,295.0,949.0,0.0,0,1756.0,1
623,623,0.2342834571975082,0.2,1.0,1.0,275.0,840.0,0.0,0,1885.0,0
624,624,0.6290672421305114,0.6,1.0,1.0,401.0,915.0,0.0,0,1684.0,0
625,625,0.2884172187198223,0.3,0.0,0.0,331.0,519.0,0.0,1,2150.0,1
626,626,-0.15722660075141925,-0.2,0.0,1.0,432.0,673.0,0.0,1,1895.0,0
627,627,-0.5068841674108713,-0.5,1.0,0.0,494.0,980.0,0.0,0,1526.0,1
628,628,0.2101755064351606,0.2,0.0,0.0,274.0,872.0,0.0,1,1854.0,1
629,629,-0.0038097087911415084,-0.0,1.0,0.0,368.0,826.0,0.0,0,1806.0,1
630,630,-0.2920074231713359,-0.3,1.0,0.0,348.0,842.0,0.0,0,1810.0,1
631,631,-0.4809815037429609,-0.5,0.0,1.0,469.0,638.0,0.0,1,1893.0,0
632,632,0.19095490829632789,0.2,0.0,0.0,410.0,982.0,1.0,0,-1312.0,0
633,633,0.17762086841331193,0.2,0.0,0.0,384.0,632.0,0.0,1,1984.0,1
634,634,-0.5424860186578395,-0.5,0.0,1.0,305.0,710.0,0.0,1,1985.0,0
635,635,-0.5327751635168204,-0.5,0.0,1.0,407.0,735.0,0.0,1,1858.0,0
636,636,0.22876955182982217,0.2,1.0,1.0,459.0,820.0,0.0,0,1721.0,0
637,637,0.806354901860925,0.8,0.0,0.0,256.0,949.0,0.0,1,1795.0,1
638,638,-0.6600758654339103,-0.7,1.0,0.0,290.0,852.0,0.0,0,1858.0,1
639,639,-0.03322678378859989,-0.0,0.0,1.0,281.0,917.0,0.0,1,1802.0,0
640,640,-0.23186252421740283,-0.2,1.0,0.0,267.0,770.0,0.0,0,-1017.0,1
641,641,0.005245658166761924,0.0,0.0,0.0,458.0,715.0,0.0,1,1827.0,1
642,642,0.3571578089158206,0.4,0.0,0.0,374.0,953.0,0.0,1,1673.0,1
643,643,0.7157583845398209,0.7,1.0,1.0,322.0,643.0,0.0,0,2035.0,0
644,644,0.3935585465571344,0.4,0.0,0.0,319.0,532.0,0.0,1,2149.0,1
645,645,-0.3191998130667172,-0.3,0.0,1.0,271.0,534.0,0.0,1,2195.0,0
646,646,0.7198430758818647,0.7,1.0,1.0,342.0,780.0,0.0,0,1878.0,0
647,647,0.5973367668050592,0.6,1.0,1.0,492.0,926.0,0.0,0,1582.0,0
648,648,0.42478088968648275,0.4,1.0,1.0,307.0,575.0,0.0,0,-852.0,0
649,649,-0.4914646479975829,-0.5,0.0,1.0,481.0,959.0,0.0,1,-1290.0,0
650,650,0.5788093068460204,0.6,1.0,1.0,398.0,818.0,0.0,0,1784.0,0
651,651,-0.022938086641865918,-0.0,1.0,0.0,434.0,814.0,0.0,0,1752.0,1
652,652,0.8898858625361671,0.9,0.0,0.0,469.0,963.0,1.0,0,-1332.0,0
653,653,-0.1320488266131563,-0.1,1.0,0.0,362.0,959.0,0.0,0,1679.0,1
654,654,0.8798908793849517,0.9,1.0,1.0,273.0,634.0,0.0,0,2093.0,0
655,655,-0.009285182445628926,-0.0,1.0,0.0,415.0,732.0,0.0,0,1853.0,1
656,656,0.8138364097351666,0.8,0.0,0.0,263.0,793.0,0.0,1,1944.0,1
657,657,-0.7636253873081489,-0.8,0.0,1.0,320.0,551.0,0.0,1,2129.0,0
658,658,0.5265361830918655,0.5,0.0,0.0,331.0,909.0,0.0,1,1760.0,1
659,659,0.7043107716649698,0.7,0.0,0.0,296.0,947.0,0.0,1,1757.0,1
660,660,-0.27320345667859414,-0.3,1.0,0.0,378.0,711.0,0.0,0,1911.0,1
661,661,-0.21833067876123746,-0.2,0.0,1.0,272.0,990.0,0.0,1,1738.0,0
662,662,0.2417061813264777,0.2,1.0,1.0,483.0,750.0,0.0,0,1767.0,0
663,663,-0.25229079116522624,-0.3,1.0,0.0,362.0,880.0,0.0,0,1758.0,1
664,664,0.2852262577049952,0.3,1.0,1.0,281.0,749.0,0.0,0,1970.0,0
665,665,-0.686197166587029,-0.7,1.0,0.0,406.0,990.0,0.0,0,1604.0,1
666,666,-0.4503994526365948,-0.5,0.0,1.0,481.0,987.0,0.0,1,1532.0,0
667,667,-0.6265457721134263,-0.6,0.0,1.0,290.0,753.0,0.0,1,1957.0,0
668,668,-0.3259521525299963,-0.3,0.0,1.0,392.0,523.0,0.0,1,2085.0,0
669,669,0.5535386092438027,0.6,0.0,0.0,255.0,721.0,0.0,1,2024.0,1
670,670,0.3985737175377079,0.4,0.0,0.0,258.0,764.0,0.0,1,1978.0,1
671,671,-0.27803533150585447,-0.3,0.0,1.0,403.0,863.0,0.0,1,1734.0,0
672,672,0.6377473620551221,0.6,0.0,0.0,461.0,783.0,0.0,1,1756.0,1
673,673,-0.22593437773309033,-0.2,0.0,1.0,258.0,505.0,0.0,1,2237.0,0
674,674,0.7527516727703357,0.8,1.0,1.0,368.0,960.0,1.0,1,-1278.0,1
675,675,-0.23916657079145975,-0.2,0.0,1.0,253.0,892.0,0.0,1,1855.0,0
676,676,-0.8177101031118925,-0.8,0.0,1.0,487.0,540.0,0.0,1,1973.0,0
677,677,0.4368281677344229,0.4,1.0,1.0,331.0,789.0,0.0,0,1880.0,0
678,678,-0.7161269974162199,-0.7,1.0,0.0,429.0,704.0,0.0,0,1867.0,1
679,679,-0.14665693045776818,-0.1,1.0,0.0,321.0,889.0,0.0,0,1790.0,1
680,680,-0.5920794093885264,-0.6,0.0,1.0,414.0,763.0,0.0,1,1823.0,0
681,681,-0.8045853838861109,-0.8,1.0,0.0,317.0,654.0,0.0,0,2029.0,1
682,682,0.2839015457246975,0.3,1.0,1.0,316.0,652.0,0.0,0,2032.0,0
683,683,-0.3505003167304439,-0.4,1.0,0.0,282.0,729.0,0.0,0,1989.0,1
684,684,-0.07803989987422022,-0.1,1.0,0.0,356.0,914.0,0.0,0,1730.0,1
685,685,0.7353921609731554,0.7,0.0,0.0,299.0,724.0,0.0,1,1977.0,1
686,686,-0.7765870135277936,-0.8,1.0,0.0,287.0,513.0,0.0,0,2200.0,1
687,687,0.30011931943112324,0.3,0.0,0.0,349.0,963.0,0.0,1,1688.0,1
688,688,-0.7767755512657876,-0.8,0.0,1.0,292.0,501.0,0.0,1,2207.0,0
689,689,0.46395021107121537,0.5,0.0,0.0,420.0,544.0,0.0,1,2036.0,1
690,690,0.8461337338193776,0.8,0.0,0.0,280.0,533.0,0.0,1,2187.0,1
691,691,0.7958409989009322,0.8,1.0,1.0,321.0,877.0,0.0,0,1802.0,0
692,692,0.32573052743381903,0.3,0.0,0.0,389.0,741.0,0.0,1,1870.0,1
693,693,-0.05508291489396633,-0.1,0.0,1.0,392.0,507.0,0.0,1,2101.0,0
694,694,-0.5845050173916049,-0.6,1.0,0.0,329.0,994.0,0.0,0,1677.0,1
695,695,0.7279091434490009,0.7,1.0,1.0,274.0,757.0,1.0,1,-861.0,1
696,696,-0.4695748144912216,-0.5,0.0,1.0,356.0,999.0,0.0,1,1645.0,0
697,697,0.7994151945745059,0.8,1.0,1.0,262.0,877.0,0.0,0,1861.0,0
698,698,0.2584553267765829,0.3,1.0,1.0,370.0,530.0,0.0,0,2100.0,0
699,699,0.36899203707147465,0.4,1.0,1.0,324.0,583.0,0.0,0,2093.0,0
700,700,0.4049299115619368,0.4,0.0,0.0,444.0,807.0,0.0,1,1749.0,1
701,701,0.6468509867779163,0.6,1.0,1.0,303.0,617.0,0.0,0,2080.0,0
702,702,0.0002688909531858297,0.0,1.0,1.0,394.0,730.0,0.0,0,1876.0,0
703,703,-0.48494482288948987,-0.5,0.0,1.0,318.0,673.0,0.0,1,2009.0,0
704,704,-0.41611911785462175,-0.4,0.0,1.0,255.0,799.0,0.0,1,1946.0,0
705,705,0.4784404651356903,0.5,1.0,1.0,472.0,895.0,0.0,0,1633.0,0
706,706,-0.8367600838111267,-0.8,0.0,1.0,472.0,783.0,0.0,1,1745.0,0
707,707,0.1386156656995342,0.1,1.0,1.0,430.0,880.0,0.0,0,1690.0,0
708,708,0.40625398091685605,0.4,0.0,0.0,451.0,621.0,0.0,1,1928.0,1
709,709,0.6125602326290224,0.6,1.0,1.0,310.0,526.0,0.0,0,2164.0,0
710,710,0.08236105785905834,0.1,0.0,0.0,298.0,571.0,1.0,0,-839.0,0
711,711,-0.0029987521655703286,-0.0,1.0,0.0,463.0,830.0,1.0,1,-1233.0,0
712,712,0.6711266453339252,0.7,1.0,1.0,481.0,720.0,0.0,0,1799.0,0
713,713,0.7969557609060168,0.8,1.0,1.0,418.0,833.0,0.0,0,1749.0,0
714,714,0.4826922132904633,0.5,0.0,0.0,287.0,521.0,0.0,1,2192.0,1
715,715,0.7149957343151926,0.7,0.0,0.0,338.0,535.0,0.0,1,2127.0,1
716,716,0.3036427061932897,0.3,1.0,1.0,314.0,704.0,0.0,0,1982.0,0
717,717,0.611522202132306,0.6,0.0,0.0,285.0,684.0,0.0,1,2031.0,1
718,718,-0.7950419266956721,-0.8,1.0,0.0,326.0,765.0,0.0,0,1909.0,1
719,719,-0.1852428235803656,-0.2,0.0,1.0,407.0,778.0,0.0,1,1815.0,0
720,720,0.12171513860627459,0.1,1.0,1.0,268.0,790.0,0.0,0,1942.0,0
721,721,0.5224701842582603,0.5,1.0,1.0,484.0,959.0,0.0,0,1557.0,0
722,722,-0.689247298686425,-0.7,0.0,1.0,269.0,850.0,0.0,1,1881.0,0
723,723,0.5327614025436557,0.5,1.0,1.0,293.0,686.0,0.0,0,2021.0,0
724,724,0.3301991198007913,0.3,0.0,0.0,325.0,745.0,1.0,0,-1060.0,0
725,725,-0.7879516474170909,-0.8,0.0,1.0,498.0,621.0,0.0,1,1881.0,0
726,726,0.38850399636858757,0.4,1.0,1.0,313.0,588.0,0.0,0,2099.0,0
727,727,-0.8841550930006083,-0.9,1.0,0.0,416.0,862.0,0.0,0,1722.0,1
728,728,0.3537558682985952,0.4,1.0,1.0,301.0,715.0,0.0,0,1984.0,0
729,729,-0.5146644719589311,-0.5,0.0,1.0,301.0,516.0,0.0,1,2183.0,0
730,730,-0.4403660691456938,-0.4,1.0,0.0,372.0,547.0,0.0,0,2081.0,1
731,731,0.42890433589488064,0.4,1.0,1.0,465.0,921.0,0.0,0,-1376.0,0
732,732,-0.6843337529118287,-0.7,0.0,1.0,310.0,813.0,0.0,1,1877.0,0
733,733,0.2325897890975489,0.2,1.0,1.0,394.0,722.0,0.0,0,1884.0,0
734,734,-0.7072259729941454,-0.7,0.0,1.0,262.0,607.0,0.0,1,2131.0,0
735,735,-0.6604605915654437,-0.7,0.0,1.0,323.0,828.0,0.0,1,1849.0,0
736,736,0.568796657365204,0.6,1.0,1.0,328.0,793.0,0.0,0,-1061.0,0
737,737,-0.2080818952905502,-0.2,0.0,1.0,342.0,548.0,0.0,1,2110.0,0
738,738,-0.05089080035368798,-0.1,1.0,0.0,336.0,784.0,0.0,0,1880.0,1
739,739,0.17436653050468098,0.2,1.0,1.0,283.0,641.0,0.0,0,2076.0,0
740,740,0.17619483024264004,0.2,1.0,1.0,487.0,964.0,0.0,0,1549.0,0
741,741,-0.1857523809831707,-0.2,1.0,0.0,409.0,725.0,0.0,0,1866.0,1
742,742,-0.39419478995213564,-0.4,0.0,1.0,378.0,954.0,0.0,1,1668.0,0
743,743,0.7485743300515936,0.7,1.0,1.0,404.0,916.0,0.0,0,1680.0,0
744,744,0.4787626398841017,0.5,1.0,1.0,426.0,636.0,0.0,0,1938.0,0
745,745,0.7697773329340506,0.8,1.0,1.0,479.0,785.0,1.0,1,-1184.0,1
746,746,0.6046945356896004,0.6,1.0,1.0,448.0,772.0,0.0,0,1780.0,0
747,747,0.6036197579906261,0.6,1.0,1.0,390.0,585.0,0.0,0,2025.0,0
748,748,0.852517045522354,0.9,0.0,0.0,484.0,847.0,0.0,1,1669.0,1
749,749,0.13838199803736384,0.1,1.0,1.0,275.0,694.0,0.0,0,2031.0,0
750,750,-0.7821419950221732,-0.8,0.0,1.0,474.0,943.0,0.0,1,1583.0,0
751,751,-0.036846454655289795,-0.0,1.0,0.0,382.0,945.0,0.0,0,1673.0,1
752,752,0.8144198250992737,0.8,0.0,0.0,391.0,537.0,0.0,1,2072.0,1
753,753,-0.13375932548998215,-0.1,0.0,1.0,288.0,651.0,0.0,1,2061.0,0
754,754,-0.7900758101396912,-0.8,0.0,1.0,257.0,995.0,0.0,1,1748.0,0
755,755,-0.23774073787011873,-0.2,1.0,0.0,411.0,605.0,0.0,0,1984.0,1
756,756,0.643867104772302,0.6,1.0,1.0,474.0,839.0,0.0,0,1687.0,0
757,757,-0.08625239770671966,-0.1,1.0,0.0,400.0,620.0,0.0,0,1980.0,1
758,758,-0.6981000523587556,-0.7,1.0,0.0,435.0,928.0,0.0,0,1637.0,1
759,759,-0.19168625275924656,-0.2,1.0,0.0,497.0,778.0,0.0,0,1725.0,1
760,760,0.4220954719428033,0.4,1.0,1.0,357.0,504.0,0.0,0,2139.0,0
761,761,0.6154606185679882,0.6,1.0,1.0,430.0,793.0,0.0,0,1777.0,0
762,762,-0.639117460128158,-0.6,1.0,0.0,425.0,833.0,0.0,0,1742.0,1
763,763,0.760050040047307,0.8,0.0,0.0,348.0,898.0,0.0,1,-1216.0,1
764,764,0.3135916179399604,0.3,1.0,1.0,274.0,527.0,0.0,0,2199.0,0
765,765,-0.15012792558834331,-0.2,0.0,1.0,460.0,801.0,1.0,0,-1211.0,1
766,766,0.11594043268313514,0.1,0.0,0.0,335.0,561.0,0.0,1,2104.0,1
767,767,0.4539155771079405,0.5,0.0,0.0,387.0,635.0,0.0,1,1978.0,1
768,768,-0.24567869807022524,-0.2,0.0,1.0,382.0,949.0,0.0,1,1669.0,0
769,769,-0.25980601989330165,-0.3,0.0,1.0,405.0,897.0,0.0,1,1698.0,0
770,770,0.0527314155857348,0.1,0.0,0.0,491.0,718.0,0.0,1,1791.0,1
771,771,-0.15146459712543836,-0.2,0.0,1.0,259.0,682.0,0.0,1,2059.0,0
772,772,-0.5333430565474255,-0.5,0.0,1.0,293.0,936.0,0.0,1,1771.0,0
773,773,0.09895159352170613,0.1,1.0,1.0,418.0,513.0,0.0,0,2069.0,0
774,774,0.06237710188830714,0.1,0.0,0.0,364.0,711.0,0.0,1,1925.0,1
775,775,0.09449707933908968,0.1,1.0,1.0,485.0,751.0,0.0,0,1764.0,0
776,776,0.4321399723107201,0.4,0.0,0.0,430.0,698.0,0.0,1,1872.0,1
777,777,-0.2338622127980553,-0.2,0.0,1.0,269.0,728.0,0.0,1,2003.0,0
778,778,0.8722338966434228,0.9,1.0,1.0,290.0,613.0,0.0,0,2097.0,0
779,779,-0.29339506427049755,-0.3,1.0,0.0,429.0,943.0,0.0,0,1628.0,1
780,780,0.3127644488393889,0.3,1.0,1.0,280.0,717.0,0.0,0,2003.0,0
781,781,-0.07278294495687909,-0.1,1.0,0.0,368.0,746.0,0.0,0,1886.0,1
782,782,-0.20133665595561612,-0.2,1.0,0.0,269.0,833.0,0.0,0,-1032.0,1
783,783,0.7650789025307788,0.8,1.0,1.0,393.0,958.0,0.0,0,1649.0,0
784,784,-0.1523109438732897,-0.2,0.0,1.0,372.0,637.0,1.0,0,-879.0,1
785,785,-0.2582190594677497,-0.3,0.0,1.0,258.0,534.0,0.0,1,2208.0,0
786,786,-0.30864196057939164,-0.3,0.0,1.0,305.0,502.0,0.0,1,2193.0,0
787,787,0.2553759779961634,0.3,0.0,0.0,488.0,844.0,0.0,1,1668.0,1
788,788,0.3959966361956032,0.4,0.0,0.0,268.0,904.0,0.0,1,1828.0,1
789,789,0.706026829776422,0.7,1.0,1.0,357.0,662.0,0.0,0,1981.0,0
790,790,0.24429887434780706,0.2,1.0,1.0,458.0,562.0,0.0,0,1980.0,0
791,791,-0.762601946256659,-0.8,0.0,1.0,416.0,917.0,0.0,1,-1333.0,0
792,792,-0.23622458903414867,-0.2,0.0,1.0,421.0,977.0,0.0,1,1602.0,0
793,793,-0.006154234002411441,-0.0,0.0,1.0,293.0,552.0,1.0,0,-845.0,1
794,794,-0.49165991646847923,-0.5,0.0,1.0,484.0,689.0,1.0,0,-1133.0,1
795,795,-0.6230284275128296,-0.6,0.0,1.0,280.0,725.0,0.0,1,1995.0,0
796,796,-0.7034441378920369,-0.7,0.0,1.0,443.0,870.0,0.0,1,1687.0,0
797,797,-0.12233172486039079,-0.1,1.0,0.0,267.0,639.0,0.0,0,2094.0,1
798,798,0.8121008256722543,0.8,1.0,1.0,400.0,640.0,0.0,0,1960.0,0
799,799,-0.2762309004793909,-0.3,0.0,1.0,441.0,965.0,0.0,1,1594.0,0
800,800,0.7243716529876377,0.7,1.0,1.0,280.0,836.0,0.0,0,1884.0,0
801,801,-0.8338577905028196,-0.8,1.0,0.0,354.0,911.0,0.0,0,1735.0,1
802,802,-0.20472305125263957,-0.2,0.0,1.0,313.0,778.0,0.0,1,1909.0,0
803,803,-0.26762141608413637,-0.3,1.0,0.0,384.0,995.0,0.0,0,1621.0,1
804,804,-0.397334194808614,-0.4,0.0,1.0,280.0,510.0,0.0,1,2210.0,0
805,805,-0.15333328365018284,-0.2,1.0,0.0,332.0,647.0,0.0,0,2021.0,1
806,806,-0.5733376405935411,-0.6,0.0,1.0,324.0,529.0,0.0,1,2147.0,0
807,807,0.10238104426123729,0.1,0.0,0.0,341.0,862.0,0.0,1,1797.0,1
808,808,0.43829566851358537,0.4,1.0,1.0,414.0,747.0,1.0,1,-1101.0,1
809,809,-0.20798570679782147,-0.2,1.0,0.0,427.0,849.0,0.0,0,1724.0,1
810,810,-0.4787212257598397,-0.5,0.0,1.0,319.0,709.0,0.0,1,1972.0,0
811,811,0.00611579794510686,0.0,1.0,1.0,380.0,689.0,0.0,0,1931.0,0
812,812,-0.1859515868299404,-0.2,0.0,1.0,308.0,978.0,0.0,1,1714.0,0
813,813,0.39730849844826743,0.4,1.0,1.0,478.0,872.0,0.0,0,1650.0,0
814,814,0.8915108445189458,0.9,0.0,0.0,386.0,598.0,0.0,1,2016.0,1
815,815,-0.7804902355724832,-0.8,0.0,1.0,355.0,787.0,0.0,1,1858.0,0
816,816,0.3977744121681389,0.4,0.0,0.0,284.0,505.0,0.0,1,2211.0,1
817,817,-0.8434854448893057,-0.8,1.0,0.0,415.0,723.0,1.0,1,-1078.0,0
818,818,0.09547811736995915,0.1,0.0,0.0,331.0,761.0,0.0,1,1908.0,1
819,819,0.2799940005522731,0.3,0.0,0.0,296.0,530.0,0.0,1,2174.0,1
820,820,0.8121317917189189,0.8,0.0,0.0,446.0,890.0,0.0,1,1664.0,1
821,821,0.4383879379445933,0.4,1.0,1.0,308.0,956.0,0.0,0,1736.0,0
822,822,-0.64477646379022,-0.6,0.0,1.0,363.0,678.0,0.0,1,1959.0,0
823,823,-0.28834385663005324,-0.3,1.0,0.0,491.0,504.0,0.0,0,2005.0,1
824,824,0.8502461481579128,0.9,0.0,0.0,333.0,758.0,0.0,1,1909.0,1
825,825,-0.7899305558557728,-0.8,0.0,1.0,333.0,603.0,0.0,1,2064.0,0
826,826,0.3692511985914838,0.4,1.0,1.0,456.0,948.0,0.0,0,1596.0,0
827,827,-0.6970521217316583,-0.7,0.0,1.0,412.0,849.0,0.0,1,1739.0,0
828,828,-0.8213735786211884,-0.8,1.0,0.0,268.0,887.0,0.0,0,1845.0,1
829,829,-0.4441739100688651,-0.4,0.0,1.0,391.0,694.0,0.0,1,1915.0,0
830,830,-0.03708576559972354,-0.0,1.0,0.0,319.0,795.0,0.0,0,1886.0,1
831,831,0.7179281353188666,0.7,1.0,1.0,373.0,612.0,0.0,0,2015.0,0
832,832,0.784269255300767,0.8,1.0,1.0,389.0,946.0,0.0,0,1665.0,0
833,833,0.616183569019242,0.6,0.0,0.0,292.0,561.0,0.0,1,2147.0,1
834,834,-0.5867411555974776,-0.6,0.0,1.0,283.0,916.0,0.0,1,1801.0,0
835,835,-0.891561874307141,-0.9,0.0,1.0,314.0,574.0,0.0,1,2112.0,0
836,836,-0.34152292563574604,-0.3,0.0,1.0,336.0,746.0,0.0,1,1918.0,0
837,837,-0.5213961616296022,-0.5,0.0,1.0,313.0,534.0,0.0,1,2153.0,0
838,838,0.456678577082242,0.5,0.0,0.0,269.0,527.0,0.0,1,2204.0,1
839,839,-0.21278929227006171,-0.2,1.0,0.0,383.0,765.0,0.0,0,1852.0,1
840,840,-0.33035787327628163,-0.3,1.0,0.0,343.0,804.0,0.0,0,1853.0,1
841,841,-0.3847998439027822,-0.4,0.0,1.0,354.0,859.0,1.0,0,-1143.0,1
842,842,0.32654249428990967,0.3,0.0,0.0,352.0,780.0,0.0,1,1868.0,1
843,843,-0.33013031846106744,-0.3,0.0,1.0,388.0,736.0,0.0,1,1876.0,0
844,844,-0.42237587549841404,-0.4,1.0,0.0,333.0,949.0,0.0,0,1718.0,1
845,845,-0.358366772326961,-0.4,1.0,0.0,276.0,514.0,0.0,0,2210.0,1
846,846,0.6703590618011989,0.7,1.0,1.0,343.0,958.0,0.0,0,1699.0,0
847,847,-0.4861374218861408,-0.5,0.0,1.0,380.0,526.0,0.0,1,2094.0,0
848,848,-0.8458070373987796,-0.8,0.0,1.0,379.0,993.0,0.0,1,1628.0,0
849,849,0.6327993476639006,0.6,1.0,1.0,454.0,947.0,0.0,0,1599.0,0
850,850,-0.04401478134523451,-0.0,1.0,0.0,442.0,733.0,0.0,0,1825.0,1
851,851,0.21938850637419327,0.2,1.0,1.0,335.0,507.0,0.0,0,2158.0,0
852,852,0.6309787887456618,0.6,0.0,0.0,424.0,939.0,0.0,1,1637.0,1
853,853,0.683528077976859,0.7,1.0,1.0,340.0,826.0,1.0,1,-1156.0,1
854,854,-0.7624022614691793,-0.8,1.0,0.0,476.0,534.0,0.0,0,1990.0,1
855,855,-0.7477963189904872,-0.7,0.0,1.0,387.0,603.0,1.0,0,-890.0,1
856,856,-0.7223026876846765,-0.7,0.0,1.0,336.0,775.0,0.0,1,1889.0,0
857,857,-0.8197641790143992,-0.8,0.0,1.0,438.0,822.0,0.0,1,1740.0,0
858,858,0.36812797262129526,0.4,1.0,1.0,435.0,966.0,0.0,0,1599.0,0
859,859,-0.13630789105884322,-0.1,1.0,0.0,295.0,676.0,0.0,0,2029.0,1
860,860,0.3062951063376623,0.3,1.0,1.0,375.0,602.0,0.0,0,2023.0,0
861,861,-0.8006711488122759,-0.8,0.0,1.0,390.0,813.0,0.0,1,1797.0,0
862,862,-0.14799894351877163,-0.1,0.0,1.0,483.0,684.0,0.0,1,1833.0,0
863,863,-0.8994231321851502,-0.9,1.0,0.0,274.0,951.0,0.0,0,-1195.0,1
864,864,0.859277078511668,0.9,0.0,0.0,499.0,894.0,0.0,1,1607.0,1
865,865,-0.13812343482560152,-0.1,0.0,1.0,397.0,991.0,0.0,1,1612.0,0
866,866,-0.7945469639831315,-0.8,1.0,0.0,359.0,799.0,0.0,0,1842.0,1
867,867,-0.435767383578036,-0.4,1.0,0.0,349.0,975.0,0.0,0,1676.0,1
868,868,-0.18641214864957767,-0.2,1.0,0.0,377.0,528.0,0.0,0,2095.0,1
869,869,0.21487524095194022,0.2,1.0,1.0,489.0,923.0,1.0,1,-1212.0,1
870,870,0.17675349515716643,0.2,0.0,0.0,340.0,803.0,0.0,1,1857.0,1
871,871,-0.39946462202496524,-0.4,0.0,1.0,419.0,899.0,0.0,1,1682.0,0
872,872,0.5328901003537708,0.5,1.0,1.0,312.0,829.0,0.0,0,1859.0,0
873,873,-0.6503808937822122,-0.7,0.0,1.0,438.0,508.0,0.0,1,2054.0,0
874,874,-0.14615375528164387,-0.1,1.0,0.0,457.0,972.0,0.0,0,1571.0,1
875,875,0.32694363710988184,0.3,0.0,0.0,285.0,753.0,0.0,1,1962.0,1
876,876,-0.5715293832412961,-0.6,0.0,1.0,256.0,931.0,0.0,1,1813.0,0
877,877,-0.7323823673217577,-0.7,1.0,0.0,294.0,949.0,0.0,0,1757.0,1
878,878,-0.7674530978031964,-0.8,1.0,0.0,395.0,913.0,0.0,0,1692.0,1
879,879,0.6691128615808534,0.7,0.0,0.0,483.0,946.0,0.0,1,1571.0,1
880,880,0.22472349738445685,0.2,1.0,1.0,479.0,831.0,0.0,0,1690.0,0
881,881,0.8355584757912952,0.8,0.0,0.0,253.0,705.0,0.0,1,2042.0,1
882,882,0.8460646976185545,0.8,1.0,1.0,304.0,989.0,0.0,0,1707.0,0
883,883,-0.7832662944914223,-0.8,0.0,1.0,396.0,982.0,0.0,1,1622.0,0
884,884,-0.31822973817314204,-0.3,1.0,0.0,474.0,745.0,0.0,0,1781.0,1
885,885,0.6941974687210303,0.7,1.0,1.0,389.0,885.0,0.0,0,1726.0,0
886,886,-0.4553043848131907,-0.5,1.0,0.0,386.0,895.0,0.0,0,1719.0,1
887,887,-0.2697542503894922,-0.3,1.0,0.0,415.0,990.0,0.0,0,1595.0,1
888,888,0.6451440210548293,0.6,0.0,0.0,313.0,981.0,0.0,1,1706.0,1
889,889,0.652612321997983,0.7,0.0,0.0,371.0,907.0,0.0,1,1722.0,1
890,890,0.2885370099770751,0.3,1.0,1.0,452.0,766.0,0.0,0,1782.0,0
891,891,0.8930309456543594,0.9,1.0,1.0,275.0,885.0,0.0,0,1840.0,0
892,892,0.6521015862465988,0.7,0.0,0.0,475.0,527.0,0.0,1,1998.0,1
893,893,0.24609324847436465,0.2,1.0,1.0,343.0,671.0,0.0,0,1986.0,0
894,894,0.6953465524855907,0.7,0.0,0.0,452.0,688.0,0.0,1,1860.0,1
895,895,-0.056067632141920454,-0.1,1.0,0.0,296.0,973.0,0.0,0,1731.0,1
896,896,-0.31765095669822274,-0.3,0.0,1.0,399.0,552.0,0.0,1,2049.0,0
897,897,-0.04996029665120094,-0.0,0.0,1.0,320.0,773.0,0.0,1,1907.0,0
898,898,-0.4800837325728193,-0.5,1.0,0.0,339.0,722.0,0.0,0,1939.0,1
899,899,-0.5485622749913834,-0.5,1.0,0.0,467.0,977.0,1.0,1,-1394.0,0
900,900,0.5355558326281659,0.5,1.0,1.0,375.0,528.0,0.0,0,2097.0,0
901,901,-0.497463262759228,-0.5,1.0,0.0,377.0,564.0,0.0,0,2059.0,1
902,902,-0.7855305120336494,-0.8,0.0,1.0,310.0,783.0,0.0,1,1907.0,0
903,903,-0.3032507121994644,-0.3,0.0,1.0,430.0,539.0,0.0,1,2031.0,0
904,904,-0.35285698199515947,-0.4,1.0,0.0,456.0,761.0,0.0,0,1783.0,1
905,905,-0.11693125674473293,-0.1,1.0,0.0,315.0,892.0,0.0,0,1793.0,1
906,906,0.591102732737275,0.6,0.0,0.0,262.0,537.0,0.0,1,2201.0,1
907,907,-0.11934724435332367,-0.1,1.0,0.0,447.0,729.0,0.0,0,1824.0,1
908,908,0.24231748337459946,0.2,0.0,0.0,322.0,632.0,0.0,1,2046.0,1
909,909,0.06472458182407126,0.1,0.0,0.0,281.0,931.0,0.0,1,1788.0,1
910,910,-0.6076544143487139,-0.6,0.0,1.0,494.0,843.0,0.0,1,1663.0,0
911,911,-0.04560044738551705,-0.0,0.0,1.0,407.0,978.0,0.0,1,1615.0,0
912,912,0.16787377760926925,0.2,0.0,0.0,276.0,673.0,0.0,1,2051.0,1
913,913,0.7648031439699708,0.8,0.0,0.0,342.0,500.0,1.0,0,-812.0,0
914,914,-0.8019726250663866,-0.8,1.0,0.0,400.0,800.0,0.0,0,1800.0,1
915,915,-0.786317113595562,-0.8,1.0,0.0,420.0,993.0,0.0,0,1587.0,1
916,916,0.6901830925262505,0.7,1.0,1.0,458.0,977.0,0.0,0,1565.0,0
917,917,0.1300726244403333,0.1,0.0,0.0,264.0,632.0,0.0,1,2104.0,1
918,918,-0.7207113852866739,-0.7,1.0,0.0,376.0,507.0,0.0,0,2117.0,1
919,919,0.772153728819334,0.8,0.0,0.0,256.0,523.0,0.0,1,2221.0,1
920,920,-0.5692222090870686,-0.6,0.0,1.0,365.0,822.0,0.0,1,1813.0,0
921,921,0.17029715768666598,0.2,1.0,1.0,442.0,833.0,0.0,0,1725.0,0
922,922,0.855905974382729,0.9,1.0,1.0,430.0,832.0,0.0,0,1738.0,0
923,923,0.3839015108446956,0.4,1.0,1.0,473.0,837.0,0.0,0,1690.0,0
924,924,0.2875135788572033,0.3,1.0,1.0,263.0,518.0,0.0,0,2219.0,0
925,925,0.6140096209186904,0.6,1.0,1.0,408.0,848.0,0.0,0,1744.0,0
926,926,-0.47695663967798113,-0.5,1.0,0.0,447.0,846.0,0.0,0,1707.0,1
927,927,-0.6754724139422084,-0.7,1.0,0.0,287.0,796.0,1.0,1,-1053.0,0
928,928,0.6860091796891653,0.7,1.0,1.0,467.0,734.0,0.0,0,1799.0,0
929,929,-0.18953349396768937,-0.2,1.0,0.0,358.0,842.0,0.0,0,1800.0,1
930,930,0.01706789713659329,0.0,0.0,0.0,438.0,981.0,0.0,1,1581.0,1
931,931,0.7070050199979395,0.7,1.0,1.0,442.0,563.0,0.0,0,-885.0,0
932,932,0.327142601860947,0.3,1.0,1.0,464.0,508.0,0.0,0,2028.0,0
933,933,-0.004852033091202634,-0.0,0.0,1.0,258.0,797.0,0.0,1,1945.0,0
934,934,0.18794012228563728,0.2,0.0,0.0,277.0,595.0,0.0,1,2128.0,1
935,935,-0.44996030957890826,-0.4,1.0,0.0,306.0,861.0,0.0,0,1833.0,1
936,936,-0.6916032296542275,-0.7,1.0,0.0,480.0,811.0,0.0,0,1709.0,1
937,937,-0.220890869484623,-0.2,0.0,1.0,401.0,527.0,0.0,1,2072.0,0
938,938,0.17958860806448518,0.2,1.0,1.0,366.0,705.0,0.0,0,1929.0,0
939,939,-0.01777394118758524,-0.0,1.0,0.0,362.0,680.0,0.0,0,1958.0,1
940,940,0.3115410089160596,0.3,0.0,0.0,263.0,809.0,0.0,1,1928.0,1
941,941,-0.2437096638778915,-0.2,1.0,0.0,357.0,693.0,0.0,0,1950.0,1
942,942,0.2828485394411201,0.3,1.0,1.0,330.0,615.0,0.0,0,2055.0,0
943,943,-0.8393248246389226,-0.8,0.0,1.0,337.0,841.0,0.0,1,1822.0,0
944,944,-0.16660819603712274,-0.2,0.0,1.0,380.0,921.0,0.0,1,1699.0,0
945,945,0.877458504802357,0.9,1.0,1.0,339.0,822.0,0.0,0,1839.0,0
946,946,-0.6785981430516219,-0.7,0.0,1.0,462.0,842.0,0.0,1,1696.0,0
947,947,-0.5781691990428359,-0.6,1.0,0.0,362.0,776.0,0.0,0,1862.0,1
948,948,0.11996125012929404,0.1,0.0,0.0,455.0,842.0,0.0,1,1703.0,1
949,949,0.35459361556231606,0.4,1.0,1.0,340.0,709.0,0.0,0,1951.0,0
950,950,0.49221959991854936,0.5,1.0,1.0,417.0,704.0,0.0,0,1879.0,0
951,951,-0.5601574375855496,-0.6,0.0,1.0,409.0,717.0,0.0,1,1874.0,0
952,952,-0.5272829688315293,-0.5,0.0,1.0,299.0,640.0,0.0,1,2061.0,0
953,953,-0.6933778869247621,-0.7,0.0,1.0,423.0,773.0,0.0,1,1804.0,0
954,954,0.6850346617722481,0.7,0.0,0.0,348.0,813.0,0.0,1,1839.0,1
955,955,-0.7171588710848571,-0.7,0.0,1.0,357.0,596.0,0.0,1,2047.0,0
956,956,-0.1667084050898603,-0.2,1.0,0.0,329.0,646.0,0.0,0,2025.0,1
957,957,-0.1314823882932954,-0.1,1.0,0.0,385.0,972.0,0.0,0,-1247.0,1
958,958,0.42142820028569605,0.4,0.0,0.0,389.0,925.0,0.0,1,1686.0,1
959,959,0.7785058590093142,0.8,0.0,0.0,308.0,687.0,0.0,1,2005.0,1
960,960,-0.07939933388477483,-0.1,1.0,0.0,398.0,623.0,1.0,1,-981.0,0
961,961,-0.5771921600687732,-0.6,1.0,0.0,305.0,616.0,0.0,0,2079.0,1
962,962,-0.35464973276527045,-0.4,1.0,0.0,316.0,965.0,0.0,0,1719.0,1
963,963,0.18040851010664893,0.2,0.0,0.0,296.0,639.0,0.0,1,2065.0,1
964,964,-0.011827382211548998,-0.0,0.0,1.0,381.0,761.0,0.0,1,1858.0,0
965,965,-0.8526360416992509,-0.9,1.0,0.0,315.0,594.0,0.0,0,2091.0,1
966,966,0.17291541194232518,0.2,0.0,0.0,419.0,513.0,0.0,1,2068.0,1
967,967,0.5567222031047107,0.6,1.0,1.0,275.0,988.0,0.0,0,1737.0,0
968,968,-0.04069338890168428,-0.0,0.0,1.0,261.0,806.0,0.0,1,1933.0,0
969,969,0.6222698012456888,0.6,1.0,1.0,401.0,794.0,0.0,0,1805.0,0
970,970,-0.5048799267938395,-0.5,0.0,1.0,453.0,507.0,0.0,1,2040.0,0
971,971,0.8000821715325502,0.8,1.0,1.0,365.0,972.0,0.0,0,1663.0,0
972,972,0.08723952055375783,0.1,0.0,0.0,375.0,950.0,0.0,1,1675.0,1
973,973,-0.5495870471805027,-0.5,1.0,0.0,399.0,958.0,0.0,0,1643.0,1
974,974,-0.08067792621295011,-0.1,1.0,0.0,460.0,721.0,0.0,0,1819.0,1
975,975,-0.6178110336204379,-0.6,0.0,1.0,337.0,647.0,0.0,1,2016.0,0
976,976,-0.4549942215645071,-0.5,0.0,1.0,286.0,709.0,1.0,0,-705.0,1
977,977,-0.8263422279188579,-0.8,1.0,0.0,386.0,780.0,0.0,0,1834.0,1
978,978,-0.7013020085012751,-0.7,1.0,0.0,350.0,639.0,0.0,0,2011.0,1
979,979,0.43879269479249017,0.4,0.0,0.0,285.0,859.0,0.0,1,1856.0,1
980,980,0.2957095002848339,0.3,0.0,0.0,378.0,603.0,0.0,1,2019.0,1
981,981,0.4217267694410899,0.4,1.0,1.0,492.0,741.0,0.0,0,1767.0,0
982,982,0.848978716443679,0.8,1.0,1.0,346.0,794.0,0.0,0,1860.0,0
983,983,0.2656153173529875,0.3,1.0,1.0,320.0,630.0,0.0,0,2050.0,0
984,984,-0.545056573551396,-0.5,0.0,1.0,344.0,765.0,0.0,1,1891.0,0
985,985,-0.49791410086956467,-0.5,1.0,0.0,403.0,651.0,0.0,0,1946.0,1
986,986,-0.8564881579279151,-0.9,0.0,1.0,337.0,851.0,0.0,1,1812.0,0
987,987,-0.1367911054662868,-0.1,1.0,0.0,430.0,632.0,0.0,0,1938.0,1
988,988,0.6111852613590886,0.6,0.0,0.0,325.0,519.0,0.0,1,2156.0,1
989,989,-0.8715232267298771,-0.9,0.0,1.0,390.0,823.0,0.0,1,1787.0,0
990,990,-0.10266068246750604,-0.1,1.0,0.0,437.0,842.0,0.0,0,1721.0,1
991,991,0.5724963752916225,0.6,0.0,0.0,385.0,862.0,0.0,1,1753.0,1
992,992,0.6953225570866909,0.7,1.0,1.0,370.0,707.0,0.0,0,1923.0,0
993,993,0.8424675042622533,0.8,1.0,1.0,407.0,708.0,0.0,0,1885.0,0
994,994,0.619984503492622,0.6,0.0,0.0,393.0,864.0,0.0,1,1743.0,1
995,995,0.37322454860319654,0.4,1.0,1.0,369.0,517.0,0.0,0,2114.0,0
996,996,-0.4669975486627169,-0.5,1.0,0.0,266.0,790.0,0.0,0,1944.0,1
997,997,-0.7859277781948365,-0.8,1.0,0.0,395.0,975.0,0.0,0,1630.0,1
998,998,0.721068706695433,0.7,1.0,1.0,312.0,993.0,0.0,0,1695.0,0
999,999,0.21661648729605598,0.2,1.0,1.0,341.0,908.0,0.0,0,1751.0,0
1000,1000,0.39383455087410735,0.4,1.0,1.0,256.0,550.0,1.0,1,-646.0,1
1001,1001,0.7029089482942267,0.7,0.0,0.0,430.0,559.0,0.0,1,2011.0,1
1002,1002,0.4297226328750473,0.4,1.0,1.0,403.0,972.0,0.0,0,1625.0,0
1003,1003,0.4368694984614637,0.4,1.0,1.0,295.0,833.0,0.0,0,1872.0,0
1004,1004,0.4162641144026257,0.4,1.0,1.0,457.0,945.0,0.0,0,1598.0,0
1005,1005,-0.8161513265761642,-0.8,1.0,0.0,439.0,874.0,0.0,0,1687.0,1
1006,1006,-0.05752465805541651,-0.1,0.0,1.0,256.0,652.0,0.0,1,2092.0,0
1007,1007,0.8154122014459667,0.8,0.0,0.0,258.0,903.0,0.0,1,1839.0,1
1008,1008,0.66354075046669,0.7,1.0,1.0,356.0,715.0,0.0,0,1929.0,0
1009,1009,0.39130861182509713,0.4,0.0,0.0,273.0,883.0,0.0,1,1844.0,1
1010,1010,0.720962102902707,0.7,1.0,1.0,321.0,849.0,0.0,0,-1110.0,0
1011,1011,0.8694763435378213,0.9,1.0,1.0,432.0,607.0,0.0,0,1961.0,0
1012,1012,-0.6601871773656025,-0.7,1.0,0.0,341.0,636.0,0.0,0,2023.0,1
1013,1013,0.40561650292949325,0.4,1.0,1.0,394.0,715.0,0.0,0,1891.0,0
1014,1014,-0.05359964043471743,-0.1,0.0,1.0,409.0,769.0,0.0,1,1822.0,0
1015,1015,0.14935210488186568,0.1,0.0,0.0,460.0,870.0,0.0,1,1670.0,1
1016,1016,0.2883529718419414,0.3,0.0,0.0,447.0,833.0,0.0,1,1720.0,1
1017,1017,-0.24258976634130958,-0.2,0.0,1.0,255.0,558.0,0.0,1,2187.0,0
1018,1018,-0.01791471777096032,-0.0,1.0,0.0,402.0,504.0,1.0,1,-876.0,0
1019,1019,0.49619294397533487,0.5,0.0,0.0,446.0,600.0,0.0,1,-976.0,1
1020,1020,-0.8218601677331386,-0.8,1.0,0.0,260.0,513.0,0.0,0,2227.0,1
1021,1021,0.8638481603427483,0.9,1.0,1.0,451.0,699.0,0.0,0,1850.0,0
1022,1022,-0.31949354162086474,-0.3,1.0,0.0,446.0,907.0,0.0,0,1647.0,1
1023,1023,-0.1761509949187201,-0.2,1.0,0.0,267.0,703.0,0.0,0,2030.0,1
1024,1024,0.5290015062765862,0.5,0.0,0.0,411.0,834.0,0.0,1,1755.0,1
1025,1025,0.8962812559611663,0.9,0.0,0.0,397.0,967.0,1.0,0,-1334.0,0
1026,1026,0.6063644731757779,0.6,1.0,1.0,459.0,886.0,0.0,0,1655.0,0
1027,1027,0.06669408348406358,0.1,1.0,1.0,407.0,658.0,0.0,0,1935.0,0
1028,1028,-0.534841951895068,-0.5,0.0,1.0,382.0,620.0,0.0,1,1998.0,0
1029,1029,-0.5016942209287738,-0.5,1.0,0.0,299.0,926.0,1.0,1,-1125.0,0
1030,1030,-0.7686679372673693,-0.8,0.0,1.0,439.0,812.0,0.0,1,1749.0,0
1031,1031,-0.3689639741212777,-0.4,1.0,0.0,324.0,751.0,0.0,0,-925.0,1
1032,1032,-0.21274678105295297,-0.2,1.0,0.0,315.0,994.0,0.0,0,1691.0,1
1033,1033,-0.20160705807421886,-0.2,1.0,0.0,367.0,596.0,0.0,0,2037.0,1
1034,1034,0.23567645689293892,0.2,1.0,1.0,325.0,940.0,0.0,0,1735.0,0
1035,1035,-0.8015017327414088,-0.8,1.0,0.0,406.0,715.0,1.0,1,-1091.0,0
1036,1036,-0.176811000860715,-0.2,0.0,1.0,363.0,693.0,0.0,1,1944.0,0
1037,1037,0.27099280293660455,0.3,0.0,0.0,303.0,527.0,0.0,1,2170.0,1
1038,1038,0.2291800955257094,0.2,1.0,1.0,343.0,886.0,0.0,0,1771.0,0
1039,1039,0.751309238740781,0.8,0.0,0.0,482.0,832.0,0.0,1,1686.0,1
1040,1040,0.26698401033075425,0.3,1.0,1.0,328.0,604.0,0.0,0,2068.0,0
1041,1041,-0.19496714395820602,-0.2,0.0,1.0,281.0,884.0,0.0,1,1835.0,0
1042,1042,0.014106690688832413,0.0,1.0,1.0,394.0,533.0,0.0,0,2073.0,0
1043,1043,-0.25050435342020816,-0.3,0.0,1.0,272.0,722.0,0.0,1,2006.0,0
1044,1044,-0.4598225358561019,-0.5,0.0,1.0,374.0,948.0,0.0,1,1678.0,0
1045,1045,-0.7599027091438925,-0.8,1.0,0.0,315.0,841.0,0.0,0,1844.0,1
1046,1046,-0.46721021420980496,-0.5,0.0,1.0,383.0,742.0,0.0,1,1875.0,0
1047,1047,0.2862676222524011,0.3,1.0,1.0,382.0,714.0,0.0,0,1904.0,0
1048,1048,-0.8957950001241771,-0.9,1.0,0.0,347.0,576.0,0.0,0,-863.0,1
1049,1049,-0.8333370491789129,-0.8,1.0,0.0,379.0,683.0,0.0,0,1938.0,1
1050,1050,-0.12809362908693978,-0.1,0.0,1.0,346.0,727.0,0.0,1,1927.0,0
1051,1051,0.24671738445047475,0.2,0.0,0.0,380.0,819.0,0.0,1,1801.0,1
1052,1052,-0.03367990184633607,-0.0,0.0,1.0,358.0,801.0,0.0,1,1841.0,0
1053,1053,-0.5620108880771888,-0.6,0.0,1.0,386.0,815.0,0.0,1,1799.0,0
1054,1054,0.22816191779767092,0.2,1.0,1.0,417.0,850.0,0.0,0,1733.0,0
1055,1055,0.7633674548736687,0.8,0.0,0.0,331.0,683.0,0.0,1,1986.0,1
1056,1056,-0.42629418095567484,-0.4,1.0,0.0,280.0,661.0,0.0,0,2059.0,1
1057,1057,-0.38383970397394274,-0.4,1.0,0.0,430.0,968.0,0.0,0,1602.0,1
1058,1058,-0.16758103482955133,-0.2,0.0,1.0,384.0,920.0,0.0,1,1696.0,0
1059,1059,0.0878591922795533,0.1,0.0,0.0,297.0,546.0,0.0,1,2157.0,1
1060,1060,0.40335010462263143,0.4,1.0,1.0,435.0,800.0,0.0,0,1765.0,0
1061,1061,-0.6570237272301267,-0.7,0.0,1.0,395.0,667.0,0.0,1,1938.0,0
1062,1062,-0.3881577989781577,-0.4,1.0,0.0,373.0,555.0,0.0,0,2072.0,1
1063,1063,0.4787842001764945,0.5,1.0,1.0,371.0,940.0,0.0,0,1689.0,0
1064,1064,0.11172939354879052,0.1,0.0,0.0,498.0,519.0,0.0,1,1983.0,1
1065,1065,0.8774516747398148,0.9,1.0,1.0,498.0,502.0,0.0,0,2000.0,0
1066,1066,0.854251915458771,0.9,1.0,1.0,419.0,820.0,0.0,0,1761.0,0
1067,1067,0.5480399734290499,0.5,1.0,1.0,405.0,927.0,0.0,0,1668.0,0
1068,1068,-0.6511583183999923,-0.7,0.0,1.0,276.0,828.0,0.0,1,1896.0,0
1069,1069,0.5441459851421878,0.5,0.0,0.0,347.0,673.0,0.0,1,1980.0,1
1070,1070,-0.8101407437196877,-0.8,1.0,0.0,381.0,982.0,0.0,0,1637.0,1
1071,1071,-0.5513742223103901,-0.6,1.0,0.0,302.0,672.0,0.0,0,2026.0,1
1072,1072,0.6344377707099965,0.6,0.0,0.0,330.0,799.0,0.0,1,1871.0,1
1073,1073,-0.29980264543999824,-0.3,0.0,1.0,284.0,879.0,0.0,1,1837.0,0
1074,1074,-0.7706583492712099,-0.8,0.0,1.0,456.0,971.0,0.0,1,1573.0,0
1075,1075,-0.2227294252523344,-0.2,1.0,0.0,407.0,918.0,0.0,0,-1225.0,1
1076,1076,-0.1477516124881315,-0.1,1.0,0.0,453.0,816.0,0.0,0,1731.0,1
1077,1077,0.6011796373872104,0.6,0.0,0.0,289.0,715.0,0.0,1,1996.0,1
1078,1078,-0.1957320285131352,-0.2,1.0,0.0,424.0,941.0,0.0,0,1635.0,1
1079,1079,-0.275841683513121,-0.3,1.0,0.0,483.0,877.0,0.0,0,1640.0,1
1080,1080,0.3225160780124169,0.3,0.0,0.0,405.0,919.0,0.0,1,1676.0,1
1081,1081,0.49341037474304683,0.5,0.0,0.0,273.0,601.0,1.0,0,-824.0,0
1082,1082,0.6831559011970939,0.7,0.0,0.0,280.0,687.0,1.0,0,-917.0,0
1083,1083,0.4460107069763254,0.4,0.0,0.0,397.0,595.0,0.0,1,2008.0,1
1084,1084,-0.1363754455008298,-0.1,1.0,0.0,324.0,844.0,0.0,0,1832.0,1
1085,1085,-0.26821747926991046,-0.3,0.0,1.0,499.0,728.0,0.0,1,1773.0,0
1086,1086,0.8172305824804592,0.8,0.0,0.0,465.0,739.0,0.0,1,1796.0,1
1087,1087,0.6719504062665577,0.7,0.0,0.0,282.0,627.0,0.0,1,2091.0,1
1088,1088,-0.1457204594914021,-0.1,1.0,0.0,456.0,985.0,1.0,1,-1411.0,0
1089,1089,0.3440858094965199,0.3,1.0,1.0,304.0,681.0,0.0,0,2015.0,0
1090,1090,0.893961528250585,0.9,0.0,0.0,356.0,779.0,0.0,1,1865.0,1
1091,1091,-0.34416670164586394,-0.3,0.0,1.0,479.0,562.0,0.0,1,1959.0,0
1092,1092,-0.22404151371588377,-0.2,0.0,1.0,455.0,922.0,0.0,1,1623.0,0
1093,1093,0.24737690614211638,0.2,0.0,0.0,427.0,717.0,0.0,1,1856.0,1
1094,1094,-0.2824165636012703,-0.3,1.0,0.0,387.0,594.0,0.0,0,2019.0,1
1095,1095,0.24991987068022115,0.2,0.0,0.0,263.0,933.0,0.0,1,1804.0,1
1096,1096,-0.04910964711357868,-0.0,1.0,0.0,314.0,873.0,0.0,0,1813.0,1
1097,1097,0.8033209715683752,0.8,1.0,1.0,271.0,994.0,0.0,0,1735.0,0
1098,1098,-0.41724681367424926,-0.4,1.0,0.0,482.0,894.0,0.0,0,1624.0,1
1099,1099,-0.07030954019265356,-0.1,1.0,0.0,449.0,633.0,0.0,0,1918.0,1
1100,1100,0.67930597971906,0.7,1.0,1.0,347.0,573.0,0.0,0,2080.0,0
1101,1101,0.7012431158225324,0.7,0.0,0.0,447.0,500.0,0.0,1,2053.0,1
1102,1102,-0.8000655241669804,-0.8,1.0,0.0,274.0,817.0,0.0,0,1909.0,1
1103,1103,-0.5416111045598395,-0.5,0.0,1.0,258.0,975.0,0.0,1,1767.0,0
1104,1104,0.5710304485326115,0.6,0.0,0.0,463.0,748.0,0.0,1,1789.0,1
1105,1105,-0.010659620736894415,-0.0,1.0,0.0,374.0,941.0,0.0,0,1685.0,1
1106,1106,-0.5585458407570534,-0.6,1.0,0.0,438.0,516.0,0.0,0,2046.0,1
1107,1107,-0.6921655608248312,-0.7,1.0,0.0,451.0,931.0,0.0,0,1618.0,1
1108,1108,0.4484880250356461,0.4,0.0,0.0,315.0,667.0,0.0,1,2018.0,1
1109,1109,0.2558454212136151,0.3,1.0,1.0,362.0,932.0,0.0,0,1706.0,0
1110,1110,0.7944491234980017,0.8,0.0,0.0,341.0,831.0,0.0,1,1828.0,1
1111,1111,-0.411832690855717,-0.4,0.0,1.0,399.0,747.0,0.0,1,1854.0,0
1112,1112,-0.8038927999696525,-0.8,1.0,0.0,304.0,641.0,0.0,0,2055.0,1
1113,1113,-0.7298046762494745,-0.7,0.0,1.0,355.0,728.0,0.0,1,1917.0,0
1114,1114,0.09068691446138843,0.1,0.0,0.0,430.0,754.0,0.0,1,1816.0,1
1115,1115,-0.30865911353591013,-0.3,0.0,1.0,414.0,648.0,0.0,1,1938.0,0
1116,1116,0.7867963004196766,0.8,1.0,1.0,320.0,827.0,0.0,0,1853.0,0
1117,1117,0.04036827812778365,0.0,1.0,1.0,460.0,665.0,0.0,0,1875.0,0
1118,1118,-0.04988785275931662,-0.0,0.0,1.0,391.0,658.0,0.0,1,1951.0,0
1119,1119,0.8314293114266361,0.8,1.0,1.0,468.0,761.0,0.0,0,1771.0,0
1120,1120,-0.3351155425503618,-0.3,0.0,1.0,255.0,777.0,0.0,1,1968.0,0
1121,1121,-0.5564485573442413,-0.6,1.0,0.0,498.0,690.0,0.0,0,1812.0,1
1122,1122,0.42883286761687855,0.4,1.0,1.0,286.0,650.0,0.0,0,-796.0,0
1123,1123,0.1329554877986482,0.1,1.0,1.0,427.0,728.0,0.0,0,1845.0,0
1124,1124,0.1540637985956722,0.2,0.0,0.0,369.0,875.0,0.0,1,1756.0,1
1125,1125,-0.8729815477785924,-0.9,0.0,1.0,416.0,888.0,0.0,1,1696.0,0
1126,1126,-0.1778890893954761,-0.2,0.0,1.0,337.0,985.0,0.0,1,1678.0,0
1127,1127,0.4939108864089826,0.5,1.0,1.0,333.0,589.0,0.0,0,2078.0,0
1128,1128,-0.7701937630923918,-0.8,1.0,0.0,423.0,511.0,0.0,0,-864.0,1
1129,1129,-0.21381900345375116,-0.2,0.0,1.0,364.0,719.0,0.0,1,1917.0,0
1130,1130,-0.7387269786947682,-0.7,0.0,1.0,466.0,618.0,0.0,1,1916.0,0
1131,1131,0.5009598959623999,0.5,1.0,1.0,313.0,834.0,0.0,0,1853.0,0
1132,1132,-0.3505795069142561,-0.4,1.0,0.0,446.0,577.0,0.0,0,1977.0,1
1133,1133,0.01880922391692952,0.0,1.0,1.0,313.0,800.0,0.0,0,1887.0,0
1134,1134,-0.8882761976393584,-0.9,1.0,0.0,346.0,841.0,0.0,0,1813.0,1
1135,1135,-0.48319435435502095,-0.5,1.0,0.0,344.0,638.0,0.0,0,2018.0,1
1136,1136,0.1807718377006159,0.2,1.0,1.0,400.0,688.0,0.0,0,1912.0,0
1137,1137,0.5675736762707252,0.6,1.0,1.0,399.0,605.0,0.0,0,1996.0,0
1138,1138,-0.2299426662485493,-0.2,1.0,0.0,446.0,987.0,0.0,0,1567.0,1
1139,1139,-0.2911498619551631,-0.3,0.0,1.0,421.0,955.0,0.0,1,1624.0,0
1140,1140,0.875168354026186,0.9,0.0,0.0,347.0,687.0,1.0,0,-834.0,0
1141,1141,0.3014287673427979,0.3,1.0,1.0,372.0,516.0,1.0,1,-888.0,1
1142,1142,-0.2762862776012045,-0.3,1.0,0.0,343.0,737.0,0.0,0,1920.0,1
1143,1143,0.007968744684097251,0.0,1.0,1.0,372.0,807.0,0.0,0,1821.0,0
1144,1144,-0.17093922131202444,-0.2,0.0,1.0,264.0,577.0,0.0,1,2159.0,0
1145,1145,-0.826614545990302,-0.8,1.0,0.0,265.0,819.0,0.0,0,1916.0,1
1146,1146,0.5321983225939843,0.5,0.0,0.0,264.0,638.0,0.0,1,2098.0,1
1147,1147,0.8409289504528407,0.8,1.0,1.0,495.0,905.0,0.0,0,1600.0,0
1148,1148,-0.8589465370549891,-0.9,0.0,1.0,493.0,530.0,0.0,1,1977.0,0
1149,1149,-0.12407855352744401,-0.1,1.0,0.0,263.0,739.0,0.0,0,1998.0,1
1150,1150,-0.58203001902103,-0.6,0.0,1.0,418.0,664.0,0.0,1,1918.0,0
1151,1151,0.8959489250315379,0.9,1.0,1.0,473.0,943.0,1.0,1,-1366.0,1
1152,1152,0.18914280523243165,0.2,0.0,0.0,336.0,801.0,0.0,1,1863.0,1
1153,1153,-0.7668801584827845,-0.8,0.0,1.0,253.0,771.0,0.0,1,1976.0,0
1154,1154,0.8959610777996859,0.9,0.0,0.0,288.0,907.0,0.0,1,1805.0,1
1155,1155,-0.7744293119055197,-0.8,0.0,1.0,319.0,760.0,0.0,1,1921.0,0
1156,1156,-0.6431235049466845,-0.6,0.0,1.0,473.0,766.0,0.0,1,1761.0,0
1157,1157,-0.11179088744887233,-0.1,1.0,0.0,417.0,626.0,0.0,0,1957.0,1
1158,1158,0.11535138526467448,0.1,0.0,0.0,253.0,654.0,0.0,1,2093.0,1
1159,1159,0.11157716994951306,0.1,0.0,0.0,358.0,640.0,0.0,1,2002.0,1
1160,1160,0.25084154646169254,0.3,1.0,1.0,376.0,745.0,0.0,0,1879.0,0
1161,1161,0.6061632620413134,0.6,1.0,1.0,298.0,752.0,0.0,0,1950.0,0
1162,1162,-0.3308066323683252,-0.3,0.0,1.0,257.0,929.0,0.0,1,1814.0,0
1163,1163,-0.05504877129256358,-0.1,0.0,1.0,273.0,949.0,0.0,1,1778.0,0
1164,1164,-0.806837514308244,-0.8,1.0,0.0,315.0,601.0,0.0,0,2084.0,1
1165,1165,-0.15978836398785734,-0.2,0.0,1.0,260.0,863.0,0.0,1,1877.0,0
1166,1166,0.18849838454330003,0.2,0.0,0.0,401.0,977.0,0.0,1,1622.0,1
1167,1167,0.536866294613514,0.5,0.0,0.0,408.0,694.0,0.0,1,1898.0,1
1168,1168,0.17312209301178838,0.2,1.0,1.0,407.0,974.0,0.0,0,1619.0,0
1169,1169,0.7588794416644337,0.8,1.0,1.0,450.0,683.0,0.0,0,1867.0,0
1170,1170,0.45608567463445715,0.5,1.0,1.0,481.0,503.0,0.0,0,2016.0,0
1171,1171,-0.8883418792531934,-0.9,0.0,1.0,486.0,578.0,0.0,1,1936.0,0
1172,1172,-0.4831432354588751,-0.5,0.0,1.0,439.0,809.0,0.0,1,1752.0,0
1173,1173,-0.6999585091322295,-0.7,1.0,0.0,308.0,654.0,0.0,0,2038.0,1
1174,1174,0.8507539770576477,0.9,1.0,1.0,400.0,858.0,0.0,0,1742.0,0
1175,1175,0.03839070258526467,0.0,0.0,0.0,409.0,852.0,0.0,1,1739.0,1
1176,1176,-0.8804687026621948,-0.9,1.0,0.0,369.0,948.0,0.0,0,1683.0,1
1177,1177,-0.364543959750555,-0.4,0.0,1.0,445.0,693.0,0.0,1,1862.0,0
1178,1178,0.0381115263043218,0.0,0.0,0.0,287.0,614.0,0.0,1,2099.0,1
1179,1179,0.14121003173252855,0.1,0.0,0.0,359.0,546.0,0.0,1,2095.0,1
1180,1180,-0.08923057667220202,-0.1,1.0,0.0,258.0,632.0,0.0,0,2110.0,1
1181,1181,-0.10221152114752163,-0.1,0.0,1.0,345.0,609.0,0.0,1,2046.0,0
1182,1182,0.4094793976463781,0.4,1.0,1.0,298.0,826.0,0.0,0,1876.0,0
1183,1183,-0.37277716253432414,-0.4,0.0,1.0,443.0,619.0,0.0,1,1938.0,0
1184,1184,-0.6570567844860764,-0.7,0.0,1.0,298.0,616.0,0.0,1,2086.0,0
1185,1185,0.8948894094222589,0.9,0.0,0.0,312.0,958.0,0.0,1,1730.0,1
1186,1186,0.1176041117176122,0.1,1.0,1.0,324.0,655.0,0.0,0,2021.0,0
1187,1187,0.6451635054001029,0.6,1.0,1.0,289.0,920.0,0.0,0,1791.0,0
1188,1188,-0.6146395920023954,-0.6,1.0,0.0,408.0,671.0,0.0,0,1921.0,1
1189,1189,-0.13412545053712155,-0.1,0.0,1.0,307.0,754.0,0.0,1,1939.0,0
1190,1190,0.6320323777025428,0.6,1.0,1.0,465.0,734.0,0.0,0,1801.0,0
1191,1191,0.4259805765956871,0.4,0.0,0.0,420.0,690.0,0.0,1,1890.0,1
1192,1192,-0.15025370612294142,-0.2,0.0,1.0,359.0,911.0,0.0,1,1730.0,0
1193,1193,0.7645724002124018,0.8,0.0,0.0,426.0,654.0,0.0,1,1920.0,1
1194,1194,0.08559091784980677,0.1,0.0,0.0,279.0,547.0,0.0,1,2174.0,1
1195,1195,0.573522347073797,0.6,0.0,0.0,334.0,981.0,0.0,1,1685.0,1
1196,1196,-0.7322821214814129,-0.7,0.0,1.0,470.0,777.0,0.0,1,1753.0,0
1197,1197,-0.8688793904202665,-0.9,1.0,0.0,320.0,570.0,0.0,0,2110.0,1
1198,1198,0.1739983608845731,0.2,0.0,0.0,447.0,649.0,0.0,1,1904.0,1
1199,1199,0.18229228427067656,0.2,1.0,1.0,252.0,510.0,0.0,0,2238.0,0
1200,1200,0.3505746034578715,0.4,1.0,1.0,493.0,670.0,0.0,0,-1133.0,0
1201,1201,0.14136466396307446,0.1,0.0,0.0,409.0,817.0,1.0,0,-1206.0,0
1202,1202,0.36513040505180594,0.4,1.0,1.0,372.0,584.0,0.0,0,2044.0,0
1203,1203,0.18521847378795797,0.2,1.0,1.0,267.0,843.0,0.0,0,1890.0,0
1204,1204,0.5649917820659013,0.6,0.0,0.0,261.0,926.0,0.0,1,1813.0,1
1205,1205,-0.7981890039817229,-0.8,1.0,0.0,449.0,645.0,0.0,0,1906.0,1
1206,1206,0.5937872561790504,0.6,0.0,0.0,369.0,609.0,0.0,1,2022.0,1
1207,1207,-0.8389282673317662,-0.8,1.0,0.0,446.0,530.0,0.0,0,2024.0,1
1208,1208,-0.7424552494590013,-0.7,1.0,0.0,467.0,656.0,0.0,0,1877.0,1
1209,1209,0.24330712534837262,0.2,1.0,1.0,323.0,821.0,0.0,0,1856.0,0
1210,1210,0.2639246023793741,0.3,1.0,1.0,409.0,591.0,0.0,0,2000.0,0
1211,1211,-0.33662719424139464,-0.3,0.0,1.0,372.0,804.0,0.0,1,1824.0,0
1212,1212,0.7346409270908077,0.7,1.0,1.0,430.0,889.0,0.0,0,1681.0,0
1213,1213,0.609107736327282,0.6,1.0,1.0,376.0,501.0,0.0,0,2123.0,0
1214,1214,0.27778937489864297,0.3,0.0,0.0,312.0,645.0,0.0,1,2043.0,1
1215,1215,0.5098406239062568,0.5,1.0,1.0,458.0,522.0,0.0,0,2020.0,0
1216,1216,-0.033396970535466974,-0.0,0.0,1.0,342.0,511.0,0.0,1,2147.0,0
1217,1217,0.1254478611350004,0.1,0.0,0.0,460.0,979.0,0.0,1,1561.0,1
1218,1218,-0.0923208740306739,-0.1,0.0,1.0,458.0,929.0,0.0,1,1613.0,0
1219,1219,0.17619596846865415,0.2,1.0,1.0,264.0,542.0,0.0,0,2194.0,0
1220,1220,0.3647116128363056,0.4,0.0,0.0,452.0,816.0,0.0,1,1732.0,1
1221,1221,0.48499203593540907,0.5,1.0,1.0,485.0,516.0,0.0,0,1999.0,0
1222,1222,0.8703929207721471,0.9,0.0,0.0,292.0,925.0,0.0,1,1783.0,1
1223,1223,-0.7328046758549263,-0.7,0.0,1.0,477.0,909.0,0.0,1,1614.0,0
1224,1224,0.49931782938588054,0.5,1.0,1.0,299.0,558.0,0.0,0,2143.0,0
1225,1225,-0.13696663813593046,-0.1,0.0,1.0,416.0,633.0,0.0,1,1951.0,0
1226,1226,-0.845952789001757,-0.8,0.0,1.0,492.0,845.0,0.0,1,1663.0,0
1227,1227,0.03542608214695131,0.0,0.0,0.0,267.0,934.0,0.0,1,1799.0,1
1228,1228,0.1961257405478044,0.2,0.0,0.0,420.0,678.0,0.0,1,1902.0,1
1229,1229,-0.8366481788057417,-0.8,0.0,1.0,262.0,533.0,0.0,1,2205.0,0
1230,1230,0.8747042823095387,0.9,0.0,0.0,383.0,905.0,0.0,1,1712.0,1
1231,1231,-0.7796404018471257,-0.8,0.0,1.0,293.0,692.0,1.0,0,-955.0,1
1232,1232,-0.04157169230527902,-0.0,0.0,1.0,441.0,781.0,0.0,1,1778.0,0
1233,1233,-0.5479585077521646,-0.5,0.0,1.0,368.0,992.0,0.0,1,1640.0,0
1234,1234,0.3952715939237982,0.4,0.0,0.0,386.0,886.0,0.0,1,1728.0,1
1235,1235,-0.3097738682345441,-0.3,1.0,0.0,300.0,727.0,0.0,0,-927.0,1
1236,1236,-0.05050577761337627,-0.1,0.0,1.0,409.0,602.0,0.0,1,1989.0,0
1237,1237,0.5035991075351122,0.5,1.0,1.0,437.0,579.0,0.0,0,1984.0,0
1238,1238,0.0399667450113379,0.0,1.0,1.0,482.0,607.0,0.0,0,1911.0,0
1239,1239,0.7106428169219136,0.7,0.0,0.0,255.0,805.0,0.0,1,1940.0,1
1240,1240,0.24188047017138337,0.2,0.0,0.0,416.0,685.0,0.0,1,1899.0,1
1241,1241,0.02986820505922827,0.0,1.0,1.0,342.0,590.0,0.0,0,2068.0,0
1242,1242,-0.4498322238651713,-0.4,0.0,1.0,370.0,962.0,0.0,1,1668.0,0
1243,1243,-0.2738652918449046,-0.3,0.0,1.0,253.0,646.0,0.0,1,2101.0,0
1244,1244,-0.28264378375505883,-0.3,1.0,0.0,330.0,895.0,0.0,0,1775.0,1
1245,1245,-0.2544506262167665,-0.3,0.0,1.0,492.0,538.0,0.0,1,1970.0,0
1246,1246,0.5294390224690805,0.5,1.0,1.0,386.0,995.0,0.0,0,1619.0,0
1247,1247,-0.13496681667748778,-0.1,0.0,1.0,258.0,657.0,0.0,1,2085.0,0
1248,1248,0.13719735181100245,0.1,1.0,1.0,440.0,637.0,0.0,0,1923.0,0
1249,1249,0.5400257656138229,0.5,1.0,1.0,271.0,936.0,0.0,0,1793.0,0
1250,1250,-0.30796534414533716,-0.3,0.0,1.0,275.0,594.0,0.0,1,2131.0,0
1251,1251,-0.7454817461901057,-0.7,0.0,1.0,264.0,801.0,0.0,1,1935.0,0
1252,1252,0.017764572330183692,0.0,0.0,0.0,275.0,856.0,0.0,1,1869.0,1
1253,1253,-0.490569296801453,-0.5,1.0,0.0,351.0,726.0,0.0,0,-1047.0,1
1254,1254,0.8687722013656144,0.9,1.0,1.0,295.0,927.0,0.0,0,1778.0,0
1255,1255,-0.025088388276025664,-0.0,1.0,0.0,366.0,622.0,1.0,1,-928.0,0
1256,1256,-0.7907463526432211,-0.8,1.0,0.0,386.0,703.0,0.0,0,1911.0,1
1257,1257,0.45273241329518343,0.5,0.0,0.0,378.0,945.0,0.0,1,-1323.0,1
1258,1258,-0.7827707865018193,-0.8,0.0,1.0,372.0,546.0,0.0,1,2082.0,0
1259,1259,-0.03126207336239628,-0.0,0.0,1.0,453.0,513.0,0.0,1,2034.0,0
1260,1260,-0.7901741996787432,-0.8,1.0,0.0,416.0,909.0,0.0,0,1675.0,1
1261,1261,-0.728709037315957,-0.7,0.0,1.0,257.0,931.0,0.0,1,1812.0,0
1262,1262,0.10103840287992638,0.1,1.0,1.0,431.0,751.0,0.0,0,1818.0,0
1263,1263,-0.23592272052746954,-0.2,1.0,0.0,323.0,515.0,0.0,0,2162.0,1
1264,1264,0.6284861071084936,0.6,0.0,0.0,471.0,815.0,0.0,1,1714.0,1
1265,1265,-0.7888606848412208,-0.8,0.0,1.0,422.0,771.0,0.0,1,1807.0,0
1266,1266,0.3734512856039781,0.4,0.0,0.0,250.0,580.0,0.0,1,2170.0,1
1267,1267,-0.8262934593002845,-0.8,1.0,0.0,329.0,553.0,0.0,0,2118.0,1
1268,1268,0.859637228313692,0.9,0.0,0.0,376.0,734.0,0.0,1,1890.0,1
1269,1269,0.7418592103554146,0.7,0.0,0.0,251.0,681.0,0.0,1,2068.0,1
1270,1270,-0.1702921916570509,-0.2,0.0,1.0,347.0,561.0,0.0,1,2092.0,0
1271,1271,0.11014791704597504,0.1,1.0,1.0,486.0,689.0,0.0,0,1825.0,0
1272,1272,0.04266928955687321,0.0,0.0,0.0,396.0,981.0,0.0,1,1623.0,1
1273,1273,-0.2889965731599149,-0.3,1.0,0.0,454.0,841.0,0.0,0,1705.0,1
1274,1274,0.3654166919001166,0.4,0.0,0.0,491.0,542.0,0.0,1,1967.0,1
1275,1275,-0.2343993115497216,-0.2,1.0,0.0,465.0,811.0,0.0,0,1724.0,1
1276,1276,-0.40447675799080046,-0.4,1.0,0.0,299.0,849.0,0.0,0,1852.0,1
1277,1277,0.006428796450175356,0.0,1.0,1.0,325.0,683.0,0.0,0,1992.0,0
1278,1278,0.7789716088428632,0.8,1.0,1.0,395.0,586.0,0.0,0,2019.0,0
1279,1279,0.4409190851382975,0.4,0.0,0.0,460.0,649.0,0.0,1,-1039.0,1
1280,1280,-0.8287550586623259,-0.8,1.0,0.0,487.0,728.0,0.0,0,1785.0,1
1281,1281,-0.6775966984424623,-0.7,0.0,1.0,470.0,977.0,0.0,1,1553.0,0
1282,1282,-0.62586580955332,-0.6,1.0,0.0,456.0,551.0,0.0,0,1993.0,1
1283,1283,0.6584579045416689,0.7,0.0,0.0,256.0,736.0,0.0,1,2008.0,1
1284,1284,0.3377829510157869,0.3,0.0,0.0,424.0,660.0,0.0,1,1916.0,1
1285,1285,-0.6296092952323491,-0.6,1.0,0.0,389.0,882.0,0.0,0,1729.0,1
1286,1286,0.32004119517781937,0.3,1.0,1.0,449.0,929.0,0.0,0,1622.0,0
1287,1287,0.7967353134736913,0.8,0.0,0.0,415.0,776.0,0.0,1,1809.0,1
1288,1288,-0.31807658145062845,-0.3,1.0,0.0,419.0,663.0,0.0,0,1918.0,1
1289,1289,0.037145581343351775,0.0,1.0,1.0,329.0,700.0,0.0,0,1971.0,0
1290,1290,0.3437689347765266,0.3,1.0,1.0,404.0,859.0,0.0,0,1737.0,0
1291,1291,0.21035307823828264,0.2,1.0,1.0,401.0,555.0,0.0,0,2044.0,0
1292,1292,-0.08344174200546794,-0.1,0.0,1.0,477.0,704.0,0.0,1,1819.0,0
1293,1293,-0.8002307786072191,-0.8,0.0,1.0,277.0,502.0,0.0,1,2221.0,0
1294,1294,0.7487824619353883,0.7,1.0,1.0,445.0,790.0,0.0,0,1765.0,0
1295,1295,-0.5305264517970756,-0.5,0.0,1.0,286.0,847.0,0.0,1,1867.0,0
1296,1296,0.34895126840291135,0.3,1.0,1.0,263.0,933.0,0.0,0,1804.0,0
1297,1297,-0.6134784501973063,-0.6,0.0,1.0,376.0,959.0,0.0,1,1665.0,0
1298,1298,0.809293330758451,0.8,0.0,0.0,331.0,594.0,0.0,1,2075.0,1
1299,1299,0.009546422033782087,0.0,1.0,1.0,395.0,839.0,0.0,0,1766.0,0
1300,1300,0.4791945923580402,0.5,1.0,1.0,405.0,669.0,0.0,0,1926.0,0
1301,1301,0.5674173768794158,0.6,1.0,1.0,433.0,940.0,0.0,0,-1353.0,0
1302,1302,-0.4418786814348393,-0.4,0.0,1.0,385.0,847.0,0.0,1,1768.0,0
1303,1303,-0.4937193294203868,-0.5,0.0,1.0,312.0,653.0,0.0,1,2035.0,0
1304,1304,-0.7739592769721875,-0.8,0.0,1.0,274.0,787.0,0.0,1,1939.0,0
1305,1305,0.4946774559134143,0.5,1.0,1.0,385.0,538.0,0.0,0,2077.0,0
1306,1306,0.2586992420918607,0.3,1.0,1.0,380.0,930.0,0.0,0,1690.0,0
1307,1307,-0.5460775345150132,-0.5,1.0,0.0,491.0,952.0,0.0,0,1557.0,1
1308,1308,-0.4957755061102898,-0.5,1.0,0.0,423.0,815.0,0.0,0,1762.0,1
1309,1309,0.0379109471255763,0.0,1.0,1.0,463.0,887.0,0.0,0,1650.0,0
1310,1310,-0.405060259176332,-0.4,1.0,0.0,395.0,861.0,0.0,0,1744.0,1
1311,1311,-0.5169531057576386,-0.5,0.0,1.0,272.0,756.0,0.0,1,1972.0,0
1312,1312,-0.40417614007575275,-0.4,1.0,0.0,308.0,946.0,0.0,0,1746.0,1
1313,1313,0.3803297164351719,0.4,1.0,1.0,421.0,987.0,0.0,0,1592.0,0
1314,1314,0.33487907888344914,0.3,1.0,1.0,387.0,639.0,0.0,0,1974.0,0
1315,1315,-0.17172564385779943,-0.2,0.0,1.0,494.0,646.0,0.0,1,1860.0,0
1316,1316,-0.8354121938670466,-0.8,1.0,0.0,412.0,780.0,0.0,0,1808.0,1
1317,1317,-0.8657404232446435,-0.9,0.0,1.0,319.0,525.0,0.0,1,2156.0,0
1318,1318,0.48378637608932606,0.5,0.0,0.0,284.0,628.0,0.0,1,2088.0,1
1319,1319,0.8187335099450622,0.8,1.0,1.0,387.0,530.0,0.0,0,2083.0,0
1320,1320,0.8531608983863747,0.9,1.0,1.0,364.0,676.0,0.0,0,1960.0,0
1321,1321,0.7370579912607184,0.7,0.0,0.0,365.0,875.0,0.0,1,1760.0,1
1322,1322,-0.5669952430638439,-0.6,1.0,0.0,324.0,609.0,0.0,0,2067.0,1
1323,1323,-0.6343241321696903,-0.6,0.0,1.0,477.0,796.0,0.0,1,1727.0,0
1324,1324,0.41840033072110694,0.4,0.0,0.0,495.0,832.0,0.0,1,1673.0,1
1325,1325,-0.1584258800645375,-0.2,0.0,1.0,260.0,934.0,0.0,1,1806.0,0
1326,1326,0.8752507544286295,0.9,1.0,1.0,421.0,566.0,0.0,0,2013.0,0
1327,1327,0.29728619594456906,0.3,0.0,0.0,417.0,744.0,0.0,1,1839.0,1
1328,1328,-0.5618391392405768,-0.6,1.0,0.0,258.0,758.0,0.0,0,1984.0,1
1329,1329,-0.5127153713473511,-0.5,0.0,1.0,450.0,698.0,0.0,1,1852.0,0
1330,1330,0.1753961000325438,0.2,1.0,1.0,306.0,619.0,1.0,1,-865.0,1
1331,1331,0.35887228578253716,0.4,0.0,0.0,467.0,767.0,1.0,0,-1074.0,0
1332,1332,0.41638199662281894,0.4,1.0,1.0,456.0,758.0,0.0,0,1786.0,0
1333,1333,-0.33169382117391755,-0.3,1.0,0.0,403.0,784.0,0.0,0,1813.0,1
1334,1334,-0.27055465096902875,-0.3,0.0,1.0,399.0,652.0,0.0,1,1949.0,0
1335,1335,0.864464939670751,0.9,1.0,1.0,250.0,956.0,0.0,0,1794.0,0
1336,1336,-0.5666272703063178,-0.6,1.0,0.0,399.0,892.0,0.0,0,-1291.0,1
1337,1337,0.17040164106337385,0.2,1.0,1.0,268.0,527.0,0.0,0,2205.0,0
1338,1338,-0.5599732316696605,-0.6,0.0,1.0,427.0,659.0,0.0,1,1914.0,0
1339,1339,-0.8586550519349065,-0.9,0.0,1.0,317.0,734.0,0.0,1,1949.0,0
1340,1340,0.7015287085177037,0.7,0.0,0.0,376.0,693.0,0.0,1,1931.0,1
1341,1341,0.0828914548812365,0.1,1.0,1.0,313.0,890.0,0.0,0,1797.0,0
1342,1342,-0.8524734292204362,-0.9,0.0,1.0,421.0,930.0,0.0,1,1649.0,0
1343,1343,-0.4648306751775911,-0.5,0.0,1.0,464.0,755.0,0.0,1,1781.0,0
1344,1344,-0.13099902513548156,-0.1,1.0,0.0,346.0,779.0,0.0,0,1875.0,1
1345,1345,0.814337648517608,0.8,1.0,1.0,359.0,680.0,0.0,0,1961.0,0
1346,1346,0.5313179711817132,0.5,0.0,0.0,262.0,574.0,0.0,1,2164.0,1
1347,1347,0.5710768561081893,0.6,1.0,1.0,376.0,818.0,0.0,0,1806.0,0
1348,1348,-0.35733059977416215,-0.4,1.0,0.0,362.0,572.0,0.0,0,2066.0,1
1349,1349,0.7664991928618857,0.8,1.0,1.0,348.0,795.0,0.0,0,1857.0,0
1350,1350,-0.7503930991142739,-0.8,0.0,1.0,258.0,846.0,0.0,1,-1024.0,0
1351,1351,-0.7157258976623838,-0.7,1.0,0.0,252.0,805.0,0.0,0,1943.0,1
1352,1352,0.08353094580145703,0.1,1.0,1.0,344.0,750.0,0.0,0,1906.0,0
1353,1353,-0.819235449266803,-0.8,0.0,1.0,430.0,686.0,0.0,1,1884.0,0
1354,1354,0.682244837394311,0.7,0.0,0.0,480.0,891.0,0.0,1,1629.0,1
1355,1355,0.1472092041965095,0.1,0.0,0.0,446.0,715.0,0.0,1,1839.0,1
1356,1356,-0.4796337638138998,-0.5,0.0,1.0,293.0,948.0,0.0,1,1759.0,0
1357,1357,-0.7112877682696406,-0.7,1.0,0.0,309.0,910.0,0.0,0,1781.0,1
1358,1358,-0.7680095862531444,-0.8,0.0,1.0,349.0,804.0,0.0,1,1847.0,0
1359,1359,-0.15810058886204192,-0.2,1.0,0.0,479.0,700.0,0.0,0,-1109.0,1
1360,1360,-0.47672887235542694,-0.5,0.0,1.0,492.0,543.0,0.0,1,1965.0,0
1361,1361,-0.2188968849316152,-0.2,0.0,1.0,419.0,574.0,0.0,1,2007.0,0
1362,1362,-0.19469960966042166,-0.2,0.0,1.0,474.0,959.0,0.0,1,1567.0,0
1363,1363,-0.8841763040038282,-0.9,1.0,0.0,274.0,515.0,0.0,0,2211.0,1
1364,1364,-0.5374268297046743,-0.5,1.0,0.0,344.0,921.0,0.0,0,1735.0,1
1365,1365,0.39506938174325124,0.4,0.0,0.0,422.0,933.0,0.0,1,-1335.0,1
1366,1366,0.42702380401243467,0.4,0.0,0.0,331.0,574.0,1.0,0,-845.0,0
1367,1367,-0.05363522011258803,-0.1,1.0,0.0,365.0,912.0,0.0,0,1723.0,1
1368,1368,-0.8693121525519183,-0.9,1.0,0.0,300.0,723.0,0.0,0,1977.0,1
1369,1369,-0.041541147109408594,-0.0,1.0,0.0,362.0,745.0,0.0,0,1893.0,1
1370,1370,0.8891111940099884,0.9,1.0,1.0,415.0,989.0,0.0,0,1596.0,0
1371,1371,-0.47783379478571675,-0.5,1.0,0.0,250.0,656.0,0.0,0,2094.0,1
1372,1372,0.7490290441462909,0.7,0.0,0.0,464.0,845.0,0.0,1,1691.0,1
1373,1373,-0.03229704484842577,-0.0,1.0,0.0,287.0,727.0,0.0,0,1986.0,1
1374,1374,0.486977731364291,0.5,1.0,1.0,278.0,616.0,0.0,0,2106.0,0
1375,1375,0.8385020172709193,0.8,1.0,1.0,280.0,798.0,0.0,0,1922.0,0
1376,1376,-0.1283874622616593,-0.1,0.0,1.0,378.0,959.0,0.0,1,1663.0,0
1377,1377,0.6296919726317546,0.6,0.0,0.0,263.0,964.0,0.0,1,1773.0,1
1378,1378,-0.8419805100454907,-0.8,1.0,0.0,439.0,653.0,0.0,0,1908.0,1
1379,1379,-0.2028086888891416,-0.2,1.0,0.0,404.0,814.0,0.0,0,1782.0,1
1380,1380,0.3708304135314028,0.4,0.0,0.0,382.0,539.0,0.0,1,2079.0,1
1381,1381,-0.6402125094453323,-0.6,0.0,1.0,258.0,910.0,0.0,1,1832.0,0
1382,1382,0.7241790757357464,0.7,0.0,0.0,473.0,539.0,0.0,1,1988.0,1
1383,1383,-0.31364117066130204,-0.3,0.0,1.0,366.0,500.0,0.0,1,2134.0,0
1384,1384,-0.22556480151258718,-0.2,0.0,1.0,463.0,518.0,0.0,1,2019.0,0
1385,1385,0.5586740132043083,0.6,0.0,0.0,323.0,983.0,0.0,1,1694.0,1
1386,1386,-0.429281335605957,-0.4,0.0,1.0,252.0,622.0,0.0,1,2126.0,0
1387,1387,-0.3246687531886725,-0.3,0.0,1.0,364.0,724.0,0.0,1,1912.0,0
1388,1388,0.27309078368911155,0.3,1.0,1.0,334.0,768.0,0.0,0,1898.0,0
1389,1389,-0.8582713621192853,-0.9,1.0,0.0,469.0,692.0,0.0,0,1839.0,1
1390,1390,-0.5207555707402833,-0.5,0.0,1.0,316.0,629.0,0.0,1,2055.0,0
1391,1391,0.13325001929865266,0.1,0.0,0.0,407.0,976.0,0.0,1,1617.0,1
1392,1392,-0.6774887462253254,-0.7,1.0,0.0,489.0,700.0,0.0,0,1811.0,1
1393,1393,-0.4837381176743469,-0.5,1.0,0.0,262.0,673.0,0.0,0,2065.0,1
1394,1394,-0.40214060240668836,-0.4,1.0,0.0,357.0,918.0,0.0,0,1725.0,1
1395,1395,0.22085307755470052,0.2,1.0,1.0,277.0,642.0,0.0,0,2081.0,0
1396,1396,-0.7608353186128559,-0.8,1.0,0.0,371.0,869.0,0.0,0,1760.0,1
1397,1397,0.5199732011848367,0.5,1.0,1.0,470.0,928.0,0.0,0,1602.0,0
1398,1398,-0.2323333921922488,-0.2,0.0,1.0,462.0,533.0,0.0,1,2005.0,0
1399,1399,0.11831207888453366,0.1,0.0,0.0,460.0,615.0,0.0,1,1925.0,1
1400,1400,0.4714950010791171,0.5,1.0,1.0,436.0,551.0,0.0,0,2013.0,0
1401,1401,-0.4597390126108838,-0.5,1.0,0.0,271.0,694.0,0.0,0,2035.0,1
1402,1402,-0.04180903684047843,-0.0,0.0,1.0,265.0,559.0,0.0,1,2176.0,0
1403,1403,-0.2918698117993873,-0.3,1.0,0.0,346.0,709.0,0.0,0,1945.0,1
1404,1404,0.5798566948547189,0.6,0.0,0.0,361.0,823.0,0.0,1,1816.0,1
1405,1405,-0.5769980798765191,-0.6,0.0,1.0,354.0,745.0,0.0,1,1901.0,0
1406,1406,0.7759937830485396,0.8,1.0,1.0,414.0,816.0,0.0,0,1770.0,0
1407,1407,-0.2601207732474685,-0.3,1.0,0.0,250.0,971.0,0.0,0,1779.0,1
1408,1408,0.07905948798104767,0.1,0.0,0.0,496.0,545.0,0.0,1,1959.0,1
1409,1409,-0.37459687397921826,-0.4,1.0,0.0,384.0,526.0,0.0,0,2090.0,1
1410,1410,0.23614835229070452,0.2,1.0,1.0,260.0,703.0,0.0,0,2037.0,0
1411,1411,-0.08888309416294637,-0.1,1.0,0.0,423.0,718.0,0.0,0,-1101.0,1
1412,1412,0.32015367174802833,0.3,0.0,0.0,380.0,985.0,0.0,1,1635.0,1
1413,1413,0.1608537084772249,0.2,1.0,1.0,294.0,860.0,0.0,0,1846.0,0
1414,1414,0.7762615124883375,0.8,0.0,0.0,395.0,982.0,0.0,1,1623.0,1
1415,1415,0.5442438643132675,0.5,0.0,0.0,483.0,934.0,0.0,1,1583.0,1
1416,1416,-0.6306892135109956,-0.6,1.0,0.0,292.0,916.0,0.0,0,1792.0,1
1417,1417,0.835227710053379,0.8,0.0,0.0,488.0,775.0,0.0,1,1737.0,1
1418,1418,-0.16580347864741563,-0.2,1.0,0.0,419.0,830.0,0.0,0,1751.0,1
1419,1419,0.3977112104694843,0.4,0.0,0.0,442.0,638.0,0.0,1,1920.0,1
1420,1420,0.41060974606188505,0.4,1.0,1.0,438.0,704.0,1.0,1,-1102.0,1
1421,1421,0.10146014036692341,0.1,0.0,0.0,258.0,693.0,0.0,1,2049.0,1
1422,1422,-0.28059801002525275,-0.3,1.0,0.0,468.0,781.0,0.0,0,1751.0,1
1423,1423,0.1362338559835753,0.1,1.0,1.0,320.0,674.0,0.0,0,2006.0,0
1424,1424,-0.657815108186722,-0.7,0.0,1.0,276.0,734.0,0.0,1,1990.0,0
1425,1425,0.7982162748861773,0.8,0.0,0.0,461.0,556.0,0.0,1,1983.0,1
1426,1426,0.09379159620476551,0.1,1.0,1.0,457.0,875.0,0.0,0,1668.0,0
1427,1427,-0.14623601725228264,-0.1,1.0,0.0,463.0,588.0,0.0,0,1949.0,1
1428,1428,-0.14727580421705255,-0.1,0.0,1.0,284.0,704.0,0.0,1,-988.0,0
1429,1429,-0.5048383251176544,-0.5,1.0,0.0,354.0,834.0,0.0,0,1812.0,1
1430,1430,-0.03685230139163709,-0.0,0.0,1.0,412.0,889.0,0.0,1,1699.0,0
1431,1431,0.6381597562604356,0.6,1.0,1.0,343.0,819.0,0.0,0,1838.0,0
1432,1432,0.7233513103332706,0.7,1.0,1.0,291.0,739.0,0.0,0,1970.0,0
1433,1433,-0.24284617439971112,-0.2,0.0,1.0,260.0,660.0,0.0,1,2080.0,0
1434,1434,0.3306804594799565,0.3,0.0,0.0,485.0,869.0,0.0,1,1646.0,1
1435,1435,-0.7363278123668111,-0.7,1.0,0.0,434.0,673.0,0.0,0,1893.0,1
1436,1436,-0.16913003551388495,-0.2,1.0,0.0,446.0,807.0,0.0,0,1747.0,1
1437,1437,-0.37041966139972404,-0.4,0.0,1.0,286.0,869.0,0.0,1,1845.0,0
1438,1438,-0.5229148610035999,-0.5,0.0,1.0,340.0,934.0,0.0,1,1726.0,0
1439,1439,0.09723925413840451,0.1,1.0,1.0,363.0,981.0,0.0,0,1656.0,0
1440,1440,-0.7951880103400858,-0.8,1.0,0.0,432.0,763.0,0.0,0,1805.0,1
1441,1441,0.5484907370862676,0.5,0.0,0.0,264.0,726.0,0.0,1,2010.0,1
1442,1442,0.755187202383114,0.8,1.0,1.0,329.0,909.0,0.0,0,1762.0,0
1443,1443,-0.43701373266034865,-0.4,1.0,0.0,345.0,862.0,0.0,0,1793.0,1
1444,1444,0.00877613038901448,0.0,0.0,0.0,259.0,523.0,0.0,1,2218.0,1
1445,1445,0.8605774494743129,0.9,0.0,0.0,270.0,849.0,0.0,1,1881.0,1
1446,1446,0.3324432669657059,0.3,1.0,1.0,411.0,929.0,0.0,0,1660.0,0
1447,1447,0.7760453766132692,0.8,1.0,1.0,487.0,969.0,0.0,0,1544.0,0
1448,1448,0.4936973381426867,0.5,1.0,1.0,462.0,621.0,0.0,0,1917.0,0
1449,1449,-0.2373996584846897,-0.2,0.0,1.0,389.0,973.0,0.0,1,1638.0,0
1450,1450,0.2437961068714899,0.2,0.0,0.0,301.0,603.0,0.0,1,2096.0,1
1451,1451,-0.30881818197952304,-0.3,1.0,0.0,384.0,903.0,0.0,0,1713.0,1
1452,1452,0.7436529968548516,0.7,1.0,1.0,440.0,522.0,0.0,0,2038.0,0
1453,1453,0.19979995577772292,0.2,0.0,0.0,341.0,919.0,0.0,1,1740.0,1
1454,1454,-0.7851645374252086,-0.8,0.0,1.0,347.0,795.0,0.0,1,1858.0,0
1455,1455,-0.8564586279144798,-0.9,0.0,1.0,362.0,539.0,0.0,1,2099.0,0
1456,1456,0.11127948830332113,0.1,0.0,0.0,327.0,900.0,0.0,1,1773.0,1
1457,1457,-0.6964659512676704,-0.7,1.0,0.0,282.0,605.0,0.0,0,2113.0,1
1458,1458,-0.10789051780841974,-0.1,1.0,0.0,299.0,865.0,0.0,0,1836.0,1
1459,1459,-0.5037367325752939,-0.5,0.0,1.0,398.0,663.0,0.0,1,1939.0,0
1460,1460,0.6160963056604573,0.6,0.0,0.0,329.0,682.0,0.0,1,1989.0,1
1461,1461,0.8063537088196923,0.8,0.0,0.0,434.0,649.0,0.0,1,1917.0,1
1462,1462,-0.22660083353146954,-0.2,1.0,0.0,291.0,528.0,0.0,0,2181.0,1
1463,1463,-0.8963899918160748,-0.9,0.0,1.0,427.0,954.0,0.0,1,1619.0,0
1464,1464,-0.6516857940835811,-0.7,0.0,1.0,439.0,571.0,0.0,1,1990.0,0
1465,1465,0.6519238536490864,0.7,0.0,0.0,425.0,845.0,0.0,1,1730.0,1
1466,1466,0.0403477731909182,0.0,0.0,0.0,385.0,902.0,0.0,1,1713.0,1
1467,1467,0.26238367632575976,0.3,0.0,0.0,493.0,546.0,0.0,1,1961.0,1
1468,1468,-0.18083642416682832,-0.2,1.0,0.0,380.0,744.0,1.0,1,-1094.0,0
1469,1469,0.3811980800564513,0.4,1.0,1.0,308.0,568.0,0.0,0,2124.0,0
1470,1470,-0.29018534231767334,-0.3,0.0,1.0,447.0,652.0,0.0,1,1901.0,0
