,trial,coherence,coherence_bin,green_side,correct_side,target_onset,checker_onset,decision,green_decision,decision_time,correct_decision
0,0,-0.2773299917746517,-0.3,0.0,1.0,350.0,763.0,0.0,1,-1033.0,0
1,1,-0.023707796442950402,-0.0,0.0,1.0,424.0,715.0,1.0,0,1861.0,1
2,2,0.6362548324839302,0.6,0.0,0.0,383.0,579.0,0.0,1,-442.0,1
3,3,-0.4322205272621058,-0.4,0.0,1.0,327.0,654.0,0.0,1,1479.0,0
4,4,0.751574359778319,0.8,1.0,1.0,307.0,552.0,0.0,0,481.0,0
5,5,-0.0006910134123541134,-0.0,0.0,1.0,459.0,907.0,1.0,0,224.0,1
6,6,0.29053713037243456,0.3,1.0,1.0,253.0,822.0,0.0,0,-595.0,0
7,7,-0.33192195500566235,-0.3,1.0,0.0,275.0,768.0,0.0,0,-983.0,1
8,8,-0.6512337120209851,-0.7,1.0,0.0,379.0,623.0,0.0,0,-632.0,1
9,9,-0.47829122783991646,-0.5,0.0,1.0,484.0,957.0,0.0,1,-1351.0,0
10,10,0.6461121707558118,0.6,0.0,0.0,387.0,541.0,0.0,1,1832.0,1
11,11,-0.7944824600973944,-0.8,0.0,1.0,294.0,645.0,1.0,0,351.0,1
12,12,-0.2561716930234188,-0.3,0.0,1.0,279.0,891.0,0.0,1,-920.0,0
13,13,0.5684835537786262,0.6,0.0,0.0,449.0,802.0,0.0,1,-1251.0,1
14,14,0.8421681874601142,0.8,1.0,1.0,429.0,884.0,0.0,0,-773.0,0
15,15,0.42345176626796743,0.4,0.0,0.0,265.0,619.0,0.0,1,-214.0,1
16,16,0.20416163069063742,0.2,1.0,1.0,396.0,970.0,0.0,0,-906.0,0
17,17,0.5423439067882488,0.5,1.0,1.0,399.0,514.0,0.0,0,-863.0,0
18,18,0.5622279300879528,0.6,0.0,0.0,373.0,565.0,1.0,0,412.0,0
19,19,0.7083214175699261,0.7,1.0,1.0,366.0,741.0,0.0,0,-717.0,0
20,20,0.6861080030730903,0.7,1.0,1.0,306.0,661.0,0.0,0,-237.0,0
21,21,-0.607824250354662,-0.6,0.0,1.0,462.0,641.0,0.0,1,1127.0,0
22,22,0.26375445998306024,0.3,1.0,1.0,303.0,606.0,0.0,0,961.0,0
23,23,-0.25748084035229446,-0.3,0.0,1.0,291.0,755.0,0.0,1,-686.0,0
24,24,0.0007456362837315877,0.0,0.0,0.0,300.0,810.0,0.0,1,-1090.0,1
25,25,0.33756779729378816,0.3,1.0,1.0,447.0,518.0,0.0,0,-855.0,0
26,26,0.48041865529909067,0.5,0.0,0.0,469.0,751.0,0.0,1,-660.0,1
27,27,-0.42611904974852216,-0.4,1.0,0.0,299.0,947.0,0.0,0,1754.0,1
28,28,0.13062654361965287,0.1,0.0,0.0,307.0,716.0,1.0,0,1977.0,0
29,29,0.39254264886965495,0.4,1.0,1.0,487.0,844.0,0.0,0,-1051.0,0
30,30,-0.4519945163757261,-0.5,0.0,1.0,322.0,595.0,1.0,0,-887.0,1
31,31,0.3926858697194958,0.4,0.0,0.0,340.0,518.0,1.0,0,2142.0,0
32,32,-0.2799045678185016,-0.3,0.0,1.0,378.0,688.0,1.0,0,-346.0,1
33,33,-0.5145700432048059,-0.5,1.0,0.0,479.0,727.0,0.0,0,1074.0,1
34,34,0.7390476891596832,0.7,0.0,0.0,331.0,718.0,0.0,1,-769.0,1
35,35,0.01612971714168876,0.0,1.0,1.0,254.0,549.0,0.0,0,2017.0,0
36,36,-0.09116989003642595,-0.1,0.0,1.0,380.0,507.0,0.0,1,2113.0,0
37,37,-0.34611476072609104,-0.3,1.0,0.0,367.0,839.0,1.0,1,-1016.0,0
38,38,-0.899405829449233,-0.9,0.0,1.0,469.0,835.0,1.0,0,-514.0,1
39,39,0.7063561711087302,0.7,0.0,0.0,473.0,642.0,0.0,1,1885.0,1
40,40,0.6969238426634542,0.7,0.0,0.0,341.0,695.0,0.0,1,164.0,1
41,41,0.8741038989983424,0.9,1.0,1.0,371.0,911.0,0.0,0,758.0,0
42,42,-0.7205943408414462,-0.7,1.0,0.0,484.0,710.0,0.0,0,216.0,1
43,43,-0.5394487283182277,-0.5,1.0,0.0,299.0,808.0,0.0,0,373.0,1
44,44,-0.3459304538162594,-0.3,1.0,0.0,366.0,887.0,0.0,0,-323.0,1
45,45,0.12725650146608014,0.1,0.0,0.0,470.0,910.0,0.0,1,350.0,1
46,46,0.7727974352389854,0.8,1.0,1.0,293.0,515.0,0.0,0,-228.0,0
47,47,-0.5267343084144709,-0.5,0.0,1.0,405.0,995.0,0.0,1,-1380.0,0
48,48,-0.6084670449596403,-0.6,0.0,1.0,393.0,938.0,0.0,1,-41.0,0
49,49,-0.47649636778667287,-0.5,0.0,1.0,392.0,683.0,0.0,1,-915.0,0
50,50,-0.8784734001770982,-0.9,1.0,0.0,444.0,501.0,0.0,0,-845.0,1
51,51,-0.4553073568720411,-0.5,0.0,1.0,469.0,806.0,0.0,1,595.0,0
52,52,-0.7715390516964227,-0.8,1.0,0.0,278.0,865.0,1.0,1,-453.0,0
53,53,0.8812890667596686,0.9,0.0,0.0,473.0,721.0,1.0,0,-984.0,0
54,54,0.7405964760839782,0.7,1.0,1.0,413.0,548.0,0.0,0,109.0,0
55,55,0.8048956316546999,0.8,0.0,0.0,389.0,509.0,0.0,1,122.0,1
56,56,-0.7490734942565576,-0.7,0.0,1.0,397.0,760.0,0.0,1,1793.0,0
57,57,-0.8455987986245924,-0.8,0.0,1.0,366.0,811.0,0.0,1,193.0,0
58,58,0.7489730603588011,0.7,1.0,1.0,360.0,935.0,0.0,0,-885.0,0
59,59,0.0699645346245581,0.1,0.0,0.0,389.0,678.0,0.0,1,-157.0,1
60,60,-0.12677697518383269,-0.1,0.0,1.0,487.0,612.0,0.0,1,471.0,0
61,61,-0.048274387855125944,-0.0,0.0,1.0,456.0,754.0,0.0,1,320.0,0
62,62,-0.3601538699615505,-0.4,1.0,0.0,438.0,871.0,0.0,0,141.0,1
63,63,0.1396024594808879,0.1,1.0,1.0,442.0,626.0,0.0,0,-308.0,0
64,64,0.704043067481969,0.7,0.0,0.0,388.0,577.0,0.0,1,385.0,1
65,65,-0.055669836524047445,-0.1,0.0,1.0,419.0,727.0,0.0,1,-736.0,0
66,66,0.0629791828606262,0.1,1.0,1.0,464.0,565.0,0.0,0,-329.0,0
67,67,0.36087692730638776,0.4,1.0,1.0,387.0,508.0,0.0,0,-435.0,0
68,68,0.6441422270339138,0.6,0.0,0.0,420.0,887.0,0.0,1,-587.0,1
69,69,0.27358433644750446,0.3,1.0,1.0,480.0,504.0,0.0,0,-514.0,0
70,70,-0.4983225189067786,-0.5,0.0,1.0,366.0,850.0,1.0,0,184.0,1
71,71,-0.6338130071080166,-0.6,0.0,1.0,482.0,558.0,0.0,1,660.0,0
72,72,-0.29283917166797824,-0.3,0.0,1.0,372.0,974.0,0.0,1,184.0,0
73,73,0.07695439386260505,0.1,1.0,1.0,308.0,652.0,0.0,0,970.0,0
74,74,0.3052386241007644,0.3,0.0,0.0,373.0,849.0,0.0,1,-532.0,1
75,75,-0.2875035171597172,-0.3,0.0,1.0,374.0,868.0,0.0,1,-1202.0,0
76,76,-0.628226223510949,-0.6,1.0,0.0,430.0,511.0,1.0,1,1119.0,0
77,77,-0.1692186467016259,-0.2,1.0,0.0,374.0,826.0,0.0,0,770.0,1
78,78,-0.554664568071418,-0.6,1.0,0.0,491.0,661.0,0.0,0,-262.0,1
79,79,0.17790663098670023,0.2,1.0,1.0,480.0,526.0,0.0,0,-26.0,0
80,80,-0.2602363522413651,-0.3,0.0,1.0,270.0,935.0,1.0,0,1795.0,1
81,81,0.6642892579439131,0.7,0.0,0.0,470.0,551.0,0.0,1,-941.0,1
82,82,0.8268915590834772,0.8,0.0,0.0,477.0,950.0,0.0,1,-747.0,1
83,83,0.5433466399433634,0.5,0.0,0.0,290.0,921.0,0.0,1,-1211.0,1
84,84,-0.2761319864729931,-0.3,0.0,1.0,256.0,673.0,1.0,0,-89.0,1
85,85,0.477697330317039,0.5,1.0,1.0,496.0,866.0,0.0,0,-262.0,0
86,86,-0.21386363384035056,-0.2,0.0,1.0,321.0,535.0,0.0,1,1594.0,0
87,87,0.1231585955585911,0.1,0.0,0.0,298.0,821.0,0.0,1,-569.0,1
88,88,-0.8757056063567608,-0.9,1.0,0.0,475.0,848.0,1.0,1,-503.0,0
89,89,-0.2554423670089424,-0.3,0.0,1.0,260.0,943.0,1.0,0,-43.0,1
90,90,0.16668812689274237,0.2,0.0,0.0,473.0,724.0,0.0,1,1413.0,1
91,91,0.6681848297518195,0.7,1.0,1.0,297.0,747.0,0.0,0,-524.0,0
92,92,-0.556746371112764,-0.6,1.0,0.0,483.0,626.0,1.0,1,1891.0,0
93,93,0.4334216927773996,0.4,0.0,0.0,320.0,922.0,1.0,0,1758.0,0
94,94,0.596762307294543,0.6,0.0,0.0,419.0,878.0,0.0,1,1243.0,1
95,95,-0.05718441935178842,-0.1,0.0,1.0,495.0,578.0,0.0,1,-643.0,0
96,96,-0.6254528430451469,-0.6,1.0,0.0,276.0,798.0,0.0,0,1346.0,1
97,97,-0.009613419130675815,-0.0,0.0,1.0,368.0,699.0,1.0,0,323.0,1
98,98,0.4949476720868987,0.5,0.0,0.0,409.0,604.0,0.0,1,67.0,1
99,99,0.8059550981424063,0.8,0.0,0.0,444.0,699.0,0.0,1,657.0,1
100,100,-0.059996924441085286,-0.1,0.0,1.0,390.0,783.0,1.0,0,1827.0,1
101,101,0.08673843795594283,0.1,0.0,0.0,341.0,828.0,0.0,1,-619.0,1
102,102,0.828452481680488,0.8,0.0,0.0,495.0,781.0,0.0,1,854.0,1
103,103,0.5193948137999364,0.5,1.0,1.0,327.0,858.0,0.0,0,1215.0,0
104,104,0.14404809569923482,0.1,1.0,1.0,475.0,890.0,0.0,0,-795.0,0
105,105,0.5783818494374754,0.6,0.0,0.0,493.0,628.0,1.0,0,1009.0,0
106,106,0.5252902185248226,0.5,0.0,0.0,331.0,896.0,0.0,1,-757.0,1
107,107,0.19289400931795664,0.2,1.0,1.0,325.0,639.0,0.0,0,-234.0,0
108,108,-0.3142232427463292,-0.3,1.0,0.0,432.0,812.0,0.0,0,-654.0,1
109,109,-0.5714076754781776,-0.6,1.0,0.0,374.0,745.0,0.0,0,31.0,1
110,110,-0.7430375510222725,-0.7,0.0,1.0,339.0,747.0,1.0,0,-996.0,1
111,111,-0.8192596666399561,-0.8,0.0,1.0,297.0,662.0,0.0,1,-939.0,0
112,112,0.10809335311115753,0.1,0.0,0.0,434.0,956.0,0.0,1,540.0,1
113,113,-0.7513526519601297,-0.8,1.0,0.0,483.0,523.0,0.0,0,54.0,1
114,114,-0.6874045666752336,-0.7,1.0,0.0,392.0,569.0,1.0,1,-861.0,0
115,115,-0.37581139064425595,-0.4,1.0,0.0,277.0,980.0,1.0,1,1743.0,0
116,116,-0.3751305382141915,-0.4,1.0,0.0,260.0,615.0,0.0,0,-825.0,1
117,117,-0.6316583834883681,-0.6,1.0,0.0,262.0,648.0,0.0,0,2090.0,1
118,118,0.048690309256543385,0.0,1.0,1.0,448.0,993.0,0.0,0,-431.0,0
119,119,0.2777319285650127,0.3,0.0,0.0,363.0,752.0,0.0,1,-675.0,1
120,120,0.4696848651565372,0.5,0.0,0.0,471.0,525.0,0.0,1,1854.0,1
121,121,-0.8619765575944229,-0.9,1.0,0.0,328.0,535.0,0.0,0,-373.0,1
122,122,0.6792305901043437,0.7,0.0,0.0,357.0,760.0,0.0,1,23.0,1
123,123,0.4216816281770136,0.4,1.0,1.0,413.0,589.0,0.0,0,-732.0,0
124,124,0.05155342280590447,0.1,0.0,0.0,447.0,584.0,0.0,1,-501.0,1
125,125,-0.2527311745410844,-0.3,0.0,1.0,455.0,866.0,0.0,1,-1101.0,0
126,126,0.7149989784488949,0.7,0.0,0.0,365.0,794.0,0.0,1,-39.0,1
127,127,0.8865317135281637,0.9,1.0,1.0,432.0,823.0,0.0,0,-275.0,0
128,128,-0.8521674249005899,-0.9,0.0,1.0,311.0,539.0,1.0,0,1540.0,1
129,129,0.3151596822054016,0.3,0.0,0.0,267.0,754.0,0.0,1,-321.0,1
130,130,-0.8576980660708944,-0.9,1.0,0.0,387.0,516.0,0.0,0,307.0,1
131,131,0.7826255517815887,0.8,0.0,0.0,447.0,922.0,0.0,1,-439.0,1
132,132,-0.24495773066441184,-0.2,0.0,1.0,298.0,520.0,0.0,1,22.0,0
133,133,-0.44619293540583344,-0.4,1.0,0.0,499.0,938.0,0.0,0,533.0,1
134,134,0.7760872105957536,0.8,1.0,1.0,347.0,544.0,1.0,1,2019.0,1
135,135,-0.8819603594728964,-0.9,0.0,1.0,473.0,997.0,0.0,1,-490.0,0
136,136,0.1434396652077904,0.1,1.0,1.0,251.0,782.0,0.0,0,487.0,0
137,137,-0.33249474555888703,-0.3,0.0,1.0,264.0,987.0,0.0,1,-1061.0,0
138,138,-0.8427590201853897,-0.8,1.0,0.0,377.0,502.0,0.0,0,171.0,1
139,139,-0.6014859472421336,-0.6,0.0,1.0,360.0,819.0,1.0,0,-679.0,1
140,140,0.024918505083835085,0.0,0.0,0.0,369.0,609.0,0.0,1,152.0,1
141,141,-0.832707028755463,-0.8,0.0,1.0,397.0,851.0,0.0,1,1752.0,0
142,142,-0.22443301448006125,-0.2,0.0,1.0,430.0,845.0,1.0,0,805.0,1
143,143,-0.7460425177343986,-0.7,1.0,0.0,404.0,533.0,1.0,1,583.0,0
144,144,0.16028825522067025,0.2,1.0,1.0,396.0,953.0,0.0,0,-469.0,0
145,145,-0.07635920853688416,-0.1,0.0,1.0,270.0,901.0,0.0,1,1259.0,0
146,146,-0.15037112859616586,-0.2,0.0,1.0,354.0,855.0,0.0,1,-1029.0,0
147,147,0.13883214473704053,0.1,0.0,0.0,460.0,918.0,0.0,1,402.0,1
148,148,0.0989117973561,0.1,1.0,1.0,336.0,902.0,0.0,0,-1158.0,0
149,149,-0.6489890170239103,-0.6,0.0,1.0,386.0,876.0,0.0,1,268.0,0
150,150,0.5449011728702916,0.5,0.0,0.0,357.0,775.0,0.0,1,-572.0,1
151,151,-0.5892757137452727,-0.6,1.0,0.0,458.0,763.0,0.0,0,-541.0,1
152,152,-0.2537852720776269,-0.3,0.0,1.0,457.0,661.0,0.0,1,822.0,0
153,153,0.7361480110481035,0.7,1.0,1.0,308.0,724.0,1.0,1,-452.0,1
154,154,-0.8795990657919404,-0.9,0.0,1.0,375.0,513.0,0.0,1,582.0,0
155,155,0.4677586426028332,0.5,1.0,1.0,361.0,834.0,0.0,0,-805.0,0
156,156,-0.6347364212650921,-0.6,0.0,1.0,295.0,790.0,0.0,1,615.0,0
157,157,-0.7347116238396059,-0.7,0.0,1.0,475.0,772.0,0.0,1,653.0,0
158,158,0.025286749636229122,0.0,1.0,1.0,449.0,607.0,0.0,0,1334.0,0
159,159,-0.7323339013146255,-0.7,1.0,0.0,452.0,722.0,1.0,1,1826.0,0
160,160,0.6938572834833273,0.7,1.0,1.0,252.0,684.0,0.0,0,604.0,0
161,161,0.602385110228501,0.6,0.0,0.0,379.0,845.0,0.0,1,-664.0,1
162,162,0.729683670256125,0.7,1.0,1.0,371.0,810.0,0.0,0,-1141.0,0
163,163,-0.010208210531641004,-0.0,0.0,1.0,444.0,911.0,1.0,0,1645.0,1
164,164,0.7774015512938136,0.8,0.0,0.0,382.0,588.0,0.0,1,-930.0,1
165,165,-0.6207663519720173,-0.6,0.0,1.0,292.0,915.0,1.0,0,313.0,1
166,166,-0.5780744774538553,-0.6,0.0,1.0,442.0,758.0,1.0,0,120.0,1
167,167,-0.6887205295942183,-0.7,0.0,1.0,313.0,652.0,0.0,1,-125.0,0
168,168,0.003601161627153626,0.0,1.0,1.0,342.0,870.0,0.0,0,-1162.0,0
169,169,0.19486758164287366,0.2,1.0,1.0,281.0,762.0,0.0,0,587.0,0
170,170,-0.6812509520881607,-0.7,1.0,0.0,327.0,869.0,0.0,0,-556.0,1
171,171,-0.48238519496116194,-0.5,1.0,0.0,379.0,855.0,0.0,0,-1204.0,1
172,172,0.6136544854617024,0.6,0.0,0.0,326.0,598.0,0.0,1,-624.0,1
173,173,-0.35943807490594226,-0.4,1.0,0.0,487.0,800.0,0.0,0,-477.0,1
174,174,0.2700317836138887,0.3,0.0,0.0,312.0,944.0,0.0,1,1254.0,1
175,175,-0.47061946463312215,-0.5,0.0,1.0,489.0,777.0,1.0,0,-996.0,1
176,176,-0.014194920071317174,-0.0,0.0,1.0,460.0,987.0,0.0,1,-347.0,0
177,177,-0.6907583710668928,-0.7,0.0,1.0,460.0,709.0,0.0,1,1831.0,0
178,178,0.171747254795649,0.2,1.0,1.0,278.0,502.0,0.0,0,-220.0,0
179,179,0.6143122938353519,0.6,1.0,1.0,314.0,505.0,0.0,0,-109.0,0
180,180,0.7340421781655909,0.7,1.0,1.0,286.0,745.0,0.0,0,-941.0,0
181,181,-0.6583927860644037,-0.7,1.0,0.0,432.0,752.0,0.0,0,-884.0,1
182,182,-0.5497129139883501,-0.5,1.0,0.0,359.0,926.0,0.0,0,-615.0,1
183,183,0.8511455709209838,0.9,0.0,0.0,253.0,641.0,0.0,1,1596.0,1
184,184,0.4570553283654376,0.5,1.0,1.0,333.0,559.0,0.0,0,2108.0,0
185,185,0.4511509309470215,0.5,1.0,1.0,428.0,854.0,0.0,0,-1052.0,0
186,186,0.6699060959895403,0.7,1.0,1.0,478.0,808.0,0.0,0,-1006.0,0
187,187,-0.0494538995941608,-0.0,1.0,0.0,491.0,968.0,0.0,0,-1439.0,1
188,188,0.2038647574938376,0.2,1.0,1.0,270.0,510.0,1.0,1,1230.0,1
189,189,0.40724950934439186,0.4,0.0,0.0,313.0,617.0,0.0,1,230.0,1
190,190,-0.1046853307301524,-0.1,0.0,1.0,268.0,756.0,0.0,1,-674.0,0
191,191,0.7628952268505492,0.8,0.0,0.0,454.0,758.0,0.0,1,-162.0,1
192,192,0.8795852681991981,0.9,1.0,1.0,332.0,896.0,0.0,0,-498.0,0
193,193,-0.16738227039253495,-0.2,0.0,1.0,417.0,557.0,0.0,1,256.0,0
194,194,0.8805201399318304,0.9,1.0,1.0,329.0,715.0,0.0,0,26.0,0
195,195,-0.39297016496664705,-0.4,1.0,0.0,335.0,988.0,0.0,0,1677.0,1
196,196,-0.7233242381720745,-0.7,1.0,0.0,396.0,958.0,0.0,0,-594.0,1
197,197,-0.49821504174917186,-0.5,0.0,1.0,289.0,573.0,0.0,1,-462.0,0
198,198,-0.8887270556309885,-0.9,1.0,0.0,357.0,885.0,1.0,1,-852.0,0
199,199,-0.869328096554811,-0.9,0.0,1.0,439.0,842.0,0.0,1,-781.0,0
200,200,-0.6414068224818708,-0.6,1.0,0.0,352.0,832.0,0.0,0,-534.0,1
201,201,-0.29606871160312176,-0.3,1.0,0.0,423.0,823.0,0.0,0,-1146.0,1
202,202,0.5062832343720215,0.5,0.0,0.0,253.0,944.0,0.0,1,-787.0,1
203,203,0.8199455444057328,0.8,1.0,1.0,314.0,826.0,1.0,1,80.0,1
204,204,-0.7587462163103988,-0.8,0.0,1.0,324.0,748.0,0.0,1,1268.0,0
205,205,0.0789534849065785,0.1,0.0,0.0,460.0,870.0,0.0,1,-1060.0,1
206,206,0.3115889105912385,0.3,0.0,0.0,432.0,517.0,0.0,1,-309.0,1
207,207,-0.15116092708670947,-0.2,0.0,1.0,462.0,620.0,0.0,1,748.0,0
208,208,0.42822292171059806,0.4,0.0,0.0,321.0,840.0,0.0,1,-1101.0,1
209,209,-0.5645247465819936,-0.6,0.0,1.0,276.0,934.0,0.0,1,-1000.0,0
210,210,0.43196853643745425,0.4,0.0,0.0,416.0,582.0,0.0,1,922.0,1
211,211,0.6994873564156051,0.7,1.0,1.0,293.0,885.0,1.0,1,1822.0,1
212,212,-0.571715478542836,-0.6,0.0,1.0,343.0,661.0,0.0,1,-484.0,0
213,213,-0.29479788900529835,-0.3,0.0,1.0,373.0,539.0,1.0,0,-692.0,1
214,214,-0.6040771090648998,-0.6,1.0,0.0,252.0,755.0,0.0,0,-627.0,1
215,215,-0.59558708764003,-0.6,0.0,1.0,450.0,621.0,0.0,1,-731.0,0
216,216,-0.824710647815057,-0.8,1.0,0.0,490.0,634.0,0.0,0,166.0,1
217,217,0.11285953196059462,0.1,0.0,0.0,461.0,808.0,0.0,1,-729.0,1
218,218,0.5892261316639703,0.6,1.0,1.0,446.0,612.0,0.0,0,812.0,0
219,219,0.45826646401467463,0.5,1.0,1.0,370.0,634.0,1.0,1,1996.0,1
220,220,0.6272361954330333,0.6,0.0,0.0,331.0,554.0,1.0,0,1965.0,0
221,221,-0.8629436062556436,-0.9,0.0,1.0,451.0,525.0,0.0,1,-706.0,0
222,222,0.8800324524889388,0.9,1.0,1.0,449.0,835.0,0.0,0,-274.0,0
223,223,0.3202254653191269,0.3,0.0,0.0,421.0,897.0,0.0,1,-328.0,1
224,224,0.7515958116428757,0.8,0.0,0.0,341.0,912.0,1.0,0,-1193.0,0
225,225,0.31202110079492196,0.3,0.0,0.0,378.0,762.0,0.0,1,-610.0,1
226,226,0.7379223846443407,0.7,1.0,1.0,259.0,515.0,0.0,0,2226.0,0
227,227,0.6654466115274754,0.7,0.0,0.0,290.0,978.0,1.0,0,-1208.0,0
228,228,0.6338398322102535,0.6,1.0,1.0,263.0,808.0,0.0,0,-211.0,0
229,229,-0.6537582716723506,-0.7,0.0,1.0,281.0,529.0,1.0,0,-590.0,1
230,230,-0.37138402537459814,-0.4,0.0,1.0,277.0,822.0,0.0,1,-819.0,0
231,231,0.3553233495747036,0.4,1.0,1.0,384.0,553.0,0.0,0,1303.0,0
232,232,0.30782006215099533,0.3,1.0,1.0,306.0,864.0,0.0,0,-550.0,0
233,233,-0.44389213980870956,-0.4,1.0,0.0,464.0,853.0,0.0,0,-1137.0,1
234,234,0.12299849394661988,0.1,1.0,1.0,345.0,673.0,0.0,0,62.0,0
235,235,0.07448191886491573,0.1,0.0,0.0,319.0,756.0,0.0,1,-525.0,1
236,236,0.716982055565187,0.7,0.0,0.0,305.0,889.0,0.0,1,566.0,1
237,237,0.8939188358174409,0.9,0.0,0.0,457.0,718.0,0.0,1,1065.0,1
238,238,-0.12849235321127905,-0.1,0.0,1.0,341.0,726.0,0.0,1,-757.0,0
239,239,0.023372738809257165,0.0,0.0,0.0,288.0,766.0,0.0,1,36.0,1
240,240,0.008079317829092214,0.0,0.0,0.0,396.0,915.0,0.0,1,-981.0,1
241,241,-0.4666308510342349,-0.5,0.0,1.0,292.0,552.0,0.0,1,-444.0,0
242,242,0.7821322123746669,0.8,0.0,0.0,360.0,670.0,0.0,1,-830.0,1
243,243,0.7184352063689398,0.7,1.0,1.0,269.0,641.0,1.0,1,1220.0,1
244,244,-0.07107687632613024,-0.1,1.0,0.0,394.0,684.0,1.0,1,-118.0,0
245,245,0.058405298421628116,0.1,1.0,1.0,406.0,521.0,1.0,1,393.0,1
246,246,-0.5521906508268737,-0.6,1.0,0.0,449.0,917.0,0.0,0,-706.0,1
247,247,0.614209441930124,0.6,0.0,0.0,472.0,873.0,0.0,1,-1345.0,1
248,248,0.07303433028402795,0.1,0.0,0.0,290.0,652.0,0.0,1,-902.0,1
249,249,0.10244321333061157,0.1,1.0,1.0,277.0,708.0,0.0,0,-285.0,0
250,250,0.18109672268856813,0.2,0.0,0.0,377.0,701.0,0.0,1,-348.0,1
251,251,-0.8424434982427979,-0.8,1.0,0.0,359.0,811.0,0.0,0,-640.0,1
252,252,0.30888214713475703,0.3,1.0,1.0,371.0,948.0,0.0,0,1231.0,0
253,253,-0.8951639762787188,-0.9,0.0,1.0,355.0,678.0,0.0,1,-533.0,0
254,254,0.7649765212672958,0.8,0.0,0.0,463.0,845.0,0.0,1,-1298.0,1
255,255,0.006375883619784917,0.0,1.0,1.0,389.0,559.0,0.0,0,1432.0,0
256,256,0.21415018194315316,0.2,1.0,1.0,281.0,631.0,0.0,0,1168.0,0
257,257,0.23721617448091592,0.2,0.0,0.0,436.0,864.0,0.0,1,760.0,1
258,258,-0.6073355850670937,-0.6,1.0,0.0,278.0,604.0,0.0,0,848.0,1
259,259,0.054523963094710415,0.1,0.0,0.0,345.0,541.0,0.0,1,2114.0,1
260,260,-0.4998953504859746,-0.5,0.0,1.0,320.0,895.0,0.0,1,-495.0,0
261,261,-0.7243508717481942,-0.7,1.0,0.0,457.0,887.0,0.0,0,-954.0,1
262,262,-0.41060946125152714,-0.4,0.0,1.0,473.0,660.0,0.0,1,-973.0,0
263,263,0.40105048077643846,0.4,0.0,0.0,459.0,733.0,0.0,1,-182.0,1
264,264,-0.3699870092671189,-0.4,1.0,0.0,484.0,958.0,1.0,1,-412.0,0
265,265,0.3282171996056359,0.3,1.0,1.0,326.0,758.0,0.0,0,-804.0,0
266,266,-0.46606792884566095,-0.5,0.0,1.0,452.0,798.0,0.0,1,-1250.0,0
267,267,-0.8034103280696134,-0.8,0.0,1.0,310.0,985.0,0.0,1,185.0,0
268,268,0.1984745259883257,0.2,0.0,0.0,423.0,918.0,0.0,1,349.0,1
269,269,-0.7103881491488038,-0.7,0.0,1.0,288.0,940.0,1.0,0,-338.0,1
270,270,0.310362660303099,0.3,0.0,0.0,476.0,655.0,0.0,1,339.0,1
271,271,0.8346922409855956,0.8,0.0,0.0,397.0,532.0,0.0,1,-309.0,1
272,272,-0.009134081030334529,-0.0,0.0,1.0,445.0,706.0,0.0,1,1129.0,0
273,273,0.10595753568035604,0.1,0.0,0.0,304.0,732.0,1.0,0,1964.0,0
274,274,-0.46532408624921484,-0.5,0.0,1.0,459.0,617.0,0.0,1,654.0,0
275,275,-0.7975491300830966,-0.8,1.0,0.0,464.0,852.0,1.0,1,1684.0,0
276,276,-0.725018734450328,-0.7,1.0,0.0,486.0,645.0,1.0,1,519.0,0
277,277,-0.8016902000278847,-0.8,0.0,1.0,369.0,579.0,0.0,1,172.0,0
278,278,-0.7775328546161455,-0.8,0.0,1.0,415.0,551.0,0.0,1,-516.0,0
279,279,-0.5731530716053657,-0.6,1.0,0.0,263.0,775.0,0.0,0,-488.0,1
280,280,-0.623197620131926,-0.6,1.0,0.0,451.0,558.0,0.0,0,981.0,1
281,281,0.8800816290945473,0.9,1.0,1.0,364.0,550.0,0.0,0,2086.0,0
282,282,-0.34521533159102025,-0.3,0.0,1.0,317.0,976.0,0.0,1,-1043.0,0
283,283,-0.8850924684776605,-0.9,0.0,1.0,324.0,626.0,0.0,1,50.0,0
284,284,0.7314559370289125,0.7,1.0,1.0,341.0,649.0,0.0,0,-800.0,0
285,285,-0.19136381678641756,-0.2,0.0,1.0,368.0,615.0,0.0,1,2017.0,0
286,286,-0.4097229534789757,-0.4,1.0,0.0,380.0,991.0,1.0,1,1239.0,0
287,287,-0.652958688307146,-0.7,1.0,0.0,277.0,684.0,0.0,0,1059.0,1
288,288,-0.647889907120631,-0.6,0.0,1.0,459.0,891.0,1.0,0,-570.0,1
289,289,0.4636145580712082,0.5,1.0,1.0,482.0,709.0,1.0,1,-631.0,1
290,290,-0.6923791136859662,-0.7,0.0,1.0,363.0,831.0,1.0,0,286.0,1
291,291,0.6863198895076711,0.7,0.0,0.0,335.0,523.0,0.0,1,-818.0,1
292,292,-0.675672168187196,-0.7,0.0,1.0,365.0,679.0,0.0,1,-394.0,0
293,293,0.09091957199310063,0.1,1.0,1.0,361.0,733.0,0.0,0,136.0,0
294,294,0.27667442149263455,0.3,1.0,1.0,478.0,882.0,0.0,0,-1200.0,0
295,295,-0.006322684911730936,-0.0,0.0,1.0,363.0,630.0,0.0,1,1427.0,0
296,296,0.00342626170839877,0.0,0.0,0.0,348.0,760.0,1.0,0,1892.0,0
297,297,-0.21290469341544038,-0.2,0.0,1.0,350.0,855.0,0.0,1,1195.0,0
298,298,0.27032795367973816,0.3,0.0,0.0,420.0,901.0,0.0,1,-1301.0,1
299,299,-0.22471250678626586,-0.2,0.0,1.0,356.0,942.0,0.0,1,-638.0,0
300,300,0.7586316251479192,0.8,0.0,0.0,269.0,874.0,1.0,0,1857.0,0
301,301,0.8987439741315447,0.9,0.0,0.0,343.0,956.0,0.0,1,-539.0,1
302,302,0.8207316104627366,0.8,1.0,1.0,433.0,613.0,0.0,0,-846.0,0
303,303,-0.3797888446876897,-0.4,1.0,0.0,295.0,620.0,0.0,0,-805.0,1
304,304,0.5287259180636475,0.5,1.0,1.0,294.0,762.0,0.0,0,764.0,0
305,305,0.420774473904152,0.4,0.0,0.0,263.0,501.0,0.0,1,2236.0,1
306,306,-0.2613648169738174,-0.3,1.0,0.0,338.0,578.0,0.0,0,24.0,1
307,307,-0.3427181506777601,-0.3,0.0,1.0,470.0,948.0,1.0,0,612.0,1
308,308,0.10064066337696775,0.1,1.0,1.0,326.0,879.0,0.0,0,315.0,0
309,309,-0.46322056997790917,-0.5,0.0,1.0,299.0,955.0,0.0,1,1586.0,0
310,310,0.5558682258439075,0.6,1.0,1.0,348.0,798.0,0.0,0,754.0,0
311,311,0.8098008894108969,0.8,1.0,1.0,306.0,850.0,0.0,0,984.0,0
312,312,0.5541179964469868,0.6,0.0,0.0,287.0,845.0,0.0,1,-1082.0,1
313,313,-0.5237934783106393,-0.5,0.0,1.0,478.0,633.0,0.0,1,99.0,0
314,314,-0.27626405132764087,-0.3,0.0,1.0,385.0,834.0,0.0,1,251.0,0
315,315,0.8058421567262316,0.8,0.0,0.0,335.0,676.0,0.0,1,379.0,1
316,316,-0.09089711276744894,-0.1,0.0,1.0,458.0,818.0,0.0,1,-116.0,0
317,317,-0.7977815783008626,-0.8,1.0,0.0,282.0,691.0,0.0,0,-33.0,1
318,318,0.20169225973284088,0.2,0.0,0.0,392.0,728.0,0.0,1,-670.0,1
319,319,0.4113398890145349,0.4,1.0,1.0,468.0,715.0,1.0,1,1817.0,1
320,320,0.24735739695377912,0.2,0.0,0.0,326.0,975.0,0.0,1,819.0,1
321,321,0.40933061719936015,0.4,0.0,0.0,366.0,559.0,0.0,1,-895.0,1
322,322,-0.43490949016647745,-0.4,0.0,1.0,324.0,586.0,0.0,1,-730.0,0
323,323,-0.07660009961127401,-0.1,0.0,1.0,367.0,588.0,0.0,1,1165.0,0
324,324,-0.6205303553442797,-0.6,0.0,1.0,428.0,709.0,0.0,1,-1077.0,0
325,325,0.1179338305190093,0.1,0.0,0.0,494.0,733.0,0.0,1,-87.0,1
326,326,0.7985192818012014,0.8,1.0,1.0,379.0,561.0,1.0,1,2060.0,1
327,327,-0.5548095263884814,-0.6,1.0,0.0,311.0,782.0,1.0,1,1217.0,0
328,328,-0.40124754606103313,-0.4,0.0,1.0,423.0,986.0,0.0,1,-1339.0,0
329,329,-0.21359424312063846,-0.2,0.0,1.0,474.0,869.0,0.0,1,417.0,0
330,330,-0.46690321998301026,-0.5,0.0,1.0,323.0,612.0,0.0,1,1025.0,0
331,331,0.6026124188313496,0.6,1.0,1.0,354.0,589.0,1.0,1,-713.0,1
332,332,-0.12091925741773968,-0.1,0.0,1.0,303.0,985.0,0.0,1,-1278.0,0
333,333,0.8059808347912366,0.8,0.0,0.0,333.0,950.0,0.0,1,637.0,1
334,334,0.3120535099067664,0.3,1.0,1.0,297.0,687.0,0.0,0,-474.0,0
335,335,-0.88192466556049,-0.9,0.0,1.0,369.0,909.0,0.0,1,432.0,0
336,336,-0.7737839746716146,-0.8,0.0,1.0,359.0,672.0,0.0,1,-1031.0,0
337,337,0.678064979047779,0.7,0.0,0.0,371.0,505.0,0.0,1,404.0,1
338,338,-0.34022767583989777,-0.3,1.0,0.0,433.0,823.0,0.0,0,614.0,1
339,339,0.8166404624172686,0.8,0.0,0.0,431.0,816.0,1.0,0,-47.0,0
340,340,-0.244364634113856,-0.2,1.0,0.0,406.0,777.0,0.0,0,957.0,1
341,341,-0.7242914955346513,-0.7,0.0,1.0,355.0,996.0,0.0,1,-251.0,0
342,342,-0.6867140966810538,-0.7,0.0,1.0,409.0,830.0,0.0,1,461.0,0
343,343,0.12567088825769035,0.1,0.0,0.0,482.0,563.0,0.0,1,-115.0,1
344,344,0.7572928405916971,0.8,1.0,1.0,444.0,633.0,0.0,0,43.0,0
345,345,-0.468420461129664,-0.5,0.0,1.0,492.0,630.0,0.0,1,1698.0,0
346,346,0.7559552804825661,0.8,0.0,0.0,483.0,761.0,0.0,1,-1214.0,1
347,347,-0.3993908508124846,-0.4,1.0,0.0,366.0,958.0,1.0,1,-1194.0,0
348,348,0.4092648877775028,0.4,1.0,1.0,320.0,986.0,1.0,1,1694.0,1
349,349,-0.521192408692268,-0.5,1.0,0.0,479.0,629.0,0.0,0,-948.0,1
350,350,0.5231653766576506,0.5,0.0,0.0,271.0,916.0,0.0,1,853.0,1
351,351,0.3400677032651843,0.3,0.0,0.0,448.0,515.0,1.0,0,-173.0,0
352,352,-0.6163589024409182,-0.6,1.0,0.0,267.0,612.0,0.0,0,-639.0,1
353,353,-0.36142447266097677,-0.4,0.0,1.0,394.0,794.0,1.0,0,-1048.0,1
354,354,0.6945430238595759,0.7,1.0,1.0,491.0,678.0,1.0,1,-1059.0,1
355,355,-0.2694038380600753,-0.3,1.0,0.0,264.0,791.0,1.0,1,1945.0,0
356,356,0.6655261384919006,0.7,0.0,0.0,415.0,710.0,1.0,0,-215.0,0
357,357,-0.7072617873653835,-0.7,0.0,1.0,497.0,900.0,0.0,1,-257.0,0
358,358,-0.569009522273114,-0.6,0.0,1.0,337.0,965.0,0.0,1,-1262.0,0
359,359,-0.5323897356277163,-0.5,0.0,1.0,283.0,986.0,0.0,1,611.0,0
360,360,-0.8734533954933489,-0.9,0.0,1.0,418.0,690.0,0.0,1,682.0,0
361,361,0.6575128149611348,0.7,1.0,1.0,294.0,989.0,1.0,1,-883.0,1
362,362,-0.8130605912485841,-0.8,1.0,0.0,419.0,880.0,0.0,0,-319.0,1
363,363,0.2117373742754879,0.2,1.0,1.0,424.0,695.0,0.0,0,-909.0,0
364,364,0.4422921212913856,0.4,1.0,1.0,266.0,727.0,0.0,0,1777.0,0
365,365,0.20922880104179098,0.2,1.0,1.0,478.0,858.0,0.0,0,-1056.0,0
366,366,-0.20396222681072906,-0.2,0.0,1.0,408.0,830.0,0.0,1,-308.0,0
367,367,-0.8639381170869471,-0.9,1.0,0.0,342.0,810.0,0.0,0,-782.0,1
368,368,0.784148569883863,0.8,1.0,1.0,260.0,963.0,0.0,0,327.0,0
369,369,0.5561510059689546,0.6,0.0,0.0,397.0,844.0,0.0,1,-181.0,1
370,370,0.33348709481595795,0.3,1.0,1.0,319.0,680.0,0.0,0,2001.0,0
371,371,-0.20574428272554857,-0.2,0.0,1.0,491.0,522.0,0.0,1,-523.0,0
372,372,-0.6952812679554624,-0.7,0.0,1.0,320.0,965.0,0.0,1,-1225.0,0
373,373,0.5208758186125108,0.5,1.0,1.0,355.0,784.0,1.0,1,1861.0,1
374,374,0.2862934324460663,0.3,1.0,1.0,253.0,941.0,0.0,0,-224.0,0
375,375,0.7405622769127255,0.7,0.0,0.0,349.0,645.0,0.0,1,686.0,1
376,376,-0.26955365379292695,-0.3,0.0,1.0,389.0,609.0,1.0,0,2002.0,1
377,377,-0.5823252046182479,-0.6,0.0,1.0,381.0,622.0,0.0,1,-93.0,0
378,378,-0.7556204348514952,-0.8,1.0,0.0,444.0,532.0,0.0,0,-66.0,1
379,379,-0.014383624339672219,-0.0,0.0,1.0,398.0,989.0,0.0,1,-847.0,0
380,380,0.09467859348515573,0.1,0.0,0.0,275.0,903.0,0.0,1,1292.0,1
381,381,0.40712398731299315,0.4,0.0,0.0,478.0,703.0,0.0,1,-831.0,1
382,382,-0.4481125814822518,-0.4,0.0,1.0,450.0,828.0,0.0,1,-588.0,0
383,383,0.6885051559346359,0.7,0.0,0.0,289.0,902.0,0.0,1,-501.0,1
384,384,-0.6918045100274482,-0.7,1.0,0.0,459.0,839.0,0.0,0,-308.0,1
385,385,-0.6355918120365986,-0.6,0.0,1.0,367.0,767.0,0.0,1,-164.0,0
386,386,0.4734408529291495,0.5,0.0,0.0,385.0,783.0,0.0,1,-398.0,1
387,387,-0.5509382283885329,-0.6,1.0,0.0,305.0,621.0,1.0,1,2074.0,0
388,388,0.26104116729588045,0.3,1.0,1.0,445.0,882.0,0.0,0,1423.0,0
389,389,0.47038309509659226,0.5,0.0,0.0,390.0,585.0,0.0,1,2025.0,1
390,390,-0.5495057469365627,-0.5,1.0,0.0,421.0,715.0,0.0,0,-996.0,1
391,391,0.6977046484929806,0.7,0.0,0.0,467.0,807.0,0.0,1,-274.0,1
392,392,0.6761292277124799,0.7,1.0,1.0,344.0,605.0,0.0,0,351.0,0
393,393,-0.3499844118943347,-0.3,0.0,1.0,255.0,875.0,0.0,1,-500.0,0
394,394,-0.7850136794446285,-0.8,1.0,0.0,263.0,790.0,1.0,1,1947.0,0
395,395,-0.374204614820944,-0.4,1.0,0.0,463.0,665.0,0.0,0,-948.0,1
396,396,0.5544897539736134,0.6,0.0,0.0,422.0,854.0,1.0,0,-486.0,0
397,397,0.34939231045697305,0.3,0.0,0.0,325.0,618.0,0.0,1,977.0,1
398,398,0.6333978097767071,0.6,0.0,0.0,362.0,892.0,1.0,0,1746.0,0
399,399,-0.056900377726131435,-0.1,0.0,1.0,262.0,754.0,0.0,1,-636.0,0
400,400,-0.4135378271935868,-0.4,0.0,1.0,426.0,501.0,1.0,0,-647.0,1
401,401,0.4347633281767732,0.4,1.0,1.0,277.0,797.0,1.0,1,-784.0,1
402,402,-0.7749432534577381,-0.8,1.0,0.0,445.0,553.0,1.0,1,2002.0,0
403,403,0.47112108008826803,0.5,1.0,1.0,382.0,705.0,0.0,0,-397.0,0
404,404,0.7516067015663263,0.8,0.0,0.0,298.0,752.0,0.0,1,-710.0,1
405,405,-0.7339877002057403,-0.7,1.0,0.0,399.0,987.0,0.0,0,-636.0,1
406,406,-0.6095058804102091,-0.6,1.0,0.0,484.0,888.0,0.0,0,1278.0,1
407,407,0.6855404219872824,0.7,0.0,0.0,269.0,667.0,0.0,1,1144.0,1
408,408,0.09024963715046952,0.1,0.0,0.0,431.0,830.0,0.0,1,-221.0,1
409,409,0.8147353062125632,0.8,1.0,1.0,279.0,972.0,0.0,0,-1241.0,0
410,410,-0.301697300918772,-0.3,0.0,1.0,362.0,556.0,0.0,1,-198.0,0
411,411,-0.09281941615240374,-0.1,0.0,1.0,426.0,791.0,0.0,1,-777.0,0
412,412,0.4387017239109444,0.4,0.0,0.0,372.0,620.0,0.0,1,-862.0,1
413,413,0.15436447731613756,0.2,0.0,0.0,386.0,616.0,0.0,1,-612.0,1
414,414,0.883811877277079,0.9,0.0,0.0,427.0,647.0,0.0,1,-254.0,1
415,415,0.22792836376933112,0.2,1.0,1.0,426.0,576.0,0.0,0,-222.0,0
416,416,-0.5446146103092215,-0.5,1.0,0.0,335.0,559.0,0.0,0,676.0,1
417,417,0.8434810186266964,0.8,1.0,1.0,448.0,723.0,0.0,0,-861.0,0
418,418,0.3419272385245792,0.3,1.0,1.0,331.0,763.0,0.0,0,16.0,0
419,419,-0.7385841840157054,-0.7,1.0,0.0,301.0,684.0,1.0,1,785.0,0
420,420,-0.6287417632023218,-0.6,1.0,0.0,304.0,508.0,1.0,1,-82.0,0
421,421,0.7615799675555842,0.8,1.0,1.0,254.0,943.0,0.0,0,233.0,0
422,422,0.14048174322696239,0.1,0.0,0.0,349.0,775.0,0.0,1,1486.0,1
423,423,0.33844842644690887,0.3,0.0,0.0,312.0,868.0,0.0,1,570.0,1
424,424,-0.855649653351684,-0.9,1.0,0.0,337.0,810.0,0.0,0,163.0,1
425,425,0.5420208017211022,0.5,1.0,1.0,277.0,798.0,0.0,0,345.0,0
426,426,-0.6583338258767677,-0.7,0.0,1.0,427.0,899.0,1.0,0,1674.0,1
427,427,-0.4029939940254008,-0.4,1.0,0.0,462.0,852.0,0.0,0,-1194.0,1
428,428,0.006086010878895265,0.0,0.0,0.0,472.0,797.0,0.0,1,1721.0,1
429,429,0.39764835683083766,0.4,1.0,1.0,365.0,980.0,0.0,0,-425.0,0
430,430,-0.22852275853055448,-0.2,1.0,0.0,315.0,785.0,0.0,0,-700.0,1
431,431,0.48683424048574386,0.5,0.0,0.0,498.0,691.0,0.0,1,-239.0,1
432,432,-0.8945371399580619,-0.9,1.0,0.0,327.0,989.0,0.0,0,-316.0,1
433,433,0.6241874396284609,0.6,1.0,1.0,274.0,564.0,0.0,0,-748.0,0
434,434,0.13347591372598522,0.1,1.0,1.0,454.0,624.0,0.0,0,-28.0,0
435,435,0.11676819560972962,0.1,1.0,1.0,316.0,963.0,0.0,0,71.0,0
436,436,0.3376141597474761,0.3,1.0,1.0,417.0,988.0,0.0,0,-445.0,0
437,437,0.8658286808233141,0.9,0.0,0.0,439.0,966.0,0.0,1,-1385.0,1
438,438,0.8449746801023014,0.8,1.0,1.0,305.0,769.0,1.0,1,1926.0,1
439,439,-0.5019273896481234,-0.5,1.0,0.0,320.0,698.0,0.0,0,322.0,1
440,440,-0.14944443673821706,-0.1,1.0,0.0,336.0,576.0,0.0,0,-552.0,1
441,441,0.7192110653765368,0.7,1.0,1.0,498.0,904.0,0.0,0,-302.0,0
442,442,0.6185124803139658,0.6,0.0,0.0,457.0,983.0,0.0,1,-1120.0,1
443,443,-0.8263944432199823,-0.8,1.0,0.0,385.0,739.0,0.0,0,686.0,1
444,444,0.7654366112637273,0.8,0.0,0.0,269.0,987.0,0.0,1,1114.0,1
445,445,0.8934691263904441,0.9,1.0,1.0,460.0,910.0,0.0,0,-140.0,0
446,446,0.09270337606301249,0.1,1.0,1.0,301.0,916.0,0.0,0,-327.0,0
447,447,-0.751160343611475,-0.8,0.0,1.0,454.0,760.0,0.0,1,-884.0,0
448,448,0.28899237802508215,0.3,1.0,1.0,345.0,884.0,0.0,0,-529.0,0
449,449,-0.46855832239631595,-0.5,0.0,1.0,280.0,669.0,0.0,1,561.0,0
450,450,0.023441458901259926,0.0,0.0,0.0,340.0,811.0,0.0,1,-1111.0,1
451,451,-0.5811478449323817,-0.6,0.0,1.0,394.0,508.0,0.0,1,1528.0,0
452,452,-0.559130076983183,-0.6,1.0,0.0,431.0,862.0,0.0,0,-1093.0,1
453,453,0.4746951941363543,0.5,0.0,0.0,471.0,813.0,0.0,1,-1284.0,1
454,454,0.6438017130122687,0.6,1.0,1.0,302.0,550.0,1.0,1,2148.0,1
455,455,-0.2617863156530841,-0.3,1.0,0.0,255.0,614.0,0.0,0,331.0,1
456,456,-0.5294124179282875,-0.5,1.0,0.0,320.0,975.0,0.0,0,-1115.0,1
457,457,-0.6665211999766425,-0.7,0.0,1.0,314.0,512.0,0.0,1,1314.0,0
458,458,0.8230972439324226,0.8,1.0,1.0,258.0,924.0,1.0,1,1818.0,1
459,459,-0.6383808916381821,-0.6,0.0,1.0,341.0,524.0,0.0,1,-525.0,0
460,460,0.3370786877645905,0.3,0.0,0.0,324.0,682.0,0.0,1,1834.0,1
461,461,-0.2160261423799288,-0.2,1.0,0.0,385.0,949.0,0.0,0,-1014.0,1
462,462,0.10075778592017925,0.1,1.0,1.0,399.0,903.0,0.0,0,-432.0,0
463,463,-0.6114229461038005,-0.6,0.0,1.0,473.0,964.0,0.0,1,223.0,0
464,464,-0.567441163517111,-0.6,0.0,1.0,285.0,937.0,0.0,1,-1212.0,0
465,465,0.4313727777632578,0.4,1.0,1.0,411.0,823.0,0.0,0,-1014.0,0
466,466,-0.8536449326323334,-0.9,1.0,0.0,314.0,915.0,0.0,0,-499.0,1
467,467,-0.4168114885959405,-0.4,0.0,1.0,463.0,938.0,0.0,1,-421.0,0
468,468,-0.5712769616654226,-0.6,1.0,0.0,403.0,973.0,1.0,1,1624.0,0
469,469,0.8138362965709948,0.8,1.0,1.0,386.0,652.0,0.0,0,-978.0,0
470,470,0.47377038009259087,0.5,1.0,1.0,319.0,549.0,1.0,1,132.0,1
471,471,0.6531533180238357,0.7,0.0,0.0,485.0,696.0,1.0,0,-851.0,0
472,472,0.2787427723613344,0.3,1.0,1.0,350.0,826.0,1.0,1,-386.0,1
473,473,-0.8782659348969754,-0.9,0.0,1.0,278.0,547.0,1.0,0,1095.0,1
474,474,-0.6423243433748855,-0.6,0.0,1.0,438.0,715.0,0.0,1,-283.0,0
475,475,0.4451092929594137,0.4,1.0,1.0,329.0,887.0,0.0,0,134.0,0
476,476,0.3713297872782456,0.4,0.0,0.0,431.0,634.0,0.0,1,1075.0,1
477,477,0.4808678218054382,0.5,1.0,1.0,417.0,957.0,0.0,0,-634.0,0
478,478,-0.5682058166648329,-0.6,0.0,1.0,319.0,702.0,1.0,0,1979.0,1
479,479,0.8436192354941113,0.8,1.0,1.0,344.0,909.0,0.0,0,-393.0,0
480,480,-0.6950476014814447,-0.7,1.0,0.0,328.0,965.0,0.0,0,467.0,1
481,481,0.06980654782979456,0.1,1.0,1.0,459.0,871.0,1.0,1,-1330.0,1
482,482,0.7121910675503108,0.7,0.0,0.0,369.0,738.0,1.0,0,1893.0,0
483,483,0.39455862588647717,0.4,1.0,1.0,404.0,735.0,0.0,0,-799.0,0
484,484,-0.8030489553453406,-0.8,0.0,1.0,416.0,500.0,0.0,1,2014.0,0
485,485,-0.6149213973684555,-0.6,0.0,1.0,443.0,526.0,1.0,0,2031.0,1
486,486,-0.08555552977857217,-0.1,0.0,1.0,375.0,841.0,0.0,1,-176.0,0
487,487,0.16444722953445023,0.2,1.0,1.0,384.0,916.0,0.0,0,-680.0,0
488,488,0.5875094716113692,0.6,0.0,0.0,273.0,945.0,0.0,1,522.0,1
489,489,-0.09472234621693976,-0.1,1.0,0.0,422.0,918.0,0.0,0,-20.0,1
490,490,-0.783159234196328,-0.8,0.0,1.0,357.0,933.0,0.0,1,-1210.0,0
491,491,0.49364102728306214,0.5,1.0,1.0,454.0,783.0,0.0,0,223.0,0
492,492,0.20917853735558534,0.2,1.0,1.0,303.0,951.0,0.0,0,476.0,0
493,493,0.24012873796113132,0.2,0.0,0.0,290.0,877.0,1.0,0,483.0,0
494,494,-0.16314164069105141,-0.2,1.0,0.0,265.0,940.0,0.0,0,405.0,1
495,495,-0.20617571935749512,-0.2,0.0,1.0,415.0,998.0,0.0,1,-1253.0,0
496,496,0.19013294620295207,0.2,1.0,1.0,366.0,995.0,0.0,0,-641.0,0
497,497,0.8215896937438744,0.8,0.0,0.0,377.0,867.0,0.0,1,486.0,1
498,498,-0.5909400391650135,-0.6,1.0,0.0,491.0,709.0,0.0,0,-340.0,1
499,499,-0.4989424154398198,-0.5,0.0,1.0,278.0,624.0,0.0,1,-402.0,0
500,500,0.09498101379092194,0.1,0.0,0.0,376.0,789.0,0.0,1,-965.0,1
501,501,-0.2002176697641589,-0.2,0.0,1.0,336.0,935.0,0.0,1,-481.0,0
502,502,-0.6266533903724381,-0.6,0.0,1.0,321.0,601.0,0.0,1,-112.0,0
503,503,-0.1051889330703436,-0.1,0.0,1.0,333.0,780.0,0.0,1,67.0,0
504,504,0.7499891252510998,0.7,0.0,0.0,470.0,692.0,0.0,1,-502.0,1
505,505,0.1768527294276031,0.2,1.0,1.0,288.0,764.0,0.0,0,-372.0,0
506,506,-0.38833103427346094,-0.4,1.0,0.0,483.0,622.0,1.0,1,-605.0,0
507,507,0.3262745378605082,0.3,0.0,0.0,473.0,928.0,0.0,1,-651.0,1
508,508,0.6534495403959365,0.7,1.0,1.0,412.0,846.0,0.0,0,312.0,0
509,509,0.5422403223181639,0.5,1.0,1.0,265.0,536.0,0.0,0,489.0,0
510,510,0.6779820290692936,0.7,0.0,0.0,342.0,636.0,0.0,1,782.0,1
511,511,0.13165969580129178,0.1,0.0,0.0,359.0,717.0,1.0,0,-996.0,0
512,512,-0.45622639632025425,-0.5,1.0,0.0,347.0,731.0,0.0,0,-538.0,1
513,513,-0.4458382286335746,-0.4,0.0,1.0,304.0,709.0,1.0,0,1987.0,1
514,514,0.17848480537634004,0.2,0.0,0.0,332.0,856.0,0.0,1,-1158.0,1
515,515,0.6641486126658708,0.7,0.0,0.0,494.0,742.0,0.0,1,-246.0,1
516,516,0.7582722348921654,0.8,1.0,1.0,345.0,587.0,1.0,1,1738.0,1
517,517,0.3838871470735131,0.4,0.0,0.0,347.0,815.0,0.0,1,-702.0,1
518,518,-0.37320477277486164,-0.4,1.0,0.0,443.0,715.0,0.0,0,462.0,1
519,519,0.3151165357149518,0.3,1.0,1.0,389.0,868.0,0.0,0,73.0,0
520,520,-0.2629254684106923,-0.3,1.0,0.0,287.0,904.0,0.0,0,-121.0,1
521,521,-0.7297624620546774,-0.7,1.0,0.0,433.0,861.0,0.0,0,556.0,1
522,522,-0.8627561120097127,-0.9,0.0,1.0,441.0,731.0,0.0,1,-752.0,0
523,523,-0.13284832764664423,-0.1,0.0,1.0,489.0,631.0,0.0,1,690.0,0
524,524,0.09352233339669425,0.1,0.0,0.0,302.0,538.0,0.0,1,1690.0,1
525,525,-0.2742629328754087,-0.3,1.0,0.0,436.0,762.0,0.0,0,-58.0,1
526,526,0.3658527369766694,0.4,0.0,0.0,312.0,927.0,0.0,1,-159.0,1
527,527,0.6681506721953162,0.7,1.0,1.0,326.0,636.0,0.0,0,-352.0,0
528,528,-0.5292367851506028,-0.5,1.0,0.0,327.0,832.0,1.0,1,741.0,0
529,529,-0.8481308147922608,-0.8,0.0,1.0,332.0,694.0,0.0,1,-716.0,0
530,530,0.6851938672292256,0.7,0.0,0.0,256.0,821.0,0.0,1,-127.0,1
531,531,0.7150048607498153,0.7,0.0,0.0,250.0,662.0,0.0,1,1348.0,1
532,532,0.5902242610513223,0.6,1.0,1.0,293.0,667.0,0.0,0,-920.0,0
533,533,0.6517750145783193,0.7,1.0,1.0,393.0,559.0,0.0,0,-942.0,0
534,534,0.6696919692367059,0.7,0.0,0.0,388.0,570.0,0.0,1,-198.0,1
535,535,-0.2664852401311534,-0.3,1.0,0.0,282.0,879.0,0.0,0,619.0,1
536,536,0.8356421478779638,0.8,1.0,1.0,406.0,913.0,0.0,0,-649.0,0
537,537,-0.7612702714760566,-0.8,1.0,0.0,363.0,688.0,0.0,0,-971.0,1
538,538,-0.8183822669395594,-0.8,0.0,1.0,315.0,549.0,0.0,1,196.0,0
539,539,0.09905400743855686,0.1,1.0,1.0,297.0,807.0,0.0,0,-164.0,0
540,540,0.45553510019171817,0.5,1.0,1.0,264.0,720.0,0.0,0,-204.0,0
541,541,0.5192053891320828,0.5,0.0,0.0,313.0,780.0,0.0,1,-1023.0,1
542,542,-0.3060800547143714,-0.3,0.0,1.0,362.0,726.0,0.0,1,-678.0,0
543,543,-0.015441546590802657,-0.0,0.0,1.0,284.0,732.0,0.0,1,-36.0,0
544,544,0.6939064871741237,0.7,0.0,0.0,436.0,564.0,0.0,1,-340.0,1
545,545,0.3122403586077279,0.3,1.0,1.0,315.0,500.0,0.0,0,-485.0,0
546,546,-0.6194482267170374,-0.6,0.0,1.0,280.0,758.0,0.0,1,622.0,0
547,547,-0.6379217866613496,-0.6,0.0,1.0,388.0,818.0,1.0,0,1794.0,1
548,548,0.48504371700713855,0.5,0.0,0.0,426.0,725.0,1.0,0,-31.0,0
549,549,-0.6822930405018045,-0.7,0.0,1.0,335.0,547.0,1.0,0,-822.0,1
550,550,0.0507339057467554,0.1,1.0,1.0,480.0,663.0,0.0,0,567.0,0
551,551,-0.5553109880382351,-0.6,0.0,1.0,304.0,955.0,0.0,1,-339.0,0
552,552,-0.3906060392652414,-0.4,1.0,0.0,461.0,865.0,0.0,0,184.0,1
553,553,-0.0880598007112996,-0.1,0.0,1.0,394.0,773.0,0.0,1,-1067.0,0
554,554,0.39362461842965357,0.4,1.0,1.0,493.0,850.0,0.0,0,-1093.0,0
555,555,0.024046324478060654,0.0,0.0,0.0,326.0,847.0,1.0,0,1827.0,0
556,556,-0.3254694720243462,-0.3,1.0,0.0,490.0,921.0,0.0,0,929.0,1
557,557,-0.3432893599937822,-0.3,1.0,0.0,400.0,616.0,0.0,0,624.0,1
558,558,-0.15833518258415447,-0.2,0.0,1.0,384.0,612.0,1.0,0,2004.0,1
559,559,0.5838452046549131,0.6,0.0,0.0,264.0,808.0,0.0,1,-562.0,1
560,560,-0.47780296475505135,-0.5,1.0,0.0,377.0,884.0,1.0,1,-1121.0,0
561,561,0.5102622631044375,0.5,1.0,1.0,350.0,961.0,1.0,1,-1.0,1
562,562,0.8524900215590306,0.9,0.0,0.0,472.0,956.0,0.0,1,-1108.0,1
563,563,-0.042478850602006735,-0.0,1.0,0.0,466.0,624.0,0.0,0,310.0,1
564,564,0.19502695367018952,0.2,1.0,1.0,331.0,849.0,0.0,0,-1050.0,0
565,565,0.6013740045415924,0.6,0.0,0.0,466.0,750.0,0.0,1,-596.0,1
566,566,0.6217889061464202,0.6,0.0,0.0,336.0,691.0,0.0,1,-327.0,1
567,567,-0.041359231728992585,-0.0,0.0,1.0,453.0,682.0,0.0,1,-1085.0,0
568,568,-0.5613664292000222,-0.6,0.0,1.0,251.0,697.0,0.0,1,582.0,0
569,569,0.5906313998456795,0.6,1.0,1.0,347.0,616.0,0.0,0,277.0,0
570,570,0.7167433114084399,0.7,1.0,1.0,339.0,836.0,0.0,0,-1005.0,0
571,571,-0.01850886667996332,-0.0,1.0,0.0,438.0,583.0,0.0,0,-681.0,1
572,572,-0.05397931819604618,-0.1,0.0,1.0,269.0,906.0,0.0,1,425.0,0
573,573,-0.860349500581447,-0.9,1.0,0.0,294.0,695.0,0.0,0,1881.0,1
574,574,-0.2538517705218033,-0.3,0.0,1.0,335.0,891.0,0.0,1,-36.0,0
575,575,0.7027782401713548,0.7,1.0,1.0,464.0,981.0,0.0,0,-515.0,0
576,576,0.014051622348688286,0.0,1.0,1.0,359.0,706.0,0.0,0,365.0,0
577,577,0.21880143608908986,0.2,1.0,1.0,362.0,838.0,0.0,0,640.0,0
578,578,0.49152451575376077,0.5,0.0,0.0,403.0,596.0,0.0,1,911.0,1
579,579,-0.10725010158587367,-0.1,1.0,0.0,281.0,562.0,1.0,1,357.0,0
580,580,-0.3862453380204266,-0.4,1.0,0.0,331.0,901.0,0.0,0,328.0,1
581,581,-0.6137260729954064,-0.6,0.0,1.0,307.0,898.0,0.0,1,-445.0,0
582,582,0.6310496195159429,0.6,0.0,0.0,333.0,874.0,0.0,1,1013.0,1
583,583,-0.4966713538418766,-0.5,1.0,0.0,356.0,815.0,1.0,1,1239.0,0
584,584,0.03368525617776086,0.0,1.0,1.0,263.0,980.0,0.0,0,107.0,0
585,585,0.026844249681561627,0.0,1.0,1.0,427.0,882.0,1.0,1,-1119.0,1
586,586,0.2898436212110337,0.3,0.0,0.0,297.0,778.0,1.0,0,1925.0,0
587,587,-0.6225760390983366,-0.6,0.0,1.0,272.0,947.0,0.0,1,-779.0,0
588,588,-0.7988693604021365,-0.8,1.0,0.0,465.0,693.0,1.0,1,-98.0,0
589,589,-0.1431853089622881,-0.1,1.0,0.0,394.0,631.0,0.0,0,1735.0,1
590,590,-0.38398038703994786,-0.4,0.0,1.0,434.0,876.0,1.0,0,-620.0,1
591,591,0.24091847096739072,0.2,1.0,1.0,316.0,705.0,0.0,0,149.0,0
592,592,-0.74484169153392,-0.7,1.0,0.0,388.0,506.0,1.0,1,-64.0,0
593,593,0.5871124303047989,0.6,1.0,1.0,361.0,630.0,0.0,0,379.0,0
594,594,-0.8845398406626122,-0.9,1.0,0.0,401.0,582.0,0.0,0,147.0,1
595,595,0.2407477127511709,0.2,1.0,1.0,285.0,777.0,0.0,0,108.0,0
596,596,-0.5030401548500658,-0.5,1.0,0.0,268.0,884.0,0.0,0,-652.0,1
597,597,0.09385450422816122,0.1,1.0,1.0,433.0,828.0,0.0,0,139.0,0
598,598,-0.1921265924598461,-0.2,1.0,0.0,338.0,694.0,0.0,0,-352.0,1
599,599,-0.36857140113840836,-0.4,1.0,0.0,446.0,748.0,0.0,0,-894.0,1
600,600,0.30273434421677636,0.3,1.0,1.0,337.0,580.0,1.0,1,2083.0,1
601,601,-0.25849653762944713,-0.3,0.0,1.0,301.0,885.0,0.0,1,-1116.0,0
602,602,0.38130768449591634,0.4,0.0,0.0,347.0,868.0,1.0,0,1785.0,0
603,603,0.267432728338162,0.3,1.0,1.0,360.0,968.0,1.0,1,-958.0,1
604,604,-0.05549091986133747,-0.1,1.0,0.0,474.0,587.0,0.0,0,1489.0,1
605,605,-0.47303590434936366,-0.5,1.0,0.0,329.0,957.0,0.0,0,-376.0,1
606,606,-0.19808883687053924,-0.2,0.0,1.0,452.0,970.0,0.0,1,-592.0,0
607,607,0.18718752349585677,0.2,1.0,1.0,347.0,898.0,1.0,1,-165.0,1
608,608,-0.8531020564578471,-0.9,0.0,1.0,465.0,821.0,1.0,0,134.0,1
609,609,0.20826684187451228,0.2,0.0,0.0,469.0,515.0,0.0,1,-964.0,1
610,610,-0.6103490411245374,-0.6,0.0,1.0,325.0,832.0,0.0,1,-437.0,0
611,611,-0.7883411681521435,-0.8,1.0,0.0,473.0,755.0,0.0,0,92.0,1
612,612,0.8218085668811156,0.8,1.0,1.0,412.0,802.0,0.0,0,1536.0,0
613,613,0.06741018573200774,0.1,1.0,1.0,398.0,513.0,0.0,0,289.0,0
614,614,0.3071956490133544,0.3,0.0,0.0,327.0,642.0,0.0,1,-789.0,1
615,615,0.593619799731952,0.6,1.0,1.0,411.0,563.0,1.0,1,-24.0,1
616,616,-0.4370135146394785,-0.4,0.0,1.0,475.0,838.0,0.0,1,1687.0,0
617,617,0.40686047561487115,0.4,0.0,0.0,498.0,637.0,0.0,1,325.0,1
618,618,-0.4186424225403451,-0.4,1.0,0.0,457.0,520.0,0.0,0,-977.0,1
619,619,0.6225301982636048,0.6,0.0,0.0,317.0,910.0,1.0,0,-737.0,0
620,620,-0.7423576491415138,-0.7,1.0,0.0,261.0,961.0,0.0,0,-1222.0,1
621,621,0.18612873357615,0.2,1.0,1.0,465.0,919.0,0.0,0,-874.0,0
622,622,0.33544084347590963,0.3,1.0,1.0,331.0,640.0,1.0,1,-241.0,1
623,623,-0.4384547803541596,-0.4,0.0,1.0,265.0,646.0,0.0,1,189.0,0
624,624,0.434556271723903,0.4,0.0,0.0,319.0,677.0,0.0,1,-686.0,1
625,625,0.32531693139048456,0.3,1.0,1.0,346.0,969.0,0.0,0,595.0,0
626,626,0.17524124872210256,0.2,0.0,0.0,420.0,601.0,0.0,1,1979.0,1
627,627,0.755749728004521,0.8,0.0,0.0,478.0,878.0,1.0,0,-786.0,0
628,628,-0.21825182645261088,-0.2,1.0,0.0,482.0,695.0,1.0,1,1823.0,0
629,629,-0.4901280008260805,-0.5,0.0,1.0,471.0,963.0,0.0,1,386.0,0
630,630,-0.7028509421426908,-0.7,0.0,1.0,464.0,670.0,0.0,1,1306.0,0
631,631,0.22643717179551237,0.2,0.0,0.0,311.0,775.0,0.0,1,754.0,1
632,632,0.4321684191154346,0.4,1.0,1.0,325.0,616.0,0.0,0,469.0,0
633,633,-0.6768071349416935,-0.7,0.0,1.0,405.0,829.0,0.0,1,336.0,0
634,634,-0.3013394435129181,-0.3,1.0,0.0,386.0,799.0,0.0,0,715.0,1
635,635,-0.10441549596835742,-0.1,0.0,1.0,271.0,849.0,0.0,1,1540.0,0
636,636,0.27102070018469016,0.3,0.0,0.0,376.0,715.0,0.0,1,999.0,1
637,637,0.11775617364963742,0.1,1.0,1.0,473.0,642.0,0.0,0,1295.0,0
638,638,0.12083308085588473,0.1,1.0,1.0,369.0,616.0,0.0,0,105.0,0
639,639,-0.7707936842654486,-0.8,0.0,1.0,304.0,941.0,0.0,1,695.0,0
640,640,0.13637391053001802,0.1,1.0,1.0,319.0,852.0,0.0,0,189.0,0
641,641,-0.38680957855029974,-0.4,0.0,1.0,347.0,600.0,0.0,1,-927.0,0
642,642,-0.23463370587516252,-0.2,0.0,1.0,358.0,917.0,1.0,0,185.0,1
643,643,-0.2608277461690838,-0.3,1.0,0.0,307.0,909.0,0.0,0,1784.0,1
644,644,-0.5258449883952232,-0.5,0.0,1.0,405.0,791.0,0.0,1,194.0,0
645,645,-0.2271793717420294,-0.2,0.0,1.0,303.0,921.0,0.0,1,-944.0,0
646,646,-0.7601725908344092,-0.8,1.0,0.0,285.0,953.0,0.0,0,-388.0,1
647,647,0.4063323153104771,0.4,0.0,0.0,417.0,690.0,0.0,1,1413.0,1
648,648,0.807864336709674,0.8,0.0,0.0,452.0,863.0,0.0,1,-475.0,1
649,649,0.44929440401385967,0.4,1.0,1.0,271.0,587.0,1.0,1,-758.0,1
650,650,0.6384316148871468,0.6,0.0,0.0,489.0,996.0,1.0,0,-175.0,0
651,651,0.7131226459125727,0.7,1.0,1.0,442.0,697.0,0.0,0,-209.0,0
652,652,0.30445183351741256,0.3,1.0,1.0,470.0,671.0,0.0,0,189.0,0
653,653,-0.5773492927266712,-0.6,0.0,1.0,372.0,766.0,0.0,1,-688.0,0
654,654,0.809520918692889,0.8,1.0,1.0,371.0,783.0,0.0,0,-424.0,0
655,655,0.2961796348965994,0.3,0.0,0.0,490.0,771.0,0.0,1,79.0,1
656,656,-0.15387287190124221,-0.2,0.0,1.0,380.0,947.0,0.0,1,-237.0,0
657,657,-0.3515470147682863,-0.4,1.0,0.0,348.0,909.0,0.0,0,-637.0,1
658,658,-0.22616877623898413,-0.2,1.0,0.0,258.0,639.0,0.0,0,373.0,1
659,659,-0.5312260192669913,-0.5,1.0,0.0,441.0,649.0,0.0,0,-1010.0,1
660,660,0.1265211032034831,0.1,0.0,0.0,319.0,680.0,0.0,1,-929.0,1
661,661,0.7247373335293571,0.7,0.0,0.0,282.0,808.0,0.0,1,-950.0,1
662,662,-0.6286854456467676,-0.6,1.0,0.0,297.0,708.0,0.0,0,-545.0,1
663,663,-0.7843459819053443,-0.8,1.0,0.0,384.0,558.0,0.0,0,798.0,1
664,664,-0.08137685295455188,-0.1,0.0,1.0,496.0,729.0,0.0,1,1195.0,0
665,665,0.7033160522135736,0.7,1.0,1.0,258.0,698.0,0.0,0,614.0,0
666,666,0.5200369098237448,0.5,1.0,1.0,402.0,653.0,0.0,0,1145.0,0
667,667,-0.4976026907030021,-0.5,0.0,1.0,317.0,574.0,1.0,0,199.0,1
668,668,-0.20502165898319702,-0.2,1.0,0.0,309.0,824.0,0.0,0,-973.0,1
669,669,-0.2494626204081356,-0.2,0.0,1.0,350.0,559.0,0.0,1,-869.0,0
670,670,0.20229476062855622,0.2,1.0,1.0,418.0,608.0,0.0,0,1974.0,0
671,671,0.6094727860677779,0.6,1.0,1.0,369.0,540.0,0.0,0,111.0,0
672,672,0.058816133141254,0.1,0.0,0.0,301.0,903.0,1.0,0,1796.0,0
673,673,0.16683051995898246,0.2,0.0,0.0,487.0,957.0,0.0,1,1336.0,1
674,674,-0.3538031683348417,-0.4,0.0,1.0,492.0,666.0,1.0,0,112.0,1
675,675,0.13766152016491795,0.1,0.0,0.0,465.0,763.0,0.0,1,1772.0,1
676,676,-0.379069978765203,-0.4,0.0,1.0,279.0,814.0,0.0,1,-683.0,0
677,677,-0.2409589319745188,-0.2,0.0,1.0,315.0,712.0,1.0,0,-857.0,1
678,678,0.8800877081751631,0.9,0.0,0.0,325.0,608.0,0.0,1,-623.0,1
679,679,0.3487625470479202,0.3,1.0,1.0,271.0,816.0,0.0,0,-1067.0,0
680,680,0.5714227759168174,0.6,1.0,1.0,309.0,939.0,1.0,1,-398.0,1
681,681,0.1944873375290591,0.2,0.0,0.0,257.0,527.0,1.0,0,1796.0,0
682,682,-0.5117803168597479,-0.5,1.0,0.0,284.0,712.0,0.0,0,-826.0,1
683,683,-0.23516624821820364,-0.2,1.0,0.0,429.0,582.0,0.0,0,-701.0,1
684,684,-0.08905581418118658,-0.1,0.0,1.0,327.0,927.0,0.0,1,-594.0,0
685,685,0.6810541557532029,0.7,1.0,1.0,459.0,982.0,1.0,1,1559.0,1
686,686,-0.6167248327373278,-0.6,1.0,0.0,452.0,636.0,0.0,0,1142.0,1
687,687,0.5550783568089271,0.6,0.0,0.0,451.0,901.0,0.0,1,-1052.0,1
688,688,-0.40849561775848064,-0.4,1.0,0.0,415.0,844.0,1.0,1,-1109.0,0
689,689,0.30821288145142234,0.3,0.0,0.0,321.0,980.0,0.0,1,-621.0,1
690,690,0.36794174413572234,0.4,0.0,0.0,292.0,978.0,1.0,0,-1240.0,0
691,691,0.6577360134936155,0.7,1.0,1.0,331.0,689.0,0.0,0,-170.0,0
692,692,-0.847252884899859,-0.8,1.0,0.0,407.0,715.0,0.0,0,598.0,1
693,693,-0.49408055889745695,-0.5,0.0,1.0,469.0,674.0,0.0,1,1857.0,0
694,694,0.20858944813981817,0.2,0.0,0.0,388.0,659.0,1.0,0,-757.0,0
695,695,-0.45364500100077076,-0.5,0.0,1.0,267.0,609.0,0.0,1,-616.0,0
696,696,-0.7626155883810299,-0.8,0.0,1.0,371.0,608.0,0.0,1,-879.0,0
697,697,-0.5978629716873153,-0.6,1.0,0.0,487.0,931.0,0.0,0,1582.0,1
698,698,0.3401748683562512,0.3,1.0,1.0,435.0,842.0,0.0,0,-1157.0,0
699,699,0.19302170682637299,0.2,0.0,0.0,392.0,951.0,0.0,1,-253.0,1
700,700,-0.5456570306137887,-0.5,0.0,1.0,331.0,525.0,0.0,1,-466.0,0
701,701,0.1438090638556292,0.1,0.0,0.0,259.0,871.0,0.0,1,-640.0,1
702,702,0.04192317173288995,0.0,0.0,0.0,317.0,690.0,0.0,1,-837.0,1
703,703,0.46946323511732035,0.5,1.0,1.0,472.0,942.0,0.0,0,236.0,0
704,704,0.7995553960461731,0.8,0.0,0.0,383.0,646.0,1.0,0,-299.0,0
705,705,0.3242367919880539,0.3,1.0,1.0,357.0,561.0,0.0,0,-878.0,0
706,706,-0.41121920400310974,-0.4,0.0,1.0,306.0,918.0,0.0,1,-4.0,0
707,707,-0.8318644424284136,-0.8,1.0,0.0,342.0,672.0,1.0,1,66.0,0
708,708,0.5755763272796247,0.6,1.0,1.0,351.0,995.0,0.0,0,-1056.0,0
709,709,-0.20320565489289066,-0.2,0.0,1.0,339.0,526.0,0.0,1,-855.0,0
710,710,-0.7710322565321328,-0.8,0.0,1.0,449.0,828.0,0.0,1,-77.0,0
711,711,0.026059218242585613,0.0,1.0,1.0,378.0,576.0,0.0,0,-854.0,0
712,712,-0.818242557690696,-0.8,0.0,1.0,469.0,796.0,0.0,1,-435.0,0
713,713,-0.1857529395440186,-0.2,1.0,0.0,399.0,830.0,0.0,0,951.0,1
714,714,0.28402631069673834,0.3,0.0,0.0,278.0,766.0,0.0,1,-634.0,1
715,715,0.17992003811241786,0.2,0.0,0.0,335.0,772.0,0.0,1,-57.0,1
716,716,-0.3920661945519499,-0.4,0.0,1.0,452.0,707.0,0.0,1,-749.0,0
717,717,-0.13270532448894956,-0.1,1.0,0.0,455.0,965.0,0.0,0,1240.0,1
718,718,-0.31370120334096085,-0.3,0.0,1.0,431.0,930.0,1.0,0,-271.0,1
719,719,0.5770674143670621,0.6,1.0,1.0,267.0,774.0,1.0,1,-491.0,1
720,720,-0.7486141845921093,-0.7,0.0,1.0,325.0,773.0,1.0,0,-608.0,1
721,721,-0.5885316788971409,-0.6,0.0,1.0,296.0,593.0,0.0,1,1681.0,0
722,722,-0.245621102573653,-0.2,0.0,1.0,337.0,693.0,0.0,1,470.0,0
723,723,0.5026413531422992,0.5,0.0,0.0,291.0,760.0,1.0,0,379.0,0
724,724,-0.20346200101751988,-0.2,1.0,0.0,352.0,992.0,0.0,0,286.0,1
725,725,0.14628477385509842,0.1,0.0,0.0,442.0,611.0,0.0,1,-853.0,1
726,726,-0.3696097175146338,-0.4,0.0,1.0,318.0,653.0,1.0,0,2029.0,1
727,727,-0.1469467316223032,-0.1,0.0,1.0,450.0,693.0,1.0,0,-873.0,1
728,728,-0.4994373108613012,-0.5,1.0,0.0,251.0,849.0,1.0,1,1900.0,0
729,729,0.4754521465829241,0.5,0.0,0.0,475.0,929.0,0.0,1,-994.0,1
730,730,-0.29541512047124885,-0.3,0.0,1.0,451.0,747.0,0.0,1,-788.0,0
731,731,-0.7880337855027224,-0.8,1.0,0.0,447.0,645.0,0.0,0,-322.0,1
732,732,-0.684112738423166,-0.7,1.0,0.0,369.0,760.0,0.0,0,-899.0,1
733,733,-0.24837718661268415,-0.2,0.0,1.0,497.0,630.0,0.0,1,-527.0,0
734,734,0.058185591498305045,0.1,0.0,0.0,358.0,815.0,0.0,1,-113.0,1
735,735,0.4274634259657478,0.4,0.0,0.0,399.0,780.0,0.0,1,-79.0,1
736,736,-0.7748353647104975,-0.8,1.0,0.0,462.0,503.0,0.0,0,75.0,1
737,737,-0.17526231618168697,-0.2,1.0,0.0,412.0,549.0,1.0,1,-901.0,0
738,738,0.10165074950521247,0.1,1.0,1.0,305.0,501.0,0.0,0,1244.0,0
739,739,-0.46671112672248627,-0.5,0.0,1.0,482.0,939.0,0.0,1,1539.0,0
740,740,-0.3992577527428304,-0.4,0.0,1.0,374.0,864.0,0.0,1,-208.0,0
741,741,0.7737122339268127,0.8,1.0,1.0,279.0,795.0,0.0,0,286.0,0
742,742,0.30212978001149116,0.3,1.0,1.0,403.0,765.0,1.0,1,-178.0,1
743,743,-0.42767513636438603,-0.4,1.0,0.0,361.0,573.0,0.0,0,-634.0,1
744,744,0.268386570614766,0.3,1.0,1.0,409.0,886.0,0.0,0,-1185.0,0
745,745,-0.20112395592189225,-0.2,1.0,0.0,410.0,772.0,0.0,0,-432.0,1
746,746,-0.8442388648903304,-0.8,0.0,1.0,370.0,586.0,0.0,1,-856.0,0
747,747,-0.5504856977318882,-0.6,0.0,1.0,436.0,504.0,0.0,1,-930.0,0
748,748,0.7707198170242636,0.8,1.0,1.0,366.0,693.0,1.0,1,1941.0,1
749,749,0.3663407051886779,0.4,0.0,0.0,384.0,751.0,0.0,1,-375.0,1
750,750,0.17819733040740438,0.2,0.0,0.0,468.0,638.0,0.0,1,-136.0,1
751,751,-0.8357024686985912,-0.8,1.0,0.0,478.0,707.0,0.0,0,495.0,1
752,752,-0.712533299354514,-0.7,1.0,0.0,315.0,684.0,1.0,1,-569.0,0
753,753,-0.6343921699582029,-0.6,0.0,1.0,382.0,977.0,1.0,0,-639.0,1
754,754,-0.57905490278589,-0.6,0.0,1.0,379.0,952.0,0.0,1,-811.0,0
755,755,-0.5079867799004829,-0.5,0.0,1.0,373.0,840.0,1.0,0,-143.0,1
756,756,-0.15199348492363662,-0.2,1.0,0.0,317.0,932.0,0.0,0,-459.0,1
757,757,0.40005240390922314,0.4,0.0,0.0,434.0,786.0,1.0,0,1780.0,0
758,758,0.7671768632640529,0.8,1.0,1.0,330.0,763.0,0.0,0,-823.0,0
759,759,0.8577985924208288,0.9,1.0,1.0,281.0,552.0,1.0,1,2167.0,1
760,760,0.14355644424410807,0.1,0.0,0.0,346.0,735.0,0.0,1,-591.0,1
761,761,-0.019381545859768257,-0.0,1.0,0.0,339.0,616.0,0.0,0,425.0,1
762,762,0.3322291869595059,0.3,0.0,0.0,452.0,653.0,1.0,0,1895.0,0
763,763,-0.02797944806004493,-0.0,0.0,1.0,417.0,791.0,0.0,1,-738.0,0
764,764,-0.23609307193738582,-0.2,1.0,0.0,402.0,906.0,0.0,0,-368.0,1
765,765,-0.21806660130052813,-0.2,1.0,0.0,279.0,816.0,0.0,0,-1085.0,1
766,766,0.46760018768625045,0.5,0.0,0.0,306.0,814.0,0.0,1,-950.0,1
767,767,-0.8860016267500664,-0.9,0.0,1.0,416.0,548.0,1.0,0,-264.0,1
768,768,0.4975664821542817,0.5,0.0,0.0,326.0,960.0,0.0,1,-1236.0,1
769,769,-0.2081891562438103,-0.2,1.0,0.0,433.0,829.0,1.0,1,-1122.0,0
770,770,-0.07117044572395337,-0.1,0.0,1.0,453.0,879.0,0.0,1,-992.0,0
771,771,-0.5055194840048458,-0.5,0.0,1.0,458.0,988.0,0.0,1,454.0,0
772,772,0.22643631250803498,0.2,1.0,1.0,371.0,642.0,0.0,0,-493.0,0
773,773,0.8729155057579098,0.9,0.0,0.0,460.0,796.0,0.0,1,-516.0,1
774,774,-0.8911899805976383,-0.9,0.0,1.0,431.0,797.0,1.0,0,1772.0,1
775,775,0.036664493790440345,0.0,1.0,1.0,482.0,900.0,0.0,0,-562.0,0
776,776,-0.8248884090788507,-0.8,0.0,1.0,297.0,551.0,0.0,1,532.0,0
777,777,0.6175711988293321,0.6,0.0,0.0,398.0,611.0,0.0,1,-319.0,1
778,778,0.7373963661537829,0.7,0.0,0.0,342.0,665.0,0.0,1,613.0,1
779,779,0.4639112707629679,0.5,1.0,1.0,314.0,644.0,1.0,1,-68.0,1
780,780,0.2389100914062049,0.2,0.0,0.0,401.0,748.0,0.0,1,-1149.0,1
781,781,-0.16713564580605988,-0.2,0.0,1.0,272.0,704.0,0.0,1,-16.0,0
782,782,-0.1905115191707033,-0.2,0.0,1.0,315.0,843.0,0.0,1,-1128.0,0
783,783,-0.5167617308614455,-0.5,0.0,1.0,333.0,595.0,0.0,1,502.0,0
784,784,-0.2015744369832514,-0.2,1.0,0.0,317.0,804.0,0.0,0,769.0,1
785,785,0.24643092968050773,0.2,1.0,1.0,279.0,548.0,0.0,0,-557.0,0
786,786,0.10169079490292587,0.1,0.0,0.0,336.0,688.0,0.0,1,-264.0,1
787,787,-0.7615875147292134,-0.8,1.0,0.0,408.0,509.0,0.0,0,-907.0,1
788,788,-0.8587505301026739,-0.9,0.0,1.0,369.0,699.0,1.0,0,242.0,1
789,789,-0.6153664049333007,-0.6,1.0,0.0,291.0,629.0,1.0,1,-370.0,0
790,790,0.5485208283878232,0.5,0.0,0.0,300.0,733.0,0.0,1,-933.0,1
791,791,0.48287999833776174,0.5,0.0,0.0,382.0,571.0,1.0,0,-703.0,0
792,792,-0.7007890618385769,-0.7,1.0,0.0,416.0,801.0,0.0,0,1383.0,1
793,793,0.5599748003548103,0.6,1.0,1.0,331.0,648.0,0.0,0,-389.0,0
794,794,0.7607399462706824,0.8,1.0,1.0,395.0,862.0,0.0,0,-657.0,0
795,795,-0.8731216554517355,-0.9,0.0,1.0,393.0,906.0,0.0,1,1401.0,0
796,796,0.002304409520654138,0.0,1.0,1.0,351.0,541.0,1.0,1,-282.0,1
797,797,0.15145663716858315,0.2,0.0,0.0,261.0,565.0,0.0,1,-356.0,1
798,798,0.35969874506561494,0.4,1.0,1.0,396.0,705.0,0.0,0,-1001.0,0
799,799,0.7247741621873233,0.7,1.0,1.0,425.0,662.0,1.0,1,1913.0,1
800,800,-0.06307400428356968,-0.1,0.0,1.0,251.0,732.0,1.0,0,-623.0,1
801,801,-0.03876652862572416,-0.0,0.0,1.0,440.0,914.0,0.0,1,-914.0,0
802,802,-0.7694675414849125,-0.8,0.0,1.0,301.0,587.0,1.0,0,2112.0,1
803,803,0.6994994491887535,0.7,0.0,0.0,428.0,634.0,1.0,0,1938.0,0
804,804,-0.04604463353688726,-0.0,0.0,1.0,417.0,564.0,1.0,0,-981.0,1
805,805,0.2328619079045272,0.2,1.0,1.0,264.0,534.0,0.0,0,2.0,0
806,806,0.38873962810306983,0.4,0.0,0.0,396.0,798.0,0.0,1,-894.0,1
807,807,-0.5846676637269248,-0.6,1.0,0.0,378.0,730.0,0.0,0,92.0,1
808,808,0.012874170702795507,0.0,1.0,1.0,302.0,655.0,0.0,0,223.0,0
809,809,0.7875347262905524,0.8,1.0,1.0,483.0,903.0,0.0,0,44.0,0
810,810,0.8266925730122475,0.8,1.0,1.0,254.0,919.0,0.0,0,-753.0,0
811,811,-0.003124205728102014,-0.0,0.0,1.0,459.0,976.0,1.0,0,1565.0,1
812,812,0.8360778187582166,0.8,0.0,0.0,454.0,582.0,0.0,1,-326.0,1
813,813,0.3627101341789881,0.4,0.0,0.0,448.0,660.0,1.0,0,1892.0,0
814,814,-0.02022048309501656,-0.0,0.0,1.0,385.0,828.0,1.0,0,-1013.0,1
815,815,-0.7252051422481095,-0.7,1.0,0.0,284.0,736.0,1.0,1,1980.0,0
816,816,-0.7391087682731486,-0.7,1.0,0.0,267.0,604.0,0.0,0,-741.0,1
817,817,-0.17645247994508617,-0.2,1.0,0.0,491.0,775.0,0.0,0,-1006.0,1
818,818,0.8960600725857794,0.9,1.0,1.0,276.0,790.0,0.0,0,304.0,0
819,819,0.3281343999048999,0.3,1.0,1.0,404.0,733.0,0.0,0,-657.0,0
820,820,-0.765510264472344,-0.8,0.0,1.0,361.0,592.0,0.0,1,-23.0,0
821,821,0.5799493558269585,0.6,0.0,0.0,277.0,901.0,0.0,1,-498.0,1
822,822,-0.24858417634065855,-0.2,1.0,0.0,286.0,666.0,0.0,0,2018.0,1
823,823,0.4703084660377085,0.5,0.0,0.0,365.0,531.0,0.0,1,-816.0,1
824,824,-0.13768691218151186,-0.1,0.0,1.0,492.0,623.0,0.0,1,5.0,0
825,825,0.1108528055918,0.1,0.0,0.0,301.0,874.0,0.0,1,-575.0,1
826,826,-0.03212175298716957,-0.0,0.0,1.0,469.0,622.0,0.0,1,-941.0,0
827,827,0.8665400050142417,0.9,1.0,1.0,493.0,739.0,1.0,1,598.0,1
828,828,0.00969084850709534,0.0,0.0,0.0,435.0,684.0,0.0,1,501.0,1
829,829,-0.46513327654820297,-0.5,1.0,0.0,468.0,528.0,0.0,0,1494.0,1
830,830,-0.45427390252460886,-0.5,1.0,0.0,407.0,959.0,0.0,0,-1296.0,1
831,831,-0.6607881430074057,-0.7,0.0,1.0,492.0,613.0,0.0,1,-445.0,0
832,832,0.6177043610711282,0.6,1.0,1.0,388.0,595.0,0.0,0,-123.0,0
833,833,0.2703538997789362,0.3,0.0,0.0,474.0,997.0,0.0,1,129.0,1
834,834,0.21832573644001296,0.2,0.0,0.0,347.0,760.0,1.0,0,1893.0,0
835,835,0.8774860973142867,0.9,1.0,1.0,448.0,602.0,0.0,0,-1030.0,0
836,836,0.6009291387967136,0.6,1.0,1.0,373.0,500.0,0.0,0,-563.0,0
837,837,-0.22438531459055022,-0.2,0.0,1.0,315.0,720.0,1.0,0,95.0,1
838,838,-0.6829037581557622,-0.7,1.0,0.0,433.0,913.0,0.0,0,-246.0,1
839,839,-0.808691464505553,-0.8,1.0,0.0,263.0,970.0,0.0,0,1357.0,1
840,840,0.8790564409281657,0.9,1.0,1.0,470.0,935.0,1.0,1,1395.0,1
841,841,0.04328695843196195,0.0,1.0,1.0,256.0,780.0,0.0,0,-896.0,0
842,842,0.08135249084639973,0.1,1.0,1.0,376.0,785.0,1.0,1,1839.0,1
843,843,-0.8637673654980005,-0.9,0.0,1.0,358.0,744.0,1.0,0,318.0,1
844,844,-0.45802329813593895,-0.5,0.0,1.0,354.0,791.0,0.0,1,-555.0,0
845,845,0.5625429223839772,0.6,1.0,1.0,446.0,869.0,1.0,1,-875.0,1
846,846,0.11754713719124033,0.1,1.0,1.0,446.0,654.0,0.0,0,-350.0,0
847,847,0.7067133317742637,0.7,1.0,1.0,430.0,996.0,0.0,0,-996.0,0
848,848,-0.8310270402299018,-0.8,1.0,0.0,252.0,543.0,0.0,0,1605.0,1
849,849,0.7753994551140543,0.8,0.0,0.0,472.0,508.0,1.0,0,-930.0,0
850,850,-0.6338092216383964,-0.6,0.0,1.0,383.0,541.0,1.0,0,696.0,1
851,851,-0.07367523850752855,-0.1,0.0,1.0,360.0,917.0,0.0,1,-777.0,0
852,852,0.4942098824384954,0.5,0.0,0.0,275.0,525.0,0.0,1,690.0,1
853,853,0.6450890604353315,0.6,1.0,1.0,280.0,552.0,1.0,1,-12.0,1
854,854,0.7998774468049544,0.8,0.0,0.0,489.0,857.0,0.0,1,534.0,1
855,855,0.5139591514868692,0.5,1.0,1.0,448.0,888.0,0.0,0,-1276.0,0
856,856,-0.6492685172864162,-0.6,0.0,1.0,264.0,578.0,0.0,1,-492.0,0
857,857,0.00217141576186497,0.0,1.0,1.0,442.0,842.0,0.0,0,-1104.0,0
858,858,-0.06764797888273077,-0.1,1.0,0.0,489.0,671.0,1.0,1,-960.0,0
859,859,0.522123021228217,0.5,1.0,1.0,359.0,696.0,1.0,1,1945.0,1
860,860,0.07549128239031833,0.1,1.0,1.0,495.0,564.0,1.0,1,1941.0,1
861,861,-0.3654497520453335,-0.4,1.0,0.0,302.0,891.0,0.0,0,1697.0,1
862,862,0.871996363566823,0.9,0.0,0.0,484.0,665.0,0.0,1,-79.0,1
863,863,-0.14884145909439073,-0.1,0.0,1.0,353.0,723.0,0.0,1,-1026.0,0
864,864,0.06614717769968048,0.1,0.0,0.0,319.0,964.0,0.0,1,-883.0,1
865,865,-0.6404234842980474,-0.6,0.0,1.0,264.0,979.0,1.0,0,-983.0,1
866,866,0.391106958699747,0.4,0.0,0.0,358.0,578.0,1.0,0,1924.0,0
867,867,-0.46158294136890976,-0.5,1.0,0.0,251.0,562.0,0.0,0,937.0,1
868,868,-0.540770056786894,-0.5,1.0,0.0,499.0,697.0,0.0,0,1564.0,1
869,869,-0.6991176289234541,-0.7,0.0,1.0,495.0,945.0,1.0,0,-300.0,1
870,870,-0.8592886451364423,-0.9,1.0,0.0,433.0,621.0,0.0,0,346.0,1
871,871,0.1907263295269429,0.2,1.0,1.0,459.0,659.0,0.0,0,-798.0,0
872,872,-0.7055798865256264,-0.7,0.0,1.0,328.0,615.0,0.0,1,-343.0,0
873,873,0.623453002073915,0.6,1.0,1.0,300.0,608.0,0.0,0,-8.0,0
874,874,0.8438111797414375,0.8,0.0,0.0,301.0,759.0,0.0,1,1690.0,1
875,875,0.033626179144913726,0.0,0.0,0.0,459.0,548.0,1.0,0,1993.0,0
876,876,-0.7125361442072582,-0.7,1.0,0.0,488.0,501.0,0.0,0,-419.0,1
877,877,0.12314972664142221,0.1,1.0,1.0,419.0,700.0,0.0,0,-479.0,0
878,878,0.4227622540181849,0.4,0.0,0.0,450.0,952.0,0.0,1,1098.0,1
879,879,0.46480824913228236,0.5,0.0,0.0,426.0,617.0,1.0,0,-583.0,0
880,880,0.5430927025810731,0.5,0.0,0.0,265.0,897.0,0.0,1,-492.0,1
881,881,-0.45888961657725497,-0.5,1.0,0.0,315.0,562.0,1.0,1,2123.0,0
882,882,0.16636278245592984,0.2,1.0,1.0,255.0,737.0,0.0,0,-902.0,0
883,883,-0.6094461984286661,-0.6,1.0,0.0,291.0,973.0,0.0,0,1416.0,1
884,884,-0.11015367663317466,-0.1,0.0,1.0,348.0,508.0,0.0,1,1524.0,0
885,885,-0.7880532228356721,-0.8,1.0,0.0,421.0,697.0,0.0,0,-398.0,1
886,886,0.4288523396345588,0.4,0.0,0.0,421.0,518.0,1.0,0,2061.0,0
887,887,-0.08268056820146852,-0.1,0.0,1.0,338.0,625.0,0.0,1,387.0,0
888,888,-0.6477447351372627,-0.6,1.0,0.0,343.0,564.0,0.0,0,-407.0,1
889,889,-0.12146789793648638,-0.1,1.0,0.0,369.0,652.0,1.0,1,-851.0,0
890,890,0.4241234711779901,0.4,1.0,1.0,270.0,911.0,1.0,1,1819.0,1
891,891,-0.7190294776558799,-0.7,1.0,0.0,492.0,811.0,0.0,0,-413.0,1
892,892,0.5082776715995706,0.5,0.0,0.0,491.0,519.0,0.0,1,-300.0,1
893,893,0.35906523775512633,0.4,1.0,1.0,285.0,597.0,0.0,0,-882.0,0
894,894,-0.34931794608783673,-0.3,1.0,0.0,388.0,574.0,0.0,0,678.0,1
895,895,-0.24687728043780421,-0.2,0.0,1.0,358.0,998.0,1.0,0,84.0,1
896,896,-0.35271429295252177,-0.4,1.0,0.0,332.0,609.0,0.0,0,1349.0,1
897,897,-0.4755425601443897,-0.5,1.0,0.0,351.0,918.0,0.0,0,-909.0,1
898,898,-0.8451632541370873,-0.8,1.0,0.0,366.0,506.0,0.0,0,-772.0,1
899,899,-0.05449094737451765,-0.1,1.0,0.0,319.0,642.0,0.0,0,359.0,1
900,900,0.5871607615285962,0.6,0.0,0.0,403.0,906.0,0.0,1,-659.0,1
901,901,0.13979681911107644,0.1,0.0,0.0,340.0,691.0,0.0,1,-351.0,1
902,902,0.0966507001952559,0.1,1.0,1.0,443.0,537.0,0.0,0,-370.0,0
903,903,-0.14025995705859395,-0.1,0.0,1.0,451.0,960.0,0.0,1,1419.0,0
904,904,0.5897352786054127,0.6,0.0,0.0,319.0,604.0,1.0,0,-773.0,0
905,905,-0.21301724405793754,-0.2,0.0,1.0,465.0,519.0,0.0,1,426.0,0
906,906,-0.2835899770310474,-0.3,0.0,1.0,463.0,635.0,0.0,1,-208.0,0
907,907,-0.47045105098299894,-0.5,1.0,0.0,272.0,984.0,0.0,0,-586.0,1
908,908,0.04307126029834263,0.0,0.0,0.0,256.0,556.0,0.0,1,1298.0,1
909,909,-0.5207587448266171,-0.5,0.0,1.0,382.0,701.0,0.0,1,1357.0,0
910,910,-0.43198682127581284,-0.4,1.0,0.0,358.0,817.0,1.0,1,-585.0,0
911,911,0.23423620140067436,0.2,0.0,0.0,440.0,889.0,0.0,1,-1329.0,1
912,912,0.30410026236998855,0.3,1.0,1.0,401.0,777.0,0.0,0,702.0,0
913,913,-0.7181971889790848,-0.7,0.0,1.0,267.0,833.0,0.0,1,170.0,0
914,914,0.26182897029191576,0.3,1.0,1.0,471.0,520.0,0.0,0,-881.0,0
915,915,-0.1287866410710572,-0.1,0.0,1.0,338.0,954.0,1.0,0,1708.0,1
916,916,0.08546763141629998,0.1,0.0,0.0,366.0,653.0,1.0,0,321.0,0
917,917,0.2425064857296354,0.2,0.0,0.0,469.0,530.0,0.0,1,1981.0,1
918,918,0.7955523602239166,0.8,0.0,0.0,408.0,633.0,0.0,1,1959.0,1
919,919,0.037391773737239786,0.0,0.0,0.0,318.0,751.0,0.0,1,-619.0,1
920,920,0.06303469737289535,0.1,0.0,0.0,331.0,546.0,0.0,1,2103.0,1
921,921,-0.7573490542459271,-0.8,1.0,0.0,390.0,673.0,0.0,0,-823.0,1
922,922,-0.5253864776150134,-0.5,0.0,1.0,282.0,593.0,0.0,1,-715.0,0
923,923,0.15700199318963037,0.2,0.0,0.0,428.0,900.0,0.0,1,-1128.0,1
924,924,-0.08225746737936035,-0.1,1.0,0.0,467.0,717.0,0.0,0,1296.0,1
925,925,-0.5098390569023158,-0.5,0.0,1.0,481.0,686.0,1.0,0,-57.0,1
926,926,0.6933384698289141,0.7,1.0,1.0,314.0,966.0,0.0,0,-190.0,0
927,927,-0.17160275356544552,-0.2,0.0,1.0,350.0,620.0,0.0,1,510.0,0
928,928,-0.5170271781706861,-0.5,1.0,0.0,260.0,594.0,1.0,1,2146.0,0
929,929,0.31467379177051213,0.3,0.0,0.0,262.0,911.0,1.0,0,-1073.0,0
930,930,-0.6456575983478849,-0.6,1.0,0.0,447.0,869.0,0.0,0,-746.0,1
931,931,0.3687927714600282,0.4,0.0,0.0,262.0,673.0,1.0,0,95.0,0
932,932,-0.21979806675457358,-0.2,0.0,1.0,317.0,723.0,0.0,1,-170.0,0
933,933,-0.5324383098117611,-0.5,0.0,1.0,347.0,946.0,0.0,1,-1023.0,0
934,934,-0.5892052382119093,-0.6,1.0,0.0,395.0,563.0,1.0,1,2042.0,0
935,935,-0.29889744746052216,-0.3,0.0,1.0,455.0,961.0,0.0,1,-566.0,0
936,936,-0.35223235915948115,-0.4,1.0,0.0,400.0,678.0,0.0,0,212.0,1
937,937,-0.7405242451646554,-0.7,0.0,1.0,286.0,824.0,0.0,1,-1110.0,0
938,938,0.3953856212461849,0.4,1.0,1.0,312.0,629.0,0.0,0,-661.0,0
939,939,-0.4326738185453361,-0.4,1.0,0.0,478.0,660.0,0.0,0,-938.0,1
940,940,0.3409682837726514,0.3,1.0,1.0,338.0,519.0,0.0,0,-317.0,0
941,941,-0.7831359573682909,-0.8,1.0,0.0,308.0,808.0,0.0,0,-656.0,1
942,942,-0.8504318149286964,-0.9,0.0,1.0,276.0,762.0,0.0,1,-18.0,0
943,943,-0.7578262247723951,-0.8,1.0,0.0,335.0,525.0,0.0,0,470.0,1
944,944,-0.41344372995152096,-0.4,1.0,0.0,289.0,754.0,0.0,0,1357.0,1
945,945,0.34419683687000446,0.3,0.0,0.0,354.0,516.0,0.0,1,440.0,1
946,946,0.5203844695517327,0.5,1.0,1.0,339.0,757.0,1.0,1,-276.0,1
947,947,-0.6130622129267567,-0.6,0.0,1.0,412.0,590.0,0.0,1,-662.0,0
948,948,-0.7240946051602776,-0.7,1.0,0.0,440.0,707.0,0.0,0,-547.0,1
949,949,0.030025935532570824,0.0,1.0,1.0,319.0,606.0,1.0,1,2075.0,1
950,950,-0.22022712665194222,-0.2,0.0,1.0,378.0,843.0,0.0,1,-751.0,0
951,951,0.10690146132231837,0.1,1.0,1.0,379.0,904.0,0.0,0,307.0,0
952,952,-0.6090023246437872,-0.6,0.0,1.0,374.0,719.0,1.0,0,327.0,1
953,953,0.15689359963783456,0.2,1.0,1.0,275.0,645.0,0.0,0,1580.0,0
954,954,0.5273146707136865,0.5,1.0,1.0,274.0,719.0,0.0,0,647.0,0
955,955,-0.2683101290040498,-0.3,0.0,1.0,326.0,561.0,1.0,0,2113.0,1
956,956,-0.6710247027788167,-0.7,0.0,1.0,328.0,823.0,0.0,1,1849.0,0
957,957,-0.742689559306081,-0.7,1.0,0.0,380.0,929.0,0.0,0,-1209.0,1
958,958,0.07238294958287594,0.1,1.0,1.0,477.0,526.0,0.0,0,-263.0,0
959,959,-0.7937778383541275,-0.8,0.0,1.0,449.0,952.0,1.0,0,1599.0,1
960,960,-0.1268022381301236,-0.1,1.0,0.0,251.0,749.0,0.0,0,-350.0,1
961,961,-0.24009264520539864,-0.2,0.0,1.0,356.0,620.0,0.0,1,294.0,0
962,962,0.11926986847456666,0.1,1.0,1.0,387.0,703.0,1.0,1,-1050.0,1
963,963,-0.1860060636353461,-0.2,1.0,0.0,478.0,671.0,1.0,1,1851.0,0
964,964,0.8420821786796066,0.8,0.0,0.0,394.0,532.0,0.0,1,-626.0,1
965,965,-0.11317729499180162,-0.1,1.0,0.0,423.0,500.0,1.0,1,1597.0,0
966,966,0.20810645141935924,0.2,0.0,0.0,283.0,760.0,0.0,1,757.0,1
967,967,-0.7404702439629929,-0.7,1.0,0.0,454.0,524.0,0.0,0,632.0,1
968,968,-0.8599986671244844,-0.9,1.0,0.0,422.0,838.0,0.0,0,1470.0,1
969,969,-0.16578150207505082,-0.2,1.0,0.0,355.0,774.0,0.0,0,1051.0,1
970,970,-0.02851916518519748,-0.0,1.0,0.0,298.0,878.0,1.0,1,1824.0,0
971,971,-0.2727085101287092,-0.3,0.0,1.0,464.0,623.0,1.0,0,1913.0,1
972,972,0.4105709582321798,0.4,0.0,0.0,295.0,913.0,0.0,1,-138.0,1
973,973,0.7720941256665962,0.8,1.0,1.0,482.0,762.0,0.0,0,-364.0,0
974,974,-0.48380256902573676,-0.5,1.0,0.0,276.0,599.0,0.0,0,935.0,1
975,975,0.015731717240274112,0.0,0.0,0.0,313.0,677.0,0.0,1,1640.0,1
976,976,-0.48496130178086055,-0.5,1.0,0.0,411.0,583.0,0.0,0,556.0,1
977,977,0.401732965948595,0.4,0.0,0.0,427.0,858.0,0.0,1,-1265.0,1
978,978,-0.00896088148269314,-0.0,1.0,0.0,488.0,716.0,1.0,1,-774.0,0
979,979,-0.7621656685844237,-0.8,0.0,1.0,372.0,808.0,0.0,1,-380.0,0
980,980,-0.1953078196088629,-0.2,0.0,1.0,449.0,731.0,0.0,1,1820.0,0
981,981,-0.43771028719710775,-0.4,0.0,1.0,370.0,996.0,0.0,1,214.0,0
982,982,-0.8760560612789903,-0.9,0.0,1.0,397.0,587.0,0.0,1,-694.0,0
983,983,0.6997515018841053,0.7,0.0,0.0,447.0,910.0,1.0,0,613.0,0
984,984,-0.7088704368961665,-0.7,1.0,0.0,316.0,522.0,0.0,0,1382.0,1
985,985,-0.04278529880634374,-0.0,1.0,0.0,296.0,955.0,1.0,1,1749.0,0
986,986,0.25459743797401624,0.3,0.0,0.0,405.0,647.0,1.0,0,1948.0,0
987,987,0.6354061343510687,0.6,0.0,0.0,396.0,918.0,0.0,1,456.0,1
988,988,-0.4421306211515968,-0.4,0.0,1.0,301.0,968.0,0.0,1,591.0,0
989,989,0.5061329209327313,0.5,1.0,1.0,378.0,593.0,0.0,0,229.0,0
990,990,-0.44941720032140103,-0.4,1.0,0.0,477.0,992.0,0.0,0,-179.0,1
991,991,-0.03757796678450387,-0.0,1.0,0.0,380.0,899.0,0.0,0,-389.0,1
992,992,-0.8749676055035184,-0.9,0.0,1.0,375.0,712.0,0.0,1,43.0,0
993,993,0.547969423136378,0.5,1.0,1.0,265.0,982.0,0.0,0,-607.0,0
994,994,0.33632566611050396,0.3,1.0,1.0,403.0,774.0,0.0,0,-1127.0,0
995,995,-0.2860327213174987,-0.3,0.0,1.0,498.0,921.0,1.0,0,1581.0,1
996,996,0.4010403819493281,0.4,1.0,1.0,362.0,633.0,0.0,0,145.0,0
997,997,-0.4856803882634411,-0.5,0.0,1.0,385.0,747.0,0.0,1,-192.0,0
998,998,0.17439202100886753,0.2,1.0,1.0,479.0,922.0,0.0,0,369.0,0
999,999,-0.5124273653869968,-0.5,1.0,0.0,312.0,999.0,0.0,0,1119.0,1
1000,1000,-0.11213955932291597,-0.1,1.0,0.0,385.0,595.0,0.0,0,-560.0,1
1001,1001,-0.5879012567915392,-0.6,0.0,1.0,331.0,975.0,0.0,1,-926.0,0
1002,1002,0.13333603040361142,0.1,0.0,0.0,469.0,956.0,1.0,0,-245.0,0
1003,1003,-0.2529490855770966,-0.3,0.0,1.0,338.0,773.0,1.0,0,-391.0,1
1004,1004,0.28778581321403485,0.3,0.0,0.0,389.0,839.0,0.0,1,-788.0,1
1005,1005,-0.2551359830253489,-0.3,1.0,0.0,481.0,978.0,0.0,0,-1099.0,1
1006,1006,-0.3787387402093779,-0.4,0.0,1.0,251.0,686.0,0.0,1,-837.0,0
1007,1007,0.2146244775120657,0.2,0.0,0.0,491.0,667.0,0.0,1,-528.0,1
1008,1008,-0.266162796820245,-0.3,0.0,1.0,263.0,764.0,0.0,1,1843.0,0
1009,1009,0.45095463124074764,0.5,1.0,1.0,479.0,509.0,0.0,0,472.0,0
1010,1010,0.7758468697413677,0.8,1.0,1.0,427.0,802.0,0.0,0,1101.0,0
1011,1011,-0.6544758076390822,-0.7,0.0,1.0,264.0,546.0,0.0,1,490.0,0
1012,1012,-0.6301065882195064,-0.6,0.0,1.0,288.0,977.0,0.0,1,-985.0,0
1013,1013,-0.8586424424423688,-0.9,1.0,0.0,472.0,636.0,0.0,0,-238.0,1
1014,1014,0.820759984288954,0.8,1.0,1.0,489.0,944.0,1.0,1,-933.0,1
1015,1015,-0.10229629375546023,-0.1,1.0,0.0,474.0,959.0,0.0,0,837.0,1
1016,1016,-0.18165120381030964,-0.2,0.0,1.0,334.0,726.0,0.0,1,-110.0,0
1017,1017,-0.4449081957417822,-0.4,0.0,1.0,390.0,615.0,0.0,1,-895.0,0
1018,1018,0.6783735076862695,0.7,1.0,1.0,369.0,541.0,0.0,0,70.0,0
1019,1019,-0.7921410123938946,-0.8,1.0,0.0,380.0,775.0,0.0,0,-1155.0,1
1020,1020,0.09689032453353108,0.1,0.0,0.0,334.0,943.0,0.0,1,-187.0,1
1021,1021,0.7225133697141238,0.7,1.0,1.0,483.0,835.0,1.0,1,-468.0,1
1022,1022,0.6120368334622887,0.6,1.0,1.0,281.0,599.0,0.0,0,-470.0,0
1023,1023,-0.3106947073909663,-0.3,1.0,0.0,404.0,632.0,0.0,0,154.0,1
1024,1024,0.04724963180576691,0.0,0.0,0.0,299.0,591.0,1.0,0,2110.0,0
1025,1025,-0.1501651593395107,-0.2,0.0,1.0,455.0,652.0,0.0,1,-527.0,0
1026,1026,0.864237480371045,0.9,0.0,0.0,479.0,654.0,0.0,1,-373.0,1
1027,1027,0.6653774465162322,0.7,0.0,0.0,261.0,887.0,0.0,1,-428.0,1
1028,1028,-0.6941912907403115,-0.7,0.0,1.0,490.0,973.0,0.0,1,-403.0,0
1029,1029,0.4280611867136995,0.4,1.0,1.0,480.0,545.0,1.0,1,1975.0,1
1030,1030,-0.11243076671754104,-0.1,1.0,0.0,366.0,570.0,0.0,0,-96.0,1
1031,1031,0.3776724650888067,0.4,1.0,1.0,266.0,809.0,0.0,0,-5.0,0
1032,1032,-0.22270355813890041,-0.2,1.0,0.0,402.0,713.0,1.0,1,-435.0,0
1033,1033,-0.6531785396249331,-0.7,0.0,1.0,403.0,625.0,0.0,1,-268.0,0
1034,1034,0.4354779900570821,0.4,1.0,1.0,486.0,962.0,0.0,0,-1198.0,0
1035,1035,-0.23923303815358699,-0.2,0.0,1.0,280.0,758.0,0.0,1,232.0,0
1036,1036,-0.49982245362755556,-0.5,0.0,1.0,280.0,503.0,0.0,1,1957.0,0
1037,1037,0.6068568412926786,0.6,0.0,0.0,266.0,716.0,0.0,1,-432.0,1
1038,1038,0.8238471531563089,0.8,0.0,0.0,257.0,948.0,0.0,1,-255.0,1
1039,1039,0.016525516203053092,0.0,1.0,1.0,251.0,701.0,0.0,0,378.0,0
1040,1040,-0.2682170486854918,-0.3,0.0,1.0,288.0,837.0,0.0,1,-105.0,0
1041,1041,0.1578886422914355,0.2,0.0,0.0,417.0,938.0,0.0,1,-1255.0,1
1042,1042,-0.39347308196227115,-0.4,0.0,1.0,451.0,549.0,0.0,1,-480.0,0
1043,1043,0.2186026332440102,0.2,0.0,0.0,354.0,822.0,0.0,1,-1086.0,1
1044,1044,-0.2003811709609985,-0.2,0.0,1.0,280.0,726.0,1.0,0,-796.0,1
1045,1045,-0.03953376617245452,-0.0,1.0,0.0,453.0,633.0,0.0,0,-146.0,1
1046,1046,0.8385007392688214,0.8,1.0,1.0,298.0,882.0,0.0,0,1230.0,0
1047,1047,0.6391685197654001,0.6,0.0,0.0,279.0,990.0,0.0,1,-999.0,1
1048,1048,-0.002359332015897886,-0.0,0.0,1.0,402.0,873.0,0.0,1,1165.0,0
1049,1049,0.37277756499388326,0.4,1.0,1.0,373.0,552.0,1.0,1,2075.0,1
1050,1050,0.4792104694268712,0.5,0.0,0.0,276.0,895.0,1.0,0,-971.0,0
1051,1051,-0.5081913353942543,-0.5,0.0,1.0,395.0,715.0,0.0,1,-550.0,0
1052,1052,-0.5009192040225965,-0.5,0.0,1.0,424.0,551.0,1.0,0,-465.0,1
1053,1053,0.19387518207419518,0.2,0.0,0.0,387.0,643.0,1.0,0,1970.0,0
1054,1054,-0.009838462138212156,-0.0,0.0,1.0,338.0,570.0,0.0,1,172.0,0
1055,1055,-0.39302978818996137,-0.4,1.0,0.0,489.0,923.0,0.0,0,-642.0,1
1056,1056,-0.5224708100836173,-0.5,0.0,1.0,401.0,563.0,0.0,1,-954.0,0
1057,1057,0.4580943195494941,0.5,1.0,1.0,307.0,807.0,0.0,0,-694.0,0
1058,1058,-0.14792554226818522,-0.1,0.0,1.0,285.0,651.0,0.0,1,-766.0,0
1059,1059,-0.7380559222017338,-0.7,0.0,1.0,455.0,998.0,0.0,1,-813.0,0
1060,1060,0.5416614995242482,0.5,0.0,0.0,426.0,938.0,0.0,1,986.0,1
1061,1061,0.3138251963297344,0.3,1.0,1.0,488.0,587.0,1.0,1,1925.0,1
1062,1062,0.8278670877612949,0.8,0.0,0.0,348.0,763.0,0.0,1,-901.0,1
1063,1063,-0.19672841328640356,-0.2,1.0,0.0,391.0,538.0,0.0,0,-499.0,1
1064,1064,0.4314971562357107,0.4,1.0,1.0,473.0,901.0,0.0,0,-1264.0,0
1065,1065,-0.6148554512349713,-0.6,1.0,0.0,470.0,549.0,0.0,0,-719.0,1
1066,1066,-0.8137351342652668,-0.8,0.0,1.0,333.0,676.0,0.0,1,-989.0,0
1067,1067,0.00281732055573658,0.0,1.0,1.0,417.0,847.0,0.0,0,-1194.0,0
1068,1068,0.4642769038848368,0.5,0.0,0.0,259.0,585.0,1.0,0,306.0,0
1069,1069,-0.1556684359887366,-0.2,1.0,0.0,317.0,752.0,0.0,0,1931.0,1
1070,1070,0.08700809790638842,0.1,1.0,1.0,324.0,717.0,0.0,0,-801.0,0
1071,1071,0.4096174168615879,0.4,1.0,1.0,260.0,737.0,0.0,0,1333.0,0
1072,1072,-0.003599600030882777,-0.0,0.0,1.0,334.0,924.0,0.0,1,2.0,0
1073,1073,0.6504262179766102,0.7,0.0,0.0,273.0,877.0,0.0,1,-630.0,1
1074,1074,-0.6719330057196174,-0.7,1.0,0.0,271.0,925.0,0.0,0,-756.0,1
1075,1075,0.7355128431996744,0.7,0.0,0.0,485.0,624.0,0.0,1,141.0,1
1076,1076,-0.21828054210450387,-0.2,1.0,0.0,288.0,822.0,0.0,0,160.0,1
1077,1077,0.8698155058343539,0.9,1.0,1.0,251.0,594.0,0.0,0,715.0,0
1078,1078,0.5901693345640521,0.6,1.0,1.0,254.0,595.0,0.0,0,-319.0,0
1079,1079,-0.7407989778227209,-0.7,0.0,1.0,467.0,836.0,0.0,1,-1173.0,0
1080,1080,0.3012575860517771,0.3,0.0,0.0,435.0,875.0,0.0,1,340.0,1
1081,1081,-0.10837545741372023,-0.1,1.0,0.0,424.0,678.0,0.0,0,-1072.0,1
1082,1082,0.7871710666358719,0.8,0.0,0.0,294.0,983.0,0.0,1,-1247.0,1
1083,1083,-0.21301668600401957,-0.2,1.0,0.0,455.0,955.0,0.0,0,-1180.0,1
1084,1084,-0.3044126729313875,-0.3,0.0,1.0,373.0,925.0,0.0,1,-778.0,0
1085,1085,0.454368829798249,0.5,1.0,1.0,491.0,832.0,0.0,0,-1303.0,0
1086,1086,-0.22333792523128326,-0.2,1.0,0.0,461.0,707.0,1.0,1,-8.0,0
1087,1087,0.48990775826665345,0.5,1.0,1.0,441.0,992.0,0.0,0,-923.0,0
1088,1088,0.22108066887432443,0.2,0.0,0.0,319.0,827.0,0.0,1,124.0,1
1089,1089,0.24600979169022186,0.2,0.0,0.0,390.0,618.0,0.0,1,-908.0,1
1090,1090,0.7128194032432619,0.7,1.0,1.0,372.0,537.0,0.0,0,-539.0,0
1091,1091,-0.3647738594320893,-0.4,0.0,1.0,290.0,917.0,0.0,1,-7.0,0
1092,1092,0.29742208313415597,0.3,1.0,1.0,337.0,799.0,0.0,0,24.0,0
1093,1093,0.7299374095187335,0.7,1.0,1.0,315.0,526.0,0.0,0,659.0,0
1094,1094,-0.7784596101128044,-0.8,1.0,0.0,274.0,860.0,0.0,0,306.0,1
1095,1095,0.3481855419193164,0.3,0.0,0.0,433.0,652.0,0.0,1,1555.0,1
1096,1096,0.877048906193829,0.9,1.0,1.0,391.0,813.0,0.0,0,-1174.0,0
1097,1097,-0.8160793609278926,-0.8,0.0,1.0,411.0,718.0,0.0,1,-509.0,0
1098,1098,0.26618409491476946,0.3,0.0,0.0,342.0,664.0,0.0,1,64.0,1
1099,1099,0.43466797545637326,0.4,0.0,0.0,319.0,676.0,0.0,1,565.0,1
1100,1100,-0.8067933367306407,-0.8,0.0,1.0,335.0,719.0,0.0,1,-44.0,0
1101,1101,-0.3835133421643482,-0.4,1.0,0.0,412.0,557.0,0.0,0,-399.0,1
1102,1102,-0.8291507870941811,-0.8,1.0,0.0,385.0,949.0,1.0,1,1666.0,0
1103,1103,0.594768059279685,0.6,1.0,1.0,434.0,615.0,0.0,0,1701.0,0
1104,1104,0.501469836636015,0.5,0.0,0.0,425.0,896.0,0.0,1,-1.0,1
1105,1105,0.7768386213008017,0.8,0.0,0.0,480.0,865.0,0.0,1,1385.0,1
1106,1106,0.025024875432087534,0.0,0.0,0.0,371.0,981.0,0.0,1,-1122.0,1
1107,1107,-0.5393719975513132,-0.5,0.0,1.0,409.0,703.0,0.0,1,-692.0,0
1108,1108,-0.4421141722156093,-0.4,1.0,0.0,317.0,716.0,0.0,0,-663.0,1
1109,1109,-0.34036691871120406,-0.3,1.0,0.0,380.0,742.0,1.0,1,-312.0,0
1110,1110,0.0017565987375690595,0.0,0.0,0.0,318.0,766.0,1.0,0,-184.0,0
1111,1111,0.3473733537745133,0.3,1.0,1.0,268.0,540.0,0.0,0,-728.0,0
1112,1112,0.8207758665979575,0.8,0.0,0.0,473.0,961.0,0.0,1,396.0,1
1113,1113,-0.4690731554304292,-0.5,0.0,1.0,477.0,567.0,0.0,1,-884.0,0
1114,1114,0.32179768135055997,0.3,0.0,0.0,366.0,655.0,1.0,0,139.0,0
1115,1115,-0.5837475879158327,-0.6,0.0,1.0,338.0,769.0,0.0,1,-867.0,0
1116,1116,-0.5291502959416898,-0.5,0.0,1.0,371.0,913.0,0.0,1,-474.0,0
1117,1117,0.35644267628139936,0.4,0.0,0.0,340.0,678.0,0.0,1,-338.0,1
1118,1118,-0.053376513198629905,-0.1,1.0,0.0,407.0,939.0,0.0,0,664.0,1
1119,1119,-0.12890564102179458,-0.1,0.0,1.0,256.0,546.0,0.0,1,-732.0,0
1120,1120,-0.08576030661708378,-0.1,0.0,1.0,331.0,713.0,0.0,1,606.0,0
1121,1121,-0.44448503927732846,-0.4,0.0,1.0,340.0,869.0,0.0,1,271.0,0
1122,1122,-0.10207603588455982,-0.1,1.0,0.0,448.0,531.0,0.0,0,-49.0,1
1123,1123,-0.0818771842322914,-0.1,1.0,0.0,462.0,838.0,1.0,1,1560.0,0
1124,1124,0.2183450737579652,0.2,1.0,1.0,250.0,595.0,0.0,0,-195.0,0
1125,1125,0.8774843205137403,0.9,1.0,1.0,495.0,914.0,0.0,0,-1369.0,0
1126,1126,0.628554512605873,0.6,1.0,1.0,309.0,695.0,0.0,0,836.0,0
1127,1127,0.4537238215116176,0.5,0.0,0.0,256.0,885.0,0.0,1,-881.0,1
1128,1128,0.15772625895450376,0.2,0.0,0.0,454.0,565.0,0.0,1,-999.0,1
1129,1129,0.6956907710105823,0.7,0.0,0.0,385.0,508.0,1.0,0,1097.0,0
1130,1130,-0.45433149703551273,-0.5,0.0,1.0,351.0,703.0,0.0,1,-824.0,0
1131,1131,0.8578862085440547,0.9,0.0,0.0,464.0,696.0,1.0,0,1840.0,0
1132,1132,0.6622230196594677,0.7,1.0,1.0,344.0,678.0,0.0,0,188.0,0
1133,1133,0.1596871093801856,0.2,1.0,1.0,448.0,518.0,0.0,0,-646.0,0
1134,1134,0.3715413626758851,0.4,1.0,1.0,473.0,756.0,0.0,0,-1169.0,0
1135,1135,0.8842834457389791,0.9,0.0,0.0,302.0,794.0,0.0,1,-816.0,1
1136,1136,0.4778270061209703,0.5,1.0,1.0,454.0,597.0,0.0,0,-621.0,0
1137,1137,0.21832883193076047,0.2,0.0,0.0,414.0,745.0,0.0,1,-889.0,1
1138,1138,0.8147331539368067,0.8,0.0,0.0,491.0,849.0,1.0,0,-880.0,0
1139,1139,0.45074141653188227,0.5,1.0,1.0,291.0,777.0,0.0,0,-1008.0,0
1140,1140,-0.11907794632880442,-0.1,0.0,1.0,369.0,531.0,0.0,1,-610.0,0
1141,1141,0.6227637964423632,0.6,1.0,1.0,472.0,898.0,0.0,0,-40.0,0
1142,1142,0.2982403017860943,0.3,0.0,0.0,364.0,717.0,0.0,1,1919.0,1
1143,1143,-0.8202783963329807,-0.8,0.0,1.0,374.0,722.0,0.0,1,-686.0,0
1144,1144,0.3835645234877799,0.4,0.0,0.0,354.0,613.0,0.0,1,-137.0,1
1145,1145,0.5733719467506581,0.6,0.0,0.0,257.0,957.0,0.0,1,496.0,1
1146,1146,0.6353055627685603,0.6,1.0,1.0,455.0,705.0,0.0,0,-1130.0,0
1147,1147,-0.5871419939768119,-0.6,1.0,0.0,413.0,756.0,1.0,1,511.0,0
1148,1148,0.41128896004221016,0.4,1.0,1.0,329.0,983.0,0.0,0,-582.0,0
1149,1149,0.661506130642893,0.7,1.0,1.0,391.0,523.0,0.0,0,-634.0,0
1150,1150,-0.5135343978988942,-0.5,1.0,0.0,290.0,923.0,0.0,0,-1203.0,1
1151,1151,-0.649827733736511,-0.6,0.0,1.0,476.0,623.0,0.0,1,-949.0,0
1152,1152,-0.20848045617003863,-0.2,0.0,1.0,485.0,616.0,1.0,0,1819.0,1
1153,1153,-0.7148544179304079,-0.7,1.0,0.0,459.0,929.0,0.0,0,-1018.0,1
1154,1154,-0.6004237636008032,-0.6,1.0,0.0,426.0,584.0,0.0,0,980.0,1
1155,1155,-0.5760556728678512,-0.6,0.0,1.0,267.0,703.0,1.0,0,-220.0,1
1156,1156,-0.39756609952706246,-0.4,0.0,1.0,433.0,598.0,1.0,0,579.0,1
1157,1157,0.8918860238225957,0.9,0.0,0.0,476.0,547.0,0.0,1,1177.0,1
1158,1158,0.4277528885438654,0.4,0.0,0.0,345.0,802.0,0.0,1,1853.0,1
1159,1159,-0.8072259741141239,-0.8,0.0,1.0,363.0,700.0,0.0,1,-823.0,0
1160,1160,0.11079856701227875,0.1,1.0,1.0,299.0,895.0,0.0,0,-614.0,0
1161,1161,0.5191027363910069,0.5,0.0,0.0,300.0,876.0,0.0,1,1824.0,1
1162,1162,-0.11543425545737374,-0.1,1.0,0.0,314.0,817.0,0.0,0,-1111.0,1
1163,1163,0.3769991276154451,0.4,1.0,1.0,434.0,764.0,1.0,1,-838.0,1
1164,1164,-0.7959130733709019,-0.8,1.0,0.0,287.0,565.0,0.0,0,168.0,1
1165,1165,0.30242724352277117,0.3,0.0,0.0,381.0,930.0,0.0,1,-1181.0,1
1166,1166,0.6234129767151791,0.6,0.0,0.0,380.0,802.0,1.0,0,1818.0,0
1167,1167,0.874914719543438,0.9,1.0,1.0,295.0,968.0,0.0,0,-33.0,0
1168,1168,0.7674437146891907,0.8,0.0,0.0,253.0,716.0,0.0,1,-659.0,1
1169,1169,-0.26489983847490406,-0.3,0.0,1.0,444.0,926.0,0.0,1,1630.0,0
1170,1170,-0.3786626382575513,-0.4,1.0,0.0,480.0,987.0,0.0,0,-1447.0,1
1171,1171,-0.6113117553698577,-0.6,0.0,1.0,397.0,985.0,0.0,1,-1252.0,0
1172,1172,0.541334368118881,0.5,1.0,1.0,445.0,984.0,0.0,0,-1409.0,0
1173,1173,0.07493409728789169,0.1,1.0,1.0,272.0,737.0,1.0,1,-779.0,1
1174,1174,-0.23671768622567868,-0.2,0.0,1.0,445.0,556.0,0.0,1,-991.0,0
1175,1175,0.7403089711179848,0.7,0.0,0.0,326.0,773.0,0.0,1,1901.0,1
1176,1176,0.41593238939272614,0.4,1.0,1.0,283.0,937.0,0.0,0,-550.0,0
1177,1177,0.8731820609915871,0.9,0.0,0.0,344.0,853.0,0.0,1,583.0,1
1178,1178,0.7831588668191499,0.8,1.0,1.0,441.0,591.0,0.0,0,1178.0,0
1179,1179,-0.6767912998314836,-0.7,1.0,0.0,328.0,656.0,0.0,0,316.0,1
1180,1180,0.6360072029971068,0.6,1.0,1.0,403.0,684.0,0.0,0,-817.0,0
1181,1181,0.50078893946494,0.5,0.0,0.0,434.0,984.0,1.0,0,-1028.0,0
1182,1182,0.4340255897430835,0.4,1.0,1.0,286.0,571.0,1.0,1,2143.0,1
1183,1183,0.8926875519025678,0.9,1.0,1.0,388.0,808.0,0.0,0,124.0,0
1184,1184,0.8818050218541044,0.9,0.0,0.0,436.0,985.0,0.0,1,-431.0,1
1185,1185,-0.2071931499051901,-0.2,1.0,0.0,339.0,885.0,0.0,0,-494.0,1
1186,1186,0.298391649240339,0.3,0.0,0.0,453.0,991.0,0.0,1,-1394.0,1
1187,1187,0.3978288386841581,0.4,1.0,1.0,331.0,695.0,0.0,0,-826.0,0
1188,1188,0.22938689341835128,0.2,0.0,0.0,442.0,941.0,0.0,1,-993.0,1
1189,1189,0.34861081542221817,0.3,0.0,0.0,274.0,853.0,0.0,1,1773.0,1
1190,1190,0.019775334677354484,0.0,1.0,1.0,427.0,642.0,0.0,0,1931.0,0
1191,1191,-0.5944102627722929,-0.6,1.0,0.0,360.0,620.0,0.0,0,710.0,1
1192,1192,0.3452794792152972,0.3,1.0,1.0,315.0,787.0,0.0,0,-692.0,0
1193,1193,0.8720316323066474,0.9,1.0,1.0,465.0,814.0,1.0,1,-669.0,1
1194,1194,-0.059497194415677024,-0.1,1.0,0.0,299.0,680.0,0.0,0,151.0,1
1195,1195,0.7578215203451525,0.8,0.0,0.0,494.0,507.0,0.0,1,-201.0,1
1196,1196,-0.4914172225362254,-0.5,0.0,1.0,353.0,838.0,0.0,1,-681.0,0
1197,1197,-0.8554835400366212,-0.9,0.0,1.0,478.0,624.0,0.0,1,-72.0,0
1198,1198,0.16770450518770186,0.2,0.0,0.0,478.0,692.0,1.0,0,1830.0,0
1199,1199,0.6190125246287287,0.6,1.0,1.0,486.0,877.0,0.0,0,387.0,0
1200,1200,0.1447240819330743,0.1,0.0,0.0,333.0,588.0,0.0,1,-191.0,1
1201,1201,0.5468459403387299,0.5,1.0,1.0,454.0,513.0,1.0,1,-277.0,1
1202,1202,0.7910754255442062,0.8,1.0,1.0,436.0,943.0,0.0,0,-419.0,0
1203,1203,-0.5152565382747434,-0.5,1.0,0.0,367.0,603.0,1.0,1,-220.0,0
1204,1204,0.4624564586256944,0.5,0.0,0.0,467.0,768.0,0.0,1,-1065.0,1
1205,1205,0.6355719414363917,0.6,1.0,1.0,412.0,531.0,0.0,0,697.0,0
1206,1206,0.18699476958493844,0.2,0.0,0.0,271.0,729.0,1.0,0,-230.0,0
1207,1207,-0.4017262001589889,-0.4,0.0,1.0,321.0,790.0,0.0,1,-1091.0,0
1208,1208,-0.7915467211738518,-0.8,1.0,0.0,448.0,998.0,0.0,0,-1196.0,1
1209,1209,0.6264871975316605,0.6,0.0,0.0,259.0,593.0,0.0,1,148.0,1
1210,1210,0.08554376418214982,0.1,1.0,1.0,347.0,735.0,0.0,0,1368.0,0
1211,1211,-0.5927228511989703,-0.6,1.0,0.0,349.0,999.0,0.0,0,-608.0,1
1212,1212,-0.3043791204761541,-0.3,0.0,1.0,385.0,903.0,1.0,0,-878.0,1
1213,1213,-0.5354245759972511,-0.5,1.0,0.0,340.0,725.0,1.0,1,-805.0,0
1214,1214,-0.36110815395671114,-0.4,0.0,1.0,407.0,868.0,0.0,1,-1195.0,0
1215,1215,0.13465754035938937,0.1,0.0,0.0,284.0,947.0,0.0,1,199.0,1
1216,1216,-0.6114500163914829,-0.6,0.0,1.0,320.0,623.0,1.0,0,767.0,1
1217,1217,-0.5489392871195493,-0.5,0.0,1.0,403.0,797.0,0.0,1,-910.0,0
1218,1218,-0.6314385684931674,-0.6,0.0,1.0,454.0,823.0,0.0,1,-397.0,0
1219,1219,-0.4150769819644206,-0.4,0.0,1.0,465.0,605.0,0.0,1,-710.0,0
1220,1220,0.5851411081789532,0.6,1.0,1.0,293.0,808.0,0.0,0,599.0,0
1221,1221,0.7975250877353507,0.8,0.0,0.0,372.0,920.0,0.0,1,438.0,1
1222,1222,0.6885974607048676,0.7,1.0,1.0,423.0,501.0,0.0,0,356.0,0
1223,1223,0.5535629640379033,0.6,1.0,1.0,283.0,521.0,0.0,0,-94.0,0
1224,1224,-0.8236220233305076,-0.8,0.0,1.0,451.0,619.0,1.0,0,-1030.0,1
1225,1225,0.08631877738497518,0.1,1.0,1.0,484.0,961.0,0.0,0,-485.0,0
1226,1226,-0.4177721653194818,-0.4,0.0,1.0,317.0,722.0,0.0,1,-99.0,0
1227,1227,-0.2013090042414578,-0.2,1.0,0.0,440.0,702.0,0.0,0,1268.0,1
1228,1228,-0.6297348064856187,-0.6,0.0,1.0,381.0,840.0,0.0,1,-581.0,0
1229,1229,-0.03963385586357249,-0.0,1.0,0.0,281.0,662.0,1.0,1,2057.0,0
1230,1230,-0.3439652225437052,-0.3,1.0,0.0,363.0,595.0,1.0,1,-348.0,0
1231,1231,0.6880745733769281,0.7,0.0,0.0,449.0,751.0,0.0,1,1280.0,1
1232,1232,-0.5355167656636737,-0.5,1.0,0.0,351.0,740.0,1.0,1,579.0,0
1233,1233,0.48738619462347554,0.5,0.0,0.0,490.0,574.0,0.0,1,-1044.0,1
1234,1234,0.8515687603337049,0.9,1.0,1.0,408.0,744.0,0.0,0,-502.0,0
1235,1235,0.3343466855345182,0.3,0.0,0.0,349.0,500.0,0.0,1,-479.0,1
1236,1236,0.36775457901218866,0.4,1.0,1.0,293.0,853.0,0.0,0,-876.0,0
1237,1237,0.7523848531913037,0.8,0.0,0.0,384.0,537.0,0.0,1,1349.0,1
1238,1238,-0.0698413541834948,-0.1,1.0,0.0,312.0,743.0,0.0,0,455.0,1
1239,1239,-0.07737220484931584,-0.1,1.0,0.0,373.0,844.0,0.0,0,-927.0,1
1240,1240,-0.7442740467391568,-0.7,0.0,1.0,369.0,888.0,1.0,0,-527.0,1
1241,1241,-0.7848409457882847,-0.8,0.0,1.0,304.0,699.0,0.0,1,1517.0,0
1242,1242,0.6873987871865935,0.7,1.0,1.0,344.0,542.0,0.0,0,354.0,0
1243,1243,0.4634877082136629,0.5,0.0,0.0,463.0,574.0,0.0,1,-747.0,1
1244,1244,-0.8576088991525974,-0.9,1.0,0.0,319.0,899.0,0.0,0,152.0,1
1245,1245,0.26622804173466175,0.3,1.0,1.0,351.0,589.0,0.0,0,-730.0,0
1246,1246,0.26897091111686355,0.3,1.0,1.0,491.0,554.0,0.0,0,-305.0,0
1247,1247,0.08426171116006664,0.1,0.0,0.0,389.0,531.0,0.0,1,1140.0,1
1248,1248,-0.0808168433203924,-0.1,1.0,0.0,482.0,919.0,0.0,0,-981.0,1
1249,1249,0.22138673831627387,0.2,1.0,1.0,277.0,848.0,0.0,0,-965.0,0
1250,1250,-0.18768735028761985,-0.2,0.0,1.0,262.0,555.0,0.0,1,333.0,0
1251,1251,0.2985124915902245,0.3,1.0,1.0,452.0,922.0,0.0,0,996.0,0
1252,1252,-0.8545983937531488,-0.9,1.0,0.0,279.0,625.0,0.0,0,-814.0,1
1253,1253,-0.4034049230974494,-0.4,0.0,1.0,306.0,730.0,0.0,1,964.0,0
1254,1254,-0.8693095814928363,-0.9,1.0,0.0,449.0,718.0,0.0,0,1833.0,1
1255,1255,0.08571915575689659,0.1,0.0,0.0,363.0,613.0,0.0,1,194.0,1
1256,1256,0.4489173720604994,0.4,1.0,1.0,361.0,845.0,0.0,0,-596.0,0
1257,1257,-0.13713874439931395,-0.1,1.0,0.0,308.0,917.0,0.0,0,-865.0,1
1258,1258,0.7558839931295541,0.8,1.0,1.0,402.0,977.0,1.0,1,-699.0,1
1259,1259,-0.6248134013562157,-0.6,1.0,0.0,382.0,923.0,0.0,0,-995.0,1
1260,1260,-0.6451854236812344,-0.6,0.0,1.0,369.0,948.0,1.0,0,1163.0,1
1261,1261,-0.7173910202680578,-0.7,0.0,1.0,462.0,911.0,0.0,1,-73.0,0
1262,1262,-0.08735095489259848,-0.1,0.0,1.0,450.0,968.0,0.0,1,-8.0,0
1263,1263,-0.1528938623257301,-0.2,0.0,1.0,468.0,962.0,0.0,1,280.0,0
1264,1264,0.8955136968733001,0.9,0.0,0.0,445.0,982.0,0.0,1,-817.0,1
1265,1265,-0.10717212997362935,-0.1,0.0,1.0,484.0,764.0,0.0,1,-848.0,0
1266,1266,-0.6911755347716344,-0.7,0.0,1.0,250.0,754.0,1.0,0,86.0,1
1267,1267,0.4259626653491594,0.4,0.0,0.0,317.0,795.0,0.0,1,-512.0,1
1268,1268,0.29278661118877924,0.3,1.0,1.0,413.0,533.0,0.0,0,-36.0,0
1269,1269,0.6742578518390544,0.7,0.0,0.0,371.0,705.0,1.0,0,1924.0,0
1270,1270,0.5297313016277124,0.5,0.0,0.0,468.0,734.0,1.0,0,-392.0,0
1271,1271,0.894041010660659,0.9,1.0,1.0,268.0,758.0,0.0,0,1034.0,0
1272,1272,-0.49486399677501347,-0.5,0.0,1.0,384.0,965.0,0.0,1,-1169.0,0
1273,1273,-0.8997035893167241,-0.9,1.0,0.0,386.0,657.0,0.0,0,387.0,1
1274,1274,0.2340674394119081,0.2,1.0,1.0,455.0,670.0,0.0,0,-545.0,0
1275,1275,0.26672947023059856,0.3,0.0,0.0,314.0,638.0,0.0,1,-802.0,1
1276,1276,-0.7105839384334774,-0.7,1.0,0.0,342.0,548.0,0.0,0,1290.0,1
1277,1277,-0.8209636654938957,-0.8,1.0,0.0,318.0,668.0,1.0,1,-946.0,0
1278,1278,0.7326596788115304,0.7,0.0,0.0,397.0,951.0,0.0,1,-968.0,1
1279,1279,0.7518959861234032,0.8,1.0,1.0,474.0,847.0,0.0,0,1189.0,0
1280,1280,-0.48969166843302475,-0.5,0.0,1.0,313.0,514.0,0.0,1,563.0,0
1281,1281,-0.24033232684202255,-0.2,1.0,0.0,459.0,947.0,0.0,0,-1386.0,1
1282,1282,0.35218564312447154,0.4,0.0,0.0,494.0,851.0,1.0,0,-45.0,0
1283,1283,0.0828363409078623,0.1,0.0,0.0,278.0,888.0,0.0,1,-166.0,1
1284,1284,0.08649074777031573,0.1,0.0,0.0,388.0,510.0,0.0,1,-28.0,1
1285,1285,0.20690149986311146,0.2,0.0,0.0,353.0,763.0,0.0,1,-1096.0,1
1286,1286,0.6038756656243097,0.6,1.0,1.0,444.0,921.0,1.0,1,485.0,1
1287,1287,0.15336353288604132,0.2,1.0,1.0,472.0,617.0,0.0,0,181.0,0
1288,1288,-0.7526278432412912,-0.8,0.0,1.0,407.0,960.0,0.0,1,-937.0,0
1289,1289,-0.23186685876148017,-0.2,0.0,1.0,307.0,890.0,1.0,0,1803.0,1
1290,1290,-0.5688857603763071,-0.6,0.0,1.0,423.0,680.0,0.0,1,-513.0,0
1291,1291,-0.21099164224651368,-0.2,0.0,1.0,256.0,901.0,1.0,0,1843.0,1
1292,1292,-0.027014611801897903,-0.0,0.0,1.0,389.0,659.0,0.0,1,862.0,0
1293,1293,-0.3065527408460692,-0.3,1.0,0.0,254.0,598.0,0.0,0,678.0,1
1294,1294,0.16097157208949964,0.2,1.0,1.0,463.0,612.0,1.0,1,1925.0,1
1295,1295,0.856010272908522,0.9,0.0,0.0,397.0,813.0,1.0,0,1370.0,0
1296,1296,-0.16724631491130815,-0.2,0.0,1.0,443.0,570.0,1.0,0,1987.0,1
1297,1297,0.10505046329115408,0.1,1.0,1.0,425.0,901.0,0.0,0,214.0,0
1298,1298,-0.5715890461395867,-0.6,1.0,0.0,402.0,537.0,0.0,0,521.0,1
1299,1299,0.1031330102888991,0.1,0.0,0.0,334.0,697.0,0.0,1,-711.0,1
1300,1300,-0.6011033078899181,-0.6,0.0,1.0,328.0,578.0,0.0,1,264.0,0
1301,1301,-0.0131610261744739,-0.0,1.0,0.0,325.0,814.0,1.0,1,801.0,0
1302,1302,-0.7095290814889572,-0.7,0.0,1.0,421.0,705.0,0.0,1,284.0,0
1303,1303,0.8570347774712664,0.9,1.0,1.0,270.0,538.0,0.0,0,62.0,0
1304,1304,0.7918086192581603,0.8,0.0,0.0,277.0,590.0,0.0,1,1053.0,1
1305,1305,0.33298087808471666,0.3,1.0,1.0,314.0,743.0,0.0,0,773.0,0
1306,1306,0.4234343928091432,0.4,0.0,0.0,410.0,801.0,0.0,1,349.0,1
1307,1307,-0.6836412181520433,-0.7,0.0,1.0,391.0,943.0,0.0,1,-994.0,0
1308,1308,-0.6812976441473787,-0.7,1.0,0.0,487.0,624.0,1.0,1,609.0,0
1309,1309,-0.24800685177279536,-0.2,1.0,0.0,373.0,541.0,0.0,0,996.0,1
1310,1310,-0.8766267482275819,-0.9,0.0,1.0,354.0,735.0,0.0,1,-19.0,0
1311,1311,-0.5431480154373725,-0.5,1.0,0.0,262.0,604.0,0.0,0,-816.0,1
1312,1312,0.6539254210107911,0.7,0.0,0.0,381.0,529.0,1.0,0,1630.0,0
1313,1313,-0.7729591649554246,-0.8,0.0,1.0,268.0,652.0,0.0,1,-120.0,0
1314,1314,-0.3159249239778925,-0.3,1.0,0.0,453.0,669.0,0.0,0,-82.0,1
1315,1315,-0.3608065027969163,-0.4,1.0,0.0,255.0,578.0,0.0,0,-423.0,1
1316,1316,-0.07950155677197401,-0.1,1.0,0.0,418.0,654.0,0.0,0,-982.0,1
1317,1317,-0.500710526153701,-0.5,0.0,1.0,354.0,894.0,0.0,1,-288.0,0
1318,1318,-0.8573036663675332,-0.9,1.0,0.0,384.0,827.0,0.0,0,1659.0,1
1319,1319,-0.00037343356634766955,-0.0,1.0,0.0,396.0,713.0,1.0,1,1641.0,0
1320,1320,-0.791024644142025,-0.8,1.0,0.0,280.0,649.0,0.0,0,-869.0,1
1321,1321,0.2044125725662581,0.2,1.0,1.0,312.0,554.0,1.0,1,-806.0,1
1322,1322,0.25119217114384995,0.3,1.0,1.0,261.0,741.0,1.0,1,-702.0,1
1323,1323,0.7915545297725485,0.8,1.0,1.0,482.0,983.0,0.0,0,-5.0,0
1324,1324,0.040031142844834444,0.0,0.0,0.0,357.0,844.0,0.0,1,-921.0,1
1325,1325,-0.8733430798263062,-0.9,1.0,0.0,271.0,582.0,0.0,0,-833.0,1
1326,1326,0.3462578091524212,0.3,0.0,0.0,329.0,734.0,1.0,0,1937.0,0
1327,1327,0.4951888499018565,0.5,0.0,0.0,397.0,632.0,0.0,1,1491.0,1
1328,1328,0.02784447137675483,0.0,0.0,0.0,486.0,660.0,0.0,1,-1036.0,1
1329,1329,0.38235437014981544,0.4,0.0,0.0,445.0,933.0,1.0,0,-128.0,0
1330,1330,0.8439228993049169,0.8,0.0,0.0,451.0,786.0,0.0,1,-327.0,1
1331,1331,-0.4903094374638524,-0.5,1.0,0.0,286.0,891.0,0.0,0,1163.0,1
1332,1332,-0.12130445169985482,-0.1,0.0,1.0,394.0,618.0,0.0,1,-842.0,0
1333,1333,-0.8771239708885977,-0.9,1.0,0.0,474.0,913.0,1.0,1,383.0,0
1334,1334,-0.8928830909783476,-0.9,1.0,0.0,375.0,770.0,0.0,0,-745.0,1
1335,1335,0.4206494806929201,0.4,1.0,1.0,426.0,754.0,0.0,0,1780.0,0
1336,1336,-0.11643324385301856,-0.1,1.0,0.0,365.0,601.0,0.0,0,-376.0,1
1337,1337,-0.36354423162990257,-0.4,1.0,0.0,463.0,913.0,0.0,0,-746.0,1
1338,1338,-0.01803811040440506,-0.0,0.0,1.0,344.0,625.0,1.0,0,551.0,1
1339,1339,0.4540476172150013,0.5,0.0,0.0,481.0,643.0,0.0,1,-664.0,1
1340,1340,-0.8001759046664018,-0.8,1.0,0.0,481.0,731.0,0.0,0,-212.0,1
1341,1341,-0.8947697977805751,-0.9,0.0,1.0,329.0,665.0,1.0,0,-814.0,1
1342,1342,0.24323594393381598,0.2,1.0,1.0,380.0,786.0,1.0,1,1834.0,1
1343,1343,-0.4382862034968806,-0.4,1.0,0.0,434.0,559.0,1.0,1,367.0,0
1344,1344,0.19398595173844313,0.2,1.0,1.0,397.0,787.0,0.0,0,-924.0,0
1345,1345,0.7014654259703875,0.7,1.0,1.0,377.0,953.0,0.0,0,1110.0,0
1346,1346,-0.04263942804787435,-0.0,0.0,1.0,404.0,639.0,0.0,1,907.0,0
1347,1347,-0.7546708288402861,-0.8,1.0,0.0,407.0,723.0,0.0,0,-940.0,1
1348,1348,-0.28711013943396924,-0.3,1.0,0.0,362.0,619.0,0.0,0,1729.0,1
1349,1349,-0.0732168510292951,-0.1,1.0,0.0,296.0,659.0,0.0,0,925.0,1
1350,1350,-0.6236544141944718,-0.6,0.0,1.0,419.0,605.0,0.0,1,-544.0,0
1351,1351,-0.6401740646277285,-0.6,1.0,0.0,379.0,657.0,0.0,0,74.0,1
1352,1352,0.10783501453479272,0.1,0.0,0.0,301.0,840.0,1.0,0,1459.0,0
1353,1353,0.3976137691652969,0.4,1.0,1.0,276.0,533.0,0.0,0,951.0,0
1354,1354,0.09700322481075196,0.1,0.0,0.0,471.0,582.0,0.0,1,1947.0,1
1355,1355,0.3858172376489132,0.4,0.0,0.0,358.0,573.0,0.0,1,-71.0,1
1356,1356,-0.8327437235889597,-0.8,1.0,0.0,285.0,970.0,1.0,1,-545.0,0
1357,1357,0.8810084246435622,0.9,0.0,0.0,390.0,888.0,0.0,1,-1048.0,1
1358,1358,0.5868844772172005,0.6,0.0,0.0,441.0,840.0,0.0,1,-1281.0,1
1359,1359,0.8111626087463258,0.8,1.0,1.0,299.0,895.0,0.0,0,1806.0,0
1360,1360,0.5845953642401948,0.6,1.0,1.0,491.0,663.0,0.0,0,46.0,0
1361,1361,0.41935421106688164,0.4,0.0,0.0,351.0,914.0,0.0,1,1415.0,1
1362,1362,0.8231035873580331,0.8,0.0,0.0,397.0,505.0,0.0,1,-782.0,1
1363,1363,0.47256123400843164,0.5,1.0,1.0,413.0,716.0,0.0,0,-1129.0,0
1364,1364,-0.8863456295952656,-0.9,1.0,0.0,405.0,552.0,0.0,0,-477.0,1
1365,1365,0.6997711118836673,0.7,0.0,0.0,382.0,548.0,0.0,1,100.0,1
1366,1366,0.8807224107476338,0.9,0.0,0.0,312.0,921.0,1.0,0,1767.0,0
1367,1367,0.732429554808076,0.7,0.0,0.0,492.0,751.0,0.0,1,787.0,1
1368,1368,0.7658932036532423,0.8,1.0,1.0,279.0,886.0,1.0,1,-925.0,1
1369,1369,-0.31766741315969327,-0.3,0.0,1.0,368.0,527.0,0.0,1,735.0,0
1370,1370,-0.8834153446964921,-0.9,1.0,0.0,465.0,600.0,0.0,0,435.0,1
1371,1371,-0.4035539467787457,-0.4,1.0,0.0,265.0,858.0,0.0,0,-593.0,1
1372,1372,0.06453454622474952,0.1,0.0,0.0,493.0,858.0,0.0,1,-1231.0,1
1373,1373,0.20566867744504702,0.2,1.0,1.0,372.0,718.0,0.0,0,1910.0,0
1374,1374,0.47301147220281303,0.5,0.0,0.0,332.0,629.0,1.0,0,-941.0,0
1375,1375,0.10791347361856041,0.1,0.0,0.0,475.0,686.0,1.0,0,-951.0,0
1376,1376,-0.4316244652704493,-0.4,0.0,1.0,488.0,894.0,0.0,1,298.0,0
1377,1377,-0.34741943726815816,-0.3,0.0,1.0,329.0,834.0,0.0,1,-1023.0,0
1378,1378,0.7398411728526239,0.7,0.0,0.0,319.0,750.0,0.0,1,1931.0,1
1379,1379,-0.22220951930905086,-0.2,1.0,0.0,353.0,681.0,0.0,0,-224.0,1
1380,1380,-0.49368619923363605,-0.5,0.0,1.0,471.0,780.0,0.0,1,269.0,0
1381,1381,-0.8357965518845815,-0.8,1.0,0.0,313.0,636.0,1.0,1,-819.0,0
1382,1382,0.5115999817986766,0.5,0.0,0.0,447.0,643.0,1.0,0,1640.0,0
1383,1383,-0.46330990699142405,-0.5,0.0,1.0,424.0,745.0,1.0,0,1831.0,1
1384,1384,0.07139286061684502,0.1,1.0,1.0,495.0,875.0,0.0,0,-1040.0,0
1385,1385,0.273977654542214,0.3,0.0,0.0,386.0,884.0,0.0,1,-1150.0,1
1386,1386,0.5318647313202919,0.5,1.0,1.0,263.0,537.0,1.0,1,1930.0,1
1387,1387,-0.2792286228745645,-0.3,1.0,0.0,306.0,621.0,0.0,0,383.0,1
1388,1388,0.5253091307610892,0.5,0.0,0.0,444.0,601.0,1.0,0,-15.0,0
1389,1389,0.27966750029360965,0.3,1.0,1.0,301.0,600.0,0.0,0,-421.0,0
1390,1390,-0.34288760301125687,-0.3,1.0,0.0,325.0,886.0,1.0,1,1789.0,0
1391,1391,0.5383379986130924,0.5,1.0,1.0,261.0,683.0,1.0,1,-584.0,1
1392,1392,0.5134495235541611,0.5,1.0,1.0,452.0,960.0,0.0,0,-782.0,0
1393,1393,0.812235838270955,0.8,0.0,0.0,485.0,930.0,0.0,1,-955.0,1
1394,1394,0.12499070418860125,0.1,1.0,1.0,320.0,848.0,0.0,0,-868.0,0
1395,1395,-0.6016885365186035,-0.6,1.0,0.0,258.0,582.0,1.0,1,-150.0,0
1396,1396,-0.30668069717387436,-0.3,0.0,1.0,405.0,728.0,0.0,1,207.0,0
1397,1397,-0.11577778641451597,-0.1,0.0,1.0,316.0,917.0,0.0,1,-1113.0,0
1398,1398,-0.6858529257858256,-0.7,0.0,1.0,462.0,925.0,1.0,0,1613.0,1
1399,1399,-0.3612529809122855,-0.4,1.0,0.0,331.0,693.0,1.0,1,-864.0,0
1400,1400,-0.13969067337656882,-0.1,0.0,1.0,455.0,767.0,1.0,0,1058.0,1
1401,1401,-0.750188502250271,-0.8,0.0,1.0,340.0,548.0,0.0,1,-148.0,0
1402,1402,0.8500568055761858,0.9,1.0,1.0,257.0,776.0,0.0,0,-193.0,0
1403,1403,-0.04363425724808756,-0.0,0.0,1.0,465.0,643.0,0.0,1,-608.0,0
1404,1404,0.7437171881547137,0.7,1.0,1.0,469.0,908.0,0.0,0,-1287.0,0
1405,1405,-0.5378182035750206,-0.5,0.0,1.0,491.0,630.0,0.0,1,-731.0,0
1406,1406,-0.0648259384283636,-0.1,1.0,0.0,348.0,956.0,0.0,0,-1144.0,1
1407,1407,0.2302948607205616,0.2,1.0,1.0,351.0,626.0,0.0,0,503.0,0
1408,1408,0.19019199621245753,0.2,0.0,0.0,329.0,953.0,0.0,1,-82.0,1
1409,1409,0.24185461929478047,0.2,0.0,0.0,269.0,532.0,0.0,1,2199.0,1
1410,1410,-0.857471942152558,-0.9,0.0,1.0,304.0,928.0,0.0,1,-712.0,0
1411,1411,-0.6678798495224572,-0.7,1.0,0.0,356.0,979.0,0.0,0,-495.0,1
1412,1412,0.8255731734231041,0.8,1.0,1.0,310.0,556.0,0.0,0,1674.0,0
1413,1413,0.5677909310293064,0.6,0.0,0.0,421.0,968.0,1.0,0,871.0,0
1414,1414,0.03613912433447808,0.0,0.0,0.0,260.0,740.0,0.0,1,220.0,1
1415,1415,0.3624588191383923,0.4,0.0,0.0,352.0,587.0,0.0,1,891.0,1
1416,1416,-0.7335287781068529,-0.7,0.0,1.0,434.0,780.0,0.0,1,-994.0,0
1417,1417,-0.6521399451438935,-0.7,1.0,0.0,312.0,667.0,0.0,0,-769.0,1
1418,1418,-0.6055596470175826,-0.6,1.0,0.0,462.0,977.0,0.0,0,131.0,1
1419,1419,0.2473974637615598,0.2,1.0,1.0,450.0,578.0,0.0,0,962.0,0
1420,1420,0.43628035467268533,0.4,0.0,0.0,273.0,896.0,1.0,0,1831.0,0
1421,1421,-0.7196000528562736,-0.7,0.0,1.0,384.0,859.0,0.0,1,-653.0,0
1422,1422,-0.2998859392953701,-0.3,0.0,1.0,488.0,820.0,0.0,1,-458.0,0
1423,1423,-0.2957176530795804,-0.3,0.0,1.0,265.0,550.0,0.0,1,525.0,0
1424,1424,0.6366912414584923,0.6,1.0,1.0,284.0,804.0,0.0,0,822.0,0
1425,1425,-0.5374736026556186,-0.5,1.0,0.0,368.0,744.0,0.0,0,-132.0,1
1426,1426,4.8865145409249244e-05,0.0,0.0,0.0,448.0,507.0,0.0,1,-795.0,1
1427,1427,0.12312273867821999,0.1,1.0,1.0,418.0,515.0,1.0,1,-313.0,1
1428,1428,-0.8598546685193557,-0.9,0.0,1.0,479.0,661.0,0.0,1,-550.0,0
1429,1429,0.3756264065993732,0.4,1.0,1.0,462.0,693.0,0.0,0,215.0,0
1430,1430,-0.8447762285846108,-0.8,0.0,1.0,280.0,921.0,0.0,1,-511.0,0
1431,1431,-0.30384568163326797,-0.3,0.0,1.0,412.0,640.0,1.0,0,1948.0,1
1432,1432,0.5491493934346551,0.5,0.0,0.0,289.0,943.0,0.0,1,-212.0,1
1433,1433,0.748910029805956,0.7,1.0,1.0,282.0,836.0,0.0,0,-748.0,0
1434,1434,-0.8245134139336094,-0.8,0.0,1.0,449.0,930.0,0.0,1,-749.0,0
1435,1435,0.2762517071995435,0.3,0.0,0.0,361.0,850.0,0.0,1,319.0,1
1436,1436,-0.07319674998807779,-0.1,0.0,1.0,461.0,900.0,0.0,1,1089.0,0
1437,1437,-0.7364220754866506,-0.7,1.0,0.0,373.0,900.0,1.0,1,877.0,0
1438,1438,-0.7326595629344346,-0.7,0.0,1.0,383.0,523.0,0.0,1,1214.0,0
1439,1439,-0.23777706525797082,-0.2,0.0,1.0,442.0,579.0,0.0,1,239.0,0
1440,1440,0.5328268603312635,0.5,1.0,1.0,330.0,731.0,1.0,1,509.0,1
1441,1441,0.3888400616449549,0.4,1.0,1.0,379.0,701.0,0.0,0,-1030.0,0
1442,1442,0.8193415186706842,0.8,1.0,1.0,350.0,812.0,1.0,1,-1112.0,1
1443,1443,-0.14536980357889673,-0.1,1.0,0.0,273.0,675.0,0.0,0,292.0,1
1444,1444,-0.4828339169474824,-0.5,0.0,1.0,399.0,521.0,1.0,0,2080.0,1
1445,1445,-0.1899956558801713,-0.2,1.0,0.0,335.0,750.0,1.0,1,-205.0,0
1446,1446,0.24104305225947031,0.2,0.0,0.0,389.0,540.0,0.0,1,-649.0,1
1447,1447,-0.4314950833013639,-0.4,1.0,0.0,449.0,568.0,1.0,1,1983.0,0
1448,1448,0.833902606186033,0.8,1.0,1.0,474.0,621.0,1.0,1,45.0,1
1449,1449,0.32046857109495763,0.3,1.0,1.0,278.0,990.0,0.0,0,-1238.0,0
1450,1450,-0.2568763868547388,-0.3,1.0,0.0,376.0,554.0,0.0,0,1350.0,1
1451,1451,0.8990190800105861,0.9,0.0,0.0,269.0,539.0,0.0,1,-458.0,1
1452,1452,-0.535345987445089,-0.5,1.0,0.0,384.0,556.0,0.0,0,-440.0,1
1453,1453,-0.41761666549853016,-0.4,0.0,1.0,376.0,976.0,0.0,1,-722.0,0
1454,1454,0.7455928369021693,0.7,0.0,0.0,486.0,862.0,0.0,1,-1268.0,1
1455,1455,0.7925019587636791,0.8,0.0,0.0,427.0,754.0,1.0,0,889.0,0
1456,1456,-0.014837719473116184,-0.0,0.0,1.0,410.0,526.0,0.0,1,-616.0,0
1457,1457,0.4777314362385855,0.5,0.0,0.0,317.0,734.0,0.0,1,-811.0,1
1458,1458,0.8932328035629163,0.9,1.0,1.0,459.0,628.0,0.0,0,-847.0,0
1459,1459,-0.8108710541114623,-0.8,1.0,0.0,390.0,608.0,0.0,0,1342.0,1
1460,1460,-0.5874536450508417,-0.6,0.0,1.0,358.0,611.0,0.0,1,-559.0,0
1461,1461,0.7129648882515437,0.7,0.0,0.0,446.0,626.0,0.0,1,278.0,1
1462,1462,-0.371415090857816,-0.4,1.0,0.0,327.0,785.0,1.0,1,1888.0,0
1463,1463,0.028455019024523298,0.0,0.0,0.0,308.0,675.0,0.0,1,127.0,1
1464,1464,-0.5299996183457467,-0.5,1.0,0.0,455.0,714.0,0.0,0,-849.0,1
1465,1465,0.4700902705673794,0.5,1.0,1.0,400.0,842.0,0.0,0,-672.0,0
1466,1466,0.24160755473228324,0.2,1.0,1.0,492.0,890.0,1.0,1,1618.0,1
1467,1467,-0.3117625779151252,-0.3,0.0,1.0,430.0,668.0,0.0,1,1082.0,0
1468,1468,-0.43756117600507455,-0.4,0.0,1.0,435.0,969.0,0.0,1,1546.0,0
1469,1469,-0.8576951763892761,-0.9,0.0,1.0,480.0,903.0,1.0,0,-733.0,1
1470,1470,-0.31461067486623784,-0.3,1.0,0.0,289.0,613.0,1.0,1,2098.0,0
1471,1471,-0.8193433196140746,-0.8,0.0,1.0,265.0,887.0,0.0,1,-362.0,0
1472,1472,0.24957442080407388,0.2,1.0,1.0,288.0,860.0,0.0,0,-558.0,0
1473,1473,-0.5652213412714148,-0.6,1.0,0.0,405.0,885.0,0.0,0,-870.0,1
1474,1474,0.292697065100996,0.3,0.0,0.0,487.0,712.0,0.0,1,-1189.0,1
1475,1475,0.6941729714169452,0.7,0.0,0.0,420.0,518.0,0.0,1,1092.0,1
1476,1476,-0.28320952892624984,-0.3,1.0,0.0,362.0,505.0,0.0,0,1003.0,1
