,trial,coherence,coherence_bin,green_side,correct_side,target_onset,checker_onset,decision,green_decision,decision_time,correct_decision
0,0,0.19088314097523906,0.2,0.0,0.0,347.0,935.0,0.0,1,998.0,1
1,1,0.48302193143420735,0.5,1.0,1.0,421.0,599.0,0.0,0,-20.0,0
2,2,-0.5807222895108062,-0.6,1.0,0.0,302.0,895.0,0.0,0,143.0,1
3,3,-0.008693911927350584,-0.0,0.0,1.0,349.0,522.0,0.0,1,2129.0,0
4,4,-0.35652897934102146,-0.4,1.0,0.0,297.0,816.0,0.0,0,397.0,1
5,5,-0.26904491434401845,-0.3,1.0,0.0,349.0,565.0,0.0,0,636.0,1
6,6,0.33373331093346714,0.3,0.0,0.0,290.0,980.0,0.0,1,330.0,1
7,7,-0.5868539282422021,-0.6,1.0,0.0,360.0,759.0,0.0,0,181.0,1
8,8,-0.48179521085172977,-0.5,1.0,0.0,390.0,997.0,0.0,0,83.0,1
9,9,0.5925348806521819,0.6,1.0,1.0,313.0,762.0,1.0,1,625.0,1
10,10,0.8423623680406583,0.8,0.0,0.0,415.0,596.0,0.0,1,239.0,1
11,11,0.4345185975536202,0.4,1.0,1.0,425.0,814.0,1.0,1,551.0,1
12,12,0.002465832713481886,0.0,1.0,1.0,460.0,765.0,0.0,0,1775.0,0
13,13,-0.39971636629056895,-0.4,1.0,0.0,468.0,563.0,0.0,0,149.0,1
14,14,0.37529890826168144,0.4,0.0,0.0,476.0,997.0,0.0,1,587.0,1
15,15,-0.03541084513857484,-0.0,0.0,1.0,271.0,926.0,1.0,0,1773.0,1
16,16,-0.31567582674050276,-0.3,0.0,1.0,461.0,939.0,1.0,0,980.0,1
17,17,-0.3588450136606568,-0.4,0.0,1.0,477.0,782.0,1.0,0,531.0,1
18,18,0.7157029236566973,0.7,1.0,1.0,265.0,702.0,1.0,1,473.0,1
19,19,0.13239461644921902,0.1,0.0,0.0,406.0,826.0,1.0,0,1768.0,0
20,20,-0.24031425012985408,-0.2,1.0,0.0,287.0,877.0,0.0,0,536.0,1
21,21,0.4910256707764541,0.5,1.0,1.0,382.0,936.0,1.0,1,392.0,1
22,22,-0.4535860010969702,-0.5,0.0,1.0,360.0,616.0,1.0,0,194.0,1
23,23,0.2011088823341881,0.2,1.0,1.0,343.0,750.0,0.0,0,1907.0,0
24,24,0.4364425774821986,0.4,1.0,1.0,426.0,759.0,1.0,1,485.0,1
25,25,-0.09873674982536496,-0.1,0.0,1.0,395.0,603.0,0.0,1,1422.0,0
26,26,-0.5125579349325817,-0.5,0.0,1.0,358.0,624.0,1.0,0,418.0,1
27,27,-0.14505158264257278,-0.1,0.0,1.0,281.0,992.0,1.0,0,1727.0,1
28,28,-0.6459247692254484,-0.6,1.0,0.0,320.0,793.0,0.0,0,167.0,1
29,29,-0.46956466553967985,-0.5,0.0,1.0,271.0,791.0,1.0,0,538.0,1
30,30,0.3332836339202899,0.3,1.0,1.0,404.0,857.0,1.0,1,309.0,1
31,31,-0.3490284698523384,-0.3,1.0,0.0,406.0,887.0,0.0,0,247.0,1
32,32,-0.05723402058396754,-0.1,0.0,1.0,469.0,758.0,1.0,0,1773.0,1
33,33,-0.8388863602789848,-0.8,1.0,0.0,353.0,518.0,0.0,0,269.0,1
34,34,-0.34730404208255095,-0.3,0.0,1.0,406.0,604.0,1.0,0,690.0,1
35,35,-0.18308852566161704,-0.2,1.0,0.0,404.0,825.0,0.0,0,451.0,1
36,36,-0.03913683689161096,-0.0,0.0,1.0,458.0,765.0,1.0,0,1777.0,1
37,37,0.6066067232610445,0.6,0.0,0.0,304.0,666.0,0.0,1,780.0,1
38,38,0.8952773220002758,0.9,1.0,1.0,379.0,836.0,1.0,1,45.0,1
39,39,0.8802794476821688,0.9,0.0,0.0,282.0,776.0,0.0,1,252.0,1
40,40,-0.71614054621521,-0.7,0.0,1.0,257.0,686.0,1.0,0,237.0,1
41,41,-0.3608583934980787,-0.4,1.0,0.0,385.0,879.0,0.0,0,496.0,1
42,42,-0.4087817326159123,-0.4,1.0,0.0,412.0,803.0,0.0,0,275.0,1
43,43,-0.1682474254815679,-0.2,1.0,0.0,373.0,796.0,0.0,0,541.0,1
44,44,0.6460119422248035,0.6,0.0,0.0,251.0,886.0,0.0,1,153.0,1
45,45,-0.5092638702465115,-0.5,0.0,1.0,277.0,555.0,1.0,0,458.0,1
46,46,-0.35299881996386884,-0.4,0.0,1.0,282.0,776.0,1.0,0,602.0,1
47,47,0.7564920734825412,0.8,1.0,1.0,455.0,795.0,0.0,0,-230.0,0
48,48,0.17299856287370197,0.2,0.0,0.0,280.0,809.0,0.0,1,991.0,1
49,49,-0.716149619155408,-0.7,1.0,0.0,274.0,911.0,0.0,0,175.0,1
50,50,-0.7664017058788808,-0.8,1.0,0.0,284.0,993.0,0.0,0,143.0,1
51,51,-0.11903724217125866,-0.1,0.0,1.0,278.0,515.0,1.0,0,2207.0,1
52,52,-0.40481908400112426,-0.4,1.0,0.0,454.0,809.0,0.0,0,377.0,1
53,53,-0.815930045047557,-0.8,1.0,0.0,450.0,845.0,0.0,0,-435.0,1
54,54,-0.6705264318389571,-0.7,1.0,0.0,260.0,889.0,0.0,0,291.0,1
55,55,-0.31364729663901536,-0.3,0.0,1.0,499.0,637.0,1.0,0,344.0,1
56,56,0.45541657637286515,0.5,1.0,1.0,410.0,787.0,1.0,1,333.0,1
57,57,0.4524345316094255,0.5,1.0,1.0,260.0,904.0,1.0,1,796.0,1
58,58,-0.5952431741255277,-0.6,0.0,1.0,408.0,819.0,1.0,0,143.0,1
59,59,-0.5947764400606967,-0.6,1.0,0.0,420.0,759.0,0.0,0,651.0,1
60,60,-0.8986154426574244,-0.9,1.0,0.0,493.0,576.0,0.0,0,241.0,1
61,61,-0.5880653484158616,-0.6,1.0,0.0,446.0,646.0,0.0,0,258.0,1
62,62,0.5319678033859535,0.5,0.0,0.0,401.0,573.0,0.0,1,196.0,1
63,63,0.8375715327261634,0.8,0.0,0.0,498.0,610.0,0.0,1,172.0,1
64,64,-0.7194819679634282,-0.7,0.0,1.0,437.0,917.0,1.0,0,366.0,1
65,65,0.1023387400607908,0.1,0.0,0.0,441.0,779.0,0.0,1,1780.0,1
66,66,0.36102378731934126,0.4,0.0,0.0,408.0,657.0,0.0,1,405.0,1
67,67,0.25853300715477745,0.3,1.0,1.0,288.0,625.0,1.0,1,277.0,1
68,68,0.145084879619651,0.1,0.0,0.0,415.0,572.0,0.0,1,2013.0,1
69,69,-0.24042751424613518,-0.2,0.0,1.0,395.0,669.0,1.0,0,1086.0,1
70,70,-0.30859146535527193,-0.3,1.0,0.0,311.0,562.0,0.0,0,657.0,1
71,71,-0.7400720355591904,-0.7,0.0,1.0,411.0,797.0,1.0,0,322.0,1
72,72,0.7319415058091469,0.7,0.0,0.0,322.0,747.0,0.0,1,301.0,1
73,73,0.6463332245532215,0.6,1.0,1.0,311.0,790.0,1.0,1,339.0,1
74,74,-0.49196488250191567,-0.5,1.0,0.0,432.0,679.0,0.0,0,1069.0,1
75,75,0.5104086882695019,0.5,0.0,0.0,280.0,512.0,0.0,1,378.0,1
76,76,0.31965974249131823,0.3,1.0,1.0,264.0,917.0,1.0,1,1819.0,1
77,77,-0.11008144802375786,-0.1,1.0,0.0,493.0,556.0,0.0,0,751.0,1
78,78,-0.8581586892269983,-0.9,1.0,0.0,450.0,961.0,0.0,0,219.0,1
79,79,0.2030743124098663,0.2,1.0,1.0,313.0,546.0,1.0,1,1441.0,1
80,80,0.8608283621244975,0.9,0.0,0.0,434.0,640.0,0.0,1,296.0,1
81,81,0.10167954252179923,0.1,0.0,0.0,308.0,648.0,0.0,1,2044.0,1
82,82,0.41847380247419796,0.4,1.0,1.0,477.0,818.0,1.0,1,835.0,1
83,83,-0.13164509080673947,-0.1,0.0,1.0,262.0,553.0,1.0,0,2185.0,1
84,84,-0.22529183242419193,-0.2,1.0,0.0,305.0,624.0,0.0,0,451.0,1
85,85,0.20881507877253724,0.2,0.0,0.0,282.0,630.0,0.0,1,2088.0,1
86,86,-0.2770037399089402,-0.3,1.0,0.0,306.0,783.0,0.0,0,1201.0,1
87,87,0.6228466129329987,0.6,1.0,1.0,447.0,673.0,1.0,1,1010.0,1
88,88,0.8806641010722779,0.9,0.0,0.0,442.0,541.0,0.0,1,137.0,1
89,89,0.38244056927680325,0.4,0.0,0.0,314.0,717.0,0.0,1,419.0,1
90,90,0.1322931377665989,0.1,0.0,0.0,444.0,937.0,0.0,1,1619.0,1
91,91,0.8659294498299369,0.9,0.0,0.0,255.0,866.0,0.0,1,109.0,1
92,92,-0.8415190747451838,-0.8,0.0,1.0,277.0,529.0,1.0,0,344.0,1
93,93,0.8166264015955159,0.8,1.0,1.0,403.0,840.0,1.0,1,347.0,1
94,94,0.8113118317497711,0.8,0.0,0.0,298.0,651.0,0.0,1,331.0,1
95,95,0.16329777404446888,0.2,1.0,1.0,316.0,663.0,1.0,1,2021.0,1
96,96,0.14494825886166496,0.1,1.0,1.0,402.0,810.0,0.0,0,1788.0,0
97,97,-0.5684741494167667,-0.6,0.0,1.0,477.0,502.0,1.0,0,361.0,1
98,98,-0.661763978616626,-0.7,0.0,1.0,338.0,587.0,1.0,0,385.0,1
99,99,-0.5315351617947082,-0.5,1.0,0.0,494.0,528.0,0.0,0,218.0,1
100,100,-0.2155190431324896,-0.2,0.0,1.0,371.0,801.0,1.0,0,1458.0,1
101,101,0.8841290259587279,0.9,0.0,0.0,253.0,806.0,0.0,1,271.0,1
102,102,-0.799839490086044,-0.8,1.0,0.0,415.0,971.0,0.0,0,104.0,1
103,103,-0.79934838503827,-0.8,1.0,0.0,371.0,608.0,0.0,0,201.0,1
104,104,0.5191796553985658,0.5,1.0,1.0,463.0,816.0,1.0,1,431.0,1
105,105,-0.6106401299501307,-0.6,0.0,1.0,408.0,804.0,1.0,0,278.0,1
106,106,0.4970572018894316,0.5,1.0,1.0,388.0,942.0,1.0,1,410.0,1
107,107,0.08039787067049797,0.1,0.0,0.0,289.0,621.0,0.0,1,1440.0,1
108,108,-0.04984758310021753,-0.0,1.0,0.0,336.0,643.0,0.0,0,2021.0,1
109,109,-0.2843417809541722,-0.3,0.0,1.0,278.0,684.0,1.0,0,718.0,1
110,110,-0.2022521460462977,-0.2,0.0,1.0,381.0,852.0,1.0,0,437.0,1
111,111,0.7654569479941832,0.8,1.0,1.0,313.0,914.0,1.0,1,153.0,1
112,112,0.8104409655528978,0.8,0.0,0.0,433.0,974.0,0.0,1,183.0,1
113,113,0.6604145310094033,0.7,0.0,0.0,351.0,736.0,0.0,1,293.0,1
114,114,-0.06716858647420143,-0.1,1.0,0.0,346.0,755.0,0.0,0,1899.0,1
115,115,-0.17549261233653912,-0.2,1.0,0.0,401.0,907.0,0.0,0,712.0,1
116,116,0.5858323419670096,0.6,1.0,1.0,436.0,598.0,1.0,1,236.0,1
117,117,-0.1458218584288823,-0.1,1.0,0.0,352.0,598.0,0.0,0,430.0,1
118,118,-0.8742028834715856,-0.9,0.0,1.0,371.0,816.0,1.0,0,133.0,1
119,119,-0.5814044454078855,-0.6,0.0,1.0,250.0,690.0,1.0,0,-110.0,1
120,120,-0.09228885436775547,-0.1,0.0,1.0,406.0,587.0,0.0,1,2007.0,0
121,121,-0.010920801520792556,-0.0,0.0,1.0,390.0,733.0,0.0,1,967.0,0
122,122,0.7751036318418737,0.8,1.0,1.0,453.0,990.0,1.0,1,367.0,1
123,123,0.6592976929139599,0.7,1.0,1.0,258.0,799.0,1.0,1,1943.0,1
124,124,0.41463549852657067,0.4,0.0,0.0,380.0,833.0,0.0,1,767.0,1
125,125,-0.8258988846884479,-0.8,0.0,1.0,326.0,511.0,1.0,0,2163.0,1
126,126,0.6230097752454168,0.6,1.0,1.0,352.0,829.0,1.0,1,829.0,1
127,127,-0.4435956452118124,-0.4,1.0,0.0,280.0,687.0,0.0,0,243.0,1
128,128,-0.8346965289014225,-0.8,1.0,0.0,468.0,941.0,0.0,0,161.0,1
129,129,-0.530411339711008,-0.5,0.0,1.0,322.0,653.0,1.0,0,445.0,1
130,130,0.5867999429134053,0.6,0.0,0.0,437.0,569.0,0.0,1,154.0,1
131,131,-0.5041481410204454,-0.5,1.0,0.0,288.0,905.0,0.0,0,227.0,1
132,132,-0.5804203993711936,-0.6,1.0,0.0,335.0,934.0,0.0,0,431.0,1
133,133,-0.5593509862616142,-0.6,0.0,1.0,257.0,543.0,1.0,0,330.0,1
134,134,0.32153706615365396,0.3,1.0,1.0,433.0,867.0,1.0,1,1060.0,1
135,135,0.8724783463703037,0.9,1.0,1.0,370.0,814.0,1.0,1,176.0,1
136,136,0.18213657018922913,0.2,1.0,1.0,479.0,991.0,1.0,1,1530.0,1
137,137,-0.5621438826064832,-0.6,0.0,1.0,371.0,940.0,1.0,0,199.0,1
138,138,-0.6504281630890678,-0.7,1.0,0.0,304.0,606.0,0.0,0,180.0,1
139,139,0.24827013714890278,0.2,1.0,1.0,399.0,947.0,1.0,1,1654.0,1
140,140,0.5849235636942146,0.6,1.0,1.0,381.0,991.0,1.0,1,348.0,1
141,141,0.887571315689809,0.9,1.0,1.0,338.0,539.0,1.0,1,303.0,1
142,142,-0.8121101422129124,-0.8,1.0,0.0,495.0,746.0,0.0,0,229.0,1
143,143,0.4719805910296567,0.5,1.0,1.0,336.0,500.0,1.0,1,464.0,1
144,144,-0.19290031151514764,-0.2,0.0,1.0,462.0,768.0,1.0,0,1770.0,1
145,145,0.8652095083586336,0.9,0.0,0.0,483.0,921.0,0.0,1,216.0,1
146,146,-0.855793923613798,-0.9,0.0,1.0,420.0,621.0,1.0,0,199.0,1
147,147,-0.8737880652636836,-0.9,1.0,0.0,331.0,613.0,0.0,0,336.0,1
148,148,-0.5422169623282969,-0.5,0.0,1.0,405.0,690.0,1.0,0,1215.0,1
149,149,-0.16618645828445122,-0.2,0.0,1.0,481.0,582.0,1.0,0,447.0,1
150,150,-0.7022433819528182,-0.7,1.0,0.0,494.0,531.0,0.0,0,325.0,1
151,151,0.04328458249248379,0.0,0.0,0.0,447.0,992.0,0.0,1,1371.0,1
152,152,0.5154104734729638,0.5,1.0,1.0,281.0,696.0,1.0,1,423.0,1
153,153,0.39250025808669686,0.4,1.0,1.0,324.0,595.0,1.0,1,1031.0,1
154,154,0.2656812002162666,0.3,1.0,1.0,250.0,629.0,1.0,1,2011.0,1
155,155,0.003929384588751028,0.0,0.0,0.0,307.0,667.0,1.0,0,1436.0,0
156,156,-0.7423182736268733,-0.7,0.0,1.0,347.0,583.0,1.0,0,210.0,1
157,157,-0.05415292446957254,-0.1,1.0,0.0,451.0,733.0,0.0,0,696.0,1
158,158,-0.27521703747034487,-0.3,1.0,0.0,296.0,570.0,0.0,0,694.0,1
159,159,0.6591806216779977,0.7,1.0,1.0,302.0,622.0,1.0,1,516.0,1
160,160,-0.516505554414697,-0.5,0.0,1.0,349.0,556.0,1.0,0,155.0,1
161,161,-0.3127306079808928,-0.3,0.0,1.0,441.0,944.0,1.0,0,305.0,1
162,162,-0.06421223539138543,-0.1,1.0,0.0,346.0,748.0,0.0,0,1006.0,1
163,163,0.4766122376983376,0.5,1.0,1.0,386.0,881.0,1.0,1,903.0,1
164,164,-0.3341258088332286,-0.3,1.0,0.0,259.0,965.0,0.0,0,406.0,1
165,165,-0.09288352388355814,-0.1,0.0,1.0,444.0,706.0,1.0,0,800.0,1
166,166,-0.6440321233308324,-0.6,0.0,1.0,426.0,765.0,1.0,0,1049.0,1
167,167,-0.3879501878203063,-0.4,1.0,0.0,315.0,785.0,0.0,0,380.0,1
168,168,0.6667374049539513,0.7,1.0,1.0,290.0,502.0,1.0,1,288.0,1
169,169,-0.021132005367494044,-0.0,0.0,1.0,396.0,967.0,0.0,1,1327.0,0
170,170,-0.5457318443684332,-0.5,0.0,1.0,440.0,613.0,1.0,0,447.0,1
171,171,0.5007855866752015,0.5,0.0,0.0,339.0,806.0,0.0,1,835.0,1
172,172,0.8015805264811756,0.8,0.0,0.0,250.0,936.0,0.0,1,334.0,1
173,173,0.34704290628761536,0.3,1.0,1.0,401.0,704.0,1.0,1,425.0,1
174,174,-0.14590796183138477,-0.1,0.0,1.0,438.0,834.0,1.0,0,1168.0,1
175,175,0.13272788542749836,0.1,0.0,0.0,377.0,937.0,0.0,1,1576.0,1
176,176,-0.5446413712547202,-0.5,0.0,1.0,402.0,506.0,1.0,0,382.0,1
177,177,0.6680070443557179,0.7,1.0,1.0,429.0,535.0,1.0,1,1986.0,1
178,178,0.7180201820726789,0.7,1.0,1.0,298.0,606.0,1.0,1,166.0,1
179,179,-0.2638651034696846,-0.3,0.0,1.0,466.0,834.0,1.0,0,780.0,1
180,180,-0.2695780289497489,-0.3,1.0,0.0,331.0,884.0,0.0,0,555.0,1
181,181,-0.7957584574289575,-0.8,0.0,1.0,273.0,954.0,1.0,0,193.0,1
182,182,-0.5455572759525555,-0.5,1.0,0.0,316.0,508.0,0.0,0,196.0,1
183,183,-0.521955203798761,-0.5,0.0,1.0,260.0,505.0,1.0,0,235.0,1
184,184,-0.22375871907825118,-0.2,0.0,1.0,366.0,702.0,1.0,0,1932.0,1
185,185,0.3727116971178689,0.4,0.0,0.0,385.0,759.0,0.0,1,146.0,1
186,186,-0.0913510908357581,-0.1,0.0,1.0,319.0,665.0,1.0,0,2016.0,1
187,187,0.37142510229733994,0.4,0.0,0.0,494.0,669.0,0.0,1,907.0,1
188,188,0.8723105871867985,0.9,0.0,0.0,347.0,952.0,0.0,1,211.0,1
189,189,0.6647377897134131,0.7,0.0,0.0,496.0,854.0,0.0,1,180.0,1
190,190,0.004569108838596514,0.0,1.0,1.0,399.0,883.0,1.0,1,1718.0,1
191,191,-0.8884593320286494,-0.9,1.0,0.0,328.0,934.0,0.0,0,-72.0,1
192,192,-0.024217173313099027,-0.0,0.0,1.0,292.0,894.0,1.0,0,634.0,1
193,193,-0.7026953192041515,-0.7,1.0,0.0,424.0,785.0,0.0,0,161.0,1
194,194,-0.13227625572509316,-0.1,0.0,1.0,462.0,729.0,1.0,0,1809.0,1
195,195,-0.539279600161163,-0.5,1.0,0.0,447.0,762.0,0.0,0,91.0,1
196,196,0.29614324480610266,0.3,1.0,1.0,267.0,672.0,1.0,1,621.0,1
197,197,-0.8519620825922969,-0.9,1.0,0.0,350.0,834.0,0.0,0,206.0,1
198,198,0.4928648605610909,0.5,1.0,1.0,385.0,542.0,1.0,1,1063.0,1
199,199,0.009798771913865911,0.0,0.0,0.0,308.0,781.0,1.0,0,711.0,0
200,200,0.6433500565757636,0.6,0.0,0.0,377.0,761.0,0.0,1,492.0,1
201,201,-0.7404080244434303,-0.7,1.0,0.0,447.0,638.0,0.0,0,655.0,1
202,202,-0.11253073867877639,-0.1,0.0,1.0,411.0,703.0,1.0,0,1816.0,1
203,203,-0.23055735812934963,-0.2,0.0,1.0,368.0,905.0,1.0,0,767.0,1
204,204,-0.22420758550335718,-0.2,1.0,0.0,391.0,849.0,0.0,0,220.0,1
205,205,0.3214227095302796,0.3,0.0,0.0,310.0,991.0,0.0,1,59.0,1
206,206,-0.08525413546447003,-0.1,1.0,0.0,351.0,881.0,0.0,0,1768.0,1
207,207,0.10449241224207928,0.1,0.0,0.0,310.0,746.0,0.0,1,214.0,1
208,208,-0.7905770390896553,-0.8,1.0,0.0,328.0,935.0,0.0,0,127.0,1
209,209,0.888462495654151,0.9,0.0,0.0,493.0,632.0,0.0,1,235.0,1
210,210,0.0012353233321256152,0.0,0.0,0.0,286.0,863.0,0.0,1,1851.0,1
211,211,0.810274211625266,0.8,1.0,1.0,305.0,879.0,1.0,1,146.0,1
212,212,-0.5019911251743585,-0.5,1.0,0.0,422.0,674.0,0.0,0,74.0,1
213,213,-0.28100359873373193,-0.3,1.0,0.0,323.0,596.0,0.0,0,371.0,1
214,214,0.11738278571400163,0.1,1.0,1.0,455.0,619.0,0.0,0,1926.0,0
215,215,0.5407115517809967,0.5,0.0,0.0,315.0,612.0,0.0,1,183.0,1
216,216,-0.7544367198942072,-0.8,0.0,1.0,378.0,619.0,1.0,0,1983.0,1
217,217,-0.11903406781118209,-0.1,0.0,1.0,419.0,829.0,1.0,0,1752.0,1
218,218,-0.780074124977822,-0.8,0.0,1.0,300.0,592.0,1.0,0,168.0,1
219,219,-0.797632141624549,-0.8,1.0,0.0,279.0,953.0,0.0,0,48.0,1
220,220,-0.5977555133697547,-0.6,0.0,1.0,316.0,789.0,1.0,0,335.0,1
221,221,0.8485562542064978,0.8,1.0,1.0,303.0,808.0,1.0,1,1889.0,1
222,222,-0.353564873052011,-0.4,0.0,1.0,307.0,965.0,1.0,0,738.0,1
223,223,0.5116972697573,0.5,1.0,1.0,422.0,903.0,1.0,1,525.0,1
224,224,0.6654311833790642,0.7,0.0,0.0,313.0,992.0,0.0,1,115.0,1
225,225,0.3889552067381209,0.4,0.0,0.0,378.0,833.0,0.0,1,379.0,1
226,226,0.8742383008335449,0.9,0.0,0.0,353.0,682.0,0.0,1,105.0,1
227,227,-0.07800896137320035,-0.1,1.0,0.0,428.0,814.0,0.0,0,1728.0,1
228,228,-0.19820913578538246,-0.2,0.0,1.0,300.0,926.0,1.0,0,1774.0,1
229,229,-0.17391828577358148,-0.2,0.0,1.0,261.0,874.0,1.0,0,1095.0,1
230,230,0.432453400242233,0.4,1.0,1.0,269.0,784.0,1.0,1,417.0,1
231,231,-0.8624374469798765,-0.9,1.0,0.0,373.0,720.0,0.0,0,147.0,1
232,232,0.39209680890712606,0.4,0.0,0.0,447.0,538.0,0.0,1,305.0,1
233,233,0.8396113960146899,0.8,1.0,1.0,353.0,991.0,1.0,1,446.0,1
234,234,0.8813183684742661,0.9,0.0,0.0,293.0,558.0,0.0,1,169.0,1
235,235,-0.7570700880125851,-0.8,1.0,0.0,295.0,843.0,0.0,0,-258.0,1
236,236,-0.1572028998521826,-0.2,1.0,0.0,328.0,934.0,0.0,0,-172.0,1
237,237,0.04164786238968232,0.0,1.0,1.0,277.0,651.0,1.0,1,2072.0,1
238,238,-0.03036814784816866,-0.0,1.0,0.0,259.0,856.0,0.0,0,1885.0,1
239,239,0.642491091843984,0.6,0.0,0.0,408.0,690.0,0.0,1,282.0,1
240,240,0.17112676998390952,0.2,0.0,0.0,416.0,898.0,0.0,1,906.0,1
241,241,0.5959930276294808,0.6,0.0,0.0,270.0,905.0,0.0,1,275.0,1
242,242,-0.7503536401995032,-0.8,1.0,0.0,372.0,594.0,0.0,0,344.0,1
243,243,-0.4067149251511369,-0.4,0.0,1.0,494.0,671.0,1.0,0,175.0,1
244,244,0.16511891293665737,0.2,0.0,0.0,318.0,618.0,0.0,1,934.0,1
245,245,0.5223171531454048,0.5,1.0,1.0,410.0,890.0,1.0,1,350.0,1
246,246,0.32704220861684175,0.3,1.0,1.0,482.0,702.0,1.0,1,1816.0,1
247,247,-0.1266480549703658,-0.1,0.0,1.0,394.0,505.0,1.0,0,2101.0,1
248,248,-0.8345004678321998,-0.8,1.0,0.0,274.0,764.0,0.0,0,162.0,1
249,249,-0.28875419501296795,-0.3,0.0,1.0,425.0,578.0,1.0,0,257.0,1
250,250,-0.8885797807445971,-0.9,0.0,1.0,273.0,730.0,1.0,0,207.0,1
251,251,0.3692944562170045,0.4,1.0,1.0,442.0,717.0,1.0,1,671.0,1
252,252,0.02836675300754188,0.0,0.0,0.0,454.0,960.0,0.0,1,1586.0,1
253,253,0.3844852169459704,0.4,1.0,1.0,484.0,607.0,1.0,1,839.0,1
254,254,-0.6149123065596519,-0.6,0.0,1.0,411.0,553.0,1.0,0,196.0,1
255,255,-0.16217521329854212,-0.2,0.0,1.0,495.0,952.0,1.0,0,1553.0,1
256,256,0.8961869832210901,0.9,0.0,0.0,377.0,993.0,0.0,1,340.0,1
257,257,-0.18727568290009555,-0.2,1.0,0.0,467.0,770.0,0.0,0,1503.0,1
258,258,0.042076159533733115,0.0,1.0,1.0,323.0,729.0,1.0,1,1948.0,1
259,259,-0.7210696938628615,-0.7,0.0,1.0,328.0,515.0,1.0,0,387.0,1
260,260,-0.3898250808917847,-0.4,0.0,1.0,252.0,973.0,1.0,0,515.0,1
261,261,-0.5967384863030257,-0.6,0.0,1.0,353.0,993.0,1.0,0,174.0,1
262,262,-0.7398667366354273,-0.7,0.0,1.0,357.0,623.0,1.0,0,210.0,1
263,263,-0.5113446480329449,-0.5,1.0,0.0,414.0,782.0,0.0,0,194.0,1
264,264,0.7964730152975917,0.8,0.0,0.0,363.0,861.0,0.0,1,196.0,1
265,265,-0.44406725358508925,-0.4,1.0,0.0,332.0,926.0,0.0,0,292.0,1
266,266,-0.04816963578232136,-0.0,0.0,1.0,490.0,815.0,1.0,0,535.0,1
267,267,0.7202666462653725,0.7,1.0,1.0,391.0,721.0,1.0,1,508.0,1
268,268,-0.5808334906936978,-0.6,0.0,1.0,468.0,953.0,1.0,0,329.0,1
269,269,0.5268446842098743,0.5,0.0,0.0,410.0,870.0,0.0,1,110.0,1
270,270,-0.3450323223625047,-0.3,1.0,0.0,387.0,548.0,0.0,0,365.0,1
271,271,0.05372278565452826,0.1,1.0,1.0,402.0,613.0,0.0,0,1985.0,0
272,272,-0.7984950044389295,-0.8,1.0,0.0,399.0,621.0,0.0,0,280.0,1
273,273,0.3191700916020367,0.3,1.0,1.0,364.0,901.0,1.0,1,1515.0,1
274,274,0.0320563399641246,0.0,0.0,0.0,320.0,758.0,0.0,1,472.0,1
275,275,-0.25873486118852007,-0.3,0.0,1.0,309.0,921.0,1.0,0,820.0,1
276,276,0.5877035932028148,0.6,1.0,1.0,307.0,753.0,1.0,1,280.0,1
277,277,0.864593146344074,0.9,0.0,0.0,250.0,896.0,0.0,1,384.0,1
278,278,0.5832810597016379,0.6,1.0,1.0,499.0,764.0,1.0,1,497.0,1
279,279,0.3419542651871871,0.3,1.0,1.0,416.0,842.0,1.0,1,732.0,1
280,280,-0.07776823081131079,-0.1,1.0,0.0,271.0,826.0,0.0,0,1903.0,1
281,281,0.2068511404494361,0.2,0.0,0.0,321.0,948.0,0.0,1,291.0,1
282,282,-0.8716067647062714,-0.9,0.0,1.0,321.0,921.0,1.0,0,128.0,1
283,283,0.08810944112872143,0.1,1.0,1.0,262.0,920.0,1.0,1,1818.0,1
284,284,0.8277513523223671,0.8,0.0,0.0,285.0,954.0,0.0,1,231.0,1
285,285,-0.31443806086774384,-0.3,0.0,1.0,487.0,718.0,1.0,0,535.0,1
286,286,-0.12896436229306374,-0.1,1.0,0.0,311.0,821.0,0.0,0,878.0,1
287,287,-0.1912307773869446,-0.2,0.0,1.0,476.0,622.0,1.0,0,792.0,1
288,288,0.5523785781493685,0.6,1.0,1.0,495.0,739.0,1.0,1,356.0,1
289,289,-0.8993739429185196,-0.9,0.0,1.0,414.0,617.0,1.0,0,139.0,1
290,290,-0.26269864954868316,-0.3,1.0,0.0,458.0,671.0,0.0,0,181.0,1
291,291,0.631702856812482,0.6,1.0,1.0,283.0,896.0,1.0,1,181.0,1
292,292,-0.40169251009456824,-0.4,0.0,1.0,299.0,873.0,1.0,0,338.0,1
293,293,-0.5645678039377124,-0.6,1.0,0.0,441.0,932.0,0.0,0,167.0,1
294,294,0.32162566002717574,0.3,0.0,0.0,284.0,825.0,0.0,1,321.0,1
295,295,0.014037302924166939,0.0,0.0,0.0,351.0,547.0,0.0,1,2102.0,1
296,296,-0.8363011599420408,-0.8,0.0,1.0,445.0,595.0,1.0,0,230.0,1
297,297,0.4375018723834697,0.4,0.0,0.0,318.0,577.0,0.0,1,365.0,1
298,298,-0.378326204582498,-0.4,0.0,1.0,354.0,801.0,1.0,0,755.0,1
299,299,-0.04041488451487507,-0.0,1.0,0.0,404.0,696.0,1.0,1,1900.0,0
300,300,0.8845481000297425,0.9,1.0,1.0,386.0,827.0,1.0,1,1017.0,1
301,301,-0.5858339423477075,-0.6,0.0,1.0,453.0,981.0,1.0,0,136.0,1
302,302,0.7618939306807954,0.8,1.0,1.0,274.0,885.0,0.0,0,-409.0,0
303,303,-0.6668208791248423,-0.7,1.0,0.0,366.0,608.0,0.0,0,226.0,1
304,304,-0.3290315489500907,-0.3,0.0,1.0,325.0,696.0,1.0,0,319.0,1
305,305,-0.4498110501101566,-0.4,0.0,1.0,321.0,657.0,1.0,0,372.0,1
306,306,-0.29625648020668405,-0.3,1.0,0.0,493.0,742.0,0.0,0,335.0,1
307,307,-0.8930805730444735,-0.9,1.0,0.0,462.0,991.0,0.0,0,307.0,1
308,308,-0.3544274313633996,-0.4,0.0,1.0,324.0,572.0,1.0,0,824.0,1
309,309,0.5666105429070997,0.6,1.0,1.0,460.0,661.0,1.0,1,289.0,1
310,310,-0.6794875687717418,-0.7,0.0,1.0,374.0,629.0,1.0,0,247.0,1
311,311,-0.5519664660142439,-0.6,0.0,1.0,260.0,735.0,1.0,0,295.0,1
312,312,-0.25095473566649984,-0.3,0.0,1.0,297.0,559.0,1.0,0,564.0,1
313,313,-0.6040070152745931,-0.6,1.0,0.0,344.0,644.0,0.0,0,282.0,1
314,314,-0.3491391643445735,-0.3,1.0,0.0,466.0,541.0,0.0,0,443.0,1
315,315,-0.3736613004993449,-0.4,1.0,0.0,477.0,908.0,0.0,0,-375.0,1
316,316,0.7686025234967634,0.8,0.0,0.0,492.0,728.0,0.0,1,250.0,1
317,317,0.67565931948236,0.7,1.0,1.0,480.0,941.0,1.0,1,839.0,1
318,318,0.0671613650396422,0.1,1.0,1.0,330.0,569.0,0.0,0,371.0,0
319,319,-0.8079904420211079,-0.8,1.0,0.0,324.0,819.0,0.0,0,257.0,1
320,320,-0.1548520847676108,-0.2,0.0,1.0,351.0,556.0,1.0,0,2093.0,1
321,321,0.7397107474207333,0.7,1.0,1.0,444.0,946.0,1.0,1,290.0,1
322,322,-0.1802482294280935,-0.2,0.0,1.0,337.0,675.0,1.0,0,1988.0,1
323,323,0.7204262152962234,0.7,1.0,1.0,493.0,531.0,1.0,1,226.0,1
324,324,0.34711855763908617,0.3,1.0,1.0,302.0,550.0,1.0,1,428.0,1
325,325,0.6999489662538457,0.7,1.0,1.0,339.0,557.0,1.0,1,544.0,1
326,326,-0.5986290990282599,-0.6,0.0,1.0,413.0,994.0,0.0,1,-357.0,0
327,327,0.5015577101174115,0.5,1.0,1.0,474.0,738.0,1.0,1,278.0,1
328,328,-0.13211211204845175,-0.1,1.0,0.0,434.0,556.0,0.0,0,790.0,1
329,329,-0.00812458639316549,-0.0,0.0,1.0,485.0,567.0,1.0,0,1248.0,1
330,330,0.749362537214432,0.7,1.0,1.0,416.0,935.0,1.0,1,619.0,1
331,331,0.2946023946580175,0.3,0.0,0.0,344.0,904.0,0.0,1,412.0,1
332,332,0.7874005656622077,0.8,1.0,1.0,375.0,620.0,1.0,1,205.0,1
333,333,0.11906721287504574,0.1,0.0,0.0,270.0,783.0,0.0,1,1947.0,1
334,334,0.10026577274568871,0.1,0.0,0.0,253.0,768.0,0.0,1,1519.0,1
335,335,-0.2214750399574822,-0.2,1.0,0.0,305.0,608.0,0.0,0,637.0,1
336,336,0.6442866823708743,0.6,0.0,0.0,472.0,958.0,0.0,1,300.0,1
337,337,0.6100067586466916,0.6,1.0,1.0,318.0,562.0,1.0,1,580.0,1
338,338,-0.2992423624472712,-0.3,0.0,1.0,306.0,533.0,1.0,0,511.0,1
339,339,0.6859490572061494,0.7,1.0,1.0,467.0,681.0,1.0,1,442.0,1
340,340,-0.36991495458777834,-0.4,0.0,1.0,392.0,989.0,0.0,1,-151.0,0
341,341,0.155575878213548,0.2,0.0,0.0,350.0,681.0,0.0,1,1949.0,1
342,342,-0.13976849368927224,-0.1,0.0,1.0,467.0,726.0,1.0,0,827.0,1
343,343,0.5430850571648799,0.5,0.0,0.0,272.0,575.0,0.0,1,223.0,1
344,344,0.8600959979898731,0.9,1.0,1.0,271.0,788.0,1.0,1,261.0,1
345,345,-0.054399530658791995,-0.1,0.0,1.0,411.0,617.0,1.0,0,1432.0,1
346,346,-0.24335295677709345,-0.2,0.0,1.0,428.0,904.0,1.0,0,1668.0,1
347,347,-0.03540613966344974,-0.0,0.0,1.0,330.0,642.0,0.0,1,-92.0,0
348,348,0.4461417532333919,0.4,0.0,0.0,332.0,602.0,0.0,1,206.0,1
349,349,0.7193887089627108,0.7,0.0,0.0,437.0,775.0,0.0,1,438.0,1
350,350,-0.4754484749460631,-0.5,0.0,1.0,482.0,511.0,1.0,0,527.0,1
351,351,0.5388612033265353,0.5,0.0,0.0,324.0,528.0,0.0,1,218.0,1
352,352,-0.4721840959534856,-0.5,0.0,1.0,305.0,673.0,1.0,0,192.0,1
353,353,-0.8159051908989561,-0.8,0.0,1.0,356.0,703.0,1.0,0,201.0,1
354,354,-0.5764621764493221,-0.6,0.0,1.0,302.0,849.0,1.0,0,349.0,1
355,355,-0.055446636217169276,-0.1,0.0,1.0,432.0,502.0,1.0,0,2066.0,1
356,356,-0.6607415447158328,-0.7,1.0,0.0,351.0,754.0,0.0,0,205.0,1
357,357,-0.05820188776573687,-0.1,0.0,1.0,344.0,884.0,1.0,0,1772.0,1
358,358,0.4431129936697301,0.4,1.0,1.0,383.0,815.0,1.0,1,212.0,1
359,359,0.08944064169911581,0.1,0.0,0.0,367.0,927.0,0.0,1,1706.0,1
360,360,0.4689601913476257,0.5,0.0,0.0,294.0,981.0,0.0,1,225.0,1
361,361,-0.30530617822497275,-0.3,1.0,0.0,263.0,950.0,0.0,0,337.0,1
362,362,0.7913751831820844,0.8,1.0,1.0,391.0,760.0,1.0,1,519.0,1
363,363,0.34528084670558246,0.3,0.0,0.0,314.0,992.0,0.0,1,354.0,1
364,364,-0.1040860085555001,-0.1,0.0,1.0,272.0,730.0,1.0,0,1168.0,1
365,365,-0.5131179783316767,-0.5,1.0,0.0,279.0,984.0,0.0,0,307.0,1
366,366,0.30647691092693485,0.3,0.0,0.0,456.0,858.0,0.0,1,626.0,1
367,367,-0.46077134982270684,-0.5,0.0,1.0,403.0,619.0,1.0,0,238.0,1
368,368,-0.87689859679485,-0.9,0.0,1.0,454.0,939.0,1.0,0,137.0,1
369,369,0.3851028490957654,0.4,0.0,0.0,341.0,944.0,0.0,1,855.0,1
370,370,-0.34716795212214635,-0.3,1.0,0.0,389.0,593.0,0.0,0,158.0,1
371,371,0.6389256737210133,0.6,1.0,1.0,255.0,714.0,0.0,0,-159.0,0
372,372,0.3063165742520241,0.3,0.0,0.0,266.0,653.0,0.0,1,241.0,1
373,373,-0.34572809952008476,-0.3,1.0,0.0,466.0,651.0,0.0,0,383.0,1
374,374,-0.30448581814619613,-0.3,0.0,1.0,333.0,541.0,1.0,0,806.0,1
375,375,-0.6422126304292802,-0.6,0.0,1.0,350.0,879.0,1.0,0,821.0,1
376,376,0.718192325611852,0.7,1.0,1.0,334.0,599.0,1.0,1,257.0,1
377,377,0.867655938636375,0.9,1.0,1.0,445.0,839.0,1.0,1,1716.0,1
378,378,-0.6352120404384709,-0.6,1.0,0.0,360.0,912.0,0.0,0,388.0,1
379,379,-0.8388404826867536,-0.8,1.0,0.0,388.0,670.0,0.0,0,122.0,1
380,380,-0.6729549883708695,-0.7,0.0,1.0,480.0,995.0,1.0,0,245.0,1
381,381,0.5138205466463536,0.5,0.0,0.0,469.0,868.0,0.0,1,343.0,1
382,382,-0.157534419085418,-0.2,1.0,0.0,271.0,901.0,0.0,0,468.0,1
383,383,0.5745086109486778,0.6,1.0,1.0,387.0,805.0,1.0,1,328.0,1
384,384,0.8478801885221879,0.8,1.0,1.0,291.0,995.0,1.0,1,204.0,1
385,385,-0.20298565765941134,-0.2,0.0,1.0,403.0,880.0,1.0,0,517.0,1
386,386,0.8025882882796868,0.8,0.0,0.0,366.0,892.0,0.0,1,142.0,1
387,387,-0.41950963370379196,-0.4,0.0,1.0,338.0,548.0,1.0,0,314.0,1
388,388,0.7851476618611565,0.8,0.0,0.0,303.0,726.0,0.0,1,331.0,1
389,389,0.058414435439831824,0.1,0.0,0.0,421.0,500.0,1.0,0,1089.0,0
390,390,0.08520793258007764,0.1,1.0,1.0,303.0,601.0,0.0,0,2096.0,0
391,391,-0.7493072271038146,-0.7,1.0,0.0,306.0,509.0,0.0,0,375.0,1
392,392,0.03347954398172959,0.0,1.0,1.0,423.0,979.0,0.0,0,478.0,0
393,393,0.8898430373938723,0.9,0.0,0.0,446.0,821.0,0.0,1,143.0,1
394,394,-0.8717761013673205,-0.9,1.0,0.0,490.0,931.0,0.0,0,79.0,1
395,395,-0.1477661160804099,-0.1,0.0,1.0,377.0,794.0,1.0,0,1159.0,1
396,396,-0.5221777869309474,-0.5,1.0,0.0,490.0,778.0,0.0,0,112.0,1
397,397,0.7571510186565159,0.8,0.0,0.0,433.0,578.0,0.0,1,139.0,1
398,398,0.7121774189666,0.7,0.0,0.0,424.0,521.0,0.0,1,975.0,1
399,399,0.5072228049147217,0.5,0.0,0.0,304.0,658.0,0.0,1,308.0,1
400,400,-0.6894975706096664,-0.7,0.0,1.0,362.0,803.0,1.0,0,195.0,1
401,401,-0.45694475827642417,-0.5,0.0,1.0,286.0,926.0,1.0,0,488.0,1
402,402,0.7308165008777606,0.7,1.0,1.0,347.0,826.0,1.0,1,87.0,1
403,403,-0.5772949117909203,-0.6,1.0,0.0,373.0,810.0,0.0,0,267.0,1
404,404,-0.5418959065639146,-0.5,0.0,1.0,362.0,685.0,1.0,0,383.0,1
405,405,-0.1536601849904049,-0.2,0.0,1.0,499.0,610.0,1.0,0,1891.0,1
406,406,0.35376219064160386,0.4,0.0,0.0,474.0,964.0,1.0,0,-188.0,0
407,407,-0.4208823366418701,-0.4,0.0,1.0,408.0,757.0,1.0,0,325.0,1
408,408,0.8857454877407568,0.9,0.0,0.0,427.0,912.0,0.0,1,151.0,1
409,409,0.2907346435222459,0.3,0.0,0.0,398.0,597.0,0.0,1,485.0,1
410,410,1.8538514608201773e-05,0.0,1.0,1.0,433.0,513.0,0.0,0,384.0,0
411,411,0.8196607057321489,0.8,1.0,1.0,448.0,752.0,1.0,1,510.0,1
412,412,0.021170394189034658,0.0,0.0,0.0,459.0,873.0,0.0,1,1668.0,1
413,413,-0.22913449255107243,-0.2,1.0,0.0,321.0,570.0,0.0,0,739.0,1
414,414,-0.45454142974530615,-0.5,0.0,1.0,346.0,508.0,1.0,0,1716.0,1
415,415,0.11677346957815471,0.1,0.0,0.0,386.0,919.0,0.0,1,1285.0,1
416,416,-0.2879614863887938,-0.3,1.0,0.0,337.0,759.0,0.0,0,384.0,1
417,417,-0.6699337589036295,-0.7,0.0,1.0,475.0,953.0,1.0,0,182.0,1
418,418,-0.6858843307684503,-0.7,1.0,0.0,375.0,599.0,0.0,0,786.0,1
419,419,0.011821885369653451,0.0,1.0,1.0,277.0,527.0,1.0,1,2196.0,1
420,420,-0.717736102083073,-0.7,1.0,0.0,321.0,833.0,0.0,0,656.0,1
421,421,-0.5345584630339737,-0.5,1.0,0.0,445.0,519.0,0.0,0,306.0,1
422,422,0.6798849654360021,0.7,1.0,1.0,279.0,569.0,1.0,1,762.0,1
423,423,0.8457606512484582,0.8,0.0,0.0,446.0,780.0,0.0,1,194.0,1
424,424,0.12784714602458436,0.1,1.0,1.0,499.0,833.0,1.0,1,928.0,1
425,425,-0.6073377024670599,-0.6,0.0,1.0,287.0,907.0,1.0,0,466.0,1
426,426,-0.34432457865520893,-0.3,1.0,0.0,313.0,545.0,0.0,0,562.0,1
427,427,0.2599104404597631,0.3,1.0,1.0,276.0,522.0,1.0,1,1812.0,1
428,428,0.5621319516558013,0.6,1.0,1.0,387.0,697.0,1.0,1,586.0,1
429,429,0.3428663069451382,0.3,1.0,1.0,451.0,964.0,1.0,1,1585.0,1
430,430,-0.795756128224206,-0.8,1.0,0.0,292.0,698.0,0.0,0,240.0,1
431,431,-0.7229863969459746,-0.7,1.0,0.0,445.0,590.0,0.0,0,225.0,1
432,432,-0.26405579800191237,-0.3,1.0,0.0,320.0,934.0,0.0,0,-474.0,1
433,433,-0.650394592130636,-0.7,0.0,1.0,256.0,652.0,1.0,0,222.0,1
434,434,-0.11572007268931228,-0.1,1.0,0.0,492.0,808.0,0.0,0,1700.0,1
435,435,0.3171799716008076,0.3,0.0,0.0,451.0,540.0,0.0,1,519.0,1
436,436,-0.340637298056077,-0.3,0.0,1.0,271.0,997.0,1.0,0,182.0,1
437,437,-0.8471492537709957,-0.8,1.0,0.0,302.0,562.0,0.0,0,326.0,1
438,438,-0.5260261296470792,-0.5,1.0,0.0,308.0,843.0,0.0,0,369.0,1
439,439,0.6916043256571262,0.7,0.0,0.0,394.0,741.0,0.0,1,125.0,1
440,440,-0.6221077790157585,-0.6,0.0,1.0,281.0,533.0,1.0,0,206.0,1
441,441,-0.42932632088700645,-0.4,1.0,0.0,426.0,848.0,0.0,0,206.0,1
442,442,-0.8271835170716655,-0.8,1.0,0.0,387.0,634.0,0.0,0,249.0,1
443,443,0.12006951956654721,0.1,1.0,1.0,271.0,693.0,1.0,1,1766.0,1
444,444,-0.6352703220011341,-0.6,0.0,1.0,462.0,578.0,1.0,0,200.0,1
445,445,0.33458495499685215,0.3,1.0,1.0,494.0,898.0,1.0,1,1608.0,1
446,446,-0.42752620910693184,-0.4,0.0,1.0,298.0,794.0,1.0,0,268.0,1
447,447,-0.7562586265937079,-0.8,1.0,0.0,489.0,600.0,0.0,0,251.0,1
448,448,0.507883448360367,0.5,1.0,1.0,450.0,854.0,1.0,1,216.0,1
449,449,-0.4713536543657266,-0.5,0.0,1.0,418.0,693.0,1.0,0,279.0,1
450,450,-0.1184067931457582,-0.1,1.0,0.0,419.0,574.0,0.0,0,2007.0,1
451,451,0.7830408947715543,0.8,1.0,1.0,288.0,759.0,1.0,1,243.0,1
452,452,-0.15434719413037956,-0.2,1.0,0.0,454.0,766.0,0.0,0,580.0,1
453,453,-0.2047688759281514,-0.2,1.0,0.0,411.0,817.0,0.0,0,792.0,1
454,454,0.5153065126404924,0.5,0.0,0.0,438.0,847.0,0.0,1,125.0,1
455,455,-0.5154511307943281,-0.5,0.0,1.0,348.0,513.0,1.0,0,399.0,1
456,456,0.48415928263927943,0.5,1.0,1.0,474.0,838.0,1.0,1,218.0,1
457,457,-0.19294426671621911,-0.2,1.0,0.0,298.0,936.0,0.0,0,-184.0,1
458,458,-0.7277120526105383,-0.7,0.0,1.0,411.0,887.0,1.0,0,252.0,1
459,459,0.19251802767907866,0.2,0.0,0.0,292.0,514.0,0.0,1,644.0,1
460,460,0.6662580019511811,0.7,1.0,1.0,254.0,530.0,1.0,1,1836.0,1
461,461,-0.6131981552695986,-0.6,0.0,1.0,498.0,935.0,1.0,0,447.0,1
462,462,0.41089070761850477,0.4,1.0,1.0,266.0,648.0,1.0,1,666.0,1
463,463,0.15012316615295773,0.2,0.0,0.0,395.0,720.0,0.0,1,855.0,1
464,464,-0.777038000714168,-0.8,0.0,1.0,497.0,859.0,1.0,0,184.0,1
465,465,-0.015353996781953483,-0.0,0.0,1.0,462.0,710.0,1.0,0,1828.0,1
466,466,-0.3095944240103279,-0.3,1.0,0.0,454.0,994.0,0.0,0,402.0,1
467,467,0.276359946058479,0.3,0.0,0.0,394.0,881.0,0.0,1,265.0,1
468,468,-0.12264974574971588,-0.1,0.0,1.0,297.0,629.0,0.0,1,2074.0,0
469,469,-0.3469099733107197,-0.3,1.0,0.0,462.0,640.0,0.0,0,618.0,1
470,470,0.7404710418513224,0.7,1.0,1.0,448.0,760.0,1.0,1,262.0,1
471,471,0.6083582987439674,0.6,1.0,1.0,404.0,791.0,1.0,1,255.0,1
472,472,0.09762026659135503,0.1,1.0,1.0,461.0,725.0,1.0,1,1814.0,1
473,473,0.5790399064201989,0.6,0.0,0.0,363.0,961.0,0.0,1,426.0,1
474,474,0.7809330411609375,0.8,0.0,0.0,281.0,564.0,0.0,1,165.0,1
475,475,-0.3354260043572286,-0.3,0.0,1.0,338.0,565.0,1.0,0,407.0,1
476,476,0.01789164979914537,0.0,0.0,0.0,459.0,678.0,0.0,1,1863.0,1
477,477,-0.21652286175046864,-0.2,0.0,1.0,446.0,594.0,1.0,0,280.0,1
478,478,0.507260599912632,0.5,1.0,1.0,286.0,626.0,1.0,1,1278.0,1
479,479,0.18677980821586992,0.2,1.0,1.0,307.0,644.0,1.0,1,2049.0,1
480,480,-0.8365726988578858,-0.8,0.0,1.0,415.0,604.0,1.0,0,311.0,1
481,481,0.16337016299299745,0.2,1.0,1.0,289.0,764.0,1.0,1,1947.0,1
482,482,-0.0788477572937577,-0.1,0.0,1.0,369.0,840.0,1.0,0,991.0,1
483,483,0.20908829819038266,0.2,0.0,0.0,283.0,815.0,0.0,1,812.0,1
484,484,-0.6390562936877761,-0.6,1.0,0.0,429.0,635.0,0.0,0,176.0,1
485,485,0.6116165523512694,0.6,0.0,0.0,295.0,673.0,0.0,1,262.0,1
486,486,-0.32272548747016716,-0.3,1.0,0.0,369.0,521.0,0.0,0,550.0,1
487,487,-0.38341499651846556,-0.4,1.0,0.0,361.0,930.0,0.0,0,479.0,1
488,488,-0.8284347972935112,-0.8,1.0,0.0,437.0,878.0,0.0,0,205.0,1
489,489,0.353548182403299,0.4,1.0,1.0,370.0,879.0,1.0,1,431.0,1
490,490,0.5371317501252865,0.5,1.0,1.0,311.0,616.0,1.0,1,373.0,1
491,491,0.2192990947872896,0.2,0.0,0.0,460.0,983.0,0.0,1,1557.0,1
492,492,0.3999875777955616,0.4,0.0,0.0,411.0,996.0,0.0,1,303.0,1
493,493,0.312823194241579,0.3,1.0,1.0,367.0,691.0,1.0,1,1762.0,1
494,494,-0.8198765184933715,-0.8,0.0,1.0,381.0,560.0,1.0,0,419.0,1
495,495,0.814826212364136,0.8,1.0,1.0,384.0,804.0,1.0,1,122.0,1
496,496,0.7467327482688878,0.7,0.0,0.0,397.0,671.0,0.0,1,522.0,1
497,497,0.48471610965695444,0.5,1.0,1.0,303.0,989.0,1.0,1,538.0,1
498,498,-0.4085682001225525,-0.4,1.0,0.0,315.0,502.0,0.0,0,223.0,1
499,499,0.5855368375276012,0.6,0.0,0.0,262.0,710.0,0.0,1,248.0,1
500,500,0.8658593936956592,0.9,1.0,1.0,428.0,523.0,1.0,1,399.0,1
501,501,-0.31498062745129285,-0.3,0.0,1.0,404.0,687.0,1.0,0,369.0,1
502,502,0.35622880937912693,0.4,0.0,0.0,460.0,970.0,0.0,1,1360.0,1
503,503,-0.8595876439009712,-0.9,1.0,0.0,348.0,869.0,0.0,0,-147.0,1
504,504,-0.0962758140370008,-0.1,1.0,0.0,359.0,983.0,0.0,0,1638.0,1
505,505,-0.47500451138893074,-0.5,0.0,1.0,489.0,979.0,1.0,0,822.0,1
506,506,-0.7795644899372881,-0.8,0.0,1.0,285.0,669.0,1.0,0,206.0,1
507,507,-0.8174443393619271,-0.8,0.0,1.0,381.0,935.0,1.0,0,184.0,1
508,508,-0.6657464308567178,-0.7,0.0,1.0,348.0,970.0,1.0,0,422.0,1
509,509,-0.014961417624091422,-0.0,0.0,1.0,350.0,587.0,0.0,1,2063.0,0
510,510,-0.6126114948499128,-0.6,1.0,0.0,494.0,556.0,0.0,0,330.0,1
511,511,0.890819299381482,0.9,0.0,0.0,283.0,878.0,0.0,1,259.0,1
512,512,0.41875396630817086,0.4,1.0,1.0,401.0,581.0,1.0,1,998.0,1
513,513,-0.6507574468554433,-0.7,1.0,0.0,391.0,619.0,0.0,0,210.0,1
514,514,0.269352930233307,0.3,0.0,0.0,415.0,562.0,0.0,1,583.0,1
515,515,-0.5113924236898841,-0.5,1.0,0.0,399.0,928.0,0.0,0,393.0,1
516,516,-0.21383566423987355,-0.2,1.0,0.0,322.0,553.0,0.0,0,475.0,1
517,517,0.5369259651635515,0.5,0.0,0.0,268.0,605.0,0.0,1,197.0,1
518,518,0.49597015388877363,0.5,1.0,1.0,326.0,856.0,1.0,1,1108.0,1
519,519,-0.5128851553719478,-0.5,0.0,1.0,341.0,745.0,1.0,0,324.0,1
520,520,0.8373669305687016,0.8,1.0,1.0,316.0,769.0,1.0,1,75.0,1
521,521,0.0018072131389443857,0.0,1.0,1.0,441.0,838.0,1.0,1,1721.0,1
522,522,-0.21577367402065062,-0.2,0.0,1.0,487.0,614.0,1.0,0,939.0,1
523,523,-0.4429797986976596,-0.4,1.0,0.0,484.0,537.0,0.0,0,239.0,1
524,524,0.7602107485923447,0.8,1.0,1.0,478.0,801.0,1.0,1,151.0,1
525,525,0.06644270056372847,0.1,1.0,1.0,483.0,859.0,1.0,1,1658.0,1
526,526,-0.01520910214105009,-0.0,0.0,1.0,491.0,663.0,0.0,1,1846.0,0
527,527,0.0016474719324532927,0.0,0.0,0.0,409.0,715.0,0.0,1,1876.0,1
528,528,0.6924848115067513,0.7,0.0,0.0,259.0,901.0,0.0,1,160.0,1
529,529,0.11208715416567971,0.1,1.0,1.0,255.0,805.0,0.0,0,1940.0,0
530,530,-0.11029616386519614,-0.1,1.0,0.0,282.0,810.0,0.0,0,448.0,1
531,531,0.8213666963838316,0.8,0.0,0.0,422.0,898.0,0.0,1,340.0,1
532,532,0.713608257167304,0.7,1.0,1.0,496.0,671.0,1.0,1,663.0,1
533,533,-0.7137048260671507,-0.7,0.0,1.0,398.0,991.0,1.0,0,301.0,1
534,534,0.6274911791077283,0.6,0.0,0.0,261.0,934.0,0.0,1,435.0,1
535,535,-0.39935703588965776,-0.4,1.0,0.0,282.0,952.0,0.0,0,576.0,1
536,536,0.6072295489834086,0.6,0.0,0.0,315.0,802.0,0.0,1,153.0,1
537,537,0.6293481567376588,0.6,1.0,1.0,408.0,563.0,1.0,1,239.0,1
538,538,-0.5225828037710798,-0.5,1.0,0.0,411.0,703.0,0.0,0,256.0,1
539,539,0.6968832786894082,0.7,0.0,0.0,467.0,510.0,0.0,1,193.0,1
540,540,0.7250497441155322,0.7,0.0,0.0,310.0,757.0,0.0,1,343.0,1
541,541,0.1917174033960395,0.2,0.0,0.0,329.0,900.0,1.0,0,-309.0,0
542,542,0.5047029218599889,0.5,0.0,0.0,347.0,567.0,0.0,1,306.0,1
543,543,-0.7966277563662509,-0.8,0.0,1.0,421.0,770.0,1.0,0,259.0,1
544,544,0.7100175954071283,0.7,1.0,1.0,280.0,919.0,1.0,1,1241.0,1
545,545,0.03039006390244181,0.0,0.0,0.0,311.0,542.0,1.0,0,2147.0,0
546,546,-0.6930948294796304,-0.7,0.0,1.0,318.0,501.0,1.0,0,611.0,1
547,547,0.7403670157290853,0.7,0.0,0.0,389.0,511.0,0.0,1,700.0,1
548,548,-0.4829577620924141,-0.5,0.0,1.0,395.0,788.0,1.0,0,527.0,1
549,549,-0.4728901858557831,-0.5,0.0,1.0,386.0,569.0,1.0,0,585.0,1
550,550,0.5114716375370457,0.5,1.0,1.0,438.0,692.0,1.0,1,410.0,1
551,551,-0.8085301766703902,-0.8,0.0,1.0,402.0,730.0,1.0,0,708.0,1
552,552,0.10317072601943955,0.1,1.0,1.0,477.0,510.0,1.0,1,2013.0,1
553,553,-0.8998892863845428,-0.9,1.0,0.0,351.0,512.0,0.0,0,217.0,1
554,554,0.3151348720031869,0.3,0.0,0.0,398.0,661.0,0.0,1,511.0,1
555,555,0.19219811347144133,0.2,0.0,0.0,293.0,546.0,0.0,1,731.0,1
556,556,0.8494860103467988,0.8,1.0,1.0,428.0,896.0,1.0,1,666.0,1
557,557,0.7217509096038958,0.7,1.0,1.0,477.0,801.0,1.0,1,582.0,1
558,558,0.7949299456972382,0.8,0.0,0.0,379.0,632.0,0.0,1,289.0,1
559,559,-0.4871409142673907,-0.5,0.0,1.0,443.0,609.0,1.0,0,1158.0,1
560,560,-0.5639528336381894,-0.6,1.0,0.0,481.0,773.0,0.0,0,66.0,1
561,561,-0.4373239457561235,-0.4,0.0,1.0,435.0,563.0,1.0,0,612.0,1
562,562,-0.7364827352382481,-0.7,1.0,0.0,285.0,556.0,0.0,0,119.0,1
563,563,-0.4431497906225735,-0.4,1.0,0.0,403.0,599.0,0.0,0,488.0,1
564,564,0.5364172068741623,0.5,0.0,0.0,490.0,604.0,0.0,1,196.0,1
565,565,0.833820770459272,0.8,0.0,0.0,355.0,999.0,0.0,1,156.0,1
566,566,0.5492279780204755,0.5,0.0,0.0,384.0,773.0,0.0,1,193.0,1
567,567,-0.43996328730993967,-0.4,1.0,0.0,335.0,596.0,0.0,0,209.0,1
568,568,0.08657691046849725,0.1,1.0,1.0,480.0,887.0,0.0,0,1633.0,0
569,569,0.7731688610661048,0.8,0.0,0.0,368.0,948.0,0.0,1,514.0,1
570,570,-0.7280577821699094,-0.7,0.0,1.0,436.0,719.0,1.0,0,315.0,1
571,571,0.7047250547794351,0.7,1.0,1.0,321.0,797.0,1.0,1,402.0,1
572,572,0.23815980281421034,0.2,1.0,1.0,322.0,683.0,1.0,1,1445.0,1
573,573,-0.2150371943459456,-0.2,0.0,1.0,402.0,794.0,1.0,0,1804.0,1
574,574,-0.7807368147218389,-0.8,0.0,1.0,275.0,963.0,1.0,0,92.0,1
575,575,0.15674497781157204,0.2,1.0,1.0,349.0,916.0,1.0,1,985.0,1
576,576,0.15437051889187725,0.2,0.0,0.0,329.0,764.0,0.0,1,1217.0,1
577,577,-0.07362533932223259,-0.1,0.0,1.0,309.0,698.0,1.0,0,543.0,1
578,578,-0.0724893316589742,-0.1,1.0,0.0,411.0,610.0,0.0,0,1129.0,1
579,579,0.8484175009248819,0.8,1.0,1.0,448.0,907.0,1.0,1,205.0,1
580,580,0.16642394736461752,0.2,1.0,1.0,393.0,613.0,1.0,1,1814.0,1
581,581,-0.4849683854909666,-0.5,0.0,1.0,418.0,807.0,1.0,0,1245.0,1
582,582,0.723983352728851,0.7,1.0,1.0,333.0,750.0,1.0,1,167.0,1
583,583,0.808413541570094,0.8,1.0,1.0,371.0,957.0,1.0,1,242.0,1
584,584,0.38992504438240616,0.4,0.0,0.0,329.0,826.0,0.0,1,235.0,1
585,585,0.2882414242944923,0.3,0.0,0.0,344.0,946.0,0.0,1,700.0,1
586,586,-0.5907796951744358,-0.6,1.0,0.0,345.0,781.0,0.0,0,174.0,1
587,587,0.7057047541438025,0.7,1.0,1.0,254.0,561.0,1.0,1,245.0,1
588,588,0.2218064946064383,0.2,1.0,1.0,276.0,797.0,1.0,1,1297.0,1
589,589,-0.6416168094820459,-0.6,0.0,1.0,497.0,712.0,1.0,0,201.0,1
590,590,-0.7822751407392432,-0.8,1.0,0.0,370.0,643.0,0.0,0,117.0,1
591,591,0.7578721029935985,0.8,1.0,1.0,481.0,601.0,1.0,1,268.0,1
592,592,-0.17258537027368503,-0.2,1.0,0.0,344.0,732.0,0.0,0,914.0,1
593,593,0.812401253232463,0.8,0.0,0.0,298.0,892.0,0.0,1,240.0,1
594,594,-0.5151178903656252,-0.5,0.0,1.0,471.0,795.0,1.0,0,174.0,1
595,595,0.4527174862253883,0.5,0.0,0.0,331.0,599.0,0.0,1,390.0,1
596,596,0.20112628434311353,0.2,1.0,1.0,476.0,728.0,1.0,1,666.0,1
597,597,0.41285186383743133,0.4,0.0,0.0,350.0,579.0,0.0,1,331.0,1
598,598,0.28754687573156146,0.3,0.0,0.0,272.0,693.0,0.0,1,685.0,1
599,599,0.015173382736500374,0.0,1.0,1.0,346.0,826.0,0.0,0,1828.0,0
600,600,-0.15263956816990465,-0.2,0.0,1.0,422.0,601.0,0.0,1,1977.0,0
601,601,-0.6902741410952999,-0.7,1.0,0.0,401.0,618.0,0.0,0,391.0,1
602,602,0.4826143364226193,0.5,0.0,0.0,353.0,879.0,0.0,1,348.0,1
603,603,-0.48230150940627653,-0.5,1.0,0.0,312.0,521.0,0.0,0,137.0,1
604,604,0.07304824267327936,0.1,1.0,1.0,468.0,583.0,0.0,0,1949.0,0
605,605,-0.684272999628999,-0.7,0.0,1.0,289.0,689.0,1.0,0,332.0,1
606,606,0.07881256520510804,0.1,0.0,0.0,468.0,710.0,0.0,1,1012.0,1
607,607,-0.8508916465047728,-0.9,0.0,1.0,438.0,873.0,1.0,0,119.0,1
608,608,-0.2898198031436624,-0.3,1.0,0.0,318.0,501.0,0.0,0,271.0,1
609,609,0.16986341162648888,0.2,0.0,0.0,437.0,835.0,0.0,1,238.0,1
610,610,-0.7239725121906724,-0.7,0.0,1.0,448.0,586.0,1.0,0,226.0,1
611,611,0.4494579629284635,0.4,0.0,0.0,300.0,825.0,0.0,1,135.0,1
612,612,0.3276103274614207,0.3,0.0,0.0,359.0,876.0,0.0,1,425.0,1
613,613,0.01411357487918874,0.0,1.0,1.0,324.0,690.0,0.0,0,1986.0,0
614,614,-0.4907088845109588,-0.5,1.0,0.0,451.0,714.0,0.0,0,415.0,1
615,615,0.2777912280889113,0.3,1.0,1.0,413.0,908.0,1.0,1,269.0,1
616,616,-0.3307281202667688,-0.3,1.0,0.0,491.0,721.0,0.0,0,328.0,1
617,617,0.690777518120831,0.7,0.0,0.0,325.0,949.0,0.0,1,366.0,1
618,618,-0.4376372086156493,-0.4,1.0,0.0,311.0,629.0,0.0,0,450.0,1
619,619,0.25729127878863045,0.3,0.0,0.0,316.0,824.0,0.0,1,470.0,1
620,620,0.5304594684008089,0.5,1.0,1.0,265.0,687.0,1.0,1,288.0,1
621,621,0.4117726307505133,0.4,0.0,0.0,393.0,973.0,0.0,1,184.0,1
622,622,0.8356892741585317,0.8,0.0,0.0,393.0,649.0,0.0,1,428.0,1
623,623,-0.4684870459902838,-0.5,0.0,1.0,455.0,783.0,1.0,0,382.0,1
624,624,0.781388095593191,0.8,0.0,0.0,488.0,873.0,0.0,1,269.0,1
625,625,-0.8849957143571181,-0.9,0.0,1.0,337.0,956.0,1.0,0,157.0,1
626,626,0.6463238341536662,0.6,0.0,0.0,475.0,603.0,0.0,1,302.0,1
627,627,-0.5940945290016537,-0.6,1.0,0.0,324.0,937.0,0.0,0,249.0,1
628,628,-0.10407725870753015,-0.1,0.0,1.0,482.0,773.0,1.0,0,1545.0,1
629,629,-0.37486732778843557,-0.4,1.0,0.0,358.0,771.0,0.0,0,111.0,1
630,630,-0.6750842093708908,-0.7,0.0,1.0,391.0,861.0,1.0,0,208.0,1
631,631,0.22261612697468525,0.2,0.0,0.0,284.0,854.0,0.0,1,502.0,1
632,632,0.7556143891459323,0.8,0.0,0.0,262.0,529.0,0.0,1,179.0,1
633,633,-0.4231335868221815,-0.4,1.0,0.0,395.0,534.0,0.0,0,311.0,1
634,634,0.5977236583601538,0.6,0.0,0.0,288.0,980.0,0.0,1,282.0,1
635,635,-0.6723409207414552,-0.7,1.0,0.0,272.0,755.0,0.0,0,133.0,1
636,636,-0.22819830199019864,-0.2,0.0,1.0,407.0,638.0,1.0,0,225.0,1
637,637,0.8809654597867688,0.9,0.0,0.0,386.0,725.0,0.0,1,169.0,1
638,638,-0.22803307628400982,-0.2,0.0,1.0,329.0,557.0,1.0,0,334.0,1
639,639,-0.765208624207157,-0.8,1.0,0.0,414.0,896.0,0.0,0,270.0,1
640,640,0.7046861462729651,0.7,0.0,0.0,393.0,854.0,0.0,1,223.0,1
641,641,-0.8509123697834154,-0.9,1.0,0.0,412.0,786.0,0.0,0,212.0,1
642,642,0.6637061069522464,0.7,0.0,0.0,280.0,897.0,0.0,1,403.0,1
643,643,-0.1068300782349405,-0.1,0.0,1.0,295.0,535.0,1.0,0,790.0,1
644,644,-0.0030443916867134435,-0.0,1.0,0.0,481.0,758.0,0.0,0,1681.0,1
645,645,-0.1716700196425729,-0.2,0.0,1.0,283.0,704.0,1.0,0,1103.0,1
646,646,0.3221673144235976,0.3,0.0,0.0,432.0,539.0,0.0,1,189.0,1
647,647,0.3388409901865638,0.3,0.0,0.0,334.0,561.0,0.0,1,335.0,1
648,648,-0.7504033635424593,-0.8,1.0,0.0,314.0,957.0,0.0,0,249.0,1
649,649,0.12236382445762717,0.1,0.0,0.0,437.0,778.0,0.0,1,545.0,1
650,650,0.8426650019558962,0.8,1.0,1.0,412.0,612.0,1.0,1,236.0,1
651,651,0.4570407021728561,0.5,1.0,1.0,490.0,734.0,1.0,1,706.0,1
652,652,0.5252119746974392,0.5,1.0,1.0,286.0,861.0,1.0,1,663.0,1
653,653,-0.23355054602598424,-0.2,0.0,1.0,329.0,904.0,1.0,0,1487.0,1
654,654,-0.5679211782417934,-0.6,0.0,1.0,255.0,828.0,1.0,0,467.0,1
655,655,0.5110218552586671,0.5,0.0,0.0,493.0,770.0,0.0,1,357.0,1
656,656,0.7516925137577884,0.8,0.0,0.0,446.0,754.0,0.0,1,210.0,1
657,657,-0.3482529921714991,-0.3,0.0,1.0,350.0,594.0,1.0,0,476.0,1
658,658,0.2994267204794846,0.3,0.0,0.0,262.0,816.0,0.0,1,572.0,1
659,659,0.7745037320203588,0.8,1.0,1.0,419.0,797.0,1.0,1,174.0,1
660,660,0.15673869304430188,0.2,1.0,1.0,469.0,812.0,1.0,1,1719.0,1
661,661,0.7377249621737495,0.7,0.0,0.0,297.0,758.0,0.0,1,255.0,1
662,662,-0.10131177130499136,-0.1,1.0,0.0,471.0,706.0,0.0,0,933.0,1
663,663,0.7225683413292198,0.7,0.0,0.0,349.0,823.0,0.0,1,218.0,1
664,664,-0.11405207626149594,-0.1,0.0,1.0,443.0,928.0,0.0,1,1629.0,0
665,665,-0.0009741235750412303,-0.0,1.0,0.0,481.0,913.0,0.0,0,1606.0,1
666,666,-0.8652409205560485,-0.9,1.0,0.0,422.0,833.0,0.0,0,85.0,1
667,667,-0.3851959944619835,-0.4,1.0,0.0,367.0,867.0,0.0,0,-524.0,1
668,668,0.46932816602691074,0.5,1.0,1.0,325.0,534.0,1.0,1,981.0,1
669,669,0.27823070281806206,0.3,0.0,0.0,274.0,747.0,0.0,1,1169.0,1
670,670,0.49518616057682474,0.5,0.0,0.0,317.0,929.0,0.0,1,114.0,1
671,671,-0.8394778591130477,-0.8,1.0,0.0,340.0,916.0,0.0,0,154.0,1
672,672,-0.09106367084518785,-0.1,0.0,1.0,388.0,898.0,0.0,1,1714.0,0
673,673,-0.4425684698481241,-0.4,1.0,0.0,268.0,913.0,0.0,0,299.0,1
674,674,0.7198055439269079,0.7,1.0,1.0,457.0,684.0,1.0,1,319.0,1
675,675,-0.5791085131548439,-0.6,1.0,0.0,439.0,640.0,0.0,0,221.0,1
676,676,0.8720106369988158,0.9,1.0,1.0,325.0,739.0,1.0,1,296.0,1
677,677,0.10308648710379209,0.1,0.0,0.0,385.0,704.0,0.0,1,771.0,1
678,678,0.7175662028588893,0.7,1.0,1.0,356.0,858.0,1.0,1,406.0,1
679,679,0.1079741087527547,0.1,0.0,0.0,289.0,599.0,0.0,1,1752.0,1
680,680,0.2951659181047933,0.3,0.0,0.0,472.0,931.0,0.0,1,1037.0,1
681,681,-0.6749718105429162,-0.7,1.0,0.0,404.0,792.0,0.0,0,144.0,1
682,682,0.29581546863125274,0.3,0.0,0.0,432.0,953.0,0.0,1,915.0,1
683,683,-0.5350672210310847,-0.5,0.0,1.0,492.0,901.0,1.0,0,1007.0,1
684,684,0.44768309080294666,0.4,0.0,0.0,494.0,852.0,0.0,1,114.0,1
685,685,0.10215794698956004,0.1,1.0,1.0,316.0,591.0,1.0,1,2093.0,1
686,686,-0.8646077786435924,-0.9,1.0,0.0,457.0,812.0,0.0,0,191.0,1
687,687,0.06020231863234282,0.1,0.0,0.0,475.0,806.0,0.0,1,1719.0,1
688,688,0.3547786860419898,0.4,1.0,1.0,348.0,668.0,1.0,1,1984.0,1
689,689,0.5730052062548995,0.6,0.0,0.0,427.0,502.0,0.0,1,181.0,1
690,690,0.48132839435168073,0.5,1.0,1.0,414.0,973.0,1.0,1,573.0,1
691,691,-0.41269072417839087,-0.4,0.0,1.0,449.0,516.0,1.0,0,435.0,1
692,692,0.22009541153939371,0.2,1.0,1.0,452.0,556.0,1.0,1,1242.0,1
693,693,0.7420669899843394,0.7,0.0,0.0,261.0,884.0,0.0,1,135.0,1
694,694,-0.5192400479415911,-0.5,1.0,0.0,301.0,678.0,0.0,0,361.0,1
695,695,0.8029357262331679,0.8,0.0,0.0,358.0,737.0,0.0,1,155.0,1
696,696,0.1485549426510978,0.1,1.0,1.0,339.0,693.0,1.0,1,888.0,1
697,697,-0.44298217456077765,-0.4,1.0,0.0,298.0,966.0,0.0,0,176.0,1
698,698,-0.2721171795856685,-0.3,0.0,1.0,311.0,551.0,1.0,0,968.0,1
699,699,-0.03283836925381367,-0.0,1.0,0.0,499.0,520.0,0.0,0,481.0,1
700,700,0.6571702871513009,0.7,0.0,0.0,312.0,704.0,0.0,1,284.0,1
701,701,0.15677212304738208,0.2,1.0,1.0,318.0,769.0,1.0,1,1913.0,1
702,702,0.8999826294372743,0.9,1.0,1.0,499.0,627.0,1.0,1,364.0,1
703,703,0.4138960624684621,0.4,0.0,0.0,288.0,687.0,0.0,1,465.0,1
704,704,-0.7829348971827913,-0.8,1.0,0.0,361.0,510.0,0.0,0,109.0,1
705,705,0.6013522672179342,0.6,1.0,1.0,472.0,964.0,1.0,1,224.0,1
706,706,0.13048214258143143,0.1,0.0,0.0,441.0,731.0,0.0,1,478.0,1
707,707,-0.06842750181855195,-0.1,1.0,0.0,492.0,919.0,0.0,0,1589.0,1
708,708,-0.6128514690427248,-0.6,0.0,1.0,457.0,630.0,1.0,0,1173.0,1
709,709,0.4628595401782861,0.5,0.0,0.0,470.0,894.0,0.0,1,236.0,1
710,710,-0.3975470579128124,-0.4,0.0,1.0,409.0,900.0,1.0,0,341.0,1
711,711,-0.06410700363599697,-0.1,1.0,0.0,419.0,573.0,0.0,0,1678.0,1
712,712,0.7790241694068213,0.8,1.0,1.0,311.0,786.0,1.0,1,1903.0,1
713,713,0.014850956554992023,0.0,1.0,1.0,450.0,549.0,0.0,0,1821.0,0
714,714,0.14946483815337064,0.1,1.0,1.0,371.0,599.0,1.0,1,2030.0,1
715,715,-0.5195443192451836,-0.5,0.0,1.0,359.0,826.0,1.0,0,205.0,1
716,716,0.050137492067107936,0.1,0.0,0.0,253.0,796.0,1.0,0,1951.0,0
717,717,0.021288347151044107,0.0,0.0,0.0,424.0,861.0,0.0,1,1635.0,1
718,718,0.3299390956788678,0.3,1.0,1.0,498.0,909.0,1.0,1,583.0,1
719,719,0.727784392465019,0.7,0.0,0.0,421.0,897.0,0.0,1,142.0,1
720,720,0.7950895495925075,0.8,0.0,0.0,488.0,892.0,0.0,1,230.0,1
721,721,0.6400883717226887,0.6,0.0,0.0,255.0,973.0,0.0,1,252.0,1
722,722,0.8109944533171022,0.8,1.0,1.0,264.0,780.0,1.0,1,276.0,1
723,723,0.6517448982748649,0.7,0.0,0.0,443.0,974.0,0.0,1,333.0,1
724,724,0.6818767507531692,0.7,0.0,0.0,399.0,980.0,0.0,1,481.0,1
725,725,-0.05149932879987473,-0.1,1.0,0.0,270.0,581.0,0.0,0,819.0,1
726,726,-0.12628452003530222,-0.1,1.0,0.0,400.0,639.0,0.0,0,1321.0,1
727,727,-0.3757981658914219,-0.4,0.0,1.0,297.0,781.0,1.0,0,312.0,1
728,728,0.8364107340676955,0.8,0.0,0.0,377.0,607.0,0.0,1,176.0,1
729,729,0.8146664322368934,0.8,1.0,1.0,348.0,652.0,1.0,1,390.0,1
730,730,0.13715847868948472,0.1,1.0,1.0,372.0,656.0,1.0,1,1972.0,1
731,731,-0.5051491626527378,-0.5,0.0,1.0,293.0,594.0,1.0,0,533.0,1
732,732,0.4099740887979745,0.4,0.0,0.0,373.0,918.0,0.0,1,179.0,1
733,733,-0.09272538691055254,-0.1,1.0,0.0,497.0,878.0,0.0,0,725.0,1
734,734,0.3127873539893905,0.3,1.0,1.0,460.0,849.0,1.0,1,1691.0,1
735,735,-0.20168706857331054,-0.2,0.0,1.0,304.0,730.0,1.0,0,606.0,1
736,736,0.8290132918832457,0.8,1.0,1.0,381.0,920.0,1.0,1,269.0,1
737,737,0.20643802165032954,0.2,1.0,1.0,463.0,822.0,1.0,1,1715.0,1
738,738,-0.5859732923479294,-0.6,0.0,1.0,365.0,764.0,1.0,0,171.0,1
739,739,-0.32705095143473073,-0.3,1.0,0.0,325.0,513.0,0.0,0,1102.0,1
740,740,0.7712987017321765,0.8,0.0,0.0,368.0,709.0,0.0,1,783.0,1
741,741,0.6170004794428522,0.6,1.0,1.0,475.0,785.0,1.0,1,490.0,1
742,742,-0.28465231433680427,-0.3,1.0,0.0,493.0,560.0,0.0,0,357.0,1
743,743,-0.6384987700060023,-0.6,1.0,0.0,395.0,777.0,0.0,0,88.0,1
744,744,-0.3480246672604509,-0.3,1.0,0.0,473.0,856.0,0.0,0,551.0,1
745,745,0.35045475453889685,0.4,0.0,0.0,316.0,947.0,1.0,0,177.0,0
746,746,0.007670206681644864,0.0,1.0,1.0,270.0,977.0,0.0,0,1753.0,0
747,747,0.8518721602417713,0.9,1.0,1.0,280.0,629.0,1.0,1,351.0,1
748,748,-0.3915214132562006,-0.4,1.0,0.0,305.0,904.0,0.0,0,351.0,1
749,749,-0.6020486998351358,-0.6,1.0,0.0,336.0,841.0,0.0,0,383.0,1
750,750,0.8585055334864048,0.9,1.0,1.0,360.0,669.0,1.0,1,231.0,1
751,751,0.2346341307693086,0.2,1.0,1.0,251.0,644.0,1.0,1,2105.0,1
752,752,-0.43026839493952834,-0.4,0.0,1.0,410.0,683.0,1.0,0,327.0,1
753,753,0.32709605723602075,0.3,1.0,1.0,283.0,787.0,1.0,1,1700.0,1
754,754,-0.11088104269354349,-0.1,0.0,1.0,372.0,901.0,1.0,0,1337.0,1
755,755,0.3483868151821369,0.3,1.0,1.0,410.0,813.0,1.0,1,1537.0,1
756,756,-0.7358943128400349,-0.7,1.0,0.0,317.0,634.0,0.0,0,189.0,1
757,757,0.4920130900729057,0.5,1.0,1.0,473.0,541.0,1.0,1,696.0,1
758,758,-0.7812714941122709,-0.8,1.0,0.0,331.0,750.0,0.0,0,139.0,1
759,759,-0.2275922358945287,-0.2,1.0,0.0,432.0,554.0,0.0,0,394.0,1
760,760,-0.7052136451734294,-0.7,0.0,1.0,277.0,586.0,1.0,0,167.0,1
761,761,0.3169065865539772,0.3,1.0,1.0,342.0,967.0,1.0,1,1131.0,1
762,762,-0.4397077393300551,-0.4,0.0,1.0,443.0,563.0,1.0,0,424.0,1
763,763,0.7978116496583608,0.8,1.0,1.0,303.0,748.0,1.0,1,199.0,1
764,764,-0.8857200301760259,-0.9,0.0,1.0,417.0,575.0,1.0,0,198.0,1
765,765,0.5377963539242167,0.5,1.0,1.0,472.0,971.0,1.0,1,367.0,1
766,766,-0.6509530521100836,-0.7,0.0,1.0,368.0,938.0,1.0,0,314.0,1
767,767,0.07853477454121782,0.1,1.0,1.0,400.0,516.0,1.0,1,2084.0,1
768,768,0.4346455565452053,0.4,0.0,0.0,253.0,655.0,0.0,1,242.0,1
769,769,-0.11201277071617766,-0.1,0.0,1.0,363.0,687.0,1.0,0,870.0,1
770,770,0.009960075374777277,0.0,0.0,0.0,432.0,791.0,0.0,1,1777.0,1
771,771,-0.41684660116958117,-0.4,0.0,1.0,335.0,949.0,1.0,0,116.0,1
772,772,0.8840790848922141,0.9,0.0,0.0,371.0,972.0,0.0,1,87.0,1
773,773,-0.39052958946758964,-0.4,0.0,1.0,321.0,986.0,1.0,0,473.0,1
774,774,0.369512169990576,0.4,0.0,0.0,362.0,843.0,0.0,1,415.0,1
775,775,-0.7566774596425702,-0.8,0.0,1.0,288.0,614.0,1.0,0,158.0,1
776,776,0.4876601921145681,0.5,1.0,1.0,352.0,536.0,1.0,1,282.0,1
777,777,0.6705536783407434,0.7,0.0,0.0,268.0,508.0,0.0,1,234.0,1
778,778,-0.43242506141849885,-0.4,0.0,1.0,370.0,864.0,1.0,0,456.0,1
779,779,0.05729327976977494,0.1,1.0,1.0,468.0,759.0,1.0,1,1773.0,1
780,780,0.013520142728152496,0.0,1.0,1.0,463.0,981.0,0.0,0,1556.0,0
781,781,-0.45912602121759255,-0.5,0.0,1.0,469.0,601.0,1.0,0,890.0,1
782,782,-0.2762070570677838,-0.3,1.0,0.0,326.0,569.0,0.0,0,555.0,1
783,783,-0.12210306107320246,-0.1,0.0,1.0,389.0,697.0,1.0,0,664.0,1
784,784,0.28005988391426506,0.3,1.0,1.0,461.0,925.0,1.0,1,1614.0,1
785,785,-0.643222375806261,-0.6,1.0,0.0,291.0,690.0,0.0,0,139.0,1
786,786,0.5575242126593022,0.6,0.0,0.0,469.0,962.0,0.0,1,229.0,1
787,787,-0.29971677195690205,-0.3,0.0,1.0,356.0,643.0,1.0,0,561.0,1
788,788,-0.6403931407531932,-0.6,0.0,1.0,480.0,653.0,1.0,0,257.0,1
789,789,-0.7703963402898996,-0.8,1.0,0.0,443.0,786.0,0.0,0,401.0,1
790,790,-0.8977341552299315,-0.9,1.0,0.0,317.0,973.0,0.0,0,40.0,1
791,791,0.2022444962207054,0.2,0.0,0.0,496.0,516.0,0.0,1,728.0,1
792,792,-0.22175693397422114,-0.2,0.0,1.0,334.0,698.0,1.0,0,998.0,1
793,793,-0.33494939804343404,-0.3,1.0,0.0,272.0,576.0,0.0,0,252.0,1
794,794,0.5960587381596906,0.6,1.0,1.0,497.0,685.0,1.0,1,228.0,1
795,795,-0.28770355904012845,-0.3,0.0,1.0,342.0,780.0,1.0,0,1228.0,1
796,796,-0.6406829466636292,-0.6,0.0,1.0,331.0,559.0,1.0,0,350.0,1
797,797,-0.6634907869217469,-0.7,1.0,0.0,304.0,764.0,0.0,0,212.0,1
798,798,-0.1612988202171387,-0.2,0.0,1.0,435.0,616.0,1.0,0,1949.0,1
799,799,0.25156554267046005,0.3,0.0,0.0,466.0,586.0,0.0,1,1348.0,1
800,800,0.30051044891186984,0.3,1.0,1.0,450.0,769.0,1.0,1,1271.0,1
801,801,0.7581612991211811,0.8,0.0,0.0,287.0,974.0,0.0,1,139.0,1
802,802,-0.6766282562785597,-0.7,0.0,1.0,378.0,981.0,1.0,0,101.0,1
803,803,0.11810351559360666,0.1,1.0,1.0,395.0,698.0,1.0,1,1907.0,1
804,804,-0.7216501424483038,-0.7,1.0,0.0,278.0,928.0,0.0,0,214.0,1
805,805,0.8660787580958148,0.9,0.0,0.0,378.0,781.0,1.0,0,-59.0,0
806,806,0.39508987521001415,0.4,0.0,0.0,334.0,625.0,0.0,1,481.0,1
807,807,-0.4273961308673152,-0.4,0.0,1.0,448.0,579.0,1.0,0,263.0,1
808,808,-0.5556697448109962,-0.6,0.0,1.0,315.0,662.0,1.0,0,403.0,1
809,809,0.24956251614528047,0.2,1.0,1.0,411.0,512.0,1.0,1,1147.0,1
810,810,-0.8610012461333373,-0.9,0.0,1.0,394.0,752.0,1.0,0,144.0,1
811,811,-0.5029293392578242,-0.5,0.0,1.0,296.0,890.0,1.0,0,254.0,1
812,812,-0.0798253670805198,-0.1,0.0,1.0,316.0,661.0,0.0,1,2023.0,0
813,813,0.19592292705746284,0.2,1.0,1.0,345.0,895.0,1.0,1,400.0,1
814,814,-0.40684154413092855,-0.4,1.0,0.0,323.0,871.0,0.0,0,296.0,1
815,815,0.5008764994069791,0.5,1.0,1.0,267.0,804.0,1.0,1,199.0,1
816,816,0.476227861652723,0.5,1.0,1.0,297.0,781.0,1.0,1,212.0,1
817,817,-0.250212733515746,-0.3,0.0,1.0,252.0,649.0,1.0,0,2099.0,1
818,818,-0.7327944686616177,-0.7,0.0,1.0,291.0,841.0,1.0,0,228.0,1
819,819,-0.2444603152838314,-0.2,1.0,0.0,467.0,690.0,0.0,0,323.0,1
820,820,0.5163559154994778,0.5,0.0,0.0,416.0,659.0,0.0,1,175.0,1
821,821,-0.5815687341534792,-0.6,1.0,0.0,254.0,706.0,0.0,0,160.0,1
822,822,0.7784308518001127,0.8,1.0,1.0,266.0,542.0,1.0,1,452.0,1
823,823,-0.5379464532240525,-0.5,0.0,1.0,376.0,686.0,1.0,0,338.0,1
824,824,0.13692866673677095,0.1,1.0,1.0,399.0,678.0,1.0,1,1923.0,1
825,825,0.5742970960507124,0.6,1.0,1.0,478.0,925.0,1.0,1,107.0,1
826,826,-0.6771856017196453,-0.7,1.0,0.0,330.0,514.0,0.0,0,166.0,1
827,827,0.5843953749585454,0.6,1.0,1.0,448.0,845.0,1.0,1,467.0,1
828,828,0.24095389232806952,0.2,1.0,1.0,424.0,732.0,1.0,1,1844.0,1
829,829,0.1145039612696247,0.1,0.0,0.0,428.0,881.0,0.0,1,761.0,1
830,830,-0.5926697075314478,-0.6,1.0,0.0,439.0,908.0,0.0,0,243.0,1
831,831,-0.8819683078502797,-0.9,1.0,0.0,272.0,605.0,0.0,0,163.0,1
832,832,0.4223245967936865,0.4,1.0,1.0,487.0,831.0,1.0,1,962.0,1
833,833,-0.6156277432685946,-0.6,0.0,1.0,425.0,854.0,1.0,0,161.0,1
834,834,-0.7401670182837774,-0.7,0.0,1.0,468.0,960.0,1.0,0,222.0,1
835,835,-0.20932031224269387,-0.2,0.0,1.0,424.0,775.0,1.0,0,601.0,1
836,836,-0.12009199451061903,-0.1,1.0,0.0,443.0,628.0,0.0,0,819.0,1
837,837,0.6660612333277823,0.7,0.0,0.0,467.0,885.0,0.0,1,348.0,1
838,838,-0.49004245564874827,-0.5,0.0,1.0,267.0,730.0,1.0,0,833.0,1
839,839,-0.2606833244917732,-0.3,1.0,0.0,445.0,746.0,0.0,0,9.0,1
840,840,0.8211574987968236,0.8,0.0,0.0,255.0,773.0,0.0,1,462.0,1
841,841,0.8032848460693897,0.8,0.0,0.0,344.0,715.0,0.0,1,151.0,1
842,842,-0.1359648115814862,-0.1,0.0,1.0,355.0,559.0,1.0,0,906.0,1
843,843,0.7939078666974902,0.8,1.0,1.0,474.0,695.0,1.0,1,161.0,1
844,844,0.10183976878501577,0.1,1.0,1.0,315.0,949.0,1.0,1,1736.0,1
845,845,-0.46678040877291077,-0.5,0.0,1.0,334.0,575.0,1.0,0,141.0,1
846,846,0.38544283874670027,0.4,1.0,1.0,397.0,599.0,1.0,1,614.0,1
847,847,0.7755803230650663,0.8,0.0,0.0,472.0,785.0,0.0,1,413.0,1
848,848,0.12644763363324685,0.1,0.0,0.0,311.0,656.0,0.0,1,2033.0,1
849,849,-0.35918349104492253,-0.4,0.0,1.0,481.0,861.0,1.0,0,158.0,1
850,850,0.11779195892443461,0.1,1.0,1.0,416.0,717.0,1.0,1,1867.0,1
851,851,0.09355149839860599,0.1,0.0,0.0,281.0,771.0,0.0,1,1948.0,1
852,852,-0.12087846512661138,-0.1,1.0,0.0,408.0,508.0,0.0,0,2084.0,1
853,853,-0.20287672781368882,-0.2,1.0,0.0,390.0,745.0,0.0,0,255.0,1
854,854,0.35278414938182967,0.4,0.0,0.0,366.0,538.0,0.0,1,326.0,1
855,855,-0.772643047332949,-0.8,0.0,1.0,467.0,783.0,1.0,0,160.0,1
856,856,0.6955624744394883,0.7,1.0,1.0,326.0,500.0,1.0,1,954.0,1
857,857,0.23517614190563652,0.2,0.0,0.0,405.0,762.0,0.0,1,1033.0,1
858,858,-0.4586921380807422,-0.5,0.0,1.0,400.0,563.0,1.0,0,277.0,1
859,859,-0.1608337389080312,-0.2,0.0,1.0,442.0,787.0,1.0,0,1211.0,1
860,860,-0.588137311464975,-0.6,1.0,0.0,352.0,871.0,0.0,0,227.0,1
861,861,0.7478139434333345,0.7,0.0,0.0,274.0,798.0,0.0,1,108.0,1
862,862,0.6457123276371447,0.6,0.0,0.0,361.0,712.0,0.0,1,197.0,1
863,863,0.11348789344085464,0.1,0.0,0.0,406.0,668.0,0.0,1,396.0,1
864,864,-0.05502147517640976,-0.1,0.0,1.0,477.0,609.0,1.0,0,1914.0,1
865,865,0.1422905342632651,0.1,1.0,1.0,472.0,596.0,1.0,1,1932.0,1
866,866,-0.19590451132274755,-0.2,0.0,1.0,355.0,641.0,1.0,0,564.0,1
867,867,-0.11197109880478073,-0.1,1.0,0.0,398.0,764.0,0.0,0,1838.0,1
868,868,-0.47317153762634995,-0.5,1.0,0.0,402.0,784.0,0.0,0,274.0,1
869,869,0.11327565872884582,0.1,0.0,0.0,400.0,914.0,0.0,1,1686.0,1
870,870,-0.10226998461167114,-0.1,0.0,1.0,333.0,845.0,1.0,0,722.0,1
871,871,-0.710560505501437,-0.7,0.0,1.0,490.0,919.0,1.0,0,71.0,1
872,872,0.2202746048445553,0.2,1.0,1.0,361.0,922.0,0.0,0,17.0,0
873,873,0.4338277201422246,0.4,0.0,0.0,360.0,829.0,0.0,1,191.0,1
874,874,0.7028229494986468,0.7,1.0,1.0,404.0,756.0,1.0,1,290.0,1
875,875,-0.8854229581049352,-0.9,0.0,1.0,397.0,520.0,1.0,0,363.0,1
876,876,0.7370221970267244,0.7,1.0,1.0,467.0,964.0,1.0,1,389.0,1
877,877,0.47234621305240043,0.5,1.0,1.0,393.0,781.0,1.0,1,926.0,1
878,878,0.027039182266080264,0.0,0.0,0.0,286.0,921.0,0.0,1,1793.0,1
879,879,-0.013332336458814043,-0.0,0.0,1.0,476.0,593.0,1.0,0,1931.0,1
880,880,0.7466871341324354,0.7,1.0,1.0,493.0,945.0,0.0,0,-138.0,0
881,881,0.17677564246222455,0.2,1.0,1.0,319.0,732.0,1.0,1,1949.0,1
882,882,0.004771129776381722,0.0,0.0,0.0,322.0,502.0,0.0,1,2176.0,1
883,883,0.6319142468019029,0.6,1.0,1.0,459.0,520.0,1.0,1,241.0,1
884,884,0.1088414953786011,0.1,1.0,1.0,259.0,674.0,0.0,0,2067.0,0
885,885,-0.636726369020057,-0.6,0.0,1.0,329.0,676.0,1.0,0,15.0,1
886,886,0.030802196480044786,0.0,0.0,0.0,301.0,931.0,0.0,1,1768.0,1
887,887,-0.20097590544238597,-0.2,1.0,0.0,314.0,856.0,0.0,0,230.0,1
888,888,-0.7068044783829458,-0.7,0.0,1.0,378.0,906.0,1.0,0,256.0,1
889,889,-0.06053532975801734,-0.1,1.0,0.0,379.0,772.0,0.0,0,239.0,1
890,890,0.5661283817565358,0.6,0.0,0.0,488.0,869.0,0.0,1,273.0,1
891,891,0.39173237392502236,0.4,0.0,0.0,409.0,836.0,0.0,1,325.0,1
892,892,-0.8576550467448669,-0.9,1.0,0.0,462.0,814.0,0.0,0,114.0,1
893,893,-0.7487139648339525,-0.7,1.0,0.0,445.0,633.0,0.0,0,272.0,1
894,894,0.12646375989263248,0.1,1.0,1.0,336.0,737.0,1.0,1,1927.0,1
895,895,0.3051835154209789,0.3,1.0,1.0,365.0,816.0,1.0,1,629.0,1
896,896,-0.009226580577551768,-0.0,0.0,1.0,424.0,623.0,0.0,1,473.0,0
897,897,0.3592026651926771,0.4,0.0,0.0,447.0,873.0,0.0,1,450.0,1
898,898,0.3023561937005653,0.3,1.0,1.0,257.0,832.0,1.0,1,721.0,1
899,899,0.15797432731328154,0.2,0.0,0.0,499.0,658.0,0.0,1,163.0,1
900,900,-0.15854128260777267,-0.2,0.0,1.0,432.0,560.0,1.0,0,2008.0,1
901,901,-0.6897577149663691,-0.7,0.0,1.0,445.0,575.0,1.0,0,560.0,1
902,902,-0.4010523650020355,-0.4,1.0,0.0,341.0,949.0,0.0,0,410.0,1
903,903,0.38552998363176394,0.4,0.0,0.0,474.0,727.0,0.0,1,589.0,1
904,904,0.7543023103502468,0.8,0.0,0.0,320.0,567.0,0.0,1,203.0,1
905,905,0.48808930168169795,0.5,1.0,1.0,383.0,554.0,1.0,1,723.0,1
906,906,0.5798505633075154,0.6,0.0,0.0,398.0,557.0,0.0,1,565.0,1
907,907,0.10672108359001509,0.1,0.0,0.0,337.0,599.0,0.0,1,1044.0,1
908,908,-0.5715848352481672,-0.6,1.0,0.0,476.0,764.0,0.0,0,490.0,1
909,909,0.38448123590077155,0.4,1.0,1.0,256.0,681.0,1.0,1,753.0,1
910,910,0.24718776431069756,0.2,0.0,0.0,447.0,943.0,0.0,1,510.0,1
911,911,0.43230013267399936,0.4,0.0,0.0,251.0,957.0,0.0,1,272.0,1
912,912,0.45688269611672705,0.5,1.0,1.0,397.0,891.0,1.0,1,422.0,1
913,913,0.28597316143829066,0.3,0.0,0.0,470.0,722.0,0.0,1,788.0,1
914,914,0.28057562668216585,0.3,1.0,1.0,262.0,929.0,1.0,1,1119.0,1
915,915,0.079509408398454,0.1,0.0,0.0,357.0,984.0,0.0,1,1659.0,1
916,916,-0.21080221080794403,-0.2,0.0,1.0,479.0,873.0,1.0,0,228.0,1
917,917,0.5204708802103227,0.5,1.0,1.0,492.0,893.0,1.0,1,215.0,1
918,918,0.6304960844848609,0.6,0.0,0.0,432.0,583.0,0.0,1,245.0,1
919,919,0.7333602657031298,0.7,0.0,0.0,295.0,616.0,0.0,1,579.0,1
920,920,0.7761594512806563,0.8,0.0,0.0,314.0,991.0,0.0,1,315.0,1
921,921,0.043718807851666375,0.0,0.0,0.0,443.0,700.0,0.0,1,1147.0,1
922,922,-0.0802351218532108,-0.1,1.0,0.0,454.0,834.0,0.0,0,132.0,1
923,923,-0.7304526725897353,-0.7,1.0,0.0,312.0,503.0,0.0,0,575.0,1
924,924,0.8664190599660412,0.9,1.0,1.0,311.0,981.0,1.0,1,138.0,1
925,925,0.47496506803641203,0.5,1.0,1.0,353.0,551.0,1.0,1,366.0,1
926,926,-0.8515795027045815,-0.9,0.0,1.0,497.0,748.0,1.0,0,235.0,1
927,927,0.3211675536884716,0.3,0.0,0.0,288.0,889.0,0.0,1,453.0,1
928,928,0.33671218178457607,0.3,0.0,0.0,304.0,949.0,0.0,1,387.0,1
929,929,0.33142804023437533,0.3,0.0,0.0,258.0,771.0,0.0,1,341.0,1
930,930,-0.6754961966212797,-0.7,0.0,1.0,251.0,591.0,1.0,0,518.0,1
931,931,0.016015673362365312,0.0,0.0,0.0,467.0,666.0,1.0,0,1637.0,0
932,932,0.1802078512195383,0.2,0.0,0.0,464.0,811.0,0.0,1,1725.0,1
933,933,-0.06314132610711387,-0.1,1.0,0.0,374.0,865.0,0.0,0,601.0,1
934,934,0.7388850531302112,0.7,0.0,0.0,357.0,773.0,0.0,1,480.0,1
935,935,-0.8257336587016735,-0.8,1.0,0.0,315.0,961.0,0.0,0,184.0,1
936,936,0.7945766218426219,0.8,1.0,1.0,284.0,668.0,1.0,1,2048.0,1
937,937,0.6743049324128859,0.7,0.0,0.0,407.0,839.0,0.0,1,204.0,1
938,938,-0.8485223496054537,-0.8,0.0,1.0,316.0,768.0,1.0,0,296.0,1
939,939,0.5961379433683022,0.6,1.0,1.0,363.0,795.0,1.0,1,212.0,1
940,940,-0.20323323898732826,-0.2,0.0,1.0,329.0,741.0,1.0,0,1580.0,1
941,941,0.48149949732067443,0.5,0.0,0.0,410.0,729.0,0.0,1,201.0,1
942,942,0.7514825246585227,0.8,0.0,0.0,319.0,838.0,0.0,1,273.0,1
943,943,-0.7848008088697465,-0.8,0.0,1.0,308.0,519.0,1.0,0,233.0,1
944,944,0.6866129322058424,0.7,1.0,1.0,367.0,915.0,1.0,1,578.0,1
945,945,-0.15634549114289942,-0.2,1.0,0.0,313.0,940.0,0.0,0,1037.0,1
946,946,-0.6825295746669457,-0.7,1.0,0.0,261.0,808.0,0.0,0,271.0,1
947,947,-0.6778619089841149,-0.7,1.0,0.0,474.0,870.0,0.0,0,166.0,1
948,948,0.18932218165865022,0.2,1.0,1.0,297.0,579.0,1.0,1,744.0,1
949,949,0.7969211516991358,0.8,1.0,1.0,348.0,558.0,1.0,1,374.0,1
950,950,-0.7675040556859907,-0.8,1.0,0.0,333.0,507.0,0.0,0,140.0,1
951,951,-0.10779745429772203,-0.1,1.0,0.0,309.0,652.0,0.0,0,1329.0,1
952,952,0.5043946992786553,0.5,0.0,0.0,283.0,967.0,0.0,1,260.0,1
953,953,0.8180495736799941,0.8,1.0,1.0,266.0,581.0,1.0,1,873.0,1
954,954,-0.4909435895215864,-0.5,1.0,0.0,448.0,873.0,0.0,0,109.0,1
955,955,0.09065476583886367,0.1,0.0,0.0,399.0,512.0,0.0,1,189.0,1
956,956,0.7750700701625349,0.8,0.0,0.0,353.0,940.0,0.0,1,207.0,1
957,957,-0.2408455237651651,-0.2,1.0,0.0,352.0,536.0,0.0,0,502.0,1
958,958,-0.8439532416978093,-0.8,1.0,0.0,420.0,706.0,0.0,0,224.0,1
959,959,0.11051365014996117,0.1,0.0,0.0,263.0,702.0,1.0,0,-145.0,0
960,960,-0.5960329233901931,-0.6,1.0,0.0,347.0,973.0,0.0,0,990.0,1
961,961,0.058928890780437726,0.1,1.0,1.0,413.0,599.0,1.0,1,1988.0,1
962,962,0.5984646538165316,0.6,0.0,0.0,317.0,820.0,0.0,1,323.0,1
963,963,-0.460395080208517,-0.5,0.0,1.0,462.0,925.0,1.0,0,183.0,1
964,964,-0.4827492873167873,-0.5,0.0,1.0,360.0,591.0,1.0,0,179.0,1
965,965,0.5703921929503227,0.6,1.0,1.0,429.0,890.0,1.0,1,1681.0,1
966,966,0.31729481851535357,0.3,1.0,1.0,278.0,870.0,1.0,1,1202.0,1
967,967,0.13504455872999344,0.1,0.0,0.0,437.0,901.0,0.0,1,1122.0,1
968,968,0.7742372644166599,0.8,1.0,1.0,437.0,970.0,1.0,1,223.0,1
969,969,0.606300219350551,0.6,0.0,0.0,379.0,806.0,0.0,1,275.0,1
970,970,0.4585511014084075,0.5,1.0,1.0,349.0,627.0,1.0,1,524.0,1
971,971,-0.39566522481815225,-0.4,0.0,1.0,262.0,795.0,1.0,0,413.0,1
972,972,-0.36398496294263083,-0.4,0.0,1.0,317.0,906.0,1.0,0,537.0,1
973,973,-0.8511078389001312,-0.9,1.0,0.0,318.0,814.0,0.0,0,98.0,1
974,974,0.7839835108174728,0.8,1.0,1.0,456.0,508.0,1.0,1,196.0,1
975,975,-0.5450411667708764,-0.5,1.0,0.0,265.0,511.0,0.0,0,234.0,1
976,976,0.5751671956937358,0.6,0.0,0.0,373.0,629.0,0.0,1,298.0,1
977,977,0.7425061367336058,0.7,1.0,1.0,362.0,881.0,1.0,1,487.0,1
978,978,-0.21538628088362033,-0.2,0.0,1.0,356.0,904.0,1.0,0,1740.0,1
979,979,0.6504585431584554,0.7,0.0,0.0,281.0,949.0,0.0,1,220.0,1
980,980,-0.6343004962329724,-0.6,0.0,1.0,402.0,678.0,1.0,0,240.0,1
981,981,-0.4235853488916706,-0.4,1.0,0.0,312.0,812.0,0.0,0,316.0,1
982,982,-0.36158079413199207,-0.4,1.0,0.0,383.0,672.0,0.0,0,525.0,1
983,983,-0.2764046614664952,-0.3,0.0,1.0,357.0,517.0,1.0,0,656.0,1
984,984,-0.8632578965292466,-0.9,0.0,1.0,346.0,502.0,1.0,0,262.0,1
985,985,0.5808748396122855,0.6,1.0,1.0,341.0,679.0,1.0,1,410.0,1
986,986,-0.3148928502106616,-0.3,0.0,1.0,450.0,827.0,1.0,0,913.0,1
987,987,0.6197373836368033,0.6,0.0,0.0,470.0,697.0,0.0,1,423.0,1
988,988,0.11193604608498664,0.1,0.0,0.0,426.0,597.0,0.0,1,1677.0,1
989,989,-0.6806833875875677,-0.7,1.0,0.0,389.0,955.0,0.0,0,216.0,1
990,990,0.3823196067975111,0.4,1.0,1.0,470.0,579.0,1.0,1,1011.0,1
991,991,0.031127584534168307,0.0,0.0,0.0,438.0,680.0,0.0,1,1882.0,1
992,992,-0.32979685927554936,-0.3,0.0,1.0,308.0,616.0,1.0,0,446.0,1
993,993,-0.6805427470189829,-0.7,1.0,0.0,342.0,937.0,0.0,0,341.0,1
994,994,-0.44209322789745986,-0.4,0.0,1.0,374.0,758.0,1.0,0,208.0,1
995,995,0.5429937830107737,0.5,0.0,0.0,313.0,634.0,0.0,1,243.0,1
996,996,0.447923386033385,0.4,0.0,0.0,491.0,732.0,0.0,1,247.0,1
997,997,-0.8630311671185172,-0.9,0.0,1.0,361.0,918.0,1.0,0,341.0,1
998,998,-0.8380571362353667,-0.8,1.0,0.0,340.0,972.0,0.0,0,128.0,1
999,999,-0.39376190153770374,-0.4,0.0,1.0,458.0,571.0,1.0,0,691.0,1
1000,1000,-0.23654498569483584,-0.2,1.0,0.0,278.0,553.0,0.0,0,419.0,1
1001,1001,-0.11405723291435366,-0.1,0.0,1.0,415.0,805.0,1.0,0,1440.0,1
1002,1002,-0.12922052564965747,-0.1,1.0,0.0,406.0,591.0,0.0,0,2003.0,1
1003,1003,0.6228917548961762,0.6,1.0,1.0,427.0,697.0,1.0,1,296.0,1
1004,1004,-0.767500141114743,-0.8,0.0,1.0,368.0,630.0,1.0,0,62.0,1
1005,1005,-0.15871176952799293,-0.2,0.0,1.0,454.0,715.0,1.0,0,1831.0,1
1006,1006,-0.4292887762048184,-0.4,1.0,0.0,437.0,995.0,0.0,0,438.0,1
1007,1007,-0.8462868321208544,-0.8,0.0,1.0,267.0,989.0,1.0,0,224.0,1
1008,1008,-0.6074271318052558,-0.6,1.0,0.0,320.0,501.0,0.0,0,219.0,1
1009,1009,-0.6838567285929644,-0.7,0.0,1.0,468.0,599.0,1.0,0,403.0,1
1010,1010,-0.3590867882610226,-0.4,1.0,0.0,277.0,772.0,0.0,0,561.0,1
1011,1011,0.7558792507051578,0.8,1.0,1.0,349.0,819.0,1.0,1,282.0,1
1012,1012,-0.16292081406397685,-0.2,0.0,1.0,322.0,537.0,1.0,0,1451.0,1
1013,1013,-0.6329438704079162,-0.6,0.0,1.0,402.0,867.0,1.0,0,241.0,1
1014,1014,-0.3681779182186202,-0.4,0.0,1.0,277.0,531.0,1.0,0,852.0,1
1015,1015,0.08819272053105787,0.1,1.0,1.0,332.0,931.0,0.0,0,1737.0,0
1016,1016,0.6615009428044348,0.7,1.0,1.0,461.0,860.0,1.0,1,259.0,1
1017,1017,-0.8965670952345246,-0.9,1.0,0.0,255.0,814.0,0.0,0,101.0,1
1018,1018,0.14215722939963638,0.1,0.0,0.0,462.0,866.0,0.0,1,1092.0,1
1019,1019,-0.7615239603262818,-0.8,0.0,1.0,452.0,658.0,1.0,0,650.0,1
1020,1020,0.0009749503609775001,0.0,1.0,1.0,303.0,707.0,0.0,0,570.0,0
1021,1021,0.5235559700585254,0.5,1.0,1.0,353.0,796.0,1.0,1,351.0,1
1022,1022,0.8140626357592481,0.8,1.0,1.0,456.0,836.0,1.0,1,148.0,1
1023,1023,-0.6498671533162408,-0.6,1.0,0.0,316.0,752.0,0.0,0,582.0,1
1024,1024,-0.7084784237825014,-0.7,0.0,1.0,497.0,542.0,1.0,0,1961.0,1
1025,1025,-0.09937054985480775,-0.1,0.0,1.0,338.0,660.0,1.0,0,2002.0,1
1026,1026,0.47988291504474956,0.5,1.0,1.0,278.0,669.0,1.0,1,403.0,1
1027,1027,0.6467397138653891,0.6,1.0,1.0,323.0,682.0,1.0,1,215.0,1
1028,1028,-0.09792524407551206,-0.1,0.0,1.0,400.0,815.0,1.0,0,1785.0,1
1029,1029,-0.6544670790017192,-0.7,1.0,0.0,395.0,664.0,0.0,0,241.0,1
1030,1030,0.20510660708773243,0.2,0.0,0.0,261.0,721.0,0.0,1,1138.0,1
1031,1031,0.6940612391624269,0.7,0.0,0.0,331.0,538.0,0.0,1,301.0,1
1032,1032,0.3335621119995634,0.3,1.0,1.0,363.0,793.0,1.0,1,554.0,1
1033,1033,-0.6935468600677985,-0.7,0.0,1.0,422.0,793.0,1.0,0,305.0,1
1034,1034,0.5181532690535687,0.5,0.0,0.0,350.0,761.0,0.0,1,609.0,1
1035,1035,-0.8203331128857193,-0.8,0.0,1.0,261.0,511.0,1.0,0,728.0,1
1036,1036,0.31028730119633285,0.3,0.0,0.0,434.0,990.0,0.0,1,406.0,1
1037,1037,0.3212858780148343,0.3,1.0,1.0,272.0,685.0,1.0,1,833.0,1
1038,1038,0.18400634739382726,0.2,1.0,1.0,373.0,838.0,1.0,1,659.0,1
1039,1039,-0.4789741999124186,-0.5,1.0,0.0,279.0,614.0,0.0,0,767.0,1
1040,1040,0.054304410945112624,0.1,1.0,1.0,303.0,543.0,0.0,0,614.0,0
1041,1041,-0.35903159072472046,-0.4,0.0,1.0,353.0,556.0,1.0,0,941.0,1
1042,1042,0.04029629028358539,0.0,0.0,0.0,430.0,597.0,1.0,0,1973.0,0
1043,1043,-0.6779872079894242,-0.7,1.0,0.0,497.0,934.0,0.0,0,209.0,1
1044,1044,0.667220922195772,0.7,0.0,0.0,442.0,685.0,0.0,1,323.0,1
1045,1045,-0.8476235823950797,-0.8,0.0,1.0,277.0,850.0,1.0,0,103.0,1
1046,1046,-0.8387797571456332,-0.8,1.0,0.0,358.0,767.0,0.0,0,335.0,1
1047,1047,0.1323811384373682,0.1,1.0,1.0,417.0,509.0,1.0,1,2074.0,1
1048,1048,0.5681325478165912,0.6,0.0,0.0,417.0,904.0,0.0,1,189.0,1
1049,1049,-0.3454991327692982,-0.3,1.0,0.0,393.0,729.0,0.0,0,448.0,1
1050,1050,-0.2021080552308392,-0.2,0.0,1.0,317.0,923.0,1.0,0,1640.0,1
1051,1051,-0.4942945808694769,-0.5,1.0,0.0,341.0,707.0,0.0,0,162.0,1
1052,1052,0.42517962718621327,0.4,0.0,0.0,494.0,883.0,0.0,1,443.0,1
1053,1053,-0.7756177907243187,-0.8,0.0,1.0,330.0,946.0,1.0,0,104.0,1
1054,1054,-0.2417114042040318,-0.2,0.0,1.0,405.0,783.0,1.0,0,1812.0,1
1055,1055,0.21176335153733528,0.2,1.0,1.0,483.0,750.0,1.0,1,1767.0,1
1056,1056,-0.5650949416755044,-0.6,1.0,0.0,344.0,681.0,0.0,0,125.0,1
1057,1057,-0.8196316049599838,-0.8,0.0,1.0,264.0,968.0,1.0,0,218.0,1
1058,1058,-0.008189217603557064,-0.0,0.0,1.0,473.0,559.0,1.0,0,1548.0,1
1059,1059,0.20718296421713356,0.2,0.0,0.0,353.0,753.0,0.0,1,764.0,1
1060,1060,-0.1762966191327472,-0.2,1.0,0.0,322.0,622.0,0.0,0,116.0,1
1061,1061,-0.5761365647717838,-0.6,1.0,0.0,254.0,530.0,0.0,0,226.0,1
1062,1062,0.39583302736984616,0.4,1.0,1.0,347.0,643.0,1.0,1,510.0,1
1063,1063,-0.6868084983199997,-0.7,1.0,0.0,316.0,709.0,0.0,0,155.0,1
1064,1064,-0.25158960877589864,-0.3,1.0,0.0,398.0,903.0,0.0,0,329.0,1
1065,1065,-0.17404043658045043,-0.2,0.0,1.0,402.0,568.0,1.0,0,450.0,1
1066,1066,-0.3041426414496885,-0.3,1.0,0.0,306.0,814.0,0.0,0,40.0,1
1067,1067,-0.5659557062387401,-0.6,1.0,0.0,327.0,807.0,0.0,0,186.0,1
1068,1068,0.4211065013738641,0.4,1.0,1.0,266.0,503.0,1.0,1,211.0,1
1069,1069,-0.6412244054172374,-0.6,1.0,0.0,377.0,892.0,0.0,0,-89.0,1
1070,1070,-0.7003206172222236,-0.7,0.0,1.0,474.0,758.0,1.0,0,228.0,1
1071,1071,-0.8137975253718532,-0.8,1.0,0.0,466.0,869.0,0.0,0,305.0,1
1072,1072,-0.4281743398493258,-0.4,1.0,0.0,400.0,865.0,0.0,0,295.0,1
1073,1073,-0.7408089218022312,-0.7,1.0,0.0,422.0,884.0,0.0,0,94.0,1
1074,1074,-0.7496382474452871,-0.7,1.0,0.0,307.0,916.0,0.0,0,167.0,1
1075,1075,0.03895218231074227,0.0,0.0,0.0,412.0,830.0,0.0,1,1758.0,1
1076,1076,-0.8315660562850833,-0.8,1.0,0.0,342.0,596.0,0.0,0,332.0,1
1077,1077,-0.7939722728973202,-0.8,1.0,0.0,308.0,980.0,0.0,0,202.0,1
1078,1078,0.7043522817323421,0.7,1.0,1.0,305.0,578.0,1.0,1,1417.0,1
1079,1079,0.7191537373101956,0.7,1.0,1.0,461.0,674.0,1.0,1,375.0,1
1080,1080,-0.5222105884714194,-0.5,0.0,1.0,313.0,649.0,1.0,0,1058.0,1
1081,1081,-0.8113115837543492,-0.8,0.0,1.0,441.0,715.0,1.0,0,194.0,1
1082,1082,-0.08239727502070282,-0.1,0.0,1.0,460.0,718.0,1.0,0,1822.0,1
1083,1083,0.7886058601504823,0.8,1.0,1.0,272.0,799.0,1.0,1,299.0,1
1084,1084,-0.6823522743588977,-0.7,0.0,1.0,391.0,923.0,1.0,0,126.0,1
1085,1085,0.21652517877145738,0.2,1.0,1.0,317.0,835.0,1.0,1,868.0,1
1086,1086,0.8570450259298946,0.9,1.0,1.0,434.0,988.0,1.0,1,198.0,1
1087,1087,0.3245708150366883,0.3,1.0,1.0,358.0,864.0,0.0,0,-222.0,0
1088,1088,0.3700047367265574,0.4,0.0,0.0,318.0,640.0,0.0,1,162.0,1
1089,1089,0.11625842967847866,0.1,1.0,1.0,382.0,624.0,0.0,0,1994.0,0
1090,1090,-0.5094327205446778,-0.5,1.0,0.0,259.0,954.0,0.0,0,77.0,1
1091,1091,0.0750847233077887,0.1,1.0,1.0,438.0,694.0,1.0,1,1868.0,1
1092,1092,0.048491600785045996,0.0,1.0,1.0,277.0,893.0,0.0,0,1830.0,0
1093,1093,0.2520341375820855,0.3,1.0,1.0,266.0,741.0,1.0,1,593.0,1
1094,1094,0.4967452380511487,0.5,1.0,1.0,366.0,520.0,1.0,1,394.0,1
1095,1095,-0.4443215438010534,-0.4,0.0,1.0,368.0,965.0,1.0,0,397.0,1
1096,1096,0.16592537732815782,0.2,1.0,1.0,443.0,646.0,1.0,1,1911.0,1
1097,1097,0.7966788252484222,0.8,0.0,0.0,433.0,681.0,0.0,1,176.0,1
1098,1098,0.8268185698519933,0.8,1.0,1.0,320.0,601.0,1.0,1,2079.0,1
1099,1099,-0.33195052870244546,-0.3,0.0,1.0,385.0,579.0,1.0,0,1266.0,1
1100,1100,-0.2856805901356232,-0.3,0.0,1.0,365.0,809.0,1.0,0,466.0,1
1101,1101,0.34795187167573827,0.3,0.0,0.0,362.0,858.0,0.0,1,250.0,1
1102,1102,0.37180129706029297,0.4,0.0,0.0,476.0,569.0,0.0,1,565.0,1
1103,1103,0.15219040853563037,0.2,0.0,0.0,397.0,525.0,0.0,1,798.0,1
1104,1104,0.4847697932151841,0.5,0.0,0.0,392.0,590.0,0.0,1,578.0,1
1105,1105,-0.8659526980771207,-0.9,1.0,0.0,439.0,984.0,0.0,0,127.0,1
1106,1106,0.24930704205767296,0.2,1.0,1.0,285.0,962.0,1.0,1,1323.0,1
1107,1107,-0.2611602851871767,-0.3,0.0,1.0,491.0,998.0,1.0,0,1511.0,1
1108,1108,-0.2898050676395425,-0.3,1.0,0.0,339.0,554.0,0.0,0,297.0,1
1109,1109,-0.2841321216005339,-0.3,0.0,1.0,424.0,861.0,1.0,0,915.0,1
1110,1110,-0.0839719423618207,-0.1,1.0,0.0,364.0,639.0,0.0,0,447.0,1
1111,1111,0.8985874235043824,0.9,1.0,1.0,370.0,869.0,1.0,1,511.0,1
1112,1112,-0.3741107178408224,-0.4,1.0,0.0,311.0,905.0,0.0,0,624.0,1
1113,1113,0.37123101644104606,0.4,1.0,1.0,265.0,507.0,1.0,1,798.0,1
1114,1114,-0.11341378657195433,-0.1,0.0,1.0,433.0,766.0,1.0,0,1211.0,1
1115,1115,0.37256129894504675,0.4,0.0,0.0,438.0,516.0,0.0,1,466.0,1
1116,1116,-0.15633935077759842,-0.2,0.0,1.0,371.0,937.0,1.0,0,1692.0,1
1117,1117,-0.4494678066956896,-0.4,1.0,0.0,302.0,853.0,0.0,0,-115.0,1
1118,1118,-0.6827603725188149,-0.7,1.0,0.0,392.0,679.0,0.0,0,249.0,1
1119,1119,0.7522420437241258,0.8,1.0,1.0,311.0,751.0,1.0,1,1098.0,1
1120,1120,0.20618541753636077,0.2,1.0,1.0,286.0,887.0,1.0,1,1827.0,1
1121,1121,0.3805610583501845,0.4,0.0,0.0,327.0,501.0,0.0,1,1222.0,1
1122,1122,0.3163182137750983,0.3,1.0,1.0,336.0,804.0,1.0,1,360.0,1
1123,1123,0.2294989753329425,0.2,0.0,0.0,478.0,543.0,0.0,1,469.0,1
1124,1124,-0.6130434639214839,-0.6,1.0,0.0,262.0,770.0,0.0,0,338.0,1
1125,1125,0.7443182543402717,0.7,0.0,0.0,408.0,815.0,0.0,1,217.0,1
1126,1126,0.7248131325919193,0.7,1.0,1.0,412.0,887.0,1.0,1,331.0,1
1127,1127,0.29159853957776083,0.3,1.0,1.0,280.0,510.0,1.0,1,450.0,1
1128,1128,0.05914768410789695,0.1,1.0,1.0,308.0,715.0,0.0,0,1277.0,0
1129,1129,-0.36608192874392975,-0.4,0.0,1.0,346.0,852.0,1.0,0,342.0,1
1130,1130,0.6629369803353974,0.7,1.0,1.0,326.0,627.0,1.0,1,297.0,1
1131,1131,0.1691664885289269,0.2,0.0,0.0,442.0,821.0,0.0,1,767.0,1
1132,1132,0.18828909695372664,0.2,1.0,1.0,281.0,990.0,1.0,1,719.0,1
1133,1133,0.8387724857065241,0.8,0.0,0.0,485.0,696.0,0.0,1,229.0,1
1134,1134,0.865868739488827,0.9,1.0,1.0,381.0,943.0,1.0,1,286.0,1
1135,1135,-0.2617526762614738,-0.3,0.0,1.0,356.0,679.0,1.0,0,1965.0,1
1136,1136,0.41942107447760246,0.4,0.0,0.0,446.0,581.0,0.0,1,393.0,1
1137,1137,-0.6009973639625046,-0.6,0.0,1.0,369.0,969.0,1.0,0,352.0,1
1138,1138,0.8378389328094805,0.8,0.0,0.0,403.0,536.0,0.0,1,631.0,1
1139,1139,-0.3983905027803476,-0.4,1.0,0.0,430.0,913.0,0.0,0,87.0,1
1140,1140,0.03869776998214436,0.0,1.0,1.0,413.0,886.0,1.0,1,1701.0,1
1141,1141,0.6368175444046723,0.6,1.0,1.0,415.0,583.0,1.0,1,402.0,1
1142,1142,0.04061887740041248,0.0,0.0,0.0,422.0,970.0,0.0,1,858.0,1
1143,1143,-0.025679310653723753,-0.0,1.0,0.0,275.0,530.0,0.0,0,2195.0,1
1144,1144,-0.8104426594803643,-0.8,1.0,0.0,325.0,998.0,0.0,0,127.0,1
1145,1145,-0.7129375489508392,-0.7,1.0,0.0,464.0,762.0,0.0,0,124.0,1
1146,1146,0.0960139073063675,0.1,1.0,1.0,375.0,851.0,1.0,1,1604.0,1
1147,1147,0.6900269761576473,0.7,0.0,0.0,349.0,749.0,0.0,1,172.0,1
1148,1148,0.4750402103248762,0.5,0.0,0.0,399.0,823.0,0.0,1,268.0,1
1149,1149,-0.49663318239126325,-0.5,1.0,0.0,371.0,850.0,0.0,0,199.0,1
1150,1150,0.0906557653071336,0.1,1.0,1.0,340.0,883.0,1.0,1,1077.0,1
1151,1151,0.50195415003297,0.5,0.0,0.0,356.0,900.0,0.0,1,224.0,1
1152,1152,-0.25438497272140526,-0.3,1.0,0.0,293.0,952.0,0.0,0,895.0,1
1153,1153,0.34812431212135564,0.3,0.0,0.0,320.0,738.0,0.0,1,612.0,1
1154,1154,-0.48169412746391865,-0.5,0.0,1.0,497.0,670.0,1.0,0,1133.0,1
1155,1155,0.16631170378823834,0.2,1.0,1.0,443.0,975.0,1.0,1,912.0,1
1156,1156,0.12849153996549723,0.1,1.0,1.0,301.0,680.0,1.0,1,2019.0,1
1157,1157,0.5414334399509354,0.5,1.0,1.0,270.0,742.0,1.0,1,1368.0,1
1158,1158,-0.7044202101865065,-0.7,0.0,1.0,269.0,904.0,1.0,0,227.0,1
1159,1159,0.6489713920827126,0.6,0.0,0.0,341.0,902.0,0.0,1,127.0,1
1160,1160,0.5441988442220099,0.5,0.0,0.0,465.0,887.0,0.0,1,238.0,1
1161,1161,-0.02898677359675128,-0.0,0.0,1.0,357.0,873.0,0.0,1,1770.0,0
1162,1162,-0.2871077418154695,-0.3,1.0,0.0,369.0,837.0,0.0,0,644.0,1
1163,1163,0.6352790049511464,0.6,0.0,0.0,355.0,851.0,0.0,1,384.0,1
1164,1164,-0.6916386919806694,-0.7,0.0,1.0,483.0,594.0,1.0,0,163.0,1
1165,1165,0.29180124615254577,0.3,1.0,1.0,255.0,993.0,1.0,1,302.0,1
1166,1166,0.79608771513577,0.8,1.0,1.0,311.0,547.0,1.0,1,982.0,1
1167,1167,-0.07013154984492143,-0.1,1.0,0.0,284.0,652.0,0.0,0,1554.0,1
1168,1168,0.7790396208646656,0.8,1.0,1.0,321.0,939.0,1.0,1,400.0,1
1169,1169,0.47101198779528597,0.5,1.0,1.0,369.0,958.0,1.0,1,293.0,1
1170,1170,-0.7198698095055538,-0.7,1.0,0.0,420.0,649.0,0.0,0,331.0,1
1171,1171,0.24987172813939107,0.2,0.0,0.0,294.0,517.0,0.0,1,829.0,1
1172,1172,-0.17966993206862647,-0.2,0.0,1.0,338.0,699.0,1.0,0,263.0,1
1173,1173,0.5327782341988833,0.5,1.0,1.0,463.0,803.0,1.0,1,344.0,1
1174,1174,-0.29930980009897223,-0.3,1.0,0.0,301.0,797.0,0.0,0,562.0,1
1175,1175,0.7621094577872253,0.8,1.0,1.0,314.0,728.0,1.0,1,338.0,1
1176,1176,-0.309278210836775,-0.3,1.0,0.0,314.0,683.0,0.0,0,533.0,1
1177,1177,-0.8446390859345729,-0.8,0.0,1.0,482.0,869.0,1.0,0,119.0,1
1178,1178,-0.8007610347571366,-0.8,0.0,1.0,431.0,699.0,1.0,0,210.0,1
1179,1179,0.4609451415715261,0.5,0.0,0.0,280.0,825.0,0.0,1,185.0,1
1180,1180,0.6138919309482694,0.6,0.0,0.0,493.0,846.0,0.0,1,351.0,1
1181,1181,-0.12755838269250985,-0.1,1.0,0.0,354.0,723.0,0.0,0,863.0,1
1182,1182,-0.1839345814472001,-0.2,1.0,0.0,268.0,552.0,0.0,0,560.0,1
1183,1183,-0.686615000450076,-0.7,0.0,1.0,406.0,997.0,1.0,0,-13.0,1
1184,1184,0.7622742152081045,0.8,1.0,1.0,255.0,887.0,1.0,1,248.0,1
1185,1185,0.5970951856401109,0.6,1.0,1.0,356.0,589.0,1.0,1,215.0,1
1186,1186,0.4689468867321712,0.5,0.0,0.0,374.0,874.0,1.0,0,-78.0,0
1187,1187,0.8445702987110192,0.8,0.0,0.0,320.0,875.0,0.0,1,185.0,1
1188,1188,-0.21528126725533692,-0.2,0.0,1.0,308.0,789.0,1.0,0,993.0,1
1189,1189,0.27504962703060454,0.3,0.0,0.0,496.0,508.0,0.0,1,766.0,1
1190,1190,0.4424795974886505,0.4,0.0,0.0,368.0,813.0,0.0,1,279.0,1
1191,1191,-0.5176149358952638,-0.5,0.0,1.0,407.0,962.0,1.0,0,191.0,1
1192,1192,-0.8640494329871656,-0.9,1.0,0.0,471.0,585.0,0.0,0,564.0,1
1193,1193,-0.28376710245177417,-0.3,0.0,1.0,395.0,978.0,1.0,0,487.0,1
1194,1194,0.7639308722628099,0.8,1.0,1.0,398.0,541.0,1.0,1,2061.0,1
1195,1195,-0.8231217878279754,-0.8,1.0,0.0,286.0,963.0,0.0,0,121.0,1
1196,1196,-0.03667376882090079,-0.0,0.0,1.0,375.0,523.0,1.0,0,2102.0,1
1197,1197,0.6917147217858636,0.7,1.0,1.0,380.0,738.0,1.0,1,562.0,1
1198,1198,0.6018589097165982,0.6,0.0,0.0,322.0,878.0,0.0,1,490.0,1
1199,1199,-0.5045295144560746,-0.5,0.0,1.0,307.0,969.0,1.0,0,364.0,1
1200,1200,-0.094786904806474,-0.1,1.0,0.0,257.0,899.0,0.0,0,1844.0,1
1201,1201,0.8376977079236428,0.8,0.0,0.0,396.0,521.0,0.0,1,273.0,1
1202,1202,0.22216062186629693,0.2,1.0,1.0,292.0,566.0,1.0,1,2142.0,1
1203,1203,0.016544003947974062,0.0,1.0,1.0,253.0,915.0,0.0,0,1832.0,0
1204,1204,0.6955671073108395,0.7,1.0,1.0,303.0,621.0,1.0,1,246.0,1
1205,1205,0.4088173558929492,0.4,1.0,1.0,281.0,765.0,1.0,1,714.0,1
1206,1206,-0.3671959272782319,-0.4,1.0,0.0,275.0,987.0,0.0,0,358.0,1
1207,1207,-0.30419912682549255,-0.3,0.0,1.0,405.0,682.0,1.0,0,1163.0,1
1208,1208,-0.1305116489876359,-0.1,0.0,1.0,339.0,743.0,1.0,0,1288.0,1
1209,1209,-0.4711303299987471,-0.5,0.0,1.0,319.0,652.0,1.0,0,489.0,1
1210,1210,-0.22692209755400272,-0.2,0.0,1.0,488.0,877.0,1.0,0,415.0,1
1211,1211,-0.18247685669212,-0.2,0.0,1.0,402.0,738.0,1.0,0,1860.0,1
1212,1212,0.4882513196999517,0.5,1.0,1.0,269.0,542.0,1.0,1,189.0,1
1213,1213,0.010870863776766604,0.0,0.0,0.0,338.0,564.0,1.0,0,2098.0,0
1214,1214,-0.508495887118755,-0.5,0.0,1.0,464.0,891.0,1.0,0,195.0,1
1215,1215,0.4180360786969749,0.4,0.0,0.0,251.0,602.0,0.0,1,487.0,1
1216,1216,0.45008345141875694,0.5,0.0,0.0,470.0,840.0,0.0,1,300.0,1
1217,1217,0.5072102029524986,0.5,0.0,0.0,438.0,507.0,0.0,1,665.0,1
1218,1218,-0.8073454987219875,-0.8,0.0,1.0,406.0,629.0,1.0,0,115.0,1
1219,1219,-0.38298184456431283,-0.4,1.0,0.0,287.0,649.0,0.0,0,424.0,1
1220,1220,-0.8224239546128795,-0.8,1.0,0.0,343.0,673.0,0.0,0,134.0,1
1221,1221,0.21294705946798353,0.2,0.0,0.0,262.0,920.0,0.0,1,808.0,1
1222,1222,-0.026904082714622746,-0.0,0.0,1.0,285.0,725.0,1.0,0,1990.0,1
1223,1223,-0.33547419374043186,-0.3,0.0,1.0,326.0,750.0,1.0,0,474.0,1
1224,1224,-0.5106864167804065,-0.5,1.0,0.0,485.0,802.0,0.0,0,283.0,1
1225,1225,0.18135533239707036,0.2,1.0,1.0,454.0,858.0,1.0,1,518.0,1
1226,1226,0.7074760615623746,0.7,0.0,0.0,475.0,628.0,0.0,1,87.0,1
1227,1227,0.5437154490472603,0.5,0.0,0.0,387.0,944.0,0.0,1,109.0,1
1228,1228,0.4935105077243379,0.5,1.0,1.0,397.0,997.0,0.0,0,-14.0,0
1229,1229,0.8678568323249608,0.9,0.0,0.0,495.0,545.0,0.0,1,190.0,1
1230,1230,0.3124297974868352,0.3,1.0,1.0,354.0,929.0,1.0,1,227.0,1
1231,1231,-0.394840725822876,-0.4,1.0,0.0,278.0,553.0,0.0,0,179.0,1
1232,1232,-0.1915657237760633,-0.2,1.0,0.0,419.0,543.0,0.0,0,828.0,1
1233,1233,0.6168615973728885,0.6,1.0,1.0,367.0,924.0,1.0,1,239.0,1
1234,1234,-0.8043306050815376,-0.8,0.0,1.0,403.0,743.0,1.0,0,314.0,1
1235,1235,0.5323569196466843,0.5,1.0,1.0,256.0,688.0,1.0,1,466.0,1
1236,1236,0.5232222012407423,0.5,1.0,1.0,455.0,676.0,1.0,1,1039.0,1
1237,1237,-0.5417782032228993,-0.5,0.0,1.0,337.0,541.0,1.0,0,342.0,1
1238,1238,0.5465154075160553,0.5,0.0,0.0,331.0,566.0,0.0,1,773.0,1
1239,1239,0.8886434714956614,0.9,0.0,0.0,447.0,838.0,0.0,1,85.0,1
1240,1240,0.29739070079912755,0.3,1.0,1.0,373.0,750.0,1.0,1,547.0,1
1241,1241,0.23929039066746094,0.2,0.0,0.0,338.0,859.0,0.0,1,603.0,1
1242,1242,-0.1878689486493682,-0.2,1.0,0.0,438.0,933.0,0.0,0,589.0,1
1243,1243,0.8815397187084116,0.9,1.0,1.0,352.0,686.0,1.0,1,212.0,1
1244,1244,0.5690802066506347,0.6,0.0,0.0,467.0,540.0,0.0,1,243.0,1
1245,1245,0.020353016058488604,0.0,1.0,1.0,320.0,803.0,0.0,0,1877.0,0
1246,1246,0.8796470784017641,0.9,1.0,1.0,483.0,552.0,1.0,1,305.0,1
1247,1247,0.7095552470650027,0.7,0.0,0.0,329.0,925.0,0.0,1,476.0,1
1248,1248,-0.836334133916831,-0.8,1.0,0.0,447.0,649.0,0.0,0,204.0,1
1249,1249,0.40690546586479026,0.4,0.0,0.0,378.0,871.0,0.0,1,201.0,1
1250,1250,-0.7972087249937421,-0.8,1.0,0.0,349.0,610.0,0.0,0,611.0,1
1251,1251,0.25449979986736315,0.3,0.0,0.0,432.0,740.0,0.0,1,348.0,1
1252,1252,0.5645921275998801,0.6,1.0,1.0,411.0,860.0,1.0,1,269.0,1
1253,1253,-0.04800417290572567,-0.0,0.0,1.0,365.0,772.0,1.0,0,1863.0,1
1254,1254,0.3341814744467325,0.3,0.0,0.0,435.0,850.0,0.0,1,275.0,1
1255,1255,-0.3690872891457624,-0.4,1.0,0.0,340.0,895.0,0.0,0,145.0,1
1256,1256,-0.21962124689269924,-0.2,1.0,0.0,328.0,860.0,0.0,0,652.0,1
1257,1257,0.5817970668008693,0.6,1.0,1.0,464.0,682.0,1.0,1,724.0,1
1258,1258,-0.4032862700394511,-0.4,0.0,1.0,284.0,979.0,1.0,0,617.0,1
1259,1259,-0.5031401536942574,-0.5,0.0,1.0,295.0,834.0,1.0,0,301.0,1
1260,1260,0.8422217660746446,0.8,0.0,0.0,458.0,998.0,0.0,1,-156.0,1
1261,1261,0.3675386789623941,0.4,0.0,0.0,401.0,525.0,0.0,1,574.0,1
1262,1262,0.3328981419771341,0.3,1.0,1.0,333.0,792.0,1.0,1,1415.0,1
1263,1263,-0.26701947947331117,-0.3,1.0,0.0,445.0,875.0,0.0,0,240.0,1
1264,1264,-0.8679633424720419,-0.9,0.0,1.0,335.0,504.0,1.0,0,131.0,1
1265,1265,0.5642500899332988,0.6,1.0,1.0,497.0,719.0,1.0,1,114.0,1
1266,1266,-0.8416315253269736,-0.8,1.0,0.0,279.0,604.0,0.0,0,137.0,1
1267,1267,-0.13115743207248387,-0.1,0.0,1.0,310.0,830.0,1.0,0,260.0,1
1268,1268,0.5219132983424885,0.5,0.0,0.0,457.0,517.0,0.0,1,216.0,1
1269,1269,-0.7525608676578969,-0.8,0.0,1.0,419.0,878.0,1.0,0,213.0,1
1270,1270,-0.3568657448786595,-0.4,1.0,0.0,458.0,675.0,0.0,0,377.0,1
1271,1271,0.5638772690587296,0.6,1.0,1.0,253.0,932.0,1.0,1,1345.0,1
1272,1272,0.17854673175456093,0.2,1.0,1.0,271.0,857.0,1.0,1,352.0,1
1273,1273,-0.20281975340659586,-0.2,0.0,1.0,475.0,592.0,1.0,0,1173.0,1
1274,1274,-0.570690766376416,-0.6,1.0,0.0,393.0,600.0,0.0,0,257.0,1
1275,1275,-0.6428314224615465,-0.6,0.0,1.0,471.0,831.0,1.0,0,188.0,1
1276,1276,-0.053942189752740344,-0.1,0.0,1.0,424.0,653.0,1.0,0,1923.0,1
1277,1277,0.40094186319901104,0.4,1.0,1.0,371.0,777.0,1.0,1,392.0,1
1278,1278,0.25634856724029154,0.3,0.0,0.0,304.0,729.0,0.0,1,427.0,1
1279,1279,0.5885263054308122,0.6,0.0,0.0,253.0,934.0,0.0,1,393.0,1
1280,1280,-0.8194516738215295,-0.8,0.0,1.0,441.0,825.0,1.0,0,134.0,1
1281,1281,-0.4028196453873362,-0.4,0.0,1.0,415.0,607.0,1.0,0,568.0,1
1282,1282,0.8034067738771736,0.8,0.0,0.0,407.0,751.0,0.0,1,422.0,1
1283,1283,-0.8317005956095707,-0.8,1.0,0.0,444.0,632.0,0.0,0,174.0,1
1284,1284,0.09202047661528578,0.1,1.0,1.0,430.0,672.0,1.0,1,1898.0,1
1285,1285,-0.49615578902801855,-0.5,0.0,1.0,352.0,665.0,1.0,0,153.0,1
1286,1286,-0.8418119943735706,-0.8,1.0,0.0,490.0,565.0,0.0,0,245.0,1
1287,1287,0.8777847406458522,0.9,0.0,0.0,361.0,907.0,0.0,1,272.0,1
1288,1288,0.6048348718606725,0.6,0.0,0.0,379.0,859.0,0.0,1,92.0,1
1289,1289,0.8884713042781237,0.9,0.0,0.0,363.0,898.0,0.0,1,119.0,1
1290,1290,-0.3912632410928234,-0.4,0.0,1.0,311.0,959.0,1.0,0,590.0,1
1291,1291,0.440920414789271,0.4,0.0,0.0,330.0,948.0,0.0,1,432.0,1
1292,1292,0.4596442847952199,0.5,1.0,1.0,317.0,661.0,1.0,1,232.0,1
1293,1293,-0.3907107377232377,-0.4,0.0,1.0,266.0,985.0,1.0,0,259.0,1
1294,1294,0.2661244540742239,0.3,1.0,1.0,481.0,906.0,1.0,1,1613.0,1
1295,1295,0.6777799053081434,0.7,0.0,0.0,428.0,900.0,0.0,1,112.0,1
1296,1296,0.09445970987162278,0.1,0.0,0.0,417.0,518.0,1.0,0,2065.0,0
1297,1297,0.3557219438768954,0.4,1.0,1.0,263.0,771.0,1.0,1,756.0,1
1298,1298,-0.3798672215364334,-0.4,0.0,1.0,273.0,607.0,1.0,0,540.0,1
1299,1299,-0.65323386768486,-0.7,0.0,1.0,320.0,783.0,1.0,0,417.0,1
1300,1300,-0.2703537944511033,-0.3,1.0,0.0,456.0,774.0,0.0,0,1650.0,1
1301,1301,0.8196219774454588,0.8,1.0,1.0,467.0,557.0,1.0,1,276.0,1
1302,1302,0.10181371509363879,0.1,0.0,0.0,283.0,877.0,1.0,0,1840.0,0
1303,1303,0.4438545505079533,0.4,1.0,1.0,360.0,631.0,1.0,1,599.0,1
1304,1304,-0.5601483110000997,-0.6,1.0,0.0,327.0,594.0,0.0,0,99.0,1
1305,1305,0.5824981177885485,0.6,0.0,0.0,393.0,752.0,0.0,1,95.0,1
1306,1306,-0.23165163236455455,-0.2,0.0,1.0,268.0,774.0,1.0,0,488.0,1
1307,1307,-0.07800594580311848,-0.1,0.0,1.0,274.0,651.0,1.0,0,2075.0,1
1308,1308,-0.18882325659759436,-0.2,1.0,0.0,339.0,669.0,0.0,0,302.0,1
1309,1309,0.5279429197416087,0.5,1.0,1.0,353.0,746.0,1.0,1,1741.0,1
1310,1310,0.5940654253749255,0.6,1.0,1.0,448.0,700.0,1.0,1,1412.0,1
1311,1311,0.5108036520844134,0.5,1.0,1.0,277.0,616.0,1.0,1,457.0,1
1312,1312,-0.15763077447799323,-0.2,0.0,1.0,466.0,605.0,1.0,0,1929.0,1
1313,1313,0.26171338837118807,0.3,1.0,1.0,358.0,738.0,1.0,1,1804.0,1
1314,1314,0.884612440814509,0.9,0.0,0.0,354.0,660.0,0.0,1,416.0,1
1315,1315,-0.17923750932672378,-0.2,1.0,0.0,499.0,937.0,0.0,0,804.0,1
1316,1316,-0.8600122320254397,-0.9,1.0,0.0,287.0,620.0,0.0,0,763.0,1
1317,1317,-0.4278310827335942,-0.4,1.0,0.0,378.0,624.0,0.0,0,278.0,1
1318,1318,-0.4131845321073028,-0.4,1.0,0.0,451.0,706.0,0.0,0,243.0,1
1319,1319,-0.8769165946904739,-0.9,0.0,1.0,406.0,548.0,1.0,0,256.0,1
1320,1320,0.0956960344610418,0.1,0.0,0.0,430.0,642.0,0.0,1,208.0,1
1321,1321,0.8805849224253407,0.9,1.0,1.0,420.0,815.0,1.0,1,175.0,1
1322,1322,-0.3106776844143312,-0.3,0.0,1.0,279.0,937.0,1.0,0,624.0,1
1323,1323,-0.8481573902901425,-0.8,1.0,0.0,285.0,685.0,0.0,0,220.0,1
1324,1324,-0.8319985220492097,-0.8,1.0,0.0,322.0,840.0,0.0,0,168.0,1
1325,1325,-0.5645033736921663,-0.6,1.0,0.0,343.0,844.0,0.0,0,253.0,1
1326,1326,-0.3855110545334224,-0.4,1.0,0.0,263.0,707.0,0.0,0,190.0,1
1327,1327,0.6601648461299766,0.7,1.0,1.0,405.0,928.0,1.0,1,457.0,1
1328,1328,-0.7743575295890475,-0.8,1.0,0.0,264.0,511.0,0.0,0,165.0,1
1329,1329,0.01874580158000383,0.0,0.0,0.0,260.0,732.0,0.0,1,2008.0,1
1330,1330,0.6931293613424047,0.7,0.0,0.0,257.0,864.0,0.0,1,179.0,1
1331,1331,-0.5489373653106346,-0.5,1.0,0.0,472.0,837.0,0.0,0,521.0,1
1332,1332,0.6170235077993839,0.6,0.0,0.0,467.0,953.0,0.0,1,440.0,1
1333,1333,-0.3889417998015856,-0.4,1.0,0.0,417.0,978.0,0.0,0,195.0,1
1334,1334,-0.44595910190070936,-0.4,1.0,0.0,447.0,902.0,0.0,0,391.0,1
1335,1335,0.7752654842157053,0.8,0.0,0.0,377.0,983.0,0.0,1,280.0,1
1336,1336,0.8698676654023713,0.9,1.0,1.0,349.0,793.0,1.0,1,258.0,1
1337,1337,0.4009894716796282,0.4,0.0,0.0,309.0,814.0,0.0,1,497.0,1
1338,1338,0.6222902076718112,0.6,0.0,0.0,402.0,639.0,0.0,1,569.0,1
1339,1339,-0.4347311692848201,-0.4,0.0,1.0,443.0,740.0,1.0,0,107.0,1
1340,1340,-0.5298775421190703,-0.5,1.0,0.0,367.0,846.0,0.0,0,127.0,1
1341,1341,-0.21679807408946916,-0.2,0.0,1.0,474.0,909.0,1.0,0,57.0,1
1342,1342,-0.853740823225464,-0.9,0.0,1.0,312.0,741.0,1.0,0,77.0,1
1343,1343,0.01541789657847159,0.0,0.0,0.0,347.0,688.0,0.0,1,1965.0,1
1344,1344,0.4104193865839604,0.4,0.0,0.0,252.0,933.0,0.0,1,605.0,1
1345,1345,0.3353198774263312,0.3,1.0,1.0,255.0,889.0,0.0,0,-234.0,0
1346,1346,0.3869091743043772,0.4,0.0,0.0,477.0,707.0,0.0,1,366.0,1
1347,1347,0.8964835396153678,0.9,1.0,1.0,378.0,658.0,1.0,1,124.0,1
1348,1348,-0.5338166483575157,-0.5,0.0,1.0,386.0,867.0,1.0,0,287.0,1
1349,1349,-0.1334740125572641,-0.1,1.0,0.0,414.0,715.0,0.0,0,271.0,1
1350,1350,-0.5645573713658569,-0.6,1.0,0.0,290.0,650.0,0.0,0,590.0,1
1351,1351,-0.5194155751513294,-0.5,0.0,1.0,417.0,672.0,1.0,0,221.0,1
1352,1352,-0.34033323566015894,-0.3,0.0,1.0,259.0,866.0,1.0,0,1545.0,1
1353,1353,0.4000566820203627,0.4,0.0,0.0,280.0,605.0,0.0,1,205.0,1
1354,1354,0.2172824752818222,0.2,0.0,0.0,390.0,865.0,0.0,1,575.0,1
1355,1355,-0.31775216575320153,-0.3,1.0,0.0,286.0,897.0,0.0,0,-503.0,1
1356,1356,-0.6963797457544298,-0.7,1.0,0.0,371.0,570.0,0.0,0,129.0,1
1357,1357,0.07414029161952862,0.1,1.0,1.0,354.0,519.0,0.0,0,2127.0,0
1358,1358,-0.6145950670955955,-0.6,1.0,0.0,277.0,691.0,0.0,0,302.0,1
1359,1359,0.7213576603875366,0.7,1.0,1.0,417.0,583.0,1.0,1,310.0,1
1360,1360,-0.7720279524355598,-0.8,1.0,0.0,470.0,503.0,0.0,0,487.0,1
1361,1361,-0.3058992721199516,-0.3,0.0,1.0,314.0,838.0,1.0,0,238.0,1
1362,1362,-0.741238614395261,-0.7,1.0,0.0,354.0,934.0,0.0,0,292.0,1
1363,1363,0.3477930842767919,0.3,1.0,1.0,486.0,810.0,1.0,1,784.0,1
1364,1364,-0.37024464153879233,-0.4,1.0,0.0,310.0,866.0,0.0,0,524.0,1
1365,1365,0.2986230928094903,0.3,1.0,1.0,253.0,781.0,1.0,1,1176.0,1
1366,1366,-0.19848585955607745,-0.2,0.0,1.0,346.0,773.0,1.0,0,311.0,1
1367,1367,0.2633720364262192,0.3,1.0,1.0,313.0,741.0,1.0,1,1766.0,1
1368,1368,0.029947310488873558,0.0,1.0,1.0,252.0,521.0,0.0,0,2227.0,0
1369,1369,-0.6067460352763625,-0.6,0.0,1.0,451.0,745.0,1.0,0,224.0,1
1370,1370,-0.007099833710324299,-0.0,0.0,1.0,447.0,734.0,1.0,0,1819.0,1
1371,1371,-0.28707333955214553,-0.3,0.0,1.0,472.0,835.0,1.0,0,223.0,1
1372,1372,0.8177172668381761,0.8,1.0,1.0,336.0,871.0,1.0,1,263.0,1
1373,1373,-0.8115546610317611,-0.8,0.0,1.0,470.0,531.0,1.0,0,189.0,1
1374,1374,-0.15029889103719962,-0.2,1.0,0.0,443.0,754.0,0.0,0,243.0,1
1375,1375,0.662041526291207,0.7,0.0,0.0,267.0,543.0,0.0,1,250.0,1
1376,1376,0.5258203130030653,0.5,1.0,1.0,285.0,680.0,0.0,0,-195.0,0
1377,1377,-0.661942185201214,-0.7,1.0,0.0,381.0,504.0,0.0,0,255.0,1
1378,1378,0.23498383824728097,0.2,0.0,0.0,345.0,540.0,0.0,1,625.0,1
1379,1379,0.1858188826938968,0.2,1.0,1.0,331.0,831.0,1.0,1,8.0,1
1380,1380,0.5781187379995903,0.6,1.0,1.0,255.0,946.0,0.0,0,-71.0,0
1381,1381,0.8545000306029059,0.9,1.0,1.0,479.0,758.0,1.0,1,143.0,1
1382,1382,-0.2824311091525106,-0.3,0.0,1.0,477.0,633.0,1.0,0,650.0,1
1383,1383,-0.5063093672610286,-0.5,1.0,0.0,347.0,986.0,0.0,0,127.0,1
1384,1384,0.44129159111135474,0.4,0.0,0.0,483.0,655.0,0.0,1,382.0,1
1385,1385,-0.1742279757125471,-0.2,0.0,1.0,251.0,983.0,1.0,0,-154.0,1
1386,1386,-0.6259141779952102,-0.6,1.0,0.0,290.0,939.0,0.0,0,161.0,1
1387,1387,-0.2736438280978972,-0.3,0.0,1.0,439.0,775.0,1.0,0,306.0,1
1388,1388,0.6603051516978015,0.7,0.0,0.0,263.0,844.0,0.0,1,233.0,1
1389,1389,0.7194013737386219,0.7,0.0,0.0,309.0,674.0,0.0,1,407.0,1
1390,1390,-0.4538516871320533,-0.5,1.0,0.0,460.0,987.0,0.0,0,523.0,1
1391,1391,-0.3473595114052578,-0.3,0.0,1.0,443.0,711.0,1.0,0,396.0,1
1392,1392,0.7431392399807558,0.7,0.0,0.0,419.0,800.0,0.0,1,81.0,1
1393,1393,-0.13425506947907073,-0.1,1.0,0.0,369.0,601.0,0.0,0,1550.0,1
1394,1394,-0.34314456406600147,-0.3,1.0,0.0,299.0,611.0,0.0,0,260.0,1
1395,1395,0.6512981185697028,0.7,0.0,0.0,485.0,957.0,0.0,1,78.0,1
1396,1396,0.0033713309495171373,0.0,0.0,0.0,260.0,718.0,0.0,1,2022.0,1
1397,1397,0.42089216021541775,0.4,1.0,1.0,412.0,786.0,1.0,1,652.0,1
1398,1398,-0.4938899723411128,-0.5,0.0,1.0,255.0,616.0,1.0,0,1009.0,1
1399,1399,-0.2528663883034661,-0.3,0.0,1.0,262.0,657.0,1.0,0,91.0,1
1400,1400,0.4700741245938199,0.5,1.0,1.0,324.0,848.0,1.0,1,228.0,1
1401,1401,0.6291082932246018,0.6,0.0,0.0,344.0,656.0,0.0,1,560.0,1
1402,1402,0.7304749208965168,0.7,1.0,1.0,479.0,847.0,1.0,1,584.0,1
1403,1403,-0.17640633751922097,-0.2,1.0,0.0,325.0,878.0,0.0,0,247.0,1
1404,1404,0.5147690075052253,0.5,1.0,1.0,296.0,780.0,1.0,1,94.0,1
1405,1405,-0.1925200296316394,-0.2,0.0,1.0,275.0,788.0,1.0,0,267.0,1
1406,1406,-0.3602335442222747,-0.4,1.0,0.0,315.0,838.0,0.0,0,1047.0,1
1407,1407,-0.18573671022346216,-0.2,0.0,1.0,358.0,645.0,1.0,0,1997.0,1
1408,1408,-0.4802265313377168,-0.5,1.0,0.0,436.0,566.0,0.0,0,268.0,1
1409,1409,0.7951235672981581,0.8,0.0,0.0,263.0,751.0,0.0,1,166.0,1
1410,1410,-0.47056145042161485,-0.5,0.0,1.0,274.0,749.0,1.0,0,217.0,1
1411,1411,-0.5484004809496221,-0.5,1.0,0.0,365.0,893.0,0.0,0,262.0,1
1412,1412,0.4747872580114355,0.5,1.0,1.0,264.0,640.0,1.0,1,1156.0,1
1413,1413,-0.6212276544155806,-0.6,1.0,0.0,281.0,827.0,0.0,0,112.0,1
1414,1414,-0.8342754371220639,-0.8,1.0,0.0,367.0,567.0,0.0,0,176.0,1
1415,1415,0.8687707715379948,0.9,1.0,1.0,271.0,816.0,1.0,1,333.0,1
1416,1416,-0.3606975253260284,-0.4,0.0,1.0,313.0,520.0,1.0,0,377.0,1
1417,1417,0.8621688520082894,0.9,1.0,1.0,268.0,999.0,1.0,1,1733.0,1
1418,1418,-0.6707310161224702,-0.7,0.0,1.0,404.0,807.0,1.0,0,499.0,1
1419,1419,-0.10815877881301705,-0.1,1.0,0.0,447.0,732.0,0.0,0,301.0,1
1420,1420,0.2977788325824663,0.3,0.0,0.0,426.0,823.0,0.0,1,641.0,1
1421,1421,0.6661025549798206,0.7,0.0,0.0,486.0,529.0,0.0,1,335.0,1
1422,1422,-0.31824718636608174,-0.3,0.0,1.0,481.0,844.0,1.0,0,655.0,1
1423,1423,-0.07832010758056096,-0.1,1.0,0.0,287.0,612.0,0.0,0,281.0,1
1424,1424,0.40797870316449425,0.4,0.0,0.0,431.0,856.0,0.0,1,263.0,1
1425,1425,0.3207769781354116,0.3,1.0,1.0,346.0,771.0,1.0,1,1883.0,1
1426,1426,0.5339714640781369,0.5,0.0,0.0,288.0,635.0,0.0,1,217.0,1
1427,1427,0.21289141685734803,0.2,1.0,1.0,334.0,670.0,1.0,1,1996.0,1
1428,1428,0.528840653688574,0.5,0.0,0.0,461.0,744.0,0.0,1,455.0,1
1429,1429,0.2511099002568987,0.3,0.0,0.0,329.0,600.0,0.0,1,591.0,1
1430,1430,-0.21681486135832284,-0.2,0.0,1.0,250.0,687.0,1.0,0,623.0,1
1431,1431,-0.3252697277103743,-0.3,0.0,1.0,465.0,807.0,1.0,0,538.0,1
1432,1432,-0.5985235337173199,-0.6,0.0,1.0,436.0,996.0,1.0,0,198.0,1
1433,1433,0.11870358282784077,0.1,0.0,0.0,287.0,980.0,0.0,1,553.0,1
1434,1434,-0.0871057536601092,-0.1,1.0,0.0,439.0,690.0,0.0,0,341.0,1
1435,1435,0.06103218723699011,0.1,0.0,0.0,313.0,559.0,0.0,1,2128.0,1
1436,1436,0.8084330689052325,0.8,0.0,0.0,430.0,567.0,0.0,1,273.0,1
1437,1437,-0.8335968444675775,-0.8,0.0,1.0,267.0,712.0,1.0,0,311.0,1
1438,1438,0.8701015076744115,0.9,1.0,1.0,490.0,545.0,1.0,1,315.0,1
1439,1439,-0.7628209122569228,-0.8,0.0,1.0,250.0,653.0,1.0,0,547.0,1
1440,1440,0.35491841783658795,0.4,1.0,1.0,323.0,914.0,1.0,1,1363.0,1
1441,1441,0.15490634704809259,0.2,1.0,1.0,342.0,598.0,1.0,1,480.0,1
1442,1442,-0.6219294333510426,-0.6,1.0,0.0,347.0,765.0,0.0,0,268.0,1
1443,1443,0.45829799169943264,0.5,1.0,1.0,286.0,871.0,1.0,1,323.0,1
1444,1444,0.4183143656040179,0.4,0.0,0.0,361.0,657.0,0.0,1,62.0,1
1445,1445,0.430311511365732,0.4,0.0,0.0,480.0,534.0,0.0,1,386.0,1
1446,1446,-0.6261693922333937,-0.6,1.0,0.0,359.0,749.0,0.0,0,332.0,1
1447,1447,0.3795579992330028,0.4,0.0,0.0,390.0,736.0,0.0,1,364.0,1
1448,1448,0.16240723683052127,0.2,1.0,1.0,368.0,679.0,1.0,1,1953.0,1
1449,1449,0.11570091800291837,0.1,1.0,1.0,340.0,536.0,0.0,0,2124.0,0
1450,1450,0.8718813348063458,0.9,1.0,1.0,434.0,548.0,1.0,1,888.0,1
1451,1451,-0.4829516479109204,-0.5,1.0,0.0,292.0,669.0,0.0,0,529.0,1
1452,1452,-0.563741261588504,-0.6,1.0,0.0,431.0,667.0,0.0,0,302.0,1
1453,1453,-0.36069242653144507,-0.4,1.0,0.0,343.0,576.0,0.0,0,161.0,1
1454,1454,0.17423295741064815,0.2,0.0,0.0,285.0,890.0,0.0,1,955.0,1
1455,1455,0.1507509315360679,0.2,1.0,1.0,499.0,606.0,1.0,1,1895.0,1
1456,1456,-0.664983740259155,-0.7,0.0,1.0,330.0,808.0,1.0,0,352.0,1
1457,1457,0.03579802470214044,0.0,0.0,0.0,266.0,923.0,0.0,1,1081.0,1
1458,1458,-0.32136373542916075,-0.3,1.0,0.0,393.0,987.0,0.0,0,490.0,1
1459,1459,-0.16244768857996172,-0.2,0.0,1.0,250.0,982.0,1.0,0,368.0,1
1460,1460,0.660861193378225,0.7,0.0,0.0,305.0,766.0,0.0,1,409.0,1
1461,1461,0.06847146822814143,0.1,1.0,1.0,267.0,560.0,0.0,0,2173.0,0
1462,1462,0.7822092580102217,0.8,1.0,1.0,496.0,771.0,1.0,1,423.0,1
1463,1463,-0.8611890947346683,-0.9,1.0,0.0,459.0,787.0,0.0,0,204.0,1
1464,1464,-0.5522342519400276,-0.6,0.0,1.0,411.0,799.0,1.0,0,200.0,1
1465,1465,-0.4412133590388377,-0.4,1.0,0.0,412.0,717.0,0.0,0,741.0,1
1466,1466,-0.6723040589780813,-0.7,0.0,1.0,483.0,871.0,1.0,0,126.0,1
1467,1467,-0.5978487072330333,-0.6,0.0,1.0,451.0,744.0,1.0,0,495.0,1
1468,1468,0.39010201479783124,0.4,0.0,0.0,305.0,959.0,0.0,1,1606.0,1
1469,1469,0.22509619445424034,0.2,0.0,0.0,458.0,647.0,0.0,1,465.0,1
1470,1470,-0.10585759774587944,-0.1,0.0,1.0,433.0,712.0,1.0,0,1855.0,1
1471,1471,-0.5818616224691207,-0.6,1.0,0.0,396.0,875.0,0.0,0,159.0,1
1472,1472,0.5737543862846833,0.6,1.0,1.0,377.0,913.0,1.0,1,840.0,1
1473,1473,0.4542806677118142,0.5,0.0,0.0,326.0,861.0,0.0,1,363.0,1
1474,1474,-0.7880976459167118,-0.8,1.0,0.0,277.0,932.0,0.0,0,221.0,1
1475,1475,0.7172788095162933,0.7,0.0,0.0,391.0,720.0,0.0,1,189.0,1
1476,1476,0.16643451216358895,0.2,1.0,1.0,457.0,972.0,1.0,1,1571.0,1
1477,1477,-0.00042508118471673573,-0.0,1.0,0.0,275.0,806.0,0.0,0,1919.0,1
1478,1478,0.48060003249860495,0.5,1.0,1.0,423.0,864.0,1.0,1,473.0,1
1479,1479,0.056477984737149156,0.1,1.0,1.0,307.0,694.0,1.0,1,1999.0,1
1480,1480,0.7655102310738336,0.8,0.0,0.0,268.0,526.0,0.0,1,446.0,1
1481,1481,-0.6526971362441022,-0.7,1.0,0.0,299.0,530.0,0.0,0,931.0,1
1482,1482,-0.5597909439633707,-0.6,0.0,1.0,344.0,638.0,1.0,0,168.0,1
1483,1483,0.5559459613288035,0.6,1.0,1.0,370.0,949.0,1.0,1,261.0,1
1484,1484,-0.22634092597020172,-0.2,0.0,1.0,324.0,811.0,1.0,0,445.0,1
1485,1485,-0.2821292624462607,-0.3,1.0,0.0,400.0,870.0,0.0,0,790.0,1
1486,1486,-0.7600825080238808,-0.8,1.0,0.0,432.0,529.0,0.0,0,309.0,1
1487,1487,0.46124524764983044,0.5,0.0,0.0,336.0,976.0,0.0,1,378.0,1
1488,1488,0.762601245091452,0.8,1.0,1.0,477.0,559.0,1.0,1,184.0,1
1489,1489,-0.3791082608059344,-0.4,1.0,0.0,401.0,900.0,0.0,0,319.0,1
