,trial,coherence,coherence_bin,green_side,correct_side,target_onset,checker_onset,decision,green_decision,decision_time,correct_decision
0,0,-0.08888121008128935,-0.1,1.0,0.0,367.0,777.0,1.0,1,-314.0,0
1,1,0.6791328876153176,0.7,0.0,0.0,458.0,759.0,0.0,1,1783.0,1
2,2,-0.6014249964846099,-0.6,1.0,0.0,285.0,603.0,0.0,0,2112.0,1
3,3,0.41502032287237445,0.4,0.0,0.0,485.0,610.0,0.0,1,225.0,1
4,4,0.07481385318442102,0.1,0.0,0.0,464.0,757.0,1.0,0,719.0,0
5,5,0.3678299670943962,0.4,1.0,1.0,451.0,962.0,1.0,1,827.0,1
6,6,0.6201837889039249,0.6,0.0,0.0,447.0,622.0,1.0,0,1931.0,0
7,7,0.7388459805307898,0.7,0.0,0.0,406.0,789.0,1.0,0,75.0,0
8,8,-0.5043918960451064,-0.5,1.0,0.0,360.0,804.0,0.0,0,-924.0,1
9,9,0.7961109813138266,0.8,0.0,0.0,253.0,923.0,1.0,0,1544.0,0
10,10,0.018118364822163224,0.0,0.0,0.0,491.0,616.0,1.0,0,453.0,0
11,11,-0.8126955651397288,-0.8,0.0,1.0,256.0,670.0,1.0,0,474.0,1
12,12,-0.6119378470749537,-0.6,1.0,0.0,368.0,761.0,0.0,0,301.0,1
13,13,-0.7706104010397369,-0.8,1.0,0.0,262.0,807.0,0.0,0,1671.0,1
14,14,0.3502937584965823,0.4,0.0,0.0,283.0,600.0,1.0,0,2117.0,0
15,15,0.152451728117324,0.2,0.0,0.0,281.0,657.0,1.0,0,32.0,0
16,16,0.0802007956013534,0.1,0.0,0.0,492.0,637.0,1.0,0,1121.0,0
17,17,0.44365862331863515,0.4,1.0,1.0,451.0,778.0,1.0,1,591.0,1
18,18,-0.7769646185814054,-0.8,0.0,1.0,410.0,817.0,1.0,0,683.0,1
19,19,-0.32759357883219165,-0.3,0.0,1.0,382.0,779.0,1.0,0,389.0,1
20,20,0.555744038081268,0.6,0.0,0.0,294.0,548.0,0.0,1,28.0,1
21,21,-0.8574654156885819,-0.9,1.0,0.0,383.0,818.0,0.0,0,-531.0,1
22,22,-0.5498566220862174,-0.5,0.0,1.0,298.0,578.0,1.0,0,614.0,1
23,23,-0.5929115029892953,-0.6,0.0,1.0,321.0,971.0,0.0,1,-642.0,0
24,24,0.3346892641904836,0.3,0.0,0.0,347.0,877.0,0.0,1,-954.0,1
25,25,-0.10976582327319673,-0.1,1.0,0.0,320.0,880.0,0.0,0,220.0,1
26,26,-0.24952401728099083,-0.2,1.0,0.0,274.0,550.0,1.0,1,556.0,0
27,27,-0.3620989023609559,-0.4,1.0,0.0,392.0,544.0,1.0,1,2064.0,0
28,28,-0.08689767585058361,-0.1,1.0,0.0,470.0,961.0,1.0,1,579.0,0
29,29,-0.11427932526259454,-0.1,1.0,0.0,351.0,835.0,0.0,0,-736.0,1
30,30,0.6805510366076418,0.7,1.0,1.0,458.0,904.0,1.0,1,198.0,1
31,31,0.8931975352914244,0.9,0.0,0.0,320.0,751.0,0.0,1,1929.0,1
32,32,-0.04918355907828853,-0.0,1.0,0.0,308.0,844.0,1.0,1,748.0,0
33,33,0.1317162990617341,0.1,1.0,1.0,255.0,881.0,0.0,0,-926.0,0
34,34,0.00470222429639533,0.0,0.0,0.0,318.0,975.0,1.0,0,387.0,0
35,35,-0.33955811490703114,-0.3,1.0,0.0,477.0,795.0,1.0,1,1728.0,0
36,36,0.35432391535680596,0.4,0.0,0.0,422.0,598.0,0.0,1,1980.0,1
37,37,-0.10448623987710381,-0.1,1.0,0.0,350.0,520.0,0.0,0,-690.0,1
38,38,-0.1344784120458823,-0.1,0.0,1.0,264.0,763.0,1.0,0,1463.0,1
39,39,-0.16086403480796485,-0.2,1.0,0.0,397.0,976.0,1.0,1,-493.0,0
40,40,-0.681610141372881,-0.7,0.0,1.0,496.0,656.0,1.0,0,628.0,1
41,41,0.10956678560003985,0.1,0.0,0.0,335.0,817.0,1.0,0,728.0,0
42,42,-0.7352946510467474,-0.7,1.0,0.0,460.0,601.0,0.0,0,1939.0,1
43,43,0.7548969740145252,0.8,1.0,1.0,309.0,926.0,1.0,1,295.0,1
44,44,-0.28084870229814063,-0.3,0.0,1.0,260.0,634.0,1.0,0,686.0,1
45,45,-0.49909639103171893,-0.5,1.0,0.0,409.0,853.0,0.0,0,1738.0,1
46,46,0.2001735696515724,0.2,1.0,1.0,378.0,951.0,0.0,0,-1299.0,0
47,47,-0.6290616924863367,-0.6,1.0,0.0,381.0,598.0,1.0,1,2021.0,0
48,48,0.3502019975757057,0.4,0.0,0.0,254.0,845.0,0.0,1,1791.0,1
49,49,-0.814461283019528,-0.8,0.0,1.0,428.0,964.0,1.0,0,168.0,1
50,50,0.4331735287793027,0.4,1.0,1.0,260.0,930.0,1.0,1,140.0,1
51,51,0.4572849782234406,0.5,1.0,1.0,316.0,536.0,1.0,1,648.0,1
52,52,0.3558143724109476,0.4,0.0,0.0,306.0,855.0,0.0,1,1289.0,1
53,53,-0.3306002641020306,-0.3,0.0,1.0,278.0,867.0,1.0,0,-255.0,1
54,54,-0.8287719082613062,-0.8,1.0,0.0,371.0,820.0,0.0,0,1159.0,1
55,55,-0.24531805033639442,-0.2,0.0,1.0,437.0,668.0,1.0,0,1135.0,1
56,56,0.08778794307287519,0.1,1.0,1.0,370.0,630.0,1.0,1,1140.0,1
57,57,-0.7969556851141246,-0.8,1.0,0.0,367.0,788.0,0.0,0,-1095.0,1
58,58,0.2552491157652058,0.3,0.0,0.0,343.0,645.0,1.0,0,152.0,0
59,59,-0.42588387230209246,-0.4,0.0,1.0,460.0,989.0,0.0,1,-729.0,0
60,60,0.15573130738364693,0.2,0.0,0.0,459.0,799.0,1.0,0,-238.0,0
61,61,-0.7266584475985943,-0.7,0.0,1.0,280.0,869.0,1.0,0,611.0,1
62,62,-0.0636695603975106,-0.1,0.0,1.0,298.0,877.0,1.0,0,435.0,1
63,63,0.3683382156980485,0.4,0.0,0.0,266.0,586.0,0.0,1,1798.0,1
64,64,-0.5272912640760907,-0.5,1.0,0.0,447.0,993.0,0.0,0,460.0,1
65,65,0.8467345073985709,0.8,0.0,0.0,351.0,601.0,0.0,1,-802.0,1
66,66,0.3094000792981927,0.3,0.0,0.0,408.0,860.0,0.0,1,-1098.0,1
67,67,0.5649822139043098,0.6,1.0,1.0,450.0,997.0,0.0,0,-1317.0,0
68,68,-0.6752030327963288,-0.7,0.0,1.0,250.0,655.0,1.0,0,465.0,1
69,69,0.6236439531224262,0.6,1.0,1.0,490.0,657.0,1.0,1,263.0,1
70,70,-0.188312432883201,-0.2,0.0,1.0,293.0,896.0,1.0,0,1151.0,1
71,71,0.7109676050697983,0.7,1.0,1.0,337.0,786.0,1.0,1,517.0,1
72,72,0.39416147878817365,0.4,1.0,1.0,483.0,767.0,1.0,1,850.0,1
73,73,-0.31943854094901636,-0.3,1.0,0.0,308.0,651.0,1.0,1,841.0,0
74,74,0.4904840658724351,0.5,0.0,0.0,396.0,608.0,0.0,1,1996.0,1
75,75,-0.7307172952455441,-0.7,1.0,0.0,335.0,571.0,0.0,0,2094.0,1
76,76,-0.6077015698252557,-0.6,0.0,1.0,428.0,772.0,1.0,0,420.0,1
77,77,0.1470546235398057,0.1,0.0,0.0,336.0,714.0,1.0,0,790.0,0
78,78,-0.8170253888152402,-0.8,0.0,1.0,484.0,656.0,1.0,0,740.0,1
79,79,-0.19933220151681996,-0.2,0.0,1.0,343.0,647.0,1.0,0,-30.0,1
80,80,-0.013948722646606848,-0.0,0.0,1.0,386.0,880.0,1.0,0,384.0,1
81,81,-0.7822008015039155,-0.8,0.0,1.0,358.0,899.0,0.0,1,-677.0,0
82,82,0.6047277541777797,0.6,1.0,1.0,414.0,576.0,0.0,0,-380.0,0
83,83,-0.7824081720025327,-0.8,1.0,0.0,354.0,781.0,0.0,0,1865.0,1
84,84,-0.17818462374831823,-0.2,0.0,1.0,400.0,994.0,1.0,0,-174.0,1
85,85,0.10202023146235628,0.1,1.0,1.0,358.0,524.0,1.0,1,888.0,1
86,86,-0.7212052616170975,-0.7,0.0,1.0,345.0,920.0,0.0,1,-1055.0,0
87,87,-0.08226317875852651,-0.1,1.0,0.0,276.0,676.0,1.0,1,1628.0,0
88,88,0.7408870487549256,0.7,0.0,0.0,274.0,926.0,0.0,1,1060.0,1
89,89,-0.10372397915387699,-0.1,0.0,1.0,428.0,950.0,1.0,0,1222.0,1
90,90,-0.5841004917459482,-0.6,0.0,1.0,443.0,861.0,0.0,1,166.0,0
91,91,-0.40779724900010966,-0.4,1.0,0.0,497.0,767.0,0.0,0,1736.0,1
92,92,0.14665743341956639,0.1,0.0,0.0,380.0,958.0,1.0,0,-88.0,0
93,93,0.4460711741873361,0.4,0.0,0.0,308.0,828.0,0.0,1,-206.0,1
94,94,0.3499826499850772,0.3,0.0,0.0,295.0,841.0,0.0,1,1864.0,1
95,95,-0.8849817241285219,-0.9,0.0,1.0,254.0,861.0,1.0,0,575.0,1
96,96,-0.12393410212207956,-0.1,0.0,1.0,349.0,814.0,1.0,0,397.0,1
97,97,-0.8810509186332788,-0.9,0.0,1.0,261.0,975.0,0.0,1,-536.0,0
98,98,0.8944970502355111,0.9,1.0,1.0,471.0,697.0,1.0,1,302.0,1
99,99,-0.8290954423829224,-0.8,0.0,1.0,474.0,986.0,1.0,0,250.0,1
100,100,0.478596494577881,0.5,1.0,1.0,385.0,942.0,1.0,1,453.0,1
101,101,0.767531605673721,0.8,0.0,0.0,467.0,764.0,1.0,0,-81.0,0
102,102,0.248646405764276,0.2,1.0,1.0,420.0,912.0,1.0,1,918.0,1
103,103,-0.3170916860771703,-0.3,1.0,0.0,353.0,735.0,0.0,0,1082.0,1
104,104,0.09119805642984358,0.1,0.0,0.0,322.0,682.0,0.0,1,106.0,1
105,105,0.5840123876646691,0.6,1.0,1.0,311.0,737.0,1.0,1,592.0,1
106,106,0.021135329518880197,0.0,1.0,1.0,413.0,706.0,1.0,1,1881.0,1
107,107,-0.21260042616393782,-0.2,0.0,1.0,351.0,994.0,1.0,0,515.0,1
108,108,-0.7837488157463662,-0.8,0.0,1.0,281.0,816.0,1.0,0,423.0,1
109,109,0.6124708218763538,0.6,0.0,0.0,389.0,999.0,1.0,0,1612.0,0
110,110,-0.7726472716389987,-0.8,1.0,0.0,403.0,631.0,0.0,0,986.0,1
111,111,-0.7470655327812682,-0.7,0.0,1.0,382.0,686.0,1.0,0,362.0,1
112,112,0.5620747680502659,0.6,0.0,0.0,408.0,966.0,1.0,0,-114.0,0
113,113,-0.18624945212696364,-0.2,0.0,1.0,442.0,671.0,1.0,0,347.0,1
114,114,-0.67749965172795,-0.7,0.0,1.0,294.0,843.0,1.0,0,23.0,1
115,115,-0.3469302568527507,-0.3,0.0,1.0,280.0,577.0,1.0,0,393.0,1
116,116,0.0467917162010556,0.0,1.0,1.0,465.0,721.0,0.0,0,624.0,0
117,117,0.2771614268923027,0.3,1.0,1.0,381.0,737.0,1.0,1,1192.0,1
118,118,0.2241183756436934,0.2,0.0,0.0,410.0,603.0,0.0,1,1987.0,1
119,119,-0.5718896141989638,-0.6,1.0,0.0,405.0,693.0,0.0,0,-558.0,1
120,120,-0.29299217906575437,-0.3,1.0,0.0,331.0,785.0,0.0,0,-526.0,1
121,121,-0.3856555948468937,-0.4,0.0,1.0,254.0,818.0,1.0,0,878.0,1
122,122,0.06234217804936859,0.1,1.0,1.0,341.0,803.0,1.0,1,166.0,1
123,123,0.2530703695661741,0.3,0.0,0.0,491.0,983.0,1.0,0,356.0,0
124,124,-0.7139349783293483,-0.7,0.0,1.0,266.0,799.0,1.0,0,535.0,1
125,125,-0.12075335083386929,-0.1,0.0,1.0,440.0,857.0,0.0,1,-947.0,0
126,126,0.3562150492868704,0.4,1.0,1.0,450.0,671.0,0.0,0,-231.0,0
127,127,-0.1590539774494416,-0.2,0.0,1.0,411.0,924.0,0.0,1,-345.0,0
128,128,0.36512330954215233,0.4,1.0,1.0,462.0,727.0,0.0,0,-989.0,0
129,129,0.26308645754790694,0.3,0.0,0.0,489.0,877.0,1.0,0,1054.0,0
130,130,0.11712092032914312,0.1,0.0,0.0,322.0,811.0,0.0,1,-143.0,1
131,131,-0.5590489541395142,-0.6,0.0,1.0,293.0,990.0,1.0,0,227.0,1
132,132,0.4024080666157507,0.4,0.0,0.0,413.0,831.0,0.0,1,-1174.0,1
133,133,-0.23517120797522229,-0.2,1.0,0.0,277.0,768.0,0.0,0,-755.0,1
134,134,0.8803876214801857,0.9,1.0,1.0,433.0,764.0,1.0,1,283.0,1
135,135,0.5151159758181653,0.5,0.0,0.0,284.0,716.0,1.0,0,2000.0,0
136,136,0.8227243608544906,0.8,0.0,0.0,441.0,590.0,0.0,1,-841.0,1
137,137,-0.5815316700607878,-0.6,0.0,1.0,352.0,957.0,0.0,1,-489.0,0
138,138,-0.666534937418972,-0.7,0.0,1.0,337.0,712.0,1.0,0,221.0,1
139,139,0.676726080753418,0.7,0.0,0.0,356.0,556.0,0.0,1,2088.0,1
140,140,0.14359260554278397,0.1,0.0,0.0,413.0,887.0,1.0,0,1310.0,0
141,141,-0.8242189405835664,-0.8,1.0,0.0,455.0,697.0,0.0,0,1848.0,1
142,142,-0.39914755266556934,-0.4,1.0,0.0,389.0,569.0,0.0,0,1372.0,1
143,143,0.32306175463046893,0.3,0.0,0.0,365.0,839.0,1.0,0,476.0,0
144,144,-0.17785457771001456,-0.2,1.0,0.0,290.0,554.0,1.0,1,76.0,0
145,145,0.48629980437123377,0.5,1.0,1.0,429.0,938.0,0.0,0,-717.0,0
146,146,-0.8227589552773956,-0.8,1.0,0.0,442.0,500.0,1.0,1,2058.0,0
147,147,-0.6764090993809483,-0.7,1.0,0.0,334.0,513.0,0.0,0,1993.0,1
148,148,0.16176471417287053,0.2,1.0,1.0,270.0,924.0,1.0,1,-284.0,1
149,149,0.5741324572373753,0.6,1.0,1.0,496.0,763.0,0.0,0,-729.0,0
150,150,-0.8778574202327063,-0.9,1.0,0.0,269.0,513.0,0.0,0,1578.0,1
151,151,-0.7066032017495982,-0.7,0.0,1.0,317.0,759.0,1.0,0,214.0,1
152,152,-0.6051127443376565,-0.6,0.0,1.0,277.0,978.0,0.0,1,-935.0,0
153,153,-0.30639554761603816,-0.3,0.0,1.0,351.0,901.0,1.0,0,268.0,1
154,154,-0.4740472706079046,-0.5,1.0,0.0,430.0,653.0,0.0,0,1917.0,1
155,155,-0.43376047495534736,-0.4,0.0,1.0,358.0,779.0,1.0,0,113.0,1
156,156,-0.2997375545802763,-0.3,0.0,1.0,376.0,609.0,1.0,0,955.0,1
157,157,-0.469117215460035,-0.5,0.0,1.0,250.0,961.0,1.0,0,719.0,1
158,158,-0.6609624778956962,-0.7,0.0,1.0,427.0,930.0,0.0,1,-717.0,0
159,159,-0.2182306687258887,-0.2,0.0,1.0,329.0,911.0,1.0,0,670.0,1
160,160,-0.1434589329971263,-0.1,0.0,1.0,495.0,659.0,1.0,0,1246.0,1
161,161,0.8346974212919539,0.8,0.0,0.0,357.0,532.0,0.0,1,1231.0,1
162,162,-0.7284769286864474,-0.7,0.0,1.0,460.0,751.0,1.0,0,949.0,1
163,163,0.37580155137544546,0.4,0.0,0.0,275.0,726.0,0.0,1,1999.0,1
164,164,-0.2677735948565686,-0.3,0.0,1.0,423.0,740.0,1.0,0,457.0,1
165,165,-0.28464697840273945,-0.3,0.0,1.0,356.0,609.0,1.0,0,1855.0,1
166,166,-0.018320494707305457,-0.0,0.0,1.0,284.0,507.0,1.0,0,2209.0,1
167,167,-0.5660487865301277,-0.6,0.0,1.0,352.0,882.0,1.0,0,526.0,1
168,168,0.576497381021846,0.6,0.0,0.0,421.0,585.0,0.0,1,1204.0,1
169,169,0.09862284932462206,0.1,0.0,0.0,392.0,598.0,1.0,0,2010.0,0
170,170,-0.7443843932874499,-0.7,1.0,0.0,400.0,961.0,0.0,0,-681.0,1
171,171,0.23301936424460512,0.2,0.0,0.0,498.0,827.0,0.0,1,-865.0,1
172,172,-0.566440693786481,-0.6,1.0,0.0,311.0,571.0,0.0,0,1538.0,1
173,173,-0.25471183561687927,-0.3,1.0,0.0,408.0,776.0,0.0,0,-1074.0,1
174,174,0.383273200217053,0.4,0.0,0.0,443.0,923.0,0.0,1,164.0,1
175,175,-0.721712980157006,-0.7,1.0,0.0,408.0,629.0,0.0,0,1533.0,1
176,176,0.863835402730437,0.9,1.0,1.0,345.0,723.0,1.0,1,382.0,1
177,177,-0.15438399216181453,-0.2,0.0,1.0,283.0,755.0,1.0,0,322.0,1
178,178,0.07894280190259606,0.1,0.0,0.0,441.0,574.0,1.0,0,1045.0,0
179,179,0.30047664169382904,0.3,0.0,0.0,286.0,948.0,1.0,0,1766.0,0
180,180,-0.8481809239634992,-0.8,0.0,1.0,280.0,589.0,1.0,0,811.0,1
181,181,-0.1743145200033982,-0.2,1.0,0.0,498.0,723.0,0.0,0,39.0,1
182,182,0.10105495615465687,0.1,0.0,0.0,295.0,806.0,1.0,0,1219.0,0
183,183,0.6854280603887258,0.7,0.0,0.0,466.0,901.0,0.0,1,553.0,1
184,184,0.48693661865978044,0.5,0.0,0.0,345.0,714.0,0.0,1,831.0,1
185,185,0.15583028890105355,0.2,0.0,0.0,250.0,864.0,0.0,1,-604.0,1
186,186,-0.6627965860366883,-0.7,0.0,1.0,323.0,858.0,1.0,0,709.0,1
187,187,0.5654339866012855,0.6,1.0,1.0,332.0,848.0,1.0,1,160.0,1
188,188,-0.05160500637101828,-0.1,0.0,1.0,454.0,776.0,1.0,0,420.0,1
189,189,0.8832960232286241,0.9,1.0,1.0,360.0,851.0,0.0,0,-1201.0,0
190,190,0.1198048320314985,0.1,1.0,1.0,334.0,609.0,1.0,1,687.0,1
191,191,-0.7635997255313209,-0.8,1.0,0.0,267.0,652.0,0.0,0,2081.0,1
192,192,-0.7456351607341055,-0.7,0.0,1.0,368.0,578.0,1.0,0,474.0,1
193,193,0.6660968181110222,0.7,0.0,0.0,276.0,500.0,0.0,1,-316.0,1
194,194,-0.11665985018103342,-0.1,0.0,1.0,331.0,612.0,1.0,0,-173.0,1
195,195,0.05043022158485733,0.1,0.0,0.0,476.0,976.0,1.0,0,1548.0,0
196,196,-0.03934615994756796,-0.0,1.0,0.0,398.0,536.0,1.0,1,2036.0,0
197,197,0.24783640446815236,0.2,1.0,1.0,413.0,878.0,1.0,1,1019.0,1
198,198,0.639012645722345,0.6,0.0,0.0,337.0,637.0,0.0,1,1446.0,1
199,199,-0.28865481010450766,-0.3,0.0,1.0,257.0,671.0,1.0,0,1132.0,1
200,200,0.6342589542187388,0.6,0.0,0.0,384.0,904.0,0.0,1,1712.0,1
201,201,-0.13964763241165268,-0.1,1.0,0.0,394.0,971.0,1.0,1,745.0,0
202,202,0.05889320365688733,0.1,1.0,1.0,366.0,654.0,1.0,1,170.0,1
203,203,-0.14124118667759777,-0.1,0.0,1.0,277.0,584.0,1.0,0,599.0,1
204,204,-0.6140955306570615,-0.6,1.0,0.0,347.0,831.0,0.0,0,1822.0,1
205,205,0.43116822536873667,0.4,1.0,1.0,433.0,650.0,1.0,1,157.0,1
206,206,-0.38125841439024,-0.4,0.0,1.0,423.0,808.0,1.0,0,449.0,1
207,207,-0.05258783750588425,-0.1,0.0,1.0,463.0,850.0,1.0,0,1687.0,1
208,208,-0.07722483968778704,-0.1,0.0,1.0,309.0,657.0,1.0,0,2034.0,1
209,209,0.8547550210108105,0.9,1.0,1.0,258.0,923.0,0.0,0,-441.0,0
210,210,0.21838574846249792,0.2,0.0,0.0,327.0,995.0,1.0,0,1678.0,0
211,211,-0.2932954148199176,-0.3,0.0,1.0,408.0,778.0,1.0,0,284.0,1
212,212,0.7826957316439015,0.8,1.0,1.0,306.0,752.0,1.0,1,372.0,1
213,213,-0.5734070624617381,-0.6,0.0,1.0,419.0,837.0,0.0,1,-826.0,0
214,214,0.48215553794889476,0.5,1.0,1.0,330.0,929.0,1.0,1,-589.0,1
215,215,0.06386134188213388,0.1,1.0,1.0,441.0,727.0,0.0,0,252.0,0
216,216,0.8183606336176695,0.8,0.0,0.0,397.0,813.0,0.0,1,260.0,1
217,217,-0.6116015980792056,-0.6,1.0,0.0,382.0,522.0,0.0,0,-134.0,1
218,218,0.48809579683844506,0.5,1.0,1.0,447.0,556.0,1.0,1,197.0,1
219,219,-0.05696649946452159,-0.1,1.0,0.0,383.0,721.0,1.0,1,1346.0,0
220,220,0.5213127678117623,0.5,0.0,0.0,436.0,697.0,1.0,0,1867.0,0
221,221,-0.4574434124040931,-0.5,1.0,0.0,361.0,764.0,0.0,0,-275.0,1
222,222,0.05323423648176784,0.1,1.0,1.0,402.0,962.0,1.0,1,796.0,1
223,223,-0.14998869872003662,-0.1,1.0,0.0,459.0,576.0,1.0,1,1965.0,0
224,224,-0.49585543468572246,-0.5,1.0,0.0,327.0,798.0,0.0,0,-815.0,1
225,225,-0.3069545230888584,-0.3,1.0,0.0,269.0,940.0,0.0,0,1791.0,1
226,226,-0.8169504167036629,-0.8,0.0,1.0,479.0,681.0,1.0,0,230.0,1
227,227,-0.778675113770478,-0.8,1.0,0.0,296.0,788.0,0.0,0,926.0,1
228,228,0.1835253703366414,0.2,0.0,0.0,434.0,750.0,0.0,1,-704.0,1
229,229,0.14037940926808046,0.1,1.0,1.0,250.0,770.0,1.0,1,1920.0,1
230,230,-0.5662305279472436,-0.6,0.0,1.0,450.0,610.0,1.0,0,750.0,1
231,231,-0.8184350449725843,-0.8,1.0,0.0,309.0,587.0,0.0,0,2104.0,1
232,232,-0.45789153679157674,-0.5,1.0,0.0,474.0,784.0,0.0,0,1742.0,1
233,233,-0.3321976771983226,-0.3,1.0,0.0,307.0,720.0,0.0,0,393.0,1
234,234,-0.16711452862185272,-0.2,1.0,0.0,330.0,763.0,1.0,1,1027.0,0
235,235,0.7678128023348753,0.8,0.0,0.0,298.0,833.0,0.0,1,-601.0,1
236,236,-0.4080658562171099,-0.4,0.0,1.0,317.0,835.0,1.0,0,448.0,1
237,237,0.3730518225705125,0.4,0.0,0.0,358.0,940.0,1.0,0,1702.0,0
238,238,-0.07410134758823728,-0.1,1.0,0.0,257.0,626.0,1.0,1,937.0,0
239,239,-0.47794221566015016,-0.5,1.0,0.0,350.0,885.0,1.0,1,-65.0,0
240,240,0.513881741414513,0.5,0.0,0.0,409.0,697.0,0.0,1,-886.0,1
241,241,-0.3842100953780887,-0.4,1.0,0.0,358.0,922.0,1.0,1,1520.0,0
242,242,-0.8516904755024483,-0.9,1.0,0.0,365.0,850.0,1.0,1,1785.0,0
243,243,-0.6552198059693358,-0.7,0.0,1.0,325.0,867.0,1.0,0,308.0,1
244,244,0.8640262738555508,0.9,0.0,0.0,253.0,591.0,1.0,0,2156.0,0
245,245,0.5239713590219809,0.5,0.0,0.0,258.0,871.0,0.0,1,1871.0,1
246,246,-0.8346962764270625,-0.8,1.0,0.0,461.0,623.0,0.0,0,476.0,1
247,247,-0.03691814986678321,-0.0,1.0,0.0,428.0,925.0,1.0,1,1647.0,0
248,248,-0.79932607867808,-0.8,1.0,0.0,298.0,665.0,0.0,0,667.0,1
249,249,-0.22148325640928734,-0.2,0.0,1.0,354.0,687.0,0.0,1,-391.0,0
250,250,0.5956835120578058,0.6,0.0,0.0,478.0,842.0,0.0,1,1400.0,1
251,251,0.5012410285137671,0.5,1.0,1.0,254.0,813.0,1.0,1,973.0,1
252,252,-0.004903283176078688,-0.0,0.0,1.0,319.0,978.0,1.0,0,1703.0,1
253,253,0.12856462094401244,0.1,1.0,1.0,410.0,904.0,1.0,1,-224.0,1
254,254,-0.3180349197105147,-0.3,0.0,1.0,289.0,533.0,1.0,0,758.0,1
255,255,0.015447612709239,0.0,1.0,1.0,489.0,740.0,1.0,1,81.0,1
256,256,-0.5698139855118907,-0.6,1.0,0.0,257.0,678.0,1.0,1,135.0,0
257,257,-0.04798525541391907,-0.0,1.0,0.0,406.0,818.0,1.0,1,-64.0,0
258,258,0.5633724112226174,0.6,0.0,0.0,407.0,592.0,0.0,1,-559.0,1
259,259,-0.6390537277632272,-0.6,1.0,0.0,377.0,529.0,1.0,1,2094.0,0
260,260,-0.07992606508300604,-0.1,0.0,1.0,448.0,814.0,1.0,0,418.0,1
261,261,-0.4526364858323954,-0.5,0.0,1.0,496.0,581.0,1.0,0,553.0,1
262,262,-0.3780603655299023,-0.4,0.0,1.0,372.0,970.0,1.0,0,678.0,1
263,263,0.08974644539578625,0.1,1.0,1.0,255.0,687.0,0.0,0,-652.0,0
264,264,0.5141823687115582,0.5,0.0,0.0,428.0,977.0,1.0,0,1595.0,0
265,265,0.6078897508575823,0.6,0.0,0.0,263.0,733.0,0.0,1,1094.0,1
266,266,0.2525005377747883,0.3,1.0,1.0,429.0,752.0,1.0,1,139.0,1
267,267,0.18562734123520752,0.2,1.0,1.0,396.0,949.0,1.0,1,215.0,1
268,268,-0.5561146224080095,-0.6,0.0,1.0,334.0,573.0,1.0,0,813.0,1
269,269,-0.38095199686841885,-0.4,1.0,0.0,342.0,794.0,0.0,0,1864.0,1
270,270,0.5414373386991821,0.5,0.0,0.0,340.0,542.0,0.0,1,-402.0,1
271,271,-0.5607256142547452,-0.6,1.0,0.0,383.0,962.0,0.0,0,1095.0,1
272,272,-0.055847095880617426,-0.1,0.0,1.0,472.0,978.0,1.0,0,1020.0,1
273,273,-0.09109803070548961,-0.1,0.0,1.0,440.0,922.0,0.0,1,-502.0,0
274,274,0.40591184913951894,0.4,0.0,0.0,409.0,699.0,1.0,0,-108.0,0
275,275,0.2640834548826124,0.3,1.0,1.0,295.0,902.0,1.0,1,1093.0,1
276,276,0.017861268709937206,0.0,1.0,1.0,438.0,897.0,0.0,0,175.0,0
277,277,0.7782237361239736,0.8,1.0,1.0,461.0,937.0,1.0,1,702.0,1
278,278,0.7731387945654208,0.8,0.0,0.0,306.0,870.0,1.0,0,1094.0,0
279,279,0.8047974814647881,0.8,1.0,1.0,477.0,836.0,1.0,1,1027.0,1
280,280,-0.7173463536117277,-0.7,1.0,0.0,433.0,777.0,0.0,0,450.0,1
281,281,0.815150980204833,0.8,1.0,1.0,302.0,804.0,1.0,1,444.0,1
282,282,0.7456196790744055,0.7,0.0,0.0,463.0,672.0,0.0,1,1355.0,1
283,283,0.3570112179810586,0.4,0.0,0.0,459.0,798.0,1.0,0,-67.0,0
284,284,0.6673198553321676,0.7,0.0,0.0,311.0,907.0,0.0,1,-708.0,1
285,285,0.1344267500821229,0.1,1.0,1.0,361.0,622.0,1.0,1,1117.0,1
286,286,-0.14926991839089343,-0.1,1.0,0.0,338.0,597.0,1.0,1,1655.0,0
287,287,-0.8178786966123786,-0.8,1.0,0.0,375.0,763.0,0.0,0,1862.0,1
288,288,0.5069643618046417,0.5,0.0,0.0,258.0,708.0,0.0,1,1324.0,1
289,289,-0.31121667892239635,-0.3,0.0,1.0,294.0,837.0,1.0,0,949.0,1
290,290,-0.0923412984348495,-0.1,1.0,0.0,410.0,666.0,0.0,0,-476.0,1
291,291,-0.18042810142705012,-0.2,1.0,0.0,429.0,680.0,1.0,1,851.0,0
292,292,0.33147595089035387,0.3,0.0,0.0,395.0,954.0,0.0,1,1651.0,1
293,293,0.3991993111513584,0.4,0.0,0.0,251.0,788.0,1.0,0,1961.0,0
294,294,-0.11299767052960452,-0.1,0.0,1.0,380.0,912.0,0.0,1,-132.0,0
295,295,-0.8015373773002309,-0.8,1.0,0.0,467.0,503.0,0.0,0,900.0,1
296,296,0.46332337545881874,0.5,1.0,1.0,276.0,831.0,1.0,1,-147.0,1
297,297,0.5345252541881534,0.5,0.0,0.0,370.0,817.0,1.0,0,413.0,0
298,298,-0.33325044337239873,-0.3,0.0,1.0,464.0,716.0,1.0,0,1110.0,1
299,299,-0.852815494190158,-0.9,1.0,0.0,351.0,614.0,0.0,0,2035.0,1
300,300,-0.34733022465672103,-0.3,1.0,0.0,412.0,785.0,0.0,0,1263.0,1
301,301,0.08185213034901484,0.1,0.0,0.0,355.0,731.0,1.0,0,884.0,0
302,302,-0.2576084777371297,-0.3,1.0,0.0,386.0,778.0,0.0,0,-1094.0,1
303,303,-0.3151976454343687,-0.3,1.0,0.0,329.0,571.0,1.0,1,2060.0,0
304,304,-0.8588065023762903,-0.9,1.0,0.0,257.0,778.0,1.0,1,-75.0,0
305,305,-0.8884853750306109,-0.9,1.0,0.0,377.0,717.0,1.0,1,6.0,0
306,306,-0.3459587965376869,-0.3,1.0,0.0,392.0,979.0,0.0,0,459.0,1
307,307,0.7509800124871172,0.8,1.0,1.0,305.0,606.0,1.0,1,-121.0,1
308,308,-0.15503255390034365,-0.2,1.0,0.0,382.0,673.0,1.0,1,1185.0,0
309,309,-0.09067149665439489,-0.1,1.0,0.0,333.0,944.0,1.0,1,-487.0,0
310,310,0.8556206409812296,0.9,1.0,1.0,278.0,898.0,1.0,1,374.0,1
311,311,-0.3931722050248865,-0.4,1.0,0.0,276.0,569.0,1.0,1,825.0,0
312,312,-0.6839108885622904,-0.7,1.0,0.0,319.0,949.0,0.0,0,1732.0,1
313,313,0.8563298910608473,0.9,0.0,0.0,426.0,864.0,0.0,1,1140.0,1
314,314,0.8263863288716154,0.8,1.0,1.0,318.0,513.0,1.0,1,819.0,1
315,315,0.030908541388589006,0.0,0.0,0.0,496.0,730.0,1.0,0,1774.0,0
316,316,0.843278855859024,0.8,1.0,1.0,337.0,936.0,1.0,1,417.0,1
317,317,-0.3446218388851934,-0.3,1.0,0.0,349.0,579.0,1.0,1,2072.0,0
318,318,0.4704202183150724,0.5,0.0,0.0,398.0,728.0,0.0,1,214.0,1
319,319,0.16065856497160158,0.2,0.0,0.0,460.0,936.0,1.0,0,964.0,0
320,320,0.13841741493106163,0.1,1.0,1.0,394.0,584.0,1.0,1,262.0,1
321,321,-0.7614377098646504,-0.8,0.0,1.0,421.0,661.0,1.0,0,258.0,1
322,322,-0.5894914720497211,-0.6,1.0,0.0,478.0,516.0,1.0,1,6.0,0
323,323,-0.1208261985455702,-0.1,1.0,0.0,464.0,752.0,1.0,1,774.0,0
324,324,-0.4586287605484948,-0.5,0.0,1.0,378.0,985.0,1.0,0,387.0,1
325,325,-0.2787517408376724,-0.3,1.0,0.0,433.0,754.0,0.0,0,-997.0,1
326,326,0.521523671146002,0.5,0.0,0.0,481.0,960.0,0.0,1,1559.0,1
327,327,0.21721579242893296,0.2,1.0,1.0,476.0,676.0,1.0,1,88.0,1
328,328,-0.22272928732441621,-0.2,1.0,0.0,394.0,778.0,1.0,1,1828.0,0
329,329,0.4791286720837443,0.5,0.0,0.0,489.0,978.0,0.0,1,1533.0,1
330,330,-0.8168913568345596,-0.8,0.0,1.0,484.0,721.0,1.0,0,115.0,1
331,331,0.14647068013813802,0.1,1.0,1.0,311.0,681.0,0.0,0,-352.0,0
332,332,0.6353804677177116,0.6,1.0,1.0,469.0,553.0,1.0,1,8.0,1
333,333,0.5655137309133021,0.6,1.0,1.0,316.0,603.0,1.0,1,641.0,1
334,334,-0.38601573763294417,-0.4,0.0,1.0,458.0,652.0,1.0,0,610.0,1
335,335,-0.352918472883064,-0.4,0.0,1.0,457.0,692.0,1.0,0,521.0,1
336,336,0.6998777481784345,0.7,1.0,1.0,330.0,637.0,0.0,0,-777.0,0
337,337,0.8563658775689232,0.9,1.0,1.0,470.0,560.0,1.0,1,600.0,1
338,338,0.8346765980846856,0.8,0.0,0.0,432.0,957.0,0.0,1,-659.0,1
339,339,0.33561741853424143,0.3,1.0,1.0,443.0,985.0,1.0,1,722.0,1
340,340,0.29252266026572615,0.3,0.0,0.0,366.0,561.0,0.0,1,2073.0,1
341,341,0.48244896614544974,0.5,1.0,1.0,403.0,902.0,0.0,0,-25.0,0
342,342,-0.7864636469285832,-0.8,1.0,0.0,411.0,756.0,0.0,0,1833.0,1
343,343,-0.20520721485688553,-0.2,0.0,1.0,359.0,609.0,1.0,0,632.0,1
344,344,0.5532910817833486,0.6,1.0,1.0,375.0,725.0,1.0,1,910.0,1
345,345,0.07485899278389274,0.1,1.0,1.0,326.0,997.0,1.0,1,127.0,1
346,346,0.6312992120654995,0.6,1.0,1.0,462.0,518.0,0.0,0,-690.0,0
347,347,0.13061002785931708,0.1,0.0,0.0,368.0,843.0,1.0,0,1069.0,0
348,348,-0.36627446944347075,-0.4,0.0,1.0,363.0,771.0,1.0,0,486.0,1
349,349,0.6507401712916664,0.7,1.0,1.0,385.0,694.0,1.0,1,-409.0,1
350,350,-0.1432456798737075,-0.1,0.0,1.0,430.0,758.0,1.0,0,1812.0,1
351,351,-0.030589834183951115,-0.0,1.0,0.0,275.0,571.0,1.0,1,1974.0,0
352,352,0.5741450380201972,0.6,1.0,1.0,268.0,916.0,1.0,1,1026.0,1
353,353,-0.320992183834523,-0.3,1.0,0.0,347.0,626.0,1.0,1,767.0,0
354,354,-0.17833478303637296,-0.2,0.0,1.0,377.0,692.0,1.0,0,691.0,1
355,355,-0.5259876744367182,-0.5,1.0,0.0,482.0,636.0,0.0,0,572.0,1
356,356,0.030214923671875282,0.0,1.0,1.0,433.0,962.0,1.0,1,625.0,1
357,357,0.8828825859897372,0.9,1.0,1.0,269.0,863.0,1.0,1,458.0,1
358,358,-0.11025527164674598,-0.1,1.0,0.0,467.0,942.0,0.0,0,1591.0,1
359,359,0.6581491841865318,0.7,1.0,1.0,272.0,778.0,1.0,1,660.0,1
360,360,-0.43372920574597856,-0.4,1.0,0.0,351.0,525.0,1.0,1,2124.0,0
361,361,-0.43275545168400315,-0.4,1.0,0.0,347.0,637.0,0.0,0,2016.0,1
362,362,-0.4173615434258124,-0.4,1.0,0.0,380.0,799.0,0.0,0,1631.0,1
363,363,0.8499643950163277,0.8,0.0,0.0,437.0,831.0,0.0,1,1092.0,1
364,364,0.2088861105363481,0.2,0.0,0.0,429.0,856.0,1.0,0,1615.0,0
365,365,-0.06540257771788394,-0.1,1.0,0.0,490.0,677.0,1.0,1,693.0,0
366,366,0.6474870410779755,0.6,1.0,1.0,401.0,600.0,1.0,1,709.0,1
367,367,0.14852259095097098,0.1,0.0,0.0,361.0,745.0,0.0,1,-1006.0,1
368,368,0.4719281557757907,0.5,0.0,0.0,361.0,677.0,0.0,1,852.0,1
369,369,-0.24596609312743845,-0.2,0.0,1.0,469.0,732.0,1.0,0,819.0,1
370,370,0.8171315632407513,0.8,1.0,1.0,332.0,772.0,1.0,1,426.0,1
371,371,0.5393200699630193,0.5,1.0,1.0,387.0,634.0,1.0,1,-141.0,1
372,372,0.8356009436655544,0.8,1.0,1.0,403.0,928.0,1.0,1,409.0,1
373,373,0.1047392172689331,0.1,1.0,1.0,402.0,978.0,1.0,1,1120.0,1
374,374,-0.15551498204360648,-0.2,1.0,0.0,275.0,834.0,1.0,1,171.0,0
375,375,0.2558436996313448,0.3,0.0,0.0,351.0,747.0,0.0,1,1892.0,1
376,376,0.18470993296259464,0.2,1.0,1.0,391.0,508.0,1.0,1,271.0,1
377,377,0.7966639074329919,0.8,0.0,0.0,407.0,729.0,0.0,1,1444.0,1
378,378,-0.005003973787414351,-0.0,0.0,1.0,251.0,652.0,1.0,0,1457.0,1
379,379,-0.8403241376646896,-0.8,0.0,1.0,287.0,845.0,1.0,0,338.0,1
380,380,-0.8569704495486227,-0.9,1.0,0.0,458.0,685.0,0.0,0,587.0,1
381,381,0.4403194914201739,0.4,1.0,1.0,309.0,773.0,1.0,1,818.0,1
382,382,-0.6105754431146795,-0.6,0.0,1.0,354.0,770.0,1.0,0,506.0,1
383,383,-0.30963881621678113,-0.3,0.0,1.0,327.0,872.0,1.0,0,-439.0,1
384,384,-0.6321288535200568,-0.6,1.0,0.0,461.0,789.0,1.0,1,1750.0,0
385,385,-0.36031281285710814,-0.4,1.0,0.0,471.0,712.0,0.0,0,1427.0,1
386,386,-0.019633564060486997,-0.0,0.0,1.0,321.0,868.0,1.0,0,581.0,1
387,387,0.676722164061664,0.7,0.0,0.0,286.0,572.0,0.0,1,-818.0,1
388,388,-0.5473711294040058,-0.5,0.0,1.0,311.0,778.0,1.0,0,611.0,1
389,389,-0.7602926074939955,-0.8,1.0,0.0,492.0,930.0,1.0,1,-502.0,0
390,390,0.18707300313713116,0.2,1.0,1.0,310.0,807.0,1.0,1,473.0,1
391,391,-0.7599807371574541,-0.8,1.0,0.0,400.0,867.0,0.0,0,1733.0,1
392,392,0.6938434275578148,0.7,1.0,1.0,322.0,823.0,1.0,1,395.0,1
393,393,-0.17955889690666405,-0.2,0.0,1.0,474.0,950.0,0.0,1,-524.0,0
394,394,0.7989977497864617,0.8,0.0,0.0,398.0,551.0,0.0,1,61.0,1
395,395,0.6342881032455473,0.6,0.0,0.0,478.0,833.0,1.0,0,-401.0,0
396,396,-0.22850494114965203,-0.2,0.0,1.0,306.0,916.0,1.0,0,118.0,1
397,397,-0.6378751078685273,-0.6,1.0,0.0,357.0,772.0,0.0,0,1301.0,1
398,398,-0.7195901086647042,-0.7,1.0,0.0,315.0,760.0,1.0,1,-175.0,0
399,399,-0.7700085349485262,-0.8,0.0,1.0,418.0,694.0,1.0,0,258.0,1
400,400,0.5840917695674638,0.6,0.0,0.0,347.0,571.0,0.0,1,612.0,1
401,401,0.3602952498688866,0.4,0.0,0.0,449.0,789.0,1.0,0,1762.0,0
402,402,0.8634079742271367,0.9,1.0,1.0,282.0,941.0,1.0,1,237.0,1
403,403,-0.2658661419738032,-0.3,0.0,1.0,320.0,774.0,1.0,0,466.0,1
404,404,-0.17520436486178093,-0.2,0.0,1.0,319.0,579.0,1.0,0,942.0,1
405,405,0.6641552630153041,0.7,1.0,1.0,489.0,908.0,0.0,0,-937.0,0
406,406,0.23663147945257335,0.2,1.0,1.0,450.0,810.0,1.0,1,430.0,1
407,407,0.6624116703396482,0.7,0.0,0.0,270.0,955.0,0.0,1,645.0,1
408,408,0.4696318894721597,0.5,1.0,1.0,390.0,548.0,1.0,1,1222.0,1
409,409,0.22601994202908593,0.2,0.0,0.0,422.0,872.0,1.0,0,76.0,0
410,410,-0.3213921771682303,-0.3,1.0,0.0,460.0,677.0,0.0,0,-427.0,1
411,411,0.21971145162288963,0.2,1.0,1.0,392.0,701.0,1.0,1,1637.0,1
412,412,-0.8319197421258084,-0.8,1.0,0.0,460.0,776.0,0.0,0,1764.0,1
413,413,0.042155257646947386,0.0,1.0,1.0,305.0,869.0,1.0,1,1106.0,1
414,414,0.7725546905925819,0.8,1.0,1.0,432.0,963.0,1.0,1,-15.0,1
415,415,0.8671669886670504,0.9,0.0,0.0,495.0,934.0,0.0,1,-1029.0,1
416,416,0.2968813887393761,0.3,1.0,1.0,311.0,926.0,0.0,0,-207.0,0
417,417,-0.4019983980736887,-0.4,0.0,1.0,337.0,866.0,1.0,0,597.0,1
418,418,0.6790709142405474,0.7,1.0,1.0,308.0,614.0,1.0,1,188.0,1
419,419,-0.8255982119930982,-0.8,1.0,0.0,394.0,678.0,0.0,0,1928.0,1
420,420,0.28378336800950377,0.3,1.0,1.0,318.0,637.0,1.0,1,1975.0,1
421,421,-0.2992205000025402,-0.3,0.0,1.0,437.0,874.0,1.0,0,-61.0,1
422,422,-0.3254476801036713,-0.3,0.0,1.0,335.0,657.0,1.0,0,978.0,1
423,423,0.4062126617923755,0.4,1.0,1.0,277.0,526.0,1.0,1,197.0,1
424,424,0.05147886291191428,0.1,0.0,0.0,447.0,779.0,1.0,0,1414.0,0
425,425,-0.36007433876804307,-0.4,1.0,0.0,445.0,948.0,1.0,1,357.0,0
426,426,-0.423544624205061,-0.4,0.0,1.0,275.0,995.0,0.0,1,-670.0,0
427,427,-0.30637353057993433,-0.3,1.0,0.0,445.0,650.0,1.0,1,1905.0,0
428,428,-0.33729866211519555,-0.3,0.0,1.0,250.0,674.0,1.0,0,466.0,1
429,429,0.01624946839054986,0.0,1.0,1.0,260.0,863.0,1.0,1,1487.0,1
430,430,0.7133240329266656,0.7,0.0,0.0,296.0,632.0,0.0,1,1052.0,1
431,431,0.4483904765958041,0.4,1.0,1.0,373.0,948.0,1.0,1,129.0,1
432,432,-0.5546224476787973,-0.6,1.0,0.0,288.0,823.0,0.0,0,1889.0,1
433,433,-0.48336654407721025,-0.5,0.0,1.0,465.0,563.0,1.0,0,132.0,1
434,434,0.2786702661654855,0.3,0.0,0.0,439.0,873.0,0.0,1,238.0,1
435,435,-0.12757278659127158,-0.1,1.0,0.0,306.0,655.0,1.0,1,929.0,0
436,436,-0.3983588137073667,-0.4,1.0,0.0,357.0,909.0,1.0,1,-106.0,0
437,437,0.0442877725941182,0.0,0.0,0.0,444.0,570.0,1.0,0,1986.0,0
438,438,0.3276500464002684,0.3,1.0,1.0,391.0,829.0,1.0,1,690.0,1
439,439,-0.5493058574269318,-0.5,0.0,1.0,456.0,624.0,1.0,0,1190.0,1
440,440,-0.4337544627569772,-0.4,1.0,0.0,452.0,578.0,1.0,1,1970.0,0
441,441,-0.7085375346386225,-0.7,0.0,1.0,352.0,603.0,1.0,0,1415.0,1
442,442,-0.2400479764962563,-0.2,1.0,0.0,427.0,701.0,0.0,0,1872.0,1
443,443,0.020407899556895592,0.0,0.0,0.0,413.0,524.0,1.0,0,373.0,0
444,444,-0.5513175936041188,-0.6,1.0,0.0,278.0,653.0,1.0,1,199.0,0
445,445,0.6926477624909814,0.7,1.0,1.0,365.0,829.0,1.0,1,676.0,1
446,446,-0.19227069044127731,-0.2,0.0,1.0,280.0,771.0,1.0,0,249.0,1
447,447,0.4325322728536821,0.4,1.0,1.0,472.0,918.0,0.0,0,-1090.0,0
448,448,-0.1320075550416293,-0.1,0.0,1.0,323.0,849.0,1.0,0,1828.0,1
449,449,0.4136361828569163,0.4,1.0,1.0,327.0,593.0,1.0,1,990.0,1
450,450,-0.6686368638002216,-0.7,1.0,0.0,491.0,870.0,0.0,0,1639.0,1
451,451,0.48314356915073786,0.5,0.0,0.0,395.0,881.0,0.0,1,1724.0,1
452,452,-0.8702966766507739,-0.9,1.0,0.0,425.0,867.0,0.0,0,-1122.0,1
453,453,-0.1121784268776117,-0.1,0.0,1.0,377.0,909.0,1.0,0,1674.0,1
454,454,-0.2211561618858171,-0.2,1.0,0.0,335.0,683.0,0.0,0,1982.0,1
455,455,0.27604076046786263,0.3,1.0,1.0,429.0,942.0,0.0,0,-191.0,0
456,456,-0.5843093580527856,-0.6,0.0,1.0,301.0,554.0,1.0,0,715.0,1
457,457,-0.08135086245009693,-0.1,0.0,1.0,471.0,808.0,1.0,0,1081.0,1
458,458,-0.4850538396711516,-0.5,0.0,1.0,275.0,705.0,1.0,0,220.0,1
459,459,-0.11634261170107962,-0.1,0.0,1.0,316.0,516.0,1.0,0,2168.0,1
460,460,-0.4632560458976434,-0.5,1.0,0.0,477.0,710.0,0.0,0,-497.0,1
461,461,0.5085591101808636,0.5,1.0,1.0,489.0,943.0,1.0,1,278.0,1
462,462,-0.6959818775999999,-0.7,1.0,0.0,288.0,787.0,1.0,1,45.0,0
463,463,0.524765474445663,0.5,0.0,0.0,343.0,735.0,0.0,1,-578.0,1
464,464,-0.6285792111164237,-0.6,0.0,1.0,433.0,788.0,0.0,1,-671.0,0
465,465,0.603571567745027,0.6,0.0,0.0,303.0,907.0,0.0,1,1790.0,1
466,466,0.25195985798773635,0.3,1.0,1.0,487.0,774.0,0.0,0,-1191.0,0
467,467,-0.7116886386772107,-0.7,0.0,1.0,472.0,841.0,1.0,0,377.0,1
468,468,0.07264847078761105,0.1,1.0,1.0,338.0,728.0,1.0,1,744.0,1
469,469,-0.488716344082966,-0.5,1.0,0.0,367.0,968.0,0.0,0,-255.0,1
470,470,-0.36912637137470694,-0.4,1.0,0.0,492.0,997.0,0.0,0,1511.0,1
471,471,0.04610225378165178,0.0,1.0,1.0,292.0,637.0,1.0,1,511.0,1
472,472,0.20682333484205062,0.2,0.0,0.0,378.0,730.0,1.0,0,-38.0,0
473,473,-0.7956028225034703,-0.8,0.0,1.0,322.0,723.0,1.0,0,425.0,1
474,474,0.8656185173732082,0.9,0.0,0.0,432.0,705.0,0.0,1,-837.0,1
475,475,0.570225656349331,0.6,0.0,0.0,276.0,814.0,1.0,0,1910.0,0
476,476,-0.603291083760974,-0.6,0.0,1.0,260.0,503.0,1.0,0,807.0,1
477,477,0.6066282195469247,0.6,1.0,1.0,344.0,584.0,1.0,1,812.0,1
478,478,-0.23417324506864867,-0.2,1.0,0.0,277.0,854.0,1.0,1,-141.0,0
479,479,-0.031177648571166783,-0.0,0.0,1.0,339.0,656.0,1.0,0,965.0,1
480,480,-0.2629266596429599,-0.3,0.0,1.0,484.0,969.0,1.0,0,167.0,1
481,481,0.7706434963516587,0.8,0.0,0.0,405.0,826.0,0.0,1,1769.0,1
482,482,-0.5052068220512478,-0.5,0.0,1.0,498.0,929.0,1.0,0,1373.0,1
483,483,0.6654887118542193,0.7,0.0,0.0,486.0,919.0,0.0,1,-105.0,1
484,484,0.4991160097908932,0.5,0.0,0.0,419.0,745.0,1.0,0,-254.0,0
485,485,-0.17299327471954873,-0.2,0.0,1.0,379.0,767.0,0.0,1,-696.0,0
486,486,-0.3067736486463448,-0.3,1.0,0.0,291.0,701.0,1.0,1,2008.0,0
487,487,-0.7935351204335781,-0.8,1.0,0.0,481.0,716.0,0.0,0,1803.0,1
488,488,0.4368511044317528,0.4,1.0,1.0,441.0,934.0,1.0,1,905.0,1
489,489,0.8356953935790113,0.8,1.0,1.0,350.0,834.0,1.0,1,626.0,1
490,490,0.46124427624684283,0.5,0.0,0.0,385.0,788.0,0.0,1,1827.0,1
491,491,-0.49873257530234627,-0.5,1.0,0.0,372.0,710.0,0.0,0,178.0,1
492,492,0.28759213061406064,0.3,1.0,1.0,297.0,843.0,1.0,1,380.0,1
493,493,-0.5846187777583978,-0.6,0.0,1.0,336.0,581.0,1.0,0,813.0,1
494,494,0.2850860961931819,0.3,0.0,0.0,339.0,568.0,1.0,0,1423.0,0
495,495,0.31600402037461894,0.3,0.0,0.0,394.0,526.0,0.0,1,-810.0,1
496,496,0.7329124714502521,0.7,0.0,0.0,282.0,705.0,0.0,1,1953.0,1
497,497,0.37310825784410395,0.4,0.0,0.0,276.0,952.0,0.0,1,1772.0,1
498,498,-0.0896922949090273,-0.1,1.0,0.0,291.0,754.0,1.0,1,635.0,0
499,499,0.5772968070826875,0.6,1.0,1.0,289.0,500.0,1.0,1,741.0,1
500,500,-0.5033543619618661,-0.5,0.0,1.0,376.0,666.0,1.0,0,468.0,1
501,501,0.5796808707464997,0.6,0.0,0.0,285.0,703.0,0.0,1,1422.0,1
502,502,-0.4696807130105474,-0.5,0.0,1.0,294.0,906.0,1.0,0,170.0,1
503,503,-0.07589964034995944,-0.1,0.0,1.0,356.0,968.0,0.0,1,-1034.0,0
504,504,0.7942793733236474,0.8,0.0,0.0,426.0,644.0,0.0,1,1930.0,1
505,505,-0.36431500365045677,-0.4,1.0,0.0,476.0,832.0,0.0,0,622.0,1
506,506,-0.322050587227372,-0.3,0.0,1.0,393.0,850.0,1.0,0,657.0,1
507,507,0.4729950107504347,0.5,1.0,1.0,273.0,566.0,0.0,0,-129.0,0
508,508,-0.2747074826440382,-0.3,0.0,1.0,445.0,594.0,1.0,0,451.0,1
509,509,-0.5494736743973254,-0.5,0.0,1.0,309.0,593.0,1.0,0,208.0,1
510,510,0.37875651704696367,0.4,1.0,1.0,354.0,759.0,1.0,1,207.0,1
511,511,-0.3179011590468128,-0.3,0.0,1.0,497.0,540.0,1.0,0,463.0,1
512,512,0.7183992470439128,0.7,1.0,1.0,374.0,627.0,1.0,1,369.0,1
513,513,-0.13702682581052972,-0.1,0.0,1.0,327.0,819.0,1.0,0,594.0,1
514,514,-0.577269992818976,-0.6,0.0,1.0,404.0,925.0,1.0,0,-759.0,1
515,515,-0.4896335446027775,-0.5,0.0,1.0,325.0,895.0,1.0,0,980.0,1
516,516,0.7620731758156204,0.8,0.0,0.0,447.0,534.0,1.0,0,2019.0,0
517,517,-0.8989682505139193,-0.9,0.0,1.0,442.0,735.0,1.0,0,733.0,1
518,518,0.31756994581166376,0.3,1.0,1.0,288.0,669.0,1.0,1,743.0,1
519,519,-0.32729108725716494,-0.3,0.0,1.0,423.0,671.0,1.0,0,536.0,1
520,520,-0.524918041164468,-0.5,0.0,1.0,438.0,989.0,1.0,0,423.0,1
521,521,-0.21505619027192746,-0.2,1.0,0.0,354.0,887.0,1.0,1,1299.0,0
522,522,0.29726242264580593,0.3,1.0,1.0,289.0,518.0,0.0,0,-157.0,0
523,523,0.1289377870566485,0.1,1.0,1.0,483.0,595.0,1.0,1,732.0,1
524,524,-0.6503470247553298,-0.7,0.0,1.0,487.0,865.0,1.0,0,638.0,1
525,525,0.14796506396338527,0.1,0.0,0.0,406.0,847.0,1.0,0,287.0,0
526,526,-0.8620431882444965,-0.9,0.0,1.0,361.0,804.0,1.0,0,685.0,1
527,527,0.5196695413128877,0.5,1.0,1.0,490.0,615.0,1.0,1,515.0,1
528,528,0.8665434207941495,0.9,0.0,0.0,444.0,557.0,0.0,1,1999.0,1
529,529,0.4062100043492737,0.4,1.0,1.0,279.0,531.0,1.0,1,1640.0,1
530,530,-0.08407440698092439,-0.1,0.0,1.0,489.0,542.0,1.0,0,429.0,1
531,531,0.051901745540890554,0.1,0.0,0.0,357.0,644.0,1.0,0,559.0,0
532,532,0.6535619322095158,0.7,1.0,1.0,349.0,730.0,1.0,1,131.0,1
533,533,0.6225768574840257,0.6,1.0,1.0,431.0,542.0,1.0,1,547.0,1
534,534,-0.8015782330545352,-0.8,1.0,0.0,452.0,809.0,0.0,0,1739.0,1
535,535,-0.0912367153719521,-0.1,0.0,1.0,294.0,813.0,0.0,1,-97.0,0
536,536,-0.33389544746929134,-0.3,1.0,0.0,341.0,787.0,0.0,0,1492.0,1
537,537,-0.2423995116524471,-0.2,0.0,1.0,339.0,941.0,1.0,0,290.0,1
538,538,-0.2451480705833533,-0.2,0.0,1.0,309.0,953.0,1.0,0,568.0,1
539,539,0.627845887721561,0.6,0.0,0.0,326.0,564.0,0.0,1,1670.0,1
540,540,0.002990637851988387,0.0,0.0,0.0,317.0,911.0,1.0,0,1432.0,0
541,541,0.32502455977774847,0.3,1.0,1.0,255.0,937.0,1.0,1,-222.0,1
542,542,0.8816787409680992,0.9,1.0,1.0,289.0,914.0,1.0,1,817.0,1
543,543,-0.2556895720166651,-0.3,1.0,0.0,413.0,618.0,1.0,1,359.0,0
544,544,0.12049994172869527,0.1,0.0,0.0,385.0,731.0,1.0,0,824.0,0
545,545,-0.24493198575823572,-0.2,1.0,0.0,458.0,752.0,1.0,1,-670.0,0
546,546,-0.7350903843087171,-0.7,1.0,0.0,288.0,660.0,0.0,0,-88.0,1
547,547,-0.8707081808095899,-0.9,1.0,0.0,342.0,997.0,0.0,0,1661.0,1
548,548,0.40948695200966057,0.4,1.0,1.0,288.0,614.0,1.0,1,808.0,1
549,549,-0.6302861262892412,-0.6,0.0,1.0,389.0,782.0,1.0,0,319.0,1
550,550,0.8167773929532244,0.8,1.0,1.0,316.0,653.0,1.0,1,161.0,1
551,551,-0.7278139126334519,-0.7,1.0,0.0,399.0,806.0,1.0,1,5.0,0
552,552,0.6700726401219036,0.7,1.0,1.0,413.0,657.0,1.0,1,550.0,1
553,553,0.27284985763839187,0.3,1.0,1.0,418.0,574.0,1.0,1,738.0,1
554,554,-0.6831327486756498,-0.7,1.0,0.0,319.0,824.0,0.0,0,1857.0,1
555,555,0.3657554178099186,0.4,0.0,0.0,253.0,587.0,0.0,1,-580.0,1
556,556,-0.8450247545662617,-0.8,0.0,1.0,452.0,972.0,1.0,0,436.0,1
557,557,-0.35172696581817575,-0.4,1.0,0.0,290.0,877.0,0.0,0,1833.0,1
558,558,-0.0064407890638786824,-0.0,0.0,1.0,323.0,829.0,1.0,0,1708.0,1
559,559,-0.19639140785702036,-0.2,1.0,0.0,292.0,935.0,0.0,0,1583.0,1
560,560,0.31360004695526544,0.3,1.0,1.0,341.0,575.0,1.0,1,1034.0,1
561,561,0.11953782834566151,0.1,1.0,1.0,443.0,657.0,1.0,1,1870.0,1
562,562,-0.2519647276242075,-0.3,1.0,0.0,425.0,607.0,1.0,1,1968.0,0
563,563,-0.2854056894365161,-0.3,1.0,0.0,342.0,601.0,1.0,1,2057.0,0
564,564,-0.15418809514424203,-0.2,1.0,0.0,313.0,567.0,1.0,1,630.0,0
565,565,-0.36493198113896874,-0.4,1.0,0.0,451.0,932.0,1.0,1,-23.0,0
566,566,0.08655057373710551,0.1,1.0,1.0,287.0,759.0,1.0,1,1864.0,1
567,567,0.17525784042061165,0.2,0.0,0.0,420.0,880.0,0.0,1,1110.0,1
568,568,-0.6819333445492746,-0.7,1.0,0.0,337.0,641.0,0.0,0,2022.0,1
569,569,-0.8518944390137132,-0.9,0.0,1.0,394.0,768.0,1.0,0,1218.0,1
570,570,-0.11901328750647355,-0.1,0.0,1.0,463.0,755.0,1.0,0,932.0,1
571,571,0.4196687763189627,0.4,1.0,1.0,266.0,782.0,1.0,1,12.0,1
572,572,-0.09170648152909744,-0.1,0.0,1.0,435.0,865.0,0.0,1,-850.0,0
573,573,-0.1867653087743244,-0.2,0.0,1.0,292.0,892.0,1.0,0,466.0,1
574,574,0.31164569733195047,0.3,1.0,1.0,420.0,716.0,1.0,1,384.0,1
575,575,-0.44133994694915674,-0.4,0.0,1.0,274.0,647.0,1.0,0,599.0,1
576,576,0.3155850916351398,0.3,1.0,1.0,447.0,553.0,1.0,1,570.0,1
577,577,-0.4849363507671072,-0.5,1.0,0.0,375.0,822.0,1.0,1,173.0,0
578,578,-0.5189131600075623,-0.5,0.0,1.0,427.0,828.0,0.0,1,-1135.0,0
579,579,-0.6239150476132695,-0.6,0.0,1.0,364.0,640.0,1.0,0,1136.0,1
580,580,0.7386198917641665,0.7,0.0,0.0,257.0,987.0,0.0,1,1286.0,1
581,581,0.028373367125111293,0.0,1.0,1.0,311.0,787.0,1.0,1,1682.0,1
582,582,0.6815825541508217,0.7,0.0,0.0,263.0,857.0,0.0,1,1880.0,1
583,583,-0.18508278559127211,-0.2,1.0,0.0,442.0,578.0,0.0,0,1980.0,1
584,584,0.2238406709199975,0.2,1.0,1.0,284.0,504.0,0.0,0,-328.0,0
585,585,0.22914062089043752,0.2,1.0,1.0,422.0,915.0,1.0,1,203.0,1
586,586,0.17212398034717313,0.2,0.0,0.0,323.0,555.0,1.0,0,1772.0,0
587,587,0.33196837879434204,0.3,1.0,1.0,312.0,818.0,1.0,1,0.0,1
588,588,0.812102251981711,0.8,1.0,1.0,299.0,621.0,1.0,1,450.0,1
589,589,-0.4711524874939765,-0.5,1.0,0.0,309.0,774.0,0.0,0,1917.0,1
590,590,0.6266704141500713,0.6,0.0,0.0,365.0,817.0,0.0,1,1818.0,1
591,591,-0.2628404739568816,-0.3,1.0,0.0,275.0,592.0,0.0,0,-747.0,1
592,592,0.6201482953090237,0.6,0.0,0.0,407.0,631.0,0.0,1,772.0,1
593,593,0.43919371590866796,0.4,0.0,0.0,377.0,583.0,1.0,0,2040.0,0
594,594,-0.00938809311968647,-0.0,0.0,1.0,435.0,593.0,0.0,1,-198.0,0
595,595,-0.01620712881361286,-0.0,1.0,0.0,358.0,648.0,1.0,1,954.0,0
596,596,0.22998964802711963,0.2,0.0,0.0,358.0,592.0,0.0,1,160.0,1
597,597,0.5229554552207839,0.5,1.0,1.0,309.0,867.0,0.0,0,-196.0,0
598,598,-0.25507424709786675,-0.3,1.0,0.0,451.0,596.0,0.0,0,1953.0,1
599,599,-0.8319312578828996,-0.8,1.0,0.0,345.0,865.0,0.0,0,190.0,1
600,600,-0.7392710590595792,-0.7,0.0,1.0,475.0,836.0,1.0,0,589.0,1
601,601,0.3362724460144958,0.3,0.0,0.0,290.0,512.0,0.0,1,1638.0,1
602,602,0.47939497487661586,0.5,1.0,1.0,384.0,555.0,1.0,1,701.0,1
603,603,0.19545627969010948,0.2,0.0,0.0,491.0,774.0,1.0,0,1405.0,0
604,604,0.6355699979456172,0.6,0.0,0.0,400.0,751.0,0.0,1,509.0,1
605,605,0.8241605470699479,0.8,0.0,0.0,475.0,720.0,0.0,1,1805.0,1
606,606,0.3633715916792811,0.4,1.0,1.0,388.0,641.0,1.0,1,541.0,1
607,607,0.7758730033566471,0.8,0.0,0.0,277.0,585.0,0.0,1,98.0,1
608,608,-0.5497628062014195,-0.5,1.0,0.0,413.0,875.0,1.0,1,1712.0,0
609,609,0.475155144960438,0.5,0.0,0.0,420.0,960.0,1.0,0,1620.0,0
610,610,-0.8506108381124099,-0.9,0.0,1.0,356.0,702.0,1.0,0,552.0,1
611,611,-0.698691661495092,-0.7,1.0,0.0,262.0,685.0,0.0,0,143.0,1
612,612,-0.32521106413171075,-0.3,0.0,1.0,449.0,617.0,1.0,0,394.0,1
613,613,-0.4027778515101404,-0.4,0.0,1.0,327.0,660.0,0.0,1,-947.0,0
614,614,-0.5026596539729353,-0.5,0.0,1.0,404.0,817.0,1.0,0,479.0,1
615,615,0.6112533772754997,0.6,0.0,0.0,332.0,997.0,0.0,1,1671.0,1
616,616,0.23981805308867898,0.2,0.0,0.0,408.0,566.0,0.0,1,2026.0,1
617,617,-0.5600459040190404,-0.6,1.0,0.0,406.0,989.0,1.0,1,1155.0,0
618,618,0.573633181143446,0.6,1.0,1.0,447.0,745.0,1.0,1,618.0,1
619,619,0.4351824495478377,0.4,0.0,0.0,315.0,520.0,1.0,0,2165.0,0
620,620,-0.826390571539988,-0.8,1.0,0.0,419.0,723.0,0.0,0,1858.0,1
621,621,0.23172986438533838,0.2,1.0,1.0,273.0,775.0,1.0,1,-58.0,1
622,622,-0.1778629284693224,-0.2,0.0,1.0,401.0,980.0,1.0,0,229.0,1
623,623,0.746147544558644,0.7,1.0,1.0,481.0,786.0,1.0,1,803.0,1
624,624,0.40834967953125767,0.4,0.0,0.0,373.0,995.0,0.0,1,662.0,1
625,625,-0.12782506607306188,-0.1,1.0,0.0,477.0,998.0,1.0,1,265.0,0
626,626,-0.0033394292311367257,-0.0,0.0,1.0,319.0,865.0,1.0,0,1526.0,1
627,627,-0.45591964947368124,-0.5,0.0,1.0,321.0,917.0,1.0,0,92.0,1
628,628,0.633596517453561,0.6,1.0,1.0,267.0,777.0,0.0,0,-124.0,0
629,629,0.6522112200466158,0.7,0.0,0.0,466.0,501.0,0.0,1,133.0,1
630,630,0.26427913180970786,0.3,1.0,1.0,282.0,505.0,1.0,1,1213.0,1
631,631,0.15831628364682715,0.2,0.0,0.0,288.0,669.0,1.0,0,1383.0,0
632,632,0.4136294502373997,0.4,1.0,1.0,448.0,560.0,1.0,1,-48.0,1
633,633,0.7219651853380734,0.7,1.0,1.0,355.0,898.0,1.0,1,367.0,1
634,634,-0.01412859041842518,-0.0,1.0,0.0,367.0,623.0,1.0,1,150.0,0
635,635,0.6395561196753073,0.6,1.0,1.0,418.0,813.0,1.0,1,659.0,1
636,636,-0.12688073308324177,-0.1,1.0,0.0,426.0,694.0,1.0,1,1880.0,0
637,637,-0.5689206312825397,-0.6,1.0,0.0,369.0,727.0,0.0,0,-266.0,1
638,638,0.8201200062433226,0.8,0.0,0.0,299.0,637.0,0.0,1,1694.0,1
639,639,0.3606457020684738,0.4,0.0,0.0,495.0,613.0,0.0,1,-668.0,1
640,640,0.4711645649918875,0.5,0.0,0.0,422.0,654.0,1.0,0,1924.0,0
641,641,0.8658152726362959,0.9,1.0,1.0,372.0,631.0,1.0,1,57.0,1
642,642,-0.03652173170627926,-0.0,0.0,1.0,375.0,595.0,1.0,0,1940.0,1
643,643,0.06044103635387921,0.1,0.0,0.0,337.0,774.0,1.0,0,1169.0,0
644,644,0.10740773591531372,0.1,1.0,1.0,366.0,633.0,1.0,1,371.0,1
645,645,-0.8896157082551442,-0.9,0.0,1.0,287.0,858.0,1.0,0,375.0,1
646,646,-0.8182851798848755,-0.8,0.0,1.0,272.0,819.0,1.0,0,199.0,1
647,647,0.6859354661420632,0.7,0.0,0.0,478.0,716.0,0.0,1,1806.0,1
648,648,0.5175849447539665,0.5,0.0,0.0,326.0,927.0,0.0,1,727.0,1
649,649,-0.3242438183334493,-0.3,0.0,1.0,474.0,988.0,1.0,0,1288.0,1
650,650,0.6346650717244037,0.6,1.0,1.0,370.0,971.0,1.0,1,359.0,1
651,651,0.6683142560603909,0.7,1.0,1.0,479.0,950.0,1.0,1,-269.0,1
652,652,0.03161330118049843,0.0,1.0,1.0,297.0,685.0,1.0,1,2018.0,1
653,653,0.8487668042081743,0.8,0.0,0.0,273.0,974.0,1.0,0,1753.0,0
654,654,-0.8405553322055459,-0.8,1.0,0.0,258.0,629.0,0.0,0,73.0,1
655,655,-0.39263821011308764,-0.4,0.0,1.0,379.0,864.0,1.0,0,487.0,1
656,656,-0.8696683456360151,-0.9,1.0,0.0,257.0,796.0,1.0,1,1947.0,0
657,657,0.25417464008186974,0.3,1.0,1.0,304.0,949.0,1.0,1,667.0,1
658,658,0.4245397346951002,0.4,1.0,1.0,379.0,823.0,1.0,1,588.0,1
659,659,-0.6483878713274847,-0.6,0.0,1.0,310.0,671.0,1.0,0,109.0,1
660,660,-0.678658314185609,-0.7,1.0,0.0,301.0,958.0,0.0,0,-289.0,1
661,661,0.29753160353431995,0.3,1.0,1.0,482.0,969.0,1.0,1,359.0,1
662,662,-0.12185543775299801,-0.1,0.0,1.0,276.0,904.0,0.0,1,-530.0,0
663,663,0.2933665814950269,0.3,1.0,1.0,386.0,948.0,1.0,1,26.0,1
664,664,0.5068184854879255,0.5,0.0,0.0,273.0,911.0,0.0,1,1816.0,1
665,665,0.3013141341750568,0.3,1.0,1.0,455.0,890.0,1.0,1,-205.0,1
666,666,0.030524228482784577,0.0,1.0,1.0,285.0,716.0,0.0,0,349.0,0
667,667,0.342076955072503,0.3,0.0,0.0,365.0,913.0,0.0,1,-1248.0,1
668,668,-0.09709868317161185,-0.1,1.0,0.0,464.0,744.0,0.0,0,-1048.0,1
669,669,-0.45781477558352884,-0.5,0.0,1.0,415.0,909.0,1.0,0,-14.0,1
670,670,0.7295901254018645,0.7,0.0,0.0,436.0,802.0,0.0,1,1122.0,1
671,671,-0.8716203920914247,-0.9,0.0,1.0,409.0,960.0,0.0,1,-1059.0,0
672,672,0.4769395014286547,0.5,0.0,0.0,254.0,909.0,1.0,0,1837.0,0
673,673,0.8837339001612426,0.9,1.0,1.0,272.0,564.0,1.0,1,494.0,1
674,674,-0.23688149753606225,-0.2,1.0,0.0,483.0,501.0,0.0,0,796.0,1
675,675,-0.41600138590497565,-0.4,0.0,1.0,331.0,542.0,0.0,1,-313.0,0
676,676,0.2379271487507314,0.2,0.0,0.0,369.0,976.0,0.0,1,305.0,1
677,677,0.7201881204440642,0.7,1.0,1.0,393.0,856.0,1.0,1,151.0,1
678,678,-0.2854652628768167,-0.3,1.0,0.0,463.0,737.0,0.0,0,1800.0,1
679,679,0.21046869268580626,0.2,0.0,0.0,393.0,797.0,1.0,0,280.0,0
680,680,0.8478080469608139,0.8,0.0,0.0,281.0,619.0,1.0,0,1970.0,0
681,681,-0.29601074083978407,-0.3,1.0,0.0,402.0,910.0,1.0,1,1688.0,0
682,682,0.17714739368813193,0.2,1.0,1.0,315.0,604.0,1.0,1,61.0,1
683,683,-0.5595116310460089,-0.6,0.0,1.0,420.0,933.0,1.0,0,827.0,1
684,684,-0.2135801788180135,-0.2,0.0,1.0,362.0,629.0,1.0,0,1279.0,1
685,685,-0.2833580718192006,-0.3,1.0,0.0,421.0,887.0,1.0,1,-8.0,0
686,686,0.13565442146804096,0.1,1.0,1.0,454.0,905.0,1.0,1,1341.0,1
687,687,-0.1343750081638816,-0.1,0.0,1.0,499.0,762.0,1.0,0,-71.0,1
688,688,0.6970162720587506,0.7,1.0,1.0,393.0,674.0,1.0,1,263.0,1
689,689,-0.21839269325512634,-0.2,1.0,0.0,259.0,531.0,0.0,0,540.0,1
690,690,0.7110087903465748,0.7,1.0,1.0,312.0,639.0,1.0,1,319.0,1
691,691,0.4234784929495049,0.4,0.0,0.0,346.0,535.0,0.0,1,2119.0,1
692,692,0.3591005721824997,0.4,1.0,1.0,263.0,643.0,0.0,0,-866.0,0
693,693,0.30927508273596194,0.3,0.0,0.0,482.0,781.0,0.0,1,1737.0,1
694,694,0.08711025679944984,0.1,0.0,0.0,353.0,711.0,1.0,0,1936.0,0
695,695,0.2513331832247213,0.3,1.0,1.0,341.0,524.0,1.0,1,1415.0,1
696,696,0.2402811492032736,0.2,1.0,1.0,340.0,591.0,1.0,1,1709.0,1
697,697,0.22558348092633873,0.2,1.0,1.0,406.0,789.0,1.0,1,-205.0,1
698,698,0.5118389160186197,0.5,1.0,1.0,472.0,606.0,0.0,0,-918.0,0
699,699,0.6394930520617107,0.6,1.0,1.0,286.0,561.0,1.0,1,313.0,1
700,700,0.15788118722181943,0.2,1.0,1.0,380.0,817.0,1.0,1,933.0,1
701,701,0.5553526225324777,0.6,1.0,1.0,415.0,592.0,0.0,0,-307.0,0
702,702,-0.3251023727987965,-0.3,1.0,0.0,469.0,523.0,1.0,1,2008.0,0
703,703,0.5036934502469567,0.5,0.0,0.0,492.0,819.0,1.0,0,-421.0,0
704,704,0.8857733724046516,0.9,1.0,1.0,329.0,505.0,1.0,1,136.0,1
705,705,0.4696783662673155,0.5,0.0,0.0,251.0,589.0,1.0,0,-200.0,0
706,706,0.5061277695199381,0.5,1.0,1.0,369.0,628.0,0.0,0,-147.0,0
707,707,-0.23620539988782052,-0.2,0.0,1.0,278.0,785.0,1.0,0,437.0,1
708,708,-0.5706352404057646,-0.6,0.0,1.0,302.0,588.0,1.0,0,990.0,1
709,709,0.29400534000589607,0.3,1.0,1.0,324.0,968.0,1.0,1,758.0,1
710,710,0.27630364789121675,0.3,0.0,0.0,435.0,709.0,1.0,0,1486.0,0
711,711,0.7701515840639587,0.8,1.0,1.0,307.0,762.0,0.0,0,-749.0,0
712,712,-0.6672910797536755,-0.7,0.0,1.0,264.0,865.0,1.0,0,321.0,1
713,713,0.22141331442350343,0.2,1.0,1.0,294.0,851.0,1.0,1,1455.0,1
714,714,-0.19347633266932696,-0.2,0.0,1.0,416.0,880.0,0.0,1,1704.0,0
715,715,-0.5434990817501129,-0.5,1.0,0.0,360.0,767.0,0.0,0,-947.0,1
716,716,-0.452511270661601,-0.5,1.0,0.0,387.0,557.0,0.0,0,96.0,1
717,717,0.25960526929100347,0.3,0.0,0.0,467.0,792.0,0.0,1,1741.0,1
718,718,-0.30588107566838363,-0.3,0.0,1.0,404.0,566.0,1.0,0,620.0,1
719,719,-0.15310915159882477,-0.2,1.0,0.0,267.0,573.0,1.0,1,530.0,0
720,720,-0.16511048081956192,-0.2,1.0,0.0,286.0,519.0,0.0,0,-775.0,1
721,721,0.4383445655025825,0.4,0.0,0.0,455.0,990.0,0.0,1,1215.0,1
722,722,-0.4305810798602367,-0.4,0.0,1.0,274.0,567.0,1.0,0,709.0,1
723,723,0.5351138674466015,0.5,0.0,0.0,272.0,620.0,0.0,1,178.0,1
724,724,-0.5606624571515904,-0.6,1.0,0.0,460.0,798.0,1.0,1,-338.0,0
725,725,0.20277422891692798,0.2,0.0,0.0,340.0,946.0,0.0,1,1714.0,1
726,726,-0.33775234812410404,-0.3,1.0,0.0,313.0,951.0,0.0,0,1736.0,1
727,727,-0.6110452700635962,-0.6,1.0,0.0,475.0,887.0,0.0,0,1638.0,1
728,728,0.7636077585603397,0.8,1.0,1.0,468.0,838.0,0.0,0,14.0,0
729,729,-0.07422761887693297,-0.1,0.0,1.0,391.0,876.0,1.0,0,1733.0,1
730,730,0.8177497533548134,0.8,0.0,0.0,445.0,757.0,0.0,1,1328.0,1
731,731,0.5784255059232694,0.6,0.0,0.0,371.0,641.0,0.0,1,238.0,1
732,732,-0.4757403911749106,-0.5,1.0,0.0,352.0,702.0,0.0,0,1946.0,1
733,733,-0.5466302622420494,-0.5,1.0,0.0,366.0,573.0,1.0,1,2061.0,0
734,734,-0.13750087690105028,-0.1,1.0,0.0,278.0,530.0,1.0,1,722.0,0
735,735,0.20482827469926057,0.2,1.0,1.0,487.0,757.0,1.0,1,1066.0,1
736,736,-0.284579027574826,-0.3,1.0,0.0,269.0,503.0,1.0,1,1698.0,0
737,737,0.7702566354229593,0.8,1.0,1.0,260.0,552.0,0.0,0,-392.0,0
738,738,-0.8802624778698973,-0.9,1.0,0.0,309.0,979.0,0.0,0,252.0,1
739,739,0.6187070547227432,0.6,0.0,0.0,252.0,684.0,0.0,1,1284.0,1
740,740,-0.8880925006294219,-0.9,1.0,0.0,428.0,611.0,1.0,1,1961.0,0
741,741,-0.3410197103653111,-0.3,0.0,1.0,434.0,758.0,1.0,0,838.0,1
742,742,0.5208052152551096,0.5,1.0,1.0,375.0,896.0,0.0,0,-901.0,0
743,743,-0.460044780936911,-0.5,1.0,0.0,467.0,742.0,0.0,0,-59.0,1
744,744,0.11984934274607595,0.1,1.0,1.0,373.0,847.0,1.0,1,1340.0,1
745,745,-0.8888255325841578,-0.9,0.0,1.0,286.0,733.0,1.0,0,761.0,1
746,746,0.1825601166290235,0.2,1.0,1.0,423.0,562.0,1.0,1,915.0,1
747,747,0.724243317013375,0.7,0.0,0.0,285.0,694.0,0.0,1,1451.0,1
748,748,-0.8929180225731076,-0.9,0.0,1.0,293.0,506.0,1.0,0,721.0,1
749,749,-0.5156296728420107,-0.5,1.0,0.0,265.0,656.0,0.0,0,-731.0,1
750,750,0.24238289179929773,0.2,0.0,0.0,429.0,977.0,1.0,0,194.0,0
751,751,-0.7150727576961233,-0.7,0.0,1.0,455.0,627.0,1.0,0,1048.0,1
752,752,0.7482801059425307,0.7,1.0,1.0,263.0,648.0,1.0,1,279.0,1
753,753,-0.19445054222847458,-0.2,0.0,1.0,417.0,851.0,1.0,0,142.0,1
754,754,0.6088645655809356,0.6,0.0,0.0,360.0,933.0,0.0,1,667.0,1
755,755,0.7890211605339722,0.8,1.0,1.0,428.0,766.0,1.0,1,356.0,1
756,756,0.5167006917737839,0.5,1.0,1.0,346.0,687.0,1.0,1,727.0,1
757,757,0.10673258495779858,0.1,0.0,0.0,360.0,612.0,0.0,1,1688.0,1
758,758,-0.7675307697977773,-0.8,0.0,1.0,397.0,659.0,1.0,0,634.0,1
759,759,-0.08707453025360856,-0.1,0.0,1.0,386.0,908.0,1.0,0,1706.0,1
760,760,0.02664190957448964,0.0,0.0,0.0,414.0,851.0,1.0,0,995.0,0
761,761,-0.0683351753274768,-0.1,1.0,0.0,251.0,731.0,1.0,1,998.0,0
762,762,-0.15231711770871648,-0.2,1.0,0.0,307.0,563.0,0.0,0,-290.0,1
763,763,-0.6478326628868598,-0.6,0.0,1.0,348.0,523.0,1.0,0,239.0,1
764,764,0.21975596947374243,0.2,1.0,1.0,292.0,608.0,1.0,1,1310.0,1
765,765,-0.5477378128244101,-0.5,1.0,0.0,408.0,763.0,0.0,0,-1051.0,1
766,766,-0.21404444965171143,-0.2,0.0,1.0,322.0,909.0,1.0,0,1129.0,1
767,767,-0.4549308140295531,-0.5,1.0,0.0,301.0,558.0,0.0,0,921.0,1
768,768,0.8661023257589447,0.9,1.0,1.0,358.0,945.0,1.0,1,87.0,1
769,769,-0.12869276532229046,-0.1,1.0,0.0,305.0,956.0,0.0,0,-1231.0,1
770,770,0.5091665491210028,0.5,1.0,1.0,285.0,780.0,1.0,1,-215.0,1
771,771,-0.2939101726610167,-0.3,1.0,0.0,315.0,952.0,1.0,1,1733.0,0
772,772,0.5360527899325115,0.5,1.0,1.0,371.0,554.0,0.0,0,-225.0,0
773,773,0.37087221413610283,0.4,1.0,1.0,384.0,931.0,1.0,1,555.0,1
774,774,-0.5426824678500194,-0.5,0.0,1.0,303.0,800.0,1.0,0,247.0,1
775,775,-0.7743302065985691,-0.8,0.0,1.0,264.0,598.0,1.0,0,118.0,1
776,776,-0.8130742145196069,-0.8,0.0,1.0,332.0,614.0,1.0,0,184.0,1
777,777,-0.7563331090594467,-0.8,1.0,0.0,300.0,877.0,0.0,0,-387.0,1
778,778,-0.4595882372419961,-0.5,1.0,0.0,415.0,595.0,0.0,0,1990.0,1
779,779,0.09687296808909407,0.1,0.0,0.0,454.0,619.0,0.0,1,337.0,1
780,780,0.4988655142611077,0.5,1.0,1.0,343.0,557.0,1.0,1,1070.0,1
781,781,0.2033533913999429,0.2,0.0,0.0,475.0,733.0,0.0,1,1792.0,1
782,782,-0.7270430020221932,-0.7,1.0,0.0,369.0,539.0,0.0,0,2092.0,1
783,783,0.21244203053868105,0.2,1.0,1.0,409.0,549.0,1.0,1,1692.0,1
784,784,-0.20572397457734304,-0.2,0.0,1.0,439.0,866.0,0.0,1,-155.0,0
785,785,-0.3357714818869524,-0.3,0.0,1.0,310.0,749.0,1.0,0,251.0,1
786,786,-0.6198241155851545,-0.6,0.0,1.0,373.0,785.0,1.0,0,762.0,1
787,787,0.14251071478808675,0.1,0.0,0.0,429.0,914.0,1.0,0,457.0,0
788,788,-0.42736972309705645,-0.4,0.0,1.0,423.0,959.0,0.0,1,-1002.0,0
789,789,-0.6659718428051424,-0.7,1.0,0.0,295.0,965.0,0.0,0,-1070.0,1
790,790,0.1030206693503758,0.1,0.0,0.0,438.0,930.0,1.0,0,1632.0,0
791,791,-0.3955483223795171,-0.4,1.0,0.0,477.0,985.0,1.0,1,348.0,0
792,792,-0.08045713040482161,-0.1,1.0,0.0,310.0,992.0,0.0,0,1498.0,1
793,793,-0.2560490849955158,-0.3,0.0,1.0,268.0,713.0,1.0,0,649.0,1
794,794,0.4171522394937758,0.4,1.0,1.0,348.0,767.0,0.0,0,-875.0,0
795,795,0.4012120501793798,0.4,1.0,1.0,418.0,923.0,1.0,1,199.0,1
796,796,0.34079134230582364,0.3,1.0,1.0,344.0,812.0,1.0,1,564.0,1
797,797,-0.6105322108186453,-0.6,1.0,0.0,467.0,536.0,0.0,0,-823.0,1
798,798,-0.1813474214241474,-0.2,0.0,1.0,473.0,618.0,1.0,0,1909.0,1
799,799,0.5005967045457999,0.5,0.0,0.0,339.0,676.0,0.0,1,275.0,1
800,800,-0.029607624136354094,-0.0,1.0,0.0,477.0,685.0,0.0,0,-252.0,1
801,801,-0.866645576862002,-0.9,1.0,0.0,426.0,962.0,0.0,0,1612.0,1
802,802,-0.5070965302065352,-0.5,0.0,1.0,291.0,685.0,1.0,0,404.0,1
803,803,0.41503319623193125,0.4,1.0,1.0,279.0,780.0,1.0,1,-29.0,1
804,804,0.1813547146963862,0.2,0.0,0.0,460.0,680.0,0.0,1,330.0,1
805,805,-0.6856172326127263,-0.7,0.0,1.0,475.0,722.0,1.0,0,413.0,1
806,806,-0.023109411177299477,-0.0,0.0,1.0,292.0,603.0,0.0,1,-565.0,0
807,807,-0.4000236140996972,-0.4,1.0,0.0,297.0,900.0,0.0,0,1803.0,1
808,808,-0.8407085147909885,-0.8,1.0,0.0,480.0,653.0,0.0,0,-373.0,1
809,809,0.5144030547004305,0.5,0.0,0.0,425.0,897.0,0.0,1,1678.0,1
810,810,0.1628442076085156,0.2,0.0,0.0,442.0,525.0,0.0,1,-517.0,1
811,811,0.8808149935407218,0.9,1.0,1.0,369.0,800.0,1.0,1,471.0,1
812,812,-0.7968983374888273,-0.8,0.0,1.0,445.0,565.0,1.0,0,-90.0,1
813,813,-0.19380947763376488,-0.2,1.0,0.0,376.0,933.0,0.0,0,-1039.0,1
814,814,0.2723865323856308,0.3,1.0,1.0,379.0,666.0,0.0,0,-535.0,0
815,815,0.6511291843093207,0.7,1.0,1.0,483.0,649.0,1.0,1,318.0,1
816,816,0.44437236019758675,0.4,0.0,0.0,444.0,695.0,1.0,0,71.0,0
817,817,-0.5056175498087304,-0.5,1.0,0.0,439.0,889.0,0.0,0,1502.0,1
818,818,0.6745987654359261,0.7,0.0,0.0,452.0,740.0,1.0,0,1808.0,0
819,819,0.2955277941064144,0.3,1.0,1.0,442.0,777.0,1.0,1,411.0,1
820,820,0.21085562217342335,0.2,0.0,0.0,323.0,901.0,0.0,1,-944.0,1
821,821,-0.5300805289235908,-0.5,0.0,1.0,427.0,909.0,1.0,0,404.0,1
822,822,0.8339306768048534,0.8,1.0,1.0,357.0,696.0,1.0,1,-143.0,1
823,823,-0.40899172348998525,-0.4,1.0,0.0,458.0,542.0,0.0,0,1030.0,1
824,824,0.8637005149072544,0.9,0.0,0.0,477.0,935.0,0.0,1,1588.0,1
825,825,0.32538997064530484,0.3,0.0,0.0,298.0,650.0,0.0,1,12.0,1
826,826,-0.8199226019577093,-0.8,1.0,0.0,371.0,615.0,0.0,0,-856.0,1
827,827,-0.8943595700206125,-0.9,1.0,0.0,399.0,959.0,1.0,1,-108.0,0
828,828,0.43729611177604,0.4,1.0,1.0,341.0,674.0,1.0,1,415.0,1
829,829,-0.39006778776065054,-0.4,0.0,1.0,325.0,908.0,1.0,0,907.0,1
830,830,0.22656806420013165,0.2,1.0,1.0,427.0,506.0,0.0,0,-313.0,0
831,831,-0.013849337167163966,-0.0,0.0,1.0,250.0,980.0,1.0,0,1180.0,1
832,832,-0.05099931334571017,-0.1,1.0,0.0,472.0,798.0,1.0,1,1730.0,0
833,833,0.6520387852673287,0.7,0.0,0.0,467.0,508.0,1.0,0,1575.0,0
834,834,-0.4469451314884509,-0.4,1.0,0.0,279.0,777.0,0.0,0,-816.0,1
835,835,0.04197891171157364,0.0,1.0,1.0,338.0,652.0,1.0,1,250.0,1
836,836,0.4220149619840189,0.4,0.0,0.0,470.0,801.0,0.0,1,389.0,1
837,837,-0.5228236916324853,-0.5,0.0,1.0,297.0,723.0,1.0,0,660.0,1
838,838,-0.49126495434489625,-0.5,1.0,0.0,497.0,654.0,1.0,1,239.0,0
839,839,-0.24482433675857995,-0.2,1.0,0.0,390.0,815.0,0.0,0,-1075.0,1
840,840,-0.13969538137755366,-0.1,1.0,0.0,454.0,884.0,0.0,0,-448.0,1
841,841,-0.8135272838910563,-0.8,0.0,1.0,305.0,889.0,1.0,0,576.0,1
842,842,-0.20913415399508684,-0.2,0.0,1.0,312.0,648.0,0.0,1,-710.0,0
843,843,-0.5163881429080147,-0.5,1.0,0.0,328.0,992.0,0.0,0,1540.0,1
844,844,-0.5407841406775085,-0.5,1.0,0.0,492.0,923.0,1.0,1,135.0,0
845,845,-0.6075475877965779,-0.6,0.0,1.0,479.0,732.0,1.0,0,929.0,1
846,846,-0.05667865964577279,-0.1,1.0,0.0,446.0,990.0,1.0,1,494.0,0
847,847,0.03616463197098485,0.0,1.0,1.0,333.0,939.0,0.0,0,-1162.0,0
848,848,0.05846766439948292,0.1,0.0,0.0,390.0,526.0,1.0,0,324.0,0
849,849,0.4818679821696107,0.5,1.0,1.0,390.0,867.0,0.0,0,-217.0,0
850,850,-0.5997605422070125,-0.6,1.0,0.0,294.0,943.0,1.0,1,573.0,0
851,851,0.785308136215381,0.8,0.0,0.0,379.0,614.0,0.0,1,557.0,1
852,852,-0.029329030945963064,-0.0,0.0,1.0,486.0,649.0,1.0,0,245.0,1
853,853,-0.018126462606069316,-0.0,0.0,1.0,328.0,751.0,1.0,0,541.0,1
854,854,0.8755063280063183,0.9,1.0,1.0,331.0,575.0,1.0,1,14.0,1
855,855,-0.5915906872463399,-0.6,0.0,1.0,482.0,616.0,1.0,0,502.0,1
856,856,-0.05817567651208322,-0.1,0.0,1.0,421.0,624.0,1.0,0,435.0,1
857,857,0.6090210285523144,0.6,1.0,1.0,264.0,771.0,0.0,0,-865.0,0
858,858,0.09408880279328335,0.1,1.0,1.0,409.0,826.0,1.0,1,1115.0,1
859,859,0.4960469138857059,0.5,0.0,0.0,470.0,683.0,0.0,1,1237.0,1
860,860,-0.45797061756947144,-0.5,1.0,0.0,440.0,720.0,1.0,1,120.0,0
861,861,0.2979959520862122,0.3,0.0,0.0,485.0,587.0,0.0,1,558.0,1
862,862,-0.19387350261656633,-0.2,0.0,1.0,398.0,718.0,1.0,0,1014.0,1
863,863,0.11572238470405416,0.1,1.0,1.0,412.0,815.0,1.0,1,1383.0,1
864,864,-0.10345869770167171,-0.1,1.0,0.0,386.0,513.0,1.0,1,1761.0,0
865,865,0.4434475891228137,0.4,0.0,0.0,433.0,529.0,1.0,0,2038.0,0
866,866,0.7644524048432514,0.8,1.0,1.0,449.0,562.0,1.0,1,169.0,1
867,867,-0.5780477360430429,-0.6,1.0,0.0,345.0,991.0,1.0,1,1384.0,0
868,868,0.0071567326474054616,0.0,1.0,1.0,332.0,697.0,1.0,1,541.0,1
869,869,-0.868275462160925,-0.9,1.0,0.0,439.0,782.0,0.0,0,-631.0,1
870,870,0.8984963773477709,0.9,0.0,0.0,353.0,865.0,0.0,1,1352.0,1
871,871,0.455985756338933,0.5,0.0,0.0,467.0,717.0,1.0,0,-224.0,0
872,872,0.1631925357167362,0.2,1.0,1.0,282.0,528.0,0.0,0,350.0,0
873,873,-0.817546923845154,-0.8,0.0,1.0,251.0,889.0,1.0,0,720.0,1
874,874,-0.4791789495510153,-0.5,0.0,1.0,443.0,904.0,1.0,0,493.0,1
875,875,0.1527533238075648,0.2,0.0,0.0,395.0,748.0,0.0,1,517.0,1
876,876,0.6982843169172627,0.7,0.0,0.0,291.0,866.0,1.0,0,1843.0,0
877,877,-0.15817913330117117,-0.2,1.0,0.0,384.0,972.0,0.0,0,-636.0,1
878,878,0.39050877717042887,0.4,1.0,1.0,403.0,755.0,1.0,1,172.0,1
879,879,0.21872405942912898,0.2,0.0,0.0,380.0,690.0,0.0,1,-320.0,1
880,880,0.1470013581916042,0.1,0.0,0.0,425.0,578.0,1.0,0,977.0,0
881,881,0.0909505149206532,0.1,1.0,1.0,494.0,688.0,0.0,0,-1092.0,0
882,882,-0.6985884214574166,-0.7,0.0,1.0,423.0,848.0,1.0,0,-91.0,1
883,883,-0.33317724015189787,-0.3,1.0,0.0,412.0,791.0,1.0,1,1797.0,0
884,884,-0.1920186793346511,-0.2,0.0,1.0,377.0,780.0,1.0,0,123.0,1
885,885,-0.7160393481928067,-0.7,0.0,1.0,277.0,776.0,1.0,0,167.0,1
886,886,-0.3358479780497293,-0.3,0.0,1.0,435.0,821.0,1.0,0,584.0,1
887,887,-0.24979287478910128,-0.2,0.0,1.0,416.0,918.0,1.0,0,666.0,1
888,888,-0.8290965417543831,-0.8,0.0,1.0,389.0,973.0,1.0,0,198.0,1
889,889,0.4772186389165015,0.5,1.0,1.0,323.0,830.0,1.0,1,747.0,1
890,890,-0.4994936626295274,-0.5,1.0,0.0,455.0,757.0,0.0,0,28.0,1
891,891,0.3450026803774663,0.3,1.0,1.0,331.0,919.0,1.0,1,570.0,1
892,892,0.11795746257938033,0.1,0.0,0.0,287.0,730.0,0.0,1,803.0,1
893,893,-0.1480862055263984,-0.1,0.0,1.0,354.0,675.0,0.0,1,781.0,0
894,894,-0.393187371493807,-0.4,0.0,1.0,299.0,644.0,1.0,0,1217.0,1
895,895,0.5587459215135896,0.6,1.0,1.0,330.0,785.0,1.0,1,375.0,1
896,896,-0.3403221940696073,-0.3,0.0,1.0,250.0,666.0,1.0,0,254.0,1
897,897,-0.415220675488381,-0.4,1.0,0.0,495.0,557.0,1.0,1,-242.0,0
898,898,0.6538691790895163,0.7,1.0,1.0,468.0,976.0,1.0,1,686.0,1
899,899,0.5619915034520474,0.6,0.0,0.0,383.0,873.0,0.0,1,1744.0,1
900,900,-0.823032550294124,-0.8,0.0,1.0,496.0,595.0,1.0,0,349.0,1
901,901,-0.7620292159197389,-0.8,1.0,0.0,304.0,635.0,0.0,0,1551.0,1
902,902,-0.6896625052936814,-0.7,1.0,0.0,399.0,907.0,0.0,0,-516.0,1
903,903,-0.6907220885863897,-0.7,0.0,1.0,498.0,767.0,1.0,0,445.0,1
904,904,-0.729111498783841,-0.7,0.0,1.0,325.0,721.0,1.0,0,314.0,1
905,905,0.5303170635130422,0.5,1.0,1.0,282.0,500.0,1.0,1,448.0,1
906,906,-0.0493029026030144,-0.0,1.0,0.0,449.0,611.0,1.0,1,1940.0,0
907,907,-0.30968574744322397,-0.3,0.0,1.0,469.0,885.0,1.0,0,376.0,1
908,908,-0.16582110140235973,-0.2,1.0,0.0,407.0,998.0,0.0,0,-245.0,1
909,909,-0.12518212886023838,-0.1,0.0,1.0,484.0,673.0,0.0,1,-727.0,0
910,910,-0.6282782032768717,-0.6,1.0,0.0,403.0,944.0,0.0,0,-277.0,1
911,911,0.48264990023819465,0.5,0.0,0.0,495.0,891.0,0.0,1,1614.0,1
912,912,-0.41086680597842745,-0.4,1.0,0.0,480.0,670.0,0.0,0,1850.0,1
913,913,0.07965486191085269,0.1,1.0,1.0,431.0,727.0,1.0,1,522.0,1
914,914,0.5287062296406883,0.5,1.0,1.0,298.0,809.0,1.0,1,-147.0,1
915,915,-0.37262030697219317,-0.4,1.0,0.0,488.0,816.0,0.0,0,1696.0,1
916,916,-0.4609917531133913,-0.5,0.0,1.0,254.0,757.0,1.0,0,79.0,1
917,917,0.8621829348648241,0.9,0.0,0.0,434.0,962.0,1.0,0,1604.0,0
918,918,0.6581442123082512,0.7,0.0,0.0,381.0,803.0,0.0,1,496.0,1
919,919,-0.4698731165675863,-0.5,0.0,1.0,465.0,672.0,1.0,0,1293.0,1
920,920,-0.36778077534140385,-0.4,0.0,1.0,262.0,699.0,1.0,0,859.0,1
921,921,0.20270551270773474,0.2,1.0,1.0,431.0,559.0,1.0,1,1790.0,1
922,922,0.5731111710213778,0.6,0.0,0.0,488.0,753.0,0.0,1,1409.0,1
923,923,-0.44193424325264014,-0.4,0.0,1.0,443.0,695.0,1.0,0,1132.0,1
924,924,0.23770585605152494,0.2,1.0,1.0,451.0,677.0,1.0,1,1272.0,1
925,925,0.1261525162099152,0.1,1.0,1.0,420.0,966.0,1.0,1,-526.0,1
926,926,0.8832134699866939,0.9,1.0,1.0,278.0,702.0,1.0,1,250.0,1
927,927,-0.46426287777460473,-0.5,0.0,1.0,444.0,636.0,1.0,0,570.0,1
928,928,-0.8226891514458682,-0.8,1.0,0.0,431.0,939.0,1.0,1,170.0,0
929,929,-0.27700084550623316,-0.3,1.0,0.0,268.0,969.0,0.0,0,1763.0,1
930,930,0.7522904292856588,0.8,0.0,0.0,332.0,980.0,0.0,1,88.0,1
931,931,-0.5593734141928137,-0.6,0.0,1.0,373.0,977.0,0.0,1,-710.0,0
932,932,-0.5064621275134442,-0.5,1.0,0.0,460.0,531.0,0.0,0,129.0,1
933,933,-0.17096782862994275,-0.2,1.0,0.0,472.0,560.0,1.0,1,1968.0,0
934,934,-0.22291529319488512,-0.2,1.0,0.0,324.0,818.0,1.0,1,348.0,0
935,935,-0.7680745174548116,-0.8,0.0,1.0,267.0,693.0,1.0,0,150.0,1
936,936,0.3423985009716596,0.3,0.0,0.0,424.0,604.0,1.0,0,1972.0,0
937,937,-0.10015217204485982,-0.1,0.0,1.0,462.0,528.0,1.0,0,830.0,1
938,938,0.773534923161073,0.8,1.0,1.0,350.0,918.0,1.0,1,342.0,1
939,939,-0.41080007293533216,-0.4,1.0,0.0,358.0,639.0,0.0,0,1613.0,1
940,940,-0.3012331611120971,-0.3,1.0,0.0,329.0,997.0,0.0,0,-1256.0,1
941,941,-0.6950600959994643,-0.7,1.0,0.0,482.0,768.0,0.0,0,60.0,1
942,942,-0.21790555266331335,-0.2,0.0,1.0,268.0,721.0,1.0,0,1001.0,1
943,943,0.834757355432243,0.8,0.0,0.0,272.0,640.0,0.0,1,1768.0,1
944,944,-0.16904224026691372,-0.2,1.0,0.0,339.0,738.0,1.0,1,573.0,0
945,945,-0.6618268038491443,-0.7,0.0,1.0,496.0,869.0,1.0,0,505.0,1
946,946,0.40724324045874194,0.4,1.0,1.0,455.0,877.0,1.0,1,1208.0,1
947,947,-0.37221298708238904,-0.4,0.0,1.0,261.0,628.0,1.0,0,81.0,1
948,948,0.6359703826310746,0.6,0.0,0.0,416.0,534.0,0.0,1,1680.0,1
949,949,0.7212711277751235,0.7,0.0,0.0,492.0,871.0,0.0,1,1307.0,1
950,950,-0.009577732796102745,-0.0,1.0,0.0,283.0,513.0,0.0,0,-106.0,1
951,951,-0.869038150112317,-0.9,1.0,0.0,466.0,769.0,0.0,0,25.0,1
952,952,-0.3505731027221449,-0.4,1.0,0.0,301.0,557.0,0.0,0,2142.0,1
953,953,0.12809342850300098,0.1,1.0,1.0,400.0,635.0,1.0,1,1965.0,1
954,954,0.2936650509203368,0.3,1.0,1.0,278.0,629.0,0.0,0,-327.0,0
955,955,0.5057140088123878,0.5,0.0,0.0,355.0,971.0,1.0,0,-166.0,0
956,956,-0.06469104187166907,-0.1,1.0,0.0,444.0,734.0,1.0,1,1482.0,0
957,957,-0.19044272398850737,-0.2,1.0,0.0,264.0,631.0,1.0,1,1505.0,0
958,958,0.21923039053674487,0.2,1.0,1.0,254.0,549.0,0.0,0,127.0,0
959,959,0.3989295314428204,0.4,0.0,0.0,437.0,981.0,1.0,0,-48.0,0
960,960,-0.5192565492216694,-0.5,0.0,1.0,484.0,773.0,1.0,0,503.0,1
961,961,-0.6099487660418903,-0.6,1.0,0.0,380.0,623.0,1.0,1,1997.0,0
962,962,0.6100391645710711,0.6,1.0,1.0,464.0,685.0,1.0,1,691.0,1
963,963,-0.07448162739166297,-0.1,0.0,1.0,375.0,732.0,1.0,0,853.0,1
964,964,0.5623129910670485,0.6,0.0,0.0,303.0,857.0,0.0,1,1840.0,1
965,965,-0.6331433510363828,-0.6,0.0,1.0,316.0,852.0,0.0,1,-618.0,0
966,966,0.01795322071269323,0.0,1.0,1.0,280.0,897.0,1.0,1,683.0,1
967,967,0.5296697275915513,0.5,0.0,0.0,368.0,577.0,0.0,1,845.0,1
968,968,-0.8535771599624631,-0.9,1.0,0.0,266.0,520.0,0.0,0,2214.0,1
969,969,-0.4959743496679832,-0.5,1.0,0.0,254.0,570.0,0.0,0,2176.0,1
970,970,-0.016399146526015818,-0.0,0.0,1.0,286.0,614.0,1.0,0,700.0,1
971,971,0.18526681119664234,0.2,1.0,1.0,330.0,569.0,1.0,1,581.0,1
972,972,0.6396447435291549,0.6,1.0,1.0,372.0,871.0,1.0,1,497.0,1
973,973,-0.28377611579106166,-0.3,1.0,0.0,394.0,676.0,0.0,0,-740.0,1
974,974,-0.2001119707936181,-0.2,0.0,1.0,255.0,596.0,1.0,0,789.0,1
975,975,-0.6371884264370491,-0.6,1.0,0.0,466.0,983.0,0.0,0,1551.0,1
976,976,0.3582375321150054,0.4,0.0,0.0,300.0,731.0,1.0,0,629.0,0
977,977,0.5688629247574336,0.6,0.0,0.0,354.0,741.0,0.0,1,1905.0,1
978,978,-0.7969446798885005,-0.8,0.0,1.0,438.0,961.0,1.0,0,441.0,1
979,979,-0.10825999865719416,-0.1,1.0,0.0,258.0,956.0,0.0,0,-514.0,1
980,980,-0.19450380774119957,-0.2,1.0,0.0,444.0,856.0,1.0,1,630.0,0
981,981,0.09742181908434489,0.1,0.0,0.0,250.0,760.0,0.0,1,700.0,1
982,982,-0.5820052549234469,-0.6,0.0,1.0,458.0,781.0,1.0,0,381.0,1
983,983,0.3542965060922988,0.4,0.0,0.0,389.0,761.0,0.0,1,1200.0,1
984,984,0.551647976614675,0.6,0.0,0.0,446.0,640.0,0.0,1,1804.0,1
985,985,-0.5189906467154184,-0.5,1.0,0.0,455.0,827.0,1.0,1,1718.0,0
986,986,-0.6995680131210201,-0.7,1.0,0.0,428.0,741.0,0.0,0,1831.0,1
987,987,0.6952207913831717,0.7,0.0,0.0,282.0,853.0,0.0,1,1865.0,1
988,988,-0.6904063922066752,-0.7,0.0,1.0,406.0,900.0,1.0,0,324.0,1
989,989,0.09764294526262352,0.1,1.0,1.0,464.0,524.0,1.0,1,542.0,1
990,990,0.5112518715490245,0.5,1.0,1.0,459.0,946.0,1.0,1,405.0,1
991,991,-0.029598714198625142,-0.0,0.0,1.0,345.0,852.0,1.0,0,1413.0,1
992,992,-0.11523414590405756,-0.1,1.0,0.0,262.0,867.0,0.0,0,-699.0,1
993,993,-0.6002059428610174,-0.6,1.0,0.0,324.0,688.0,0.0,0,1988.0,1
994,994,-0.17509303773598994,-0.2,0.0,1.0,291.0,915.0,1.0,0,1374.0,1
995,995,0.8424800952281354,0.8,1.0,1.0,294.0,925.0,1.0,1,651.0,1
996,996,0.38244383175188934,0.4,1.0,1.0,464.0,912.0,1.0,1,474.0,1
997,997,0.8622609968707525,0.9,1.0,1.0,344.0,830.0,1.0,1,356.0,1
998,998,0.3028775473836983,0.3,1.0,1.0,336.0,531.0,0.0,0,453.0,0
999,999,0.11805335655564131,0.1,1.0,1.0,423.0,872.0,1.0,1,1215.0,1
1000,1000,0.5205669512744532,0.5,1.0,1.0,342.0,729.0,0.0,0,-751.0,0
1001,1001,-0.32438404655413233,-0.3,1.0,0.0,314.0,526.0,0.0,0,2160.0,1
1002,1002,0.2813355335299351,0.3,1.0,1.0,493.0,959.0,1.0,1,-752.0,1
1003,1003,-0.5283167340778584,-0.5,0.0,1.0,321.0,817.0,1.0,0,862.0,1
1004,1004,-0.3112060172530837,-0.3,1.0,0.0,303.0,500.0,0.0,0,-573.0,1
1005,1005,0.26347512211366275,0.3,1.0,1.0,279.0,715.0,1.0,1,1886.0,1
1006,1006,-0.5078935463588875,-0.5,1.0,0.0,366.0,970.0,0.0,0,-876.0,1
1007,1007,-0.6156429832750399,-0.6,0.0,1.0,417.0,967.0,1.0,0,846.0,1
1008,1008,0.7863849717928538,0.8,1.0,1.0,319.0,986.0,1.0,1,35.0,1
1009,1009,0.09276672801604302,0.1,1.0,1.0,414.0,774.0,0.0,0,-348.0,0
1010,1010,0.15315268192643516,0.2,1.0,1.0,497.0,799.0,0.0,0,-1086.0,0
1011,1011,0.1657201315671678,0.2,0.0,0.0,365.0,932.0,1.0,0,513.0,0
1012,1012,0.12776723583150174,0.1,0.0,0.0,291.0,557.0,1.0,0,-148.0,0
1013,1013,-0.5798379453078162,-0.6,0.0,1.0,269.0,840.0,1.0,0,511.0,1
1014,1014,0.024816221341263045,0.0,0.0,0.0,253.0,850.0,1.0,0,1187.0,0
1015,1015,-0.20634164523793797,-0.2,1.0,0.0,365.0,586.0,1.0,1,1959.0,0
1016,1016,-0.7108330065484999,-0.7,0.0,1.0,268.0,794.0,1.0,0,448.0,1
1017,1017,-0.019881069565588882,-0.0,0.0,1.0,391.0,647.0,1.0,0,1102.0,1
1018,1018,0.1436193198656145,0.1,1.0,1.0,422.0,550.0,1.0,1,708.0,1
1019,1019,-0.27059481144504904,-0.3,1.0,0.0,355.0,670.0,1.0,1,1975.0,0
1020,1020,-0.41210516226140165,-0.4,0.0,1.0,461.0,692.0,1.0,0,397.0,1
1021,1021,0.4786853374147001,0.5,0.0,0.0,344.0,863.0,1.0,0,33.0,0
1022,1022,-0.21131272501886944,-0.2,0.0,1.0,414.0,777.0,1.0,0,1809.0,1
1023,1023,0.39682577442143263,0.4,1.0,1.0,366.0,728.0,1.0,1,-214.0,1
1024,1024,-0.6249515059213238,-0.6,0.0,1.0,339.0,767.0,1.0,0,344.0,1
1025,1025,0.17864592116775413,0.2,0.0,0.0,291.0,997.0,0.0,1,-1118.0,1
1026,1026,-0.5904347124879303,-0.6,1.0,0.0,361.0,959.0,0.0,0,320.0,1
1027,1027,-0.37960076417949573,-0.4,0.0,1.0,291.0,857.0,0.0,1,-78.0,0
1028,1028,0.290676569307582,0.3,0.0,0.0,401.0,920.0,1.0,0,309.0,0
1029,1029,-0.28933121816718566,-0.3,1.0,0.0,380.0,685.0,0.0,0,1935.0,1
1030,1030,0.6533460689359215,0.7,0.0,0.0,256.0,733.0,1.0,0,2011.0,0
1031,1031,0.3744490457460058,0.4,1.0,1.0,332.0,934.0,1.0,1,344.0,1
1032,1032,0.6972256091060577,0.7,1.0,1.0,329.0,734.0,1.0,1,377.0,1
1033,1033,-0.5629984536104681,-0.6,1.0,0.0,391.0,752.0,0.0,0,1857.0,1
1034,1034,-0.5385720013849735,-0.5,0.0,1.0,370.0,631.0,1.0,0,369.0,1
1035,1035,-0.07389412911681592,-0.1,1.0,0.0,495.0,688.0,0.0,0,1067.0,1
1036,1036,0.8947505283558684,0.9,0.0,0.0,297.0,845.0,0.0,1,1368.0,1
1037,1037,0.8070558227128085,0.8,1.0,1.0,490.0,643.0,1.0,1,517.0,1
1038,1038,0.1037057338029933,0.1,1.0,1.0,466.0,532.0,1.0,1,2002.0,1
1039,1039,-0.01670650917817751,-0.0,1.0,0.0,440.0,938.0,1.0,1,1532.0,0
1040,1040,0.6715392590836605,0.7,0.0,0.0,351.0,524.0,0.0,1,2125.0,1
1041,1041,0.5522198239100106,0.6,0.0,0.0,317.0,790.0,1.0,0,1893.0,0
1042,1042,-0.36689565671406366,-0.4,0.0,1.0,266.0,897.0,1.0,0,567.0,1
1043,1043,-0.4000504020833695,-0.4,0.0,1.0,260.0,889.0,0.0,1,-569.0,0
1044,1044,-0.2447715600128907,-0.2,0.0,1.0,305.0,750.0,1.0,0,215.0,1
1045,1045,-0.7898344149391567,-0.8,0.0,1.0,286.0,825.0,1.0,0,179.0,1
1046,1046,-0.6612811392660766,-0.7,1.0,0.0,443.0,979.0,1.0,1,-72.0,0
1047,1047,-0.30720030988773284,-0.3,0.0,1.0,268.0,792.0,1.0,0,790.0,1
1048,1048,-0.38893490405025866,-0.4,0.0,1.0,267.0,548.0,0.0,1,2185.0,0
1049,1049,-0.4265954210097842,-0.4,0.0,1.0,468.0,609.0,1.0,0,1013.0,1
1050,1050,0.8090194934027303,0.8,1.0,1.0,455.0,944.0,1.0,1,481.0,1
1051,1051,-0.4142629917780927,-0.4,0.0,1.0,486.0,880.0,0.0,1,-1146.0,0
1052,1052,-0.20927784316167342,-0.2,0.0,1.0,308.0,850.0,1.0,0,242.0,1
1053,1053,-0.026493027459319696,-0.0,0.0,1.0,304.0,684.0,1.0,0,2012.0,1
1054,1054,-0.7405506312743222,-0.7,0.0,1.0,287.0,832.0,1.0,0,271.0,1
1055,1055,-0.47042052113928723,-0.5,1.0,0.0,331.0,888.0,0.0,0,1781.0,1
1056,1056,0.37439959978158666,0.4,1.0,1.0,377.0,834.0,1.0,1,499.0,1
1057,1057,0.031199708527065773,0.0,1.0,1.0,262.0,504.0,1.0,1,1364.0,1
1058,1058,0.5823929495315493,0.6,0.0,0.0,284.0,829.0,0.0,1,-43.0,1
1059,1059,0.5351303100052064,0.5,0.0,0.0,411.0,918.0,1.0,0,1671.0,0
1060,1060,0.8761804949310273,0.9,0.0,0.0,421.0,669.0,0.0,1,1370.0,1
1061,1061,-0.3481353168360355,-0.3,1.0,0.0,311.0,512.0,0.0,0,2177.0,1
1062,1062,-0.49646266242379666,-0.5,0.0,1.0,396.0,769.0,1.0,0,335.0,1
1063,1063,-0.6499317143723728,-0.6,1.0,0.0,429.0,503.0,1.0,1,-142.0,0
1064,1064,-0.8892826199828664,-0.9,1.0,0.0,456.0,931.0,0.0,0,273.0,1
1065,1065,-0.7230632103798275,-0.7,1.0,0.0,335.0,915.0,0.0,0,280.0,1
1066,1066,0.7015747516547753,0.7,0.0,0.0,464.0,936.0,0.0,1,-1110.0,1
1067,1067,-0.18060520609575814,-0.2,1.0,0.0,391.0,808.0,1.0,1,1801.0,0
1068,1068,-0.4797645687226821,-0.5,1.0,0.0,281.0,811.0,0.0,0,1908.0,1
1069,1069,-0.11827529693248162,-0.1,1.0,0.0,296.0,606.0,0.0,0,1518.0,1
1070,1070,0.7684066711862406,0.8,1.0,1.0,411.0,829.0,1.0,1,630.0,1
1071,1071,-0.5045839097779921,-0.5,0.0,1.0,481.0,634.0,1.0,0,935.0,1
1072,1072,-0.6166941209930328,-0.6,0.0,1.0,340.0,923.0,1.0,0,727.0,1
1073,1073,-0.17531385432768443,-0.2,1.0,0.0,401.0,709.0,0.0,0,-950.0,1
1074,1074,-0.019661827724009595,-0.0,1.0,0.0,441.0,709.0,1.0,1,-30.0,0
1075,1075,0.2652816963834296,0.3,1.0,1.0,287.0,872.0,0.0,0,-339.0,0
1076,1076,-0.5353061325314183,-0.5,0.0,1.0,277.0,960.0,1.0,0,603.0,1
1077,1077,-0.09429250004052225,-0.1,1.0,0.0,379.0,694.0,1.0,1,-43.0,0
1078,1078,0.8343804972871597,0.8,1.0,1.0,282.0,721.0,1.0,1,787.0,1
1079,1079,0.401266840026384,0.4,0.0,0.0,350.0,908.0,0.0,1,1742.0,1
1080,1080,0.3330401958674455,0.3,1.0,1.0,408.0,741.0,1.0,1,-439.0,1
1081,1081,0.5765787666608716,0.6,0.0,0.0,268.0,521.0,0.0,1,1181.0,1
1082,1082,0.542189298835344,0.5,0.0,0.0,261.0,514.0,0.0,1,2225.0,1
1083,1083,-0.4124293221165699,-0.4,1.0,0.0,325.0,736.0,0.0,0,-311.0,1
1084,1084,0.8935389677015123,0.9,0.0,0.0,310.0,549.0,1.0,0,2141.0,0
1085,1085,0.8081162417397935,0.8,0.0,0.0,372.0,720.0,0.0,1,468.0,1
1086,1086,-0.6138376696342871,-0.6,1.0,0.0,269.0,951.0,0.0,0,-430.0,1
1087,1087,0.11047985327811383,0.1,1.0,1.0,468.0,726.0,1.0,1,-164.0,1
1088,1088,-0.05608992129689616,-0.1,0.0,1.0,301.0,938.0,0.0,1,-1179.0,0
1089,1089,0.7898959239178777,0.8,1.0,1.0,382.0,762.0,1.0,1,146.0,1
1090,1090,0.110349736118453,0.1,1.0,1.0,483.0,826.0,1.0,1,1691.0,1
1091,1091,-0.04198225123518895,-0.0,0.0,1.0,272.0,895.0,0.0,1,-757.0,0
1092,1092,0.03867913554039748,0.0,1.0,1.0,283.0,924.0,1.0,1,1663.0,1
1093,1093,-0.4322693442360876,-0.4,1.0,0.0,407.0,961.0,1.0,1,-368.0,0
1094,1094,-0.052118833126573394,-0.1,0.0,1.0,312.0,812.0,1.0,0,1786.0,1
1095,1095,0.7995742116288306,0.8,1.0,1.0,389.0,628.0,1.0,1,383.0,1
1096,1096,0.586548150373898,0.6,0.0,0.0,300.0,983.0,0.0,1,1717.0,1
1097,1097,0.45132935595914436,0.5,0.0,0.0,480.0,906.0,1.0,0,1614.0,0
1098,1098,-0.46076076143032835,-0.5,1.0,0.0,473.0,528.0,1.0,1,1999.0,0
1099,1099,-0.7814768785171602,-0.8,0.0,1.0,318.0,825.0,1.0,0,347.0,1
1100,1100,0.029405284044632052,0.0,1.0,1.0,273.0,803.0,1.0,1,594.0,1
1101,1101,-0.24920083810445215,-0.2,1.0,0.0,398.0,689.0,1.0,1,1533.0,0
1102,1102,0.840472502852209,0.8,0.0,0.0,332.0,961.0,0.0,1,1707.0,1
1103,1103,-0.7355279059496498,-0.7,1.0,0.0,393.0,686.0,0.0,0,1921.0,1
1104,1104,-0.5304873664555508,-0.5,0.0,1.0,416.0,665.0,1.0,0,879.0,1
1105,1105,0.04258256270710914,0.0,1.0,1.0,484.0,564.0,1.0,1,942.0,1
1106,1106,-0.10470038300031848,-0.1,0.0,1.0,336.0,763.0,1.0,0,1901.0,1
1107,1107,0.41835770761764823,0.4,0.0,0.0,415.0,836.0,0.0,1,-501.0,1
1108,1108,0.8518406608633892,0.9,1.0,1.0,326.0,659.0,1.0,1,375.0,1
1109,1109,0.029552629187345802,0.0,1.0,1.0,274.0,865.0,0.0,0,-859.0,0
1110,1110,0.09569263954071261,0.1,0.0,0.0,426.0,577.0,1.0,0,1787.0,0
1111,1111,0.042575667396934413,0.0,0.0,0.0,396.0,940.0,0.0,1,-1206.0,1
1112,1112,0.28783251366111695,0.3,1.0,1.0,420.0,906.0,1.0,1,474.0,1
1113,1113,-0.07426358049657988,-0.1,1.0,0.0,454.0,632.0,1.0,1,1914.0,0
1114,1114,0.4873305697941114,0.5,1.0,1.0,376.0,823.0,0.0,0,-839.0,0
1115,1115,-0.8961411247622323,-0.9,1.0,0.0,286.0,718.0,0.0,0,-424.0,1
1116,1116,0.03043679326466575,0.0,1.0,1.0,396.0,513.0,1.0,1,791.0,1
1117,1117,-0.77163214836818,-0.8,1.0,0.0,477.0,511.0,0.0,0,2012.0,1
1118,1118,0.7038169818388239,0.7,0.0,0.0,460.0,873.0,0.0,1,-663.0,1
1119,1119,-0.6947276305580831,-0.7,0.0,1.0,335.0,795.0,1.0,0,220.0,1
1120,1120,-0.09023534773032194,-0.1,0.0,1.0,292.0,926.0,1.0,0,32.0,1
1121,1121,0.004818394546771021,0.0,1.0,1.0,429.0,986.0,1.0,1,-515.0,1
1122,1122,0.29548046333242184,0.3,0.0,0.0,412.0,689.0,0.0,1,1899.0,1
1123,1123,-0.15389513124396492,-0.2,0.0,1.0,466.0,536.0,1.0,0,498.0,1
1124,1124,0.3420424128931844,0.3,1.0,1.0,453.0,524.0,1.0,1,723.0,1
1125,1125,0.5542814384047988,0.6,0.0,0.0,300.0,967.0,1.0,0,-87.0,0
1126,1126,-0.7814990430111685,-0.8,0.0,1.0,302.0,969.0,1.0,0,529.0,1
1127,1127,-0.7308668846503611,-0.7,0.0,1.0,269.0,965.0,1.0,0,456.0,1
1128,1128,0.6276122690855644,0.6,1.0,1.0,391.0,806.0,1.0,1,813.0,1
1129,1129,-0.6671338713350873,-0.7,0.0,1.0,387.0,849.0,1.0,0,224.0,1
1130,1130,-0.24568709920113674,-0.2,1.0,0.0,412.0,778.0,1.0,1,560.0,0
1131,1131,0.351065180053277,0.4,0.0,0.0,324.0,729.0,1.0,0,1947.0,0
1132,1132,0.6552430155364005,0.7,1.0,1.0,494.0,593.0,1.0,1,143.0,1
1133,1133,-0.4917052328832605,-0.5,0.0,1.0,345.0,536.0,0.0,1,-621.0,0
1134,1134,0.6308041778386403,0.6,0.0,0.0,418.0,943.0,0.0,1,1639.0,1
1135,1135,-0.18105012569239776,-0.2,0.0,1.0,314.0,764.0,1.0,0,882.0,1
1136,1136,0.5861742201742951,0.6,0.0,0.0,273.0,532.0,0.0,1,375.0,1
1137,1137,-0.4124928509045403,-0.4,1.0,0.0,254.0,688.0,0.0,0,478.0,1
1138,1138,0.8025755891962484,0.8,1.0,1.0,364.0,573.0,1.0,1,443.0,1
1139,1139,-0.3412576317713968,-0.3,1.0,0.0,419.0,592.0,0.0,0,1989.0,1
1140,1140,0.5358302815479695,0.5,1.0,1.0,384.0,600.0,1.0,1,686.0,1
1141,1141,-0.5289977335820415,-0.5,0.0,1.0,323.0,965.0,1.0,0,152.0,1
1142,1142,-0.3230517664274104,-0.3,1.0,0.0,291.0,524.0,0.0,0,2005.0,1
1143,1143,0.20277629851432877,0.2,1.0,1.0,379.0,807.0,1.0,1,-406.0,1
1144,1144,0.2515726274145754,0.3,0.0,0.0,326.0,721.0,1.0,0,1953.0,0
1145,1145,0.4932360740633225,0.5,1.0,1.0,425.0,717.0,1.0,1,328.0,1
1146,1146,-0.6075397517532906,-0.6,1.0,0.0,498.0,738.0,0.0,0,-1076.0,1
1147,1147,-0.18120874961427136,-0.2,0.0,1.0,332.0,850.0,1.0,0,1118.0,1
1148,1148,0.6277613387068995,0.6,0.0,0.0,364.0,716.0,0.0,1,1290.0,1
1149,1149,-0.4233258501695097,-0.4,1.0,0.0,367.0,723.0,0.0,0,-490.0,1
1150,1150,0.01350086271439499,0.0,0.0,0.0,346.0,625.0,0.0,1,-611.0,1
1151,1151,0.6013412576685101,0.6,0.0,0.0,266.0,739.0,0.0,1,1995.0,1
1152,1152,-0.538467337246516,-0.5,1.0,0.0,493.0,813.0,1.0,1,-196.0,0
1153,1153,0.5176571505197637,0.5,0.0,0.0,285.0,934.0,1.0,0,1781.0,0
1154,1154,0.054450033531514785,0.1,1.0,1.0,264.0,929.0,1.0,1,-213.0,1
1155,1155,-0.16887495279788478,-0.2,0.0,1.0,389.0,882.0,1.0,0,1389.0,1
1156,1156,0.22876711604587163,0.2,1.0,1.0,466.0,724.0,1.0,1,1430.0,1
1157,1157,0.029288550979188255,0.0,1.0,1.0,435.0,748.0,0.0,0,-893.0,0
1158,1158,0.33797189880653533,0.3,1.0,1.0,358.0,655.0,1.0,1,777.0,1
1159,1159,0.22972901799581458,0.2,0.0,0.0,425.0,689.0,1.0,0,1886.0,0
1160,1160,-0.19462959126247648,-0.2,1.0,0.0,253.0,608.0,0.0,0,619.0,1
1161,1161,0.5031355889423826,0.5,0.0,0.0,336.0,568.0,0.0,1,1696.0,1
1162,1162,0.00935201425490817,0.0,0.0,0.0,344.0,986.0,1.0,0,1670.0,0
1163,1163,-0.7183680112763714,-0.7,1.0,0.0,259.0,910.0,0.0,0,1821.0,1
1164,1164,-0.127074779619602,-0.1,1.0,0.0,374.0,952.0,1.0,1,-246.0,0
1165,1165,-0.3905228495636197,-0.4,0.0,1.0,317.0,914.0,1.0,0,-251.0,1
1166,1166,0.6154938562155904,0.6,0.0,0.0,413.0,587.0,0.0,1,980.0,1
1167,1167,0.8717313074638243,0.9,0.0,0.0,460.0,766.0,0.0,1,-756.0,1
1168,1168,0.38588646846898966,0.4,1.0,1.0,262.0,857.0,0.0,0,-699.0,0
1169,1169,-0.40618985520550377,-0.4,1.0,0.0,418.0,638.0,0.0,0,1554.0,1
1170,1170,0.703072536235999,0.7,0.0,0.0,399.0,712.0,0.0,1,1889.0,1
1171,1171,-0.617690174357709,-0.6,0.0,1.0,382.0,878.0,1.0,0,880.0,1
1172,1172,-0.29579210118979793,-0.3,0.0,1.0,290.0,954.0,0.0,1,-1204.0,0
1173,1173,-0.11057240387882894,-0.1,1.0,0.0,361.0,720.0,0.0,0,1919.0,1
1174,1174,0.6708489843971416,0.7,0.0,0.0,287.0,945.0,0.0,1,1298.0,1
1175,1175,-0.8715605702645407,-0.9,1.0,0.0,264.0,984.0,1.0,1,-128.0,0
1176,1176,0.3415631052291107,0.3,1.0,1.0,411.0,604.0,1.0,1,615.0,1
1177,1177,0.8295427444998137,0.8,1.0,1.0,274.0,826.0,1.0,1,400.0,1
1178,1178,0.3926356292681926,0.4,1.0,1.0,455.0,955.0,1.0,1,390.0,1
1179,1179,0.23090947436597598,0.2,0.0,0.0,272.0,631.0,1.0,0,2097.0,0
1180,1180,0.14476499904269058,0.1,1.0,1.0,459.0,669.0,1.0,1,432.0,1
1181,1181,0.26881539099102925,0.3,1.0,1.0,384.0,513.0,1.0,1,853.0,1
1182,1182,0.28996427140347103,0.3,1.0,1.0,272.0,623.0,1.0,1,965.0,1
1183,1183,-0.5915605044419403,-0.6,0.0,1.0,271.0,847.0,1.0,0,-228.0,1
1184,1184,0.7409370511885248,0.7,0.0,0.0,337.0,817.0,1.0,0,1846.0,0
1185,1185,-0.038070556133340205,-0.0,0.0,1.0,402.0,984.0,0.0,1,1614.0,0
1186,1186,-0.015738147226865062,-0.0,1.0,0.0,456.0,529.0,1.0,1,265.0,0
1187,1187,-0.07985983827706677,-0.1,1.0,0.0,308.0,573.0,1.0,1,2119.0,0
1188,1188,0.736475138766571,0.7,1.0,1.0,353.0,704.0,1.0,1,153.0,1
1189,1189,-0.7891046748437355,-0.8,1.0,0.0,423.0,935.0,0.0,0,-578.0,1
1190,1190,-0.853795353504197,-0.9,1.0,0.0,272.0,919.0,0.0,0,639.0,1
1191,1191,-0.7579635779884051,-0.8,0.0,1.0,381.0,932.0,1.0,0,427.0,1
1192,1192,-0.14111392367830866,-0.1,1.0,0.0,438.0,678.0,1.0,1,444.0,0
1193,1193,-0.8749196463855916,-0.9,0.0,1.0,432.0,820.0,1.0,0,198.0,1
1194,1194,-0.3812869016461172,-0.4,0.0,1.0,416.0,799.0,0.0,1,-985.0,0
1195,1195,-0.6384163596600299,-0.6,0.0,1.0,332.0,631.0,1.0,0,577.0,1
1196,1196,-0.1562636532531969,-0.2,1.0,0.0,353.0,748.0,0.0,0,279.0,1
1197,1197,-0.7140784541760756,-0.7,0.0,1.0,397.0,977.0,1.0,0,366.0,1
1198,1198,-0.5658621961409809,-0.6,0.0,1.0,444.0,507.0,1.0,0,209.0,1
1199,1199,0.13882249600975782,0.1,0.0,0.0,336.0,599.0,1.0,0,2065.0,0
1200,1200,-0.3586752815954841,-0.4,1.0,0.0,317.0,803.0,0.0,0,1880.0,1
1201,1201,0.8618192747845622,0.9,0.0,0.0,448.0,705.0,1.0,0,77.0,0
1202,1202,-0.2877921722833017,-0.3,1.0,0.0,433.0,709.0,0.0,0,958.0,1
1203,1203,0.5737948063939003,0.6,0.0,0.0,399.0,727.0,1.0,0,84.0,0
1204,1204,0.44099913723365736,0.4,0.0,0.0,467.0,942.0,1.0,0,-29.0,0
1205,1205,-0.6816045756084524,-0.7,0.0,1.0,253.0,800.0,1.0,0,1437.0,1
1206,1206,-0.12399680642570876,-0.1,1.0,0.0,475.0,890.0,1.0,1,1635.0,0
1207,1207,0.6475253953404393,0.6,1.0,1.0,260.0,703.0,1.0,1,537.0,1
1208,1208,-0.026058491938116046,-0.0,1.0,0.0,310.0,769.0,1.0,1,1071.0,0
1209,1209,0.15739557522355752,0.2,1.0,1.0,394.0,856.0,0.0,0,-160.0,0
1210,1210,0.8703568486296936,0.9,1.0,1.0,318.0,569.0,1.0,1,183.0,1
1211,1211,-0.7942885387760021,-0.8,0.0,1.0,484.0,720.0,1.0,0,296.0,1
1212,1212,0.4003640748724723,0.4,0.0,0.0,494.0,540.0,0.0,1,1966.0,1
1213,1213,-0.4337567860492098,-0.4,1.0,0.0,330.0,570.0,1.0,1,90.0,0
1214,1214,-0.38328887046001625,-0.4,0.0,1.0,349.0,517.0,1.0,0,564.0,1
1215,1215,-0.7818708156146753,-0.8,0.0,1.0,268.0,601.0,1.0,0,541.0,1
1216,1216,-0.06996230628091216,-0.1,1.0,0.0,251.0,771.0,0.0,0,1978.0,1
1217,1217,-0.7704934756799557,-0.8,0.0,1.0,350.0,633.0,0.0,1,-923.0,0
1218,1218,-0.5259550597848764,-0.5,0.0,1.0,497.0,506.0,1.0,0,917.0,1
1219,1219,0.3627386709697765,0.4,0.0,0.0,454.0,787.0,1.0,0,1759.0,0
1220,1220,-0.06356070388258417,-0.1,0.0,1.0,306.0,818.0,1.0,0,1876.0,1
1221,1221,-0.015472570518940576,-0.0,0.0,1.0,297.0,753.0,1.0,0,900.0,1
1222,1222,-0.7059274666763375,-0.7,0.0,1.0,343.0,726.0,1.0,0,561.0,1
1223,1223,0.017215475354666943,0.0,0.0,0.0,251.0,557.0,1.0,0,1322.0,0
1224,1224,-0.660113034992546,-0.7,0.0,1.0,284.0,802.0,1.0,0,394.0,1
1225,1225,0.7837363299750028,0.8,0.0,0.0,378.0,596.0,1.0,0,2026.0,0
1226,1226,-0.8141034529461714,-0.8,0.0,1.0,481.0,987.0,0.0,1,-1408.0,0
1227,1227,0.007733734920460367,0.0,0.0,0.0,447.0,729.0,1.0,0,1824.0,0
1228,1228,-0.37294169541415345,-0.4,1.0,0.0,288.0,528.0,0.0,0,2184.0,1
1229,1229,-0.3719584103382405,-0.4,1.0,0.0,279.0,996.0,1.0,1,-165.0,0
1230,1230,-0.6406878310306943,-0.6,0.0,1.0,275.0,892.0,1.0,0,553.0,1
1231,1231,0.5174514107069578,0.5,0.0,0.0,333.0,638.0,1.0,0,149.0,0
1232,1232,-0.6833482128401235,-0.7,0.0,1.0,406.0,506.0,1.0,0,898.0,1
1233,1233,0.38087391975534,0.4,1.0,1.0,448.0,906.0,1.0,1,936.0,1
1234,1234,-0.8060320451761411,-0.8,1.0,0.0,471.0,673.0,0.0,0,-194.0,1
1235,1235,0.3985129926329244,0.4,1.0,1.0,414.0,804.0,1.0,1,302.0,1
1236,1236,-0.354932240499514,-0.4,1.0,0.0,306.0,816.0,0.0,0,1878.0,1
1237,1237,-0.28256324936004185,-0.3,0.0,1.0,438.0,856.0,0.0,1,-954.0,0
1238,1238,0.799875133423226,0.8,1.0,1.0,478.0,833.0,1.0,1,189.0,1
1239,1239,0.38191363667291733,0.4,0.0,0.0,496.0,941.0,0.0,1,13.0,1
1240,1240,0.24296640659389734,0.2,0.0,0.0,381.0,810.0,0.0,1,-881.0,1
1241,1241,-0.646561398029518,-0.6,1.0,0.0,398.0,777.0,0.0,0,1825.0,1
1242,1242,0.236204089213358,0.2,1.0,1.0,299.0,938.0,1.0,1,923.0,1
1243,1243,-0.7392099632537281,-0.7,1.0,0.0,323.0,634.0,0.0,0,383.0,1
1244,1244,-0.8573235322575876,-0.9,0.0,1.0,366.0,582.0,1.0,0,552.0,1
1245,1245,-0.33609440603341423,-0.3,1.0,0.0,316.0,884.0,0.0,0,-600.0,1
1246,1246,-0.8419078623287384,-0.8,0.0,1.0,469.0,873.0,1.0,0,568.0,1
1247,1247,-0.7093973652324226,-0.7,1.0,0.0,296.0,702.0,0.0,0,2002.0,1
1248,1248,0.5432613098697546,0.5,1.0,1.0,369.0,992.0,1.0,1,-441.0,1
1249,1249,0.23436894211353632,0.2,0.0,0.0,346.0,641.0,0.0,1,2013.0,1
1250,1250,-0.11085957591507611,-0.1,1.0,0.0,335.0,814.0,1.0,1,1391.0,0
1251,1251,0.14999307304460407,0.1,1.0,1.0,463.0,501.0,1.0,1,526.0,1
1252,1252,0.12070335740102867,0.1,0.0,0.0,298.0,887.0,1.0,0,1815.0,0
1253,1253,-0.043995303205303316,-0.0,1.0,0.0,422.0,818.0,1.0,1,1760.0,0
1254,1254,0.5688910004604874,0.6,1.0,1.0,378.0,617.0,1.0,1,285.0,1
1255,1255,0.8367362440033345,0.8,1.0,1.0,276.0,810.0,0.0,0,-956.0,0
1256,1256,0.7482591873793668,0.7,0.0,0.0,476.0,733.0,1.0,0,701.0,0
1257,1257,0.6486218664753406,0.6,1.0,1.0,464.0,995.0,1.0,1,251.0,1
1258,1258,0.6380476640941711,0.6,1.0,1.0,268.0,861.0,0.0,0,-819.0,0
1259,1259,0.3055193076510777,0.3,0.0,0.0,313.0,735.0,0.0,1,852.0,1
1260,1260,0.3079016039014605,0.3,0.0,0.0,420.0,914.0,1.0,0,346.0,0
1261,1261,0.5297235958477872,0.5,0.0,0.0,326.0,571.0,1.0,0,933.0,0
1262,1262,0.4039023494868722,0.4,0.0,0.0,423.0,782.0,0.0,1,-1185.0,1
1263,1263,0.7814192559734198,0.8,1.0,1.0,407.0,615.0,1.0,1,638.0,1
1264,1264,0.2987001235404344,0.3,0.0,0.0,337.0,983.0,1.0,0,1680.0,0
1265,1265,0.08934046589533207,0.1,1.0,1.0,382.0,527.0,1.0,1,1041.0,1
1266,1266,0.3732378850788901,0.4,0.0,0.0,461.0,897.0,0.0,1,-518.0,1
1267,1267,0.24254086730450097,0.2,1.0,1.0,360.0,985.0,0.0,0,-785.0,0
1268,1268,-0.5976263980353773,-0.6,1.0,0.0,356.0,740.0,0.0,0,924.0,1
1269,1269,0.5944007490814461,0.6,0.0,0.0,499.0,930.0,1.0,0,-119.0,0
1270,1270,-0.4044880180507117,-0.4,1.0,0.0,439.0,754.0,0.0,0,857.0,1
1271,1271,0.5974991434572067,0.6,1.0,1.0,370.0,850.0,1.0,1,30.0,1
1272,1272,-0.19005943496449917,-0.2,0.0,1.0,343.0,659.0,1.0,0,638.0,1
1273,1273,0.8553246355811669,0.9,1.0,1.0,482.0,658.0,1.0,1,460.0,1
1274,1274,-0.4258525434108862,-0.4,1.0,0.0,395.0,664.0,0.0,0,1941.0,1
1275,1275,-0.5755230001326579,-0.6,1.0,0.0,481.0,975.0,0.0,0,-316.0,1
1276,1276,-0.4985979230998638,-0.5,0.0,1.0,418.0,613.0,1.0,0,729.0,1
1277,1277,0.8473787675148442,0.8,0.0,0.0,454.0,507.0,0.0,1,639.0,1
1278,1278,0.611367320474154,0.6,0.0,0.0,498.0,635.0,0.0,1,1497.0,1
1279,1279,-0.04928946312744076,-0.0,0.0,1.0,264.0,677.0,1.0,0,1519.0,1
1280,1280,0.5439275630412218,0.5,1.0,1.0,318.0,850.0,1.0,1,482.0,1
1281,1281,0.4772441534926176,0.5,0.0,0.0,409.0,661.0,0.0,1,1930.0,1
1282,1282,-0.7399642103765895,-0.7,0.0,1.0,484.0,959.0,1.0,0,167.0,1
1283,1283,-0.09646287580424673,-0.1,0.0,1.0,273.0,635.0,1.0,0,302.0,1
1284,1284,-0.32981615186063107,-0.3,1.0,0.0,345.0,678.0,0.0,0,1657.0,1
1285,1285,0.003984450533233486,0.0,0.0,0.0,273.0,945.0,0.0,1,-288.0,1
1286,1286,0.722179788873406,0.7,1.0,1.0,452.0,942.0,1.0,1,246.0,1
1287,1287,-0.7138321530439785,-0.7,0.0,1.0,356.0,908.0,1.0,0,576.0,1
1288,1288,0.7446705631537082,0.7,1.0,1.0,256.0,647.0,1.0,1,297.0,1
1289,1289,0.2454544498461101,0.2,0.0,0.0,387.0,519.0,0.0,1,-866.0,1
1290,1290,0.14670439754236064,0.1,0.0,0.0,402.0,867.0,0.0,1,1051.0,1
1291,1291,-0.0035847267138360284,-0.0,1.0,0.0,261.0,876.0,1.0,1,383.0,0
1292,1292,0.4476963591163633,0.4,0.0,0.0,389.0,772.0,1.0,0,49.0,0
1293,1293,0.22366043498115296,0.2,0.0,0.0,255.0,646.0,1.0,0,2099.0,0
1294,1294,-0.22400233508248557,-0.2,1.0,0.0,473.0,889.0,1.0,1,-182.0,0
1295,1295,-0.5857254964916923,-0.6,0.0,1.0,290.0,897.0,1.0,0,393.0,1
1296,1296,0.756618002152058,0.8,1.0,1.0,404.0,974.0,1.0,1,572.0,1
1297,1297,-0.6570879304827354,-0.7,1.0,0.0,264.0,693.0,0.0,0,2043.0,1
1298,1298,-0.5782018223076346,-0.6,1.0,0.0,319.0,551.0,0.0,0,1150.0,1
1299,1299,0.6470844125520078,0.6,1.0,1.0,435.0,629.0,1.0,1,956.0,1
1300,1300,0.41048020075506797,0.4,1.0,1.0,409.0,677.0,0.0,0,354.0,0
1301,1301,0.6349479716521392,0.6,1.0,1.0,346.0,616.0,1.0,1,68.0,1
1302,1302,-0.3287383543901684,-0.3,0.0,1.0,300.0,578.0,0.0,1,-808.0,0
1303,1303,-0.8786685342471127,-0.9,1.0,0.0,482.0,504.0,0.0,0,84.0,1
1304,1304,0.7247905101270488,0.7,0.0,0.0,437.0,916.0,0.0,1,1647.0,1
1305,1305,-0.45848462036493226,-0.5,1.0,0.0,344.0,807.0,0.0,0,-141.0,1
1306,1306,0.1589970096199752,0.2,0.0,0.0,428.0,669.0,0.0,1,433.0,1
1307,1307,-0.7750794295254456,-0.8,0.0,1.0,301.0,742.0,1.0,0,567.0,1
1308,1308,-0.5710700882577725,-0.6,1.0,0.0,327.0,513.0,0.0,0,1640.0,1
1309,1309,0.15805691243768416,0.2,1.0,1.0,495.0,847.0,1.0,1,1658.0,1
1310,1310,0.5502945523140347,0.6,0.0,0.0,376.0,600.0,1.0,0,844.0,0
1311,1311,-0.23461396817487745,-0.2,0.0,1.0,439.0,748.0,1.0,0,1063.0,1
1312,1312,0.3327009058753304,0.3,0.0,0.0,263.0,810.0,1.0,0,97.0,0
1313,1313,0.29696568331996576,0.3,1.0,1.0,330.0,967.0,1.0,1,133.0,1
1314,1314,0.8637974530779294,0.9,0.0,0.0,270.0,840.0,1.0,0,-200.0,0
1315,1315,-0.19791675690129162,-0.2,0.0,1.0,310.0,618.0,1.0,0,792.0,1
1316,1316,-0.09306841141164535,-0.1,0.0,1.0,269.0,692.0,1.0,0,1739.0,1
1317,1317,0.8989177470474262,0.9,1.0,1.0,479.0,789.0,1.0,1,512.0,1
1318,1318,0.38226390306629165,0.4,0.0,0.0,443.0,667.0,1.0,0,1890.0,0
1319,1319,-0.014963723441095755,-0.0,1.0,0.0,446.0,576.0,0.0,0,-482.0,1
1320,1320,0.16164776052059493,0.2,1.0,1.0,474.0,890.0,1.0,1,776.0,1
1321,1321,0.09883172711714583,0.1,0.0,0.0,495.0,750.0,0.0,1,-475.0,1
1322,1322,-0.7042831432016272,-0.7,1.0,0.0,464.0,661.0,0.0,0,1675.0,1
1323,1323,0.26164292551339663,0.3,1.0,1.0,482.0,727.0,1.0,1,1351.0,1
1324,1324,-0.3383936309760235,-0.3,0.0,1.0,390.0,608.0,1.0,0,522.0,1
1325,1325,0.11177366754590523,0.1,0.0,0.0,381.0,933.0,1.0,0,1396.0,0
1326,1326,0.3644774865858985,0.4,1.0,1.0,437.0,848.0,1.0,1,365.0,1
1327,1327,0.8695895649676587,0.9,1.0,1.0,414.0,613.0,1.0,1,193.0,1
1328,1328,0.300787968635691,0.3,0.0,0.0,496.0,730.0,1.0,0,1774.0,0
1329,1329,-0.6005804674020327,-0.6,0.0,1.0,339.0,596.0,1.0,0,335.0,1
1330,1330,-0.3800297412389443,-0.4,0.0,1.0,466.0,918.0,1.0,0,1086.0,1
1331,1331,-0.3921629731600106,-0.4,0.0,1.0,350.0,802.0,1.0,0,868.0,1
1332,1332,-0.5481332461166628,-0.5,1.0,0.0,472.0,707.0,1.0,1,-99.0,0
1333,1333,-0.15732833582578531,-0.2,0.0,1.0,407.0,527.0,1.0,0,276.0,1
1334,1334,0.2224099275808643,0.2,0.0,0.0,443.0,674.0,0.0,1,1883.0,1
1335,1335,-0.21011754396365356,-0.2,0.0,1.0,496.0,776.0,0.0,1,-832.0,0
1336,1336,0.10915769941210363,0.1,1.0,1.0,301.0,936.0,1.0,1,523.0,1
1337,1337,0.5622817144709419,0.6,0.0,0.0,268.0,972.0,0.0,1,910.0,1
1338,1338,-0.2268145303333251,-0.2,0.0,1.0,397.0,924.0,1.0,0,579.0,1
1339,1339,0.33410321981854596,0.3,1.0,1.0,391.0,516.0,1.0,1,503.0,1
1340,1340,0.7031574304452234,0.7,0.0,0.0,296.0,694.0,0.0,1,2010.0,1
1341,1341,0.33783288686428337,0.3,0.0,0.0,316.0,634.0,0.0,1,40.0,1
1342,1342,-0.5897420367541875,-0.6,0.0,1.0,412.0,874.0,1.0,0,54.0,1
1343,1343,0.6498211825041192,0.6,1.0,1.0,465.0,926.0,1.0,1,129.0,1
1344,1344,-0.13986954269860807,-0.1,0.0,1.0,447.0,739.0,1.0,0,414.0,1
1345,1345,-0.6195724345174873,-0.6,1.0,0.0,403.0,796.0,0.0,0,-49.0,1
1346,1346,-0.09559650940665387,-0.1,0.0,1.0,367.0,527.0,1.0,0,2106.0,1
1347,1347,-0.17755627086574455,-0.2,1.0,0.0,422.0,637.0,1.0,1,1731.0,0
1348,1348,0.349537118545899,0.3,0.0,0.0,441.0,720.0,0.0,1,1659.0,1
1349,1349,0.0036163054171146625,0.0,1.0,1.0,287.0,500.0,1.0,1,1073.0,1
1350,1350,0.48193617147239787,0.5,1.0,1.0,278.0,683.0,1.0,1,289.0,1
1351,1351,0.5150975030648753,0.5,1.0,1.0,397.0,882.0,0.0,0,-659.0,0
1352,1352,0.11100001338173537,0.1,0.0,0.0,326.0,675.0,1.0,0,1339.0,0
1353,1353,-0.1695698669518111,-0.2,0.0,1.0,312.0,500.0,1.0,0,258.0,1
1354,1354,0.11745025710126888,0.1,1.0,1.0,305.0,930.0,1.0,1,515.0,1
1355,1355,-0.6518717605690117,-0.7,1.0,0.0,483.0,856.0,0.0,0,-869.0,1
1356,1356,-0.7917657900088433,-0.8,0.0,1.0,406.0,715.0,1.0,0,299.0,1
1357,1357,-0.588163319008518,-0.6,1.0,0.0,383.0,580.0,0.0,0,447.0,1
1358,1358,0.86227143667336,0.9,0.0,0.0,306.0,774.0,0.0,1,1120.0,1
1359,1359,-0.1027357414162482,-0.1,0.0,1.0,491.0,747.0,1.0,0,1272.0,1
1360,1360,-0.5579677482182386,-0.6,1.0,0.0,299.0,614.0,0.0,0,-323.0,1
1361,1361,-0.07335033541804747,-0.1,1.0,0.0,297.0,682.0,1.0,1,551.0,0
1362,1362,0.8538329847003258,0.9,1.0,1.0,360.0,587.0,1.0,1,-97.0,1
1363,1363,-0.608542784712303,-0.6,1.0,0.0,347.0,689.0,1.0,1,-226.0,0
1364,1364,0.4032279311455341,0.4,1.0,1.0,480.0,903.0,1.0,1,-23.0,1
1365,1365,0.8102359473493373,0.8,1.0,1.0,292.0,910.0,1.0,1,268.0,1
1366,1366,-0.8210962843229861,-0.8,1.0,0.0,491.0,613.0,0.0,0,676.0,1
1367,1367,-0.8049173948431259,-0.8,0.0,1.0,255.0,688.0,1.0,0,227.0,1
1368,1368,-0.5482227664979193,-0.5,0.0,1.0,486.0,532.0,1.0,0,762.0,1
1369,1369,-0.4101090708289997,-0.4,0.0,1.0,333.0,501.0,1.0,0,986.0,1
1370,1370,0.7309399998217704,0.7,0.0,0.0,383.0,825.0,1.0,0,-78.0,0
1371,1371,-0.48393288879028723,-0.5,1.0,0.0,255.0,832.0,0.0,0,283.0,1
1372,1372,-0.680121587286378,-0.7,1.0,0.0,380.0,756.0,0.0,0,1864.0,1
1373,1373,-0.5638696860025402,-0.6,1.0,0.0,355.0,581.0,0.0,0,2064.0,1
1374,1374,0.6174172573138405,0.6,0.0,0.0,320.0,671.0,0.0,1,479.0,1
1375,1375,0.6285957038881028,0.6,0.0,0.0,413.0,901.0,0.0,1,1686.0,1
1376,1376,-0.7843801571399552,-0.8,1.0,0.0,322.0,967.0,0.0,0,411.0,1
1377,1377,0.19596629149024036,0.2,0.0,0.0,490.0,948.0,0.0,1,-1288.0,1
1378,1378,-0.45408353208007457,-0.5,1.0,0.0,493.0,721.0,0.0,0,1786.0,1
1379,1379,0.6011739961991863,0.6,0.0,0.0,312.0,644.0,0.0,1,904.0,1
1380,1380,0.10464519273682227,0.1,1.0,1.0,378.0,712.0,0.0,0,810.0,0
1381,1381,0.6352422837806274,0.6,1.0,1.0,299.0,512.0,1.0,1,119.0,1
1382,1382,0.7965310046465593,0.8,1.0,1.0,317.0,606.0,0.0,0,-283.0,0
1383,1383,-0.2620006811542376,-0.3,1.0,0.0,491.0,661.0,0.0,0,328.0,1
1384,1384,-0.34453625640737007,-0.3,0.0,1.0,297.0,709.0,1.0,0,764.0,1
1385,1385,0.7779405120295556,0.8,0.0,0.0,354.0,884.0,0.0,1,1182.0,1
1386,1386,-0.46190097120860557,-0.5,1.0,0.0,461.0,621.0,1.0,1,1918.0,0
1387,1387,-0.04632335137871468,-0.0,0.0,1.0,268.0,752.0,1.0,0,880.0,1
1388,1388,-0.19522116127114264,-0.2,0.0,1.0,321.0,580.0,0.0,1,-151.0,0
1389,1389,-0.49699271178412535,-0.5,0.0,1.0,286.0,863.0,0.0,1,-239.0,0
1390,1390,0.4591645402885499,0.5,1.0,1.0,374.0,534.0,1.0,1,1492.0,1
1391,1391,0.40199251700600114,0.4,0.0,0.0,489.0,930.0,1.0,0,-139.0,0
1392,1392,-0.6440737787883221,-0.6,0.0,1.0,463.0,924.0,1.0,0,603.0,1
1393,1393,-0.0798600454268169,-0.1,0.0,1.0,324.0,741.0,1.0,0,135.0,1
1394,1394,0.6354046938187407,0.6,1.0,1.0,330.0,679.0,1.0,1,1031.0,1
1395,1395,0.3541180341058213,0.4,1.0,1.0,370.0,650.0,1.0,1,460.0,1
1396,1396,-0.496379756972005,-0.5,0.0,1.0,276.0,707.0,1.0,0,-413.0,1
1397,1397,-0.6708321422251925,-0.7,1.0,0.0,308.0,599.0,0.0,0,2093.0,1
1398,1398,-0.5441104401340916,-0.5,1.0,0.0,272.0,616.0,1.0,1,2112.0,0
1399,1399,-0.6695120967982034,-0.7,1.0,0.0,336.0,850.0,0.0,0,-636.0,1
1400,1400,0.2233267281748389,0.2,0.0,0.0,450.0,807.0,1.0,0,1743.0,0
1401,1401,0.795743658723253,0.8,1.0,1.0,433.0,627.0,1.0,1,600.0,1
1402,1402,-0.6013678474635915,-0.6,1.0,0.0,365.0,921.0,0.0,0,1714.0,1
1403,1403,0.26668912675025724,0.3,1.0,1.0,417.0,893.0,1.0,1,940.0,1
1404,1404,-0.04819069592544545,-0.0,1.0,0.0,297.0,658.0,1.0,1,555.0,0
1405,1405,0.11158013886548679,0.1,0.0,0.0,462.0,831.0,0.0,1,-373.0,1
1406,1406,-0.632124105820397,-0.6,1.0,0.0,362.0,530.0,0.0,0,648.0,1
1407,1407,-0.6924321716577949,-0.7,0.0,1.0,323.0,639.0,0.0,1,-152.0,0
1408,1408,0.7008471427124069,0.7,0.0,0.0,376.0,912.0,0.0,1,1152.0,1
1409,1409,-0.013280444838611571,-0.0,1.0,0.0,489.0,715.0,1.0,1,446.0,0
1410,1410,0.6970849465387617,0.7,0.0,0.0,332.0,642.0,0.0,1,686.0,1
1411,1411,0.5229824940726099,0.5,0.0,0.0,348.0,900.0,1.0,0,1752.0,0
1412,1412,-0.46753067794341796,-0.5,1.0,0.0,376.0,553.0,0.0,0,2071.0,1
1413,1413,0.8028554158000737,0.8,0.0,0.0,359.0,583.0,0.0,1,2058.0,1
1414,1414,0.17952939419509695,0.2,0.0,0.0,273.0,502.0,1.0,0,1505.0,0
1415,1415,-0.03210097647136523,-0.0,0.0,1.0,483.0,947.0,1.0,0,1210.0,1
1416,1416,0.7085336239812859,0.7,1.0,1.0,364.0,901.0,1.0,1,375.0,1
1417,1417,0.3658537638879401,0.4,0.0,0.0,367.0,808.0,0.0,1,825.0,1
1418,1418,-0.2555811495685988,-0.3,1.0,0.0,343.0,990.0,1.0,1,7.0,0
1419,1419,-0.7409630481104685,-0.7,1.0,0.0,472.0,756.0,0.0,0,1122.0,1
1420,1420,0.140577462872309,0.1,1.0,1.0,339.0,631.0,1.0,1,220.0,1
1421,1421,0.20613025297184262,0.2,0.0,0.0,438.0,720.0,0.0,1,192.0,1
1422,1422,0.7803938947883905,0.8,1.0,1.0,452.0,739.0,1.0,1,139.0,1
1423,1423,-0.04660816124673273,-0.0,0.0,1.0,356.0,969.0,1.0,0,1215.0,1
1424,1424,0.5139096617279652,0.5,1.0,1.0,338.0,936.0,1.0,1,206.0,1
1425,1425,0.514401823373447,0.5,0.0,0.0,285.0,784.0,0.0,1,-619.0,1
1426,1426,0.2294171039052203,0.2,0.0,0.0,467.0,630.0,0.0,1,1033.0,1
1427,1427,0.3069251406260233,0.3,1.0,1.0,424.0,994.0,1.0,1,112.0,1
1428,1428,-0.5408609884492652,-0.5,0.0,1.0,460.0,901.0,0.0,1,-751.0,0
1429,1429,0.060693261605075155,0.1,1.0,1.0,386.0,599.0,1.0,1,505.0,1
1430,1430,-0.8600239274082285,-0.9,0.0,1.0,359.0,898.0,0.0,1,-747.0,0
1431,1431,0.7452790223809181,0.7,0.0,0.0,406.0,577.0,0.0,1,267.0,1
1432,1432,-0.6598652691621439,-0.7,1.0,0.0,412.0,614.0,0.0,0,1404.0,1
1433,1433,-0.5534997942100925,-0.6,0.0,1.0,416.0,859.0,0.0,1,-495.0,0
1434,1434,0.4360358216717021,0.4,0.0,0.0,416.0,784.0,1.0,0,1800.0,0
1435,1435,0.2732820345677399,0.3,0.0,0.0,367.0,718.0,1.0,0,965.0,0
1436,1436,0.4108208279619291,0.4,1.0,1.0,309.0,572.0,1.0,1,649.0,1
1437,1437,0.3143495002472886,0.3,1.0,1.0,282.0,701.0,1.0,1,1317.0,1
1438,1438,-0.30035413867886285,-0.3,1.0,0.0,353.0,820.0,0.0,0,-903.0,1
1439,1439,0.46787580784294136,0.5,1.0,1.0,450.0,527.0,0.0,0,713.0,0
1440,1440,0.3115261953776084,0.3,0.0,0.0,476.0,957.0,0.0,1,1097.0,1
1441,1441,-0.38554186333150364,-0.4,1.0,0.0,364.0,920.0,0.0,0,-154.0,1
1442,1442,0.7441118591440651,0.7,0.0,0.0,256.0,562.0,0.0,1,1482.0,1
1443,1443,-0.49289077922103813,-0.5,0.0,1.0,321.0,882.0,1.0,0,-333.0,1
1444,1444,-0.11503720272268292,-0.1,0.0,1.0,344.0,835.0,1.0,0,211.0,1
1445,1445,-0.3922832613488345,-0.4,0.0,1.0,444.0,843.0,1.0,0,503.0,1
1446,1446,0.08475251064516798,0.1,1.0,1.0,315.0,740.0,1.0,1,1105.0,1
1447,1447,0.005308673771251771,0.0,1.0,1.0,490.0,807.0,1.0,1,503.0,1
1448,1448,0.189313311459833,0.2,1.0,1.0,469.0,696.0,0.0,0,-965.0,0
1449,1449,-0.2458521984112435,-0.2,1.0,0.0,454.0,577.0,0.0,0,839.0,1
1450,1450,0.8622147823341414,0.9,0.0,0.0,370.0,834.0,0.0,1,426.0,1
1451,1451,-0.5898159421499276,-0.6,0.0,1.0,418.0,788.0,0.0,1,-896.0,0
1452,1452,0.20395110983566467,0.2,0.0,0.0,460.0,893.0,1.0,0,1537.0,0
1453,1453,0.7154017746888767,0.7,0.0,0.0,299.0,936.0,1.0,0,-705.0,0
1454,1454,0.29686073930579904,0.3,0.0,0.0,443.0,755.0,0.0,1,1252.0,1
1455,1455,-0.7148153779256726,-0.7,1.0,0.0,429.0,768.0,0.0,0,-587.0,1
1456,1456,-0.0896176576621297,-0.1,0.0,1.0,344.0,781.0,1.0,0,215.0,1
1457,1457,0.24116000410569505,0.2,0.0,0.0,413.0,535.0,1.0,0,2052.0,0
1458,1458,-0.3350134592994132,-0.3,0.0,1.0,289.0,616.0,1.0,0,175.0,1
1459,1459,0.7396511774218529,0.7,0.0,0.0,425.0,670.0,0.0,1,-95.0,1
1460,1460,0.5074402910645924,0.5,0.0,0.0,372.0,551.0,0.0,1,2077.0,1
1461,1461,0.4332033880339138,0.4,1.0,1.0,420.0,767.0,1.0,1,723.0,1
1462,1462,-0.8242549840105012,-0.8,1.0,0.0,270.0,801.0,0.0,0,359.0,1
1463,1463,-0.4751754537883176,-0.5,0.0,1.0,371.0,674.0,1.0,0,785.0,1
1464,1464,-0.37337808679928597,-0.4,0.0,1.0,345.0,940.0,1.0,0,375.0,1
1465,1465,0.10270682122367447,0.1,1.0,1.0,407.0,986.0,1.0,1,967.0,1
1466,1466,-0.5410928813844709,-0.5,1.0,0.0,279.0,882.0,1.0,1,-1.0,0
1467,1467,0.456411235077011,0.5,0.0,0.0,400.0,575.0,0.0,1,1085.0,1
1468,1468,0.3848578874541243,0.4,0.0,0.0,463.0,519.0,0.0,1,-922.0,1
1469,1469,0.09200681054997173,0.1,1.0,1.0,488.0,623.0,1.0,1,879.0,1
1470,1470,0.0963579308094561,0.1,1.0,1.0,453.0,585.0,1.0,1,752.0,1
1471,1471,0.5750184863096058,0.6,1.0,1.0,311.0,519.0,0.0,0,-410.0,0
1472,1472,-0.39545965878054834,-0.4,0.0,1.0,282.0,844.0,1.0,0,374.0,1
1473,1473,-0.8881110692361984,-0.9,0.0,1.0,401.0,921.0,1.0,0,128.0,1
1474,1474,-0.005478786324719875,-0.0,1.0,0.0,250.0,893.0,1.0,1,487.0,0
1475,1475,-0.49826035423141984,-0.5,0.0,1.0,487.0,886.0,1.0,0,647.0,1
1476,1476,-0.2461550704808081,-0.2,1.0,0.0,460.0,597.0,1.0,1,-207.0,0
1477,1477,-0.4576769793532259,-0.5,0.0,1.0,355.0,891.0,1.0,0,654.0,1
1478,1478,0.8037072573772811,0.8,1.0,1.0,420.0,518.0,1.0,1,342.0,1
1479,1479,0.6637163495157169,0.7,0.0,0.0,495.0,542.0,0.0,1,-817.0,1
1480,1480,0.10004096597520051,0.1,1.0,1.0,299.0,651.0,1.0,1,970.0,1
1481,1481,0.6723185705039466,0.7,1.0,1.0,370.0,859.0,0.0,0,-509.0,0
