,trial,coherence,coherence_bin,green_side,correct_side,target_onset,checker_onset,decision,green_decision,decision_time,correct_decision
0,0,0.6455138235488808,0.6,1.0,1.0,484.0,995.0,1.0,1,1081.0,1
1,1,0.8070068723349343,0.8,1.0,1.0,499.0,731.0,1.0,1,890.0,1
2,2,0.5349609550143936,0.5,0.0,0.0,331.0,659.0,0.0,1,540.0,1
3,3,0.2902771507603116,0.3,0.0,0.0,370.0,720.0,0.0,1,1910.0,1
4,4,0.45908825998706526,0.5,1.0,1.0,285.0,945.0,1.0,1,990.0,1
5,5,0.7481786944624244,0.7,0.0,0.0,322.0,720.0,0.0,1,-202.0,1
6,6,0.22139886262728037,0.2,0.0,0.0,429.0,733.0,0.0,1,1838.0,1
7,7,-0.12643514180051885,-0.1,0.0,1.0,279.0,665.0,1.0,0,2056.0,1
8,8,0.05711143141814845,0.1,0.0,0.0,488.0,776.0,1.0,0,996.0,0
9,9,0.35214088072113603,0.4,0.0,0.0,271.0,666.0,1.0,0,-37.0,0
10,10,-0.3561952615737576,-0.4,1.0,0.0,369.0,966.0,0.0,0,1665.0,1
11,11,-0.853915220192332,-0.9,1.0,0.0,411.0,877.0,0.0,0,1522.0,1
12,12,-0.085819434971109,-0.1,0.0,1.0,391.0,797.0,0.0,1,562.0,0
13,13,-0.02250816123661925,-0.0,0.0,1.0,259.0,645.0,1.0,0,2096.0,1
14,14,0.13195130656951115,0.1,1.0,1.0,353.0,504.0,0.0,0,2143.0,0
15,15,-0.20188561130170335,-0.2,0.0,1.0,318.0,879.0,1.0,0,1713.0,1
16,16,-0.5612320450986714,-0.6,0.0,1.0,391.0,970.0,0.0,1,1639.0,0
17,17,-0.2856160209669101,-0.3,0.0,1.0,370.0,817.0,1.0,0,1813.0,1
18,18,0.6080435797885905,0.6,1.0,1.0,486.0,668.0,1.0,1,1416.0,1
19,19,-0.55565218277279,-0.6,0.0,1.0,442.0,640.0,1.0,0,1428.0,1
20,20,-0.4936273357616809,-0.5,0.0,1.0,409.0,511.0,1.0,0,260.0,1
21,21,0.41766227501527686,0.4,0.0,0.0,381.0,579.0,0.0,1,2040.0,1
22,22,0.6538800520941342,0.7,0.0,0.0,402.0,635.0,1.0,0,1963.0,0
23,23,0.16643604219800123,0.2,1.0,1.0,450.0,916.0,0.0,0,1634.0,0
24,24,-0.8431074213191656,-0.8,1.0,0.0,290.0,840.0,0.0,0,940.0,1
25,25,0.28776103562011424,0.3,1.0,1.0,395.0,721.0,1.0,1,1884.0,1
26,26,0.3010266013893089,0.3,0.0,0.0,432.0,731.0,0.0,1,1837.0,1
27,27,0.39701076793633827,0.4,0.0,0.0,363.0,551.0,0.0,1,2086.0,1
28,28,0.6820640960801035,0.7,0.0,0.0,275.0,528.0,0.0,1,2047.0,1
29,29,0.7212642364754228,0.7,1.0,1.0,418.0,624.0,1.0,1,828.0,1
30,30,0.06660029333932105,0.1,0.0,0.0,319.0,729.0,1.0,0,1952.0,0
31,31,-0.000774974006006901,-0.0,1.0,0.0,481.0,957.0,0.0,0,1562.0,1
32,32,0.5717488408314199,0.6,0.0,0.0,268.0,765.0,0.0,1,1967.0,1
33,33,-0.32454542153197474,-0.3,0.0,1.0,467.0,895.0,1.0,0,1638.0,1
34,34,-0.7021116072241895,-0.7,1.0,0.0,250.0,666.0,0.0,0,-426.0,1
35,35,0.1027890623486497,0.1,1.0,1.0,316.0,543.0,0.0,0,2141.0,0
36,36,-0.428324556501933,-0.4,1.0,0.0,288.0,708.0,0.0,0,1624.0,1
37,37,0.25356947093124227,0.3,1.0,1.0,260.0,987.0,1.0,1,1463.0,1
38,38,-0.8478528347670612,-0.8,1.0,0.0,314.0,617.0,0.0,0,2069.0,1
39,39,-0.48552094243771754,-0.5,1.0,0.0,451.0,821.0,0.0,0,1728.0,1
40,40,-0.4731777961802725,-0.5,0.0,1.0,436.0,928.0,1.0,0,666.0,1
41,41,-0.03132127936938722,-0.0,0.0,1.0,362.0,526.0,0.0,1,2112.0,0
42,42,0.8465502185552004,0.8,0.0,0.0,412.0,987.0,0.0,1,1601.0,1
43,43,0.09445368390672937,0.1,1.0,1.0,494.0,693.0,0.0,0,1813.0,0
44,44,-0.8089923239085823,-0.8,1.0,0.0,372.0,825.0,0.0,0,1803.0,1
45,45,0.2572353746995476,0.3,1.0,1.0,454.0,651.0,1.0,1,-25.0,1
46,46,0.8660006529609255,0.9,0.0,0.0,451.0,855.0,0.0,1,584.0,1
47,47,-0.10212015462773738,-0.1,0.0,1.0,259.0,656.0,0.0,1,685.0,0
48,48,-0.2589208011505467,-0.3,1.0,0.0,365.0,580.0,0.0,0,2055.0,1
49,49,0.5808024069664949,0.6,0.0,0.0,425.0,649.0,0.0,1,1926.0,1
50,50,0.6348322386377655,0.6,1.0,1.0,396.0,716.0,1.0,1,208.0,1
51,51,0.0931820087840538,0.1,0.0,0.0,329.0,903.0,0.0,1,1768.0,1
52,52,-0.6174638385595932,-0.6,1.0,0.0,405.0,969.0,0.0,0,1626.0,1
53,53,0.7620783648013364,0.8,0.0,0.0,318.0,924.0,0.0,1,1758.0,1
54,54,0.6939093081338253,0.7,1.0,1.0,433.0,513.0,1.0,1,254.0,1
55,55,0.769307564987494,0.8,1.0,1.0,266.0,519.0,1.0,1,2215.0,1
56,56,0.803885106115085,0.8,0.0,0.0,323.0,943.0,0.0,1,954.0,1
57,57,-0.3029782264304105,-0.3,0.0,1.0,282.0,589.0,1.0,0,1089.0,1
58,58,-0.5161364014039251,-0.5,0.0,1.0,394.0,634.0,0.0,1,1972.0,0
59,59,0.7897378277082739,0.8,0.0,0.0,323.0,559.0,0.0,1,2118.0,1
60,60,-0.6017671956992365,-0.6,1.0,0.0,427.0,579.0,0.0,0,1994.0,1
61,61,-0.6368252479803216,-0.6,1.0,0.0,496.0,788.0,0.0,0,1326.0,1
62,62,0.5710613132036545,0.6,0.0,0.0,461.0,887.0,0.0,1,1652.0,1
63,63,-0.5297368988031403,-0.5,0.0,1.0,366.0,970.0,0.0,1,44.0,0
64,64,-0.00887662126274702,-0.0,1.0,0.0,258.0,718.0,0.0,0,534.0,1
65,65,0.5815008585361413,0.6,0.0,0.0,479.0,507.0,1.0,0,2014.0,0
66,66,0.5318395857282131,0.5,0.0,0.0,299.0,980.0,1.0,0,1721.0,0
67,67,-0.14825189961043594,-0.1,1.0,0.0,283.0,909.0,1.0,1,-1162.0,0
68,68,0.06390967701594075,0.1,0.0,0.0,368.0,650.0,0.0,1,1982.0,1
69,69,-0.5942837097358993,-0.6,0.0,1.0,421.0,954.0,1.0,0,325.0,1
70,70,-0.7861378779047694,-0.8,1.0,0.0,393.0,679.0,0.0,0,1928.0,1
71,71,0.25216014571287426,0.3,0.0,0.0,265.0,704.0,0.0,1,241.0,1
72,72,-0.6038917754626265,-0.6,0.0,1.0,279.0,525.0,1.0,0,-604.0,1
73,73,-0.09702457043375101,-0.1,1.0,0.0,391.0,939.0,1.0,1,1670.0,0
74,74,0.20312078835206948,0.2,0.0,0.0,360.0,542.0,0.0,1,1058.0,1
75,75,-0.5347536795440211,-0.5,0.0,1.0,254.0,874.0,1.0,0,1442.0,1
76,76,0.04755814431348637,0.0,0.0,0.0,294.0,931.0,0.0,1,1775.0,1
77,77,0.5368489408574405,0.5,1.0,1.0,353.0,507.0,1.0,1,330.0,1
78,78,0.5597422444629264,0.6,0.0,0.0,312.0,832.0,0.0,1,1856.0,1
79,79,0.8313273671496612,0.8,1.0,1.0,252.0,906.0,1.0,1,1242.0,1
80,80,-0.30709031041243395,-0.3,0.0,1.0,301.0,601.0,0.0,1,2098.0,0
81,81,-0.6625404871717716,-0.7,1.0,0.0,384.0,546.0,0.0,0,200.0,1
82,82,0.20917668384300414,0.2,0.0,0.0,410.0,961.0,0.0,1,-21.0,1
83,83,-0.883084280048638,-0.9,0.0,1.0,402.0,817.0,1.0,0,691.0,1
84,84,-0.6075269199266873,-0.6,0.0,1.0,279.0,908.0,0.0,1,1813.0,0
85,85,0.4447921063200818,0.4,1.0,1.0,419.0,580.0,0.0,0,2001.0,0
86,86,0.0204530704401652,0.0,0.0,0.0,457.0,893.0,1.0,0,930.0,0
87,87,0.6496766457571342,0.6,0.0,0.0,360.0,758.0,0.0,1,1522.0,1
88,88,-0.8655197766066581,-0.9,0.0,1.0,269.0,840.0,1.0,0,351.0,1
89,89,-0.3638540279364517,-0.4,0.0,1.0,499.0,998.0,1.0,0,523.0,1
90,90,-0.20043144662098888,-0.2,1.0,0.0,347.0,947.0,0.0,0,1706.0,1
91,91,0.38439745814319204,0.4,0.0,0.0,435.0,818.0,0.0,1,1747.0,1
92,92,0.4638367448509767,0.5,0.0,0.0,404.0,502.0,0.0,1,2094.0,1
93,93,0.21037661583362388,0.2,0.0,0.0,487.0,989.0,0.0,1,1524.0,1
94,94,0.647695201005735,0.6,1.0,1.0,267.0,816.0,0.0,0,1657.0,0
95,95,-0.08049871305850187,-0.1,1.0,0.0,328.0,836.0,0.0,0,1356.0,1
96,96,0.44374010046237367,0.4,0.0,0.0,453.0,602.0,0.0,1,705.0,1
97,97,-0.2951855461733329,-0.3,0.0,1.0,276.0,733.0,0.0,1,1991.0,0
98,98,-0.39181246525300706,-0.4,1.0,0.0,372.0,519.0,0.0,0,179.0,1
99,99,0.8739843290079065,0.9,0.0,0.0,481.0,935.0,0.0,1,1104.0,1
100,100,0.22571838320465998,0.2,0.0,0.0,477.0,546.0,0.0,1,1977.0,1
101,101,0.4838074100923816,0.5,1.0,1.0,315.0,531.0,1.0,1,2154.0,1
102,102,-0.6225346463295657,-0.6,1.0,0.0,277.0,597.0,0.0,0,96.0,1
103,103,-0.8956844961118635,-0.9,1.0,0.0,314.0,916.0,1.0,1,-880.0,0
104,104,-0.7716724828233581,-0.8,0.0,1.0,411.0,670.0,1.0,0,399.0,1
105,105,0.8097078640968819,0.8,0.0,0.0,264.0,788.0,1.0,0,1948.0,0
106,106,0.6374811061286837,0.6,0.0,0.0,347.0,650.0,0.0,1,453.0,1
107,107,-0.3632019025164501,-0.4,1.0,0.0,316.0,776.0,1.0,1,1908.0,0
108,108,0.40716290004000844,0.4,1.0,1.0,493.0,997.0,1.0,1,1200.0,1
109,109,-0.0906252444497988,-0.1,0.0,1.0,477.0,786.0,0.0,1,1737.0,0
110,110,0.8440700262563202,0.8,0.0,0.0,357.0,868.0,0.0,1,195.0,1
111,111,0.5962936699077063,0.6,0.0,0.0,286.0,562.0,0.0,1,602.0,1
112,112,-0.3455162775750449,-0.3,0.0,1.0,462.0,799.0,1.0,0,1739.0,1
113,113,0.19707931090966946,0.2,1.0,1.0,474.0,708.0,1.0,1,1818.0,1
114,114,-0.2869274036882209,-0.3,1.0,0.0,364.0,603.0,0.0,0,2033.0,1
115,115,0.527325833135264,0.5,0.0,0.0,351.0,654.0,0.0,1,1995.0,1
116,116,0.40988139506943344,0.4,1.0,1.0,385.0,943.0,1.0,1,412.0,1
117,117,0.3652080907713665,0.4,1.0,1.0,406.0,787.0,0.0,0,1807.0,0
118,118,-0.8579333837722628,-0.9,1.0,0.0,315.0,953.0,0.0,0,172.0,1
119,119,-0.060457157745373746,-0.1,0.0,1.0,444.0,871.0,0.0,1,1685.0,0
120,120,0.19250540042375264,0.2,0.0,0.0,449.0,514.0,1.0,0,2037.0,0
121,121,0.45907304884563993,0.5,0.0,0.0,475.0,764.0,1.0,0,1761.0,0
122,122,-0.1594173182216344,-0.2,0.0,1.0,407.0,765.0,0.0,1,-272.0,0
123,123,-0.17963436322975823,-0.2,1.0,0.0,382.0,809.0,0.0,0,1809.0,1
124,124,-0.17555327342393234,-0.2,1.0,0.0,383.0,836.0,0.0,0,1781.0,1
125,125,0.7191949525898759,0.7,0.0,0.0,420.0,607.0,0.0,1,153.0,1
126,126,0.0886945884791217,0.1,1.0,1.0,474.0,952.0,1.0,1,1574.0,1
127,127,-0.24769236961446517,-0.2,1.0,0.0,427.0,643.0,1.0,1,1930.0,0
128,128,0.4062418797862316,0.4,1.0,1.0,409.0,511.0,1.0,1,440.0,1
129,129,0.3241299972177637,0.3,0.0,0.0,425.0,981.0,0.0,1,1594.0,1
130,130,0.10229516542065598,0.1,0.0,0.0,264.0,615.0,0.0,1,2121.0,1
131,131,0.3526698331381516,0.4,0.0,0.0,443.0,728.0,0.0,1,1829.0,1
132,132,-0.023548618166661095,-0.0,0.0,1.0,455.0,531.0,1.0,0,704.0,1
133,133,0.6969758361890278,0.7,0.0,0.0,331.0,943.0,0.0,1,1276.0,1
134,134,0.8060434695877375,0.8,1.0,1.0,307.0,969.0,1.0,1,694.0,1
135,135,-0.877737814747708,-0.9,1.0,0.0,431.0,894.0,0.0,0,1675.0,1
136,136,0.21741095376859476,0.2,0.0,0.0,322.0,695.0,0.0,1,-107.0,1
137,137,-0.863791346940845,-0.9,1.0,0.0,373.0,674.0,0.0,0,1523.0,1
138,138,0.7089359869872981,0.7,0.0,0.0,467.0,864.0,0.0,1,1669.0,1
139,139,0.012080222928351425,0.0,1.0,1.0,277.0,575.0,0.0,0,2148.0,0
140,140,0.5348613997017609,0.5,0.0,0.0,251.0,720.0,0.0,1,899.0,1
141,141,-0.32600970057267653,-0.3,1.0,0.0,312.0,985.0,1.0,1,1703.0,0
142,142,-0.7638694927832659,-0.8,1.0,0.0,407.0,889.0,0.0,0,1704.0,1
143,143,-0.7244306314148715,-0.7,0.0,1.0,380.0,698.0,1.0,0,292.0,1
144,144,0.8120099549975862,0.8,1.0,1.0,301.0,762.0,1.0,1,487.0,1
145,145,0.8055317113141972,0.8,0.0,0.0,449.0,728.0,0.0,1,1823.0,1
146,146,0.5636470113046964,0.6,0.0,0.0,282.0,579.0,0.0,1,739.0,1
147,147,-0.6356666407309308,-0.6,1.0,0.0,325.0,637.0,1.0,1,-602.0,0
148,148,-0.5047831719517526,-0.5,0.0,1.0,412.0,915.0,1.0,0,1393.0,1
149,149,0.736127108135089,0.7,0.0,0.0,250.0,711.0,0.0,1,679.0,1
150,150,0.33717171759182685,0.3,0.0,0.0,451.0,545.0,0.0,1,2004.0,1
151,151,0.2338183479680619,0.2,0.0,0.0,284.0,540.0,0.0,1,2176.0,1
152,152,-0.49944618238220556,-0.5,0.0,1.0,485.0,707.0,1.0,0,1018.0,1
153,153,0.66353115131227,0.7,1.0,1.0,445.0,611.0,1.0,1,1014.0,1
154,154,0.3410746077990051,0.3,1.0,1.0,384.0,832.0,1.0,1,1784.0,1
155,155,0.45641820450374027,0.5,1.0,1.0,381.0,735.0,1.0,1,1754.0,1
156,156,-0.010411763167781807,-0.0,1.0,0.0,299.0,823.0,0.0,0,1878.0,1
157,157,-0.5276424423954705,-0.5,1.0,0.0,461.0,974.0,0.0,0,1565.0,1
158,158,-0.4820588021670686,-0.5,0.0,1.0,346.0,647.0,1.0,0,1137.0,1
159,159,-0.21541913032966487,-0.2,0.0,1.0,457.0,545.0,0.0,1,1998.0,0
160,160,0.3329714785295116,0.3,0.0,0.0,393.0,872.0,0.0,1,805.0,1
161,161,0.08585007357378416,0.1,1.0,1.0,379.0,696.0,0.0,0,1925.0,0
162,162,0.24805549714988573,0.2,0.0,0.0,418.0,869.0,1.0,0,373.0,0
163,163,0.7047894768069441,0.7,1.0,1.0,276.0,624.0,1.0,1,1710.0,1
164,164,0.3725874219631097,0.4,0.0,0.0,262.0,908.0,0.0,1,1830.0,1
165,165,-0.6051973558309232,-0.6,1.0,0.0,432.0,795.0,0.0,0,1773.0,1
166,166,-0.34803788303764127,-0.3,1.0,0.0,320.0,826.0,0.0,0,1854.0,1
167,167,0.17989580775110847,0.2,0.0,0.0,294.0,734.0,0.0,1,1972.0,1
168,168,-0.18193670722526345,-0.2,0.0,1.0,348.0,944.0,1.0,0,1708.0,1
169,169,-0.6934198828941474,-0.7,1.0,0.0,315.0,722.0,0.0,0,893.0,1
170,170,0.32160160920503744,0.3,0.0,0.0,448.0,634.0,1.0,0,738.0,0
171,171,0.7875217214569369,0.8,1.0,1.0,348.0,942.0,1.0,1,710.0,1
172,172,0.11024408627221371,0.1,1.0,1.0,409.0,974.0,1.0,1,1617.0,1
173,173,0.7023230057111244,0.7,1.0,1.0,296.0,939.0,1.0,1,885.0,1
174,174,0.5150893303513747,0.5,0.0,0.0,339.0,600.0,0.0,1,2061.0,1
175,175,0.21468254411870868,0.2,0.0,0.0,325.0,795.0,0.0,1,1880.0,1
176,176,0.7152226056728747,0.7,1.0,1.0,302.0,921.0,0.0,0,1777.0,0
177,177,0.4207718869962568,0.4,0.0,0.0,375.0,861.0,0.0,1,564.0,1
178,178,0.046213568785247516,0.0,0.0,0.0,474.0,692.0,0.0,1,714.0,1
179,179,0.6878692420277294,0.7,1.0,1.0,402.0,584.0,1.0,1,1014.0,1
180,180,0.6455379694625273,0.6,0.0,0.0,444.0,649.0,0.0,1,1027.0,1
181,181,0.3420077261262594,0.3,1.0,1.0,299.0,888.0,1.0,1,1303.0,1
182,182,0.6103946515641184,0.6,0.0,0.0,254.0,840.0,0.0,1,-784.0,1
183,183,-0.2362595307003027,-0.2,1.0,0.0,395.0,910.0,0.0,0,1695.0,1
184,184,-0.7275130283507576,-0.7,1.0,0.0,364.0,940.0,0.0,0,1196.0,1
185,185,0.6521544741958841,0.7,0.0,0.0,435.0,930.0,0.0,1,225.0,1
186,186,-0.49398713581946246,-0.5,0.0,1.0,311.0,743.0,1.0,0,1826.0,1
187,187,-0.5769256222145804,-0.6,0.0,1.0,427.0,866.0,1.0,0,1367.0,1
188,188,-0.10713249100096112,-0.1,0.0,1.0,475.0,550.0,0.0,1,1975.0,0
189,189,0.6464973175540331,0.6,1.0,1.0,425.0,628.0,1.0,1,1127.0,1
190,190,-0.8555400285877357,-0.9,1.0,0.0,380.0,612.0,0.0,0,898.0,1
191,191,-0.4800648605474672,-0.5,0.0,1.0,381.0,976.0,1.0,0,773.0,1
192,192,-0.5561605391011601,-0.6,0.0,1.0,377.0,722.0,1.0,0,1061.0,1
193,193,0.1486689107722342,0.1,1.0,1.0,430.0,781.0,1.0,1,-211.0,1
194,194,0.047646298894687744,0.0,1.0,1.0,407.0,938.0,0.0,0,1655.0,0
195,195,0.8928973916946833,0.9,1.0,1.0,275.0,784.0,1.0,1,541.0,1
196,196,-0.4059225360236273,-0.4,0.0,1.0,450.0,863.0,1.0,0,467.0,1
197,197,-0.11729000607098228,-0.1,0.0,1.0,488.0,813.0,0.0,1,1699.0,0
198,198,0.5375688163499587,0.5,0.0,0.0,423.0,744.0,1.0,0,-317.0,0
199,199,0.4202059004759221,0.4,0.0,0.0,295.0,821.0,1.0,0,-236.0,0
200,200,-0.5724562765538812,-0.6,0.0,1.0,463.0,566.0,1.0,0,1971.0,1
201,201,-0.26356475951790637,-0.3,0.0,1.0,358.0,962.0,1.0,0,130.0,1
202,202,0.38339056411435724,0.4,1.0,1.0,337.0,976.0,1.0,1,1687.0,1
203,203,0.2423665009784951,0.2,0.0,0.0,255.0,713.0,0.0,1,2032.0,1
204,204,-0.5057001243834638,-0.5,1.0,0.0,256.0,529.0,0.0,0,2215.0,1
205,205,0.24334829177741868,0.2,0.0,0.0,374.0,896.0,0.0,1,1730.0,1
206,206,0.35102756874478647,0.4,1.0,1.0,392.0,560.0,1.0,1,2048.0,1
207,207,0.6202253434616206,0.6,0.0,0.0,458.0,975.0,1.0,0,487.0,0
208,208,0.6423741133852613,0.6,0.0,0.0,381.0,785.0,0.0,1,1834.0,1
209,209,0.6989310939050465,0.7,0.0,0.0,412.0,914.0,0.0,1,224.0,1
210,210,-0.5682627295867764,-0.6,1.0,0.0,267.0,543.0,0.0,0,2190.0,1
211,211,-0.165293956563474,-0.2,0.0,1.0,263.0,982.0,1.0,0,1755.0,1
212,212,0.378019511810718,0.4,0.0,0.0,284.0,955.0,0.0,1,1761.0,1
213,213,0.34614392629894153,0.3,1.0,1.0,359.0,600.0,0.0,0,2041.0,0
214,214,0.609296604033304,0.6,1.0,1.0,287.0,935.0,1.0,1,1598.0,1
215,215,0.4610321167272854,0.5,0.0,0.0,304.0,872.0,0.0,1,1824.0,1
216,216,-0.4072790832935418,-0.4,1.0,0.0,387.0,649.0,0.0,0,1964.0,1
217,217,0.2064316631934925,0.2,1.0,1.0,435.0,709.0,1.0,1,1856.0,1
218,218,0.1238100775480725,0.1,1.0,1.0,477.0,918.0,0.0,0,1605.0,0
219,219,-0.8184148646845868,-0.8,0.0,1.0,368.0,893.0,1.0,0,679.0,1
220,220,-0.3039116073492778,-0.3,0.0,1.0,328.0,510.0,0.0,1,472.0,0
221,221,0.7674934916605728,0.8,1.0,1.0,311.0,848.0,1.0,1,911.0,1
222,222,-0.04095314557723995,-0.0,1.0,0.0,324.0,859.0,0.0,0,1817.0,1
223,223,0.4330604389714575,0.4,1.0,1.0,483.0,787.0,0.0,0,1730.0,0
224,224,0.7110082964597056,0.7,1.0,1.0,377.0,985.0,0.0,0,1638.0,0
225,225,-0.39832409523448087,-0.4,1.0,0.0,482.0,695.0,0.0,0,1633.0,1
226,226,0.46499846647922893,0.5,1.0,1.0,278.0,661.0,1.0,1,2061.0,1
227,227,-0.12196852558568783,-0.1,0.0,1.0,423.0,758.0,0.0,1,1819.0,0
228,228,-0.5731068432787072,-0.6,0.0,1.0,324.0,879.0,0.0,1,1797.0,0
229,229,0.1455629482917603,0.1,1.0,1.0,326.0,585.0,0.0,0,2089.0,0
230,230,-0.17495637633047745,-0.2,1.0,0.0,309.0,640.0,0.0,0,2051.0,1
231,231,-0.33064719005427423,-0.3,0.0,1.0,420.0,615.0,1.0,0,975.0,1
232,232,0.30519767671327014,0.3,0.0,0.0,483.0,630.0,0.0,1,1887.0,1
233,233,0.5890664263530626,0.6,1.0,1.0,406.0,640.0,1.0,1,1954.0,1
234,234,0.00919285290538574,0.0,1.0,1.0,333.0,637.0,0.0,0,40.0,0
235,235,-0.31918963623422525,-0.3,1.0,0.0,252.0,841.0,0.0,0,1907.0,1
236,236,-0.29875393096434333,-0.3,0.0,1.0,270.0,691.0,0.0,1,2039.0,0
237,237,0.10915350586583938,0.1,1.0,1.0,444.0,785.0,1.0,1,1771.0,1
238,238,-0.41220653660302964,-0.4,0.0,1.0,390.0,885.0,1.0,0,485.0,1
239,239,0.6821728795211565,0.7,1.0,1.0,422.0,672.0,1.0,1,476.0,1
240,240,-0.1549356771100674,-0.2,1.0,0.0,276.0,583.0,0.0,0,2141.0,1
241,241,-0.28015995854759934,-0.3,1.0,0.0,395.0,954.0,0.0,0,1651.0,1
242,242,-0.29057337672789185,-0.3,0.0,1.0,398.0,518.0,1.0,0,894.0,1
243,243,0.6727522573012857,0.7,1.0,1.0,394.0,703.0,1.0,1,763.0,1
244,244,0.4807322162506936,0.5,0.0,0.0,436.0,532.0,0.0,1,2032.0,1
245,245,-0.8413744408058035,-0.8,0.0,1.0,331.0,649.0,1.0,0,820.0,1
246,246,-0.8177262141939328,-0.8,1.0,0.0,414.0,922.0,0.0,0,1354.0,1
247,247,0.8052023674620178,0.8,0.0,0.0,310.0,916.0,0.0,1,864.0,1
248,248,0.8339772444188228,0.8,0.0,0.0,283.0,657.0,0.0,1,910.0,1
249,249,0.8952028053233404,0.9,1.0,1.0,287.0,770.0,0.0,0,1943.0,0
250,250,0.6960207447185301,0.7,0.0,0.0,274.0,917.0,0.0,1,839.0,1
251,251,-0.37676547955993944,-0.4,0.0,1.0,447.0,678.0,1.0,0,325.0,1
252,252,0.7929196229894667,0.8,1.0,1.0,436.0,954.0,1.0,1,1240.0,1
253,253,0.5074741500953149,0.5,0.0,0.0,401.0,984.0,1.0,0,1615.0,0
254,254,0.777199358495473,0.8,1.0,1.0,462.0,867.0,1.0,1,861.0,1
255,255,-0.3953468059842804,-0.4,0.0,1.0,331.0,820.0,1.0,0,1539.0,1
256,256,-0.04377913661146915,-0.0,0.0,1.0,253.0,863.0,0.0,1,574.0,0
257,257,-0.7898891752502124,-0.8,1.0,0.0,397.0,569.0,0.0,0,934.0,1
258,258,-0.3069853392869385,-0.3,1.0,0.0,413.0,626.0,0.0,0,1961.0,1
259,259,-0.8431171353718039,-0.8,1.0,0.0,340.0,736.0,0.0,0,1924.0,1
260,260,-0.5685013624357544,-0.6,1.0,0.0,319.0,916.0,0.0,0,-105.0,1
261,261,0.6138514236957876,0.6,0.0,0.0,263.0,719.0,0.0,1,2018.0,1
262,262,0.7979735356337113,0.8,1.0,1.0,302.0,876.0,1.0,1,212.0,1
263,263,0.03484460209134266,0.0,0.0,0.0,306.0,998.0,0.0,1,6.0,1
264,264,0.6008229682243297,0.6,1.0,1.0,269.0,689.0,0.0,0,292.0,0
265,265,0.39643112256049384,0.4,1.0,1.0,389.0,877.0,0.0,0,-66.0,0
266,266,-0.41648431351461673,-0.4,0.0,1.0,303.0,607.0,1.0,0,1360.0,1
267,267,0.11701168201242063,0.1,0.0,0.0,354.0,989.0,1.0,0,1657.0,0
268,268,-0.8595813285985879,-0.9,0.0,1.0,418.0,583.0,1.0,0,299.0,1
269,269,0.6496677555060025,0.6,1.0,1.0,408.0,593.0,1.0,1,1529.0,1
270,270,-0.638161138343125,-0.6,1.0,0.0,427.0,736.0,0.0,0,967.0,1
271,271,-0.45595520808163,-0.5,0.0,1.0,272.0,626.0,1.0,0,892.0,1
272,272,-0.8083324518425989,-0.8,1.0,0.0,385.0,841.0,0.0,0,144.0,1
273,273,-0.05949930415047755,-0.1,1.0,0.0,445.0,680.0,1.0,1,1875.0,0
274,274,0.6380258377632081,0.6,1.0,1.0,478.0,520.0,1.0,1,432.0,1
275,275,-0.0489603560658074,-0.0,1.0,0.0,411.0,908.0,0.0,0,1681.0,1
276,276,-0.270765988333572,-0.3,0.0,1.0,250.0,560.0,1.0,0,1490.0,1
277,277,0.3129572822231427,0.3,0.0,0.0,298.0,897.0,0.0,1,1805.0,1
278,278,-0.510677074756485,-0.5,1.0,0.0,356.0,739.0,0.0,0,1705.0,1
279,279,0.2579505400781955,0.3,0.0,0.0,404.0,979.0,0.0,1,1617.0,1
280,280,-0.4664847636535659,-0.5,1.0,0.0,309.0,607.0,0.0,0,2084.0,1
281,281,-0.19619668175381677,-0.2,0.0,1.0,393.0,598.0,0.0,1,2009.0,0
282,282,-0.6520857265407559,-0.7,1.0,0.0,286.0,571.0,0.0,0,43.0,1
283,283,-0.24221971095396155,-0.2,1.0,0.0,278.0,678.0,0.0,0,2044.0,1
284,284,-0.1414806405762301,-0.1,1.0,0.0,339.0,894.0,0.0,0,1767.0,1
285,285,0.7124881629645944,0.7,0.0,0.0,418.0,702.0,0.0,1,1010.0,1
286,286,0.6349865751630576,0.6,1.0,1.0,364.0,916.0,1.0,1,1290.0,1
287,287,-0.17949993259253683,-0.2,1.0,0.0,465.0,806.0,0.0,0,219.0,1
288,288,-0.6932477092636794,-0.7,1.0,0.0,438.0,530.0,0.0,0,-388.0,1
289,289,-0.6090323507044026,-0.6,1.0,0.0,430.0,697.0,0.0,0,1873.0,1
290,290,-0.042822942192521585,-0.0,1.0,0.0,462.0,743.0,0.0,0,1795.0,1
291,291,-0.16126813321256728,-0.2,1.0,0.0,429.0,555.0,1.0,1,2016.0,0
292,292,-0.23616205283358305,-0.2,1.0,0.0,417.0,752.0,0.0,0,1831.0,1
293,293,-0.8283126510995866,-0.8,0.0,1.0,460.0,889.0,1.0,0,-419.0,1
294,294,-0.3380032043368305,-0.3,1.0,0.0,261.0,816.0,0.0,0,1923.0,1
295,295,-0.290625429219481,-0.3,0.0,1.0,312.0,635.0,0.0,1,2053.0,0
296,296,0.7061830872981189,0.7,0.0,0.0,440.0,524.0,0.0,1,2036.0,1
297,297,0.07568029167223911,0.1,1.0,1.0,408.0,980.0,1.0,1,1612.0,1
298,298,-0.5377028466139052,-0.5,1.0,0.0,481.0,892.0,0.0,0,357.0,1
299,299,-0.852849309556405,-0.9,0.0,1.0,254.0,864.0,1.0,0,652.0,1
300,300,-0.1831285942769767,-0.2,0.0,1.0,307.0,743.0,1.0,0,1950.0,1
301,301,0.17629297939913624,0.2,1.0,1.0,497.0,708.0,1.0,1,1795.0,1
302,302,0.17770309490328307,0.2,1.0,1.0,416.0,711.0,1.0,1,1733.0,1
303,303,0.6417337702114624,0.6,0.0,0.0,439.0,516.0,0.0,1,2045.0,1
304,304,-0.6869246086799169,-0.7,0.0,1.0,440.0,950.0,1.0,0,670.0,1
305,305,-0.17490181431442797,-0.2,0.0,1.0,272.0,560.0,0.0,1,2168.0,0
306,306,-0.44394449610780135,-0.4,1.0,0.0,444.0,825.0,0.0,0,1731.0,1
307,307,-0.48935647943436106,-0.5,0.0,1.0,387.0,687.0,1.0,0,166.0,1
308,308,-0.5621500276028581,-0.6,1.0,0.0,279.0,810.0,0.0,0,1541.0,1
309,309,-0.6004766181152634,-0.6,1.0,0.0,355.0,936.0,0.0,0,1709.0,1
310,310,-0.3354467479150508,-0.3,0.0,1.0,282.0,883.0,1.0,0,475.0,1
311,311,0.3110186628934867,0.3,1.0,1.0,453.0,922.0,0.0,0,1625.0,0
312,312,0.7472325155021945,0.7,0.0,0.0,398.0,658.0,0.0,1,324.0,1
313,313,-0.32017389707426247,-0.3,0.0,1.0,386.0,600.0,1.0,0,444.0,1
314,314,0.6114680263186564,0.6,0.0,0.0,466.0,596.0,0.0,1,1478.0,1
315,315,0.1588366188461282,0.2,0.0,0.0,302.0,756.0,1.0,0,1942.0,0
316,316,-0.6282479117785009,-0.6,1.0,0.0,364.0,928.0,1.0,1,-262.0,0
317,317,-0.36855572880122833,-0.4,0.0,1.0,387.0,816.0,1.0,0,387.0,1
318,318,0.4433060767955813,0.4,1.0,1.0,412.0,558.0,0.0,0,2030.0,0
319,319,-0.14259021068944655,-0.1,0.0,1.0,471.0,952.0,0.0,1,1577.0,0
320,320,0.25026099142500435,0.3,0.0,0.0,460.0,553.0,0.0,1,1987.0,1
321,321,-0.23138871142130513,-0.2,1.0,0.0,402.0,517.0,0.0,0,2081.0,1
322,322,0.07010180080992634,0.1,1.0,1.0,370.0,829.0,0.0,0,1801.0,0
323,323,-0.7948678557950197,-0.8,0.0,1.0,488.0,796.0,1.0,0,746.0,1
324,324,0.22348974057596538,0.2,1.0,1.0,472.0,818.0,0.0,0,1710.0,0
325,325,-0.48028089674918806,-0.5,1.0,0.0,383.0,573.0,0.0,0,2044.0,1
326,326,0.802446465650913,0.8,0.0,0.0,449.0,985.0,0.0,1,296.0,1
327,327,-0.606859236696285,-0.6,1.0,0.0,370.0,514.0,0.0,0,2116.0,1
328,328,0.4534155895821822,0.5,1.0,1.0,258.0,517.0,1.0,1,985.0,1
329,329,-0.8203061122656283,-0.8,1.0,0.0,335.0,621.0,0.0,0,304.0,1
330,330,0.2234891858909892,0.2,1.0,1.0,393.0,791.0,1.0,1,1816.0,1
331,331,0.22650446317332096,0.2,1.0,1.0,441.0,751.0,0.0,0,1808.0,0
332,332,-0.6253807294300044,-0.6,0.0,1.0,498.0,619.0,0.0,1,-297.0,0
333,333,0.8678857309548608,0.9,0.0,0.0,475.0,904.0,1.0,0,-679.0,0
334,334,-0.18252120655448645,-0.2,0.0,1.0,448.0,897.0,1.0,0,265.0,1
335,335,0.06059687958373472,0.1,0.0,0.0,349.0,518.0,1.0,0,2133.0,0
336,336,0.21557651983034865,0.2,1.0,1.0,250.0,800.0,1.0,1,1950.0,1
337,337,-0.810813426561031,-0.8,0.0,1.0,437.0,906.0,1.0,0,797.0,1
338,338,0.256092585855091,0.3,0.0,0.0,395.0,568.0,0.0,1,2037.0,1
339,339,0.30213362980816216,0.3,1.0,1.0,412.0,757.0,0.0,0,1831.0,0
340,340,0.1438098085873406,0.1,1.0,1.0,443.0,566.0,0.0,0,1991.0,0
341,341,-0.22867766822107016,-0.2,0.0,1.0,411.0,501.0,0.0,1,2088.0,0
342,342,-0.06898727474152921,-0.1,1.0,0.0,377.0,979.0,0.0,0,-1206.0,1
343,343,-0.5121210043041884,-0.5,0.0,1.0,433.0,838.0,1.0,0,-601.0,1
344,344,-0.06902197254263531,-0.1,0.0,1.0,400.0,996.0,1.0,0,1604.0,1
345,345,0.837461708007596,0.8,1.0,1.0,273.0,803.0,1.0,1,144.0,1
346,346,0.8696471757206262,0.9,1.0,1.0,402.0,754.0,1.0,1,1844.0,1
347,347,0.1776284561902267,0.2,1.0,1.0,358.0,990.0,0.0,0,1652.0,0
348,348,-0.6649460664482838,-0.7,1.0,0.0,262.0,859.0,0.0,0,1879.0,1
349,349,0.07683867051332482,0.1,0.0,0.0,439.0,744.0,1.0,0,1817.0,0
350,350,-0.8943123889536341,-0.9,1.0,0.0,342.0,637.0,0.0,0,2021.0,1
351,351,-0.3577542424070175,-0.4,0.0,1.0,322.0,612.0,1.0,0,-44.0,1
352,352,0.7750602543141744,0.8,0.0,0.0,418.0,765.0,0.0,1,1687.0,1
353,353,0.5095895538264464,0.5,0.0,0.0,371.0,651.0,0.0,1,1848.0,1
354,354,0.7266061268111225,0.7,1.0,1.0,472.0,996.0,1.0,1,532.0,1
355,355,-0.4612669595295289,-0.5,1.0,0.0,446.0,685.0,0.0,0,1869.0,1
356,356,0.3195513682004488,0.3,0.0,0.0,350.0,689.0,0.0,1,1961.0,1
357,357,0.18862591198761447,0.2,0.0,0.0,252.0,901.0,0.0,1,1847.0,1
358,358,-0.677309103093928,-0.7,1.0,0.0,454.0,979.0,0.0,0,1567.0,1
359,359,0.8929363972561665,0.9,0.0,0.0,346.0,943.0,0.0,1,1711.0,1
360,360,-0.17419889278281864,-0.2,1.0,0.0,405.0,565.0,1.0,1,2030.0,0
361,361,-0.4612416949582894,-0.5,1.0,0.0,455.0,787.0,1.0,1,-32.0,0
362,362,0.8991095927349427,0.9,1.0,1.0,499.0,921.0,1.0,1,730.0,1
363,363,0.5084731011887621,0.5,0.0,0.0,305.0,825.0,0.0,1,960.0,1
364,364,-0.22001184637603954,-0.2,1.0,0.0,331.0,835.0,0.0,0,474.0,1
365,365,0.7697047331950561,0.8,1.0,1.0,480.0,616.0,1.0,1,934.0,1
366,366,0.3567446192991707,0.4,0.0,0.0,320.0,525.0,0.0,1,2155.0,1
367,367,0.4377203996597322,0.4,1.0,1.0,270.0,951.0,1.0,1,1209.0,1
368,368,0.30101989705646204,0.3,1.0,1.0,308.0,847.0,1.0,1,1845.0,1
369,369,-0.7349306182195539,-0.7,1.0,0.0,373.0,564.0,0.0,0,513.0,1
370,370,-0.4311419120619837,-0.4,1.0,0.0,401.0,681.0,0.0,0,458.0,1
371,371,0.7216748923779731,0.7,1.0,1.0,450.0,928.0,1.0,1,1332.0,1
372,372,-0.04386115374137023,-0.0,1.0,0.0,413.0,525.0,0.0,0,2062.0,1
373,373,-0.7648639912831645,-0.8,1.0,0.0,351.0,832.0,0.0,0,1817.0,1
374,374,-0.29482652867369064,-0.3,1.0,0.0,406.0,859.0,0.0,0,695.0,1
375,375,0.05830025460428789,0.1,0.0,0.0,259.0,615.0,1.0,0,2056.0,0
376,376,-0.3006748711658904,-0.3,0.0,1.0,281.0,707.0,1.0,0,1142.0,1
377,377,0.19237610507097747,0.2,1.0,1.0,482.0,537.0,0.0,0,1981.0,0
378,378,-0.1258341271224156,-0.1,0.0,1.0,423.0,941.0,1.0,0,1636.0,1
379,379,-0.5607242819658336,-0.6,1.0,0.0,374.0,960.0,0.0,0,1666.0,1
380,380,0.34915566016401633,0.3,1.0,1.0,270.0,740.0,0.0,0,1990.0,0
381,381,0.2628929848606444,0.3,1.0,1.0,308.0,656.0,1.0,1,1206.0,1
382,382,0.33464733223660714,0.3,1.0,1.0,299.0,989.0,1.0,1,1012.0,1
383,383,-0.2489554151736093,-0.2,1.0,0.0,414.0,980.0,0.0,0,1606.0,1
384,384,0.632306238748,0.6,1.0,1.0,446.0,878.0,0.0,0,-34.0,0
385,385,-0.7638808087231622,-0.8,1.0,0.0,449.0,527.0,0.0,0,114.0,1
386,386,0.47962333015184455,0.5,1.0,1.0,438.0,855.0,1.0,1,1487.0,1
387,387,0.015083036623234514,0.0,1.0,1.0,395.0,687.0,1.0,1,1918.0,1
388,388,-0.028114250807063423,-0.0,1.0,0.0,279.0,572.0,0.0,0,2149.0,1
389,389,0.06173112521338697,0.1,0.0,0.0,450.0,987.0,1.0,0,473.0,0
390,390,-0.29553914537146797,-0.3,0.0,1.0,274.0,883.0,1.0,0,423.0,1
391,391,0.11451371425015144,0.1,1.0,1.0,303.0,684.0,1.0,1,2013.0,1
392,392,0.6475285620371317,0.6,1.0,1.0,367.0,836.0,1.0,1,497.0,1
393,393,0.2003533817476656,0.2,0.0,0.0,299.0,765.0,0.0,1,1936.0,1
394,394,0.3262714449443974,0.3,0.0,0.0,437.0,550.0,0.0,1,2013.0,1
395,395,0.7394538862846679,0.7,1.0,1.0,444.0,804.0,1.0,1,1062.0,1
396,396,-0.17183252466357424,-0.2,0.0,1.0,254.0,609.0,0.0,1,-93.0,0
397,397,-0.2897719986227699,-0.3,0.0,1.0,276.0,632.0,0.0,1,2092.0,0
398,398,-0.05163807732974035,-0.1,0.0,1.0,252.0,852.0,0.0,1,-304.0,0
399,399,0.16914366910901812,0.2,0.0,0.0,268.0,760.0,0.0,1,1032.0,1
400,400,0.1204575580248467,0.1,1.0,1.0,383.0,808.0,0.0,0,1809.0,0
401,401,0.12677684941921907,0.1,0.0,0.0,299.0,983.0,1.0,0,1718.0,0
402,402,0.3886328271293177,0.4,1.0,1.0,415.0,998.0,1.0,1,1587.0,1
403,403,-0.35087689285764756,-0.4,0.0,1.0,371.0,777.0,1.0,0,1632.0,1
404,404,-0.7345566519259513,-0.7,0.0,1.0,332.0,729.0,1.0,0,259.0,1
405,405,0.4947290000782184,0.5,0.0,0.0,426.0,653.0,0.0,1,281.0,1
406,406,-0.6997480300507619,-0.7,0.0,1.0,268.0,746.0,1.0,0,1306.0,1
407,407,-0.13475800367132063,-0.1,1.0,0.0,434.0,872.0,0.0,0,1694.0,1
408,408,0.5763908629409918,0.6,0.0,0.0,314.0,624.0,0.0,1,2062.0,1
409,409,0.06812408919867452,0.1,0.0,0.0,316.0,828.0,1.0,0,1266.0,0
410,410,-0.16776670197830446,-0.2,1.0,0.0,373.0,587.0,0.0,0,2040.0,1
411,411,-0.019014174915014115,-0.0,1.0,0.0,407.0,555.0,0.0,0,2038.0,1
412,412,0.48320498826767555,0.5,0.0,0.0,446.0,890.0,0.0,1,14.0,1
413,413,-0.21573710672225432,-0.2,0.0,1.0,316.0,503.0,0.0,1,201.0,0
414,414,-0.8688826037434288,-0.9,1.0,0.0,272.0,976.0,0.0,0,1752.0,1
415,415,-0.5318362017367246,-0.5,1.0,0.0,359.0,519.0,0.0,0,282.0,1
416,416,-0.0013002409152215177,-0.0,0.0,1.0,436.0,934.0,1.0,0,690.0,1
417,417,0.6583588131312913,0.7,1.0,1.0,318.0,654.0,1.0,1,1088.0,1
418,418,-0.6588749404582811,-0.7,0.0,1.0,342.0,644.0,1.0,0,714.0,1
419,419,-0.3201076376880637,-0.3,1.0,0.0,363.0,954.0,0.0,0,1683.0,1
420,420,0.8764803278321508,0.9,0.0,0.0,419.0,591.0,0.0,1,1310.0,1
421,421,-0.25539394003200466,-0.3,0.0,1.0,395.0,932.0,1.0,0,1143.0,1
422,422,-0.606153621589848,-0.6,0.0,1.0,406.0,810.0,0.0,1,1784.0,0
423,423,0.042039098206928416,0.0,0.0,0.0,432.0,612.0,1.0,0,1956.0,0
424,424,0.8974447968250562,0.9,1.0,1.0,255.0,898.0,0.0,0,1847.0,0
425,425,-0.843249997311113,-0.8,1.0,0.0,281.0,598.0,1.0,1,-49.0,0
426,426,-0.5312330232106472,-0.5,1.0,0.0,382.0,550.0,0.0,0,2068.0,1
427,427,0.3997905470030304,0.4,1.0,1.0,384.0,901.0,1.0,1,155.0,1
428,428,-0.48101603950186755,-0.5,0.0,1.0,477.0,823.0,1.0,0,1020.0,1
429,429,-0.6866102664864276,-0.7,0.0,1.0,430.0,810.0,1.0,0,-550.0,1
430,430,-0.8816132048459728,-0.9,1.0,0.0,380.0,759.0,0.0,0,1861.0,1
431,431,0.1681677971452481,0.2,1.0,1.0,449.0,602.0,1.0,1,1949.0,1
432,432,0.46150499739335504,0.5,0.0,0.0,286.0,654.0,0.0,1,1080.0,1
433,433,-0.24392862444412955,-0.2,0.0,1.0,253.0,571.0,1.0,0,1136.0,1
434,434,-0.34665296053854255,-0.3,1.0,0.0,334.0,756.0,0.0,0,720.0,1
435,435,-0.7901612360769271,-0.8,1.0,0.0,442.0,843.0,0.0,0,645.0,1
436,436,-0.6941909813534461,-0.7,0.0,1.0,473.0,815.0,1.0,0,-438.0,1
437,437,0.8419714091450402,0.8,1.0,1.0,304.0,981.0,1.0,1,675.0,1
438,438,0.12759348884886645,0.1,0.0,0.0,250.0,973.0,0.0,1,1777.0,1
439,439,0.010518472456289452,0.0,1.0,1.0,270.0,832.0,0.0,0,1898.0,0
440,440,-0.2378712148308475,-0.2,1.0,0.0,271.0,701.0,0.0,0,2028.0,1
441,441,-0.2228143238784539,-0.2,1.0,0.0,436.0,900.0,0.0,0,1664.0,1
442,442,0.3831126538467763,0.4,1.0,1.0,356.0,651.0,1.0,1,1993.0,1
443,443,-0.0669363450498146,-0.1,0.0,1.0,382.0,933.0,0.0,1,1685.0,0
444,444,0.3662772865028828,0.4,0.0,0.0,276.0,696.0,0.0,1,1328.0,1
445,445,0.5970934159353595,0.6,0.0,0.0,425.0,508.0,0.0,1,1967.0,1
446,446,-0.3255978630333759,-0.3,0.0,1.0,391.0,961.0,1.0,0,1648.0,1
447,447,-0.4958004212845981,-0.5,1.0,0.0,463.0,897.0,0.0,0,1640.0,1
448,448,0.3122250125505853,0.3,1.0,1.0,475.0,803.0,1.0,1,932.0,1
449,449,-0.41309135933915564,-0.4,1.0,0.0,417.0,765.0,0.0,0,1158.0,1
450,450,-0.1807581126942709,-0.2,1.0,0.0,462.0,731.0,0.0,0,477.0,1
451,451,-0.4740160209519678,-0.5,1.0,0.0,250.0,964.0,0.0,0,1786.0,1
452,452,-0.2761233097233188,-0.3,0.0,1.0,428.0,733.0,0.0,1,1839.0,0
453,453,0.08795537716568291,0.1,1.0,1.0,274.0,873.0,0.0,0,1853.0,0
454,454,-0.4066239523839225,-0.4,1.0,0.0,314.0,886.0,0.0,0,-900.0,1
455,455,0.2643013053115758,0.3,0.0,0.0,268.0,961.0,0.0,1,1771.0,1
456,456,0.5433727786735344,0.5,0.0,0.0,318.0,693.0,0.0,1,1989.0,1
457,457,-0.2604455542191717,-0.3,1.0,0.0,415.0,891.0,1.0,1,1694.0,0
458,458,0.30538588034514624,0.3,1.0,1.0,396.0,646.0,0.0,0,1958.0,0
459,459,-0.7831218439672111,-0.8,1.0,0.0,261.0,681.0,0.0,0,2058.0,1
460,460,0.25920838135190893,0.3,0.0,0.0,438.0,595.0,1.0,0,1267.0,0
461,461,0.6505004728375557,0.7,0.0,0.0,421.0,697.0,1.0,0,-28.0,0
462,462,0.37237676142565046,0.4,1.0,1.0,309.0,754.0,1.0,1,277.0,1
463,463,0.7203022111109098,0.7,0.0,0.0,433.0,707.0,0.0,1,390.0,1
464,464,0.8581953030301498,0.9,1.0,1.0,489.0,832.0,1.0,1,1499.0,1
465,465,-0.43159798056124155,-0.4,0.0,1.0,380.0,848.0,1.0,0,1602.0,1
466,466,0.5671084136372636,0.6,0.0,0.0,277.0,977.0,1.0,0,-994.0,0
467,467,0.6975721892769619,0.7,0.0,0.0,348.0,954.0,0.0,1,1698.0,1
468,468,-0.503389866683079,-0.5,1.0,0.0,423.0,515.0,0.0,0,1652.0,1
469,469,-0.3092643857831685,-0.3,0.0,1.0,273.0,902.0,0.0,1,1825.0,0
470,470,-0.47910633675236386,-0.5,1.0,0.0,352.0,720.0,0.0,0,1928.0,1
471,471,-0.8682687140546868,-0.9,0.0,1.0,444.0,540.0,1.0,0,186.0,1
472,472,0.3272404068442626,0.3,0.0,0.0,251.0,948.0,0.0,1,1431.0,1
473,473,-0.5677823392718842,-0.6,1.0,0.0,448.0,858.0,0.0,0,1694.0,1
474,474,0.606102072218211,0.6,0.0,0.0,395.0,750.0,0.0,1,1855.0,1
475,475,-0.5008649107379262,-0.5,0.0,1.0,367.0,756.0,1.0,0,1257.0,1
476,476,0.551492618902209,0.6,1.0,1.0,331.0,530.0,1.0,1,1329.0,1
477,477,0.8461962431827706,0.8,1.0,1.0,272.0,733.0,1.0,1,935.0,1
478,478,-0.09273582966864857,-0.1,0.0,1.0,377.0,838.0,1.0,0,-65.0,1
479,479,-0.3633497457793562,-0.4,1.0,0.0,290.0,819.0,0.0,0,891.0,1
480,480,-0.31735230295174144,-0.3,0.0,1.0,336.0,730.0,0.0,1,-716.0,0
481,481,0.6588448144114024,0.7,0.0,0.0,345.0,778.0,0.0,1,1117.0,1
482,482,-0.4889386149110784,-0.5,0.0,1.0,402.0,650.0,0.0,1,1948.0,0
483,483,0.8406923836164409,0.8,1.0,1.0,401.0,830.0,0.0,0,-231.0,0
484,484,-0.16396773597959136,-0.2,0.0,1.0,261.0,768.0,0.0,1,1971.0,0
485,485,-0.11571683555175383,-0.1,0.0,1.0,285.0,911.0,1.0,0,-626.0,1
486,486,0.28548086053169885,0.3,1.0,1.0,300.0,935.0,1.0,1,295.0,1
487,487,-0.1605103266747071,-0.2,1.0,0.0,341.0,521.0,0.0,0,1518.0,1
488,488,0.059635104961493046,0.1,1.0,1.0,425.0,681.0,0.0,0,1894.0,0
489,489,-0.11099789388124237,-0.1,1.0,0.0,347.0,817.0,0.0,0,1836.0,1
490,490,-0.24530603312426547,-0.2,0.0,1.0,375.0,526.0,1.0,0,949.0,1
491,491,-0.47800919209015424,-0.5,1.0,0.0,490.0,941.0,0.0,0,1569.0,1
492,492,0.7749756565422875,0.8,1.0,1.0,363.0,919.0,1.0,1,1718.0,1
493,493,-0.07284159987662975,-0.1,1.0,0.0,337.0,669.0,0.0,0,784.0,1
494,494,-0.3627915488126905,-0.4,0.0,1.0,300.0,911.0,1.0,0,649.0,1
495,495,-0.06206443354915825,-0.1,0.0,1.0,277.0,784.0,0.0,1,1939.0,0
496,496,0.18436788936257986,0.2,0.0,0.0,467.0,906.0,0.0,1,467.0,1
497,497,0.0631793587770847,0.1,0.0,0.0,291.0,659.0,0.0,1,2050.0,1
498,498,0.8457608564447544,0.8,1.0,1.0,418.0,908.0,1.0,1,424.0,1
499,499,0.5128590401966538,0.5,0.0,0.0,311.0,556.0,0.0,1,2133.0,1
500,500,0.6599518499594069,0.7,1.0,1.0,285.0,576.0,1.0,1,789.0,1
501,501,0.11574436298387114,0.1,1.0,1.0,452.0,980.0,0.0,0,1568.0,0
502,502,0.7479204436040473,0.7,0.0,0.0,328.0,552.0,0.0,1,410.0,1
503,503,-0.613168962703494,-0.6,1.0,0.0,487.0,572.0,0.0,0,1941.0,1
504,504,0.19342951881226755,0.2,1.0,1.0,390.0,666.0,1.0,1,1944.0,1
505,505,-0.489963174047773,-0.5,0.0,1.0,308.0,643.0,1.0,0,629.0,1
506,506,-0.36684495802558725,-0.4,1.0,0.0,268.0,930.0,0.0,0,1802.0,1
507,507,-0.16411489836306337,-0.2,0.0,1.0,404.0,560.0,0.0,1,2036.0,0
508,508,-0.6693721732244301,-0.7,1.0,0.0,396.0,641.0,0.0,0,1963.0,1
509,509,-0.22835222240794162,-0.2,0.0,1.0,476.0,552.0,0.0,1,1972.0,0
510,510,0.019216772249444736,0.0,1.0,1.0,450.0,584.0,0.0,0,1966.0,0
511,511,0.5280894653672737,0.5,0.0,0.0,263.0,758.0,1.0,0,1979.0,0
512,512,-0.02920395501882611,-0.0,1.0,0.0,306.0,606.0,0.0,0,2088.0,1
513,513,0.22726866667165224,0.2,1.0,1.0,366.0,855.0,0.0,0,1779.0,0
514,514,-0.12773091534193115,-0.1,0.0,1.0,373.0,650.0,0.0,1,1977.0,0
515,515,-0.8321265339611056,-0.8,0.0,1.0,457.0,964.0,1.0,0,369.0,1
516,516,0.4902494773380325,0.5,0.0,0.0,432.0,795.0,0.0,1,1083.0,1
517,517,-0.5588509003271223,-0.6,0.0,1.0,308.0,526.0,1.0,0,966.0,1
518,518,-0.7646728379782382,-0.8,1.0,0.0,276.0,939.0,0.0,0,1785.0,1
519,519,-0.6479058644361273,-0.6,1.0,0.0,467.0,796.0,0.0,0,1737.0,1
520,520,-0.7697398031383552,-0.8,0.0,1.0,333.0,844.0,1.0,0,713.0,1
521,521,0.164004792796011,0.2,0.0,0.0,361.0,795.0,0.0,1,-436.0,1
522,522,-0.5400153365578544,-0.5,1.0,0.0,426.0,887.0,0.0,0,-343.0,1
523,523,0.8307620549532829,0.8,0.0,0.0,464.0,525.0,0.0,1,2011.0,1
524,524,-0.48671180944623077,-0.5,0.0,1.0,299.0,881.0,1.0,0,1010.0,1
525,525,-0.40831598985639295,-0.4,0.0,1.0,374.0,994.0,0.0,1,1632.0,0
526,526,-0.003262324835240471,-0.0,0.0,1.0,252.0,504.0,0.0,1,2244.0,0
527,527,0.10099170206478669,0.1,1.0,1.0,314.0,577.0,0.0,0,2109.0,0
528,528,0.47603258715424734,0.5,0.0,0.0,407.0,805.0,0.0,1,1198.0,1
529,529,0.2506905943623542,0.3,0.0,0.0,403.0,941.0,0.0,1,1656.0,1
530,530,0.5567507054164967,0.6,1.0,1.0,403.0,893.0,1.0,1,1704.0,1
531,531,-0.45908555887372926,-0.5,0.0,1.0,433.0,607.0,1.0,0,270.0,1
532,532,-0.26857219042680003,-0.3,1.0,0.0,432.0,851.0,0.0,0,-523.0,1
533,533,-0.17874170090362163,-0.2,1.0,0.0,411.0,653.0,0.0,0,1936.0,1
534,534,-0.15676741940835193,-0.2,1.0,0.0,379.0,999.0,0.0,0,172.0,1
535,535,-0.27087612692240715,-0.3,0.0,1.0,279.0,674.0,1.0,0,557.0,1
536,536,0.348248663774955,0.3,1.0,1.0,465.0,820.0,1.0,1,1555.0,1
537,537,0.20288371158894247,0.2,0.0,0.0,474.0,587.0,0.0,1,1099.0,1
538,538,0.26094180712512605,0.3,1.0,1.0,435.0,965.0,1.0,1,1110.0,1
539,539,-0.8757200872501485,-0.9,1.0,0.0,298.0,822.0,0.0,0,370.0,1
540,540,0.80232471125602,0.8,1.0,1.0,380.0,980.0,1.0,1,750.0,1
541,541,-0.04903433103220933,-0.0,0.0,1.0,367.0,670.0,1.0,0,1963.0,1
542,542,0.371094816666771,0.4,0.0,0.0,280.0,661.0,0.0,1,2059.0,1
543,543,-0.14684740260720597,-0.1,0.0,1.0,282.0,634.0,0.0,1,2084.0,0
544,544,0.6445903097165565,0.6,0.0,0.0,302.0,927.0,0.0,1,1571.0,1
545,545,-0.19836853464753768,-0.2,0.0,1.0,427.0,564.0,0.0,1,2009.0,0
546,546,0.4489326676876547,0.4,0.0,0.0,456.0,598.0,1.0,0,1946.0,0
547,547,-0.4822636074767898,-0.5,1.0,0.0,395.0,712.0,0.0,0,1793.0,1
548,548,-0.4988602200085937,-0.5,1.0,0.0,280.0,975.0,0.0,0,895.0,1
549,549,0.08489203436241366,0.1,0.0,0.0,252.0,940.0,0.0,1,348.0,1
550,550,0.5582643478147268,0.6,1.0,1.0,256.0,962.0,1.0,1,632.0,1
551,551,-0.8508372578226447,-0.9,1.0,0.0,355.0,506.0,0.0,0,2139.0,1
552,552,-0.4590347848743062,-0.5,1.0,0.0,278.0,962.0,0.0,0,-1030.0,1
553,553,0.37728102784253525,0.4,1.0,1.0,335.0,737.0,0.0,0,1928.0,0
554,554,0.31179794740245315,0.3,1.0,1.0,472.0,545.0,1.0,1,1983.0,1
555,555,0.6865384626156782,0.7,1.0,1.0,499.0,544.0,1.0,1,137.0,1
556,556,-0.3289379746559308,-0.3,1.0,0.0,321.0,563.0,0.0,0,506.0,1
557,557,0.10800666180722163,0.1,0.0,0.0,361.0,636.0,0.0,1,2003.0,1
558,558,-0.28046451380672976,-0.3,1.0,0.0,479.0,723.0,0.0,0,1798.0,1
559,559,0.8050263023832832,0.8,1.0,1.0,352.0,822.0,1.0,1,1086.0,1
560,560,-0.1012350589072133,-0.1,1.0,0.0,410.0,575.0,0.0,0,2015.0,1
561,561,0.5669836840533219,0.6,0.0,0.0,470.0,704.0,0.0,1,466.0,1
562,562,0.17859027296968344,0.2,1.0,1.0,479.0,515.0,0.0,0,2006.0,0
563,563,0.8439751149325431,0.8,0.0,0.0,255.0,962.0,0.0,1,-597.0,1
564,564,-0.13063972427095272,-0.1,1.0,0.0,346.0,958.0,1.0,1,1696.0,0
565,565,-0.5300998067783897,-0.5,0.0,1.0,267.0,651.0,1.0,0,2082.0,1
566,566,-0.5762246535540534,-0.6,1.0,0.0,275.0,674.0,0.0,0,2051.0,1
567,567,-0.2357147212090993,-0.2,0.0,1.0,358.0,538.0,1.0,0,1394.0,1
568,568,-0.8455688053554968,-0.8,1.0,0.0,358.0,825.0,0.0,0,807.0,1
569,569,-0.05903037948025425,-0.1,1.0,0.0,257.0,664.0,0.0,0,2079.0,1
570,570,-0.5794107635048367,-0.6,0.0,1.0,252.0,767.0,1.0,0,861.0,1
571,571,-0.7519138006162711,-0.8,0.0,1.0,462.0,736.0,1.0,0,1802.0,1
572,572,-0.1421224793273188,-0.1,0.0,1.0,353.0,874.0,0.0,1,1773.0,0
573,573,-0.5371559063914547,-0.5,0.0,1.0,326.0,533.0,1.0,0,191.0,1
574,574,-0.6081106198854933,-0.6,1.0,0.0,430.0,590.0,0.0,0,1130.0,1
575,575,-0.48052224800237675,-0.5,1.0,0.0,339.0,698.0,0.0,0,1963.0,1
576,576,0.39309855672684735,0.4,1.0,1.0,467.0,901.0,0.0,0,1632.0,0
577,577,-0.13997051991362086,-0.1,1.0,0.0,488.0,895.0,1.0,1,1617.0,0
578,578,0.19672569907653148,0.2,0.0,0.0,368.0,527.0,0.0,1,2105.0,1
579,579,0.6062339230545223,0.6,0.0,0.0,271.0,935.0,0.0,1,1794.0,1
580,580,-0.36120154273653715,-0.4,0.0,1.0,255.0,782.0,1.0,0,433.0,1
581,581,-0.5654593067329509,-0.6,1.0,0.0,443.0,755.0,0.0,0,732.0,1
582,582,-0.5126014796739968,-0.5,1.0,0.0,266.0,773.0,0.0,0,1961.0,1
583,583,0.8676016363060898,0.9,1.0,1.0,317.0,985.0,1.0,1,698.0,1
584,584,-0.4742812556959886,-0.5,1.0,0.0,381.0,833.0,0.0,0,1786.0,1
585,585,-0.30890913269476816,-0.3,1.0,0.0,262.0,661.0,1.0,1,2077.0,0
586,586,-0.6143162076630528,-0.6,1.0,0.0,452.0,839.0,0.0,0,1709.0,1
587,587,0.3303147989007732,0.3,0.0,0.0,318.0,753.0,0.0,1,1929.0,1
588,588,0.2325131539214328,0.2,1.0,1.0,389.0,645.0,0.0,0,1966.0,0
589,589,-0.5549256303216965,-0.6,0.0,1.0,322.0,829.0,1.0,0,1229.0,1
590,590,-0.6915325863874859,-0.7,0.0,1.0,396.0,832.0,1.0,0,352.0,1
591,591,-0.8576455944876482,-0.9,0.0,1.0,394.0,953.0,1.0,0,1163.0,1
592,592,0.19642137559666473,0.2,0.0,0.0,344.0,590.0,0.0,1,2066.0,1
593,593,0.35394364642197684,0.4,0.0,0.0,253.0,523.0,0.0,1,2224.0,1
594,594,-0.8031180552333936,-0.8,0.0,1.0,370.0,621.0,1.0,0,1449.0,1
595,595,0.34840618702070925,0.3,0.0,0.0,350.0,935.0,1.0,0,1715.0,0
596,596,-0.3546226912179433,-0.4,1.0,0.0,356.0,738.0,0.0,0,1906.0,1
597,597,-0.8903180149720831,-0.9,1.0,0.0,381.0,716.0,0.0,0,1903.0,1
598,598,-0.7813905529418961,-0.8,1.0,0.0,420.0,580.0,0.0,0,360.0,1
599,599,0.29362234168491275,0.3,0.0,0.0,487.0,649.0,0.0,1,494.0,1
600,600,-0.1116829593593408,-0.1,1.0,0.0,255.0,965.0,1.0,1,1780.0,0
601,601,0.17600117105909374,0.2,1.0,1.0,438.0,638.0,0.0,0,1924.0,0
602,602,0.49645154420474913,0.5,0.0,0.0,313.0,717.0,0.0,1,1800.0,1
603,603,0.10961747548811729,0.1,0.0,0.0,404.0,731.0,0.0,1,1865.0,1
604,604,0.5302941708557171,0.5,1.0,1.0,293.0,938.0,1.0,1,379.0,1
605,605,0.08048620131582129,0.1,0.0,0.0,443.0,823.0,0.0,1,1734.0,1
606,606,-0.2655677302034567,-0.3,1.0,0.0,381.0,586.0,0.0,0,2033.0,1
607,607,-0.4442403569381305,-0.4,1.0,0.0,311.0,608.0,0.0,0,2081.0,1
608,608,-0.4919232294403516,-0.5,0.0,1.0,479.0,516.0,1.0,0,505.0,1
609,609,-0.0333606911463461,-0.0,1.0,0.0,267.0,977.0,0.0,0,-324.0,1
610,610,-0.16783562575462108,-0.2,0.0,1.0,379.0,852.0,0.0,1,1769.0,0
611,611,-0.30679596551136656,-0.3,0.0,1.0,270.0,532.0,1.0,0,618.0,1
612,612,0.6618860163771677,0.7,0.0,0.0,266.0,816.0,0.0,1,1918.0,1
613,613,-0.26795512749247197,-0.3,0.0,1.0,440.0,705.0,1.0,0,1225.0,1
614,614,0.12236226509246706,0.1,1.0,1.0,437.0,767.0,1.0,1,1796.0,1
615,615,0.11986877745127023,0.1,0.0,0.0,375.0,519.0,0.0,1,2106.0,1
616,616,-0.8152128499873528,-0.8,0.0,1.0,343.0,679.0,1.0,0,198.0,1
617,617,-0.02599114768069144,-0.0,1.0,0.0,482.0,574.0,1.0,1,1944.0,0
618,618,0.36786979105573014,0.4,1.0,1.0,294.0,532.0,0.0,0,324.0,0
619,619,0.7596708281723473,0.8,1.0,1.0,360.0,926.0,1.0,1,534.0,1
620,620,0.42886583241889287,0.4,0.0,0.0,252.0,590.0,0.0,1,778.0,1
621,621,0.23898586628018614,0.2,1.0,1.0,370.0,774.0,0.0,0,1856.0,0
622,622,0.3509780680531144,0.4,0.0,0.0,345.0,768.0,0.0,1,297.0,1
623,623,-0.6505338247147865,-0.7,0.0,1.0,354.0,896.0,1.0,0,440.0,1
624,624,-0.7337780371905293,-0.7,1.0,0.0,294.0,805.0,0.0,0,1901.0,1
625,625,-0.12098734850215853,-0.1,0.0,1.0,314.0,832.0,0.0,1,1854.0,0
626,626,-0.3897009351813566,-0.4,1.0,0.0,440.0,973.0,0.0,0,1587.0,1
627,627,0.4676977470218405,0.5,0.0,0.0,306.0,924.0,1.0,0,-310.0,0
628,628,-0.4785103383389884,-0.5,0.0,1.0,331.0,520.0,1.0,0,2149.0,1
629,629,-0.6025646709294812,-0.6,0.0,1.0,321.0,637.0,1.0,0,382.0,1
630,630,0.011563654616310926,0.0,0.0,0.0,298.0,913.0,0.0,1,1789.0,1
631,631,0.4094021572823451,0.4,0.0,0.0,452.0,569.0,0.0,1,1979.0,1
632,632,-0.6760578579601877,-0.7,1.0,0.0,409.0,791.0,0.0,0,720.0,1
633,633,-0.8389966511472244,-0.8,0.0,1.0,379.0,650.0,1.0,0,1191.0,1
634,634,-0.06801885159416432,-0.1,1.0,0.0,448.0,588.0,0.0,0,1964.0,1
635,635,-0.41918576366246724,-0.4,0.0,1.0,454.0,610.0,1.0,0,1416.0,1
636,636,0.412063902952314,0.4,0.0,0.0,412.0,885.0,1.0,0,-477.0,0
637,637,0.588373229648704,0.6,1.0,1.0,338.0,870.0,0.0,0,-118.0,0
638,638,0.654670253582314,0.7,1.0,1.0,340.0,647.0,1.0,1,1623.0,1
639,639,-0.7061507070948945,-0.7,0.0,1.0,390.0,673.0,1.0,0,1147.0,1
640,640,0.7591973296028304,0.8,1.0,1.0,361.0,652.0,1.0,1,597.0,1
641,641,-0.30658309444791976,-0.3,0.0,1.0,381.0,533.0,0.0,1,606.0,0
642,642,-0.8057027178787806,-0.8,1.0,0.0,315.0,732.0,0.0,0,1023.0,1
643,643,0.4558471584184799,0.5,1.0,1.0,289.0,935.0,1.0,1,1776.0,1
644,644,-0.5657571506602421,-0.6,0.0,1.0,484.0,708.0,1.0,0,1008.0,1
645,645,-0.7763732208244988,-0.8,0.0,1.0,398.0,890.0,1.0,0,532.0,1
646,646,0.45971270123181307,0.5,1.0,1.0,270.0,945.0,1.0,1,1785.0,1
647,647,0.29150782018825894,0.3,0.0,0.0,447.0,598.0,0.0,1,1235.0,1
648,648,0.8449064936231369,0.8,1.0,1.0,488.0,929.0,1.0,1,143.0,1
649,649,-0.5928923140773905,-0.6,0.0,1.0,252.0,744.0,1.0,0,-576.0,1
650,650,0.20450511074488908,0.2,0.0,0.0,325.0,883.0,1.0,0,1792.0,0
651,651,0.6393317740975965,0.6,0.0,0.0,450.0,904.0,0.0,1,1646.0,1
652,652,0.8488147486070586,0.8,1.0,1.0,286.0,754.0,1.0,1,1020.0,1
653,653,0.1177293905461606,0.1,1.0,1.0,305.0,622.0,1.0,1,2073.0,1
654,654,0.09486387757243553,0.1,0.0,0.0,478.0,982.0,0.0,1,1540.0,1
655,655,0.3762548993856093,0.4,1.0,1.0,462.0,788.0,0.0,0,1750.0,0
656,656,-0.16791581000919442,-0.2,0.0,1.0,250.0,924.0,1.0,0,1826.0,1
657,657,-0.06302375934224591,-0.1,0.0,1.0,458.0,916.0,1.0,0,1626.0,1
658,658,-0.7493977571645148,-0.7,1.0,0.0,322.0,598.0,0.0,0,1870.0,1
659,659,-0.33283749809406404,-0.3,0.0,1.0,302.0,819.0,1.0,0,1149.0,1
660,660,-0.20501622877128511,-0.2,0.0,1.0,447.0,650.0,1.0,0,883.0,1
661,661,0.38013986441455316,0.4,0.0,0.0,315.0,691.0,0.0,1,1994.0,1
662,662,-0.8341015326870145,-0.8,0.0,1.0,422.0,620.0,1.0,0,1958.0,1
663,663,0.717872108401974,0.7,0.0,0.0,252.0,750.0,0.0,1,1998.0,1
664,664,0.20041696858115954,0.2,0.0,0.0,351.0,772.0,0.0,1,1877.0,1
665,665,0.4083383506962758,0.4,1.0,1.0,441.0,775.0,0.0,0,1784.0,0
666,666,-0.7564219989866052,-0.8,1.0,0.0,466.0,835.0,0.0,0,1699.0,1
667,667,-0.574643220110236,-0.6,1.0,0.0,419.0,811.0,0.0,0,1770.0,1
668,668,-0.2848539591765268,-0.3,0.0,1.0,318.0,999.0,0.0,1,-377.0,0
669,669,-0.7765730073736526,-0.8,0.0,1.0,344.0,750.0,1.0,0,1236.0,1
670,670,-0.08149599965219612,-0.1,1.0,0.0,312.0,586.0,0.0,0,2102.0,1
671,671,0.7941067661236539,0.8,0.0,0.0,404.0,548.0,0.0,1,2048.0,1
672,672,0.8428120703854239,0.8,0.0,0.0,314.0,992.0,0.0,1,64.0,1
673,673,0.48342431688874743,0.5,1.0,1.0,323.0,789.0,0.0,0,1888.0,0
674,674,0.0002329367266269422,0.0,0.0,0.0,357.0,535.0,1.0,0,-402.0,0
675,675,-0.28667398566058233,-0.3,0.0,1.0,315.0,779.0,0.0,1,1906.0,0
676,676,-0.43167857952977606,-0.4,0.0,1.0,421.0,955.0,1.0,0,1114.0,1
677,677,-0.2316673706822444,-0.2,1.0,0.0,473.0,803.0,0.0,0,1724.0,1
678,678,0.6768274702902012,0.7,1.0,1.0,433.0,529.0,1.0,1,658.0,1
679,679,-0.4087312677822522,-0.4,1.0,0.0,418.0,577.0,0.0,0,2005.0,1
680,680,-0.7871772059527785,-0.8,1.0,0.0,383.0,644.0,0.0,0,1973.0,1
681,681,0.6147690000376288,0.6,1.0,1.0,261.0,826.0,1.0,1,1913.0,1
682,682,-0.5827628526348165,-0.6,1.0,0.0,372.0,539.0,0.0,0,2089.0,1
683,683,0.6111974332041924,0.6,1.0,1.0,336.0,934.0,1.0,1,820.0,1
684,684,-0.08543001749397217,-0.1,0.0,1.0,258.0,557.0,1.0,0,2185.0,1
685,685,-0.09897882241838951,-0.1,1.0,0.0,411.0,799.0,0.0,0,1790.0,1
686,686,0.8973785958609678,0.9,0.0,0.0,490.0,541.0,0.0,1,1419.0,1
687,687,0.06761326925135946,0.1,0.0,0.0,342.0,525.0,1.0,0,1583.0,0
688,688,0.3479988501393215,0.3,1.0,1.0,337.0,708.0,1.0,1,1955.0,1
689,689,0.7829243880305133,0.8,0.0,0.0,451.0,892.0,0.0,1,1657.0,1
690,690,-0.2960130102992329,-0.3,0.0,1.0,309.0,749.0,1.0,0,-568.0,1
691,691,-0.8650482100790974,-0.9,0.0,1.0,300.0,729.0,1.0,0,1771.0,1
692,692,-0.4335096447117105,-0.4,0.0,1.0,464.0,539.0,1.0,0,1997.0,1
693,693,-0.03884251619469348,-0.0,1.0,0.0,270.0,771.0,0.0,0,439.0,1
694,694,-0.6228345082604501,-0.6,0.0,1.0,387.0,790.0,0.0,1,1823.0,0
695,695,-0.1776635715424566,-0.2,0.0,1.0,326.0,854.0,1.0,0,1820.0,1
696,696,-0.30034135279689667,-0.3,0.0,1.0,336.0,564.0,0.0,1,2100.0,0
697,697,-0.756142112402769,-0.8,0.0,1.0,485.0,847.0,1.0,0,768.0,1
698,698,0.5068694007889666,0.5,1.0,1.0,305.0,754.0,0.0,0,1941.0,0
699,699,0.15233567194217945,0.2,0.0,0.0,429.0,552.0,0.0,1,2019.0,1
700,700,0.6702317872860416,0.7,1.0,1.0,388.0,661.0,1.0,1,1211.0,1
701,701,0.7113956010662547,0.7,1.0,1.0,377.0,886.0,1.0,1,1077.0,1
702,702,-0.3650594701984031,-0.4,0.0,1.0,343.0,837.0,1.0,0,1060.0,1
703,703,0.4162658943458092,0.4,0.0,0.0,396.0,988.0,0.0,1,1616.0,1
704,704,-0.12709231609167948,-0.1,1.0,0.0,366.0,524.0,1.0,1,2110.0,0
705,705,-0.8983202856969481,-0.9,0.0,1.0,475.0,503.0,1.0,0,92.0,1
706,706,0.4928634959640358,0.5,0.0,0.0,364.0,697.0,0.0,1,1379.0,1
707,707,0.6464351363547393,0.6,0.0,0.0,441.0,573.0,0.0,1,1986.0,1
708,708,0.806516056002141,0.8,1.0,1.0,291.0,720.0,1.0,1,1169.0,1
709,709,0.7680428009311903,0.8,1.0,1.0,371.0,970.0,1.0,1,1429.0,1
710,710,0.04396947488223424,0.0,1.0,1.0,430.0,966.0,0.0,0,1604.0,0
711,711,0.7787327563962451,0.8,1.0,1.0,356.0,993.0,1.0,1,1621.0,1
712,712,-0.2727697095268451,-0.3,0.0,1.0,345.0,641.0,1.0,0,1444.0,1
713,713,0.6173904936952889,0.6,0.0,0.0,255.0,977.0,1.0,0,1768.0,0
714,714,0.4275793955454509,0.4,1.0,1.0,446.0,616.0,0.0,0,1938.0,0
715,715,-0.7065100040802613,-0.7,1.0,0.0,463.0,550.0,0.0,0,1987.0,1
716,716,0.18705152913013612,0.2,1.0,1.0,380.0,844.0,0.0,0,1206.0,0
717,717,-0.3629034438026786,-0.4,0.0,1.0,294.0,845.0,1.0,0,-189.0,1
718,718,0.08211753230342678,0.1,1.0,1.0,271.0,849.0,0.0,0,1880.0,0
719,719,0.7410836562948578,0.7,1.0,1.0,307.0,665.0,1.0,1,178.0,1
720,720,-0.5869212527569073,-0.6,1.0,0.0,401.0,749.0,0.0,0,1480.0,1
721,721,-0.29773060163420095,-0.3,1.0,0.0,484.0,597.0,1.0,1,1919.0,0
722,722,0.2594230486851091,0.3,1.0,1.0,445.0,927.0,0.0,0,138.0,0
723,723,-0.6671175453506691,-0.7,1.0,0.0,291.0,762.0,0.0,0,797.0,1
724,724,0.6642580087975708,0.7,1.0,1.0,312.0,788.0,1.0,1,1900.0,1
725,725,-0.1372899634434006,-0.1,0.0,1.0,443.0,767.0,0.0,1,1790.0,0
726,726,0.2587690666651664,0.3,0.0,0.0,443.0,629.0,0.0,1,1928.0,1
727,727,0.4141897730557199,0.4,0.0,0.0,442.0,677.0,0.0,1,1881.0,1
728,728,-0.2521471827233702,-0.3,0.0,1.0,437.0,839.0,1.0,0,1464.0,1
729,729,-0.359488796798491,-0.4,1.0,0.0,281.0,672.0,0.0,0,2047.0,1
730,730,0.0736944379497676,0.1,1.0,1.0,303.0,825.0,0.0,0,1872.0,0
731,731,-0.4872095664510882,-0.5,1.0,0.0,428.0,992.0,0.0,0,540.0,1
732,732,-0.3714937595893629,-0.4,1.0,0.0,290.0,941.0,0.0,0,1769.0,1
733,733,0.25081909594863305,0.3,0.0,0.0,483.0,788.0,0.0,1,1729.0,1
734,734,-0.6658924458011302,-0.7,0.0,1.0,368.0,735.0,1.0,0,307.0,1
735,735,-0.2678353234185594,-0.3,0.0,1.0,354.0,706.0,0.0,1,-240.0,0
736,736,-0.4195652090367064,-0.4,1.0,0.0,435.0,959.0,1.0,1,1606.0,0
737,737,-0.3045664848783157,-0.3,1.0,0.0,472.0,584.0,0.0,0,1944.0,1
738,738,0.35265293606775094,0.4,1.0,1.0,352.0,817.0,1.0,1,691.0,1
739,739,-0.06496106554392544,-0.1,1.0,0.0,263.0,777.0,0.0,0,620.0,1
740,740,0.5004474570664253,0.5,1.0,1.0,410.0,744.0,1.0,1,1846.0,1
741,741,-0.027197327912940494,-0.0,1.0,0.0,470.0,716.0,0.0,0,1814.0,1
742,742,-0.42132665637203176,-0.4,0.0,1.0,260.0,753.0,1.0,0,807.0,1
743,743,-0.676896372825617,-0.7,1.0,0.0,261.0,730.0,0.0,0,1329.0,1
744,744,0.449598145154528,0.4,0.0,0.0,434.0,819.0,0.0,1,1747.0,1
745,745,-0.6206081364101683,-0.6,1.0,0.0,345.0,628.0,0.0,0,2027.0,1
746,746,-0.4123895905696356,-0.4,0.0,1.0,376.0,880.0,0.0,1,1744.0,0
747,747,0.6292726948142623,0.6,0.0,0.0,412.0,705.0,0.0,1,1883.0,1
748,748,-0.5939766126983057,-0.6,0.0,1.0,442.0,947.0,1.0,0,271.0,1
749,749,0.076013663518959,0.1,1.0,1.0,419.0,911.0,1.0,1,570.0,1
750,750,-0.619267612733213,-0.6,1.0,0.0,421.0,817.0,0.0,0,1762.0,1
751,751,-0.539617261690567,-0.5,0.0,1.0,276.0,655.0,0.0,1,2069.0,0
752,752,0.3545052272587782,0.4,1.0,1.0,499.0,966.0,0.0,0,1535.0,0
753,753,-0.3246611586936281,-0.3,0.0,1.0,372.0,761.0,1.0,0,497.0,1
754,754,-0.07971758307744359,-0.1,1.0,0.0,337.0,832.0,0.0,0,1831.0,1
755,755,0.29923242256392035,0.3,1.0,1.0,273.0,756.0,1.0,1,1971.0,1
756,756,0.6829748540314223,0.7,0.0,0.0,412.0,751.0,0.0,1,1647.0,1
757,757,-0.11591892854860619,-0.1,1.0,0.0,461.0,819.0,0.0,0,1720.0,1
758,758,-0.467596988093281,-0.5,1.0,0.0,303.0,514.0,0.0,0,2183.0,1
759,759,-0.5473223661838298,-0.5,1.0,0.0,445.0,662.0,0.0,0,1893.0,1
760,760,0.4915439876156259,0.5,1.0,1.0,317.0,882.0,1.0,1,1801.0,1
761,761,0.31797380129399555,0.3,1.0,1.0,494.0,934.0,1.0,1,432.0,1
762,762,-0.8011329028510479,-0.8,0.0,1.0,423.0,773.0,1.0,0,114.0,1
763,763,-0.8146854571782475,-0.8,1.0,0.0,253.0,897.0,0.0,0,-540.0,1
764,764,0.4119781873486087,0.4,1.0,1.0,291.0,922.0,0.0,0,1787.0,0
765,765,0.8668932293981021,0.9,0.0,0.0,382.0,594.0,0.0,1,2024.0,1
766,766,-0.004996808709282319,-0.0,1.0,0.0,465.0,595.0,0.0,0,1940.0,1
767,767,0.8423643088125709,0.8,0.0,0.0,418.0,787.0,1.0,0,1795.0,0
768,768,0.8780549443884677,0.9,0.0,0.0,311.0,563.0,0.0,1,1706.0,1
769,769,0.7724916163999233,0.8,0.0,0.0,435.0,666.0,0.0,1,529.0,1
770,770,-0.3910035459059734,-0.4,1.0,0.0,442.0,544.0,0.0,0,2014.0,1
771,771,0.7844535649681917,0.8,0.0,0.0,255.0,742.0,0.0,1,2003.0,1
772,772,0.8025698128542701,0.8,1.0,1.0,288.0,804.0,1.0,1,58.0,1
773,773,0.2662470200797279,0.3,1.0,1.0,384.0,762.0,0.0,0,1854.0,0
774,774,-0.4014815148781116,-0.4,1.0,0.0,272.0,967.0,0.0,0,1761.0,1
775,775,0.7574653565180695,0.8,1.0,1.0,280.0,801.0,0.0,0,1919.0,0
776,776,0.4196823019944812,0.4,1.0,1.0,423.0,746.0,1.0,1,1831.0,1
777,777,0.7389033149820311,0.7,0.0,0.0,404.0,533.0,0.0,1,903.0,1
778,778,-0.026556807956774953,-0.0,1.0,0.0,261.0,606.0,0.0,0,2133.0,1
779,779,-0.25364748870853404,-0.3,1.0,0.0,430.0,776.0,0.0,0,1794.0,1
780,780,-0.035110440725850234,-0.0,0.0,1.0,385.0,549.0,0.0,1,2066.0,0
781,781,0.48479598930014245,0.5,0.0,0.0,284.0,859.0,0.0,1,1857.0,1
782,782,-0.42052951794331583,-0.4,1.0,0.0,395.0,605.0,0.0,0,2000.0,1
783,783,0.5542248610119379,0.6,0.0,0.0,367.0,625.0,0.0,1,2008.0,1
784,784,-0.07896409867047494,-0.1,1.0,0.0,446.0,533.0,0.0,0,2021.0,1
785,785,-0.8281560415114351,-0.8,0.0,1.0,393.0,901.0,1.0,0,1526.0,1
786,786,-0.8619270785798898,-0.9,1.0,0.0,303.0,522.0,0.0,0,2175.0,1
787,787,-0.43995182677045924,-0.4,1.0,0.0,417.0,728.0,0.0,0,1855.0,1
788,788,0.14402281810313322,0.1,0.0,0.0,424.0,746.0,1.0,0,-430.0,0
789,789,-0.30047802399027346,-0.3,1.0,0.0,329.0,751.0,0.0,0,1920.0,1
790,790,0.4521515405049633,0.5,0.0,0.0,263.0,686.0,1.0,0,2051.0,0
791,791,-0.6058607472846997,-0.6,0.0,1.0,410.0,901.0,1.0,0,899.0,1
792,792,0.30493793940729386,0.3,1.0,1.0,272.0,582.0,1.0,1,766.0,1
793,793,-0.8364413251969157,-0.8,1.0,0.0,315.0,965.0,0.0,0,1720.0,1
794,794,-0.4114864921382838,-0.4,1.0,0.0,489.0,793.0,1.0,1,1718.0,0
795,795,-0.39184810374517676,-0.4,0.0,1.0,373.0,735.0,1.0,0,1032.0,1
796,796,-0.19881797266718493,-0.2,1.0,0.0,427.0,858.0,0.0,0,1715.0,1
797,797,0.7265872385652187,0.7,0.0,0.0,475.0,790.0,0.0,1,1735.0,1
798,798,0.8102537234130828,0.8,1.0,1.0,250.0,899.0,1.0,1,481.0,1
799,799,-0.7199258567407619,-0.7,1.0,0.0,411.0,930.0,0.0,0,1659.0,1
800,800,-0.4954494801709448,-0.5,0.0,1.0,322.0,821.0,0.0,1,537.0,0
801,801,0.18810753733424812,0.2,1.0,1.0,383.0,802.0,0.0,0,1815.0,0
802,802,0.48337565461363685,0.5,1.0,1.0,439.0,996.0,1.0,1,1565.0,1
803,803,-0.48380016784880925,-0.5,0.0,1.0,358.0,755.0,1.0,0,1197.0,1
804,804,0.8408662821352241,0.8,0.0,0.0,411.0,926.0,0.0,1,1013.0,1
805,805,0.4246966518230456,0.4,1.0,1.0,432.0,846.0,1.0,1,1722.0,1
806,806,0.0595521478155151,0.1,1.0,1.0,467.0,803.0,1.0,1,1730.0,1
807,807,0.7173618458334196,0.7,1.0,1.0,261.0,834.0,1.0,1,935.0,1
808,808,0.1778851087664194,0.2,0.0,0.0,354.0,993.0,0.0,1,673.0,1
809,809,0.7081365109349441,0.7,0.0,0.0,306.0,682.0,0.0,1,902.0,1
810,810,-0.6076712870223681,-0.6,0.0,1.0,441.0,885.0,1.0,0,534.0,1
811,811,0.10237819739892517,0.1,1.0,1.0,428.0,765.0,0.0,0,1807.0,0
812,812,-0.648817890923391,-0.6,1.0,0.0,358.0,553.0,1.0,1,-321.0,0
813,813,-0.42284986815805203,-0.4,0.0,1.0,468.0,780.0,1.0,0,1652.0,1
814,814,-0.728968421044188,-0.7,1.0,0.0,277.0,742.0,0.0,0,1981.0,1
815,815,-0.18344120054403046,-0.2,0.0,1.0,353.0,869.0,0.0,1,1778.0,0
816,816,-0.4796942102445764,-0.5,0.0,1.0,386.0,998.0,1.0,0,1016.0,1
817,817,0.40691208462479744,0.4,1.0,1.0,404.0,850.0,0.0,0,1746.0,0
818,818,0.5044151902200692,0.5,1.0,1.0,415.0,575.0,0.0,0,2010.0,0
819,819,-0.770754823099968,-0.8,0.0,1.0,455.0,744.0,1.0,0,1021.0,1
820,820,0.0939190640105868,0.1,0.0,0.0,388.0,945.0,0.0,1,1667.0,1
821,821,-0.3223046219365491,-0.3,1.0,0.0,407.0,783.0,1.0,1,1810.0,0
822,822,-0.4016374359361569,-0.4,0.0,1.0,280.0,770.0,1.0,0,-450.0,1
823,823,0.6840713056461513,0.7,1.0,1.0,347.0,828.0,1.0,1,1505.0,1
824,824,0.1826181308472753,0.2,0.0,0.0,441.0,704.0,0.0,1,515.0,1
825,825,-0.8368609366082028,-0.8,0.0,1.0,263.0,857.0,1.0,0,770.0,1
826,826,0.42385618903580025,0.4,0.0,0.0,351.0,881.0,0.0,1,1768.0,1
827,827,0.2607155942123308,0.3,0.0,0.0,429.0,823.0,0.0,1,1748.0,1
828,828,0.706366549103271,0.7,0.0,0.0,389.0,972.0,0.0,1,1319.0,1
829,829,-0.32252774500279324,-0.3,1.0,0.0,264.0,786.0,0.0,0,1410.0,1
830,830,0.37382205892683407,0.4,0.0,0.0,362.0,653.0,0.0,1,1985.0,1
831,831,-0.6326910322694699,-0.6,1.0,0.0,307.0,511.0,0.0,0,962.0,1
832,832,-0.6513340413305354,-0.7,1.0,0.0,458.0,594.0,0.0,0,1948.0,1
833,833,0.32628187462343405,0.3,1.0,1.0,383.0,944.0,0.0,0,283.0,0
834,834,0.34194021074939884,0.3,1.0,1.0,337.0,801.0,0.0,0,1862.0,0
835,835,0.6279690550024929,0.6,1.0,1.0,369.0,808.0,1.0,1,593.0,1
836,836,-0.46702465595923753,-0.5,0.0,1.0,310.0,882.0,0.0,1,1808.0,0
837,837,-0.6660639182144643,-0.7,1.0,0.0,339.0,874.0,1.0,1,-143.0,0
838,838,-0.6188308422187929,-0.6,0.0,1.0,423.0,845.0,1.0,0,852.0,1
839,839,0.6470862573035708,0.6,1.0,1.0,314.0,624.0,1.0,1,1272.0,1
840,840,-0.4862306732601188,-0.5,1.0,0.0,386.0,988.0,0.0,0,1506.0,1
841,841,0.6366124079617109,0.6,0.0,0.0,293.0,758.0,0.0,1,1949.0,1
842,842,0.4698434203021812,0.5,1.0,1.0,352.0,675.0,1.0,1,373.0,1
843,843,-0.6365450830504846,-0.6,1.0,0.0,252.0,827.0,0.0,0,411.0,1
844,844,-0.3992094489772432,-0.4,1.0,0.0,319.0,826.0,0.0,0,1855.0,1
845,845,-0.20101215990526033,-0.2,1.0,0.0,370.0,778.0,0.0,0,1852.0,1
846,846,0.30841386017019523,0.3,1.0,1.0,341.0,751.0,1.0,1,1908.0,1
847,847,0.23893468096318282,0.2,1.0,1.0,300.0,952.0,0.0,0,1748.0,0
848,848,-0.7857479147715556,-0.8,0.0,1.0,344.0,655.0,1.0,0,1351.0,1
849,849,0.6566219165173094,0.7,1.0,1.0,251.0,568.0,1.0,1,1961.0,1
850,850,-0.11107687205773331,-0.1,0.0,1.0,445.0,753.0,0.0,1,-688.0,0
851,851,0.44328508913266573,0.4,1.0,1.0,311.0,808.0,0.0,0,1881.0,0
852,852,-0.760487723180403,-0.8,1.0,0.0,287.0,794.0,0.0,0,1829.0,1
853,853,0.46381264491049345,0.5,0.0,0.0,382.0,896.0,0.0,1,1722.0,1
854,854,-0.6296016843172196,-0.6,0.0,1.0,408.0,931.0,1.0,0,411.0,1
855,855,-0.7670402711101304,-0.8,0.0,1.0,477.0,547.0,1.0,0,-4.0,1
856,856,0.5174915735486004,0.5,0.0,0.0,452.0,599.0,0.0,1,1869.0,1
857,857,0.8886722961729007,0.9,1.0,1.0,257.0,538.0,1.0,1,2205.0,1
858,858,0.24637072487019995,0.2,0.0,0.0,465.0,865.0,0.0,1,1670.0,1
859,859,-0.5833398368148383,-0.6,0.0,1.0,282.0,846.0,1.0,0,472.0,1
860,860,0.4136277160251657,0.4,1.0,1.0,399.0,932.0,1.0,1,869.0,1
861,861,-0.007381914711073634,-0.0,0.0,1.0,350.0,938.0,0.0,1,1712.0,0
862,862,-0.11205146080126305,-0.1,0.0,1.0,266.0,630.0,1.0,0,2104.0,1
863,863,-0.18499766673039864,-0.2,1.0,0.0,314.0,825.0,0.0,0,1861.0,1
864,864,0.8921380761977978,0.9,1.0,1.0,481.0,659.0,1.0,1,860.0,1
865,865,-0.2119344197935754,-0.2,0.0,1.0,497.0,807.0,1.0,0,1646.0,1
866,866,0.7431182945198572,0.7,1.0,1.0,271.0,772.0,0.0,0,1957.0,0
867,867,-0.19883646392491894,-0.2,1.0,0.0,402.0,643.0,0.0,0,1955.0,1
868,868,-0.31326267901090543,-0.3,0.0,1.0,333.0,592.0,1.0,0,945.0,1
869,869,0.8049932977008821,0.8,0.0,0.0,400.0,935.0,0.0,1,1665.0,1
870,870,0.24925414790144773,0.2,0.0,0.0,457.0,937.0,0.0,1,1606.0,1
871,871,0.2627685831866077,0.3,0.0,0.0,298.0,806.0,0.0,1,1896.0,1
872,872,0.7609066651078381,0.8,1.0,1.0,351.0,976.0,0.0,0,1673.0,0
873,873,-0.438507288429236,-0.4,0.0,1.0,453.0,952.0,1.0,0,795.0,1
874,874,-0.30476799894326934,-0.3,0.0,1.0,255.0,802.0,1.0,0,163.0,1
875,875,0.6801594579585287,0.7,0.0,0.0,266.0,598.0,0.0,1,2136.0,1
876,876,0.874181432654867,0.9,1.0,1.0,475.0,793.0,0.0,0,-948.0,0
877,877,0.48864314802479536,0.5,0.0,0.0,404.0,828.0,0.0,1,-732.0,1
878,878,0.4837101961523197,0.5,0.0,0.0,480.0,667.0,0.0,1,1033.0,1
879,879,0.2449835976286846,0.2,0.0,0.0,459.0,561.0,0.0,1,1980.0,1
880,880,-0.3760853269254649,-0.4,1.0,0.0,328.0,964.0,0.0,0,1708.0,1
881,881,0.5589019365366247,0.6,0.0,0.0,411.0,719.0,0.0,1,1870.0,1
882,882,0.27432098991855136,0.3,0.0,0.0,463.0,614.0,0.0,1,1923.0,1
883,883,0.6975651146981526,0.7,0.0,0.0,427.0,929.0,0.0,1,1214.0,1
884,884,0.7742436823261146,0.8,1.0,1.0,373.0,734.0,1.0,1,1103.0,1
885,885,0.8715001527742018,0.9,1.0,1.0,352.0,539.0,1.0,1,1149.0,1
886,886,0.7253333047311202,0.7,0.0,0.0,253.0,880.0,0.0,1,1867.0,1
887,887,-0.357812982655921,-0.4,0.0,1.0,403.0,541.0,1.0,0,1676.0,1
888,888,0.8788725350367063,0.9,1.0,1.0,447.0,626.0,1.0,1,167.0,1
889,889,-0.5827440633430779,-0.6,1.0,0.0,298.0,548.0,0.0,0,2024.0,1
890,890,-0.05255169007762517,-0.1,0.0,1.0,382.0,690.0,1.0,0,-92.0,1
891,891,0.5935320381379737,0.6,0.0,0.0,407.0,941.0,0.0,1,172.0,1
892,892,-0.00020111450968762767,-0.0,0.0,1.0,449.0,778.0,1.0,0,1773.0,1
893,893,-0.4794060121718042,-0.5,0.0,1.0,422.0,712.0,1.0,0,666.0,1
894,894,-0.661739284250523,-0.7,1.0,0.0,436.0,723.0,0.0,0,1321.0,1
895,895,-0.27129587332642136,-0.3,1.0,0.0,363.0,522.0,0.0,0,2015.0,1
896,896,-0.7162710727595314,-0.7,0.0,1.0,306.0,983.0,1.0,0,381.0,1
897,897,0.19344792663960864,0.2,0.0,0.0,402.0,877.0,1.0,0,1721.0,0
898,898,0.35256356723989735,0.4,1.0,1.0,324.0,603.0,1.0,1,693.0,1
899,899,-0.8856739264119842,-0.9,0.0,1.0,292.0,728.0,1.0,0,870.0,1
900,900,-0.3762661493280447,-0.4,0.0,1.0,470.0,630.0,1.0,0,360.0,1
901,901,0.8688075412421,0.9,1.0,1.0,425.0,927.0,1.0,1,208.0,1
902,902,-0.5813920044904628,-0.6,0.0,1.0,403.0,851.0,1.0,0,1746.0,1
903,903,0.20534418039153424,0.2,0.0,0.0,432.0,899.0,1.0,0,-791.0,0
904,904,-0.2961077551159036,-0.3,1.0,0.0,480.0,792.0,0.0,0,1728.0,1
905,905,0.2796881348989867,0.3,1.0,1.0,365.0,790.0,0.0,0,1845.0,0
906,906,0.4174187853629666,0.4,0.0,0.0,325.0,721.0,0.0,1,1954.0,1
907,907,-0.142710236180983,-0.1,1.0,0.0,302.0,575.0,0.0,0,2123.0,1
908,908,0.020786964754574755,0.0,1.0,1.0,305.0,857.0,0.0,0,1838.0,0
909,909,-0.14728408967091633,-0.1,1.0,0.0,333.0,736.0,0.0,0,1931.0,1
910,910,-0.10236900098104362,-0.1,0.0,1.0,263.0,721.0,1.0,0,-4.0,1
911,911,-0.35438561813030767,-0.4,1.0,0.0,288.0,795.0,0.0,0,1917.0,1
912,912,0.30151532711036,0.3,0.0,0.0,402.0,995.0,1.0,0,1603.0,0
913,913,0.5336743093126498,0.5,0.0,0.0,495.0,989.0,0.0,1,1056.0,1
914,914,-0.14583801889588166,-0.1,0.0,1.0,377.0,637.0,0.0,1,1986.0,0
915,915,-0.024571219093011076,-0.0,1.0,0.0,306.0,661.0,0.0,0,2033.0,1
916,916,-0.305890349442424,-0.3,1.0,0.0,411.0,612.0,0.0,0,1977.0,1
917,917,-0.3818456497401157,-0.4,1.0,0.0,394.0,665.0,0.0,0,1541.0,1
918,918,-0.452746606085791,-0.5,1.0,0.0,430.0,698.0,0.0,0,1362.0,1
919,919,-0.8106972751679558,-0.8,0.0,1.0,385.0,616.0,1.0,0,739.0,1
920,920,-0.41848992654019357,-0.4,0.0,1.0,412.0,627.0,1.0,0,1151.0,1
921,921,-0.06983162413523691,-0.1,1.0,0.0,374.0,674.0,1.0,1,1952.0,0
922,922,0.5093670718152262,0.5,0.0,0.0,444.0,791.0,0.0,1,1285.0,1
923,923,0.41035035296514166,0.4,0.0,0.0,384.0,859.0,0.0,1,1757.0,1
924,924,0.7714401224477007,0.8,0.0,0.0,350.0,883.0,0.0,1,597.0,1
925,925,-0.33040888172991756,-0.3,0.0,1.0,374.0,926.0,0.0,1,1700.0,0
926,926,-0.7142641763343269,-0.7,0.0,1.0,448.0,896.0,1.0,0,-154.0,1
927,927,-0.6330578338873281,-0.6,0.0,1.0,295.0,567.0,1.0,0,-42.0,1
928,928,-0.8184016706740731,-0.8,1.0,0.0,457.0,782.0,0.0,0,1691.0,1
929,929,-0.17053294884126802,-0.2,1.0,0.0,432.0,808.0,1.0,1,1760.0,0
930,930,0.6435881923498582,0.6,0.0,0.0,492.0,826.0,0.0,1,232.0,1
931,931,-0.5455756140568939,-0.5,0.0,1.0,324.0,940.0,1.0,0,1106.0,1
932,932,0.6226829414256113,0.6,0.0,0.0,356.0,514.0,0.0,1,310.0,1
933,933,0.07312725377375284,0.1,0.0,0.0,253.0,628.0,0.0,1,409.0,1
934,934,0.3752980250414252,0.4,1.0,1.0,329.0,620.0,1.0,1,1991.0,1
935,935,-0.6209942501053144,-0.6,1.0,0.0,409.0,620.0,0.0,0,1971.0,1
936,936,0.5121305351306017,0.5,1.0,1.0,382.0,620.0,1.0,1,1998.0,1
937,937,0.054457323719398376,0.1,1.0,1.0,403.0,734.0,1.0,1,1863.0,1
938,938,0.14950708933027335,0.1,1.0,1.0,387.0,874.0,0.0,0,599.0,0
939,939,-0.8607122488829888,-0.9,0.0,1.0,401.0,508.0,1.0,0,401.0,1
940,940,-0.33539204291806946,-0.3,0.0,1.0,380.0,566.0,1.0,0,1494.0,1
941,941,0.09009229824209408,0.1,1.0,1.0,452.0,887.0,0.0,0,1661.0,0
942,942,0.7371460296209166,0.7,0.0,0.0,281.0,857.0,0.0,1,252.0,1
943,943,-0.6657388052609958,-0.7,1.0,0.0,435.0,994.0,0.0,0,191.0,1
944,944,0.5058462809211731,0.5,0.0,0.0,309.0,738.0,0.0,1,683.0,1
945,945,-0.4748455944640307,-0.5,1.0,0.0,358.0,562.0,0.0,0,2080.0,1
946,946,0.685847242944217,0.7,1.0,1.0,442.0,930.0,1.0,1,1358.0,1
947,947,-0.808244373207523,-0.8,1.0,0.0,474.0,596.0,0.0,0,390.0,1
948,948,-0.08936216785271045,-0.1,1.0,0.0,268.0,657.0,0.0,0,1595.0,1
949,949,0.21059183542514892,0.2,0.0,0.0,457.0,558.0,0.0,1,1985.0,1
950,950,0.5181333143234369,0.5,0.0,0.0,252.0,510.0,0.0,1,2238.0,1
951,951,-0.8516558313819885,-0.9,0.0,1.0,454.0,965.0,1.0,0,451.0,1
952,952,-0.25010471346780483,-0.3,0.0,1.0,369.0,963.0,1.0,0,1668.0,1
953,953,0.381809065735634,0.4,0.0,0.0,492.0,589.0,1.0,0,1919.0,0
954,954,0.6805281168517366,0.7,0.0,0.0,269.0,681.0,0.0,1,1260.0,1
955,955,0.22807794511110246,0.2,1.0,1.0,317.0,886.0,1.0,1,1797.0,1
956,956,0.4656088268569726,0.5,0.0,0.0,405.0,878.0,0.0,1,197.0,1
957,957,-0.3887586622326554,-0.4,1.0,0.0,444.0,959.0,0.0,0,1597.0,1
958,958,0.5437238236318264,0.5,1.0,1.0,363.0,714.0,1.0,1,1923.0,1
959,959,-0.3965617727586581,-0.4,1.0,0.0,380.0,884.0,0.0,0,1736.0,1
960,960,0.4284986328120287,0.4,1.0,1.0,444.0,853.0,0.0,0,1703.0,0
961,961,-0.799699458953531,-0.8,1.0,0.0,319.0,638.0,0.0,0,2043.0,1
962,962,-0.15146445631629746,-0.2,1.0,0.0,452.0,613.0,0.0,0,1935.0,1
963,963,-0.7374573893722549,-0.7,0.0,1.0,493.0,866.0,1.0,0,241.0,1
964,964,-0.00980437621018393,-0.0,1.0,0.0,477.0,584.0,0.0,0,1939.0,1
965,965,-0.4967814785414782,-0.5,0.0,1.0,418.0,979.0,0.0,1,-257.0,0
966,966,-0.0041241278731810604,-0.0,1.0,0.0,338.0,966.0,0.0,0,1696.0,1
967,967,0.8104669719041312,0.8,0.0,0.0,293.0,546.0,0.0,1,2161.0,1
968,968,-0.5972050044129542,-0.6,0.0,1.0,492.0,664.0,1.0,0,754.0,1
969,969,-0.19352937452847208,-0.2,0.0,1.0,467.0,527.0,0.0,1,2006.0,0
970,970,-0.2569447342234481,-0.3,1.0,0.0,268.0,625.0,0.0,0,2107.0,1
971,971,0.2572939708788783,0.3,1.0,1.0,385.0,645.0,1.0,1,1970.0,1
972,972,-0.6479555274948896,-0.6,0.0,1.0,479.0,703.0,1.0,0,868.0,1
973,973,0.05637635666099816,0.1,0.0,0.0,429.0,575.0,1.0,0,1996.0,0
974,974,0.7338641469479158,0.7,1.0,1.0,356.0,887.0,1.0,1,857.0,1
975,975,-0.4633195726033207,-0.5,0.0,1.0,300.0,961.0,1.0,0,1189.0,1
976,976,0.12651603711792403,0.1,0.0,0.0,401.0,659.0,0.0,1,1940.0,1
977,977,-0.21766860554409662,-0.2,1.0,0.0,395.0,532.0,0.0,0,2073.0,1
978,978,-0.8160226822065078,-0.8,1.0,0.0,470.0,930.0,1.0,1,-410.0,0
979,979,0.5131045078942734,0.5,1.0,1.0,266.0,682.0,1.0,1,542.0,1
980,980,0.8648200672451104,0.9,1.0,1.0,373.0,856.0,1.0,1,361.0,1
981,981,-0.6920199649754554,-0.7,0.0,1.0,386.0,885.0,1.0,0,299.0,1
982,982,-0.21548340342606098,-0.2,1.0,0.0,358.0,738.0,0.0,0,1724.0,1
983,983,-0.2892821983275542,-0.3,1.0,0.0,329.0,580.0,1.0,1,1471.0,0
984,984,-0.2915635331979428,-0.3,0.0,1.0,295.0,996.0,0.0,1,1709.0,0
985,985,0.5819399054132858,0.6,1.0,1.0,469.0,891.0,1.0,1,1640.0,1
986,986,0.7930093548527478,0.8,0.0,0.0,273.0,966.0,0.0,1,1311.0,1
987,987,-0.25667722106776536,-0.3,1.0,0.0,327.0,541.0,0.0,0,2132.0,1
988,988,0.8507964559144517,0.9,0.0,0.0,290.0,733.0,0.0,1,1177.0,1
989,989,0.8090944403554771,0.8,0.0,0.0,278.0,906.0,0.0,1,1816.0,1
990,990,-0.14597661146354168,-0.1,1.0,0.0,388.0,741.0,0.0,0,1871.0,1
991,991,-0.24809094031059398,-0.2,1.0,0.0,412.0,543.0,0.0,0,2035.0,1
992,992,-0.3774675593125325,-0.4,1.0,0.0,498.0,709.0,0.0,0,1793.0,1
993,993,-0.1426135002938953,-0.1,0.0,1.0,427.0,965.0,1.0,0,-772.0,1
994,994,-0.6937153079778076,-0.7,0.0,1.0,499.0,980.0,1.0,0,481.0,1
995,995,-0.8680666749682822,-0.9,1.0,0.0,401.0,584.0,0.0,0,2015.0,1
996,996,0.05787212827589472,0.1,1.0,1.0,394.0,511.0,1.0,1,-55.0,1
997,997,0.3270864063535922,0.3,0.0,0.0,373.0,894.0,0.0,1,1043.0,1
998,998,0.03937793506898346,0.0,0.0,0.0,342.0,939.0,1.0,0,-161.0,0
999,999,-0.21596584177403788,-0.2,0.0,1.0,401.0,586.0,0.0,1,2013.0,0
1000,1000,0.8980768207783719,0.9,0.0,0.0,306.0,917.0,0.0,1,447.0,1
1001,1001,0.8069444047989537,0.8,1.0,1.0,304.0,670.0,1.0,1,1016.0,1
1002,1002,0.4541690779668216,0.5,1.0,1.0,385.0,826.0,1.0,1,479.0,1
1003,1003,-0.8344585809612296,-0.8,1.0,0.0,489.0,635.0,0.0,0,1876.0,1
1004,1004,-0.7184022242929202,-0.7,0.0,1.0,496.0,940.0,1.0,0,204.0,1
1005,1005,-0.8833020199017604,-0.9,1.0,0.0,440.0,545.0,0.0,0,1195.0,1
1006,1006,-0.100963943870927,-0.1,0.0,1.0,295.0,975.0,1.0,0,10.0,1
1007,1007,-0.3585856670285409,-0.4,0.0,1.0,250.0,735.0,1.0,0,2015.0,1
1008,1008,-0.15260588780111073,-0.2,0.0,1.0,294.0,541.0,1.0,0,1815.0,1
1009,1009,-0.02982125776096689,-0.0,1.0,0.0,279.0,541.0,0.0,0,2180.0,1
1010,1010,-0.21143333746912873,-0.2,1.0,0.0,375.0,830.0,1.0,1,1795.0,0
1011,1011,0.854391356127353,0.9,1.0,1.0,335.0,880.0,1.0,1,835.0,1
1012,1012,-0.05091066104005404,-0.1,0.0,1.0,346.0,833.0,1.0,0,1821.0,1
1013,1013,-0.31949242507571274,-0.3,1.0,0.0,413.0,540.0,0.0,0,2047.0,1
1014,1014,-0.6285086661528336,-0.6,1.0,0.0,340.0,777.0,0.0,0,1883.0,1
1015,1015,0.8635328073284568,0.9,1.0,1.0,456.0,568.0,1.0,1,1976.0,1
1016,1016,-0.6521001854834655,-0.7,1.0,0.0,490.0,789.0,0.0,0,1721.0,1
1017,1017,0.05622521240829115,0.1,0.0,0.0,269.0,735.0,1.0,0,1016.0,0
1018,1018,0.11701424380565617,0.1,0.0,0.0,433.0,667.0,0.0,1,1900.0,1
1019,1019,-0.1358930598839594,-0.1,0.0,1.0,250.0,843.0,1.0,0,507.0,1
1020,1020,-0.4957877556759966,-0.5,1.0,0.0,470.0,766.0,0.0,0,594.0,1
1021,1021,0.6773693276117231,0.7,1.0,1.0,354.0,642.0,1.0,1,534.0,1
1022,1022,0.07680191654683932,0.1,0.0,0.0,496.0,666.0,0.0,1,1418.0,1
1023,1023,0.44933724663959895,0.4,1.0,1.0,341.0,790.0,0.0,0,219.0,0
1024,1024,0.07544294054363976,0.1,0.0,0.0,314.0,626.0,0.0,1,2060.0,1
1025,1025,0.5910847422378976,0.6,0.0,0.0,436.0,583.0,0.0,1,1981.0,1
1026,1026,0.0906479843528184,0.1,0.0,0.0,275.0,916.0,0.0,1,1809.0,1
1027,1027,-0.175230528471495,-0.2,0.0,1.0,365.0,508.0,1.0,0,2127.0,1
1028,1028,-0.2757073156798261,-0.3,0.0,1.0,425.0,510.0,1.0,0,745.0,1
1029,1029,-0.34771230200221015,-0.3,0.0,1.0,362.0,558.0,0.0,1,180.0,0
1030,1030,0.10941139648399789,0.1,0.0,0.0,404.0,943.0,1.0,0,1653.0,0
1031,1031,0.15886272623802478,0.2,1.0,1.0,447.0,878.0,0.0,0,1675.0,0
1032,1032,-0.6816890275053956,-0.7,1.0,0.0,281.0,932.0,0.0,0,1787.0,1
1033,1033,-0.45067060492707084,-0.5,0.0,1.0,273.0,583.0,1.0,0,1864.0,1
1034,1034,0.33223635359999604,0.3,0.0,0.0,305.0,975.0,0.0,1,1720.0,1
1035,1035,0.7375323805514556,0.7,0.0,0.0,432.0,740.0,0.0,1,1418.0,1
1036,1036,-0.08029365810727751,-0.1,0.0,1.0,368.0,545.0,0.0,1,2087.0,0
1037,1037,-0.4481054330340744,-0.4,1.0,0.0,469.0,707.0,0.0,0,1824.0,1
1038,1038,0.7800258797184153,0.8,1.0,1.0,436.0,663.0,1.0,1,651.0,1
1039,1039,0.02980921735295028,0.0,0.0,0.0,279.0,989.0,1.0,0,1732.0,0
1040,1040,-0.7331759072963738,-0.7,0.0,1.0,261.0,790.0,1.0,0,1239.0,1
1041,1041,-0.6228416701177086,-0.6,1.0,0.0,306.0,940.0,0.0,0,1754.0,1
1042,1042,-0.10922455008665155,-0.1,1.0,0.0,278.0,889.0,0.0,0,1833.0,1
1043,1043,0.14399512818177806,0.1,0.0,0.0,381.0,814.0,0.0,1,1805.0,1
1044,1044,-0.7841109430225655,-0.8,0.0,1.0,497.0,534.0,1.0,0,139.0,1
1045,1045,0.0191224510720599,0.0,0.0,0.0,361.0,669.0,0.0,1,610.0,1
1046,1046,-0.4341529764375503,-0.4,1.0,0.0,329.0,560.0,0.0,0,601.0,1
1047,1047,-0.03744770413541354,-0.0,1.0,0.0,268.0,910.0,1.0,1,1822.0,0
1048,1048,-0.4487785610258006,-0.4,0.0,1.0,255.0,815.0,1.0,0,1180.0,1
1049,1049,-0.48088561445228195,-0.5,0.0,1.0,450.0,503.0,0.0,1,2047.0,0
1050,1050,-0.2866763469119281,-0.3,0.0,1.0,488.0,526.0,1.0,0,1066.0,1
1051,1051,0.7203228194277781,0.7,0.0,0.0,432.0,678.0,0.0,1,430.0,1
1052,1052,0.6908291779724575,0.7,1.0,1.0,372.0,646.0,1.0,1,1982.0,1
1053,1053,-0.49599274661770043,-0.5,1.0,0.0,285.0,700.0,1.0,1,-115.0,0
1054,1054,-0.5224999201282585,-0.5,0.0,1.0,334.0,995.0,1.0,0,1201.0,1
1055,1055,-0.8184080058875187,-0.8,0.0,1.0,334.0,746.0,1.0,0,630.0,1
1056,1056,0.8746693482861349,0.9,0.0,0.0,258.0,501.0,0.0,1,1551.0,1
1057,1057,0.4845515938130035,0.5,1.0,1.0,313.0,508.0,1.0,1,2179.0,1
1058,1058,0.3663011297353779,0.4,1.0,1.0,263.0,518.0,1.0,1,2219.0,1
1059,1059,-0.45641338134374765,-0.5,1.0,0.0,384.0,718.0,0.0,0,618.0,1
1060,1060,0.4660683377659697,0.5,0.0,0.0,430.0,654.0,0.0,1,1916.0,1
1061,1061,0.28750882519628906,0.3,0.0,0.0,275.0,732.0,0.0,1,723.0,1
1062,1062,0.5550406925329648,0.6,1.0,1.0,374.0,718.0,1.0,1,1548.0,1
1063,1063,0.3289269842113428,0.3,0.0,0.0,290.0,571.0,0.0,1,2139.0,1
1064,1064,-0.8757942383500964,-0.9,0.0,1.0,489.0,545.0,1.0,0,396.0,1
1065,1065,-0.3813909416099178,-0.4,0.0,1.0,370.0,946.0,1.0,0,1604.0,1
1066,1066,-0.5134732662264143,-0.5,0.0,1.0,437.0,745.0,1.0,0,1818.0,1
1067,1067,-0.21565676539416756,-0.2,0.0,1.0,338.0,965.0,1.0,0,1697.0,1
1068,1068,0.6467759239289298,0.6,1.0,1.0,304.0,584.0,0.0,0,2112.0,0
1069,1069,0.4204103813914536,0.4,0.0,0.0,445.0,845.0,0.0,1,1100.0,1
1070,1070,-0.2696558642139909,-0.3,1.0,0.0,408.0,972.0,0.0,0,1620.0,1
1071,1071,-0.6069937347791109,-0.6,1.0,0.0,372.0,882.0,0.0,0,1746.0,1
1072,1072,0.5874771158755617,0.6,1.0,1.0,456.0,670.0,1.0,1,1484.0,1
1073,1073,-0.8202274389328951,-0.8,0.0,1.0,469.0,617.0,1.0,0,524.0,1
1074,1074,-0.5719455979463752,-0.6,0.0,1.0,310.0,774.0,1.0,0,986.0,1
1075,1075,-0.8327718408764138,-0.8,1.0,0.0,286.0,885.0,0.0,0,1829.0,1
1076,1076,-0.02546933377402205,-0.0,0.0,1.0,347.0,938.0,1.0,0,175.0,1
1077,1077,-0.0765693408655348,-0.1,1.0,0.0,464.0,959.0,0.0,0,1577.0,1
1078,1078,0.5323519136787233,0.5,0.0,0.0,425.0,561.0,0.0,1,694.0,1
1079,1079,-0.2781666559886016,-0.3,1.0,0.0,468.0,939.0,0.0,0,1593.0,1
1080,1080,0.47924413411734446,0.5,0.0,0.0,455.0,662.0,0.0,1,1883.0,1
1081,1081,0.8222006878704703,0.8,0.0,0.0,303.0,764.0,0.0,1,1933.0,1
1082,1082,0.396887770894797,0.4,1.0,1.0,287.0,623.0,1.0,1,400.0,1
1083,1083,0.44178874607738894,0.4,1.0,1.0,413.0,865.0,0.0,0,-398.0,0
1084,1084,-0.7765386115440249,-0.8,1.0,0.0,417.0,607.0,0.0,0,1976.0,1
1085,1085,-0.7883495705897389,-0.8,0.0,1.0,483.0,915.0,1.0,0,1282.0,1
1086,1086,0.6612292756352197,0.7,1.0,1.0,358.0,846.0,0.0,0,1796.0,0
1087,1087,0.8327352813522365,0.8,0.0,0.0,346.0,596.0,0.0,1,898.0,1
1088,1088,0.22690083196837663,0.2,1.0,1.0,480.0,684.0,1.0,1,1836.0,1
1089,1089,0.48014395402373256,0.5,0.0,0.0,310.0,974.0,0.0,1,636.0,1
1090,1090,-0.7443561418888982,-0.7,1.0,0.0,332.0,990.0,1.0,1,-12.0,0
1091,1091,0.10962165798942103,0.1,1.0,1.0,350.0,615.0,0.0,0,2035.0,0
1092,1092,0.1678652051790378,0.2,1.0,1.0,431.0,674.0,0.0,0,1895.0,0
1093,1093,-0.5604625946725048,-0.6,0.0,1.0,491.0,876.0,0.0,1,-247.0,0
1094,1094,-0.7864530791415295,-0.8,0.0,1.0,253.0,753.0,1.0,0,454.0,1
1095,1095,0.2903443723721998,0.3,0.0,0.0,302.0,842.0,1.0,0,1856.0,0
1096,1096,0.5775060710397931,0.6,0.0,0.0,277.0,846.0,0.0,1,857.0,1
1097,1097,-0.781742584103858,-0.8,1.0,0.0,425.0,782.0,0.0,0,583.0,1
1098,1098,0.3937134725166077,0.4,0.0,0.0,371.0,527.0,0.0,1,192.0,1
1099,1099,-0.45700360353655106,-0.5,1.0,0.0,452.0,531.0,0.0,0,2017.0,1
1100,1100,-0.7878742006549272,-0.8,1.0,0.0,303.0,678.0,0.0,0,2019.0,1
1101,1101,0.8149661359751287,0.8,0.0,0.0,278.0,621.0,0.0,1,511.0,1
1102,1102,0.07694512823085597,0.1,0.0,0.0,290.0,620.0,1.0,0,-340.0,0
1103,1103,0.4828286561383287,0.5,1.0,1.0,319.0,504.0,1.0,1,1087.0,1
1104,1104,-0.5715371372824914,-0.6,0.0,1.0,455.0,775.0,1.0,0,1740.0,1
1105,1105,0.44956475585049305,0.4,1.0,1.0,337.0,860.0,1.0,1,1273.0,1
1106,1106,0.34232538180016114,0.3,0.0,0.0,351.0,619.0,0.0,1,2030.0,1
1107,1107,0.7886179247713444,0.8,1.0,1.0,397.0,680.0,1.0,1,553.0,1
1108,1108,0.4963631084554855,0.5,0.0,0.0,390.0,731.0,0.0,1,79.0,1
1109,1109,0.002810402432464998,0.0,1.0,1.0,481.0,653.0,0.0,0,1866.0,0
1110,1110,-0.19847793681810777,-0.2,0.0,1.0,446.0,503.0,1.0,0,521.0,1
1111,1111,0.2527791091347261,0.3,1.0,1.0,332.0,945.0,0.0,0,1723.0,0
1112,1112,0.7622752921198303,0.8,0.0,0.0,382.0,944.0,0.0,1,1674.0,1
1113,1113,-0.3507914540779694,-0.4,1.0,0.0,428.0,939.0,0.0,0,583.0,1
1114,1114,-0.1380978207706547,-0.1,1.0,0.0,269.0,728.0,0.0,0,2003.0,1
1115,1115,0.13248694282918982,0.1,1.0,1.0,447.0,578.0,1.0,1,1975.0,1
1116,1116,-0.09131901375337981,-0.1,1.0,0.0,316.0,739.0,0.0,0,1945.0,1
1117,1117,0.7480888966914173,0.7,0.0,0.0,352.0,762.0,0.0,1,1216.0,1
1118,1118,-0.02477587911779744,-0.0,1.0,0.0,320.0,765.0,0.0,0,1915.0,1
1119,1119,-0.19388301905466743,-0.2,1.0,0.0,398.0,934.0,0.0,0,1668.0,1
1120,1120,0.20830978472052208,0.2,1.0,1.0,438.0,583.0,0.0,0,1979.0,0
1121,1121,-0.3910816449329034,-0.4,0.0,1.0,258.0,723.0,1.0,0,859.0,1
1122,1122,-0.013816409446108846,-0.0,0.0,1.0,313.0,602.0,1.0,0,565.0,1
1123,1123,-0.2993073864283279,-0.3,1.0,0.0,361.0,600.0,1.0,1,1889.0,0
1124,1124,0.15875999061807955,0.2,1.0,1.0,283.0,972.0,0.0,0,1745.0,0
1125,1125,-0.6329735458249535,-0.6,0.0,1.0,335.0,593.0,1.0,0,312.0,1
1126,1126,-0.8738596157530679,-0.9,1.0,0.0,476.0,763.0,0.0,0,1761.0,1
1127,1127,0.8363686529493094,0.8,0.0,0.0,259.0,830.0,0.0,1,1151.0,1
1128,1128,0.38074918278453673,0.4,1.0,1.0,254.0,819.0,1.0,1,1927.0,1
1129,1129,-0.17630768878972103,-0.2,1.0,0.0,302.0,671.0,0.0,0,2027.0,1
1130,1130,-0.3191259245736042,-0.3,0.0,1.0,334.0,710.0,0.0,1,1956.0,0
1131,1131,-0.5699842681497709,-0.6,1.0,0.0,269.0,832.0,0.0,0,929.0,1
1132,1132,-0.26225542162586846,-0.3,1.0,0.0,295.0,693.0,1.0,1,2012.0,0
1133,1133,-0.3167578422912617,-0.3,0.0,1.0,358.0,678.0,0.0,1,1964.0,0
1134,1134,-0.0005335212104962128,-0.0,1.0,0.0,313.0,946.0,0.0,0,761.0,1
1135,1135,0.5231675289924264,0.5,0.0,0.0,355.0,962.0,0.0,1,1683.0,1
1136,1136,-0.05747971436842325,-0.1,1.0,0.0,434.0,602.0,0.0,0,934.0,1
1137,1137,0.5224960135555233,0.5,0.0,0.0,366.0,946.0,0.0,1,-332.0,1
1138,1138,0.44127783853873426,0.4,0.0,0.0,455.0,751.0,0.0,1,1794.0,1
1139,1139,0.01664046563532784,0.0,1.0,1.0,457.0,809.0,1.0,1,1734.0,1
1140,1140,-0.32981508727346687,-0.3,1.0,0.0,351.0,665.0,0.0,0,1154.0,1
1141,1141,-0.7280057500814023,-0.7,1.0,0.0,304.0,787.0,0.0,0,1909.0,1
1142,1142,-0.3685838831719751,-0.4,1.0,0.0,375.0,787.0,0.0,0,1278.0,1
1143,1143,-0.40767829237886766,-0.4,0.0,1.0,361.0,589.0,1.0,0,2050.0,1
1144,1144,0.5088546702155293,0.5,0.0,0.0,441.0,539.0,1.0,0,2020.0,0
1145,1145,0.4067457451351245,0.4,1.0,1.0,499.0,976.0,1.0,1,1525.0,1
1146,1146,0.2078704927651146,0.2,0.0,0.0,474.0,857.0,0.0,1,1669.0,1
1147,1147,0.7192790244503969,0.7,1.0,1.0,345.0,791.0,1.0,1,374.0,1
1148,1148,0.21907134710427634,0.2,1.0,1.0,375.0,554.0,0.0,0,2071.0,0
1149,1149,-0.44873718369626475,-0.4,0.0,1.0,438.0,557.0,1.0,0,2005.0,1
1150,1150,-0.574777524841197,-0.6,1.0,0.0,495.0,811.0,0.0,0,1514.0,1
1151,1151,-0.8551488664184761,-0.9,1.0,0.0,356.0,502.0,0.0,0,2142.0,1
1152,1152,0.1548899867289063,0.2,1.0,1.0,267.0,638.0,0.0,0,2095.0,0
1153,1153,0.34085650380615606,0.3,0.0,0.0,432.0,535.0,0.0,1,563.0,1
1154,1154,0.213298037382336,0.2,1.0,1.0,455.0,996.0,1.0,1,1549.0,1
1155,1155,0.6942884169844402,0.7,1.0,1.0,426.0,889.0,1.0,1,325.0,1
1156,1156,-0.7965778220488448,-0.8,0.0,1.0,281.0,693.0,1.0,0,736.0,1
1157,1157,-0.17033088422657328,-0.2,0.0,1.0,280.0,544.0,1.0,0,2176.0,1
1158,1158,0.49103785255696464,0.5,0.0,0.0,377.0,904.0,1.0,0,1719.0,0
1159,1159,-0.37713640659798675,-0.4,1.0,0.0,473.0,832.0,0.0,0,1695.0,1
1160,1160,0.2566618264632322,0.3,0.0,0.0,426.0,840.0,1.0,0,454.0,0
1161,1161,-0.7121257242811648,-0.7,1.0,0.0,310.0,516.0,0.0,0,1804.0,1
1162,1162,-0.23030683064178237,-0.2,0.0,1.0,458.0,908.0,0.0,1,1634.0,0
1163,1163,-0.12098550181339363,-0.1,0.0,1.0,339.0,953.0,0.0,1,1708.0,0
1164,1164,0.6741426130264317,0.7,0.0,0.0,490.0,781.0,0.0,1,619.0,1
1165,1165,0.3715503028997559,0.4,1.0,1.0,317.0,750.0,1.0,1,1933.0,1
1166,1166,0.1513374740051735,0.2,1.0,1.0,385.0,618.0,0.0,0,1997.0,0
1167,1167,-0.33778114959554095,-0.3,1.0,0.0,288.0,665.0,0.0,0,2047.0,1
1168,1168,-0.26223728010730385,-0.3,1.0,0.0,496.0,894.0,0.0,0,1610.0,1
1169,1169,-0.5172795724649242,-0.5,0.0,1.0,410.0,556.0,1.0,0,2034.0,1
1170,1170,-0.5107090705107866,-0.5,0.0,1.0,495.0,677.0,0.0,1,-382.0,0
1171,1171,-0.24680701871416155,-0.2,1.0,0.0,453.0,732.0,0.0,0,635.0,1
1172,1172,0.6408464223702534,0.6,0.0,0.0,273.0,726.0,0.0,1,391.0,1
1173,1173,0.7085906414198512,0.7,0.0,0.0,462.0,833.0,0.0,1,465.0,1
1174,1174,0.11635813016378715,0.1,1.0,1.0,277.0,755.0,0.0,0,1968.0,0
1175,1175,-0.6269106487813236,-0.6,0.0,1.0,252.0,583.0,1.0,0,2165.0,1
1176,1176,-0.04706605127214436,-0.0,1.0,0.0,334.0,538.0,0.0,0,2128.0,1
1177,1177,-0.23784731613584698,-0.2,1.0,0.0,298.0,926.0,0.0,0,1046.0,1
1178,1178,-0.7214041931347075,-0.7,1.0,0.0,360.0,709.0,1.0,1,-649.0,0
1179,1179,-0.6529616299089464,-0.7,1.0,0.0,275.0,771.0,0.0,0,1954.0,1
1180,1180,0.5429010998543476,0.5,0.0,0.0,421.0,934.0,1.0,0,-375.0,0
1181,1181,0.5685841502652488,0.6,0.0,0.0,485.0,953.0,0.0,1,1562.0,1
1182,1182,0.5544380279622722,0.6,1.0,1.0,334.0,754.0,0.0,0,1912.0,0
1183,1183,-0.8334825359712933,-0.8,0.0,1.0,276.0,711.0,1.0,0,443.0,1
1184,1184,0.713354212551725,0.7,1.0,1.0,411.0,777.0,1.0,1,672.0,1
1185,1185,0.14998856108373781,0.1,0.0,0.0,271.0,621.0,1.0,0,2108.0,0
1186,1186,-0.8106095710021862,-0.8,1.0,0.0,356.0,947.0,0.0,0,1697.0,1
1187,1187,0.09597988126135759,0.1,0.0,0.0,451.0,650.0,0.0,1,609.0,1
1188,1188,0.4851200568084947,0.5,0.0,0.0,450.0,938.0,0.0,1,1612.0,1
1189,1189,0.8709727999297011,0.9,1.0,1.0,290.0,815.0,1.0,1,145.0,1
1190,1190,0.7225113346235349,0.7,0.0,0.0,373.0,841.0,0.0,1,1786.0,1
1191,1191,0.6561015723730067,0.7,1.0,1.0,347.0,624.0,1.0,1,929.0,1
1192,1192,0.5423841146849003,0.5,1.0,1.0,374.0,758.0,1.0,1,208.0,1
1193,1193,-0.828123779023946,-0.8,0.0,1.0,333.0,826.0,1.0,0,-279.0,1
1194,1194,0.6315315701712899,0.6,1.0,1.0,251.0,934.0,1.0,1,1065.0,1
1195,1195,0.4522588575341785,0.5,1.0,1.0,346.0,764.0,0.0,0,1890.0,0
1196,1196,0.0029762519367003692,0.0,0.0,0.0,332.0,905.0,0.0,1,1763.0,1
1197,1197,0.49046676446333615,0.5,0.0,0.0,363.0,740.0,0.0,1,1897.0,1
1198,1198,-0.13801813412395703,-0.1,0.0,1.0,394.0,743.0,0.0,1,1863.0,0
1199,1199,-0.3542906075214083,-0.4,0.0,1.0,454.0,947.0,1.0,0,1059.0,1
1200,1200,-0.17853196328946697,-0.2,0.0,1.0,463.0,796.0,0.0,1,851.0,0
1201,1201,0.3929952687394126,0.4,1.0,1.0,333.0,730.0,1.0,1,887.0,1
1202,1202,0.27532790548113983,0.3,1.0,1.0,449.0,728.0,1.0,1,1043.0,1
1203,1203,-0.5764289874326569,-0.6,1.0,0.0,440.0,864.0,0.0,0,946.0,1
1204,1204,-0.7239497588800765,-0.7,1.0,0.0,325.0,793.0,0.0,0,1882.0,1
1205,1205,-0.11506500071996972,-0.1,1.0,0.0,467.0,661.0,0.0,0,1872.0,1
1206,1206,0.6827311932201016,0.7,0.0,0.0,426.0,939.0,0.0,1,565.0,1
1207,1207,0.6501766308787521,0.7,0.0,0.0,296.0,587.0,0.0,1,1707.0,1
1208,1208,0.7147570051632742,0.7,1.0,1.0,299.0,664.0,1.0,1,2037.0,1
1209,1209,0.8789153655201304,0.9,1.0,1.0,407.0,544.0,1.0,1,1769.0,1
1210,1210,-0.8663851154193473,-0.9,1.0,0.0,474.0,895.0,0.0,0,1631.0,1
1211,1211,0.7787613696495254,0.8,0.0,0.0,305.0,785.0,0.0,1,1910.0,1
1212,1212,-0.5791107438548471,-0.6,1.0,0.0,370.0,956.0,0.0,0,1674.0,1
1213,1213,0.2805996089647348,0.3,1.0,1.0,441.0,738.0,0.0,0,411.0,0
1214,1214,0.2243384423150233,0.2,1.0,1.0,343.0,504.0,0.0,0,2153.0,0
1215,1215,-0.4255904182145973,-0.4,0.0,1.0,445.0,513.0,0.0,1,2042.0,0
1216,1216,-0.1274737290402238,-0.1,1.0,0.0,316.0,981.0,0.0,0,1703.0,1
1217,1217,0.7426482162586966,0.7,0.0,0.0,475.0,740.0,0.0,1,1355.0,1
1218,1218,0.6729148422797403,0.7,0.0,0.0,251.0,970.0,0.0,1,1779.0,1
1219,1219,0.1303657328208946,0.1,1.0,1.0,443.0,579.0,1.0,1,1388.0,1
1220,1220,-0.5171734204272986,-0.5,1.0,0.0,304.0,877.0,0.0,0,1819.0,1
1221,1221,0.8731325159261286,0.9,0.0,0.0,476.0,586.0,0.0,1,1938.0,1
1222,1222,0.48328129530583996,0.5,1.0,1.0,398.0,979.0,1.0,1,963.0,1
1223,1223,0.5364985881662455,0.5,0.0,0.0,450.0,974.0,0.0,1,1576.0,1
1224,1224,-0.7685740858141317,-0.8,0.0,1.0,298.0,501.0,1.0,0,631.0,1
1225,1225,0.3197156509674096,0.3,0.0,0.0,410.0,840.0,0.0,1,1750.0,1
1226,1226,0.1716344095135679,0.2,1.0,1.0,475.0,638.0,0.0,0,847.0,0
1227,1227,-0.6944238801903286,-0.7,0.0,1.0,400.0,653.0,1.0,0,1947.0,1
1228,1228,-0.01650588612093229,-0.0,1.0,0.0,401.0,672.0,0.0,0,857.0,1
1229,1229,0.43201850168111255,0.4,0.0,0.0,283.0,940.0,1.0,0,-103.0,0
1230,1230,0.767664413869202,0.8,0.0,0.0,259.0,740.0,0.0,1,2001.0,1
1231,1231,-0.45993502271926484,-0.5,1.0,0.0,390.0,510.0,0.0,0,1020.0,1
1232,1232,0.3223234911272356,0.3,0.0,0.0,268.0,978.0,0.0,1,-126.0,1
1233,1233,0.20878000465303337,0.2,1.0,1.0,443.0,664.0,1.0,1,1893.0,1
1234,1234,0.7368481532908798,0.7,0.0,0.0,254.0,794.0,0.0,1,1392.0,1
1235,1235,-0.532659674304512,-0.5,0.0,1.0,444.0,688.0,1.0,0,1358.0,1
1236,1236,0.37113465810381807,0.4,1.0,1.0,258.0,564.0,1.0,1,1258.0,1
1237,1237,0.22088392421887593,0.2,1.0,1.0,257.0,786.0,0.0,0,987.0,0
1238,1238,0.2585222307041696,0.3,1.0,1.0,446.0,626.0,0.0,0,1928.0,0
1239,1239,-0.8739636426531896,-0.9,1.0,0.0,487.0,992.0,0.0,0,-379.0,1
1240,1240,-0.891135314418326,-0.9,1.0,0.0,350.0,873.0,0.0,0,1777.0,1
1241,1241,0.021709442070311336,0.0,0.0,0.0,405.0,601.0,0.0,1,1994.0,1
1242,1242,0.02691351966216493,0.0,1.0,1.0,494.0,826.0,1.0,1,1680.0,1
1243,1243,-0.11427549741059972,-0.1,0.0,1.0,441.0,735.0,0.0,1,1824.0,0
1244,1244,-0.298189571872042,-0.3,1.0,0.0,296.0,909.0,0.0,0,1795.0,1
1245,1245,-0.601683988918662,-0.6,0.0,1.0,325.0,597.0,1.0,0,498.0,1
1246,1246,-0.7156744229669921,-0.7,1.0,0.0,345.0,715.0,0.0,0,1790.0,1
1247,1247,0.8876274248574946,0.9,0.0,0.0,354.0,634.0,0.0,1,2012.0,1
1248,1248,0.6775462319010447,0.7,1.0,1.0,323.0,868.0,1.0,1,1809.0,1
1249,1249,0.6423808960362732,0.6,0.0,0.0,340.0,736.0,0.0,1,1224.0,1
1250,1250,-0.043649504809427864,-0.0,1.0,0.0,253.0,603.0,1.0,1,2144.0,0
1251,1251,-0.5360863793754396,-0.5,1.0,0.0,381.0,768.0,0.0,0,381.0,1
1252,1252,0.5740203746211733,0.6,1.0,1.0,341.0,942.0,1.0,1,1717.0,1
1253,1253,-0.24093910493430892,-0.2,1.0,0.0,374.0,538.0,0.0,0,2088.0,1
1254,1254,-0.7925502019134609,-0.8,1.0,0.0,365.0,642.0,0.0,0,1343.0,1
1255,1255,-0.7892133911103166,-0.8,1.0,0.0,413.0,714.0,0.0,0,1873.0,1
1256,1256,0.4244035068122255,0.4,1.0,1.0,403.0,908.0,1.0,1,459.0,1
1257,1257,-0.0038656103442992196,-0.0,0.0,1.0,440.0,752.0,1.0,0,1408.0,1
1258,1258,0.5434622944246942,0.5,1.0,1.0,313.0,783.0,1.0,1,934.0,1
1259,1259,0.10478213350891818,0.1,1.0,1.0,400.0,529.0,0.0,0,2071.0,0
1260,1260,0.8949573327162129,0.9,0.0,0.0,342.0,734.0,0.0,1,1204.0,1
1261,1261,0.7148505946706732,0.7,0.0,0.0,322.0,612.0,0.0,1,796.0,1
1262,1262,-0.5796609831288007,-0.6,0.0,1.0,471.0,572.0,1.0,0,887.0,1
1263,1263,-0.5650847255259344,-0.6,1.0,0.0,351.0,957.0,1.0,1,-1058.0,0
1264,1264,0.433308266783372,0.4,1.0,1.0,419.0,944.0,1.0,1,327.0,1
1265,1265,0.8673853335909779,0.9,1.0,1.0,375.0,576.0,1.0,1,979.0,1
1266,1266,0.7858254904924423,0.8,1.0,1.0,369.0,707.0,1.0,1,1824.0,1
1267,1267,-0.5287368632049596,-0.5,0.0,1.0,490.0,896.0,1.0,0,1614.0,1
1268,1268,0.04230683543127689,0.0,0.0,0.0,488.0,648.0,0.0,1,1864.0,1
1269,1269,0.5490368434235148,0.5,1.0,1.0,426.0,527.0,1.0,1,567.0,1
1270,1270,-0.1598209640419357,-0.2,1.0,0.0,374.0,892.0,0.0,0,1734.0,1
1271,1271,0.6603994073828242,0.7,0.0,0.0,260.0,575.0,0.0,1,785.0,1
1272,1272,-0.31215570096263834,-0.3,0.0,1.0,374.0,536.0,1.0,0,500.0,1
1273,1273,-0.5622873647213855,-0.6,0.0,1.0,266.0,636.0,1.0,0,1568.0,1
1274,1274,-0.5799712869843412,-0.6,0.0,1.0,375.0,750.0,1.0,0,1015.0,1
1275,1275,0.3210849026402077,0.3,1.0,1.0,288.0,522.0,0.0,0,2190.0,0
1276,1276,0.3227467414972104,0.3,0.0,0.0,265.0,934.0,0.0,1,-629.0,1
1277,1277,-0.7135728237907459,-0.7,0.0,1.0,479.0,866.0,1.0,0,1655.0,1
1278,1278,-0.6743967300496542,-0.7,0.0,1.0,461.0,706.0,1.0,0,303.0,1
1279,1279,-0.8102647824993268,-0.8,1.0,0.0,251.0,627.0,0.0,0,1632.0,1
1280,1280,0.8547292942925423,0.9,1.0,1.0,462.0,974.0,1.0,1,994.0,1
1281,1281,0.813258128536717,0.8,1.0,1.0,466.0,949.0,1.0,1,1145.0,1
1282,1282,0.3909995771978855,0.4,0.0,0.0,261.0,829.0,0.0,1,180.0,1
1283,1283,0.7283432595288822,0.7,1.0,1.0,355.0,975.0,1.0,1,1670.0,1
1284,1284,0.4060901960514992,0.4,1.0,1.0,455.0,645.0,1.0,1,510.0,1
1285,1285,0.06308029485256494,0.1,0.0,0.0,385.0,905.0,0.0,1,1710.0,1
1286,1286,-0.24027434237490453,-0.2,0.0,1.0,383.0,759.0,1.0,0,1778.0,1
1287,1287,-0.7764385788282706,-0.8,0.0,1.0,428.0,817.0,1.0,0,1755.0,1
1288,1288,0.16816155355406825,0.2,1.0,1.0,388.0,672.0,1.0,1,1940.0,1
1289,1289,0.4398562066057249,0.4,1.0,1.0,437.0,870.0,1.0,1,1693.0,1
1290,1290,-0.7836886644502327,-0.8,1.0,0.0,430.0,706.0,0.0,0,554.0,1
1291,1291,0.5341100771272073,0.5,1.0,1.0,432.0,526.0,1.0,1,2042.0,1
1292,1292,-0.26646356946880057,-0.3,1.0,0.0,302.0,933.0,0.0,0,145.0,1
1293,1293,-0.22024409288972935,-0.2,0.0,1.0,422.0,742.0,0.0,1,-294.0,0
1294,1294,0.03201085800494441,0.0,1.0,1.0,337.0,998.0,0.0,0,1665.0,0
1295,1295,-0.6404972406940437,-0.6,0.0,1.0,352.0,667.0,0.0,1,1981.0,0
1296,1296,0.7271470878701375,0.7,1.0,1.0,460.0,539.0,0.0,0,2001.0,0
1297,1297,0.7385394789534679,0.7,0.0,0.0,437.0,529.0,0.0,1,1834.0,1
1298,1298,-0.5569683283629859,-0.6,0.0,1.0,383.0,832.0,1.0,0,485.0,1
1299,1299,-0.07313516764934169,-0.1,0.0,1.0,338.0,926.0,0.0,1,1736.0,0
1300,1300,-0.31995585232698875,-0.3,1.0,0.0,333.0,676.0,0.0,0,1721.0,1
1301,1301,-0.5769713937010998,-0.6,0.0,1.0,437.0,633.0,0.0,1,-320.0,0
1302,1302,0.8781553508670902,0.9,1.0,1.0,464.0,917.0,1.0,1,1619.0,1
1303,1303,0.13497719954653464,0.1,1.0,1.0,367.0,852.0,1.0,1,691.0,1
1304,1304,-0.34126773126709553,-0.3,1.0,0.0,496.0,563.0,0.0,0,-569.0,1
1305,1305,-0.7363319240860622,-0.7,0.0,1.0,326.0,628.0,1.0,0,1346.0,1
1306,1306,-0.5043041898688208,-0.5,0.0,1.0,422.0,843.0,0.0,1,1735.0,0
1307,1307,-0.4074594375916768,-0.4,0.0,1.0,404.0,640.0,1.0,0,1626.0,1
1308,1308,0.7650151240985824,0.8,1.0,1.0,292.0,882.0,1.0,1,986.0,1
1309,1309,-0.6175297934666616,-0.6,0.0,1.0,359.0,721.0,0.0,1,1920.0,0
1310,1310,-0.7052978183963547,-0.7,1.0,0.0,385.0,825.0,0.0,0,1790.0,1
1311,1311,-0.4841478907278152,-0.5,0.0,1.0,370.0,538.0,1.0,0,492.0,1
1312,1312,0.4146009708067836,0.4,0.0,0.0,396.0,662.0,0.0,1,1942.0,1
1313,1313,-0.5817982346634125,-0.6,1.0,0.0,454.0,595.0,1.0,1,1951.0,0
1314,1314,-0.8344567343125529,-0.8,0.0,1.0,342.0,660.0,1.0,0,1568.0,1
1315,1315,0.8971608283153741,0.9,1.0,1.0,342.0,899.0,1.0,1,299.0,1
1316,1316,-0.2910238742849647,-0.3,0.0,1.0,429.0,708.0,0.0,1,1863.0,0
1317,1317,-0.22243025269626004,-0.2,0.0,1.0,382.0,988.0,0.0,1,1630.0,0
1318,1318,-0.44693224534210774,-0.4,1.0,0.0,304.0,561.0,0.0,0,2045.0,1
1319,1319,-0.196649741903966,-0.2,1.0,0.0,285.0,846.0,0.0,0,1869.0,1
1320,1320,0.6436805696469957,0.6,1.0,1.0,290.0,890.0,1.0,1,610.0,1
1321,1321,0.05260387413669787,0.1,1.0,1.0,491.0,561.0,0.0,0,1948.0,0
1322,1322,0.05416209461766863,0.1,1.0,1.0,476.0,990.0,0.0,0,1534.0,0
1323,1323,0.5039250057011379,0.5,0.0,0.0,317.0,910.0,0.0,1,1773.0,1
1324,1324,0.5728108421540853,0.6,1.0,1.0,480.0,572.0,0.0,0,1948.0,0
1325,1325,-0.7465183652577697,-0.7,0.0,1.0,397.0,774.0,1.0,0,1829.0,1
1326,1326,0.20788813965138975,0.2,1.0,1.0,337.0,620.0,0.0,0,2043.0,0
1327,1327,-0.765066055720981,-0.8,0.0,1.0,285.0,907.0,1.0,0,338.0,1
1328,1328,0.3086671067348764,0.3,0.0,0.0,272.0,822.0,0.0,1,1906.0,1
1329,1329,0.2129176298158023,0.2,1.0,1.0,468.0,634.0,0.0,0,1898.0,0
1330,1330,-0.4962799917515289,-0.5,1.0,0.0,293.0,889.0,0.0,0,1818.0,1
1331,1331,0.7061380979653104,0.7,0.0,0.0,371.0,916.0,0.0,1,1383.0,1
1332,1332,0.7038359015862433,0.7,1.0,1.0,356.0,954.0,1.0,1,370.0,1
1333,1333,-0.09720337500232845,-0.1,0.0,1.0,253.0,701.0,0.0,1,2046.0,0
1334,1334,0.5645982946599125,0.6,0.0,0.0,433.0,956.0,0.0,1,1611.0,1
1335,1335,-0.2801762334287313,-0.3,1.0,0.0,323.0,718.0,0.0,0,519.0,1
1336,1336,-0.101061732754546,-0.1,0.0,1.0,479.0,811.0,0.0,1,1710.0,0
1337,1337,-0.8755697080421012,-0.9,1.0,0.0,476.0,932.0,0.0,0,1592.0,1
1338,1338,-0.588342948401628,-0.6,1.0,0.0,349.0,864.0,1.0,1,-363.0,0
1339,1339,0.21745906820825966,0.2,1.0,1.0,408.0,900.0,0.0,0,1692.0,0
1340,1340,0.6393458154374251,0.6,0.0,0.0,464.0,550.0,0.0,1,1986.0,1
1341,1341,0.751465805994873,0.8,1.0,1.0,312.0,678.0,1.0,1,1340.0,1
1342,1342,-0.08121598210926384,-0.1,0.0,1.0,495.0,611.0,0.0,1,614.0,0
1343,1343,-0.09212746067652378,-0.1,1.0,0.0,307.0,629.0,0.0,0,1104.0,1
1344,1344,0.5078869469586224,0.5,1.0,1.0,341.0,516.0,1.0,1,243.0,1
1345,1345,-0.38717586426112816,-0.4,0.0,1.0,272.0,810.0,0.0,1,1918.0,0
1346,1346,-0.7627342845031398,-0.8,0.0,1.0,317.0,724.0,1.0,0,1179.0,1
1347,1347,0.5624848799093446,0.6,0.0,0.0,275.0,548.0,0.0,1,1977.0,1
1348,1348,-0.04933175440724191,-0.0,0.0,1.0,472.0,549.0,0.0,1,1979.0,0
1349,1349,-0.09335139268618198,-0.1,1.0,0.0,269.0,801.0,0.0,0,1930.0,1
1350,1350,0.6056985263110347,0.6,1.0,1.0,385.0,738.0,1.0,1,497.0,1
1351,1351,0.10898815601199752,0.1,1.0,1.0,466.0,928.0,0.0,0,1606.0,0
1352,1352,-0.360283652331964,-0.4,1.0,0.0,305.0,911.0,0.0,0,1784.0,1
1353,1353,-0.4476232551395765,-0.4,0.0,1.0,317.0,815.0,0.0,1,1868.0,0
1354,1354,-0.4525558831285297,-0.5,0.0,1.0,443.0,798.0,1.0,0,409.0,1
1355,1355,-0.5855120592602348,-0.6,0.0,1.0,362.0,761.0,1.0,0,377.0,1
1356,1356,-0.03376889133976502,-0.0,0.0,1.0,280.0,732.0,0.0,1,1988.0,0
1357,1357,0.31455123136305685,0.3,0.0,0.0,362.0,659.0,0.0,1,1979.0,1
1358,1358,-0.41951824256712933,-0.4,1.0,0.0,287.0,943.0,0.0,0,1770.0,1
1359,1359,-0.8144684363396465,-0.8,0.0,1.0,390.0,954.0,1.0,0,246.0,1
1360,1360,0.32375450820308205,0.3,1.0,1.0,368.0,652.0,1.0,1,540.0,1
1361,1361,0.4631881804050605,0.5,0.0,0.0,413.0,847.0,0.0,1,1740.0,1
1362,1362,0.06814328873324305,0.1,0.0,0.0,386.0,686.0,0.0,1,208.0,1
1363,1363,0.28978018071670986,0.3,0.0,0.0,340.0,744.0,0.0,1,1916.0,1
1364,1364,-0.35461093932487187,-0.4,0.0,1.0,370.0,749.0,0.0,1,-869.0,0
1365,1365,-0.09432219561934752,-0.1,0.0,1.0,441.0,578.0,1.0,0,1981.0,1
1366,1366,-0.42949479309989974,-0.4,1.0,0.0,311.0,548.0,0.0,0,1261.0,1
1367,1367,0.006496887346604363,0.0,0.0,0.0,381.0,967.0,0.0,1,412.0,1
1368,1368,0.6988000317873687,0.7,0.0,0.0,465.0,796.0,0.0,1,239.0,1
1369,1369,0.032510453406588646,0.0,0.0,0.0,391.0,930.0,0.0,1,1679.0,1
1370,1370,0.5988365968584944,0.6,1.0,1.0,367.0,749.0,1.0,1,1454.0,1
1371,1371,0.6640057234967965,0.7,0.0,0.0,420.0,938.0,0.0,1,92.0,1
1372,1372,-0.06369474786113027,-0.1,0.0,1.0,366.0,662.0,1.0,0,1752.0,1
1373,1373,0.6292660849176154,0.6,1.0,1.0,476.0,704.0,1.0,1,340.0,1
1374,1374,0.2404053818052595,0.2,1.0,1.0,383.0,816.0,1.0,1,1801.0,1
1375,1375,0.3368045145484665,0.3,0.0,0.0,446.0,952.0,0.0,1,1602.0,1
1376,1376,0.26074437199282763,0.3,0.0,0.0,449.0,582.0,0.0,1,689.0,1
1377,1377,0.7387444993576356,0.7,0.0,0.0,373.0,702.0,0.0,1,1925.0,1
1378,1378,0.758982359288093,0.8,0.0,0.0,296.0,689.0,0.0,1,1505.0,1
1379,1379,-0.1967349250033782,-0.2,0.0,1.0,364.0,717.0,1.0,0,-371.0,1
1380,1380,-0.18443817671594132,-0.2,1.0,0.0,428.0,931.0,0.0,0,1641.0,1
1381,1381,-0.7155391267094285,-0.7,0.0,1.0,404.0,658.0,1.0,0,828.0,1
1382,1382,-0.5910747034980957,-0.6,0.0,1.0,479.0,785.0,1.0,0,876.0,1
1383,1383,-0.7940107025692926,-0.8,1.0,0.0,450.0,957.0,0.0,0,333.0,1
1384,1384,0.6947362861341569,0.7,1.0,1.0,278.0,831.0,1.0,1,1891.0,1
1385,1385,-0.3559455948614838,-0.4,1.0,0.0,397.0,998.0,0.0,0,1605.0,1
1386,1386,0.8256848803914937,0.8,0.0,0.0,368.0,807.0,0.0,1,1215.0,1
1387,1387,-0.5574408577339789,-0.6,1.0,0.0,478.0,567.0,0.0,0,1035.0,1
1388,1388,-0.6714050530229116,-0.7,0.0,1.0,308.0,982.0,1.0,0,410.0,1
1389,1389,-0.2759134012784391,-0.3,1.0,0.0,252.0,684.0,0.0,0,2064.0,1
1390,1390,0.5898355333990078,0.6,0.0,0.0,490.0,825.0,0.0,1,855.0,1
1391,1391,0.5658503827315587,0.6,0.0,0.0,342.0,980.0,0.0,1,948.0,1
1392,1392,0.5716832015770511,0.6,0.0,0.0,289.0,679.0,0.0,1,2032.0,1
1393,1393,0.0057319624919073275,0.0,1.0,1.0,323.0,686.0,0.0,0,-169.0,0
1394,1394,0.023441617486369748,0.0,1.0,1.0,408.0,925.0,0.0,0,-683.0,0
1395,1395,0.07112512695450401,0.1,1.0,1.0,389.0,819.0,0.0,0,1792.0,0
1396,1396,-0.12291456221314112,-0.1,1.0,0.0,324.0,760.0,0.0,0,976.0,1
1397,1397,0.8179610293197644,0.8,1.0,1.0,371.0,967.0,1.0,1,1522.0,1
1398,1398,-0.38785249018619594,-0.4,0.0,1.0,331.0,976.0,1.0,0,-127.0,1
1399,1399,-0.3059413243172805,-0.3,0.0,1.0,263.0,794.0,0.0,1,1943.0,0
1400,1400,0.2870277805244167,0.3,1.0,1.0,453.0,965.0,0.0,0,1582.0,0
1401,1401,0.552091595853479,0.6,1.0,1.0,470.0,690.0,1.0,1,760.0,1
1402,1402,0.5296283900112394,0.5,1.0,1.0,310.0,837.0,1.0,1,1263.0,1
1403,1403,-0.28105196180182646,-0.3,1.0,0.0,480.0,656.0,0.0,0,1864.0,1
1404,1404,0.3614889150206321,0.4,0.0,0.0,400.0,566.0,0.0,1,2034.0,1
1405,1405,-0.4487641201824767,-0.4,1.0,0.0,443.0,823.0,0.0,0,934.0,1
1406,1406,0.8840282266612313,0.9,1.0,1.0,375.0,818.0,1.0,1,1577.0,1
1407,1407,-0.7445886095351286,-0.7,0.0,1.0,346.0,610.0,0.0,1,2044.0,0
1408,1408,0.07947435042485163,0.1,1.0,1.0,250.0,800.0,1.0,1,1950.0,1
1409,1409,0.4120636293796366,0.4,1.0,1.0,338.0,996.0,0.0,0,1666.0,0
1410,1410,-0.12170336622068112,-0.1,0.0,1.0,359.0,745.0,1.0,0,1896.0,1
1411,1411,0.35866707108628815,0.4,1.0,1.0,453.0,803.0,0.0,0,1744.0,0
1412,1412,-0.7223136395734682,-0.7,0.0,1.0,401.0,923.0,1.0,0,986.0,1
1413,1413,-0.5972810388127536,-0.6,1.0,0.0,349.0,834.0,0.0,0,1817.0,1
1414,1414,0.7114797057616732,0.7,0.0,0.0,434.0,696.0,0.0,1,1870.0,1
1415,1415,0.6643720500960398,0.7,1.0,1.0,473.0,945.0,1.0,1,-318.0,1
1416,1416,0.14435769827130895,0.1,1.0,1.0,467.0,697.0,0.0,0,1836.0,0
1417,1417,-0.44331019160717605,-0.4,0.0,1.0,274.0,951.0,1.0,0,975.0,1
1418,1418,0.4682247237335099,0.5,1.0,1.0,287.0,775.0,1.0,1,1858.0,1
1419,1419,0.688489613491749,0.7,1.0,1.0,320.0,695.0,1.0,1,765.0,1
1420,1420,0.21699811717899153,0.2,1.0,1.0,372.0,982.0,0.0,0,1646.0,0
1421,1421,0.0674263750416716,0.1,0.0,0.0,438.0,820.0,0.0,1,1742.0,1
1422,1422,0.5533164618368117,0.6,1.0,1.0,480.0,734.0,1.0,1,1236.0,1
1423,1423,-0.4141776482746711,-0.4,0.0,1.0,339.0,810.0,1.0,0,961.0,1
1424,1424,0.6397368990990439,0.6,1.0,1.0,399.0,572.0,1.0,1,929.0,1
1425,1425,0.7930023496217983,0.8,1.0,1.0,349.0,623.0,1.0,1,1038.0,1
1426,1426,0.6820922446711065,0.7,1.0,1.0,297.0,714.0,1.0,1,1189.0,1
1427,1427,0.3449419343765566,0.3,1.0,1.0,315.0,925.0,0.0,0,1760.0,0
1428,1428,-0.798251008132315,-0.8,1.0,0.0,290.0,635.0,0.0,0,745.0,1
1429,1429,0.05755525685607421,0.1,0.0,0.0,410.0,683.0,1.0,0,1907.0,0
1430,1430,0.30605750894685946,0.3,1.0,1.0,363.0,625.0,1.0,1,462.0,1
1431,1431,0.6375830810077244,0.6,1.0,1.0,279.0,998.0,1.0,1,863.0,1
1432,1432,0.8244032274128476,0.8,0.0,0.0,345.0,923.0,0.0,1,1732.0,1
1433,1433,0.5547861307540095,0.6,1.0,1.0,422.0,597.0,0.0,0,1981.0,0
1434,1434,0.36573065847067,0.4,1.0,1.0,365.0,932.0,0.0,0,1703.0,0
1435,1435,0.7200430922926607,0.7,1.0,1.0,476.0,828.0,1.0,1,776.0,1
1436,1436,-0.7558601514625772,-0.8,0.0,1.0,434.0,795.0,1.0,0,261.0,1
1437,1437,-0.7658287941024753,-0.8,1.0,0.0,433.0,634.0,0.0,0,1213.0,1
1438,1438,0.2305056655331087,0.2,0.0,0.0,460.0,676.0,0.0,1,1594.0,1
1439,1439,0.05700882743292812,0.1,1.0,1.0,267.0,977.0,0.0,0,886.0,0
1440,1440,-0.2965358604195173,-0.3,1.0,0.0,327.0,635.0,0.0,0,978.0,1
1441,1441,-0.08989121988395721,-0.1,1.0,0.0,284.0,732.0,0.0,0,1984.0,1
1442,1442,-0.537198503017214,-0.5,0.0,1.0,466.0,785.0,1.0,0,1009.0,1
1443,1443,0.8657797953640575,0.9,1.0,1.0,264.0,647.0,1.0,1,339.0,1
1444,1444,0.7168266258553105,0.7,1.0,1.0,344.0,665.0,1.0,1,1731.0,1
1445,1445,0.6012612021183456,0.6,0.0,0.0,264.0,903.0,0.0,1,1833.0,1
1446,1446,-0.23742591808479308,-0.2,0.0,1.0,271.0,650.0,0.0,1,2079.0,0
1447,1447,0.0018874909081003644,0.0,0.0,0.0,270.0,757.0,1.0,0,1973.0,0
1448,1448,0.4824406860453495,0.5,0.0,0.0,417.0,653.0,0.0,1,1930.0,1
1449,1449,-0.5023589270920548,-0.5,1.0,0.0,354.0,500.0,0.0,0,2146.0,1
1450,1450,0.05203928941445457,0.1,0.0,0.0,405.0,954.0,0.0,1,1641.0,1
1451,1451,0.3270700737053728,0.3,1.0,1.0,368.0,587.0,1.0,1,915.0,1
1452,1452,0.2701464641796457,0.3,1.0,1.0,325.0,732.0,0.0,0,1943.0,0
1453,1453,-0.7196666465361341,-0.7,1.0,0.0,397.0,557.0,0.0,0,-184.0,1
1454,1454,-0.8951171085028877,-0.9,1.0,0.0,496.0,621.0,0.0,0,1883.0,1
1455,1455,-0.8582459707712571,-0.9,1.0,0.0,412.0,959.0,0.0,0,1629.0,1
1456,1456,-0.36789760427962426,-0.4,1.0,0.0,290.0,973.0,0.0,0,1737.0,1
1457,1457,-0.32686215415093867,-0.3,1.0,0.0,430.0,954.0,0.0,0,1616.0,1
1458,1458,0.43118977908153255,0.4,1.0,1.0,486.0,603.0,1.0,1,781.0,1
1459,1459,-0.5710570650712831,-0.6,1.0,0.0,301.0,580.0,0.0,0,669.0,1
1460,1460,0.3683391422712522,0.4,0.0,0.0,330.0,609.0,1.0,0,2061.0,0
1461,1461,0.14124623281452464,0.1,0.0,0.0,331.0,878.0,1.0,0,1791.0,0
1462,1462,-0.3852588650839044,-0.4,1.0,0.0,267.0,536.0,0.0,0,2137.0,1
1463,1463,0.10150893629810909,0.1,0.0,0.0,303.0,876.0,1.0,0,71.0,0
1464,1464,0.2209364612003989,0.2,1.0,1.0,395.0,782.0,0.0,0,1823.0,0
1465,1465,-0.31317733045467777,-0.3,1.0,0.0,492.0,994.0,0.0,0,1514.0,1
1466,1466,0.25808535296832325,0.3,1.0,1.0,259.0,614.0,0.0,0,2127.0,0
1467,1467,-0.37308170016761255,-0.4,0.0,1.0,293.0,514.0,1.0,0,563.0,1
1468,1468,-0.13825026307308874,-0.1,0.0,1.0,478.0,507.0,1.0,0,2015.0,1
1469,1469,0.002945809843184599,0.0,0.0,0.0,334.0,908.0,0.0,1,-442.0,1
1470,1470,0.3421405788566044,0.3,0.0,0.0,289.0,600.0,0.0,1,2111.0,1
1471,1471,-0.2924407390460687,-0.3,1.0,0.0,456.0,907.0,0.0,0,1637.0,1
1472,1472,0.7469123292844518,0.7,1.0,1.0,264.0,746.0,1.0,1,1040.0,1
1473,1473,-0.6303434739962986,-0.6,1.0,0.0,347.0,981.0,0.0,0,1172.0,1
1474,1474,-0.5053744852389519,-0.5,0.0,1.0,285.0,864.0,1.0,0,-759.0,1
1475,1475,0.4082302435032362,0.4,0.0,0.0,406.0,997.0,1.0,0,-253.0,0
1476,1476,-0.5108532131248448,-0.5,1.0,0.0,362.0,677.0,0.0,0,1961.0,1
1477,1477,-0.21618298170010442,-0.2,1.0,0.0,464.0,962.0,0.0,0,1574.0,1
