,trial,coherence,coherence_bin,green_side,correct_side,target_onset,checker_onset,decision,green_decision,decision_time,correct_decision
0,0,0.58215889989495,0.6,0.0,0.0,415.0,744.0,0.0,1,261.0,1
1,1,0.5210230634951517,0.5,1.0,1.0,406.0,652.0,1.0,1,262.0,1
2,2,0.21329388066657062,0.2,0.0,0.0,491.0,670.0,0.0,1,269.0,1
3,3,-0.28031269921393165,-0.3,0.0,1.0,385.0,954.0,1.0,0,131.0,1
4,4,0.800889662795263,0.8,1.0,1.0,328.0,699.0,1.0,1,93.0,1
5,5,-0.12570379130592835,-0.1,1.0,0.0,363.0,656.0,0.0,0,2761.0,1
6,6,0.4108383417495912,0.4,0.0,0.0,440.0,671.0,0.0,1,299.0,1
7,7,0.3690747620830003,0.4,1.0,1.0,493.0,781.0,1.0,1,296.0,1
8,8,0.8080077712090209,0.8,0.0,0.0,349.0,686.0,0.0,1,345.0,1
9,9,-0.6103919577990387,-0.6,1.0,0.0,345.0,836.0,0.0,0,39.0,1
10,10,0.3407787604188842,0.3,1.0,1.0,315.0,577.0,1.0,1,388.0,1
11,11,-0.702946766868271,-0.7,1.0,0.0,361.0,861.0,0.0,0,338.0,1
12,12,0.13066377583182776,0.1,0.0,0.0,456.0,895.0,1.0,0,329.0,0
13,13,0.6125278964745232,0.6,1.0,1.0,382.0,931.0,1.0,1,327.0,1
14,14,0.15739260435074998,0.2,0.0,0.0,425.0,541.0,0.0,1,1234.0,1
15,15,-0.16250444036794198,-0.2,0.0,1.0,380.0,798.0,1.0,0,152.0,1
16,16,-0.06239740793163573,-0.1,0.0,1.0,407.0,813.0,1.0,0,180.0,1
17,17,0.42802160139284984,0.4,1.0,1.0,424.0,948.0,1.0,1,268.0,1
18,18,-0.5559548182903227,-0.6,0.0,1.0,483.0,666.0,1.0,0,361.0,1
19,19,0.45839261441750645,0.5,1.0,1.0,256.0,687.0,1.0,1,367.0,1
20,20,-0.8680841127293161,-0.9,0.0,1.0,368.0,975.0,1.0,0,397.0,1
21,21,0.5595101614649557,0.6,0.0,0.0,317.0,668.0,0.0,1,435.0,1
22,22,0.18062242085958313,0.2,1.0,1.0,410.0,958.0,1.0,1,602.0,1
23,23,0.13621685939896133,0.1,0.0,0.0,499.0,840.0,0.0,1,131.0,1
24,24,-0.5370624138555831,-0.5,0.0,1.0,493.0,745.0,1.0,0,82.0,1
25,25,-0.22528399498345086,-0.2,0.0,1.0,304.0,847.0,1.0,0,439.0,1
26,26,0.6997119024158708,0.7,1.0,1.0,284.0,707.0,1.0,1,149.0,1
27,27,-0.7562366885561589,-0.8,0.0,1.0,274.0,989.0,1.0,0,177.0,1
28,28,0.6480868558952061,0.6,0.0,0.0,323.0,843.0,0.0,1,214.0,1
29,29,-0.09298778099221361,-0.1,1.0,0.0,313.0,613.0,0.0,0,814.0,1
30,30,0.06141825835937076,0.1,1.0,1.0,260.0,945.0,1.0,1,2465.0,1
31,31,0.6062918286193694,0.6,0.0,0.0,453.0,592.0,0.0,1,335.0,1
32,32,-0.4804599606376953,-0.5,0.0,1.0,431.0,843.0,1.0,0,206.0,1
33,33,-0.5056825180956217,-0.5,1.0,0.0,328.0,754.0,0.0,0,168.0,1
34,34,-0.3881936937275662,-0.4,1.0,0.0,341.0,715.0,0.0,0,394.0,1
35,35,0.3494096240315733,0.3,0.0,0.0,259.0,931.0,0.0,1,290.0,1
36,36,-0.5101470273274882,-0.5,1.0,0.0,365.0,528.0,0.0,0,1237.0,1
37,37,0.684129810413087,0.7,1.0,1.0,390.0,793.0,1.0,1,327.0,1
38,38,0.043160613258238945,0.0,0.0,0.0,315.0,669.0,0.0,1,3186.0,1
39,39,0.3309525516671096,0.3,0.0,0.0,479.0,870.0,0.0,1,391.0,1
40,40,0.6760677003757262,0.7,1.0,1.0,395.0,571.0,1.0,1,274.0,1
41,41,-0.08131157597554817,-0.1,0.0,1.0,370.0,791.0,1.0,0,1409.0,1
42,42,-0.8827508611557132,-0.9,1.0,0.0,436.0,965.0,0.0,0,289.0,1
43,43,-0.6496034754649379,-0.6,0.0,1.0,261.0,808.0,1.0,0,381.0,1
44,44,-0.24644782478636107,-0.2,1.0,0.0,385.0,762.0,0.0,0,593.0,1
45,45,0.6093209025059442,0.6,1.0,1.0,257.0,661.0,1.0,1,522.0,1
46,46,-0.8533117714386752,-0.9,1.0,0.0,359.0,584.0,0.0,0,217.0,1
47,47,0.3638857199182354,0.4,1.0,1.0,427.0,955.0,1.0,1,748.0,1
48,48,-0.23996155268601282,-0.2,1.0,0.0,355.0,848.0,0.0,0,927.0,1
49,49,-0.884433218254815,-0.9,0.0,1.0,431.0,927.0,1.0,0,-48.0,1
50,50,0.8540881844812426,0.9,1.0,1.0,489.0,504.0,1.0,1,237.0,1
51,51,0.4616614409978991,0.5,1.0,1.0,314.0,952.0,1.0,1,324.0,1
52,52,-0.8401469774386916,-0.8,1.0,0.0,399.0,958.0,0.0,0,93.0,1
53,53,-0.35501340403609116,-0.4,1.0,0.0,296.0,723.0,0.0,0,211.0,1
54,54,0.24494631368736697,0.2,1.0,1.0,474.0,894.0,1.0,1,932.0,1
55,55,-0.08439066278449037,-0.1,1.0,0.0,424.0,944.0,0.0,0,1122.0,1
56,56,-0.5542161478589508,-0.6,1.0,0.0,306.0,879.0,0.0,0,325.0,1
57,57,-0.09635463999732408,-0.1,1.0,0.0,326.0,999.0,0.0,0,2105.0,1
58,58,0.2569496802016463,0.3,0.0,0.0,362.0,516.0,0.0,1,572.0,1
59,59,0.8183662109807864,0.8,1.0,1.0,469.0,726.0,1.0,1,105.0,1
60,60,0.44719373026555254,0.4,0.0,0.0,299.0,887.0,0.0,1,364.0,1
61,61,0.44380990129122033,0.4,1.0,1.0,457.0,624.0,1.0,1,399.0,1
62,62,-0.5803170606728008,-0.6,0.0,1.0,300.0,852.0,0.0,1,-222.0,0
63,63,0.10939592822791988,0.1,0.0,0.0,468.0,937.0,0.0,1,1205.0,1
64,64,-0.7787536747131043,-0.8,0.0,1.0,307.0,748.0,1.0,0,205.0,1
65,65,0.832299445446305,0.8,0.0,0.0,392.0,874.0,0.0,1,194.0,1
66,66,0.4723562624531191,0.5,1.0,1.0,343.0,568.0,1.0,1,199.0,1
67,67,-0.3742264990060853,-0.4,1.0,0.0,478.0,853.0,0.0,0,279.0,1
68,68,-0.0507297949069383,-0.1,1.0,0.0,277.0,546.0,1.0,1,27.0,0
69,69,0.42929476508126874,0.4,0.0,0.0,408.0,691.0,0.0,1,311.0,1
70,70,-0.39262856645363187,-0.4,0.0,1.0,251.0,789.0,1.0,0,820.0,1
71,71,0.39552486586655344,0.4,1.0,1.0,360.0,941.0,1.0,1,359.0,1
72,72,0.6437876001560273,0.6,1.0,1.0,397.0,861.0,1.0,1,382.0,1
73,73,0.06440449640711188,0.1,1.0,1.0,275.0,728.0,1.0,1,1097.0,1
74,74,0.5538145791328705,0.6,0.0,0.0,284.0,894.0,0.0,1,172.0,1
75,75,0.034751254739164406,0.0,0.0,0.0,345.0,513.0,0.0,1,2442.0,1
76,76,0.16551244755891592,0.2,1.0,1.0,256.0,800.0,1.0,1,514.0,1
77,77,0.0055800462528581285,0.0,1.0,1.0,254.0,615.0,0.0,0,-109.0,0
78,78,0.42466533050585953,0.4,0.0,0.0,351.0,679.0,0.0,1,240.0,1
79,79,0.45995054949297376,0.5,0.0,0.0,343.0,865.0,0.0,1,262.0,1
80,80,-0.775173334320227,-0.8,1.0,0.0,460.0,707.0,0.0,0,613.0,1
81,81,0.7832244700925423,0.8,1.0,1.0,321.0,832.0,1.0,1,257.0,1
82,82,-0.6078408210230095,-0.6,1.0,0.0,348.0,755.0,0.0,0,107.0,1
83,83,0.866300003523876,0.9,1.0,1.0,278.0,509.0,1.0,1,93.0,1
84,84,0.597706922862204,0.6,0.0,0.0,455.0,800.0,0.0,1,315.0,1
85,85,-0.5372677815972371,-0.5,1.0,0.0,361.0,907.0,0.0,0,212.0,1
86,86,0.09145656241708389,0.1,1.0,1.0,263.0,573.0,1.0,1,1344.0,1
87,87,-0.0436419788818051,-0.0,1.0,0.0,460.0,808.0,0.0,0,1252.0,1
88,88,0.7278892172210737,0.7,1.0,1.0,427.0,506.0,1.0,1,147.0,1
89,89,-0.8252626806050721,-0.8,1.0,0.0,376.0,684.0,0.0,0,630.0,1
90,90,0.027936180866856897,0.0,0.0,0.0,338.0,527.0,1.0,0,3395.0,0
91,91,0.5167105211327313,0.5,0.0,0.0,458.0,600.0,0.0,1,212.0,1
92,92,-0.14273750207144942,-0.1,1.0,0.0,450.0,982.0,0.0,0,568.0,1
93,93,0.02631090199317987,0.0,1.0,1.0,342.0,919.0,1.0,1,3739.0,1
94,94,-0.03572320505746507,-0.0,0.0,1.0,329.0,932.0,1.0,0,769.0,1
95,95,-0.3129047559253003,-0.3,0.0,1.0,371.0,656.0,1.0,0,323.0,1
96,96,0.6946397990126237,0.7,1.0,1.0,373.0,850.0,1.0,1,117.0,1
97,97,0.2599657105348413,0.3,1.0,1.0,322.0,695.0,1.0,1,63.0,1
98,98,-0.7427737839641275,-0.7,0.0,1.0,470.0,901.0,1.0,0,179.0,1
99,99,0.538209660557175,0.5,0.0,0.0,393.0,931.0,0.0,1,426.0,1
100,100,0.8693694556574157,0.9,0.0,0.0,254.0,938.0,0.0,1,208.0,1
101,101,-0.8597500761583887,-0.9,0.0,1.0,489.0,557.0,1.0,0,174.0,1
102,102,-0.6906960143182703,-0.7,0.0,1.0,498.0,816.0,1.0,0,96.0,1
103,103,0.3787201681189457,0.4,0.0,0.0,319.0,897.0,0.0,1,164.0,1
104,104,0.4122884257790437,0.4,1.0,1.0,429.0,687.0,1.0,1,574.0,1
105,105,0.6098459533361574,0.6,1.0,1.0,274.0,720.0,1.0,1,346.0,1
106,106,-0.6777680761980016,-0.7,0.0,1.0,273.0,931.0,1.0,0,256.0,1
107,107,-0.8994261756269041,-0.9,0.0,1.0,415.0,589.0,1.0,0,296.0,1
108,108,-0.8478498280877377,-0.8,1.0,0.0,482.0,733.0,0.0,0,205.0,1
109,109,-0.14140264097750777,-0.1,0.0,1.0,286.0,846.0,1.0,0,1978.0,1
110,110,-0.7307852830318038,-0.7,1.0,0.0,405.0,706.0,0.0,0,219.0,1
111,111,0.47099273789410956,0.5,1.0,1.0,381.0,730.0,1.0,1,249.0,1
112,112,0.8145256932517487,0.8,0.0,0.0,318.0,709.0,0.0,1,223.0,1
113,113,-0.4754597598450254,-0.5,1.0,0.0,359.0,605.0,1.0,1,6.0,0
114,114,-0.7544535857774687,-0.8,1.0,0.0,359.0,646.0,0.0,0,175.0,1
115,115,-0.8400524388223091,-0.8,0.0,1.0,273.0,578.0,1.0,0,119.0,1
116,116,0.7316052805658156,0.7,0.0,0.0,344.0,676.0,0.0,1,350.0,1
117,117,-0.8095944704805285,-0.8,1.0,0.0,381.0,746.0,0.0,0,103.0,1
118,118,0.06805519425439999,0.1,1.0,1.0,387.0,775.0,1.0,1,2998.0,1
119,119,-0.2106677088843285,-0.2,1.0,0.0,310.0,826.0,0.0,0,1914.0,1
120,120,0.6877927113988659,0.7,1.0,1.0,449.0,921.0,1.0,1,160.0,1
121,121,0.471107801884736,0.5,1.0,1.0,496.0,549.0,1.0,1,215.0,1
122,122,0.6117580780936133,0.6,0.0,0.0,421.0,604.0,0.0,1,205.0,1
123,123,-0.8541375896344466,-0.9,1.0,0.0,257.0,741.0,0.0,0,122.0,1
124,124,0.2990766901129024,0.3,0.0,0.0,425.0,782.0,0.0,1,403.0,1
125,125,0.33287017791837614,0.3,0.0,0.0,460.0,728.0,0.0,1,512.0,1
126,126,0.33595379897660604,0.3,0.0,0.0,479.0,884.0,0.0,1,627.0,1
127,127,0.4301856075162088,0.4,1.0,1.0,254.0,588.0,1.0,1,328.0,1
128,128,0.640351291696979,0.6,1.0,1.0,273.0,757.0,1.0,1,280.0,1
129,129,-0.3018647262613152,-0.3,0.0,1.0,345.0,525.0,1.0,0,1140.0,1
130,130,0.2883740781040235,0.3,0.0,0.0,426.0,931.0,0.0,1,183.0,1
131,131,0.8981912201965553,0.9,0.0,0.0,400.0,809.0,0.0,1,-99.0,1
132,132,-0.8151539938916996,-0.8,1.0,0.0,265.0,743.0,0.0,0,202.0,1
133,133,-0.36068790511218185,-0.4,0.0,1.0,495.0,775.0,1.0,0,570.0,1
134,134,0.8030379199737107,0.8,0.0,0.0,265.0,785.0,0.0,1,180.0,1
135,135,-0.4400146826783056,-0.4,0.0,1.0,493.0,613.0,1.0,0,534.0,1
136,136,0.20975329984152113,0.2,0.0,0.0,270.0,773.0,0.0,1,927.0,1
137,137,0.030486501814167455,0.0,0.0,0.0,424.0,574.0,0.0,1,-168.0,1
138,138,-0.3279583049772419,-0.3,1.0,0.0,452.0,960.0,0.0,0,638.0,1
139,139,-0.48921842002496435,-0.5,1.0,0.0,279.0,593.0,0.0,0,478.0,1
140,140,0.40344160263533013,0.4,1.0,1.0,464.0,759.0,1.0,1,377.0,1
141,141,0.2422544310809177,0.2,0.0,0.0,387.0,881.0,0.0,1,182.0,1
142,142,-0.32996869299595266,-0.3,0.0,1.0,297.0,792.0,1.0,0,441.0,1
143,143,-0.08617677730226281,-0.1,1.0,0.0,405.0,938.0,0.0,0,3657.0,1
144,144,-0.11666773676572473,-0.1,1.0,0.0,347.0,686.0,0.0,0,2937.0,1
145,145,0.6229702971188168,0.6,0.0,0.0,446.0,823.0,0.0,1,551.0,1
146,146,0.4911190080014328,0.5,0.0,0.0,323.0,531.0,0.0,1,516.0,1
147,147,-0.07288114805320156,-0.1,0.0,1.0,256.0,966.0,1.0,0,-412.0,1
148,148,0.48358640384717344,0.5,0.0,0.0,437.0,665.0,0.0,1,428.0,1
149,149,0.38486711383411965,0.4,1.0,1.0,395.0,601.0,1.0,1,184.0,1
150,150,0.39911055445323773,0.4,0.0,0.0,395.0,661.0,0.0,1,264.0,1
151,151,-0.410588172392349,-0.4,1.0,0.0,313.0,825.0,0.0,0,292.0,1
152,152,0.6762615366956825,0.7,1.0,1.0,284.0,769.0,1.0,1,287.0,1
153,153,-0.45753706293007995,-0.5,0.0,1.0,343.0,864.0,1.0,0,213.0,1
154,154,-0.4230876938398919,-0.4,1.0,0.0,487.0,983.0,0.0,0,240.0,1
155,155,0.385075429930439,0.4,0.0,0.0,342.0,802.0,0.0,1,556.0,1
156,156,-0.2690817707881431,-0.3,0.0,1.0,478.0,706.0,1.0,0,-154.0,1
157,157,0.7930612445211848,0.8,1.0,1.0,392.0,507.0,1.0,1,211.0,1
158,158,-0.8986111489496795,-0.9,1.0,0.0,472.0,867.0,0.0,0,161.0,1
159,159,0.2542511259561876,0.3,1.0,1.0,433.0,917.0,1.0,1,780.0,1
160,160,-0.030370310153417512,-0.0,1.0,0.0,255.0,528.0,0.0,0,4217.0,1
161,161,0.8193551157921867,0.8,1.0,1.0,475.0,600.0,1.0,1,245.0,1
162,162,0.8012231338817225,0.8,1.0,1.0,303.0,917.0,1.0,1,280.0,1
163,163,0.2105922539665922,0.2,0.0,0.0,250.0,753.0,0.0,1,1167.0,1
164,164,-0.2778694851543647,-0.3,1.0,0.0,437.0,674.0,0.0,0,589.0,1
165,165,-0.5186113667556761,-0.5,0.0,1.0,368.0,967.0,1.0,0,275.0,1
166,166,-0.4296514882135216,-0.4,0.0,1.0,435.0,546.0,1.0,0,139.0,1
167,167,0.7824334813040966,0.8,1.0,1.0,269.0,570.0,1.0,1,-149.0,1
168,168,0.055958944623707096,0.1,1.0,1.0,330.0,817.0,1.0,1,2323.0,1
169,169,0.4265703459420428,0.4,1.0,1.0,472.0,805.0,1.0,1,413.0,1
170,170,0.5257685298481783,0.5,1.0,1.0,403.0,668.0,1.0,1,359.0,1
171,171,-0.882417194897843,-0.9,0.0,1.0,277.0,749.0,1.0,0,334.0,1
172,172,0.7397839859083134,0.7,0.0,0.0,250.0,886.0,0.0,1,354.0,1
173,173,-0.1260020380800786,-0.1,1.0,0.0,423.0,605.0,0.0,0,2732.0,1
174,174,-0.7911040246231416,-0.8,1.0,0.0,469.0,592.0,0.0,0,519.0,1
175,175,0.3779658153794766,0.4,0.0,0.0,289.0,913.0,0.0,1,218.0,1
176,176,-0.26536867648303863,-0.3,0.0,1.0,335.0,649.0,1.0,0,226.0,1
177,177,-0.5986670632348063,-0.6,1.0,0.0,297.0,719.0,0.0,0,214.0,1
178,178,0.10938056147103892,0.1,1.0,1.0,291.0,734.0,1.0,1,995.0,1
179,179,0.8919311715932278,0.9,1.0,1.0,320.0,990.0,1.0,1,200.0,1
180,180,0.686822672764242,0.7,0.0,0.0,289.0,512.0,0.0,1,329.0,1
181,181,-0.27304753142838156,-0.3,0.0,1.0,379.0,889.0,1.0,0,-448.0,1
182,182,-0.4808123370325481,-0.5,0.0,1.0,291.0,623.0,1.0,0,216.0,1
183,183,0.2797131440518731,0.3,1.0,1.0,305.0,645.0,1.0,1,370.0,1
184,184,0.6136280464991727,0.6,1.0,1.0,474.0,598.0,1.0,1,318.0,1
185,185,-0.6791483639931676,-0.7,1.0,0.0,373.0,632.0,0.0,0,285.0,1
186,186,-0.10152270646069173,-0.1,1.0,0.0,373.0,975.0,0.0,0,1012.0,1
187,187,-0.37766920046622554,-0.4,1.0,0.0,417.0,537.0,0.0,0,556.0,1
188,188,-0.2909414515230221,-0.3,0.0,1.0,476.0,505.0,1.0,0,379.0,1
189,189,0.40168575047152066,0.4,1.0,1.0,429.0,734.0,1.0,1,477.0,1
190,190,-0.009012723042138071,-0.0,0.0,1.0,433.0,707.0,0.0,1,160.0,0
191,191,0.8023059401281819,0.8,1.0,1.0,293.0,841.0,1.0,1,346.0,1
192,192,-0.20625993658481223,-0.2,1.0,0.0,495.0,650.0,0.0,0,1365.0,1
193,193,0.8436351996737342,0.8,0.0,0.0,454.0,738.0,0.0,1,538.0,1
194,194,0.03960003441955129,0.0,0.0,0.0,319.0,983.0,1.0,0,2428.0,0
195,195,-0.1901640886245567,-0.2,0.0,1.0,385.0,961.0,1.0,0,1074.0,1
196,196,-0.818365542916877,-0.8,1.0,0.0,460.0,544.0,0.0,0,596.0,1
197,197,0.5760504082042582,0.6,1.0,1.0,373.0,911.0,1.0,1,346.0,1
198,198,0.5509088612033085,0.6,0.0,0.0,287.0,525.0,0.0,1,118.0,1
199,199,0.47934699913019985,0.5,0.0,0.0,272.0,669.0,0.0,1,499.0,1
200,200,-0.24793134751755186,-0.2,0.0,1.0,332.0,890.0,1.0,0,508.0,1
201,201,-0.28712788067128625,-0.3,0.0,1.0,387.0,781.0,1.0,0,512.0,1
202,202,-0.11705916169752628,-0.1,0.0,1.0,406.0,952.0,1.0,0,162.0,1
203,203,0.5942080785944565,0.6,1.0,1.0,353.0,882.0,1.0,1,105.0,1
204,204,-0.41307500867104957,-0.4,1.0,0.0,360.0,807.0,0.0,0,423.0,1
205,205,0.6148435592690152,0.6,1.0,1.0,370.0,535.0,1.0,1,305.0,1
206,206,0.2085422412428658,0.2,0.0,0.0,401.0,597.0,0.0,1,582.0,1
207,207,-0.32261018747880343,-0.3,0.0,1.0,460.0,920.0,1.0,0,230.0,1
208,208,0.1872175341137846,0.2,1.0,1.0,496.0,945.0,1.0,1,549.0,1
209,209,-0.22573626773847244,-0.2,1.0,0.0,268.0,705.0,0.0,0,1167.0,1
210,210,-0.8481642145494883,-0.8,0.0,1.0,307.0,518.0,1.0,0,145.0,1
211,211,-0.44979609721895736,-0.4,1.0,0.0,320.0,701.0,0.0,0,419.0,1
212,212,0.011868261507789857,0.0,0.0,0.0,494.0,526.0,1.0,0,1370.0,0
213,213,0.6962330534847044,0.7,0.0,0.0,403.0,849.0,0.0,1,188.0,1
214,214,-0.8096482828438112,-0.8,0.0,1.0,362.0,713.0,1.0,0,35.0,1
215,215,0.7059872885809976,0.7,1.0,1.0,329.0,788.0,1.0,1,113.0,1
216,216,0.19704486404600108,0.2,0.0,0.0,476.0,792.0,0.0,1,542.0,1
217,217,-0.8112744778664184,-0.8,1.0,0.0,417.0,732.0,0.0,0,591.0,1
218,218,-0.8667051398789581,-0.9,0.0,1.0,253.0,569.0,1.0,0,158.0,1
219,219,-0.8081012827872172,-0.8,0.0,1.0,468.0,742.0,1.0,0,300.0,1
220,220,0.7150217059482106,0.7,1.0,1.0,417.0,780.0,1.0,1,-247.0,1
221,221,0.683105771344748,0.7,0.0,0.0,399.0,857.0,0.0,1,284.0,1
222,222,-0.42342759512159617,-0.4,1.0,0.0,436.0,837.0,0.0,0,187.0,1
223,223,-0.13016274225069913,-0.1,1.0,0.0,436.0,996.0,0.0,0,2798.0,1
224,224,0.49577923978910177,0.5,0.0,0.0,406.0,711.0,0.0,1,223.0,1
225,225,-0.6975819642050058,-0.7,0.0,1.0,424.0,678.0,1.0,0,218.0,1
226,226,-0.8923893502363917,-0.9,1.0,0.0,264.0,729.0,0.0,0,97.0,1
227,227,0.6115559484383438,0.6,0.0,0.0,422.0,858.0,0.0,1,130.0,1
228,228,0.7035030144221203,0.7,1.0,1.0,283.0,819.0,1.0,1,88.0,1
229,229,0.867637864989356,0.9,1.0,1.0,467.0,688.0,1.0,1,215.0,1
230,230,-0.5134711555800335,-0.5,0.0,1.0,468.0,671.0,1.0,0,231.0,1
231,231,-0.17412475292525476,-0.2,1.0,0.0,310.0,836.0,0.0,0,874.0,1
232,232,0.30487135996173087,0.3,0.0,0.0,340.0,637.0,0.0,1,893.0,1
233,233,-0.8594680944786292,-0.9,0.0,1.0,459.0,593.0,1.0,0,88.0,1
234,234,0.7132914602276682,0.7,1.0,1.0,310.0,558.0,1.0,1,112.0,1
235,235,-0.2220577208152792,-0.2,0.0,1.0,306.0,676.0,1.0,0,858.0,1
236,236,0.36948485190062275,0.4,1.0,1.0,339.0,728.0,1.0,1,543.0,1
237,237,0.04279522012216763,0.0,1.0,1.0,281.0,793.0,1.0,1,1946.0,1
238,238,-0.2269854734234361,-0.2,0.0,1.0,270.0,547.0,1.0,0,1003.0,1
239,239,0.3657134650589745,0.4,0.0,0.0,353.0,926.0,0.0,1,671.0,1
240,240,-0.897426341315292,-0.9,0.0,1.0,357.0,726.0,1.0,0,-73.0,1
241,241,0.436516701553738,0.4,1.0,1.0,472.0,920.0,1.0,1,918.0,1
242,242,-0.44118839174429264,-0.4,1.0,0.0,366.0,834.0,0.0,0,280.0,1
243,243,0.4630230731027708,0.5,1.0,1.0,257.0,970.0,1.0,1,373.0,1
244,244,0.6344714750886725,0.6,0.0,0.0,470.0,725.0,0.0,1,205.0,1
245,245,0.46580236605757575,0.5,1.0,1.0,274.0,916.0,1.0,1,160.0,1
246,246,-0.5952690476636069,-0.6,0.0,1.0,250.0,961.0,1.0,0,339.0,1
247,247,0.8640840760004233,0.9,1.0,1.0,256.0,612.0,1.0,1,92.0,1
248,248,0.3596406715952597,0.4,0.0,0.0,410.0,862.0,0.0,1,358.0,1
249,249,-0.20295367180082102,-0.2,0.0,1.0,343.0,635.0,1.0,0,572.0,1
250,250,0.7958824558559426,0.8,0.0,0.0,405.0,793.0,0.0,1,222.0,1
251,251,0.21977473143635706,0.2,0.0,0.0,321.0,858.0,0.0,1,1011.0,1
252,252,-0.6033418344460153,-0.6,0.0,1.0,436.0,898.0,1.0,0,296.0,1
253,253,-0.7444311139909295,-0.7,1.0,0.0,263.0,935.0,0.0,0,242.0,1
254,254,0.8145718213121705,0.8,1.0,1.0,378.0,616.0,1.0,1,286.0,1
255,255,-0.22073075250367902,-0.2,1.0,0.0,484.0,882.0,0.0,0,694.0,1
256,256,-0.17907336011884845,-0.2,1.0,0.0,290.0,693.0,0.0,0,1087.0,1
257,257,-0.6460586661552234,-0.6,0.0,1.0,287.0,660.0,1.0,0,323.0,1
258,258,-0.7183542778669912,-0.7,1.0,0.0,356.0,501.0,0.0,0,323.0,1
259,259,0.2269351306569779,0.2,1.0,1.0,419.0,733.0,1.0,1,128.0,1
260,260,-0.6035261433897343,-0.6,1.0,0.0,411.0,886.0,0.0,0,343.0,1
261,261,0.017163594044978137,0.0,0.0,0.0,254.0,900.0,1.0,0,1276.0,0
262,262,0.7972250378367357,0.8,0.0,0.0,497.0,815.0,0.0,1,148.0,1
263,263,0.24107018841188543,0.2,0.0,0.0,456.0,769.0,0.0,1,345.0,1
264,264,-0.8674662794704373,-0.9,0.0,1.0,363.0,839.0,1.0,0,208.0,1
265,265,0.23534279806997682,0.2,0.0,0.0,284.0,534.0,0.0,1,1352.0,1
266,266,0.8141037154548209,0.8,1.0,1.0,363.0,791.0,1.0,1,376.0,1
267,267,-0.7765965704578037,-0.8,1.0,0.0,382.0,766.0,0.0,0,422.0,1
268,268,-0.0059042840650755934,-0.0,0.0,1.0,298.0,635.0,1.0,0,677.0,1
269,269,-0.7352800922460166,-0.7,1.0,0.0,484.0,789.0,0.0,0,267.0,1
270,270,-0.5967598721917406,-0.6,1.0,0.0,251.0,639.0,0.0,0,180.0,1
271,271,-0.358313403749148,-0.4,1.0,0.0,411.0,680.0,0.0,0,509.0,1
272,272,0.6621335322317837,0.7,0.0,0.0,333.0,671.0,0.0,1,396.0,1
273,273,-0.6607244244839344,-0.7,0.0,1.0,297.0,952.0,1.0,0,201.0,1
274,274,0.3447723028916624,0.3,1.0,1.0,289.0,863.0,1.0,1,378.0,1
275,275,0.6017764408916176,0.6,1.0,1.0,469.0,881.0,1.0,1,290.0,1
276,276,-0.029448989107534906,-0.0,1.0,0.0,328.0,567.0,0.0,0,555.0,1
277,277,0.28789745674052203,0.3,1.0,1.0,379.0,908.0,1.0,1,203.0,1
278,278,-0.831737459120066,-0.8,0.0,1.0,373.0,686.0,1.0,0,121.0,1
279,279,-0.2977225874400744,-0.3,1.0,0.0,385.0,628.0,0.0,0,897.0,1
280,280,-0.34705078431160785,-0.3,1.0,0.0,491.0,538.0,0.0,0,361.0,1
281,281,0.6357263128963774,0.6,1.0,1.0,391.0,978.0,1.0,1,291.0,1
282,282,-0.7152009630448563,-0.7,0.0,1.0,318.0,983.0,1.0,0,109.0,1
283,283,0.7960154613200473,0.8,0.0,0.0,314.0,866.0,0.0,1,220.0,1
284,284,0.6212257070871195,0.6,0.0,0.0,495.0,961.0,0.0,1,324.0,1
285,285,0.7054519280124273,0.7,1.0,1.0,497.0,675.0,1.0,1,218.0,1
286,286,-0.5142730763870018,-0.5,1.0,0.0,276.0,978.0,0.0,0,156.0,1
287,287,0.5773474565598079,0.6,0.0,0.0,363.0,890.0,0.0,1,237.0,1
288,288,-0.6163100700096675,-0.6,0.0,1.0,462.0,978.0,1.0,0,150.0,1
289,289,-0.35772191044484847,-0.4,1.0,0.0,273.0,849.0,0.0,0,258.0,1
290,290,-0.4346296707803257,-0.4,1.0,0.0,376.0,730.0,0.0,0,534.0,1
291,291,0.8379300259161556,0.8,0.0,0.0,394.0,973.0,0.0,1,263.0,1
292,292,0.8677079312570429,0.9,0.0,0.0,272.0,643.0,0.0,1,205.0,1
293,293,-0.13296505161741012,-0.1,1.0,0.0,276.0,585.0,0.0,0,3679.0,1
294,294,-0.1648471711866223,-0.2,1.0,0.0,446.0,680.0,0.0,0,1454.0,1
295,295,-0.610358748757599,-0.6,1.0,0.0,330.0,877.0,0.0,0,123.0,1
296,296,-0.20989802774286603,-0.2,0.0,1.0,427.0,957.0,1.0,0,-74.0,1
297,297,0.3554304834192471,0.4,0.0,0.0,350.0,579.0,0.0,1,691.0,1
298,298,0.683610660094005,0.7,1.0,1.0,432.0,793.0,1.0,1,215.0,1
299,299,0.6474079828916502,0.6,0.0,0.0,306.0,779.0,0.0,1,335.0,1
300,300,0.7420018683534696,0.7,1.0,1.0,440.0,565.0,1.0,1,175.0,1
301,301,0.7288633429545094,0.7,1.0,1.0,479.0,893.0,1.0,1,98.0,1
302,302,0.4140744819472998,0.4,0.0,0.0,332.0,642.0,0.0,1,336.0,1
303,303,-0.17932409834691931,-0.2,1.0,0.0,290.0,991.0,0.0,0,1239.0,1
304,304,0.882096878952665,0.9,1.0,1.0,344.0,811.0,1.0,1,275.0,1
305,305,-0.8132143617359167,-0.8,0.0,1.0,396.0,817.0,1.0,0,347.0,1
306,306,-0.8453533671318233,-0.8,1.0,0.0,426.0,922.0,0.0,0,162.0,1
307,307,0.7362375835354334,0.7,1.0,1.0,285.0,548.0,1.0,1,237.0,1
308,308,0.42673436367605666,0.4,1.0,1.0,345.0,803.0,1.0,1,402.0,1
309,309,-0.21849867848802296,-0.2,0.0,1.0,343.0,687.0,1.0,0,900.0,1
310,310,-0.5875325764191839,-0.6,0.0,1.0,294.0,794.0,1.0,0,242.0,1
311,311,-0.07984909081198888,-0.1,0.0,1.0,467.0,701.0,1.0,0,502.0,1
312,312,0.8248486982603466,0.8,0.0,0.0,266.0,881.0,1.0,0,-377.0,0
313,313,-0.22469182447077807,-0.2,0.0,1.0,400.0,733.0,1.0,0,957.0,1
314,314,-0.3197997824469637,-0.3,0.0,1.0,494.0,608.0,1.0,0,288.0,1
315,315,0.7009697411476824,0.7,1.0,1.0,475.0,551.0,1.0,1,244.0,1
316,316,0.0650304205760901,0.1,1.0,1.0,265.0,631.0,1.0,1,1314.0,1
317,317,0.4985808785354434,0.5,1.0,1.0,462.0,986.0,1.0,1,362.0,1
318,318,-0.8585638946261894,-0.9,1.0,0.0,397.0,743.0,0.0,0,200.0,1
319,319,0.6687270879711952,0.7,1.0,1.0,456.0,578.0,1.0,1,226.0,1
320,320,0.10265215821160856,0.1,0.0,0.0,482.0,775.0,0.0,1,983.0,1
321,321,0.20898481102330602,0.2,1.0,1.0,432.0,537.0,1.0,1,761.0,1
322,322,-0.530620097038625,-0.5,0.0,1.0,355.0,558.0,1.0,0,247.0,1
323,323,-0.852430243736317,-0.9,0.0,1.0,480.0,949.0,1.0,0,61.0,1
324,324,-0.788893146364459,-0.8,1.0,0.0,373.0,568.0,0.0,0,499.0,1
325,325,-0.7595025838005903,-0.8,1.0,0.0,343.0,655.0,0.0,0,122.0,1
326,326,-0.6354703477297607,-0.6,1.0,0.0,262.0,720.0,0.0,0,158.0,1
327,327,-0.5622650034861161,-0.6,1.0,0.0,264.0,711.0,0.0,0,315.0,1
328,328,0.21795746940745586,0.2,1.0,1.0,491.0,598.0,1.0,1,1241.0,1
329,329,-0.6228715917854422,-0.6,0.0,1.0,404.0,659.0,1.0,0,197.0,1
330,330,0.2753391181123638,0.3,1.0,1.0,405.0,603.0,1.0,1,192.0,1
331,331,-0.3261845558032448,-0.3,0.0,1.0,473.0,979.0,1.0,0,538.0,1
332,332,0.8128253044974666,0.8,1.0,1.0,498.0,684.0,1.0,1,308.0,1
333,333,0.41495723786338534,0.4,0.0,0.0,327.0,928.0,0.0,1,475.0,1
334,334,0.5248025835126992,0.5,0.0,0.0,437.0,914.0,0.0,1,1089.0,1
335,335,-0.660538262661151,-0.7,0.0,1.0,359.0,903.0,1.0,0,338.0,1
336,336,0.7773568151249762,0.8,0.0,0.0,337.0,588.0,0.0,1,165.0,1
337,337,0.30512932043732144,0.3,0.0,0.0,298.0,512.0,0.0,1,220.0,1
338,338,0.44017298950342465,0.4,1.0,1.0,263.0,621.0,1.0,1,106.0,1
339,339,-0.22449650857648418,-0.2,1.0,0.0,367.0,660.0,0.0,0,463.0,1
340,340,0.4756929068085264,0.5,1.0,1.0,375.0,703.0,1.0,1,372.0,1
341,341,0.3687703856546748,0.4,0.0,0.0,293.0,561.0,0.0,1,696.0,1
342,342,0.19142829551624885,0.2,1.0,1.0,457.0,561.0,1.0,1,1802.0,1
343,343,-0.32453533273079427,-0.3,0.0,1.0,338.0,864.0,1.0,0,368.0,1
344,344,0.31830466364946675,0.3,0.0,0.0,342.0,659.0,0.0,1,449.0,1
345,345,0.582548042185764,0.6,0.0,0.0,343.0,565.0,0.0,1,482.0,1
346,346,-0.2844633186343136,-0.3,1.0,0.0,361.0,755.0,0.0,0,564.0,1
347,347,0.6237740499359624,0.6,0.0,0.0,468.0,837.0,0.0,1,235.0,1
348,348,-0.2104271436606049,-0.2,1.0,0.0,266.0,507.0,0.0,0,487.0,1
349,349,0.5274924779001516,0.5,0.0,0.0,394.0,991.0,0.0,1,285.0,1
350,350,-0.640817893472944,-0.6,0.0,1.0,294.0,643.0,1.0,0,163.0,1
351,351,-0.5545590126364144,-0.6,0.0,1.0,398.0,500.0,1.0,0,542.0,1
352,352,0.4534563669798074,0.5,1.0,1.0,450.0,636.0,1.0,1,404.0,1
353,353,0.25845408433061434,0.3,1.0,1.0,357.0,617.0,1.0,1,1166.0,1
354,354,0.3646544552669434,0.4,1.0,1.0,429.0,777.0,1.0,1,444.0,1
355,355,0.011734431359288644,0.0,1.0,1.0,462.0,517.0,1.0,1,301.0,1
356,356,-0.3929898576611084,-0.4,0.0,1.0,327.0,560.0,1.0,0,413.0,1
357,357,0.0514039313601552,0.1,1.0,1.0,426.0,604.0,1.0,1,2360.0,1
358,358,0.7015918994430749,0.7,1.0,1.0,423.0,611.0,1.0,1,306.0,1
359,359,0.4005796513891705,0.4,1.0,1.0,332.0,734.0,1.0,1,344.0,1
360,360,0.24430838095261642,0.2,1.0,1.0,469.0,832.0,1.0,1,239.0,1
361,361,-0.28949106732075525,-0.3,1.0,0.0,391.0,707.0,0.0,0,532.0,1
362,362,0.5979520888140303,0.6,0.0,0.0,264.0,794.0,0.0,1,112.0,1
363,363,-0.6859100618332189,-0.7,0.0,1.0,329.0,911.0,1.0,0,260.0,1
364,364,-0.8066782695602822,-0.8,0.0,1.0,457.0,520.0,1.0,0,273.0,1
365,365,0.43232104116287917,0.4,1.0,1.0,327.0,885.0,1.0,1,538.0,1
366,366,0.7176995824346905,0.7,1.0,1.0,329.0,814.0,1.0,1,227.0,1
367,367,-0.8703580659722733,-0.9,1.0,0.0,421.0,536.0,0.0,0,123.0,1
368,368,0.459541079649214,0.5,0.0,0.0,437.0,531.0,0.0,1,312.0,1
369,369,-0.5665460156394535,-0.6,0.0,1.0,327.0,844.0,1.0,0,279.0,1
370,370,0.3432628648469712,0.3,0.0,0.0,466.0,508.0,0.0,1,356.0,1
371,371,-0.3194449155015686,-0.3,0.0,1.0,362.0,631.0,1.0,0,327.0,1
372,372,0.15430780346694684,0.2,1.0,1.0,313.0,872.0,1.0,1,415.0,1
373,373,-0.8620459603763181,-0.9,0.0,1.0,270.0,855.0,1.0,0,415.0,1
374,374,-0.6724383382899599,-0.7,0.0,1.0,445.0,513.0,1.0,0,312.0,1
375,375,-0.5671589030184818,-0.6,1.0,0.0,472.0,791.0,0.0,0,127.0,1
376,376,0.5654341812230942,0.6,1.0,1.0,274.0,878.0,1.0,1,418.0,1
377,377,0.7795106225100131,0.8,1.0,1.0,344.0,558.0,1.0,1,308.0,1
378,378,-0.12211192750140087,-0.1,1.0,0.0,355.0,905.0,0.0,0,1060.0,1
379,379,-0.8812021046975552,-0.9,1.0,0.0,438.0,793.0,0.0,0,189.0,1
380,380,0.6315411095123148,0.6,1.0,1.0,401.0,669.0,1.0,1,440.0,1
381,381,0.5198908168027127,0.5,0.0,0.0,407.0,695.0,0.0,1,288.0,1
382,382,0.6553854004880416,0.7,1.0,1.0,320.0,801.0,1.0,1,389.0,1
383,383,0.01712072470217396,0.0,1.0,1.0,324.0,879.0,1.0,1,2927.0,1
384,384,0.7035624906098875,0.7,0.0,0.0,303.0,656.0,0.0,1,211.0,1
385,385,-0.7022510393917464,-0.7,1.0,0.0,391.0,823.0,0.0,0,186.0,1
386,386,0.5628388436497939,0.6,1.0,1.0,438.0,693.0,1.0,1,499.0,1
387,387,0.1846382176326472,0.2,1.0,1.0,480.0,519.0,1.0,1,961.0,1
388,388,0.23676933159777291,0.2,1.0,1.0,356.0,975.0,1.0,1,269.0,1
389,389,0.639671401334773,0.6,1.0,1.0,485.0,864.0,1.0,1,161.0,1
390,390,-0.7123991641158643,-0.7,1.0,0.0,372.0,740.0,0.0,0,368.0,1
391,391,-0.0006687135171996594,-0.0,0.0,1.0,263.0,891.0,0.0,1,-154.0,0
392,392,0.8973420218141938,0.9,1.0,1.0,471.0,591.0,1.0,1,298.0,1
393,393,-0.07230673339439186,-0.1,1.0,0.0,326.0,806.0,0.0,0,448.0,1
394,394,-0.5414336931512949,-0.5,0.0,1.0,386.0,967.0,1.0,0,267.0,1
395,395,0.6839278080264156,0.7,0.0,0.0,388.0,819.0,0.0,1,163.0,1
396,396,0.8809048804311165,0.9,1.0,1.0,258.0,768.0,1.0,1,334.0,1
397,397,0.676649004039252,0.7,0.0,0.0,373.0,870.0,0.0,1,297.0,1
398,398,0.4518450896624592,0.5,0.0,0.0,356.0,908.0,0.0,1,146.0,1
399,399,0.39555179484017533,0.4,1.0,1.0,443.0,686.0,1.0,1,871.0,1
400,400,-0.029742588257468783,-0.0,0.0,1.0,471.0,730.0,1.0,0,229.0,1
401,401,0.8426141080690664,0.8,0.0,0.0,402.0,710.0,0.0,1,348.0,1
402,402,0.6363481831158108,0.6,0.0,0.0,446.0,766.0,0.0,1,558.0,1
403,403,-0.7563869177820973,-0.8,0.0,1.0,266.0,782.0,1.0,0,182.0,1
404,404,0.20007064249150985,0.2,0.0,0.0,497.0,573.0,0.0,1,880.0,1
405,405,-0.8135004903696286,-0.8,0.0,1.0,306.0,691.0,1.0,0,263.0,1
406,406,-0.11629433322593896,-0.1,0.0,1.0,254.0,801.0,1.0,0,1035.0,1
407,407,-0.5738752711700379,-0.6,0.0,1.0,468.0,517.0,1.0,0,485.0,1
408,408,0.3374995553787966,0.3,0.0,0.0,445.0,865.0,0.0,1,80.0,1
409,409,-0.6152313850541613,-0.6,1.0,0.0,476.0,977.0,0.0,0,487.0,1
410,410,0.04541879047454345,0.0,1.0,1.0,337.0,607.0,0.0,0,4056.0,0
411,411,0.65280430703323,0.7,1.0,1.0,378.0,540.0,1.0,1,112.0,1
412,412,0.15009152163147188,0.2,0.0,0.0,305.0,972.0,0.0,1,853.0,1
413,413,0.05298410585712787,0.1,0.0,0.0,394.0,569.0,1.0,0,1087.0,0
414,414,0.23788754495951314,0.2,0.0,0.0,315.0,906.0,0.0,1,599.0,1
415,415,0.00266681411010139,0.0,1.0,1.0,286.0,989.0,1.0,1,3555.0,1
416,416,-0.5979089796711997,-0.6,0.0,1.0,404.0,761.0,1.0,0,95.0,1
417,417,0.14443224076586192,0.1,1.0,1.0,290.0,841.0,1.0,1,1909.0,1
418,418,0.5307735792380176,0.5,0.0,0.0,263.0,821.0,0.0,1,106.0,1
419,419,0.760561357057053,0.8,0.0,0.0,317.0,634.0,0.0,1,439.0,1
420,420,0.3051754848030487,0.3,1.0,1.0,307.0,577.0,1.0,1,366.0,1
421,421,0.3571716424090504,0.4,1.0,1.0,262.0,724.0,1.0,1,524.0,1
422,422,0.500572188002188,0.5,1.0,1.0,378.0,872.0,1.0,1,180.0,1
423,423,0.41562432575651787,0.4,1.0,1.0,289.0,668.0,1.0,1,513.0,1
424,424,-0.2672099384360156,-0.3,1.0,0.0,337.0,941.0,0.0,0,-138.0,1
425,425,-0.4835293499879133,-0.5,0.0,1.0,336.0,572.0,1.0,0,452.0,1
426,426,0.6097554373939001,0.6,0.0,0.0,313.0,729.0,0.0,1,528.0,1
427,427,0.8488550192088856,0.8,0.0,0.0,446.0,681.0,0.0,1,163.0,1
428,428,0.5917449553146826,0.6,0.0,0.0,445.0,727.0,0.0,1,308.0,1
429,429,0.7698384909512367,0.8,0.0,0.0,413.0,790.0,0.0,1,147.0,1
430,430,0.3754599364171268,0.4,1.0,1.0,484.0,523.0,1.0,1,533.0,1
431,431,0.6825965240025268,0.7,1.0,1.0,258.0,708.0,1.0,1,474.0,1
432,432,0.8929626145886332,0.9,1.0,1.0,262.0,825.0,1.0,1,93.0,1
433,433,0.776666219020579,0.8,1.0,1.0,315.0,592.0,1.0,1,333.0,1
434,434,0.8455398300731009,0.8,0.0,0.0,285.0,511.0,0.0,1,174.0,1
435,435,0.6181603856868415,0.6,0.0,0.0,334.0,787.0,0.0,1,109.0,1
436,436,0.27934244090081817,0.3,1.0,1.0,486.0,806.0,1.0,1,838.0,1
437,437,0.07611698439659786,0.1,1.0,1.0,423.0,727.0,1.0,1,390.0,1
438,438,-0.5680886115820125,-0.6,0.0,1.0,315.0,799.0,1.0,0,486.0,1
439,439,-0.6088822002005868,-0.6,0.0,1.0,325.0,999.0,1.0,0,336.0,1
440,440,0.8369492751007434,0.8,1.0,1.0,407.0,790.0,1.0,1,213.0,1
441,441,0.6805851730872564,0.7,1.0,1.0,415.0,656.0,1.0,1,299.0,1
442,442,0.8804819178447473,0.9,1.0,1.0,443.0,607.0,1.0,1,250.0,1
443,443,0.7540697705258296,0.8,0.0,0.0,357.0,718.0,0.0,1,685.0,1
444,444,0.7494006582176759,0.7,0.0,0.0,455.0,947.0,0.0,1,138.0,1
445,445,0.833546334444211,0.8,1.0,1.0,410.0,791.0,1.0,1,189.0,1
446,446,0.7725639129959584,0.8,0.0,0.0,255.0,688.0,0.0,1,277.0,1
447,447,-0.8851502017154566,-0.9,1.0,0.0,337.0,994.0,0.0,0,359.0,1
448,448,0.6319572846644524,0.6,0.0,0.0,461.0,963.0,0.0,1,306.0,1
449,449,-0.44015743704701726,-0.4,0.0,1.0,307.0,984.0,1.0,0,769.0,1
450,450,0.38376328690917105,0.4,0.0,0.0,350.0,744.0,1.0,0,-154.0,0
451,451,0.6525352348540828,0.7,1.0,1.0,316.0,878.0,1.0,1,236.0,1
452,452,-0.6792618584127428,-0.7,1.0,0.0,470.0,645.0,0.0,0,65.0,1
453,453,0.7310756349146833,0.7,1.0,1.0,398.0,614.0,1.0,1,188.0,1
454,454,-0.2210376559435785,-0.2,1.0,0.0,390.0,639.0,0.0,0,1911.0,1
455,455,0.03739255820644105,0.0,0.0,0.0,279.0,774.0,0.0,1,2497.0,1
456,456,0.629108267381063,0.6,0.0,0.0,293.0,929.0,0.0,1,88.0,1
457,457,-0.3874701384268978,-0.4,0.0,1.0,259.0,989.0,1.0,0,722.0,1
458,458,0.8445202857461022,0.8,0.0,0.0,269.0,962.0,0.0,1,249.0,1
459,459,-0.25203254735118985,-0.3,1.0,0.0,360.0,880.0,0.0,0,120.0,1
460,460,0.6925815367197724,0.7,1.0,1.0,414.0,758.0,1.0,1,358.0,1
461,461,0.01436079504239185,0.0,1.0,1.0,309.0,560.0,1.0,1,1221.0,1
462,462,-0.6466664841830931,-0.6,0.0,1.0,490.0,754.0,1.0,0,226.0,1
463,463,0.7181992362464137,0.7,0.0,0.0,370.0,867.0,0.0,1,183.0,1
464,464,-0.5556400035209621,-0.6,0.0,1.0,479.0,613.0,1.0,0,378.0,1
465,465,-0.41567706091411033,-0.4,1.0,0.0,349.0,704.0,0.0,0,267.0,1
466,466,-0.5836817409114089,-0.6,1.0,0.0,251.0,582.0,0.0,0,217.0,1
467,467,-0.24241430762883454,-0.2,1.0,0.0,334.0,610.0,1.0,1,46.0,0
468,468,0.24481198794364534,0.2,1.0,1.0,394.0,589.0,1.0,1,457.0,1
469,469,0.8320092504394306,0.8,1.0,1.0,444.0,957.0,1.0,1,229.0,1
470,470,0.5151319933503574,0.5,1.0,1.0,288.0,783.0,1.0,1,109.0,1
471,471,0.2127841254695012,0.2,1.0,1.0,427.0,900.0,1.0,1,1223.0,1
472,472,0.5728915812615213,0.6,1.0,1.0,295.0,774.0,1.0,1,191.0,1
473,473,-0.8013062796845538,-0.8,0.0,1.0,294.0,946.0,0.0,1,-30.0,0
474,474,-0.8221586516191153,-0.8,0.0,1.0,430.0,524.0,1.0,0,166.0,1
475,475,-0.07461906857855183,-0.1,1.0,0.0,254.0,961.0,0.0,0,875.0,1
476,476,0.6894621853344883,0.7,0.0,0.0,256.0,501.0,0.0,1,163.0,1
477,477,-0.5495366093284404,-0.5,1.0,0.0,430.0,665.0,0.0,0,795.0,1
478,478,-0.7495530955893343,-0.7,0.0,1.0,495.0,708.0,1.0,0,127.0,1
479,479,0.20468765651448317,0.2,0.0,0.0,406.0,741.0,0.0,1,703.0,1
480,480,-0.7492982031825953,-0.7,1.0,0.0,292.0,801.0,0.0,0,437.0,1
481,481,0.3195047566957111,0.3,1.0,1.0,341.0,521.0,1.0,1,568.0,1
482,482,-0.47772022416110205,-0.5,0.0,1.0,420.0,676.0,1.0,0,364.0,1
483,483,0.08965578040913091,0.1,1.0,1.0,459.0,512.0,0.0,0,1339.0,0
484,484,0.06131353341175494,0.1,0.0,0.0,390.0,726.0,1.0,0,3204.0,0
485,485,-0.21501110151606662,-0.2,1.0,0.0,330.0,506.0,0.0,0,604.0,1
486,486,0.35200009362532836,0.4,0.0,0.0,399.0,750.0,0.0,1,571.0,1
487,487,0.6485909414511862,0.6,0.0,0.0,324.0,871.0,0.0,1,295.0,1
488,488,0.7948524408967194,0.8,0.0,0.0,448.0,982.0,0.0,1,270.0,1
489,489,-0.051640062612459015,-0.1,0.0,1.0,336.0,846.0,1.0,0,3738.0,1
490,490,0.4001400579885511,0.4,1.0,1.0,287.0,547.0,1.0,1,476.0,1
491,491,0.3197993537037175,0.3,1.0,1.0,285.0,573.0,1.0,1,1622.0,1
492,492,-0.7393687891665999,-0.7,0.0,1.0,421.0,718.0,1.0,0,251.0,1
493,493,0.7932651530206533,0.8,1.0,1.0,316.0,702.0,1.0,1,152.0,1
494,494,0.062188656241016105,0.1,1.0,1.0,452.0,771.0,1.0,1,1627.0,1
495,495,-0.3975362421519647,-0.4,1.0,0.0,460.0,680.0,0.0,0,270.0,1
496,496,0.8657864445092088,0.9,0.0,0.0,366.0,532.0,0.0,1,212.0,1
497,497,0.2617774625734116,0.3,0.0,0.0,417.0,501.0,0.0,1,462.0,1
498,498,-0.7778779837800873,-0.8,0.0,1.0,404.0,604.0,1.0,0,162.0,1
499,499,0.02585701062879242,0.0,1.0,1.0,434.0,906.0,1.0,1,3660.0,1
500,500,-0.07216607004422337,-0.1,0.0,1.0,358.0,662.0,1.0,0,1210.0,1
501,501,-0.8858099090109322,-0.9,0.0,1.0,455.0,573.0,1.0,0,102.0,1
502,502,0.8897688031536105,0.9,0.0,0.0,456.0,824.0,0.0,1,320.0,1
503,503,-0.11581310307989012,-0.1,0.0,1.0,351.0,858.0,1.0,0,1431.0,1
504,504,0.7530157309083071,0.8,1.0,1.0,382.0,539.0,1.0,1,299.0,1
505,505,-0.4504510901703967,-0.5,1.0,0.0,264.0,638.0,0.0,0,448.0,1
506,506,-0.5652662880176746,-0.6,0.0,1.0,418.0,597.0,1.0,0,395.0,1
507,507,-0.1597708470433834,-0.2,0.0,1.0,308.0,983.0,1.0,0,169.0,1
508,508,-0.5611960365362858,-0.6,1.0,0.0,322.0,770.0,0.0,0,318.0,1
509,509,-0.11594577374328985,-0.1,0.0,1.0,464.0,702.0,1.0,0,414.0,1
510,510,0.8781961094635434,0.9,1.0,1.0,427.0,686.0,1.0,1,337.0,1
511,511,0.14735898151793048,0.1,0.0,0.0,332.0,521.0,0.0,1,767.0,1
512,512,-0.5255473580054019,-0.5,0.0,1.0,477.0,796.0,1.0,0,257.0,1
513,513,-0.5634237523157202,-0.6,0.0,1.0,454.0,943.0,1.0,0,133.0,1
514,514,-0.7157014320737796,-0.7,0.0,1.0,472.0,749.0,1.0,0,289.0,1
515,515,-0.1703982642775812,-0.2,0.0,1.0,293.0,825.0,1.0,0,952.0,1
516,516,-0.5075697218777127,-0.5,0.0,1.0,398.0,564.0,1.0,0,628.0,1
517,517,-0.368802809975287,-0.4,1.0,0.0,322.0,740.0,0.0,0,548.0,1
518,518,0.6877749036514392,0.7,0.0,0.0,397.0,616.0,0.0,1,377.0,1
519,519,0.7848266510728362,0.8,0.0,0.0,482.0,622.0,0.0,1,96.0,1
520,520,0.23845651422175773,0.2,0.0,0.0,283.0,559.0,0.0,1,1578.0,1
521,521,0.6589563289784329,0.7,0.0,0.0,445.0,582.0,0.0,1,263.0,1
522,522,-0.5082043393789072,-0.5,1.0,0.0,361.0,819.0,0.0,0,520.0,1
523,523,-0.4788499485146326,-0.5,0.0,1.0,498.0,844.0,1.0,0,338.0,1
524,524,0.248348589816637,0.2,1.0,1.0,383.0,840.0,1.0,1,-283.0,1
525,525,-0.21267819736305027,-0.2,0.0,1.0,307.0,853.0,1.0,0,940.0,1
526,526,-0.26784360016973363,-0.3,1.0,0.0,272.0,843.0,0.0,0,355.0,1
527,527,0.31978158380701716,0.3,1.0,1.0,367.0,906.0,1.0,1,747.0,1
528,528,-0.1215647890371434,-0.1,0.0,1.0,423.0,607.0,1.0,0,730.0,1
529,529,-0.8113986182601022,-0.8,1.0,0.0,343.0,707.0,0.0,0,150.0,1
530,530,0.16933948737516247,0.2,0.0,0.0,254.0,712.0,0.0,1,1034.0,1
531,531,0.7253325968853143,0.7,0.0,0.0,274.0,961.0,0.0,1,195.0,1
532,532,-0.38965570175565134,-0.4,1.0,0.0,351.0,517.0,0.0,0,492.0,1
533,533,0.6525548169930665,0.7,0.0,0.0,338.0,538.0,0.0,1,44.0,1
534,534,0.7477409447877051,0.7,0.0,0.0,340.0,999.0,0.0,1,221.0,1
535,535,-0.6379186778403472,-0.6,1.0,0.0,480.0,608.0,0.0,0,212.0,1
536,536,0.3180522405467575,0.3,0.0,0.0,312.0,585.0,0.0,1,703.0,1
537,537,-0.005372236855942125,-0.0,1.0,0.0,446.0,800.0,1.0,1,3754.0,0
538,538,-0.6972489416446563,-0.7,1.0,0.0,407.0,504.0,0.0,0,329.0,1
539,539,0.7028264912131242,0.7,1.0,1.0,333.0,739.0,1.0,1,228.0,1
540,540,-0.2165375121465789,-0.2,0.0,1.0,310.0,565.0,1.0,0,695.0,1
541,541,-0.8415169918551759,-0.8,1.0,0.0,498.0,800.0,0.0,0,172.0,1
542,542,0.822468506616116,0.8,1.0,1.0,299.0,917.0,1.0,1,164.0,1
543,543,0.09866206929928001,0.1,0.0,0.0,390.0,914.0,1.0,0,2246.0,0
544,544,0.6770077331237833,0.7,1.0,1.0,304.0,836.0,1.0,1,130.0,1
545,545,-0.7653973174250671,-0.8,0.0,1.0,454.0,644.0,1.0,0,352.0,1
546,546,-0.45515156404365215,-0.5,1.0,0.0,447.0,692.0,0.0,0,371.0,1
547,547,0.03780347838352882,0.0,1.0,1.0,255.0,837.0,1.0,1,1228.0,1
548,548,0.7574948009496282,0.8,1.0,1.0,403.0,717.0,1.0,1,390.0,1
549,549,0.2820592939470311,0.3,0.0,0.0,463.0,794.0,0.0,1,673.0,1
550,550,0.016769423044821097,0.0,1.0,1.0,255.0,766.0,1.0,1,889.0,1
551,551,-0.14270234544767113,-0.1,1.0,0.0,466.0,557.0,0.0,0,2447.0,1
552,552,-0.20070183469942626,-0.2,1.0,0.0,433.0,887.0,0.0,0,690.0,1
553,553,0.14064778709301284,0.1,0.0,0.0,330.0,710.0,0.0,1,2510.0,1
554,554,-0.009927424692029785,-0.0,0.0,1.0,379.0,780.0,0.0,1,331.0,0
555,555,0.2727937293593873,0.3,0.0,0.0,264.0,919.0,0.0,1,337.0,1
556,556,0.18872342321584357,0.2,0.0,0.0,406.0,924.0,0.0,1,1380.0,1
557,557,-0.6876130036231911,-0.7,1.0,0.0,465.0,984.0,0.0,0,381.0,1
558,558,0.340079568667078,0.3,1.0,1.0,355.0,620.0,1.0,1,415.0,1
559,559,-0.618403284846955,-0.6,0.0,1.0,304.0,814.0,1.0,0,262.0,1
560,560,-0.6588500709375702,-0.7,1.0,0.0,308.0,632.0,0.0,0,460.0,1
561,561,0.3769307600957478,0.4,0.0,0.0,450.0,923.0,0.0,1,547.0,1
562,562,0.43733926671968193,0.4,1.0,1.0,395.0,542.0,1.0,1,433.0,1
563,563,-0.6474638945083948,-0.6,1.0,0.0,427.0,609.0,0.0,0,-146.0,1
564,564,-0.11024949552274332,-0.1,1.0,0.0,426.0,648.0,0.0,0,3926.0,1
565,565,-0.7733725290321083,-0.8,0.0,1.0,379.0,674.0,1.0,0,147.0,1
566,566,-0.3328960985340981,-0.3,1.0,0.0,412.0,595.0,0.0,0,383.0,1
567,567,-0.6145663515891695,-0.6,1.0,0.0,377.0,690.0,0.0,0,153.0,1
568,568,0.6498673602213535,0.6,0.0,0.0,432.0,636.0,0.0,1,202.0,1
569,569,-0.6529285560271966,-0.7,1.0,0.0,318.0,817.0,0.0,0,135.0,1
570,570,0.7268624263048867,0.7,0.0,0.0,387.0,814.0,0.0,1,309.0,1
571,571,-0.6144459864548534,-0.6,1.0,0.0,364.0,713.0,0.0,0,293.0,1
572,572,-0.14537965962260846,-0.1,0.0,1.0,405.0,997.0,1.0,0,1108.0,1
573,573,0.6624188602083637,0.7,1.0,1.0,456.0,975.0,0.0,0,-271.0,0
574,574,0.7228369992962692,0.7,0.0,0.0,499.0,926.0,1.0,0,-205.0,0
575,575,-0.13922085538553375,-0.1,0.0,1.0,444.0,888.0,1.0,0,2128.0,1
576,576,-0.43088774536368246,-0.4,0.0,1.0,498.0,786.0,1.0,0,-374.0,1
577,577,0.25520237244711896,0.3,1.0,1.0,352.0,715.0,1.0,1,383.0,1
578,578,0.5558180041271655,0.6,1.0,1.0,414.0,619.0,1.0,1,327.0,1
579,579,-0.33060461386090845,-0.3,0.0,1.0,289.0,714.0,1.0,0,447.0,1
580,580,0.4637021977491046,0.5,0.0,0.0,313.0,613.0,0.0,1,374.0,1
581,581,0.47595324970992536,0.5,0.0,0.0,416.0,680.0,0.0,1,164.0,1
582,582,0.2862608754478587,0.3,1.0,1.0,456.0,704.0,1.0,1,810.0,1
583,583,-0.011243504537014837,-0.0,0.0,1.0,270.0,746.0,1.0,0,3984.0,1
584,584,0.6963682874804132,0.7,1.0,1.0,424.0,681.0,1.0,1,65.0,1
585,585,-0.03595968292128604,-0.0,1.0,0.0,444.0,740.0,0.0,0,1306.0,1
586,586,-0.05025040024021121,-0.1,0.0,1.0,484.0,608.0,1.0,0,1158.0,1
587,587,0.7785859181169313,0.8,0.0,0.0,477.0,948.0,0.0,1,205.0,1
588,588,-0.416997176934074,-0.4,1.0,0.0,293.0,857.0,0.0,0,390.0,1
589,589,-0.4106950460193936,-0.4,1.0,0.0,411.0,550.0,0.0,0,369.0,1
590,590,-0.7683157648668223,-0.8,1.0,0.0,302.0,516.0,0.0,0,232.0,1
591,591,-0.6516413982067244,-0.7,1.0,0.0,433.0,898.0,0.0,0,459.0,1
592,592,-0.25432099852617374,-0.3,1.0,0.0,471.0,735.0,0.0,0,844.0,1
593,593,-0.7392832726412618,-0.7,0.0,1.0,483.0,808.0,1.0,0,369.0,1
594,594,0.3546780324403206,0.4,0.0,0.0,330.0,843.0,0.0,1,337.0,1
595,595,0.10550453777053936,0.1,0.0,0.0,299.0,761.0,1.0,0,-380.0,0
596,596,0.0019526223699205536,0.0,0.0,0.0,452.0,823.0,1.0,0,1595.0,0
597,597,-0.25123069058053993,-0.3,1.0,0.0,428.0,977.0,0.0,0,495.0,1
598,598,-0.4171453095315448,-0.4,1.0,0.0,343.0,733.0,0.0,0,174.0,1
599,599,-0.03758164481327175,-0.0,1.0,0.0,274.0,866.0,0.0,0,1330.0,1
600,600,-0.23600459550084718,-0.2,0.0,1.0,450.0,909.0,1.0,0,331.0,1
601,601,-0.5944238274696317,-0.6,0.0,1.0,287.0,600.0,1.0,0,113.0,1
602,602,-0.7055870979378406,-0.7,1.0,0.0,258.0,754.0,0.0,0,288.0,1
603,603,-0.3453138987065878,-0.3,1.0,0.0,268.0,524.0,0.0,0,188.0,1
604,604,0.7146724616999579,0.7,0.0,0.0,335.0,854.0,0.0,1,221.0,1
605,605,0.8519007116778731,0.9,1.0,1.0,412.0,867.0,1.0,1,601.0,1
606,606,-0.7594450816373062,-0.8,0.0,1.0,361.0,923.0,1.0,0,186.0,1
607,607,-0.8352272411455882,-0.8,0.0,1.0,471.0,640.0,1.0,0,89.0,1
608,608,-0.07384838679928396,-0.1,1.0,0.0,385.0,584.0,0.0,0,1271.0,1
609,609,-0.1998455384372373,-0.2,1.0,0.0,419.0,694.0,0.0,0,1027.0,1
610,610,-0.7821378702437484,-0.8,1.0,0.0,367.0,661.0,0.0,0,232.0,1
611,611,-0.7751529939798625,-0.8,1.0,0.0,418.0,687.0,0.0,0,225.0,1
612,612,-0.15672355694432538,-0.2,0.0,1.0,250.0,981.0,1.0,0,349.0,1
613,613,-0.8005259906587227,-0.8,1.0,0.0,251.0,505.0,0.0,0,324.0,1
614,614,0.2805204020950366,0.3,0.0,0.0,292.0,703.0,0.0,1,1275.0,1
615,615,-0.09503875406608064,-0.1,1.0,0.0,296.0,858.0,0.0,0,1536.0,1
616,616,-0.6968937364557154,-0.7,0.0,1.0,315.0,553.0,1.0,0,262.0,1
617,617,-0.19596245361640208,-0.2,1.0,0.0,252.0,985.0,0.0,0,1833.0,1
618,618,-0.2371873791624407,-0.2,1.0,0.0,341.0,933.0,0.0,0,726.0,1
619,619,0.7074332865943768,0.7,1.0,1.0,416.0,789.0,1.0,1,245.0,1
620,620,-0.2870540520653423,-0.3,0.0,1.0,342.0,992.0,1.0,0,-244.0,1
621,621,-0.24822884745753504,-0.2,0.0,1.0,301.0,685.0,1.0,0,654.0,1
622,622,-0.5019922252363533,-0.5,0.0,1.0,392.0,782.0,1.0,0,406.0,1
623,623,0.7784951570493165,0.8,1.0,1.0,430.0,952.0,0.0,0,-62.0,0
624,624,0.13635917685668553,0.1,0.0,0.0,332.0,749.0,0.0,1,689.0,1
625,625,0.6716592145935162,0.7,0.0,0.0,458.0,954.0,0.0,1,308.0,1
626,626,0.5289775707639875,0.5,0.0,0.0,274.0,624.0,0.0,1,262.0,1
627,627,0.17004513976709446,0.2,1.0,1.0,277.0,637.0,1.0,1,546.0,1
628,628,0.13964143104135662,0.1,1.0,1.0,422.0,590.0,1.0,1,2338.0,1
629,629,0.41687288979522086,0.4,0.0,0.0,331.0,986.0,0.0,1,183.0,1
630,630,0.6839753846402098,0.7,1.0,1.0,468.0,873.0,1.0,1,299.0,1
631,631,0.530098947164591,0.5,1.0,1.0,368.0,963.0,1.0,1,389.0,1
632,632,0.1419201209158788,0.1,1.0,1.0,418.0,659.0,1.0,1,1423.0,1
633,633,-0.21019867547982418,-0.2,0.0,1.0,328.0,676.0,1.0,0,916.0,1
634,634,-0.8470192357450084,-0.8,0.0,1.0,494.0,928.0,1.0,0,238.0,1
635,635,-0.720364349602392,-0.7,0.0,1.0,351.0,847.0,1.0,0,232.0,1
636,636,0.360476151299817,0.4,1.0,1.0,280.0,818.0,1.0,1,312.0,1
637,637,0.7505300927725121,0.8,1.0,1.0,424.0,850.0,1.0,1,196.0,1
638,638,0.4852248945968408,0.5,0.0,0.0,478.0,900.0,0.0,1,362.0,1
639,639,-0.4692923167363133,-0.5,1.0,0.0,343.0,667.0,0.0,0,110.0,1
640,640,-0.8178279388003485,-0.8,0.0,1.0,335.0,658.0,1.0,0,527.0,1
641,641,-0.8352370683863986,-0.8,0.0,1.0,359.0,774.0,1.0,0,137.0,1
642,642,0.7263995722819611,0.7,1.0,1.0,316.0,707.0,1.0,1,257.0,1
643,643,0.33048521938549336,0.3,1.0,1.0,456.0,966.0,1.0,1,108.0,1
644,644,-0.31525157865528064,-0.3,0.0,1.0,378.0,553.0,1.0,0,289.0,1
645,645,-0.5142914284781424,-0.5,1.0,0.0,303.0,757.0,0.0,0,470.0,1
646,646,-0.3404978773442008,-0.3,0.0,1.0,273.0,615.0,1.0,0,232.0,1
647,647,-0.4253741817878951,-0.4,0.0,1.0,489.0,998.0,1.0,0,353.0,1
648,648,-0.44448501076537084,-0.4,0.0,1.0,283.0,685.0,1.0,0,152.0,1
649,649,0.4777271422293571,0.5,1.0,1.0,403.0,789.0,1.0,1,168.0,1
650,650,0.2825513460607493,0.3,0.0,0.0,345.0,549.0,0.0,1,336.0,1
651,651,0.7138389305075871,0.7,1.0,1.0,270.0,510.0,1.0,1,150.0,1
652,652,0.4138264609931307,0.4,1.0,1.0,406.0,891.0,1.0,1,383.0,1
653,653,-0.3971550671348424,-0.4,0.0,1.0,465.0,703.0,1.0,0,662.0,1
654,654,-0.28437394730710763,-0.3,1.0,0.0,385.0,643.0,0.0,0,752.0,1
655,655,0.6993872977284911,0.7,0.0,0.0,478.0,735.0,0.0,1,107.0,1
656,656,-0.10415535915945906,-0.1,0.0,1.0,322.0,879.0,1.0,0,-481.0,1
657,657,0.2352893983006631,0.2,0.0,0.0,345.0,558.0,0.0,1,667.0,1
658,658,0.7868610467300999,0.8,1.0,1.0,333.0,642.0,1.0,1,305.0,1
659,659,-0.5313798285795381,-0.5,1.0,0.0,302.0,675.0,0.0,0,423.0,1
660,660,0.4916130732561451,0.5,1.0,1.0,272.0,834.0,1.0,1,724.0,1
661,661,0.08430736808242212,0.1,0.0,0.0,495.0,544.0,0.0,1,871.0,1
662,662,-0.2522461014355286,-0.3,1.0,0.0,488.0,912.0,0.0,0,300.0,1
663,663,0.48542747158197586,0.5,1.0,1.0,281.0,953.0,1.0,1,236.0,1
664,664,0.43994720665356757,0.4,0.0,0.0,498.0,875.0,0.0,1,627.0,1
665,665,0.7345015186353917,0.7,1.0,1.0,463.0,642.0,1.0,1,385.0,1
666,666,-0.8744759854188607,-0.9,1.0,0.0,395.0,760.0,0.0,0,-285.0,1
667,667,0.3225559373469945,0.3,1.0,1.0,436.0,926.0,1.0,1,38.0,1
668,668,-0.5000878020140928,-0.5,1.0,0.0,304.0,882.0,0.0,0,774.0,1
669,669,0.18592557403301224,0.2,1.0,1.0,279.0,526.0,1.0,1,1305.0,1
670,670,0.8297163183304989,0.8,0.0,0.0,456.0,769.0,0.0,1,95.0,1
671,671,0.5826803618702271,0.6,0.0,0.0,380.0,669.0,0.0,1,541.0,1
672,672,-0.6114082555035112,-0.6,1.0,0.0,443.0,894.0,0.0,0,193.0,1
673,673,0.5431553917798996,0.5,1.0,1.0,378.0,891.0,1.0,1,141.0,1
674,674,-0.012075985540483947,-0.0,0.0,1.0,397.0,767.0,1.0,0,86.0,1
675,675,0.5947205998569719,0.6,0.0,0.0,275.0,522.0,0.0,1,333.0,1
676,676,-0.604352292293753,-0.6,0.0,1.0,423.0,624.0,1.0,0,143.0,1
677,677,0.2360281335843072,0.2,0.0,0.0,323.0,905.0,0.0,1,92.0,1
678,678,-0.846895296002666,-0.8,1.0,0.0,389.0,974.0,1.0,1,-33.0,0
679,679,-0.6726035964129031,-0.7,1.0,0.0,346.0,660.0,0.0,0,244.0,1
680,680,-0.7320467237402024,-0.7,0.0,1.0,460.0,578.0,1.0,0,292.0,1
681,681,0.5556015535068529,0.6,0.0,0.0,405.0,794.0,0.0,1,71.0,1
682,682,-0.5609955053672864,-0.6,1.0,0.0,427.0,612.0,0.0,0,501.0,1
683,683,-0.09323770523764496,-0.1,0.0,1.0,289.0,663.0,1.0,0,818.0,1
684,684,0.4074160522636384,0.4,1.0,1.0,277.0,932.0,1.0,1,381.0,1
685,685,0.8496429496036438,0.8,0.0,0.0,369.0,887.0,0.0,1,184.0,1
686,686,-0.30927509663438624,-0.3,1.0,0.0,251.0,965.0,0.0,0,554.0,1
687,687,0.22644485558310634,0.2,0.0,0.0,302.0,807.0,0.0,1,551.0,1
688,688,-0.6392748800041166,-0.6,1.0,0.0,404.0,609.0,0.0,0,307.0,1
689,689,0.8144769509984148,0.8,1.0,1.0,363.0,695.0,1.0,1,292.0,1
690,690,-0.4930441433650019,-0.5,0.0,1.0,480.0,816.0,1.0,0,-456.0,1
691,691,-0.19610203781393687,-0.2,1.0,0.0,487.0,821.0,0.0,0,442.0,1
692,692,0.18520289918904587,0.2,1.0,1.0,476.0,535.0,1.0,1,1039.0,1
693,693,-0.16153682091470456,-0.2,1.0,0.0,402.0,907.0,0.0,0,491.0,1
694,694,-0.5444831615607679,-0.5,0.0,1.0,484.0,823.0,1.0,0,553.0,1
695,695,0.2540624808271684,0.3,0.0,0.0,360.0,774.0,0.0,1,596.0,1
696,696,0.4422004955495621,0.4,0.0,0.0,339.0,769.0,0.0,1,172.0,1
697,697,-0.8322894651489756,-0.8,1.0,0.0,430.0,574.0,0.0,0,376.0,1
698,698,-0.10609906318063256,-0.1,0.0,1.0,324.0,503.0,1.0,0,293.0,1
699,699,-0.13758435129240265,-0.1,1.0,0.0,272.0,622.0,1.0,1,-14.0,0
700,700,0.5631899148455933,0.6,1.0,1.0,365.0,780.0,1.0,1,385.0,1
701,701,-0.0498088419678836,-0.0,1.0,0.0,377.0,685.0,1.0,1,3938.0,0
702,702,-0.7900906351638893,-0.8,1.0,0.0,320.0,513.0,0.0,0,387.0,1
703,703,0.6255753639131475,0.6,0.0,0.0,469.0,572.0,0.0,1,279.0,1
704,704,0.8605571885355737,0.9,0.0,0.0,346.0,777.0,0.0,1,327.0,1
705,705,0.09647818704223565,0.1,1.0,1.0,430.0,994.0,1.0,1,2286.0,1
706,706,-0.8599476036499635,-0.9,1.0,0.0,376.0,871.0,0.0,0,183.0,1
707,707,0.5650936251077038,0.6,0.0,0.0,265.0,624.0,0.0,1,511.0,1
708,708,-0.2846976065037402,-0.3,0.0,1.0,270.0,994.0,1.0,0,196.0,1
709,709,-0.3715339147592239,-0.4,0.0,1.0,364.0,573.0,1.0,0,123.0,1
710,710,-0.1470100720497668,-0.1,1.0,0.0,329.0,970.0,0.0,0,1231.0,1
711,711,0.3219958947500906,0.3,1.0,1.0,420.0,946.0,1.0,1,794.0,1
712,712,0.8934264405067877,0.9,1.0,1.0,394.0,940.0,1.0,1,146.0,1
713,713,-0.5912599122321889,-0.6,1.0,0.0,306.0,712.0,0.0,0,302.0,1
714,714,-0.12801682417162563,-0.1,0.0,1.0,428.0,615.0,1.0,0,1367.0,1
715,715,-0.06166264941225841,-0.1,0.0,1.0,376.0,560.0,1.0,0,1134.0,1
716,716,-0.031865053427319046,-0.0,0.0,1.0,367.0,812.0,1.0,0,811.0,1
717,717,0.02527287859796945,0.0,1.0,1.0,263.0,811.0,0.0,0,3926.0,0
718,718,-0.6976438128021805,-0.7,0.0,1.0,372.0,883.0,1.0,0,135.0,1
719,719,-0.48849217707353604,-0.5,1.0,0.0,280.0,563.0,0.0,0,427.0,1
720,720,0.02523876377683143,0.0,0.0,0.0,465.0,948.0,1.0,0,-173.0,0
721,721,-0.770181154927095,-0.8,0.0,1.0,259.0,737.0,1.0,0,-216.0,1
722,722,-0.5158336536367661,-0.5,1.0,0.0,495.0,878.0,0.0,0,637.0,1
723,723,0.79325026961366,0.8,1.0,1.0,267.0,835.0,1.0,1,158.0,1
724,724,0.5889447075026096,0.6,1.0,1.0,441.0,837.0,1.0,1,162.0,1
725,725,-0.7979694322416667,-0.8,1.0,0.0,417.0,685.0,0.0,0,228.0,1
726,726,0.4412104040800665,0.4,1.0,1.0,313.0,829.0,1.0,1,288.0,1
727,727,0.8984181384301201,0.9,1.0,1.0,330.0,979.0,1.0,1,211.0,1
728,728,0.8707266933885437,0.9,0.0,0.0,292.0,547.0,0.0,1,91.0,1
729,729,-0.10293568817715737,-0.1,0.0,1.0,277.0,858.0,1.0,0,2235.0,1
730,730,0.27789656220677605,0.3,1.0,1.0,444.0,625.0,1.0,1,371.0,1
731,731,0.49623736059032886,0.5,1.0,1.0,497.0,891.0,1.0,1,212.0,1
732,732,0.48201457742196785,0.5,1.0,1.0,252.0,840.0,1.0,1,138.0,1
733,733,0.6385401017441935,0.6,1.0,1.0,420.0,723.0,1.0,1,267.0,1
734,734,-0.11883448914614092,-0.1,1.0,0.0,439.0,919.0,0.0,0,-308.0,1
735,735,-0.6272830015191917,-0.6,1.0,0.0,360.0,546.0,0.0,0,364.0,1
736,736,-0.146796521104535,-0.1,1.0,0.0,369.0,716.0,0.0,0,1595.0,1
737,737,-0.8867826785170997,-0.9,0.0,1.0,298.0,735.0,1.0,0,217.0,1
738,738,-0.4752280204329464,-0.5,1.0,0.0,353.0,604.0,0.0,0,243.0,1
739,739,0.2274426434815987,0.2,1.0,1.0,480.0,684.0,1.0,1,816.0,1
740,740,-0.13852755768633296,-0.1,0.0,1.0,264.0,506.0,1.0,0,660.0,1
741,741,0.4318334712903803,0.4,1.0,1.0,442.0,762.0,1.0,1,746.0,1
742,742,0.19775949623157285,0.2,1.0,1.0,347.0,934.0,1.0,1,639.0,1
743,743,0.16755366561536855,0.2,1.0,1.0,251.0,907.0,1.0,1,952.0,1
744,744,-0.3047619706023097,-0.3,1.0,0.0,444.0,706.0,0.0,0,470.0,1
745,745,-0.32009827852804473,-0.3,1.0,0.0,476.0,663.0,0.0,0,461.0,1
746,746,-0.6700240611024895,-0.7,1.0,0.0,422.0,715.0,0.0,0,473.0,1
747,747,-0.8298832878402843,-0.8,1.0,0.0,320.0,658.0,1.0,1,-18.0,0
748,748,-0.17173637204719583,-0.2,1.0,0.0,321.0,554.0,0.0,0,1195.0,1
749,749,-0.8485117851725352,-0.8,1.0,0.0,428.0,903.0,0.0,0,469.0,1
750,750,-0.013689101650273594,-0.0,1.0,0.0,296.0,932.0,1.0,1,3232.0,0
751,751,-0.06674658339818762,-0.1,1.0,0.0,469.0,509.0,0.0,0,1802.0,1
752,752,0.66545833069447,0.7,1.0,1.0,415.0,780.0,1.0,1,275.0,1
753,753,-0.1071762120491282,-0.1,0.0,1.0,395.0,742.0,1.0,0,763.0,1
754,754,0.17311473014199408,0.2,1.0,1.0,336.0,703.0,1.0,1,361.0,1
755,755,0.29590190173497544,0.3,1.0,1.0,300.0,988.0,1.0,1,1832.0,1
756,756,0.7566904606701147,0.8,1.0,1.0,323.0,960.0,1.0,1,187.0,1
757,757,0.3239038157071351,0.3,0.0,0.0,494.0,768.0,0.0,1,458.0,1
758,758,0.6264578449318273,0.6,0.0,0.0,486.0,744.0,1.0,0,-120.0,0
759,759,0.7898853943170016,0.8,0.0,0.0,437.0,912.0,1.0,0,31.0,0
760,760,0.8745978354741147,0.9,0.0,0.0,251.0,751.0,0.0,1,198.0,1
761,761,0.7167647709661157,0.7,0.0,0.0,367.0,707.0,0.0,1,346.0,1
762,762,-0.4252170438461031,-0.4,1.0,0.0,273.0,711.0,0.0,0,316.0,1
763,763,0.8663038343192261,0.9,1.0,1.0,381.0,953.0,1.0,1,166.0,1
764,764,-0.23403707351420977,-0.2,0.0,1.0,353.0,731.0,1.0,0,976.0,1
765,765,0.7733263799830564,0.8,1.0,1.0,421.0,759.0,1.0,1,250.0,1
766,766,0.4132169132370763,0.4,1.0,1.0,254.0,522.0,1.0,1,404.0,1
767,767,-0.17414693748943466,-0.2,1.0,0.0,278.0,961.0,0.0,0,1411.0,1
768,768,-0.4556492780206188,-0.5,0.0,1.0,353.0,675.0,1.0,0,402.0,1
769,769,0.8034384834521066,0.8,1.0,1.0,398.0,976.0,1.0,1,246.0,1
770,770,0.05890146354922421,0.1,0.0,0.0,363.0,599.0,0.0,1,1768.0,1
771,771,-0.5773053942380286,-0.6,1.0,0.0,292.0,794.0,0.0,0,204.0,1
772,772,0.4164317474344982,0.4,0.0,0.0,411.0,629.0,1.0,0,-30.0,0
773,773,0.8538731345972638,0.9,1.0,1.0,326.0,956.0,1.0,1,138.0,1
774,774,0.2871027270630685,0.3,1.0,1.0,252.0,784.0,1.0,1,154.0,1
775,775,-0.6688332253065326,-0.7,1.0,0.0,274.0,715.0,0.0,0,701.0,1
776,776,-0.49921851686334046,-0.5,1.0,0.0,420.0,926.0,0.0,0,194.0,1
777,777,0.013408831065350624,0.0,0.0,0.0,261.0,822.0,1.0,0,3077.0,0
778,778,-0.5483793990753084,-0.5,0.0,1.0,274.0,918.0,1.0,0,-442.0,1
779,779,0.5447894821580342,0.5,0.0,0.0,418.0,826.0,0.0,1,266.0,1
780,780,0.4717049724415864,0.5,1.0,1.0,394.0,770.0,1.0,1,236.0,1
781,781,0.2953805081023809,0.3,1.0,1.0,251.0,788.0,1.0,1,391.0,1
782,782,-0.6650149852132238,-0.7,0.0,1.0,372.0,748.0,1.0,0,140.0,1
783,783,0.12348963962122428,0.1,0.0,0.0,338.0,646.0,0.0,1,4016.0,1
784,784,0.5871929446775458,0.6,1.0,1.0,355.0,888.0,1.0,1,247.0,1
785,785,-0.3411697742592432,-0.3,0.0,1.0,473.0,876.0,1.0,0,571.0,1
786,786,-0.8536864316790881,-0.9,0.0,1.0,368.0,882.0,1.0,0,370.0,1
787,787,0.05608209488153015,0.1,1.0,1.0,291.0,574.0,1.0,1,815.0,1
788,788,-0.33276501515344725,-0.3,0.0,1.0,271.0,754.0,1.0,0,325.0,1
789,789,0.35742182931314914,0.4,1.0,1.0,494.0,635.0,1.0,1,121.0,1
790,790,0.8699904735799932,0.9,0.0,0.0,435.0,993.0,0.0,1,272.0,1
791,791,-0.7323214619253846,-0.7,0.0,1.0,418.0,540.0,1.0,0,192.0,1
792,792,-0.7633094639997609,-0.8,1.0,0.0,316.0,780.0,0.0,0,484.0,1
793,793,0.10916396895209457,0.1,0.0,0.0,487.0,775.0,1.0,0,-22.0,0
794,794,-0.39663124730735044,-0.4,0.0,1.0,451.0,751.0,1.0,0,278.0,1
795,795,0.3550650650670376,0.4,0.0,0.0,307.0,675.0,0.0,1,1758.0,1
796,796,0.20969511354313608,0.2,1.0,1.0,401.0,928.0,1.0,1,751.0,1
797,797,-0.32816268549443983,-0.3,0.0,1.0,381.0,519.0,1.0,0,350.0,1
798,798,-0.5200311714257828,-0.5,1.0,0.0,446.0,945.0,0.0,0,259.0,1
799,799,-0.6752495810708621,-0.7,0.0,1.0,467.0,637.0,1.0,0,296.0,1
800,800,0.4566056368054444,0.5,0.0,0.0,367.0,644.0,0.0,1,299.0,1
801,801,-0.8040047229319641,-0.8,1.0,0.0,275.0,828.0,0.0,0,127.0,1
802,802,-0.5788088109807925,-0.6,0.0,1.0,494.0,816.0,1.0,0,270.0,1
803,803,-0.6755742241248435,-0.7,0.0,1.0,428.0,825.0,1.0,0,337.0,1
804,804,-0.24955994722081076,-0.2,0.0,1.0,259.0,781.0,1.0,0,420.0,1
805,805,-0.41104648496305213,-0.4,1.0,0.0,438.0,531.0,0.0,0,431.0,1
806,806,-0.22675022477127127,-0.2,0.0,1.0,285.0,503.0,1.0,0,172.0,1
807,807,0.05619592344412838,0.1,0.0,0.0,365.0,798.0,1.0,0,817.0,0
808,808,0.19522571971004476,0.2,1.0,1.0,255.0,503.0,1.0,1,662.0,1
809,809,-0.06207736256042451,-0.1,1.0,0.0,346.0,653.0,0.0,0,281.0,1
810,810,-0.7361731154471639,-0.7,1.0,0.0,332.0,972.0,0.0,0,266.0,1
811,811,-0.12582232254081738,-0.1,1.0,0.0,394.0,800.0,0.0,0,3806.0,1
812,812,-0.5700665865574619,-0.6,0.0,1.0,354.0,764.0,1.0,0,382.0,1
813,813,-0.4409809355472829,-0.4,1.0,0.0,490.0,653.0,0.0,0,187.0,1
814,814,0.01838452403074675,0.0,1.0,1.0,445.0,987.0,1.0,1,3568.0,1
815,815,0.590647540554324,0.6,0.0,0.0,280.0,561.0,0.0,1,389.0,1
816,816,0.6016325348045629,0.6,0.0,0.0,442.0,744.0,0.0,1,444.0,1
817,817,0.2986772247577246,0.3,0.0,0.0,352.0,704.0,0.0,1,734.0,1
818,818,-0.8673893509220996,-0.9,1.0,0.0,266.0,569.0,0.0,0,235.0,1
819,819,-0.31026724356412627,-0.3,0.0,1.0,298.0,896.0,1.0,0,486.0,1
820,820,0.753249074530867,0.8,1.0,1.0,418.0,934.0,1.0,1,238.0,1
821,821,0.6234923023347484,0.6,1.0,1.0,409.0,787.0,1.0,1,444.0,1
822,822,0.7623955859953334,0.8,1.0,1.0,361.0,854.0,1.0,1,285.0,1
823,823,-0.8793134824747983,-0.9,1.0,0.0,447.0,594.0,0.0,0,369.0,1
824,824,-0.36819449854220454,-0.4,0.0,1.0,319.0,531.0,1.0,0,670.0,1
825,825,0.23423326066800298,0.2,1.0,1.0,360.0,861.0,1.0,1,149.0,1
826,826,0.4575142926176189,0.5,0.0,0.0,425.0,674.0,0.0,1,731.0,1
827,827,0.5555674887601904,0.6,0.0,0.0,389.0,513.0,0.0,1,178.0,1
828,828,-0.8387523776276772,-0.8,1.0,0.0,302.0,609.0,0.0,0,319.0,1
829,829,-0.5648856529687056,-0.6,0.0,1.0,309.0,614.0,1.0,0,277.0,1
830,830,-0.4770968064816775,-0.5,0.0,1.0,434.0,920.0,1.0,0,136.0,1
831,831,0.7117306400683937,0.7,0.0,0.0,499.0,785.0,0.0,1,146.0,1
832,832,-0.4901542694069195,-0.5,1.0,0.0,288.0,511.0,0.0,0,201.0,1
833,833,-0.7555389986378191,-0.8,1.0,0.0,342.0,905.0,1.0,1,-127.0,0
834,834,0.8502954870817109,0.9,1.0,1.0,380.0,562.0,1.0,1,388.0,1
835,835,-0.09032631607851316,-0.1,0.0,1.0,491.0,633.0,1.0,0,1516.0,1
836,836,0.5118191449920194,0.5,0.0,0.0,274.0,624.0,0.0,1,182.0,1
837,837,-0.25555590458262534,-0.3,1.0,0.0,404.0,517.0,0.0,0,759.0,1
838,838,0.7211517271829716,0.7,1.0,1.0,357.0,613.0,1.0,1,100.0,1
839,839,-0.14811557465066894,-0.1,1.0,0.0,335.0,640.0,0.0,0,305.0,1
840,840,0.08900601394766416,0.1,0.0,0.0,436.0,658.0,0.0,1,2576.0,1
841,841,0.00010771046558366582,0.0,0.0,0.0,271.0,598.0,1.0,0,51.0,0
842,842,0.8388438851185703,0.8,0.0,0.0,394.0,948.0,0.0,1,208.0,1
843,843,-0.09800293470915467,-0.1,0.0,1.0,422.0,632.0,1.0,0,856.0,1
844,844,0.6084066727139071,0.6,0.0,0.0,376.0,595.0,0.0,1,239.0,1
845,845,-0.292866449594574,-0.3,0.0,1.0,350.0,835.0,1.0,0,535.0,1
846,846,0.04076677990553623,0.0,0.0,0.0,279.0,666.0,1.0,0,1935.0,0
847,847,0.07950086659499878,0.1,1.0,1.0,321.0,953.0,1.0,1,976.0,1
848,848,0.8495064118006216,0.8,0.0,0.0,391.0,854.0,0.0,1,55.0,1
849,849,0.296039025185428,0.3,1.0,1.0,345.0,892.0,1.0,1,803.0,1
850,850,0.7883657883399718,0.8,1.0,1.0,480.0,502.0,1.0,1,278.0,1
851,851,0.4592921984740358,0.5,0.0,0.0,421.0,933.0,0.0,1,556.0,1
852,852,-0.8626273439551605,-0.9,1.0,0.0,352.0,522.0,0.0,0,286.0,1
853,853,-0.8250898880608675,-0.8,1.0,0.0,485.0,523.0,0.0,0,212.0,1
854,854,0.6127966388853338,0.6,1.0,1.0,294.0,575.0,1.0,1,301.0,1
855,855,0.06778438995679203,0.1,0.0,0.0,478.0,521.0,1.0,0,1911.0,0
856,856,-0.44778891689793987,-0.4,0.0,1.0,387.0,851.0,1.0,0,312.0,1
857,857,0.31958615687689373,0.3,0.0,0.0,370.0,589.0,0.0,1,331.0,1
858,858,-0.08279809974561847,-0.1,0.0,1.0,411.0,835.0,1.0,0,1244.0,1
859,859,-0.10440137026134833,-0.1,1.0,0.0,354.0,664.0,0.0,0,3862.0,1
860,860,0.042639199535772665,0.0,0.0,0.0,275.0,632.0,0.0,1,463.0,1
861,861,-0.46566133144678473,-0.5,1.0,0.0,292.0,551.0,0.0,0,347.0,1
862,862,0.006661765730810232,0.0,1.0,1.0,419.0,621.0,1.0,1,2500.0,1
863,863,-0.5681495903718706,-0.6,1.0,0.0,432.0,521.0,0.0,0,397.0,1
864,864,-0.3130643486462189,-0.3,1.0,0.0,354.0,991.0,1.0,1,5.0,0
865,865,-0.7059119976232386,-0.7,0.0,1.0,331.0,508.0,1.0,0,311.0,1
866,866,0.5173566521352547,0.5,0.0,0.0,449.0,866.0,0.0,1,1065.0,1
867,867,-0.5962526152367594,-0.6,0.0,1.0,322.0,552.0,1.0,0,196.0,1
868,868,-0.39523987501590185,-0.4,1.0,0.0,365.0,919.0,0.0,0,356.0,1
869,869,-0.8935425656740205,-0.9,1.0,0.0,315.0,804.0,0.0,0,261.0,1
870,870,0.7701836520154209,0.8,0.0,0.0,419.0,925.0,0.0,1,136.0,1
871,871,-0.7834713997523616,-0.8,0.0,1.0,432.0,793.0,1.0,0,175.0,1
872,872,-0.28951148255250947,-0.3,0.0,1.0,439.0,646.0,1.0,0,575.0,1
873,873,0.7754630426367047,0.8,1.0,1.0,356.0,549.0,1.0,1,265.0,1
874,874,0.056973727552242615,0.1,1.0,1.0,422.0,959.0,1.0,1,659.0,1
875,875,0.3857229981135929,0.4,0.0,0.0,392.0,590.0,0.0,1,528.0,1
876,876,-0.19431916541414218,-0.2,1.0,0.0,361.0,732.0,0.0,0,237.0,1
877,877,-0.373480509271367,-0.4,1.0,0.0,483.0,634.0,0.0,0,453.0,1
878,878,-0.3852255832397957,-0.4,1.0,0.0,342.0,664.0,0.0,0,574.0,1
879,879,-0.158130958873981,-0.2,1.0,0.0,295.0,984.0,0.0,0,1801.0,1
880,880,-0.6309210500349094,-0.6,1.0,0.0,412.0,787.0,0.0,0,551.0,1
881,881,0.7288921993918466,0.7,1.0,1.0,353.0,790.0,1.0,1,167.0,1
882,882,-0.06843888225417605,-0.1,1.0,0.0,334.0,848.0,0.0,0,1258.0,1
883,883,-0.7992057948054926,-0.8,0.0,1.0,321.0,862.0,1.0,0,147.0,1
884,884,0.8990807931186345,0.9,1.0,1.0,429.0,693.0,1.0,1,288.0,1
885,885,0.20256840186943592,0.2,1.0,1.0,473.0,930.0,1.0,1,277.0,1
886,886,0.7626805456459193,0.8,0.0,0.0,437.0,596.0,0.0,1,257.0,1
887,887,-0.7885308849486288,-0.8,0.0,1.0,290.0,657.0,1.0,0,243.0,1
888,888,-0.2817703354344019,-0.3,1.0,0.0,481.0,710.0,0.0,0,559.0,1
889,889,-0.4586903707057777,-0.5,1.0,0.0,437.0,632.0,0.0,0,321.0,1
890,890,-0.4803149398309678,-0.5,0.0,1.0,463.0,618.0,1.0,0,219.0,1
891,891,0.4074872663703112,0.4,1.0,1.0,454.0,946.0,1.0,1,330.0,1
892,892,0.31094446612892146,0.3,1.0,1.0,321.0,823.0,1.0,1,486.0,1
893,893,0.6993861665337112,0.7,1.0,1.0,288.0,638.0,1.0,1,234.0,1
894,894,-0.6548726437965985,-0.7,0.0,1.0,376.0,796.0,1.0,0,128.0,1
895,895,0.7539578014765903,0.8,1.0,1.0,415.0,948.0,1.0,1,-203.0,1
896,896,0.12524773564582115,0.1,1.0,1.0,320.0,761.0,1.0,1,1919.0,1
897,897,0.5014101405467978,0.5,0.0,0.0,299.0,900.0,0.0,1,281.0,1
898,898,-0.24429883317769896,-0.2,0.0,1.0,385.0,940.0,1.0,0,645.0,1
899,899,0.6577186788608324,0.7,1.0,1.0,406.0,868.0,1.0,1,96.0,1
900,900,0.562456164971821,0.6,1.0,1.0,376.0,821.0,1.0,1,173.0,1
901,901,-0.3520111580620382,-0.4,0.0,1.0,331.0,910.0,1.0,0,199.0,1
902,902,0.17405950541936177,0.2,1.0,1.0,365.0,816.0,1.0,1,1669.0,1
903,903,0.28657772582887275,0.3,1.0,1.0,304.0,636.0,1.0,1,930.0,1
904,904,0.401668979578789,0.4,1.0,1.0,443.0,949.0,1.0,1,158.0,1
905,905,-0.06530680169798841,-0.1,1.0,0.0,444.0,678.0,0.0,0,1138.0,1
906,906,0.2886084223568518,0.3,1.0,1.0,261.0,980.0,1.0,1,-41.0,1
907,907,0.5912257812725533,0.6,0.0,0.0,470.0,910.0,0.0,1,220.0,1
908,908,0.3374054570431769,0.3,1.0,1.0,485.0,541.0,1.0,1,594.0,1
909,909,0.6819107168972706,0.7,1.0,1.0,395.0,679.0,1.0,1,86.0,1
910,910,0.8577147409035099,0.9,0.0,0.0,327.0,625.0,0.0,1,158.0,1
911,911,0.6246626866040758,0.6,1.0,1.0,423.0,559.0,1.0,1,128.0,1
912,912,0.035903857393758565,0.0,0.0,0.0,457.0,751.0,1.0,0,3792.0,0
913,913,-0.06893972739930321,-0.1,0.0,1.0,408.0,581.0,1.0,0,581.0,1
914,914,0.27078687334942597,0.3,0.0,0.0,426.0,797.0,0.0,1,357.0,1
915,915,0.23765377782185737,0.2,0.0,0.0,473.0,985.0,0.0,1,582.0,1
916,916,-0.1624779606366321,-0.2,1.0,0.0,475.0,978.0,0.0,0,2157.0,1
917,917,-0.6575153363431273,-0.7,1.0,0.0,256.0,826.0,0.0,0,178.0,1
918,918,-0.7697164066001974,-0.8,0.0,1.0,398.0,907.0,1.0,0,315.0,1
919,919,0.2856805416131297,0.3,1.0,1.0,290.0,832.0,1.0,1,1268.0,1
920,920,-0.0686355606689435,-0.1,1.0,0.0,453.0,847.0,0.0,0,2430.0,1
921,921,0.6135326290108344,0.6,0.0,0.0,324.0,546.0,0.0,1,190.0,1
922,922,-0.8163430531593634,-0.8,0.0,1.0,497.0,986.0,1.0,0,267.0,1
923,923,0.0033201434531558993,0.0,0.0,0.0,467.0,712.0,1.0,0,3821.0,0
924,924,0.8812584306617529,0.9,1.0,1.0,305.0,616.0,1.0,1,239.0,1
925,925,0.4507287379474788,0.5,1.0,1.0,417.0,547.0,1.0,1,636.0,1
926,926,-0.7276120043738347,-0.7,0.0,1.0,384.0,579.0,1.0,0,147.0,1
927,927,-0.1642163381641124,-0.2,1.0,0.0,481.0,984.0,0.0,0,1445.0,1
928,928,-0.4877315674363055,-0.5,0.0,1.0,476.0,604.0,1.0,0,140.0,1
929,929,0.8550618969710447,0.9,0.0,0.0,484.0,758.0,1.0,0,-222.0,0
930,930,0.8858010945644191,0.9,1.0,1.0,336.0,507.0,1.0,1,187.0,1
931,931,0.18406673029968668,0.2,1.0,1.0,462.0,654.0,1.0,1,1044.0,1
932,932,-0.5839776414534561,-0.6,1.0,0.0,420.0,539.0,0.0,0,291.0,1
933,933,-0.12547964277561086,-0.1,1.0,0.0,386.0,784.0,0.0,0,2230.0,1
934,934,-0.050702112438507974,-0.1,0.0,1.0,457.0,777.0,1.0,0,3246.0,1
935,935,0.2692400410743384,0.3,1.0,1.0,397.0,878.0,1.0,1,585.0,1
936,936,-0.32560466978096614,-0.3,0.0,1.0,461.0,549.0,1.0,0,670.0,1
937,937,0.3745233234133306,0.4,1.0,1.0,436.0,631.0,1.0,1,663.0,1
938,938,-0.515517495204696,-0.5,0.0,1.0,309.0,799.0,1.0,0,262.0,1
939,939,0.5289716232571576,0.5,0.0,0.0,290.0,685.0,0.0,1,595.0,1
940,940,0.04302518867158622,0.0,0.0,0.0,443.0,662.0,0.0,1,2215.0,1
941,941,-0.3168239084921549,-0.3,0.0,1.0,424.0,547.0,1.0,0,619.0,1
942,942,-0.5492647691999566,-0.5,0.0,1.0,448.0,892.0,1.0,0,260.0,1
943,943,-0.7890761562225702,-0.8,0.0,1.0,357.0,897.0,1.0,0,256.0,1
944,944,0.6223910367881761,0.6,0.0,0.0,275.0,827.0,0.0,1,658.0,1
945,945,-0.35622901398700135,-0.4,0.0,1.0,258.0,766.0,1.0,0,256.0,1
946,946,0.09640303985294496,0.1,1.0,1.0,270.0,880.0,0.0,0,-20.0,0
947,947,-0.49248525944787236,-0.5,0.0,1.0,363.0,795.0,1.0,0,232.0,1
948,948,-0.15120271740334212,-0.2,1.0,0.0,258.0,625.0,0.0,0,1297.0,1
949,949,0.08371911317820868,0.1,1.0,1.0,299.0,667.0,0.0,0,784.0,0
950,950,-0.4521809175826468,-0.5,0.0,1.0,383.0,691.0,1.0,0,256.0,1
951,951,0.14373151133196405,0.1,1.0,1.0,431.0,583.0,1.0,1,396.0,1
952,952,-0.516195724157029,-0.5,0.0,1.0,445.0,730.0,1.0,0,135.0,1
953,953,0.8904703576816969,0.9,1.0,1.0,328.0,821.0,1.0,1,131.0,1
954,954,-0.38745232342000013,-0.4,1.0,0.0,373.0,637.0,0.0,0,720.0,1
955,955,0.8046370243801483,0.8,1.0,1.0,413.0,682.0,1.0,1,205.0,1
956,956,-0.7526361802139462,-0.8,0.0,1.0,450.0,645.0,1.0,0,275.0,1
957,957,0.016629208554899355,0.0,1.0,1.0,431.0,942.0,1.0,1,3627.0,1
958,958,-0.2424430864523267,-0.2,1.0,0.0,285.0,549.0,0.0,0,786.0,1
959,959,-0.7913869456476041,-0.8,1.0,0.0,322.0,964.0,0.0,0,194.0,1
960,960,-0.10738273371022322,-0.1,0.0,1.0,337.0,871.0,1.0,0,122.0,1
961,961,0.4895712057760192,0.5,1.0,1.0,364.0,544.0,1.0,1,172.0,1
962,962,0.0009530771206642807,0.0,0.0,0.0,454.0,866.0,0.0,1,3680.0,1
963,963,0.16169892162780342,0.2,0.0,0.0,438.0,802.0,0.0,1,2250.0,1
964,964,-0.46424463580350045,-0.5,1.0,0.0,304.0,512.0,0.0,0,414.0,1
965,965,0.34603367296495813,0.3,1.0,1.0,314.0,898.0,1.0,1,808.0,1
966,966,-0.45596588004221145,-0.5,1.0,0.0,424.0,577.0,0.0,0,369.0,1
967,967,-0.4058989874911601,-0.4,0.0,1.0,425.0,888.0,1.0,0,117.0,1
968,968,0.7711989100201181,0.8,1.0,1.0,409.0,882.0,1.0,1,59.0,1
969,969,0.30656482132819274,0.3,1.0,1.0,432.0,718.0,1.0,1,390.0,1
970,970,-0.3154151116000906,-0.3,1.0,0.0,430.0,558.0,0.0,0,742.0,1
971,971,0.30976733533633427,0.3,0.0,0.0,380.0,760.0,0.0,1,370.0,1
972,972,-0.868037661567274,-0.9,0.0,1.0,449.0,585.0,1.0,0,146.0,1
973,973,-0.48064820881438536,-0.5,1.0,0.0,476.0,581.0,0.0,0,143.0,1
974,974,0.6366201918247264,0.6,0.0,0.0,264.0,996.0,0.0,1,290.0,1
975,975,0.09585822255552767,0.1,0.0,0.0,471.0,714.0,0.0,1,865.0,1
976,976,-0.614678885790103,-0.6,1.0,0.0,379.0,915.0,0.0,0,146.0,1
977,977,-0.06381149671422337,-0.1,0.0,1.0,287.0,927.0,1.0,0,1646.0,1
978,978,0.8173345761483976,0.8,1.0,1.0,252.0,644.0,1.0,1,194.0,1
979,979,-0.4998614936197132,-0.5,0.0,1.0,267.0,958.0,1.0,0,425.0,1
980,980,-0.32716317253743,-0.3,0.0,1.0,395.0,531.0,1.0,0,234.0,1
981,981,-0.04372280184259614,-0.0,1.0,0.0,300.0,744.0,0.0,0,2866.0,1
982,982,-0.03216590021531274,-0.0,0.0,1.0,451.0,685.0,0.0,1,2264.0,0
983,983,0.7061069757880637,0.7,1.0,1.0,396.0,538.0,1.0,1,266.0,1
984,984,0.2595691994055501,0.3,1.0,1.0,336.0,991.0,1.0,1,453.0,1
985,985,-0.49528412826784585,-0.5,1.0,0.0,420.0,994.0,0.0,0,246.0,1
986,986,0.7646351333029245,0.8,1.0,1.0,367.0,916.0,1.0,1,197.0,1
987,987,-0.03986747682809877,-0.0,0.0,1.0,252.0,696.0,1.0,0,32.0,1
988,988,-0.6934061485188235,-0.7,1.0,0.0,432.0,948.0,0.0,0,-100.0,1
989,989,-0.6774131309116396,-0.7,1.0,0.0,496.0,747.0,0.0,0,137.0,1
990,990,0.23471372983860117,0.2,1.0,1.0,297.0,522.0,1.0,1,261.0,1
991,991,-0.6947259168178361,-0.7,0.0,1.0,338.0,860.0,1.0,0,262.0,1
992,992,-0.2517188668505981,-0.3,1.0,0.0,288.0,675.0,0.0,0,307.0,1
993,993,0.10398907818462788,0.1,1.0,1.0,275.0,597.0,1.0,1,1738.0,1
994,994,0.010010969563627459,0.0,1.0,1.0,367.0,637.0,1.0,1,3996.0,1
995,995,0.17690966681398768,0.2,1.0,1.0,347.0,966.0,1.0,1,657.0,1
996,996,-0.8710820142316407,-0.9,1.0,0.0,452.0,862.0,0.0,0,286.0,1
997,997,0.7049515518547872,0.7,0.0,0.0,444.0,682.0,1.0,0,-116.0,0
998,998,0.5447156246401345,0.5,1.0,1.0,452.0,620.0,1.0,1,418.0,1
999,999,-0.6914188270115946,-0.7,1.0,0.0,499.0,886.0,0.0,0,185.0,1
1000,1000,-0.2644327319554821,-0.3,1.0,0.0,416.0,914.0,0.0,0,360.0,1
1001,1001,0.24474326760229015,0.2,1.0,1.0,411.0,773.0,1.0,1,556.0,1
1002,1002,-0.8071560211949393,-0.8,0.0,1.0,469.0,573.0,1.0,0,248.0,1
1003,1003,0.8178327145404573,0.8,0.0,0.0,334.0,573.0,0.0,1,243.0,1
1004,1004,0.43768001386675504,0.4,1.0,1.0,355.0,727.0,1.0,1,338.0,1
1005,1005,0.7926942966679366,0.8,1.0,1.0,449.0,671.0,1.0,1,150.0,1
1006,1006,-0.04502420379347449,-0.0,0.0,1.0,288.0,977.0,1.0,0,875.0,1
1007,1007,-0.3554104897208463,-0.4,0.0,1.0,335.0,898.0,1.0,0,377.0,1
1008,1008,0.4113488727539282,0.4,0.0,0.0,343.0,856.0,0.0,1,551.0,1
1009,1009,0.1345258781353854,0.1,0.0,0.0,290.0,679.0,0.0,1,591.0,1
1010,1010,0.6211881831115985,0.6,0.0,0.0,413.0,541.0,0.0,1,1146.0,1
1011,1011,-0.4378103168694891,-0.4,1.0,0.0,292.0,709.0,0.0,0,249.0,1
1012,1012,0.6721784853089646,0.7,0.0,0.0,453.0,652.0,0.0,1,315.0,1
1013,1013,-0.3926295370486612,-0.4,1.0,0.0,375.0,821.0,0.0,0,454.0,1
1014,1014,0.3322685864622289,0.3,0.0,0.0,373.0,811.0,0.0,1,786.0,1
1015,1015,0.5380652781520264,0.5,0.0,0.0,317.0,651.0,0.0,1,252.0,1
1016,1016,-0.7299385854192967,-0.7,1.0,0.0,437.0,704.0,0.0,0,329.0,1
1017,1017,0.6501194264277764,0.7,1.0,1.0,422.0,977.0,1.0,1,161.0,1
1018,1018,0.6045686748067377,0.6,1.0,1.0,387.0,802.0,1.0,1,111.0,1
1019,1019,-0.012711858421665112,-0.0,1.0,0.0,336.0,851.0,1.0,1,953.0,0
1020,1020,0.8973484136285766,0.9,0.0,0.0,293.0,796.0,0.0,1,211.0,1
1021,1021,-0.892982232149511,-0.9,0.0,1.0,275.0,901.0,1.0,0,124.0,1
1022,1022,0.14394579122886342,0.1,1.0,1.0,450.0,791.0,1.0,1,1239.0,1
1023,1023,0.4080634287054882,0.4,0.0,0.0,381.0,882.0,0.0,1,217.0,1
1024,1024,0.5321252428552677,0.5,0.0,0.0,444.0,898.0,0.0,1,-402.0,1
1025,1025,0.8017969456279478,0.8,1.0,1.0,484.0,813.0,1.0,1,143.0,1
1026,1026,0.15139003294004183,0.2,0.0,0.0,445.0,721.0,0.0,1,3744.0,1
1027,1027,-0.41997142313519603,-0.4,1.0,0.0,377.0,927.0,0.0,0,266.0,1
1028,1028,0.35090205218018833,0.4,0.0,0.0,302.0,922.0,0.0,1,1596.0,1
1029,1029,-0.7817726164202191,-0.8,0.0,1.0,365.0,912.0,1.0,0,343.0,1
1030,1030,0.781625256450644,0.8,1.0,1.0,268.0,991.0,1.0,1,141.0,1
1031,1031,-0.6264788981876799,-0.6,0.0,1.0,384.0,728.0,1.0,0,188.0,1
1032,1032,0.28528956417876083,0.3,0.0,0.0,456.0,812.0,0.0,1,352.0,1
1033,1033,0.6821726421130004,0.7,0.0,0.0,455.0,904.0,0.0,1,51.0,1
1034,1034,0.32242568852155495,0.3,0.0,0.0,364.0,848.0,0.0,1,388.0,1
1035,1035,-0.501646534229987,-0.5,1.0,0.0,293.0,935.0,0.0,0,352.0,1
1036,1036,0.6487337229042575,0.6,1.0,1.0,262.0,865.0,1.0,1,193.0,1
1037,1037,-0.0980947110747602,-0.1,1.0,0.0,325.0,686.0,0.0,0,3989.0,1
1038,1038,-0.14994897557215514,-0.1,1.0,0.0,338.0,897.0,1.0,1,55.0,0
1039,1039,-0.2395365183554723,-0.2,0.0,1.0,472.0,666.0,1.0,0,72.0,1
1040,1040,0.5698076010461509,0.6,0.0,0.0,373.0,649.0,0.0,1,348.0,1
1041,1041,0.3728099381374458,0.4,1.0,1.0,437.0,787.0,1.0,1,446.0,1
1042,1042,0.4078886196183432,0.4,0.0,0.0,372.0,568.0,0.0,1,490.0,1
1043,1043,-0.434506130631301,-0.4,0.0,1.0,345.0,678.0,1.0,0,-143.0,1
1044,1044,0.33091405710938104,0.3,1.0,1.0,314.0,504.0,1.0,1,492.0,1
1045,1045,0.32711103100151007,0.3,0.0,0.0,428.0,985.0,0.0,1,347.0,1
1046,1046,0.5002209749432115,0.5,0.0,0.0,385.0,832.0,0.0,1,243.0,1
1047,1047,-0.7957431277797414,-0.8,1.0,0.0,425.0,701.0,0.0,0,174.0,1
1048,1048,-0.8298458957325257,-0.8,0.0,1.0,439.0,670.0,1.0,0,431.0,1
1049,1049,0.04960368435293694,0.0,0.0,0.0,446.0,999.0,1.0,0,1965.0,0
1050,1050,-0.5866863165177538,-0.6,0.0,1.0,459.0,871.0,1.0,0,190.0,1
1051,1051,-0.8801264552902216,-0.9,0.0,1.0,252.0,813.0,1.0,0,145.0,1
1052,1052,0.598186953164722,0.6,0.0,0.0,264.0,792.0,0.0,1,404.0,1
1053,1053,-0.08633309359930519,-0.1,1.0,0.0,262.0,619.0,0.0,0,2099.0,1
1054,1054,-0.7431007098521707,-0.7,1.0,0.0,280.0,879.0,0.0,0,301.0,1
1055,1055,0.49128742429307104,0.5,0.0,0.0,326.0,682.0,0.0,1,132.0,1
1056,1056,0.08840916940635424,0.1,1.0,1.0,435.0,748.0,1.0,1,3797.0,1
1057,1057,0.5629482851879334,0.6,1.0,1.0,407.0,618.0,1.0,1,265.0,1
1058,1058,-0.35665501514118847,-0.4,1.0,0.0,401.0,546.0,0.0,0,163.0,1
1059,1059,-0.6946432639904713,-0.7,0.0,1.0,262.0,503.0,1.0,0,125.0,1
1060,1060,-0.3354440824106386,-0.3,0.0,1.0,322.0,805.0,1.0,0,333.0,1
1061,1061,-0.28541276184696984,-0.3,1.0,0.0,379.0,681.0,0.0,0,500.0,1
1062,1062,0.4236306468570056,0.4,0.0,0.0,437.0,644.0,0.0,1,579.0,1
1063,1063,-0.23387122576494213,-0.2,0.0,1.0,432.0,580.0,1.0,0,48.0,1
1064,1064,0.7753806985511896,0.8,0.0,0.0,375.0,971.0,1.0,0,-6.0,0
1065,1065,0.4072496857747653,0.4,0.0,0.0,411.0,561.0,0.0,1,118.0,1
1066,1066,-0.31547167400721243,-0.3,0.0,1.0,362.0,858.0,1.0,0,550.0,1
1067,1067,-0.781136670052755,-0.8,1.0,0.0,406.0,832.0,0.0,0,-308.0,1
1068,1068,0.11009666614148028,0.1,1.0,1.0,275.0,585.0,1.0,1,420.0,1
1069,1069,-0.6300953945932526,-0.6,1.0,0.0,372.0,636.0,0.0,0,382.0,1
1070,1070,0.44202502651777376,0.4,0.0,0.0,445.0,573.0,0.0,1,942.0,1
1071,1071,0.42059049213247823,0.4,1.0,1.0,356.0,795.0,1.0,1,329.0,1
1072,1072,-0.8586167956036103,-0.9,0.0,1.0,282.0,701.0,0.0,1,-153.0,0
1073,1073,-0.2561665832255744,-0.3,1.0,0.0,252.0,602.0,0.0,0,606.0,1
1074,1074,0.30774366261668196,0.3,0.0,0.0,252.0,847.0,0.0,1,401.0,1
1075,1075,0.5347250575880879,0.5,0.0,0.0,370.0,723.0,0.0,1,207.0,1
1076,1076,-0.7329266061003625,-0.7,0.0,1.0,398.0,798.0,1.0,0,304.0,1
1077,1077,-0.17465075216860726,-0.2,1.0,0.0,460.0,996.0,0.0,0,1024.0,1
1078,1078,-0.02867948577116808,-0.0,0.0,1.0,491.0,785.0,1.0,0,654.0,1
1079,1079,-0.33022206553524847,-0.3,0.0,1.0,396.0,598.0,1.0,0,276.0,1
1080,1080,-0.21275772341474408,-0.2,1.0,0.0,304.0,990.0,0.0,0,456.0,1
1081,1081,0.6289870236105944,0.6,1.0,1.0,402.0,674.0,1.0,1,204.0,1
1082,1082,-0.5416460188968957,-0.5,1.0,0.0,275.0,663.0,0.0,0,452.0,1
1083,1083,-0.5409734483930012,-0.5,1.0,0.0,445.0,806.0,0.0,0,669.0,1
1084,1084,0.278045392223189,0.3,1.0,1.0,253.0,972.0,1.0,1,1265.0,1
1085,1085,-0.22115032990799366,-0.2,0.0,1.0,302.0,752.0,1.0,0,556.0,1
1086,1086,0.7275566756547153,0.7,0.0,0.0,491.0,953.0,0.0,1,586.0,1
1087,1087,0.8996559624159314,0.9,0.0,0.0,391.0,941.0,0.0,1,198.0,1
1088,1088,-0.3053452613871901,-0.3,1.0,0.0,487.0,685.0,0.0,0,1178.0,1
1089,1089,0.8666997150989962,0.9,1.0,1.0,393.0,626.0,1.0,1,61.0,1
1090,1090,0.7577561881308009,0.8,0.0,0.0,373.0,639.0,0.0,1,288.0,1
1091,1091,-0.22646170662398346,-0.2,0.0,1.0,268.0,636.0,1.0,0,236.0,1
1092,1092,0.8845302445578035,0.9,0.0,0.0,405.0,904.0,0.0,1,131.0,1
1093,1093,0.7584898556985541,0.8,0.0,0.0,330.0,922.0,0.0,1,338.0,1
1094,1094,0.5589274772857366,0.6,0.0,0.0,289.0,644.0,0.0,1,467.0,1
1095,1095,0.47524880522209123,0.5,0.0,0.0,392.0,692.0,0.0,1,786.0,1
1096,1096,-0.3378440000755416,-0.3,0.0,1.0,304.0,979.0,1.0,0,667.0,1
1097,1097,-0.5147059235302409,-0.5,0.0,1.0,469.0,863.0,1.0,0,-222.0,1
1098,1098,-0.05346282870863461,-0.1,1.0,0.0,266.0,936.0,1.0,1,1488.0,0
1099,1099,-0.12527102490433395,-0.1,1.0,0.0,391.0,818.0,0.0,0,941.0,1
1100,1100,-0.612654402815493,-0.6,1.0,0.0,355.0,834.0,0.0,0,461.0,1
1101,1101,0.2640698988519695,0.3,0.0,0.0,420.0,552.0,0.0,1,1328.0,1
1102,1102,0.13069315230405165,0.1,0.0,0.0,292.0,695.0,1.0,0,4013.0,0
1103,1103,0.2814401812026758,0.3,1.0,1.0,351.0,590.0,1.0,1,669.0,1
1104,1104,-0.3591126256974957,-0.4,0.0,1.0,277.0,751.0,1.0,0,302.0,1
1105,1105,-0.7283673545123855,-0.7,0.0,1.0,291.0,914.0,1.0,0,335.0,1
1106,1106,-0.0267902631387662,-0.0,1.0,0.0,403.0,771.0,1.0,1,3096.0,0
1107,1107,0.3146815929894179,0.3,0.0,0.0,258.0,724.0,0.0,1,758.0,1
1108,1108,0.08394803440799403,0.1,1.0,1.0,455.0,712.0,1.0,1,743.0,1
1109,1109,-0.33599378527949697,-0.3,1.0,0.0,361.0,912.0,0.0,0,947.0,1
1110,1110,-0.616733394231274,-0.6,1.0,0.0,460.0,866.0,0.0,0,694.0,1
1111,1111,-0.782073480596916,-0.8,1.0,0.0,254.0,903.0,0.0,0,73.0,1
1112,1112,-0.05916594213704229,-0.1,1.0,0.0,317.0,786.0,0.0,0,3897.0,1
1113,1113,0.8064077357360625,0.8,0.0,0.0,497.0,567.0,0.0,1,146.0,1
1114,1114,0.8411865779112909,0.8,0.0,0.0,408.0,628.0,0.0,1,204.0,1
1115,1115,0.8041966086522222,0.8,1.0,1.0,360.0,901.0,1.0,1,489.0,1
1116,1116,-0.051632342884119775,-0.1,1.0,0.0,299.0,811.0,0.0,0,3100.0,1
1117,1117,0.6856154592883753,0.7,1.0,1.0,362.0,919.0,1.0,1,189.0,1
1118,1118,0.788220741568067,0.8,0.0,0.0,439.0,587.0,0.0,1,164.0,1
1119,1119,0.5074854693154179,0.5,0.0,0.0,419.0,848.0,0.0,1,193.0,1
1120,1120,0.30347900976115805,0.3,0.0,0.0,475.0,546.0,0.0,1,909.0,1
1121,1121,0.010803821425096727,0.0,1.0,1.0,463.0,591.0,1.0,1,3946.0,1
1122,1122,-0.16283981193683306,-0.2,0.0,1.0,349.0,535.0,1.0,0,556.0,1
1123,1123,0.46197146729434235,0.5,1.0,1.0,364.0,786.0,1.0,1,270.0,1
1124,1124,0.14875162368251915,0.1,0.0,0.0,398.0,757.0,0.0,1,595.0,1
1125,1125,0.40372197833065016,0.4,1.0,1.0,354.0,574.0,1.0,1,412.0,1
1126,1126,0.5234552840178689,0.5,1.0,1.0,269.0,736.0,0.0,0,-195.0,0
1127,1127,-0.5257321569090876,-0.5,1.0,0.0,376.0,929.0,0.0,0,165.0,1
1128,1128,-0.20074614503034993,-0.2,1.0,0.0,369.0,633.0,0.0,0,2018.0,1
1129,1129,-0.0540360226804234,-0.1,1.0,0.0,481.0,773.0,0.0,0,1336.0,1
1130,1130,0.12582633014211353,0.1,0.0,0.0,256.0,616.0,0.0,1,1658.0,1
1131,1131,-0.18116493188117744,-0.2,0.0,1.0,351.0,562.0,1.0,0,537.0,1
1132,1132,-0.7604378384920939,-0.8,1.0,0.0,321.0,843.0,0.0,0,266.0,1
1133,1133,-0.30872754047025075,-0.3,1.0,0.0,499.0,702.0,0.0,0,609.0,1
1134,1134,0.5772898396076008,0.6,0.0,0.0,311.0,785.0,0.0,1,454.0,1
1135,1135,0.2861990712455188,0.3,1.0,1.0,451.0,981.0,1.0,1,818.0,1
1136,1136,-0.7813531984218807,-0.8,1.0,0.0,394.0,818.0,0.0,0,288.0,1
1137,1137,0.2447935084731746,0.2,1.0,1.0,465.0,571.0,1.0,1,1104.0,1
1138,1138,-0.8946066274571962,-0.9,1.0,0.0,425.0,804.0,1.0,1,-219.0,0
1139,1139,-0.7992616308007108,-0.8,1.0,0.0,323.0,917.0,0.0,0,170.0,1
1140,1140,0.17414477903523184,0.2,1.0,1.0,288.0,840.0,1.0,1,442.0,1
1141,1141,-0.5980036567550071,-0.6,0.0,1.0,285.0,893.0,1.0,0,202.0,1
1142,1142,0.17906203246053642,0.2,0.0,0.0,498.0,626.0,0.0,1,1646.0,1
1143,1143,0.46066284472961716,0.5,0.0,0.0,497.0,964.0,0.0,1,579.0,1
1144,1144,-0.5544777839827579,-0.6,1.0,0.0,268.0,714.0,0.0,0,398.0,1
1145,1145,0.5909469466317764,0.6,1.0,1.0,317.0,601.0,1.0,1,442.0,1
1146,1146,0.23296983702752672,0.2,0.0,0.0,413.0,821.0,0.0,1,1166.0,1
1147,1147,-0.6484831282089452,-0.6,0.0,1.0,474.0,974.0,1.0,0,-178.0,1
1148,1148,0.4520493794699131,0.5,0.0,0.0,359.0,920.0,0.0,1,431.0,1
1149,1149,0.7454575768305606,0.7,0.0,0.0,270.0,743.0,0.0,1,177.0,1
1150,1150,-0.4982134345307731,-0.5,0.0,1.0,423.0,892.0,1.0,0,185.0,1
1151,1151,0.7128752997407383,0.7,1.0,1.0,439.0,784.0,1.0,1,317.0,1
1152,1152,-0.6904011643010494,-0.7,1.0,0.0,491.0,727.0,0.0,0,222.0,1
1153,1153,0.3706277701053077,0.4,1.0,1.0,479.0,593.0,1.0,1,288.0,1
1154,1154,0.030437838861477884,0.0,0.0,0.0,419.0,810.0,1.0,0,771.0,0
1155,1155,0.236608135463524,0.2,1.0,1.0,349.0,954.0,1.0,1,337.0,1
1156,1156,-0.18031343967427238,-0.2,1.0,0.0,333.0,583.0,0.0,0,244.0,1
1157,1157,0.6542735718794964,0.7,0.0,0.0,386.0,855.0,0.0,1,419.0,1
1158,1158,0.8085949790806263,0.8,0.0,0.0,403.0,949.0,0.0,1,138.0,1
1159,1159,-0.6096756231212512,-0.6,1.0,0.0,424.0,675.0,0.0,0,221.0,1
1160,1160,0.013704420244120774,0.0,0.0,0.0,499.0,687.0,1.0,0,3414.0,0
1161,1161,0.5175878685715384,0.5,0.0,0.0,367.0,985.0,0.0,1,428.0,1
1162,1162,-0.36360688115533,-0.4,1.0,0.0,425.0,728.0,0.0,0,1207.0,1
1163,1163,0.05438427287699232,0.1,0.0,0.0,326.0,575.0,0.0,1,1099.0,1
1164,1164,0.02809313468080188,0.0,1.0,1.0,445.0,629.0,1.0,1,716.0,1
1165,1165,0.32842684044379833,0.3,1.0,1.0,377.0,799.0,1.0,1,354.0,1
1166,1166,0.8570529789002165,0.9,1.0,1.0,277.0,717.0,1.0,1,166.0,1
1167,1167,-0.3048377520313007,-0.3,0.0,1.0,358.0,862.0,1.0,0,380.0,1
1168,1168,-0.5640707223173345,-0.6,0.0,1.0,329.0,690.0,1.0,0,311.0,1
1169,1169,-0.19923223914102128,-0.2,0.0,1.0,339.0,659.0,1.0,0,542.0,1
1170,1170,-0.09720156688965254,-0.1,1.0,0.0,449.0,780.0,0.0,0,1171.0,1
1171,1171,-0.0863445113515382,-0.1,0.0,1.0,475.0,617.0,1.0,0,3908.0,1
1172,1172,0.8167746835958215,0.8,1.0,1.0,253.0,542.0,1.0,1,215.0,1
1173,1173,-0.7141421493166087,-0.7,1.0,0.0,299.0,752.0,0.0,0,129.0,1
1174,1174,-0.2771294695567762,-0.3,1.0,0.0,268.0,528.0,0.0,0,424.0,1
1175,1175,0.8440931180260637,0.8,1.0,1.0,446.0,803.0,1.0,1,91.0,1
1176,1176,-0.35469354464090885,-0.4,1.0,0.0,351.0,923.0,0.0,0,836.0,1
1177,1177,0.5098019054390631,0.5,0.0,0.0,279.0,618.0,0.0,1,-67.0,1
1178,1178,-0.8677728581918961,-0.9,1.0,0.0,325.0,594.0,0.0,0,201.0,1
1179,1179,-0.173775282351894,-0.2,0.0,1.0,400.0,550.0,1.0,0,520.0,1
1180,1180,0.5986549126220603,0.6,0.0,0.0,476.0,965.0,0.0,1,479.0,1
1181,1181,-0.10617828071944002,-0.1,0.0,1.0,402.0,603.0,1.0,0,1855.0,1
1182,1182,0.22372446713033634,0.2,0.0,0.0,459.0,765.0,0.0,1,196.0,1
1183,1183,0.04975435023010655,0.0,1.0,1.0,260.0,716.0,1.0,1,1724.0,1
1184,1184,-0.49899861140320195,-0.5,1.0,0.0,379.0,840.0,0.0,0,291.0,1
1185,1185,-0.5120756854999606,-0.5,0.0,1.0,265.0,773.0,1.0,0,292.0,1
1186,1186,-0.3952917374444138,-0.4,1.0,0.0,308.0,984.0,0.0,0,-172.0,1
1187,1187,-0.36272095318916997,-0.4,0.0,1.0,439.0,759.0,1.0,0,402.0,1
1188,1188,0.4038065754357528,0.4,0.0,0.0,262.0,660.0,0.0,1,418.0,1
1189,1189,-0.2702858156043384,-0.3,0.0,1.0,451.0,599.0,1.0,0,580.0,1
1190,1190,-0.02078807146807371,-0.0,1.0,0.0,484.0,548.0,0.0,0,2578.0,1
1191,1191,0.8887703640993655,0.9,0.0,0.0,389.0,714.0,1.0,0,-163.0,0
1192,1192,0.6411837303167635,0.6,0.0,0.0,393.0,896.0,0.0,1,461.0,1
1193,1193,-0.3288927884757499,-0.3,0.0,1.0,353.0,503.0,1.0,0,694.0,1
1194,1194,0.2995958103321935,0.3,1.0,1.0,379.0,814.0,1.0,1,577.0,1
1195,1195,-0.21739926927318254,-0.2,0.0,1.0,413.0,839.0,1.0,0,1418.0,1
1196,1196,-0.05002309028056162,-0.1,1.0,0.0,426.0,754.0,0.0,0,100.0,1
1197,1197,0.07771577888171866,0.1,1.0,1.0,384.0,929.0,1.0,1,2557.0,1
1198,1198,0.888530639949544,0.9,1.0,1.0,298.0,783.0,1.0,1,259.0,1
1199,1199,-0.7821118366562797,-0.8,1.0,0.0,451.0,935.0,0.0,0,374.0,1
1200,1200,-0.07946027319723159,-0.1,0.0,1.0,489.0,860.0,1.0,0,1641.0,1
1201,1201,0.5349658056653291,0.5,1.0,1.0,277.0,551.0,1.0,1,402.0,1
1202,1202,0.10440489985743595,0.1,1.0,1.0,275.0,839.0,1.0,1,1336.0,1
1203,1203,0.17613894828329857,0.2,1.0,1.0,353.0,955.0,0.0,0,12.0,0
1204,1204,0.10713530542229777,0.1,1.0,1.0,414.0,733.0,1.0,1,3853.0,1
1205,1205,0.6395932205997304,0.6,0.0,0.0,379.0,837.0,0.0,1,474.0,1
1206,1206,-0.24773096862344268,-0.2,0.0,1.0,421.0,543.0,1.0,0,646.0,1
1207,1207,-0.7923572931696792,-0.8,0.0,1.0,479.0,842.0,1.0,0,39.0,1
1208,1208,0.835983716438666,0.8,1.0,1.0,493.0,954.0,1.0,1,353.0,1
1209,1209,-0.1477758501924613,-0.1,1.0,0.0,300.0,708.0,0.0,0,552.0,1
1210,1210,-0.26135016448166226,-0.3,1.0,0.0,419.0,825.0,0.0,0,856.0,1
1211,1211,0.0188677806754618,0.0,1.0,1.0,466.0,514.0,1.0,1,4010.0,1
1212,1212,-0.10917899408378728,-0.1,0.0,1.0,488.0,798.0,1.0,0,1464.0,1
1213,1213,0.8898703870718659,0.9,0.0,0.0,295.0,775.0,0.0,1,150.0,1
1214,1214,-0.6403973015898599,-0.6,1.0,0.0,369.0,650.0,0.0,0,451.0,1
1215,1215,0.1695587040622163,0.2,0.0,0.0,359.0,589.0,0.0,1,612.0,1
1216,1216,-0.5527780551852088,-0.6,0.0,1.0,406.0,599.0,1.0,0,325.0,1
1217,1217,-0.8701644910881162,-0.9,0.0,1.0,275.0,500.0,1.0,0,315.0,1
1218,1218,-0.5286391667852097,-0.5,0.0,1.0,458.0,731.0,1.0,0,261.0,1
1219,1219,-0.7237720259180377,-0.7,0.0,1.0,343.0,719.0,1.0,0,168.0,1
1220,1220,-0.3368067406901303,-0.3,0.0,1.0,287.0,865.0,1.0,0,688.0,1
1221,1221,-0.6828226746844825,-0.7,1.0,0.0,370.0,603.0,0.0,0,167.0,1
1222,1222,0.4725995666185955,0.5,1.0,1.0,429.0,593.0,1.0,1,428.0,1
1223,1223,-0.6329987294731803,-0.6,1.0,0.0,422.0,801.0,0.0,0,307.0,1
1224,1224,0.1922882031852614,0.2,0.0,0.0,382.0,784.0,0.0,1,614.0,1
1225,1225,0.6543055922655002,0.7,1.0,1.0,416.0,765.0,1.0,1,249.0,1
1226,1226,0.4635829455216126,0.5,0.0,0.0,403.0,683.0,0.0,1,304.0,1
1227,1227,-0.8005527133659209,-0.8,1.0,0.0,371.0,885.0,0.0,0,174.0,1
1228,1228,-0.7535832181659008,-0.8,1.0,0.0,371.0,500.0,0.0,0,119.0,1
1229,1229,-0.5216106573293213,-0.5,0.0,1.0,390.0,515.0,1.0,0,225.0,1
1230,1230,-0.011851740706917857,-0.0,1.0,0.0,407.0,775.0,1.0,1,28.0,0
1231,1231,-0.6199823075564561,-0.6,1.0,0.0,266.0,872.0,0.0,0,102.0,1
1232,1232,-0.6496624955127448,-0.6,1.0,0.0,477.0,831.0,0.0,0,642.0,1
1233,1233,-0.45742964852022144,-0.5,1.0,0.0,317.0,836.0,0.0,0,217.0,1
1234,1234,-0.12614550986638262,-0.1,1.0,0.0,397.0,529.0,0.0,0,474.0,1
1235,1235,0.8475703183224134,0.8,1.0,1.0,302.0,941.0,1.0,1,187.0,1
1236,1236,-0.7517702218340008,-0.8,0.0,1.0,474.0,890.0,1.0,0,396.0,1
1237,1237,-0.4616592486161779,-0.5,0.0,1.0,468.0,863.0,1.0,0,209.0,1
1238,1238,-0.4000319075892875,-0.4,1.0,0.0,253.0,986.0,0.0,0,601.0,1
1239,1239,0.45762888041599903,0.5,0.0,0.0,387.0,972.0,0.0,1,281.0,1
1240,1240,0.28315459303832446,0.3,0.0,0.0,358.0,561.0,0.0,1,281.0,1
1241,1241,-0.03617740555513671,-0.0,1.0,0.0,275.0,526.0,0.0,0,2819.0,1
1242,1242,0.005060743196339201,0.0,1.0,1.0,490.0,517.0,0.0,0,3583.0,0
1243,1243,0.06535317719771983,0.1,1.0,1.0,305.0,852.0,1.0,1,273.0,1
1244,1244,0.8907837494390857,0.9,0.0,0.0,495.0,704.0,0.0,1,121.0,1
1245,1245,0.7544970910931507,0.8,1.0,1.0,348.0,890.0,1.0,1,212.0,1
1246,1246,0.10533287276670145,0.1,1.0,1.0,403.0,778.0,1.0,1,3389.0,1
1247,1247,-0.7926420955422494,-0.8,0.0,1.0,263.0,761.0,1.0,0,106.0,1
1248,1248,-0.2972806434398785,-0.3,1.0,0.0,418.0,774.0,0.0,0,78.0,1
1249,1249,-0.7458847350519643,-0.7,0.0,1.0,282.0,623.0,1.0,0,115.0,1
1250,1250,-0.23666978844228637,-0.2,0.0,1.0,417.0,580.0,1.0,0,193.0,1
1251,1251,-0.8817168501450607,-0.9,0.0,1.0,455.0,985.0,1.0,0,-260.0,1
1252,1252,0.41760568970651735,0.4,0.0,0.0,305.0,865.0,0.0,1,510.0,1
1253,1253,0.09333237904850966,0.1,0.0,0.0,464.0,773.0,0.0,1,943.0,1
1254,1254,0.36446347829218884,0.4,1.0,1.0,429.0,623.0,1.0,1,228.0,1
1255,1255,-0.8258332738805472,-0.8,1.0,0.0,432.0,917.0,0.0,0,291.0,1
1256,1256,0.8510425579779587,0.9,0.0,0.0,329.0,675.0,0.0,1,206.0,1
1257,1257,-0.3331473261453284,-0.3,1.0,0.0,375.0,964.0,0.0,0,461.0,1
1258,1258,0.25230593909769394,0.3,1.0,1.0,417.0,965.0,1.0,1,258.0,1
1259,1259,0.3884374453973315,0.4,1.0,1.0,323.0,701.0,1.0,1,96.0,1
1260,1260,0.5382481360220529,0.5,1.0,1.0,366.0,746.0,1.0,1,128.0,1
1261,1261,0.17231387437058487,0.2,1.0,1.0,401.0,708.0,1.0,1,1421.0,1
1262,1262,-0.4791428908734433,-0.5,0.0,1.0,332.0,500.0,1.0,0,338.0,1
1263,1263,0.6401457730124965,0.6,0.0,0.0,309.0,693.0,0.0,1,368.0,1
1264,1264,-0.5377237756295115,-0.5,1.0,0.0,358.0,604.0,0.0,0,378.0,1
1265,1265,0.6284062902396496,0.6,1.0,1.0,366.0,751.0,1.0,1,183.0,1
1266,1266,0.15438261140118048,0.2,0.0,0.0,264.0,720.0,0.0,1,966.0,1
1267,1267,-0.20552588684797057,-0.2,0.0,1.0,328.0,840.0,1.0,0,242.0,1
1268,1268,-0.701127716995106,-0.7,1.0,0.0,427.0,648.0,0.0,0,265.0,1
1269,1269,0.7647097656378427,0.8,1.0,1.0,464.0,901.0,1.0,1,185.0,1
1270,1270,0.012975534392437926,0.0,0.0,0.0,384.0,852.0,1.0,0,3764.0,0
1271,1271,-0.17738326477572852,-0.2,0.0,1.0,358.0,798.0,1.0,0,384.0,1
1272,1272,0.4698912629372721,0.5,0.0,0.0,359.0,720.0,0.0,1,511.0,1
1273,1273,0.27376053174643056,0.3,0.0,0.0,466.0,724.0,0.0,1,600.0,1
1274,1274,-0.36906784678774185,-0.4,0.0,1.0,407.0,692.0,1.0,0,441.0,1
1275,1275,0.13207850988059067,0.1,1.0,1.0,272.0,525.0,1.0,1,393.0,1
1276,1276,-0.16665869619181828,-0.2,1.0,0.0,480.0,811.0,0.0,0,2419.0,1
1277,1277,0.7262996661675035,0.7,0.0,0.0,380.0,925.0,0.0,1,245.0,1
1278,1278,0.32974489409743,0.3,0.0,0.0,251.0,592.0,0.0,1,917.0,1
1279,1279,0.2355872387310417,0.2,1.0,1.0,452.0,695.0,1.0,1,573.0,1
1280,1280,-0.8399298380024153,-0.8,0.0,1.0,398.0,831.0,1.0,0,121.0,1
1281,1281,-0.5925005469544178,-0.6,0.0,1.0,467.0,670.0,1.0,0,133.0,1
1282,1282,-0.4065994128844729,-0.4,1.0,0.0,375.0,951.0,0.0,0,864.0,1
1283,1283,0.840935229093987,0.8,0.0,0.0,492.0,965.0,0.0,1,193.0,1
1284,1284,0.5412120387328355,0.5,1.0,1.0,332.0,529.0,1.0,1,139.0,1
1285,1285,0.7828191221817037,0.8,0.0,0.0,362.0,819.0,0.0,1,289.0,1
1286,1286,0.2598699467084783,0.3,0.0,0.0,455.0,666.0,0.0,1,169.0,1
1287,1287,-0.5627667302141441,-0.6,1.0,0.0,304.0,642.0,0.0,0,304.0,1
1288,1288,-0.5990933352180532,-0.6,1.0,0.0,390.0,711.0,0.0,0,429.0,1
1289,1289,-0.07230163202135409,-0.1,1.0,0.0,306.0,696.0,0.0,0,3258.0,1
1290,1290,-0.23716846854495321,-0.2,0.0,1.0,407.0,745.0,1.0,0,-122.0,1
1291,1291,-0.7897359852729353,-0.8,0.0,1.0,437.0,508.0,1.0,0,305.0,1
1292,1292,-0.7680852680038877,-0.8,1.0,0.0,450.0,673.0,0.0,0,187.0,1
1293,1293,-0.4942274510843407,-0.5,1.0,0.0,480.0,785.0,0.0,0,605.0,1
1294,1294,-0.0638903206787077,-0.1,0.0,1.0,464.0,566.0,1.0,0,1090.0,1
1295,1295,-0.4070777977637183,-0.4,1.0,0.0,426.0,895.0,0.0,0,679.0,1
1296,1296,0.24143330206937874,0.2,0.0,0.0,375.0,547.0,0.0,1,678.0,1
1297,1297,-0.34927011845586586,-0.3,0.0,1.0,437.0,650.0,1.0,0,253.0,1
1298,1298,-0.29788284522333697,-0.3,1.0,0.0,254.0,698.0,0.0,0,618.0,1
1299,1299,0.24512800963613335,0.2,0.0,0.0,468.0,505.0,0.0,1,657.0,1
1300,1300,0.0686936193374883,0.1,1.0,1.0,499.0,613.0,1.0,1,2668.0,1
1301,1301,0.5785076467273932,0.6,0.0,0.0,493.0,928.0,0.0,1,99.0,1
1302,1302,0.09530947058964612,0.1,1.0,1.0,273.0,526.0,1.0,1,1551.0,1
1303,1303,-0.31990636559399777,-0.3,0.0,1.0,378.0,542.0,1.0,0,340.0,1
1304,1304,-0.2870802594227021,-0.3,1.0,0.0,320.0,648.0,0.0,0,112.0,1
1305,1305,-0.24948263988470298,-0.2,1.0,0.0,346.0,918.0,0.0,0,1786.0,1
1306,1306,0.22958264898385716,0.2,0.0,0.0,392.0,641.0,0.0,1,227.0,1
1307,1307,0.6373048326355931,0.6,1.0,1.0,411.0,661.0,1.0,1,268.0,1
1308,1308,-0.5993316877648933,-0.6,0.0,1.0,283.0,958.0,1.0,0,169.0,1
1309,1309,0.08076145128738155,0.1,0.0,0.0,395.0,684.0,1.0,0,3921.0,0
1310,1310,0.5443711104589505,0.5,0.0,0.0,408.0,897.0,0.0,1,215.0,1
1311,1311,-0.444135016182126,-0.4,1.0,0.0,376.0,680.0,0.0,0,364.0,1
1312,1312,-0.24216303637233483,-0.2,0.0,1.0,286.0,750.0,1.0,0,654.0,1
1313,1313,0.2797393398503535,0.3,0.0,0.0,407.0,762.0,0.0,1,361.0,1
1314,1314,0.6563720397025824,0.7,0.0,0.0,465.0,759.0,0.0,1,196.0,1
1315,1315,-0.4472674604620734,-0.4,1.0,0.0,466.0,605.0,0.0,0,419.0,1
1316,1316,0.27382401684793034,0.3,1.0,1.0,498.0,970.0,1.0,1,192.0,1
1317,1317,-0.18119176931059122,-0.2,1.0,0.0,306.0,871.0,0.0,0,2293.0,1
1318,1318,-0.042525810377223694,-0.0,0.0,1.0,411.0,810.0,1.0,0,169.0,1
1319,1319,-0.16024707018736195,-0.2,1.0,0.0,409.0,713.0,0.0,0,798.0,1
1320,1320,0.6209512581816664,0.6,0.0,0.0,301.0,845.0,0.0,1,234.0,1
1321,1321,0.6778117461262777,0.7,0.0,0.0,441.0,959.0,0.0,1,250.0,1
1322,1322,-0.22700800395663523,-0.2,0.0,1.0,251.0,586.0,1.0,0,833.0,1
1323,1323,-0.5887980024958086,-0.6,1.0,0.0,455.0,941.0,0.0,0,394.0,1
1324,1324,-0.42624991839366383,-0.4,1.0,0.0,447.0,563.0,0.0,0,840.0,1
1325,1325,-0.2560010326640979,-0.3,0.0,1.0,345.0,500.0,1.0,0,535.0,1
1326,1326,-0.06612379452825612,-0.1,0.0,1.0,368.0,787.0,1.0,0,2355.0,1
1327,1327,0.07710258535901493,0.1,1.0,1.0,324.0,637.0,1.0,1,4039.0,1
1328,1328,0.19181017499167707,0.2,1.0,1.0,267.0,966.0,1.0,1,1597.0,1
1329,1329,-0.2012983969211961,-0.2,0.0,1.0,388.0,662.0,1.0,0,260.0,1
1330,1330,0.1347815455658331,0.1,1.0,1.0,436.0,518.0,1.0,1,1736.0,1
1331,1331,0.3734216657066872,0.4,0.0,0.0,353.0,716.0,0.0,1,741.0,1
1332,1332,0.31080869104002173,0.3,1.0,1.0,348.0,778.0,1.0,1,-156.0,1
1333,1333,-0.30589448861525326,-0.3,1.0,0.0,290.0,871.0,0.0,0,439.0,1
1334,1334,0.30152168387903566,0.3,1.0,1.0,374.0,627.0,1.0,1,419.0,1
1335,1335,-0.6677998168019552,-0.7,0.0,1.0,452.0,529.0,1.0,0,529.0,1
1336,1336,-0.7964633570709588,-0.8,0.0,1.0,434.0,985.0,1.0,0,221.0,1
1337,1337,0.8192513893199126,0.8,1.0,1.0,399.0,687.0,1.0,1,414.0,1
1338,1338,0.8752307706338956,0.9,1.0,1.0,440.0,575.0,1.0,1,165.0,1
1339,1339,0.5104026810660681,0.5,1.0,1.0,287.0,972.0,1.0,1,541.0,1
1340,1340,-0.6175099140282442,-0.6,1.0,0.0,370.0,728.0,0.0,0,272.0,1
1341,1341,-0.6763270282549685,-0.7,0.0,1.0,322.0,576.0,1.0,0,252.0,1
1342,1342,0.5041937828981203,0.5,0.0,0.0,304.0,959.0,0.0,1,37.0,1
1343,1343,0.23128467448075296,0.2,1.0,1.0,431.0,853.0,1.0,1,676.0,1
1344,1344,0.721797255951461,0.7,0.0,0.0,466.0,990.0,0.0,1,384.0,1
1345,1345,-0.23606290001022068,-0.2,0.0,1.0,278.0,502.0,1.0,0,850.0,1
1346,1346,-0.8298934240010555,-0.8,0.0,1.0,279.0,573.0,1.0,0,108.0,1
1347,1347,-0.6029931486141951,-0.6,1.0,0.0,432.0,925.0,0.0,0,413.0,1
1348,1348,0.06534104428371335,0.1,0.0,0.0,302.0,633.0,0.0,1,3185.0,1
1349,1349,-0.11975813544816527,-0.1,1.0,0.0,387.0,678.0,0.0,0,485.0,1
1350,1350,0.3323670612170352,0.3,0.0,0.0,306.0,713.0,0.0,1,351.0,1
1351,1351,0.7734625388230759,0.8,0.0,0.0,470.0,645.0,0.0,1,255.0,1
1352,1352,0.7787282735098712,0.8,1.0,1.0,433.0,690.0,1.0,1,257.0,1
1353,1353,-0.8296118410848439,-0.8,1.0,0.0,369.0,855.0,0.0,0,86.0,1
1354,1354,-0.5139021144645181,-0.5,1.0,0.0,428.0,973.0,0.0,0,499.0,1
1355,1355,-0.556087312447213,-0.6,1.0,0.0,316.0,999.0,0.0,0,95.0,1
1356,1356,-0.3219421571248453,-0.3,1.0,0.0,484.0,721.0,0.0,0,425.0,1
1357,1357,-0.3296556535956784,-0.3,0.0,1.0,494.0,825.0,1.0,0,331.0,1
1358,1358,-0.39855856152964253,-0.4,1.0,0.0,478.0,587.0,0.0,0,325.0,1
1359,1359,0.8183264597659398,0.8,0.0,0.0,325.0,824.0,0.0,1,71.0,1
1360,1360,0.16556659382366024,0.2,0.0,0.0,425.0,804.0,0.0,1,1121.0,1
1361,1361,0.6462319104747255,0.6,1.0,1.0,466.0,937.0,1.0,1,97.0,1
1362,1362,-0.7566057759710421,-0.8,0.0,1.0,382.0,510.0,1.0,0,298.0,1
1363,1363,-0.4826211604998469,-0.5,1.0,0.0,454.0,515.0,0.0,0,911.0,1
1364,1364,-0.003946297010020694,-0.0,0.0,1.0,272.0,716.0,1.0,0,2352.0,1
1365,1365,0.5524809206999973,0.6,1.0,1.0,272.0,826.0,1.0,1,262.0,1
1366,1366,0.02573346806486554,0.0,1.0,1.0,292.0,965.0,1.0,1,1313.0,1
1367,1367,-0.23150584605296753,-0.2,0.0,1.0,296.0,542.0,1.0,0,572.0,1
1368,1368,-0.6407577139858364,-0.6,0.0,1.0,327.0,806.0,1.0,0,207.0,1
1369,1369,0.6522874447877326,0.7,0.0,0.0,250.0,690.0,0.0,1,920.0,1
1370,1370,0.3975545936668269,0.4,1.0,1.0,457.0,896.0,1.0,1,547.0,1
1371,1371,0.1575199268280224,0.2,1.0,1.0,385.0,961.0,1.0,1,1014.0,1
1372,1372,-0.7868378111305858,-0.8,0.0,1.0,301.0,693.0,1.0,0,326.0,1
1373,1373,-0.021731987124184227,-0.0,1.0,0.0,372.0,745.0,1.0,1,2213.0,0
1374,1374,-0.417058182292159,-0.4,1.0,0.0,360.0,789.0,0.0,0,371.0,1
1375,1375,0.632586748560494,0.6,0.0,0.0,353.0,511.0,0.0,1,386.0,1
1376,1376,-0.31657727702330396,-0.3,0.0,1.0,424.0,884.0,1.0,0,2.0,1
1377,1377,0.7375479206656154,0.7,1.0,1.0,492.0,991.0,1.0,1,167.0,1
1378,1378,0.6356389454913486,0.6,0.0,0.0,495.0,717.0,0.0,1,208.0,1
1379,1379,0.5113626309677667,0.5,1.0,1.0,358.0,581.0,1.0,1,691.0,1
1380,1380,-0.3513586648236732,-0.4,0.0,1.0,454.0,692.0,1.0,0,244.0,1
1381,1381,-0.673296512511657,-0.7,0.0,1.0,296.0,888.0,1.0,0,106.0,1
1382,1382,-0.17226613915776534,-0.2,0.0,1.0,368.0,939.0,1.0,0,773.0,1
1383,1383,-0.5398355390279113,-0.5,0.0,1.0,307.0,555.0,1.0,0,488.0,1
1384,1384,0.7104498265316069,0.7,1.0,1.0,413.0,996.0,1.0,1,201.0,1
1385,1385,-0.6140439286038784,-0.6,1.0,0.0,277.0,829.0,0.0,0,484.0,1
1386,1386,-0.2941327583996092,-0.3,1.0,0.0,481.0,550.0,0.0,0,299.0,1
1387,1387,0.17703163755334195,0.2,1.0,1.0,355.0,753.0,1.0,1,452.0,1
1388,1388,0.13854208172558857,0.1,1.0,1.0,299.0,638.0,1.0,1,1393.0,1
1389,1389,0.21696739407560128,0.2,0.0,0.0,352.0,827.0,1.0,0,801.0,0
1390,1390,0.5654647513113312,0.6,0.0,0.0,481.0,629.0,0.0,1,230.0,1
1391,1391,-0.5799975887037006,-0.6,0.0,1.0,355.0,929.0,0.0,1,-74.0,0
1392,1392,0.11606006989965467,0.1,1.0,1.0,384.0,599.0,1.0,1,1907.0,1
1393,1393,0.35764657253302057,0.4,1.0,1.0,380.0,697.0,1.0,1,643.0,1
1394,1394,-0.8109063957196203,-0.8,0.0,1.0,290.0,752.0,1.0,0,188.0,1
1395,1395,-0.39633697217933994,-0.4,0.0,1.0,329.0,523.0,1.0,0,438.0,1
1396,1396,-0.03557002896460648,-0.0,0.0,1.0,420.0,738.0,1.0,0,1732.0,1
1397,1397,-0.5200599631309215,-0.5,1.0,0.0,443.0,542.0,0.0,0,115.0,1
1398,1398,-0.32308448835703507,-0.3,0.0,1.0,475.0,596.0,1.0,0,869.0,1
1399,1399,-0.8818118146640026,-0.9,1.0,0.0,434.0,596.0,0.0,0,230.0,1
1400,1400,0.37246303251800084,0.4,1.0,1.0,481.0,870.0,1.0,1,789.0,1
1401,1401,0.8344152183762087,0.8,1.0,1.0,291.0,958.0,1.0,1,451.0,1
1402,1402,0.2838758989060469,0.3,1.0,1.0,368.0,646.0,1.0,1,786.0,1
1403,1403,0.043331253572657324,0.0,1.0,1.0,439.0,857.0,1.0,1,3594.0,1
1404,1404,-0.1479084978257048,-0.1,0.0,1.0,374.0,529.0,1.0,0,687.0,1
1405,1405,-0.1453863205706193,-0.1,1.0,0.0,347.0,889.0,0.0,0,634.0,1
1406,1406,0.7551909267175853,0.8,0.0,0.0,359.0,821.0,0.0,1,250.0,1
1407,1407,-0.5537911629187502,-0.6,1.0,0.0,361.0,535.0,0.0,0,704.0,1
1408,1408,-0.4097824922309473,-0.4,1.0,0.0,254.0,934.0,0.0,0,662.0,1
1409,1409,-0.3564285127403075,-0.4,1.0,0.0,463.0,591.0,0.0,0,806.0,1
1410,1410,0.4485448897951868,0.4,0.0,0.0,479.0,931.0,0.0,1,200.0,1
1411,1411,0.508175021859638,0.5,0.0,0.0,488.0,914.0,0.0,1,638.0,1
1412,1412,-0.8090974356926564,-0.8,0.0,1.0,328.0,832.0,1.0,0,-260.0,1
1413,1413,-0.31152221023583926,-0.3,1.0,0.0,389.0,991.0,0.0,0,40.0,1
1414,1414,-0.8644248432279374,-0.9,1.0,0.0,491.0,529.0,0.0,0,280.0,1
1415,1415,-0.3285417565003954,-0.3,1.0,0.0,285.0,966.0,0.0,0,259.0,1
1416,1416,0.572926401829906,0.6,0.0,0.0,341.0,970.0,0.0,1,339.0,1
1417,1417,0.7730226516150552,0.8,0.0,0.0,336.0,952.0,0.0,1,412.0,1
1418,1418,0.32709254340755434,0.3,0.0,0.0,342.0,882.0,0.0,1,546.0,1
1419,1419,-0.69280932506395,-0.7,1.0,0.0,424.0,648.0,0.0,0,218.0,1
1420,1420,0.8067309453417405,0.8,1.0,1.0,344.0,943.0,1.0,1,83.0,1
1421,1421,0.8566971182238602,0.9,0.0,0.0,458.0,784.0,0.0,1,168.0,1
1422,1422,-0.19169193300594956,-0.2,1.0,0.0,454.0,771.0,0.0,0,535.0,1
1423,1423,-0.7735313563398335,-0.8,1.0,0.0,382.0,595.0,0.0,0,293.0,1
1424,1424,-0.6862188436404209,-0.7,1.0,0.0,388.0,699.0,0.0,0,213.0,1
1425,1425,0.5968628739056049,0.6,1.0,1.0,476.0,787.0,1.0,1,107.0,1
1426,1426,0.3393647720662757,0.3,0.0,0.0,260.0,635.0,0.0,1,435.0,1
1427,1427,0.42781703030521656,0.4,0.0,0.0,348.0,876.0,0.0,1,706.0,1
1428,1428,-0.2577193153574838,-0.3,0.0,1.0,273.0,760.0,1.0,0,497.0,1
1429,1429,0.5961058744567534,0.6,0.0,0.0,275.0,912.0,0.0,1,293.0,1
1430,1430,0.2860887585530075,0.3,1.0,1.0,299.0,612.0,1.0,1,-111.0,1
1431,1431,-0.4191298665648563,-0.4,0.0,1.0,253.0,818.0,1.0,0,219.0,1
1432,1432,0.8398955965171205,0.8,1.0,1.0,251.0,915.0,1.0,1,114.0,1
1433,1433,-0.8653638697743766,-0.9,1.0,0.0,318.0,942.0,0.0,0,420.0,1
1434,1434,-0.8283205236717298,-0.8,0.0,1.0,432.0,579.0,1.0,0,-111.0,1
1435,1435,0.025401107814382318,0.0,1.0,1.0,441.0,683.0,1.0,1,3876.0,1
1436,1436,0.6046959074666373,0.6,0.0,0.0,355.0,576.0,0.0,1,249.0,1
1437,1437,-0.07281704595660954,-0.1,1.0,0.0,446.0,970.0,0.0,0,3584.0,1
1438,1438,-0.5379904362012214,-0.5,0.0,1.0,278.0,882.0,1.0,0,150.0,1
1439,1439,0.5098277421826866,0.5,1.0,1.0,400.0,770.0,1.0,1,210.0,1
1440,1440,-0.6689286124968952,-0.7,0.0,1.0,482.0,623.0,1.0,0,245.0,1
1441,1441,-0.5694698759083294,-0.6,1.0,0.0,364.0,897.0,0.0,0,719.0,1
1442,1442,0.8003050366201213,0.8,0.0,0.0,344.0,545.0,0.0,1,211.0,1
1443,1443,-0.5035220215687912,-0.5,0.0,1.0,467.0,530.0,1.0,0,403.0,1
1444,1444,0.7164036013185174,0.7,0.0,0.0,327.0,871.0,0.0,1,162.0,1
1445,1445,-0.42136668168617397,-0.4,0.0,1.0,365.0,608.0,1.0,0,157.0,1
1446,1446,0.18771331552488368,0.2,1.0,1.0,317.0,864.0,1.0,1,2349.0,1
1447,1447,-0.23126847307862675,-0.2,1.0,0.0,411.0,523.0,0.0,0,156.0,1
1448,1448,-0.45972453872444263,-0.5,0.0,1.0,313.0,860.0,1.0,0,527.0,1
1449,1449,-0.4001451887009986,-0.4,1.0,0.0,481.0,693.0,0.0,0,286.0,1
1450,1450,-0.6304156079528006,-0.6,0.0,1.0,473.0,610.0,1.0,0,287.0,1
1451,1451,-0.3576092731560204,-0.4,1.0,0.0,494.0,829.0,0.0,0,347.0,1
1452,1452,0.5141868454203101,0.5,1.0,1.0,386.0,589.0,1.0,1,225.0,1
1453,1453,0.4740247095922464,0.5,0.0,0.0,475.0,928.0,0.0,1,347.0,1
1454,1454,0.7397419742666483,0.7,1.0,1.0,453.0,822.0,1.0,1,185.0,1
1455,1455,-0.544570221138696,-0.5,1.0,0.0,429.0,878.0,0.0,0,183.0,1
1456,1456,-0.6735592589135215,-0.7,1.0,0.0,405.0,971.0,0.0,0,144.0,1
1457,1457,-0.40911334756629086,-0.4,1.0,0.0,408.0,685.0,0.0,0,227.0,1
1458,1458,-0.4215135128757483,-0.4,0.0,1.0,437.0,877.0,1.0,0,526.0,1
1459,1459,0.5915600480441553,0.6,1.0,1.0,276.0,924.0,1.0,1,220.0,1
1460,1460,0.31490189964711923,0.3,0.0,0.0,293.0,507.0,0.0,1,280.0,1
1461,1461,0.6372894193823905,0.6,0.0,0.0,370.0,890.0,0.0,1,200.0,1
1462,1462,0.13085283870471642,0.1,0.0,0.0,469.0,906.0,0.0,1,825.0,1
1463,1463,-0.7886968126859422,-0.8,0.0,1.0,307.0,923.0,1.0,0,150.0,1
1464,1464,0.5979263255538306,0.6,1.0,1.0,285.0,935.0,1.0,1,100.0,1
1465,1465,0.49112017760836413,0.5,1.0,1.0,401.0,788.0,1.0,1,551.0,1
1466,1466,0.5506279819803129,0.6,0.0,0.0,408.0,597.0,0.0,1,1505.0,1
1467,1467,-0.6983293987621797,-0.7,0.0,1.0,330.0,587.0,1.0,0,213.0,1
1468,1468,0.8561968376213153,0.9,1.0,1.0,401.0,818.0,1.0,1,241.0,1
1469,1469,0.5930285554187674,0.6,0.0,0.0,373.0,674.0,0.0,1,213.0,1
1470,1470,0.02558271086859254,0.0,0.0,0.0,314.0,854.0,1.0,0,2382.0,0
1471,1471,-0.13628855667061957,-0.1,0.0,1.0,490.0,830.0,1.0,0,660.0,1
1472,1472,-0.6269745336263823,-0.6,0.0,1.0,421.0,666.0,1.0,0,173.0,1
1473,1473,0.1374709384130245,0.1,1.0,1.0,349.0,545.0,1.0,1,1296.0,1
1474,1474,0.49924462297978256,0.5,1.0,1.0,349.0,594.0,1.0,1,367.0,1
1475,1475,0.45080624155128823,0.5,0.0,0.0,272.0,603.0,0.0,1,265.0,1
1476,1476,0.07974656026466476,0.1,0.0,0.0,317.0,653.0,1.0,0,4030.0,0
1477,1477,0.22853494537744778,0.2,0.0,0.0,315.0,790.0,0.0,1,215.0,1
1478,1478,0.8051795503718532,0.8,0.0,0.0,431.0,979.0,0.0,1,400.0,1
1479,1479,0.215660937786064,0.2,1.0,1.0,386.0,994.0,1.0,1,720.0,1
1480,1480,-0.7042743883174707,-0.7,0.0,1.0,273.0,555.0,1.0,0,292.0,1
1481,1481,0.5886397809095695,0.6,0.0,0.0,291.0,798.0,0.0,1,381.0,1
1482,1482,-0.15668566658575966,-0.2,0.0,1.0,373.0,903.0,1.0,0,94.0,1
1483,1483,-0.5881566076692268,-0.6,0.0,1.0,288.0,997.0,1.0,0,195.0,1
1484,1484,0.33023057361074615,0.3,0.0,0.0,399.0,682.0,0.0,1,99.0,1
1485,1485,-0.7711919349463302,-0.8,1.0,0.0,256.0,888.0,0.0,0,216.0,1
1486,1486,-0.21108066000646664,-0.2,1.0,0.0,432.0,623.0,0.0,0,435.0,1
1487,1487,-0.5747642238298001,-0.6,0.0,1.0,333.0,524.0,1.0,0,223.0,1
1488,1488,-0.651142092283995,-0.7,1.0,0.0,457.0,503.0,0.0,0,340.0,1
1489,1489,0.38905430370555016,0.4,1.0,1.0,445.0,662.0,1.0,1,323.0,1
1490,1490,0.1472259997914246,0.1,1.0,1.0,254.0,646.0,1.0,1,290.0,1
1491,1491,-0.13060937903079683,-0.1,0.0,1.0,404.0,798.0,1.0,0,148.0,1
