,trial,coherence,coherence_bin,green_side,correct_side,target_onset,checker_onset,decision,green_decision,decision_time,correct_decision
0,0,0.56961239552249,0.6,1.0,1.0,398.0,836.0,1.0,1,96.0,1
1,1,0.04642795077437123,0.0,1.0,1.0,399.0,989.0,0.0,0,142.0,0
2,2,0.2703092645163846,0.3,0.0,0.0,419.0,798.0,0.0,1,303.0,1
3,3,0.26035194385595595,0.3,1.0,1.0,387.0,705.0,1.0,1,288.0,1
4,4,0.8677194899700661,0.9,0.0,0.0,454.0,585.0,0.0,1,171.0,1
5,5,0.8058332856401934,0.8,1.0,1.0,423.0,580.0,1.0,1,197.0,1
6,6,0.6830268869622015,0.7,1.0,1.0,292.0,959.0,1.0,1,99.0,1
7,7,0.6231594167966944,0.6,0.0,0.0,264.0,958.0,0.0,1,68.0,1
8,8,-0.655836729858722,-0.7,0.0,1.0,410.0,766.0,1.0,0,54.0,1
9,9,0.6896603186504947,0.7,0.0,0.0,423.0,509.0,0.0,1,278.0,1
10,10,0.03312569091585271,0.0,1.0,1.0,425.0,562.0,0.0,0,4013.0,0
11,11,-0.2090426849731346,-0.2,0.0,1.0,289.0,690.0,1.0,0,181.0,1
12,12,-0.5931439613574825,-0.6,0.0,1.0,336.0,778.0,1.0,0,116.0,1
13,13,-0.03199982190749051,-0.0,0.0,1.0,274.0,983.0,1.0,0,2143.0,1
14,14,0.29783385966340703,0.3,1.0,1.0,457.0,629.0,1.0,1,524.0,1
15,15,-0.6290421574212628,-0.6,0.0,1.0,473.0,682.0,1.0,0,135.0,1
16,16,-0.7014074371381814,-0.7,1.0,0.0,392.0,633.0,0.0,0,165.0,1
17,17,-0.6789865108411649,-0.7,1.0,0.0,390.0,821.0,0.0,0,79.0,1
18,18,-0.10022432607332188,-0.1,0.0,1.0,358.0,663.0,1.0,0,429.0,1
19,19,-0.8168055088924935,-0.8,0.0,1.0,496.0,680.0,1.0,0,94.0,1
20,20,-0.47497836038042307,-0.5,0.0,1.0,255.0,740.0,1.0,0,115.0,1
21,21,-0.16954386386485687,-0.2,0.0,1.0,297.0,788.0,1.0,0,145.0,1
22,22,-0.5201843969644875,-0.5,1.0,0.0,257.0,511.0,0.0,0,162.0,1
23,23,0.2808841175892204,0.3,1.0,1.0,335.0,548.0,1.0,1,467.0,1
24,24,0.8046421306883281,0.8,0.0,0.0,460.0,565.0,0.0,1,155.0,1
25,25,-0.5177701573508093,-0.5,0.0,1.0,499.0,622.0,1.0,0,189.0,1
26,26,-0.30827718323725894,-0.3,1.0,0.0,447.0,860.0,0.0,0,253.0,1
27,27,0.6909604904111833,0.7,0.0,0.0,498.0,856.0,0.0,1,136.0,1
28,28,0.6837487296997048,0.7,1.0,1.0,331.0,701.0,1.0,1,168.0,1
29,29,-0.46689551686376995,-0.5,0.0,1.0,372.0,680.0,1.0,0,108.0,1
30,30,0.6738296754469161,0.7,0.0,0.0,303.0,882.0,0.0,1,105.0,1
31,31,0.04147997352389321,0.0,1.0,1.0,354.0,610.0,1.0,1,2026.0,1
32,32,-0.4669618697384033,-0.5,1.0,0.0,319.0,691.0,0.0,0,220.0,1
33,33,0.657091223464137,0.7,0.0,0.0,493.0,936.0,0.0,1,131.0,1
34,34,0.44646285814489917,0.4,0.0,0.0,340.0,619.0,0.0,1,331.0,1
35,35,-0.043828177811297886,-0.0,0.0,1.0,325.0,597.0,1.0,0,308.0,1
36,36,0.47415954107291947,0.5,1.0,1.0,339.0,510.0,1.0,1,201.0,1
37,37,0.7691942078004622,0.8,1.0,1.0,486.0,723.0,1.0,1,111.0,1
38,38,0.5304648294808206,0.5,0.0,0.0,270.0,596.0,0.0,1,354.0,1
39,39,-0.14945774846995807,-0.1,0.0,1.0,387.0,746.0,1.0,0,107.0,1
40,40,0.6405259323569875,0.6,1.0,1.0,470.0,512.0,1.0,1,358.0,1
41,41,-0.22236606136764125,-0.2,1.0,0.0,362.0,720.0,0.0,0,438.0,1
42,42,-0.3616059147488311,-0.4,1.0,0.0,342.0,798.0,0.0,0,170.0,1
43,43,0.49242702248664083,0.5,0.0,0.0,271.0,754.0,0.0,1,205.0,1
44,44,-0.33188984684064937,-0.3,0.0,1.0,484.0,537.0,1.0,0,489.0,1
45,45,0.267426180884878,0.3,1.0,1.0,459.0,942.0,1.0,1,189.0,1
46,46,-0.3610848086416888,-0.4,0.0,1.0,306.0,787.0,1.0,0,167.0,1
47,47,0.4042859849500692,0.4,1.0,1.0,429.0,643.0,1.0,1,148.0,1
48,48,-0.4468298478038715,-0.4,1.0,0.0,467.0,811.0,0.0,0,142.0,1
49,49,-0.6835354167046421,-0.7,1.0,0.0,439.0,579.0,0.0,0,122.0,1
50,50,-0.30367979626376074,-0.3,1.0,0.0,350.0,523.0,0.0,0,317.0,1
51,51,0.3299550761248008,0.3,0.0,0.0,435.0,665.0,0.0,1,290.0,1
52,52,-0.016569807920378432,-0.0,1.0,0.0,360.0,650.0,0.0,0,1630.0,1
53,53,-0.24452378246713113,-0.2,1.0,0.0,351.0,839.0,0.0,0,150.0,1
54,54,0.877755257021729,0.9,1.0,1.0,417.0,519.0,1.0,1,114.0,1
55,55,-0.6341223510936791,-0.6,0.0,1.0,251.0,985.0,1.0,0,44.0,1
56,56,-0.812314911091573,-0.8,1.0,0.0,270.0,648.0,0.0,0,142.0,1
57,57,0.8150262691279139,0.8,0.0,0.0,455.0,879.0,0.0,1,76.0,1
58,58,0.7497406363769633,0.7,0.0,0.0,368.0,901.0,0.0,1,91.0,1
59,59,-0.7833959139803032,-0.8,1.0,0.0,301.0,796.0,0.0,0,123.0,1
60,60,-0.4528270532583685,-0.5,1.0,0.0,358.0,837.0,0.0,0,105.0,1
61,61,0.4395695159312708,0.4,0.0,0.0,272.0,823.0,0.0,1,125.0,1
62,62,0.04949711837984061,0.0,0.0,0.0,412.0,623.0,0.0,1,625.0,1
63,63,0.5765483453225068,0.6,1.0,1.0,439.0,560.0,1.0,1,91.0,1
64,64,-0.32417637089487283,-0.3,1.0,0.0,401.0,554.0,0.0,0,315.0,1
65,65,-0.6808505831422415,-0.7,0.0,1.0,370.0,809.0,1.0,0,101.0,1
66,66,0.2647120543339957,0.3,0.0,0.0,427.0,936.0,0.0,1,247.0,1
67,67,0.8349842355490943,0.8,0.0,0.0,490.0,721.0,0.0,1,99.0,1
68,68,-0.23206517317613273,-0.2,0.0,1.0,428.0,759.0,1.0,0,223.0,1
69,69,0.2681431131325326,0.3,0.0,0.0,411.0,614.0,0.0,1,245.0,1
70,70,0.1669917272513085,0.2,0.0,0.0,437.0,808.0,0.0,1,435.0,1
71,71,-0.7058735563554588,-0.7,0.0,1.0,398.0,595.0,1.0,0,127.0,1
72,72,-0.17506798362837872,-0.2,0.0,1.0,426.0,670.0,1.0,0,264.0,1
73,73,-0.15672366220177592,-0.2,0.0,1.0,460.0,865.0,1.0,0,255.0,1
74,74,0.12874853529112829,0.1,1.0,1.0,422.0,580.0,1.0,1,578.0,1
75,75,0.28817818441303344,0.3,1.0,1.0,254.0,806.0,1.0,1,160.0,1
76,76,0.5901632290168138,0.6,0.0,0.0,312.0,504.0,0.0,1,534.0,1
77,77,-0.5034998841695849,-0.5,1.0,0.0,429.0,661.0,0.0,0,210.0,1
78,78,0.6389715018292256,0.6,0.0,0.0,308.0,917.0,0.0,1,105.0,1
79,79,0.1188551096259064,0.1,1.0,1.0,416.0,521.0,1.0,1,483.0,1
80,80,0.6518215721484325,0.7,0.0,0.0,386.0,690.0,0.0,1,224.0,1
81,81,0.22432693584855035,0.2,1.0,1.0,341.0,566.0,1.0,1,333.0,1
82,82,-0.47291858420646427,-0.5,1.0,0.0,440.0,826.0,0.0,0,114.0,1
83,83,-0.6242090254369481,-0.6,0.0,1.0,445.0,595.0,1.0,0,160.0,1
84,84,0.040018674802994814,0.0,0.0,0.0,332.0,794.0,0.0,1,924.0,1
85,85,-0.8671795048053261,-0.9,0.0,1.0,294.0,548.0,1.0,0,148.0,1
86,86,0.03716579713379786,0.0,0.0,0.0,337.0,668.0,0.0,1,2015.0,1
87,87,0.48171939733580194,0.5,1.0,1.0,275.0,942.0,1.0,1,93.0,1
88,88,-0.6785184464091032,-0.7,0.0,1.0,392.0,514.0,1.0,0,134.0,1
89,89,-0.3364009818525501,-0.3,1.0,0.0,339.0,942.0,0.0,0,79.0,1
90,90,-0.19074196606514227,-0.2,1.0,0.0,342.0,794.0,0.0,0,354.0,1
91,91,-0.3960315757739793,-0.4,1.0,0.0,251.0,862.0,0.0,0,147.0,1
92,92,-0.16925611821905784,-0.2,0.0,1.0,370.0,904.0,1.0,0,166.0,1
93,93,-0.062877085928437,-0.1,0.0,1.0,462.0,541.0,1.0,0,927.0,1
94,94,0.029423755623141923,0.0,0.0,0.0,309.0,780.0,1.0,0,3911.0,0
95,95,0.019815293221873254,0.0,0.0,0.0,332.0,604.0,0.0,1,774.0,1
96,96,0.4632275590623879,0.5,1.0,1.0,397.0,734.0,1.0,1,129.0,1
97,97,0.3168377408647284,0.3,0.0,0.0,488.0,898.0,0.0,1,204.0,1
98,98,0.25193403793839086,0.3,0.0,0.0,402.0,733.0,0.0,1,245.0,1
99,99,0.560256210360034,0.6,1.0,1.0,260.0,698.0,1.0,1,212.0,1
100,100,0.631166931965416,0.6,1.0,1.0,443.0,727.0,1.0,1,100.0,1
101,101,0.4843084001975949,0.5,1.0,1.0,496.0,577.0,1.0,1,287.0,1
102,102,-0.48995152603619196,-0.5,1.0,0.0,292.0,604.0,0.0,0,164.0,1
103,103,-0.152238905667205,-0.2,1.0,0.0,480.0,615.0,0.0,0,445.0,1
104,104,0.44117560610538764,0.4,1.0,1.0,477.0,816.0,1.0,1,177.0,1
105,105,0.3340925405217815,0.3,0.0,0.0,297.0,535.0,0.0,1,368.0,1
106,106,-0.42425797384229724,-0.4,1.0,0.0,493.0,839.0,0.0,0,188.0,1
107,107,0.05826507048665275,0.1,0.0,0.0,328.0,664.0,0.0,1,278.0,1
108,108,-0.22429002012923083,-0.2,1.0,0.0,335.0,626.0,0.0,0,269.0,1
109,109,0.7336256556476043,0.7,0.0,0.0,484.0,931.0,0.0,1,145.0,1
110,110,-0.47221843114655115,-0.5,0.0,1.0,344.0,685.0,1.0,0,171.0,1
111,111,0.8467056363237077,0.8,1.0,1.0,408.0,556.0,1.0,1,96.0,1
112,112,-0.8059511889140109,-0.8,0.0,1.0,399.0,768.0,1.0,0,83.0,1
113,113,0.8578679915341946,0.9,0.0,0.0,442.0,580.0,0.0,1,138.0,1
114,114,-0.04439114448724901,-0.0,1.0,0.0,353.0,918.0,0.0,0,2709.0,1
115,115,-0.7035844632156385,-0.7,0.0,1.0,266.0,590.0,1.0,0,264.0,1
116,116,0.31777419000254226,0.3,0.0,0.0,481.0,632.0,0.0,1,177.0,1
117,117,0.7593783550353214,0.8,1.0,1.0,478.0,781.0,1.0,1,61.0,1
118,118,-0.1322888169404962,-0.1,0.0,1.0,406.0,725.0,1.0,0,139.0,1
119,119,-0.8108256118951659,-0.8,0.0,1.0,469.0,608.0,1.0,0,113.0,1
120,120,-0.21143255551042806,-0.2,0.0,1.0,348.0,823.0,1.0,0,169.0,1
121,121,-0.31103163363646613,-0.3,1.0,0.0,333.0,924.0,0.0,0,193.0,1
122,122,0.17522745476859136,0.2,1.0,1.0,418.0,738.0,1.0,1,344.0,1
123,123,0.7469580318458845,0.7,1.0,1.0,372.0,547.0,1.0,1,221.0,1
124,124,-0.52256567524817,-0.5,1.0,0.0,330.0,948.0,0.0,0,102.0,1
125,125,0.0193115907328133,0.0,1.0,1.0,270.0,548.0,1.0,1,4182.0,1
126,126,-0.33707130579699207,-0.3,0.0,1.0,422.0,722.0,1.0,0,196.0,1
127,127,0.6353904153088082,0.6,1.0,1.0,462.0,517.0,1.0,1,521.0,1
128,128,0.13484858690141877,0.1,0.0,0.0,490.0,612.0,0.0,1,588.0,1
129,129,0.5914100849848568,0.6,0.0,0.0,252.0,962.0,0.0,1,116.0,1
130,130,0.18969390174721423,0.2,0.0,0.0,344.0,850.0,0.0,1,326.0,1
131,131,-0.8451512458524386,-0.8,1.0,0.0,357.0,710.0,0.0,0,73.0,1
132,132,-0.41901612827759444,-0.4,1.0,0.0,382.0,694.0,0.0,0,234.0,1
133,133,0.05760349343825011,0.1,0.0,0.0,429.0,687.0,0.0,1,3884.0,1
134,134,-0.676731635523264,-0.7,1.0,0.0,472.0,980.0,0.0,0,78.0,1
135,135,-0.8093792531752796,-0.8,1.0,0.0,329.0,650.0,0.0,0,91.0,1
136,136,0.1347938042135136,0.1,0.0,0.0,377.0,921.0,0.0,1,602.0,1
137,137,-0.8934630968832202,-0.9,0.0,1.0,281.0,906.0,1.0,0,63.0,1
138,138,0.34506562838017063,0.3,0.0,0.0,459.0,916.0,0.0,1,125.0,1
139,139,-0.20976634546903172,-0.2,0.0,1.0,323.0,609.0,1.0,0,268.0,1
140,140,0.31518469050855147,0.3,1.0,1.0,324.0,616.0,1.0,1,160.0,1
141,141,-0.1964260317079385,-0.2,1.0,0.0,330.0,800.0,0.0,0,850.0,1
142,142,0.5118083173810702,0.5,1.0,1.0,447.0,595.0,1.0,1,208.0,1
143,143,0.5573810114371452,0.6,1.0,1.0,389.0,898.0,1.0,1,103.0,1
144,144,0.6334789395077493,0.6,1.0,1.0,261.0,702.0,1.0,1,147.0,1
145,145,0.2768012714313971,0.3,1.0,1.0,437.0,703.0,1.0,1,140.0,1
146,146,0.31862210489636633,0.3,1.0,1.0,411.0,604.0,1.0,1,225.0,1
147,147,0.7524868921534337,0.8,0.0,0.0,369.0,673.0,0.0,1,78.0,1
148,148,0.5055252665365894,0.5,0.0,0.0,350.0,577.0,0.0,1,163.0,1
149,149,-0.3995409287972115,-0.4,0.0,1.0,306.0,617.0,1.0,0,197.0,1
150,150,-0.30043944845572534,-0.3,1.0,0.0,428.0,609.0,0.0,0,273.0,1
151,151,0.7440728503918635,0.7,1.0,1.0,398.0,779.0,1.0,1,123.0,1
152,152,0.7698162723338037,0.8,1.0,1.0,475.0,606.0,1.0,1,269.0,1
153,153,-0.831201053424658,-0.8,0.0,1.0,408.0,561.0,1.0,0,111.0,1
154,154,0.389514051929691,0.4,1.0,1.0,337.0,536.0,1.0,1,337.0,1
155,155,-0.18375856252650835,-0.2,0.0,1.0,489.0,885.0,1.0,0,136.0,1
156,156,0.1821611899950889,0.2,0.0,0.0,459.0,568.0,0.0,1,413.0,1
157,157,0.4464422146672614,0.4,1.0,1.0,337.0,761.0,1.0,1,172.0,1
158,158,0.4335074026053328,0.4,0.0,0.0,454.0,507.0,0.0,1,329.0,1
159,159,-0.26771196745285963,-0.3,0.0,1.0,359.0,816.0,1.0,0,235.0,1
160,160,-0.22241676415423473,-0.2,1.0,0.0,357.0,898.0,0.0,0,145.0,1
161,161,0.32105837151201,0.3,0.0,0.0,351.0,971.0,0.0,1,218.0,1
162,162,0.34877648783021054,0.3,0.0,0.0,291.0,957.0,0.0,1,122.0,1
163,163,0.5887939850182692,0.6,1.0,1.0,287.0,643.0,1.0,1,270.0,1
164,164,0.31370948507189433,0.3,1.0,1.0,466.0,747.0,1.0,1,227.0,1
165,165,0.65765110586306,0.7,1.0,1.0,433.0,770.0,1.0,1,157.0,1
166,166,0.8958962867739281,0.9,1.0,1.0,407.0,865.0,1.0,1,68.0,1
167,167,-0.7221549956733777,-0.7,1.0,0.0,380.0,694.0,0.0,0,116.0,1
168,168,-0.32323906710475725,-0.3,0.0,1.0,459.0,841.0,1.0,0,160.0,1
169,169,0.610303139603107,0.6,1.0,1.0,295.0,831.0,1.0,1,264.0,1
170,170,-0.18593272266494498,-0.2,1.0,0.0,463.0,720.0,0.0,0,507.0,1
171,171,-0.8948005964112841,-0.9,0.0,1.0,391.0,861.0,1.0,0,108.0,1
172,172,-0.5728685193118769,-0.6,1.0,0.0,442.0,710.0,0.0,0,128.0,1
173,173,-0.28619098048778857,-0.3,0.0,1.0,374.0,908.0,1.0,0,138.0,1
174,174,0.844205475311436,0.8,1.0,1.0,497.0,786.0,1.0,1,147.0,1
175,175,0.6183782401490884,0.6,0.0,0.0,306.0,986.0,0.0,1,108.0,1
176,176,0.6460083000224351,0.6,0.0,0.0,278.0,750.0,0.0,1,152.0,1
177,177,0.046044846011233376,0.0,1.0,1.0,263.0,500.0,1.0,1,707.0,1
178,178,0.31470547046800756,0.3,0.0,0.0,443.0,587.0,0.0,1,180.0,1
179,179,0.21247850273883218,0.2,0.0,0.0,403.0,775.0,0.0,1,352.0,1
180,180,-0.2739335198802798,-0.3,0.0,1.0,435.0,875.0,1.0,0,190.0,1
181,181,-0.7357801276673928,-0.7,1.0,0.0,328.0,915.0,0.0,0,77.0,1
182,182,0.5326737097077944,0.5,0.0,0.0,276.0,935.0,0.0,1,169.0,1
183,183,0.6969208766754266,0.7,0.0,0.0,475.0,615.0,0.0,1,130.0,1
184,184,-0.16316828281545204,-0.2,1.0,0.0,396.0,525.0,0.0,0,399.0,1
185,185,0.4510757483142115,0.5,0.0,0.0,268.0,679.0,0.0,1,203.0,1
186,186,0.4497794019959708,0.4,1.0,1.0,320.0,506.0,1.0,1,254.0,1
187,187,0.1241586619639542,0.1,1.0,1.0,296.0,976.0,1.0,1,978.0,1
188,188,0.26935938205976606,0.3,1.0,1.0,261.0,784.0,1.0,1,255.0,1
189,189,0.558635903963249,0.6,0.0,0.0,321.0,886.0,0.0,1,93.0,1
190,190,-0.10663617691886007,-0.1,0.0,1.0,342.0,775.0,1.0,0,263.0,1
191,191,-0.5952151102602966,-0.6,0.0,1.0,451.0,706.0,1.0,0,173.0,1
192,192,-0.3558275426734395,-0.4,0.0,1.0,335.0,920.0,1.0,0,65.0,1
193,193,-0.7960462489449124,-0.8,0.0,1.0,420.0,906.0,1.0,0,74.0,1
194,194,0.22698019302336558,0.2,0.0,0.0,383.0,580.0,0.0,1,347.0,1
195,195,0.24068109907997226,0.2,0.0,0.0,393.0,946.0,0.0,1,221.0,1
196,196,-0.4435012741378514,-0.4,1.0,0.0,393.0,990.0,0.0,0,97.0,1
197,197,-0.48786979847781814,-0.5,0.0,1.0,262.0,900.0,1.0,0,158.0,1
198,198,0.14716209143135128,0.1,1.0,1.0,485.0,620.0,1.0,1,425.0,1
199,199,-0.1021807363814935,-0.1,1.0,0.0,471.0,773.0,0.0,0,246.0,1
200,200,0.8450425925838622,0.8,1.0,1.0,250.0,659.0,1.0,1,211.0,1
201,201,-0.07043052365563518,-0.1,0.0,1.0,323.0,596.0,1.0,0,561.0,1
202,202,-0.8937563015776337,-0.9,0.0,1.0,491.0,913.0,1.0,0,56.0,1
203,203,-0.5155635055333758,-0.5,0.0,1.0,382.0,729.0,1.0,0,99.0,1
204,204,0.6959500870383796,0.7,0.0,0.0,422.0,681.0,0.0,1,97.0,1
205,205,0.7155159759802058,0.7,0.0,0.0,430.0,508.0,0.0,1,102.0,1
206,206,0.4186665710079568,0.4,0.0,0.0,483.0,956.0,0.0,1,171.0,1
207,207,0.0361796788403933,0.0,0.0,0.0,312.0,585.0,0.0,1,1503.0,1
208,208,0.40610541972417014,0.4,0.0,0.0,261.0,802.0,0.0,1,197.0,1
209,209,0.04588556474842609,0.0,1.0,1.0,296.0,632.0,1.0,1,4072.0,1
210,210,-0.21692139205781347,-0.2,0.0,1.0,356.0,964.0,1.0,0,230.0,1
211,211,-0.6990896900547923,-0.7,1.0,0.0,434.0,640.0,0.0,0,136.0,1
212,212,-0.8894301854099821,-0.9,1.0,0.0,451.0,514.0,0.0,0,115.0,1
213,213,-0.1308803115808468,-0.1,1.0,0.0,380.0,742.0,0.0,0,248.0,1
214,214,-0.6252422763320082,-0.6,1.0,0.0,414.0,637.0,0.0,0,189.0,1
215,215,-0.8572867210896488,-0.9,0.0,1.0,480.0,822.0,1.0,0,108.0,1
216,216,0.0603289281810927,0.1,0.0,0.0,490.0,759.0,0.0,1,621.0,1
217,217,0.09129100080067531,0.1,1.0,1.0,490.0,562.0,1.0,1,468.0,1
218,218,-0.8477053552895905,-0.8,1.0,0.0,258.0,508.0,0.0,0,104.0,1
219,219,-0.7738018117179675,-0.8,1.0,0.0,261.0,575.0,0.0,0,154.0,1
220,220,0.43589834834804775,0.4,1.0,1.0,495.0,809.0,1.0,1,166.0,1
221,221,0.097511826047473,0.1,1.0,1.0,450.0,585.0,1.0,1,595.0,1
222,222,0.6144043191535596,0.6,0.0,0.0,457.0,661.0,0.0,1,152.0,1
223,223,0.7163111046475304,0.7,1.0,1.0,427.0,510.0,1.0,1,233.0,1
224,224,0.12633914849834993,0.1,0.0,0.0,312.0,763.0,0.0,1,395.0,1
225,225,-0.5681168357759171,-0.6,0.0,1.0,396.0,838.0,1.0,0,96.0,1
226,226,0.5072209897342145,0.5,1.0,1.0,386.0,953.0,1.0,1,121.0,1
227,227,0.30810403680722465,0.3,0.0,0.0,290.0,697.0,0.0,1,263.0,1
228,228,-0.49458152810038514,-0.5,1.0,0.0,298.0,617.0,0.0,0,145.0,1
229,229,-0.5054851548615074,-0.5,1.0,0.0,308.0,556.0,0.0,0,206.0,1
230,230,-0.8016075392322236,-0.8,0.0,1.0,483.0,853.0,1.0,0,44.0,1
231,231,0.3197323948124765,0.3,1.0,1.0,350.0,697.0,1.0,1,143.0,1
232,232,-0.46896917298139057,-0.5,1.0,0.0,275.0,796.0,0.0,0,109.0,1
233,233,-0.22988016892797958,-0.2,1.0,0.0,322.0,842.0,0.0,0,236.0,1
234,234,0.6616037388938384,0.7,0.0,0.0,404.0,765.0,0.0,1,131.0,1
235,235,-0.867195405740697,-0.9,0.0,1.0,363.0,566.0,1.0,0,191.0,1
236,236,0.7393926946995789,0.7,1.0,1.0,339.0,741.0,1.0,1,110.0,1
237,237,0.13011323533390018,0.1,0.0,0.0,394.0,565.0,0.0,1,501.0,1
238,238,0.6864599402216515,0.7,0.0,0.0,489.0,550.0,0.0,1,181.0,1
239,239,-0.08387999896867837,-0.1,0.0,1.0,410.0,808.0,1.0,0,302.0,1
240,240,-0.8296652439830057,-0.8,1.0,0.0,482.0,927.0,0.0,0,91.0,1
241,241,0.8166742750535575,0.8,1.0,1.0,455.0,989.0,1.0,1,56.0,1
242,242,0.011848727284436311,0.0,0.0,0.0,401.0,993.0,1.0,0,3606.0,0
243,243,0.4755337556919069,0.5,0.0,0.0,448.0,798.0,0.0,1,134.0,1
244,244,-0.5378076650099246,-0.5,1.0,0.0,455.0,758.0,0.0,0,157.0,1
245,245,-0.626212631203499,-0.6,0.0,1.0,471.0,775.0,1.0,0,114.0,1
246,246,0.6870387176612484,0.7,1.0,1.0,292.0,670.0,1.0,1,108.0,1
247,247,0.298749477933303,0.3,1.0,1.0,432.0,850.0,1.0,1,108.0,1
248,248,0.27557264492531164,0.3,0.0,0.0,370.0,658.0,0.0,1,212.0,1
249,249,-0.2833794960501024,-0.3,0.0,1.0,427.0,553.0,1.0,0,330.0,1
250,250,0.7909980950262815,0.8,1.0,1.0,309.0,569.0,1.0,1,102.0,1
251,251,-0.22124729566933643,-0.2,1.0,0.0,328.0,716.0,0.0,0,296.0,1
252,252,0.07251703557117084,0.1,0.0,0.0,321.0,720.0,0.0,1,659.0,1
253,253,0.12520271353767665,0.1,0.0,0.0,313.0,776.0,0.0,1,221.0,1
254,254,-0.3738265208551995,-0.4,1.0,0.0,391.0,560.0,0.0,0,199.0,1
255,255,0.09951874642996716,0.1,1.0,1.0,303.0,560.0,1.0,1,867.0,1
256,256,-0.026675759093967133,-0.0,1.0,0.0,343.0,507.0,0.0,0,1520.0,1
257,257,0.7878625616324032,0.8,1.0,1.0,317.0,795.0,1.0,1,88.0,1
258,258,-0.05306993865978804,-0.1,0.0,1.0,488.0,932.0,1.0,0,250.0,1
259,259,-0.4317814594184912,-0.4,1.0,0.0,262.0,729.0,0.0,0,199.0,1
260,260,0.10921076119650686,0.1,0.0,0.0,255.0,828.0,0.0,1,427.0,1
261,261,0.5327060544802517,0.5,1.0,1.0,251.0,522.0,1.0,1,197.0,1
262,262,0.6375901755553207,0.6,0.0,0.0,276.0,675.0,0.0,1,169.0,1
263,263,-0.08433537802192692,-0.1,1.0,0.0,275.0,802.0,0.0,0,583.0,1
264,264,-0.8774816271537299,-0.9,1.0,0.0,401.0,804.0,0.0,0,65.0,1
265,265,0.40579481441583287,0.4,0.0,0.0,413.0,757.0,0.0,1,380.0,1
266,266,0.5682132131328558,0.6,0.0,0.0,338.0,613.0,0.0,1,209.0,1
267,267,0.6979508789073846,0.7,1.0,1.0,433.0,912.0,1.0,1,115.0,1
268,268,-0.81730037393419,-0.8,0.0,1.0,463.0,500.0,1.0,0,137.0,1
269,269,-0.3492340474539385,-0.3,0.0,1.0,268.0,951.0,1.0,0,161.0,1
270,270,-0.11366785295406967,-0.1,0.0,1.0,498.0,906.0,1.0,0,396.0,1
271,271,-0.23245953534913533,-0.2,0.0,1.0,353.0,561.0,1.0,0,306.0,1
272,272,-0.8490562601557002,-0.8,0.0,1.0,425.0,814.0,1.0,0,91.0,1
273,273,0.6921127520345228,0.7,0.0,0.0,340.0,937.0,0.0,1,63.0,1
274,274,0.11072270174004462,0.1,0.0,0.0,384.0,805.0,0.0,1,461.0,1
275,275,-0.3035667581962763,-0.3,1.0,0.0,426.0,877.0,0.0,0,137.0,1
276,276,-0.7938001883653348,-0.8,1.0,0.0,267.0,608.0,0.0,0,145.0,1
277,277,-0.41379361426919775,-0.4,0.0,1.0,331.0,508.0,1.0,0,171.0,1
278,278,0.43771724261261136,0.4,0.0,0.0,431.0,961.0,0.0,1,168.0,1
279,279,-0.7904108637780464,-0.8,0.0,1.0,282.0,911.0,1.0,0,137.0,1
280,280,-0.08006086562963488,-0.1,1.0,0.0,316.0,774.0,0.0,0,410.0,1
281,281,0.3799460700310132,0.4,0.0,0.0,404.0,669.0,0.0,1,267.0,1
282,282,-0.3919410936262623,-0.4,1.0,0.0,430.0,703.0,0.0,0,197.0,1
283,283,-0.6780096519004799,-0.7,0.0,1.0,368.0,758.0,1.0,0,144.0,1
284,284,0.28305194465169314,0.3,0.0,0.0,323.0,708.0,0.0,1,339.0,1
285,285,0.3125994722028077,0.3,1.0,1.0,469.0,987.0,1.0,1,174.0,1
286,286,0.14816052943504265,0.1,1.0,1.0,479.0,748.0,1.0,1,233.0,1
287,287,0.05097697716266658,0.1,0.0,0.0,366.0,720.0,0.0,1,1674.0,1
288,288,0.03899322419954676,0.0,0.0,0.0,476.0,716.0,0.0,1,708.0,1
289,289,-0.7954710276823069,-0.8,0.0,1.0,373.0,846.0,1.0,0,81.0,1
290,290,-0.2050499297285877,-0.2,0.0,1.0,384.0,563.0,1.0,0,283.0,1
291,291,0.3074956566775092,0.3,0.0,0.0,275.0,611.0,0.0,1,454.0,1
292,292,0.7610392852918973,0.8,1.0,1.0,433.0,531.0,1.0,1,146.0,1
293,293,0.5336254323805639,0.5,1.0,1.0,323.0,500.0,1.0,1,4177.0,1
294,294,-0.8548037165126185,-0.9,1.0,0.0,328.0,828.0,0.0,0,74.0,1
295,295,-0.24602248031174723,-0.2,0.0,1.0,267.0,980.0,1.0,0,203.0,1
296,296,0.8741205441243706,0.9,1.0,1.0,369.0,973.0,1.0,1,58.0,1
297,297,-0.030823594106050622,-0.0,0.0,1.0,485.0,889.0,0.0,1,446.0,0
298,298,-0.1753297837879948,-0.2,1.0,0.0,494.0,708.0,0.0,0,458.0,1
299,299,-0.018721963839495315,-0.0,1.0,0.0,336.0,740.0,0.0,0,1184.0,1
300,300,0.3552728617774158,0.4,0.0,0.0,374.0,878.0,0.0,1,148.0,1
301,301,0.7378543719523948,0.7,0.0,0.0,316.0,947.0,0.0,1,87.0,1
302,302,-0.8425144167526022,-0.8,0.0,1.0,279.0,611.0,1.0,0,60.0,1
303,303,0.45694739767620784,0.5,1.0,1.0,365.0,746.0,1.0,1,279.0,1
304,304,-0.5983735700005873,-0.6,0.0,1.0,482.0,751.0,1.0,0,137.0,1
305,305,-0.6331935642480591,-0.6,0.0,1.0,420.0,617.0,1.0,0,123.0,1
306,306,-0.7029507962690363,-0.7,0.0,1.0,467.0,893.0,1.0,0,90.0,1
307,307,0.39860773307536734,0.4,0.0,0.0,446.0,682.0,0.0,1,202.0,1
308,308,0.4713928462482798,0.5,1.0,1.0,499.0,839.0,1.0,1,302.0,1
309,309,-0.6261065182926042,-0.6,0.0,1.0,329.0,949.0,1.0,0,102.0,1
310,310,0.002257430945064809,0.0,1.0,1.0,449.0,983.0,0.0,0,2888.0,0
311,311,0.11426408853714853,0.1,0.0,0.0,365.0,805.0,0.0,1,270.0,1
312,312,0.6826358985105624,0.7,0.0,0.0,296.0,601.0,0.0,1,123.0,1
313,313,0.09202051777654496,0.1,1.0,1.0,388.0,675.0,1.0,1,2857.0,1
314,314,-0.5084559319846481,-0.5,1.0,0.0,382.0,721.0,0.0,0,137.0,1
315,315,-0.5583316077995715,-0.6,1.0,0.0,450.0,793.0,0.0,0,117.0,1
316,316,0.4187435993836198,0.4,1.0,1.0,377.0,648.0,1.0,1,195.0,1
317,317,-0.5447801469670579,-0.5,0.0,1.0,266.0,746.0,1.0,0,158.0,1
318,318,-0.14978290376842118,-0.1,0.0,1.0,270.0,748.0,1.0,0,442.0,1
319,319,0.4569271451792426,0.5,1.0,1.0,293.0,844.0,1.0,1,143.0,1
320,320,0.6046073855981727,0.6,0.0,0.0,314.0,680.0,0.0,1,146.0,1
321,321,-0.3416478397448537,-0.3,1.0,0.0,345.0,912.0,0.0,0,113.0,1
322,322,-0.4872780411836361,-0.5,0.0,1.0,257.0,740.0,1.0,0,153.0,1
323,323,-0.0541910151668783,-0.1,0.0,1.0,428.0,534.0,1.0,0,478.0,1
324,324,-0.8195762332293481,-0.8,1.0,0.0,374.0,828.0,0.0,0,148.0,1
325,325,-0.6975612750963153,-0.7,0.0,1.0,480.0,597.0,1.0,0,113.0,1
326,326,0.6151523750308473,0.6,1.0,1.0,256.0,549.0,1.0,1,195.0,1
327,327,-0.19755941055844395,-0.2,0.0,1.0,428.0,867.0,1.0,0,185.0,1
328,328,0.7622738508001513,0.8,1.0,1.0,369.0,918.0,1.0,1,123.0,1
329,329,0.7613864419694106,0.8,1.0,1.0,274.0,618.0,1.0,1,118.0,1
330,330,0.044971714473467816,0.0,0.0,0.0,380.0,512.0,0.0,1,1708.0,1
331,331,-0.06558588847509605,-0.1,1.0,0.0,392.0,601.0,0.0,0,1287.0,1
332,332,0.09488176998214615,0.1,0.0,0.0,341.0,864.0,0.0,1,455.0,1
333,333,-0.5617711454890401,-0.6,1.0,0.0,355.0,916.0,0.0,0,89.0,1
334,334,-0.5744878777927733,-0.6,1.0,0.0,388.0,772.0,0.0,0,140.0,1
335,335,-0.6958297002986752,-0.7,1.0,0.0,304.0,704.0,0.0,0,142.0,1
336,336,-0.7338768916123858,-0.7,1.0,0.0,376.0,814.0,0.0,0,120.0,1
337,337,0.13414320730433615,0.1,1.0,1.0,274.0,511.0,1.0,1,645.0,1
338,338,-0.5295945221926963,-0.5,1.0,0.0,472.0,547.0,0.0,0,161.0,1
339,339,-0.3768087598081833,-0.4,1.0,0.0,434.0,608.0,0.0,0,168.0,1
340,340,-0.87504636814907,-0.9,0.0,1.0,381.0,555.0,1.0,0,114.0,1
341,341,-0.11781893594470116,-0.1,1.0,0.0,465.0,900.0,0.0,0,205.0,1
342,342,0.02482985650356928,0.0,1.0,1.0,266.0,781.0,0.0,0,3953.0,0
343,343,-0.48604640119563286,-0.5,1.0,0.0,333.0,666.0,0.0,0,151.0,1
344,344,-0.3207017636496008,-0.3,1.0,0.0,279.0,818.0,0.0,0,163.0,1
345,345,-0.0027179412579128037,-0.0,0.0,1.0,463.0,667.0,0.0,1,3210.0,0
346,346,-0.012567670091271022,-0.0,0.0,1.0,421.0,587.0,0.0,1,3992.0,0
347,347,0.8993396411126892,0.9,1.0,1.0,281.0,575.0,1.0,1,124.0,1
348,348,0.6210002597855288,0.6,1.0,1.0,270.0,931.0,1.0,1,49.0,1
349,349,-0.7987834733209862,-0.8,1.0,0.0,395.0,994.0,0.0,0,81.0,1
350,350,-0.18425367334180054,-0.2,0.0,1.0,365.0,941.0,1.0,0,274.0,1
351,351,0.11754671276729878,0.1,0.0,0.0,287.0,738.0,0.0,1,445.0,1
352,352,0.43168822161349574,0.4,0.0,0.0,466.0,548.0,0.0,1,286.0,1
353,353,-0.8157899524492144,-0.8,1.0,0.0,437.0,651.0,0.0,0,92.0,1
354,354,0.2924338969193673,0.3,1.0,1.0,335.0,590.0,1.0,1,275.0,1
355,355,-0.869030706905059,-0.9,0.0,1.0,466.0,777.0,1.0,0,77.0,1
356,356,0.4312241030209235,0.4,0.0,0.0,370.0,807.0,0.0,1,193.0,1
357,357,-0.5541561674577593,-0.6,1.0,0.0,444.0,977.0,0.0,0,99.0,1
358,358,0.32557913866055677,0.3,1.0,1.0,348.0,729.0,1.0,1,123.0,1
359,359,0.6216291798938917,0.6,1.0,1.0,318.0,840.0,1.0,1,102.0,1
360,360,0.6682380329868426,0.7,0.0,0.0,314.0,738.0,0.0,1,148.0,1
361,361,0.8769890581651657,0.9,0.0,0.0,362.0,735.0,0.0,1,113.0,1
362,362,0.32269732082983127,0.3,0.0,0.0,443.0,559.0,0.0,1,198.0,1
363,363,0.4371779560641059,0.4,1.0,1.0,370.0,823.0,1.0,1,127.0,1
364,364,0.8015649872358054,0.8,1.0,1.0,300.0,595.0,1.0,1,145.0,1
365,365,0.38434181462760264,0.4,1.0,1.0,383.0,954.0,1.0,1,103.0,1
366,366,-0.17439297557823663,-0.2,1.0,0.0,340.0,889.0,0.0,0,271.0,1
367,367,-0.8917599268681224,-0.9,1.0,0.0,318.0,510.0,0.0,0,102.0,1
368,368,-0.6959599218350639,-0.7,0.0,1.0,462.0,557.0,1.0,0,101.0,1
369,369,-0.3779500134362971,-0.4,0.0,1.0,340.0,712.0,1.0,0,158.0,1
370,370,0.599614685468686,0.6,0.0,0.0,455.0,943.0,0.0,1,102.0,1
371,371,-0.6416284453067973,-0.6,0.0,1.0,305.0,894.0,1.0,0,81.0,1
372,372,0.464358991337131,0.5,1.0,1.0,437.0,990.0,1.0,1,63.0,1
373,373,-0.6323248727529174,-0.6,0.0,1.0,397.0,714.0,1.0,0,109.0,1
374,374,-0.062311928102124714,-0.1,0.0,1.0,337.0,914.0,1.0,0,919.0,1
375,375,0.1333479038482105,0.1,0.0,0.0,449.0,747.0,0.0,1,384.0,1
376,376,-0.02983422129120461,-0.0,1.0,0.0,457.0,582.0,0.0,0,731.0,1
377,377,-0.6976707313728587,-0.7,0.0,1.0,409.0,655.0,1.0,0,146.0,1
378,378,0.58062141535404,0.6,0.0,0.0,274.0,788.0,0.0,1,138.0,1
379,379,0.2599211219226184,0.3,0.0,0.0,398.0,518.0,0.0,1,234.0,1
380,380,-0.8792884148876029,-0.9,1.0,0.0,457.0,596.0,0.0,0,107.0,1
381,381,-0.3486036082627316,-0.3,1.0,0.0,274.0,984.0,0.0,0,102.0,1
382,382,-0.1981470673878336,-0.2,1.0,0.0,354.0,685.0,0.0,0,271.0,1
383,383,0.6167399493521718,0.6,0.0,0.0,256.0,950.0,0.0,1,54.0,1
384,384,0.7732998560080614,0.8,1.0,1.0,381.0,730.0,1.0,1,79.0,1
385,385,-0.08945654278505644,-0.1,0.0,1.0,476.0,542.0,1.0,0,512.0,1
386,386,0.8068296530082147,0.8,0.0,0.0,352.0,625.0,0.0,1,103.0,1
387,387,0.6039147677927318,0.6,1.0,1.0,328.0,723.0,1.0,1,149.0,1
388,388,0.4843301906191587,0.5,1.0,1.0,325.0,508.0,1.0,1,237.0,1
389,389,0.32674975001443884,0.3,0.0,0.0,437.0,615.0,0.0,1,228.0,1
390,390,-0.22396941635684642,-0.2,1.0,0.0,251.0,676.0,0.0,0,313.0,1
391,391,-0.5321888196965332,-0.5,0.0,1.0,363.0,717.0,1.0,0,70.0,1
392,392,-0.020544041949658642,-0.0,0.0,1.0,489.0,603.0,1.0,0,1468.0,1
393,393,0.24055320252234458,0.2,1.0,1.0,264.0,991.0,1.0,1,125.0,1
394,394,-0.49218852722106404,-0.5,1.0,0.0,439.0,873.0,0.0,0,118.0,1
395,395,-0.14683038968254214,-0.1,1.0,0.0,310.0,673.0,0.0,0,707.0,1
396,396,-0.8390942545433661,-0.8,1.0,0.0,351.0,706.0,0.0,0,113.0,1
397,397,0.11860246971967359,0.1,0.0,0.0,443.0,700.0,0.0,1,327.0,1
398,398,-0.27157583912019434,-0.3,0.0,1.0,325.0,601.0,1.0,0,274.0,1
399,399,0.13606466284615937,0.1,0.0,0.0,392.0,609.0,0.0,1,469.0,1
400,400,-0.17827330250681184,-0.2,0.0,1.0,256.0,718.0,1.0,0,306.0,1
401,401,-0.5453436483436385,-0.5,0.0,1.0,462.0,766.0,1.0,0,112.0,1
402,402,-0.6599244783027384,-0.7,0.0,1.0,422.0,679.0,1.0,0,119.0,1
403,403,0.3526495954324588,0.4,1.0,1.0,481.0,584.0,1.0,1,385.0,1
404,404,0.32715395773894096,0.3,1.0,1.0,291.0,962.0,1.0,1,187.0,1
405,405,-0.13700282512570539,-0.1,1.0,0.0,295.0,673.0,0.0,0,232.0,1
406,406,0.46800848076329726,0.5,0.0,0.0,324.0,637.0,0.0,1,389.0,1
407,407,-0.3839428595475143,-0.4,0.0,1.0,337.0,900.0,1.0,0,23.0,1
408,408,-0.43783397142662517,-0.4,0.0,1.0,268.0,718.0,1.0,0,134.0,1
409,409,-0.7585400380067397,-0.8,1.0,0.0,443.0,673.0,0.0,0,94.0,1
410,410,-0.6660258943661159,-0.7,0.0,1.0,313.0,776.0,1.0,0,131.0,1
411,411,0.5242062133184607,0.5,1.0,1.0,433.0,970.0,1.0,1,147.0,1
412,412,-0.07992588652555199,-0.1,1.0,0.0,467.0,662.0,0.0,0,731.0,1
413,413,0.15350130237480253,0.2,1.0,1.0,490.0,514.0,1.0,1,356.0,1
414,414,0.330933858764516,0.3,0.0,0.0,260.0,826.0,0.0,1,204.0,1
415,415,0.4950499477355096,0.5,1.0,1.0,425.0,824.0,1.0,1,131.0,1
416,416,0.39584981606338,0.4,0.0,0.0,370.0,727.0,0.0,1,213.0,1
417,417,-0.12714561240515598,-0.1,1.0,0.0,318.0,901.0,0.0,0,281.0,1
418,418,0.2021217565377994,0.2,0.0,0.0,377.0,507.0,0.0,1,446.0,1
419,419,0.7334206177122978,0.7,1.0,1.0,260.0,805.0,1.0,1,75.0,1
420,420,0.7972499021008587,0.8,1.0,1.0,402.0,570.0,1.0,1,138.0,1
421,421,0.6432984539769077,0.6,1.0,1.0,388.0,760.0,1.0,1,122.0,1
422,422,-0.06850888314335246,-0.1,1.0,0.0,396.0,922.0,0.0,0,212.0,1
423,423,0.26473073128452207,0.3,1.0,1.0,466.0,824.0,1.0,1,200.0,1
424,424,-0.17167257242858291,-0.2,1.0,0.0,400.0,630.0,0.0,0,610.0,1
425,425,0.6485538247312771,0.6,1.0,1.0,454.0,696.0,1.0,1,390.0,1
426,426,0.6609834482630547,0.7,0.0,0.0,269.0,842.0,0.0,1,99.0,1
427,427,0.04950513703201087,0.0,1.0,1.0,369.0,749.0,1.0,1,592.0,1
428,428,-0.5842204514810685,-0.6,0.0,1.0,268.0,733.0,1.0,0,149.0,1
429,429,-0.08394796391337611,-0.1,1.0,0.0,366.0,630.0,0.0,0,864.0,1
430,430,0.5968261423406162,0.6,1.0,1.0,349.0,563.0,1.0,1,188.0,1
431,431,-0.08474615799538543,-0.1,1.0,0.0,377.0,532.0,0.0,0,461.0,1
432,432,-0.8906585542663048,-0.9,1.0,0.0,362.0,933.0,0.0,0,115.0,1
433,433,-0.8394281856065918,-0.8,1.0,0.0,300.0,581.0,0.0,0,169.0,1
434,434,-0.28009362410509897,-0.3,0.0,1.0,269.0,830.0,1.0,0,111.0,1
435,435,0.6893688990329249,0.7,0.0,0.0,304.0,990.0,0.0,1,126.0,1
436,436,-0.7812053288355034,-0.8,1.0,0.0,429.0,575.0,0.0,0,166.0,1
437,437,-0.4997269551429448,-0.5,1.0,0.0,430.0,572.0,0.0,0,158.0,1
438,438,0.8273849265012688,0.8,0.0,0.0,482.0,816.0,0.0,1,112.0,1
439,439,0.5670406227427333,0.6,1.0,1.0,315.0,680.0,1.0,1,85.0,1
440,440,-0.1961309326271552,-0.2,1.0,0.0,403.0,888.0,0.0,0,199.0,1
441,441,0.7265237624692705,0.7,1.0,1.0,294.0,662.0,1.0,1,184.0,1
442,442,-0.4608646578448153,-0.5,1.0,0.0,320.0,545.0,0.0,0,235.0,1
443,443,0.48905846839314726,0.5,1.0,1.0,423.0,712.0,1.0,1,195.0,1
444,444,-0.8109956793623978,-0.8,0.0,1.0,473.0,754.0,1.0,0,83.0,1
445,445,-0.37813144649633534,-0.4,0.0,1.0,461.0,829.0,1.0,0,120.0,1
446,446,-0.42827693454536425,-0.4,1.0,0.0,326.0,957.0,0.0,0,17.0,1
447,447,-0.8605543674557292,-0.9,1.0,0.0,385.0,836.0,0.0,0,99.0,1
448,448,-0.8209907273107724,-0.8,1.0,0.0,364.0,635.0,0.0,0,111.0,1
449,449,0.5389549600165652,0.5,1.0,1.0,451.0,986.0,1.0,1,153.0,1
450,450,-0.8238622169935881,-0.8,0.0,1.0,367.0,993.0,1.0,0,120.0,1
451,451,-0.008148045228020373,-0.0,1.0,0.0,421.0,902.0,1.0,1,137.0,0
452,452,0.4104905354052223,0.4,0.0,0.0,388.0,715.0,0.0,1,177.0,1
453,453,-0.014801134507559488,-0.0,0.0,1.0,455.0,704.0,0.0,1,1371.0,0
454,454,0.17898964742229329,0.2,0.0,0.0,363.0,694.0,0.0,1,343.0,1
455,455,0.8247007956750051,0.8,0.0,0.0,367.0,970.0,0.0,1,83.0,1
456,456,-0.8872101856839674,-0.9,1.0,0.0,463.0,910.0,0.0,0,87.0,1
457,457,0.3321887516245837,0.3,1.0,1.0,380.0,526.0,1.0,1,324.0,1
458,458,-0.765601814629449,-0.8,0.0,1.0,471.0,849.0,1.0,0,120.0,1
459,459,0.8536556556048537,0.9,1.0,1.0,489.0,798.0,1.0,1,93.0,1
460,460,0.5803596372375773,0.6,1.0,1.0,318.0,726.0,1.0,1,146.0,1
461,461,0.07279908349624298,0.1,1.0,1.0,427.0,769.0,1.0,1,574.0,1
462,462,0.6726118939262992,0.7,0.0,0.0,398.0,614.0,0.0,1,138.0,1
463,463,0.1541907264043859,0.2,1.0,1.0,281.0,899.0,1.0,1,380.0,1
464,464,-0.2738720549112128,-0.3,0.0,1.0,477.0,872.0,1.0,0,181.0,1
465,465,0.7312885272319324,0.7,1.0,1.0,399.0,639.0,1.0,1,132.0,1
466,466,-0.2006998903234326,-0.2,1.0,0.0,428.0,651.0,0.0,0,311.0,1
467,467,0.34762615219924553,0.3,0.0,0.0,324.0,623.0,0.0,1,283.0,1
468,468,-0.4756730480201438,-0.5,1.0,0.0,418.0,975.0,0.0,0,97.0,1
469,469,-0.0018745849482163512,-0.0,0.0,1.0,436.0,694.0,1.0,0,3870.0,1
470,470,-0.747103879303143,-0.7,0.0,1.0,395.0,690.0,1.0,0,115.0,1
471,471,-0.6271911128807217,-0.6,1.0,0.0,332.0,612.0,0.0,0,146.0,1
472,472,-0.8511734577211078,-0.9,0.0,1.0,326.0,763.0,1.0,0,81.0,1
473,473,0.32022658231803625,0.3,0.0,0.0,356.0,799.0,0.0,1,205.0,1
474,474,0.21497669290057153,0.2,0.0,0.0,349.0,659.0,0.0,1,312.0,1
475,475,0.798456581709622,0.8,1.0,1.0,315.0,845.0,1.0,1,80.0,1
476,476,0.29410860430973995,0.3,1.0,1.0,437.0,641.0,1.0,1,432.0,1
477,477,-0.5379852073818365,-0.5,0.0,1.0,329.0,519.0,1.0,0,372.0,1
478,478,0.5675129969721043,0.6,1.0,1.0,476.0,826.0,1.0,1,198.0,1
479,479,0.5695470882724473,0.6,1.0,1.0,325.0,614.0,1.0,1,161.0,1
480,480,-0.10999598218109763,-0.1,1.0,0.0,390.0,566.0,0.0,0,594.0,1
481,481,0.12664860279443702,0.1,0.0,0.0,404.0,725.0,0.0,1,371.0,1
482,482,0.32734348087798837,0.3,0.0,0.0,434.0,711.0,0.0,1,305.0,1
483,483,-0.8440742795247774,-0.8,0.0,1.0,331.0,784.0,1.0,0,85.0,1
484,484,0.8818611791936007,0.9,1.0,1.0,415.0,925.0,1.0,1,70.0,1
485,485,0.7761669963310321,0.8,1.0,1.0,363.0,590.0,1.0,1,147.0,1
486,486,0.2938452124333627,0.3,0.0,0.0,358.0,855.0,0.0,1,227.0,1
487,487,0.17741265939181405,0.2,1.0,1.0,434.0,587.0,1.0,1,469.0,1
488,488,-0.4538006631631497,-0.5,0.0,1.0,304.0,843.0,1.0,0,103.0,1
489,489,-0.8160034812370829,-0.8,1.0,0.0,436.0,640.0,0.0,0,84.0,1
490,490,0.0010970823468119395,0.0,1.0,1.0,402.0,784.0,0.0,0,3814.0,0
491,491,-0.5944566579893326,-0.6,0.0,1.0,460.0,754.0,1.0,0,106.0,1
492,492,-0.6703103441650375,-0.7,0.0,1.0,479.0,835.0,1.0,0,86.0,1
493,493,0.12016169913791053,0.1,1.0,1.0,398.0,913.0,1.0,1,289.0,1
494,494,0.8617755176660479,0.9,0.0,0.0,313.0,597.0,0.0,1,130.0,1
495,495,0.43705268475993686,0.4,1.0,1.0,430.0,643.0,1.0,1,197.0,1
496,496,0.7080035363344633,0.7,1.0,1.0,438.0,639.0,1.0,1,133.0,1
497,497,0.12604807034032361,0.1,1.0,1.0,268.0,809.0,1.0,1,253.0,1
498,498,-0.5025900367564091,-0.5,0.0,1.0,473.0,955.0,1.0,0,152.0,1
499,499,-0.05100759805979316,-0.1,0.0,1.0,499.0,540.0,1.0,0,671.0,1
500,500,-0.26294276842937014,-0.3,0.0,1.0,448.0,730.0,1.0,0,152.0,1
501,501,0.7038950400808518,0.7,0.0,0.0,342.0,763.0,0.0,1,205.0,1
502,502,-0.2732310858581438,-0.3,0.0,1.0,445.0,666.0,1.0,0,229.0,1
503,503,-0.02480985592960827,-0.0,1.0,0.0,258.0,896.0,0.0,0,716.0,1
504,504,-0.15735535688019886,-0.2,1.0,0.0,465.0,516.0,0.0,0,459.0,1
505,505,0.5175015478428765,0.5,1.0,1.0,399.0,545.0,1.0,1,176.0,1
506,506,-0.8191326642196117,-0.8,1.0,0.0,372.0,996.0,0.0,0,62.0,1
507,507,0.2596157051834923,0.3,1.0,1.0,267.0,705.0,1.0,1,328.0,1
508,508,0.3988287322883791,0.4,0.0,0.0,390.0,977.0,0.0,1,393.0,1
509,509,0.4019811343172769,0.4,0.0,0.0,368.0,858.0,0.0,1,124.0,1
510,510,-0.5701876630146276,-0.6,1.0,0.0,420.0,521.0,0.0,0,299.0,1
511,511,-0.6500631552360755,-0.7,0.0,1.0,450.0,780.0,1.0,0,120.0,1
512,512,0.543088424218228,0.5,0.0,0.0,429.0,879.0,0.0,1,272.0,1
513,513,-0.19681720965918603,-0.2,0.0,1.0,423.0,948.0,1.0,0,219.0,1
514,514,0.606717303374361,0.6,0.0,0.0,325.0,892.0,0.0,1,153.0,1
515,515,0.8187402625233046,0.8,1.0,1.0,329.0,930.0,1.0,1,61.0,1
516,516,-0.8173095765444268,-0.8,0.0,1.0,464.0,676.0,1.0,0,230.0,1
517,517,-0.43704507456612857,-0.4,0.0,1.0,482.0,536.0,1.0,0,102.0,1
518,518,-0.4868414781818147,-0.5,0.0,1.0,458.0,613.0,1.0,0,119.0,1
519,519,-0.2256240627349565,-0.2,1.0,0.0,450.0,700.0,0.0,0,190.0,1
520,520,0.4425071697310178,0.4,0.0,0.0,270.0,542.0,0.0,1,228.0,1
521,521,-0.5209862983021911,-0.5,0.0,1.0,351.0,641.0,1.0,0,138.0,1
522,522,-0.8033924742911528,-0.8,1.0,0.0,478.0,645.0,0.0,0,207.0,1
523,523,-0.6227566451142268,-0.6,0.0,1.0,427.0,891.0,1.0,0,102.0,1
524,524,-0.36009018331890674,-0.4,1.0,0.0,396.0,850.0,0.0,0,134.0,1
525,525,0.1894819881248987,0.2,0.0,0.0,282.0,658.0,0.0,1,330.0,1
526,526,-0.8710576290421717,-0.9,0.0,1.0,272.0,779.0,1.0,0,99.0,1
527,527,0.7130183386723626,0.7,0.0,0.0,370.0,572.0,0.0,1,128.0,1
528,528,-0.205946988320438,-0.2,1.0,0.0,340.0,919.0,0.0,0,131.0,1
529,529,0.48625550924070204,0.5,1.0,1.0,445.0,964.0,1.0,1,91.0,1
530,530,0.24819812668063357,0.2,0.0,0.0,356.0,742.0,0.0,1,222.0,1
531,531,-0.03436118833363455,-0.0,0.0,1.0,355.0,853.0,1.0,0,572.0,1
532,532,0.442581321310333,0.4,1.0,1.0,401.0,733.0,1.0,1,136.0,1
533,533,0.5084034239895429,0.5,1.0,1.0,349.0,661.0,1.0,1,140.0,1
534,534,-0.40921426856723125,-0.4,1.0,0.0,491.0,916.0,0.0,0,163.0,1
535,535,-0.8398983944740738,-0.8,1.0,0.0,379.0,958.0,0.0,0,93.0,1
536,536,-0.7980099484836499,-0.8,1.0,0.0,485.0,693.0,0.0,0,122.0,1
537,537,0.7716291956938998,0.8,1.0,1.0,472.0,504.0,1.0,1,144.0,1
538,538,0.6256906266971928,0.6,0.0,0.0,276.0,785.0,0.0,1,229.0,1
539,539,0.8242030783742255,0.8,0.0,0.0,404.0,922.0,0.0,1,134.0,1
540,540,-0.593233591542137,-0.6,0.0,1.0,442.0,756.0,1.0,0,172.0,1
541,541,0.54191218433892,0.5,0.0,0.0,441.0,639.0,0.0,1,220.0,1
542,542,-0.4181977843161897,-0.4,1.0,0.0,420.0,615.0,0.0,0,225.0,1
543,543,0.166407493547036,0.2,1.0,1.0,300.0,909.0,1.0,1,231.0,1
544,544,-0.049900804990904546,-0.0,0.0,1.0,454.0,559.0,1.0,0,1157.0,1
545,545,0.6788684098753958,0.7,1.0,1.0,300.0,944.0,1.0,1,106.0,1
546,546,-0.883990882293851,-0.9,0.0,1.0,287.0,949.0,1.0,0,124.0,1
547,547,-0.13287637719956236,-0.1,1.0,0.0,481.0,994.0,0.0,0,305.0,1
548,548,0.3093830753211807,0.3,1.0,1.0,379.0,551.0,1.0,1,290.0,1
549,549,-0.49842038047553855,-0.5,1.0,0.0,263.0,975.0,0.0,0,82.0,1
550,550,0.779964992164854,0.8,0.0,0.0,349.0,735.0,0.0,1,116.0,1
551,551,0.724005149525586,0.7,1.0,1.0,444.0,628.0,1.0,1,128.0,1
552,552,0.29548102644267804,0.3,0.0,0.0,300.0,586.0,0.0,1,254.0,1
553,553,0.2090961562943051,0.2,0.0,0.0,282.0,831.0,0.0,1,317.0,1
554,554,0.277911609805067,0.3,1.0,1.0,467.0,683.0,1.0,1,280.0,1
555,555,-0.7031363492443555,-0.7,0.0,1.0,385.0,622.0,1.0,0,153.0,1
556,556,-0.23328886251926173,-0.2,1.0,0.0,450.0,605.0,0.0,0,465.0,1
557,557,0.21212071555815315,0.2,0.0,0.0,424.0,518.0,0.0,1,358.0,1
558,558,-0.13537829217911468,-0.1,1.0,0.0,403.0,645.0,0.0,0,382.0,1
559,559,-0.8790890326879037,-0.9,0.0,1.0,402.0,630.0,1.0,0,118.0,1
560,560,0.8664171962175918,0.9,1.0,1.0,378.0,804.0,1.0,1,128.0,1
561,561,0.7728394928518502,0.8,1.0,1.0,422.0,773.0,1.0,1,95.0,1
562,562,0.5662755735780333,0.6,1.0,1.0,482.0,994.0,1.0,1,44.0,1
563,563,0.5752897354893051,0.6,0.0,0.0,474.0,613.0,0.0,1,223.0,1
564,564,0.008610326532038859,0.0,0.0,0.0,360.0,522.0,0.0,1,4118.0,1
565,565,0.741115259063425,0.7,1.0,1.0,323.0,999.0,1.0,1,78.0,1
566,566,0.012736011180640494,0.0,1.0,1.0,292.0,721.0,0.0,0,3987.0,0
567,567,0.17551684905666087,0.2,0.0,0.0,322.0,701.0,0.0,1,327.0,1
568,568,0.723283199307588,0.7,1.0,1.0,463.0,571.0,1.0,1,156.0,1
569,569,-0.8213537865534596,-0.8,0.0,1.0,430.0,682.0,1.0,0,68.0,1
570,570,-0.14307352224332703,-0.1,0.0,1.0,492.0,743.0,1.0,0,245.0,1
571,571,0.6128417585763727,0.6,1.0,1.0,446.0,724.0,1.0,1,100.0,1
572,572,-0.8038538315894443,-0.8,1.0,0.0,330.0,971.0,0.0,0,79.0,1
573,573,-0.6020710595829912,-0.6,1.0,0.0,360.0,592.0,0.0,0,168.0,1
574,574,0.8320280982518863,0.8,0.0,0.0,281.0,501.0,0.0,1,78.0,1
575,575,0.23553776034445206,0.2,1.0,1.0,403.0,541.0,1.0,1,496.0,1
576,576,-0.7109780724899606,-0.7,1.0,0.0,364.0,884.0,0.0,0,102.0,1
577,577,0.5360706745107154,0.5,0.0,0.0,406.0,733.0,0.0,1,151.0,1
578,578,0.30662103101739147,0.3,1.0,1.0,416.0,800.0,1.0,1,144.0,1
579,579,0.5776509313036923,0.6,1.0,1.0,317.0,737.0,1.0,1,146.0,1
580,580,-0.6402832927874704,-0.6,1.0,0.0,340.0,718.0,0.0,0,182.0,1
581,581,0.11007115520054922,0.1,1.0,1.0,296.0,623.0,1.0,1,431.0,1
582,582,-0.881248181159359,-0.9,1.0,0.0,429.0,732.0,0.0,0,69.0,1
583,583,-0.32502111187471605,-0.3,0.0,1.0,440.0,912.0,1.0,0,148.0,1
584,584,-0.2574846194810916,-0.3,1.0,0.0,321.0,630.0,0.0,0,259.0,1
585,585,-0.6025765906552358,-0.6,0.0,1.0,463.0,660.0,1.0,0,197.0,1
586,586,-0.8054779633531899,-0.8,0.0,1.0,403.0,733.0,1.0,0,104.0,1
587,587,-0.5342990766845093,-0.5,1.0,0.0,471.0,661.0,0.0,0,148.0,1
588,588,0.5731017723563644,0.6,0.0,0.0,486.0,592.0,0.0,1,122.0,1
589,589,0.37026480890530855,0.4,0.0,0.0,324.0,508.0,0.0,1,298.0,1
590,590,0.799426326264243,0.8,0.0,0.0,353.0,813.0,0.0,1,114.0,1
591,591,-0.669315923417728,-0.7,0.0,1.0,428.0,526.0,1.0,0,146.0,1
592,592,0.5203595535759836,0.5,1.0,1.0,323.0,575.0,1.0,1,222.0,1
593,593,-0.22423490468771667,-0.2,0.0,1.0,406.0,891.0,1.0,0,183.0,1
594,594,-0.05257223400847433,-0.1,0.0,1.0,489.0,656.0,1.0,0,615.0,1
595,595,0.14169349591892144,0.1,1.0,1.0,418.0,882.0,1.0,1,150.0,1
596,596,-0.00837400289848833,-0.0,1.0,0.0,251.0,831.0,0.0,0,328.0,1
597,597,0.26118743813822254,0.3,1.0,1.0,342.0,901.0,1.0,1,97.0,1
598,598,0.149623064206852,0.1,1.0,1.0,376.0,687.0,1.0,1,297.0,1
599,599,0.5177998619340417,0.5,1.0,1.0,473.0,874.0,1.0,1,73.0,1
600,600,-0.5993722739416356,-0.6,1.0,0.0,278.0,536.0,0.0,0,176.0,1
601,601,-0.2867846080574369,-0.3,1.0,0.0,269.0,580.0,0.0,0,341.0,1
602,602,-0.09597478487354616,-0.1,0.0,1.0,272.0,522.0,1.0,0,1066.0,1
603,603,-0.5515777859064952,-0.6,0.0,1.0,442.0,998.0,1.0,0,100.0,1
604,604,-0.8902932377148194,-0.9,0.0,1.0,331.0,729.0,1.0,0,110.0,1
605,605,-0.08119518030549211,-0.1,0.0,1.0,484.0,703.0,1.0,0,353.0,1
606,606,-0.17445866968852108,-0.2,1.0,0.0,264.0,988.0,0.0,0,158.0,1
607,607,-0.706708697129799,-0.7,1.0,0.0,497.0,852.0,0.0,0,141.0,1
608,608,-0.4976057051645347,-0.5,1.0,0.0,448.0,995.0,0.0,0,77.0,1
609,609,0.2765214101857322,0.3,0.0,0.0,311.0,714.0,0.0,1,235.0,1
610,610,0.7107892821355585,0.7,0.0,0.0,465.0,647.0,0.0,1,108.0,1
611,611,0.8188208853440738,0.8,0.0,0.0,279.0,995.0,0.0,1,106.0,1
612,612,0.6160406433331415,0.6,0.0,0.0,341.0,978.0,0.0,1,91.0,1
613,613,0.4784406302835619,0.5,0.0,0.0,437.0,547.0,0.0,1,276.0,1
614,614,-0.6343701848265543,-0.6,1.0,0.0,364.0,840.0,0.0,0,176.0,1
615,615,-0.8222342809252309,-0.8,1.0,0.0,454.0,714.0,0.0,0,102.0,1
616,616,-0.038792156491084584,-0.0,1.0,0.0,413.0,709.0,0.0,0,2538.0,1
617,617,0.5006397463404527,0.5,1.0,1.0,432.0,696.0,1.0,1,152.0,1
618,618,-0.7316581957776945,-0.7,1.0,0.0,385.0,946.0,0.0,0,89.0,1
619,619,0.7776798124814094,0.8,1.0,1.0,440.0,521.0,1.0,1,139.0,1
620,620,0.8295341246108624,0.8,1.0,1.0,274.0,634.0,1.0,1,72.0,1
621,621,0.24431636094863307,0.2,0.0,0.0,352.0,708.0,0.0,1,290.0,1
622,622,-0.1361175668727832,-0.1,0.0,1.0,256.0,977.0,1.0,0,267.0,1
623,623,0.5937450168627961,0.6,0.0,0.0,377.0,618.0,0.0,1,125.0,1
624,624,0.800470953999752,0.8,1.0,1.0,419.0,602.0,1.0,1,159.0,1
625,625,0.02626816608725835,0.0,0.0,0.0,439.0,613.0,0.0,1,1138.0,1
626,626,0.6859533656759035,0.7,0.0,0.0,347.0,860.0,0.0,1,73.0,1
627,627,-0.03707280731508744,-0.0,0.0,1.0,472.0,900.0,1.0,0,978.0,1
628,628,-0.6816355175800684,-0.7,0.0,1.0,482.0,746.0,1.0,0,92.0,1
629,629,0.22933595492315495,0.2,0.0,0.0,324.0,758.0,0.0,1,238.0,1
630,630,-0.7025931376444802,-0.7,1.0,0.0,303.0,803.0,0.0,0,104.0,1
631,631,0.2963663512166571,0.3,0.0,0.0,303.0,916.0,0.0,1,171.0,1
632,632,0.5025876041479701,0.5,0.0,0.0,251.0,693.0,0.0,1,146.0,1
633,633,0.35268698550472644,0.4,1.0,1.0,255.0,980.0,1.0,1,155.0,1
634,634,-0.019360842206276208,-0.0,0.0,1.0,353.0,817.0,1.0,0,3050.0,1
635,635,0.7206895312553271,0.7,0.0,0.0,383.0,761.0,0.0,1,156.0,1
636,636,0.7791198378536922,0.8,1.0,1.0,460.0,828.0,1.0,1,112.0,1
637,637,0.21014078685351,0.2,1.0,1.0,287.0,753.0,1.0,1,280.0,1
638,638,0.006447743809669282,0.0,1.0,1.0,468.0,821.0,0.0,0,3711.0,0
639,639,0.8342533992840354,0.8,1.0,1.0,407.0,963.0,1.0,1,80.0,1
640,640,-0.25160160609783133,-0.3,1.0,0.0,322.0,886.0,0.0,0,162.0,1
641,641,0.6906795833772522,0.7,1.0,1.0,459.0,785.0,1.0,1,86.0,1
642,642,0.22145867185466261,0.2,1.0,1.0,327.0,906.0,1.0,1,417.0,1
643,643,-0.055842674167893014,-0.1,0.0,1.0,343.0,937.0,1.0,0,890.0,1
644,644,0.6766580902590721,0.7,0.0,0.0,440.0,793.0,0.0,1,127.0,1
645,645,-0.3271792190992391,-0.3,0.0,1.0,408.0,861.0,1.0,0,101.0,1
646,646,-0.5204835433126631,-0.5,0.0,1.0,433.0,659.0,1.0,0,178.0,1
647,647,-0.04297572802851346,-0.0,0.0,1.0,360.0,614.0,1.0,0,546.0,1
648,648,0.5798244189679306,0.6,0.0,0.0,334.0,692.0,0.0,1,234.0,1
649,649,-0.5501039262989759,-0.6,1.0,0.0,377.0,817.0,0.0,0,166.0,1
650,650,-0.10668727530377387,-0.1,1.0,0.0,274.0,988.0,0.0,0,298.0,1
651,651,0.07617043310544536,0.1,1.0,1.0,250.0,540.0,1.0,1,960.0,1
652,652,-0.054480839647562895,-0.1,0.0,1.0,363.0,913.0,1.0,0,1864.0,1
653,653,-0.3179851491453791,-0.3,0.0,1.0,303.0,663.0,1.0,0,304.0,1
654,654,0.5626394010780235,0.6,0.0,0.0,316.0,933.0,0.0,1,131.0,1
655,655,0.07639610798477481,0.1,1.0,1.0,272.0,943.0,1.0,1,565.0,1
656,656,0.2806742222299,0.3,0.0,0.0,297.0,982.0,0.0,1,111.0,1
657,657,-0.13959361917434343,-0.1,0.0,1.0,472.0,999.0,1.0,0,219.0,1
658,658,0.1371229084553124,0.1,1.0,1.0,417.0,831.0,1.0,1,292.0,1
659,659,-0.757789976999688,-0.8,0.0,1.0,394.0,663.0,1.0,0,93.0,1
660,660,-0.028789255119018864,-0.0,0.0,1.0,270.0,653.0,1.0,0,4077.0,1
661,661,0.575342213933881,0.6,1.0,1.0,251.0,922.0,1.0,1,227.0,1
662,662,-0.29914474734465146,-0.3,0.0,1.0,311.0,553.0,1.0,0,266.0,1
663,663,-0.1789262410258412,-0.2,1.0,0.0,415.0,892.0,0.0,0,153.0,1
664,664,-0.6079645685826123,-0.6,1.0,0.0,401.0,703.0,0.0,0,236.0,1
665,665,0.40080281355327185,0.4,0.0,0.0,372.0,867.0,0.0,1,211.0,1
666,666,-0.4013353070577258,-0.4,0.0,1.0,255.0,618.0,1.0,0,217.0,1
667,667,-0.48639232969443674,-0.5,0.0,1.0,469.0,776.0,1.0,0,145.0,1
668,668,0.5127822342221723,0.5,0.0,0.0,330.0,739.0,0.0,1,181.0,1
669,669,-0.34410662325568075,-0.3,1.0,0.0,312.0,688.0,0.0,0,180.0,1
670,670,-0.8814317407440214,-0.9,1.0,0.0,422.0,973.0,0.0,0,65.0,1
671,671,-0.2608948145206462,-0.3,1.0,0.0,487.0,721.0,0.0,0,282.0,1
672,672,-0.09476320690538331,-0.1,1.0,0.0,288.0,853.0,0.0,0,239.0,1
673,673,0.40439198156873746,0.4,1.0,1.0,372.0,602.0,1.0,1,226.0,1
674,674,0.7848190736073092,0.8,0.0,0.0,303.0,881.0,0.0,1,66.0,1
675,675,-0.3955683503122134,-0.4,0.0,1.0,464.0,500.0,1.0,0,206.0,1
676,676,-0.32575367047961956,-0.3,0.0,1.0,406.0,573.0,1.0,0,181.0,1
677,677,-0.09423017328827699,-0.1,1.0,0.0,441.0,696.0,0.0,0,313.0,1
678,678,0.3340584737033713,0.3,1.0,1.0,431.0,818.0,1.0,1,101.0,1
679,679,0.2812492506640395,0.3,1.0,1.0,426.0,957.0,1.0,1,307.0,1
680,680,-0.35711121580664096,-0.4,1.0,0.0,251.0,757.0,0.0,0,202.0,1
681,681,-0.6710970754667575,-0.7,0.0,1.0,278.0,782.0,1.0,0,100.0,1
682,682,0.4516439014267305,0.5,0.0,0.0,461.0,591.0,0.0,1,198.0,1
683,683,0.14472842474702718,0.1,0.0,0.0,363.0,910.0,0.0,1,277.0,1
684,684,-0.26888818950580595,-0.3,0.0,1.0,376.0,818.0,1.0,0,136.0,1
685,685,0.23771783597412421,0.2,0.0,0.0,260.0,607.0,0.0,1,373.0,1
686,686,0.37627553857540164,0.4,0.0,0.0,322.0,949.0,0.0,1,149.0,1
687,687,-0.07442698704336526,-0.1,1.0,0.0,347.0,846.0,0.0,0,167.0,1
688,688,0.36916382340376697,0.4,1.0,1.0,312.0,883.0,1.0,1,125.0,1
689,689,-0.15736780338565914,-0.2,0.0,1.0,447.0,619.0,1.0,0,174.0,1
690,690,-0.7354925415315636,-0.7,0.0,1.0,373.0,613.0,1.0,0,144.0,1
691,691,0.7488495549527675,0.7,0.0,0.0,336.0,818.0,0.0,1,106.0,1
692,692,0.013388624960439133,0.0,1.0,1.0,268.0,765.0,0.0,0,2847.0,0
693,693,-0.7982311809956188,-0.8,0.0,1.0,492.0,720.0,1.0,0,88.0,1
694,694,-0.4581905965927741,-0.5,1.0,0.0,373.0,522.0,0.0,0,215.0,1
695,695,-0.6414567388381471,-0.6,0.0,1.0,335.0,687.0,1.0,0,128.0,1
696,696,-0.17099572539732155,-0.2,1.0,0.0,283.0,982.0,0.0,0,245.0,1
697,697,-0.3288780998532381,-0.3,1.0,0.0,383.0,965.0,0.0,0,122.0,1
698,698,0.6103469285737612,0.6,0.0,0.0,456.0,929.0,0.0,1,75.0,1
699,699,0.7833728060262114,0.8,0.0,0.0,330.0,657.0,0.0,1,103.0,1
700,700,0.7494804617143934,0.7,1.0,1.0,335.0,911.0,1.0,1,84.0,1
701,701,0.059937686926579414,0.1,0.0,0.0,303.0,953.0,0.0,1,284.0,1
702,702,0.7471664925460916,0.7,1.0,1.0,383.0,821.0,1.0,1,46.0,1
703,703,0.10374044864628817,0.1,1.0,1.0,313.0,504.0,1.0,1,563.0,1
704,704,0.2717962955956853,0.3,1.0,1.0,258.0,832.0,1.0,1,190.0,1
705,705,0.6115646390716566,0.6,0.0,0.0,463.0,851.0,0.0,1,146.0,1
706,706,-0.5162586907620521,-0.5,0.0,1.0,404.0,821.0,1.0,0,105.0,1
707,707,0.8726125499695508,0.9,0.0,0.0,416.0,964.0,0.0,1,150.0,1
708,708,0.5811317721128381,0.6,1.0,1.0,282.0,920.0,1.0,1,88.0,1
709,709,-0.158031902195505,-0.2,1.0,0.0,464.0,507.0,0.0,0,599.0,1
710,710,-0.7086555505657237,-0.7,1.0,0.0,257.0,946.0,0.0,0,77.0,1
711,711,-0.6199907132801031,-0.6,1.0,0.0,266.0,720.0,0.0,0,144.0,1
712,712,0.05764050233942919,0.1,1.0,1.0,293.0,998.0,1.0,1,1649.0,1
713,713,0.025109922935589557,0.0,1.0,1.0,431.0,970.0,1.0,1,1429.0,1
714,714,0.7658855661287874,0.8,0.0,0.0,254.0,558.0,0.0,1,118.0,1
715,715,0.03226110374102231,0.0,0.0,0.0,270.0,529.0,0.0,1,1021.0,1
716,716,0.4331912870272915,0.4,0.0,0.0,397.0,807.0,0.0,1,166.0,1
717,717,0.8400251796811623,0.8,1.0,1.0,309.0,888.0,1.0,1,93.0,1
718,718,-0.2610461120082228,-0.3,0.0,1.0,445.0,526.0,1.0,0,409.0,1
719,719,0.0827491252200051,0.1,1.0,1.0,480.0,659.0,1.0,1,671.0,1
720,720,-0.6293673165080702,-0.6,0.0,1.0,322.0,911.0,1.0,0,107.0,1
721,721,-0.05276577429421869,-0.1,1.0,0.0,476.0,921.0,0.0,0,3603.0,1
722,722,-0.004649595526344474,-0.0,1.0,0.0,309.0,983.0,1.0,1,3708.0,0
723,723,0.3758932667978797,0.4,0.0,0.0,442.0,689.0,0.0,1,319.0,1
724,724,-0.10417136866946453,-0.1,0.0,1.0,369.0,995.0,1.0,0,196.0,1
725,725,0.38188306715205733,0.4,0.0,0.0,289.0,656.0,0.0,1,175.0,1
726,726,0.27910740814221435,0.3,0.0,0.0,293.0,893.0,0.0,1,134.0,1
727,727,-0.7947092018005879,-0.8,0.0,1.0,483.0,727.0,1.0,0,70.0,1
728,728,-0.8224313224675579,-0.8,0.0,1.0,327.0,953.0,1.0,0,70.0,1
729,729,-0.4667735355927949,-0.5,1.0,0.0,251.0,654.0,0.0,0,195.0,1
730,730,-0.3892011167084837,-0.4,1.0,0.0,416.0,678.0,0.0,0,276.0,1
731,731,-0.8468560260355451,-0.8,1.0,0.0,276.0,899.0,0.0,0,75.0,1
732,732,0.7901114851951677,0.8,1.0,1.0,297.0,971.0,1.0,1,32.0,1
733,733,-0.8367331485376736,-0.8,0.0,1.0,353.0,683.0,1.0,0,104.0,1
734,734,0.49349543150705133,0.5,1.0,1.0,442.0,937.0,1.0,1,131.0,1
735,735,-0.3188003390398232,-0.3,1.0,0.0,409.0,824.0,0.0,0,147.0,1
736,736,-0.7909539364998276,-0.8,0.0,1.0,326.0,990.0,1.0,0,44.0,1
737,737,0.7920419918549736,0.8,0.0,0.0,397.0,843.0,0.0,1,80.0,1
738,738,-0.7411778626022701,-0.7,1.0,0.0,418.0,825.0,0.0,0,127.0,1
739,739,0.04779754329297781,0.0,0.0,0.0,418.0,584.0,0.0,1,3998.0,1
740,740,-0.44037941989184043,-0.4,0.0,1.0,364.0,835.0,1.0,0,151.0,1
741,741,-0.36292599621249655,-0.4,1.0,0.0,481.0,970.0,0.0,0,209.0,1
742,742,-0.519406586771431,-0.5,0.0,1.0,268.0,842.0,1.0,0,110.0,1
743,743,-0.30135173024411877,-0.3,1.0,0.0,427.0,893.0,0.0,0,240.0,1
744,744,0.3408595819991781,0.3,0.0,0.0,474.0,741.0,0.0,1,245.0,1
745,745,0.47811135598953947,0.5,0.0,0.0,380.0,975.0,0.0,1,155.0,1
746,746,0.32102418894883666,0.3,1.0,1.0,485.0,627.0,1.0,1,288.0,1
747,747,0.29991063649227445,0.3,0.0,0.0,263.0,695.0,0.0,1,222.0,1
748,748,-0.8216666665467193,-0.8,1.0,0.0,348.0,887.0,0.0,0,105.0,1
749,749,-0.02876170939052547,-0.0,1.0,0.0,460.0,887.0,0.0,0,3653.0,1
750,750,0.8244109988183373,0.8,0.0,0.0,408.0,688.0,0.0,1,124.0,1
751,751,-0.731744568087349,-0.7,0.0,1.0,324.0,687.0,1.0,0,119.0,1
752,752,-0.3483861443701962,-0.3,1.0,0.0,406.0,839.0,0.0,0,235.0,1
753,753,0.6738347691243373,0.7,1.0,1.0,447.0,873.0,1.0,1,100.0,1
754,754,-0.7351018187395336,-0.7,0.0,1.0,268.0,941.0,1.0,0,131.0,1
755,755,0.12519135420351424,0.1,1.0,1.0,297.0,861.0,1.0,1,142.0,1
756,756,0.21822823060725793,0.2,0.0,0.0,259.0,712.0,0.0,1,239.0,1
757,757,0.796716895743392,0.8,1.0,1.0,338.0,958.0,1.0,1,94.0,1
758,758,-0.766324909806336,-0.8,0.0,1.0,305.0,724.0,1.0,0,101.0,1
759,759,-0.5403081383083649,-0.5,1.0,0.0,392.0,614.0,0.0,0,184.0,1
760,760,0.8230613443741496,0.8,0.0,0.0,482.0,976.0,0.0,1,82.0,1
761,761,0.49190367232005816,0.5,0.0,0.0,409.0,530.0,0.0,1,341.0,1
762,762,-0.018553662223382172,-0.0,1.0,0.0,398.0,656.0,0.0,0,776.0,1
763,763,-0.8402238513485851,-0.8,0.0,1.0,373.0,938.0,1.0,0,69.0,1
764,764,0.04368256195209608,0.0,0.0,0.0,419.0,977.0,0.0,1,1154.0,1
765,765,-0.21138961622381036,-0.2,0.0,1.0,269.0,589.0,1.0,0,212.0,1
766,766,-0.0865075127290138,-0.1,0.0,1.0,421.0,607.0,1.0,0,712.0,1
767,767,0.8970491989666006,0.9,0.0,0.0,442.0,977.0,0.0,1,91.0,1
768,768,0.7421430489570949,0.7,0.0,0.0,288.0,534.0,0.0,1,148.0,1
769,769,0.04075486654508231,0.0,1.0,1.0,402.0,578.0,1.0,1,690.0,1
770,770,-0.43198387283305534,-0.4,0.0,1.0,287.0,622.0,1.0,0,171.0,1
771,771,-0.3297610747496338,-0.3,0.0,1.0,315.0,878.0,1.0,0,97.0,1
772,772,-0.13032039346454716,-0.1,1.0,0.0,278.0,702.0,0.0,0,320.0,1
773,773,0.07631288494455679,0.1,1.0,1.0,321.0,820.0,1.0,1,149.0,1
774,774,0.5795009786662811,0.6,1.0,1.0,250.0,922.0,1.0,1,88.0,1
775,775,-0.6221558363853996,-0.6,1.0,0.0,466.0,948.0,0.0,0,96.0,1
776,776,-0.6889195639718403,-0.7,0.0,1.0,343.0,754.0,1.0,0,143.0,1
777,777,-0.8462124186338775,-0.8,1.0,0.0,379.0,522.0,0.0,0,89.0,1
778,778,-0.01953883446645799,-0.0,0.0,1.0,305.0,533.0,1.0,0,4162.0,1
779,779,0.6945483618668632,0.7,0.0,0.0,390.0,985.0,0.0,1,105.0,1
780,780,0.06592908785752327,0.1,1.0,1.0,329.0,852.0,1.0,1,719.0,1
781,781,0.042166637716203326,0.0,1.0,1.0,419.0,921.0,1.0,1,1440.0,1
782,782,-0.056958090576677556,-0.1,0.0,1.0,277.0,716.0,1.0,0,447.0,1
783,783,0.49798136982613894,0.5,1.0,1.0,311.0,602.0,1.0,1,327.0,1
784,784,0.2502912647774612,0.3,0.0,0.0,401.0,957.0,0.0,1,172.0,1
785,785,-0.8024841114666945,-0.8,0.0,1.0,263.0,951.0,1.0,0,66.0,1
786,786,-0.04719253990625916,-0.0,1.0,0.0,339.0,675.0,0.0,0,526.0,1
787,787,0.28800985483874386,0.3,0.0,0.0,476.0,825.0,0.0,1,159.0,1
788,788,-0.31693177309513243,-0.3,1.0,0.0,252.0,755.0,0.0,0,273.0,1
789,789,0.24361103560313435,0.2,0.0,0.0,300.0,555.0,0.0,1,415.0,1
790,790,-0.21796773139666092,-0.2,0.0,1.0,457.0,792.0,1.0,0,171.0,1
791,791,-0.8347665057764381,-0.8,0.0,1.0,338.0,769.0,1.0,0,93.0,1
792,792,0.7079254967970307,0.7,1.0,1.0,317.0,590.0,1.0,1,223.0,1
793,793,0.7844330061101928,0.8,1.0,1.0,294.0,931.0,1.0,1,95.0,1
794,794,-0.27962954863787126,-0.3,0.0,1.0,268.0,721.0,1.0,0,231.0,1
795,795,-0.19627632565184971,-0.2,0.0,1.0,379.0,923.0,1.0,0,218.0,1
796,796,-0.12364351887824598,-0.1,1.0,0.0,438.0,788.0,0.0,0,284.0,1
797,797,0.5105964289113091,0.5,1.0,1.0,404.0,792.0,1.0,1,74.0,1
798,798,-0.036705659710165706,-0.0,0.0,1.0,497.0,535.0,1.0,0,448.0,1
799,799,0.7641766611120374,0.8,1.0,1.0,435.0,500.0,1.0,1,225.0,1
800,800,-0.09583212157862964,-0.1,0.0,1.0,393.0,559.0,1.0,0,398.0,1
801,801,0.19493905007705792,0.2,0.0,0.0,376.0,664.0,0.0,1,340.0,1
802,802,-0.4292086391279103,-0.4,0.0,1.0,474.0,598.0,1.0,0,198.0,1
803,803,0.6456298905754342,0.6,0.0,0.0,255.0,953.0,0.0,1,122.0,1
804,804,0.49568572519669696,0.5,0.0,0.0,271.0,915.0,0.0,1,124.0,1
805,805,0.7521367516790184,0.8,0.0,0.0,313.0,966.0,0.0,1,111.0,1
806,806,-0.5551663824851016,-0.6,1.0,0.0,317.0,839.0,0.0,0,134.0,1
807,807,0.7045167886455522,0.7,0.0,0.0,375.0,919.0,0.0,1,136.0,1
808,808,-0.5684971837046,-0.6,1.0,0.0,335.0,741.0,0.0,0,124.0,1
809,809,-0.38606823862029416,-0.4,0.0,1.0,481.0,923.0,1.0,0,76.0,1
810,810,-0.04134765963595899,-0.0,1.0,0.0,362.0,657.0,0.0,0,651.0,1
811,811,-0.5367945044029845,-0.5,0.0,1.0,492.0,669.0,1.0,0,149.0,1
812,812,-0.36050870640125854,-0.4,0.0,1.0,466.0,803.0,1.0,0,101.0,1
813,813,0.8080432027251446,0.8,0.0,0.0,479.0,918.0,0.0,1,93.0,1
814,814,0.7376706145349224,0.7,1.0,1.0,250.0,583.0,1.0,1,177.0,1
815,815,0.3710218099355206,0.4,0.0,0.0,271.0,943.0,0.0,1,136.0,1
816,816,0.3260174340296228,0.3,0.0,0.0,338.0,840.0,0.0,1,162.0,1
817,817,0.1880361188379699,0.2,0.0,0.0,431.0,552.0,0.0,1,387.0,1
818,818,0.3435336748552885,0.3,0.0,0.0,327.0,710.0,0.0,1,173.0,1
819,819,-0.6120325818945438,-0.6,1.0,0.0,428.0,728.0,0.0,0,124.0,1
820,820,0.32643402888054596,0.3,0.0,0.0,416.0,914.0,0.0,1,170.0,1
821,821,0.8331886231831193,0.8,1.0,1.0,454.0,924.0,1.0,1,82.0,1
822,822,0.27760996020455464,0.3,1.0,1.0,371.0,989.0,1.0,1,170.0,1
823,823,-0.8465279605254467,-0.8,1.0,0.0,480.0,503.0,0.0,0,117.0,1
824,824,0.5324955778776067,0.5,0.0,0.0,466.0,817.0,0.0,1,117.0,1
825,825,-0.2626180639823754,-0.3,0.0,1.0,353.0,847.0,1.0,0,170.0,1
826,826,-0.7317715310555214,-0.7,0.0,1.0,361.0,760.0,1.0,0,149.0,1
827,827,-0.6313098345849945,-0.6,1.0,0.0,484.0,529.0,0.0,0,157.0,1
828,828,0.6785483930657036,0.7,1.0,1.0,258.0,676.0,1.0,1,136.0,1
829,829,0.3840174865108731,0.4,0.0,0.0,347.0,683.0,0.0,1,270.0,1
830,830,-0.7576865646327076,-0.8,1.0,0.0,328.0,671.0,0.0,0,121.0,1
831,831,0.03311894671443638,0.0,0.0,0.0,314.0,554.0,0.0,1,1312.0,1
832,832,-0.4792071137243263,-0.5,1.0,0.0,418.0,955.0,0.0,0,147.0,1
833,833,0.3318647581500175,0.3,1.0,1.0,261.0,795.0,1.0,1,254.0,1
834,834,-0.12880394177544052,-0.1,0.0,1.0,325.0,676.0,1.0,0,629.0,1
835,835,-0.6092830800755853,-0.6,0.0,1.0,471.0,851.0,1.0,0,88.0,1
836,836,0.37572683819143105,0.4,1.0,1.0,409.0,751.0,1.0,1,200.0,1
837,837,-0.8236485605539993,-0.8,0.0,1.0,306.0,842.0,1.0,0,102.0,1
838,838,0.5848939688009259,0.6,1.0,1.0,393.0,629.0,1.0,1,188.0,1
839,839,0.40464325115441924,0.4,0.0,0.0,376.0,718.0,0.0,1,226.0,1
840,840,-0.2744772570490972,-0.3,1.0,0.0,485.0,587.0,0.0,0,248.0,1
841,841,-0.7683251848348944,-0.8,0.0,1.0,462.0,832.0,1.0,0,106.0,1
842,842,-0.8459753290712259,-0.8,0.0,1.0,287.0,860.0,1.0,0,113.0,1
843,843,-0.0041638936348000755,-0.0,0.0,1.0,448.0,811.0,1.0,0,1401.0,1
844,844,0.04458989707720351,0.0,0.0,0.0,481.0,770.0,0.0,1,659.0,1
845,845,-0.32418152150106283,-0.3,1.0,0.0,429.0,618.0,0.0,0,293.0,1
846,846,-0.37728145488714937,-0.4,0.0,1.0,409.0,741.0,1.0,0,190.0,1
847,847,0.8832826191360438,0.9,1.0,1.0,493.0,567.0,1.0,1,170.0,1
848,848,0.6149877219227781,0.6,1.0,1.0,297.0,758.0,1.0,1,105.0,1
849,849,-0.22042821113608901,-0.2,0.0,1.0,405.0,735.0,1.0,0,220.0,1
850,850,0.5454258688715218,0.5,0.0,0.0,371.0,560.0,0.0,1,199.0,1
851,851,-0.5664069865306984,-0.6,0.0,1.0,264.0,839.0,1.0,0,107.0,1
852,852,-0.7541953774739117,-0.8,1.0,0.0,323.0,568.0,0.0,0,129.0,1
853,853,0.658135032224706,0.7,0.0,0.0,488.0,868.0,0.0,1,134.0,1
854,854,-0.766008414650859,-0.8,0.0,1.0,257.0,604.0,1.0,0,119.0,1
855,855,0.41883321550034947,0.4,0.0,0.0,458.0,752.0,0.0,1,170.0,1
856,856,-0.6427776459191277,-0.6,1.0,0.0,308.0,739.0,0.0,0,143.0,1
857,857,-0.29495545494229425,-0.3,0.0,1.0,490.0,546.0,1.0,0,174.0,1
858,858,0.5840962025306365,0.6,0.0,0.0,284.0,954.0,0.0,1,102.0,1
859,859,0.7072879913064104,0.7,1.0,1.0,328.0,957.0,1.0,1,95.0,1
860,860,-0.4198655725354601,-0.4,1.0,0.0,323.0,995.0,0.0,0,142.0,1
861,861,-0.052176789782616195,-0.1,0.0,1.0,319.0,816.0,1.0,0,795.0,1
862,862,0.5527783438593993,0.6,1.0,1.0,323.0,526.0,1.0,1,161.0,1
863,863,0.6740102314885429,0.7,1.0,1.0,463.0,726.0,1.0,1,91.0,1
864,864,0.6948705908539418,0.7,0.0,0.0,484.0,810.0,0.0,1,76.0,1
865,865,0.7999425533974683,0.8,1.0,1.0,349.0,515.0,1.0,1,206.0,1
866,866,0.32394303592627016,0.3,1.0,1.0,276.0,590.0,1.0,1,224.0,1
867,867,-0.8292251056845227,-0.8,0.0,1.0,418.0,983.0,1.0,0,49.0,1
868,868,0.4998099009275304,0.5,0.0,0.0,495.0,976.0,0.0,1,79.0,1
869,869,-0.516018025005506,-0.5,0.0,1.0,482.0,632.0,1.0,0,126.0,1
870,870,0.667874540479933,0.7,0.0,0.0,266.0,688.0,0.0,1,256.0,1
871,871,0.7079377754251087,0.7,1.0,1.0,390.0,769.0,1.0,1,91.0,1
872,872,0.5110820535294475,0.5,1.0,1.0,408.0,999.0,1.0,1,113.0,1
873,873,0.15726409516241213,0.2,1.0,1.0,343.0,659.0,1.0,1,418.0,1
874,874,-0.7690671123101469,-0.8,0.0,1.0,283.0,932.0,1.0,0,95.0,1
875,875,0.16993137373078893,0.2,1.0,1.0,489.0,795.0,1.0,1,216.0,1
876,876,0.8211352733430132,0.8,0.0,0.0,350.0,725.0,0.0,1,85.0,1
877,877,0.4749040148142226,0.5,1.0,1.0,263.0,524.0,1.0,1,163.0,1
878,878,-0.6813084766349984,-0.7,1.0,0.0,308.0,870.0,0.0,0,142.0,1
879,879,0.8829724957331072,0.9,0.0,0.0,456.0,898.0,0.0,1,66.0,1
880,880,-0.7078213020012536,-0.7,1.0,0.0,436.0,655.0,0.0,0,129.0,1
881,881,-0.8106831149450835,-0.8,1.0,0.0,426.0,675.0,0.0,0,119.0,1
882,882,0.06807415205679146,0.1,1.0,1.0,403.0,734.0,1.0,1,3273.0,1
883,883,-0.3170822886768567,-0.3,0.0,1.0,287.0,656.0,1.0,0,177.0,1
884,884,0.7850645988012009,0.8,1.0,1.0,350.0,617.0,1.0,1,93.0,1
885,885,0.8240768540348303,0.8,1.0,1.0,355.0,583.0,1.0,1,62.0,1
886,886,-0.6770857335676693,-0.7,0.0,1.0,284.0,758.0,1.0,0,118.0,1
887,887,-0.22908112273248749,-0.2,1.0,0.0,388.0,661.0,0.0,0,271.0,1
888,888,0.4969142701944792,0.5,1.0,1.0,421.0,550.0,1.0,1,629.0,1
889,889,-0.426400294459101,-0.4,0.0,1.0,401.0,605.0,1.0,0,134.0,1
890,890,-0.17061701369131554,-0.2,0.0,1.0,338.0,568.0,1.0,0,304.0,1
891,891,0.6963384368888054,0.7,0.0,0.0,464.0,729.0,0.0,1,87.0,1
892,892,0.5133931931821029,0.5,1.0,1.0,447.0,904.0,1.0,1,109.0,1
893,893,-0.7228417227072206,-0.7,1.0,0.0,465.0,959.0,0.0,0,116.0,1
894,894,-0.15753096521930088,-0.2,0.0,1.0,343.0,948.0,1.0,0,249.0,1
895,895,-0.42240185190097884,-0.4,1.0,0.0,494.0,514.0,0.0,0,202.0,1
896,896,-0.17693947620392014,-0.2,1.0,0.0,398.0,928.0,0.0,0,154.0,1
897,897,0.2231492093368882,0.2,1.0,1.0,282.0,720.0,1.0,1,258.0,1
898,898,-0.5709414984258457,-0.6,0.0,1.0,416.0,861.0,1.0,0,133.0,1
899,899,-0.6808898542585483,-0.7,0.0,1.0,299.0,542.0,1.0,0,109.0,1
900,900,0.06385532664414917,0.1,1.0,1.0,261.0,613.0,1.0,1,1636.0,1
901,901,0.8116726643139925,0.8,1.0,1.0,460.0,539.0,1.0,1,251.0,1
902,902,0.4769910397160203,0.5,0.0,0.0,255.0,707.0,0.0,1,198.0,1
903,903,-0.06004331054244727,-0.1,0.0,1.0,440.0,899.0,1.0,0,611.0,1
904,904,0.09321555548368765,0.1,1.0,1.0,435.0,514.0,1.0,1,491.0,1
905,905,0.16119238014884296,0.2,0.0,0.0,326.0,833.0,0.0,1,331.0,1
906,906,-0.290064851291321,-0.3,0.0,1.0,346.0,503.0,1.0,0,391.0,1
907,907,0.1547899045082931,0.2,0.0,0.0,263.0,563.0,0.0,1,524.0,1
908,908,-0.1921294256154925,-0.2,0.0,1.0,269.0,743.0,1.0,0,208.0,1
909,909,0.25791459313019705,0.3,0.0,0.0,494.0,685.0,0.0,1,231.0,1
910,910,-0.8404527083759613,-0.8,1.0,0.0,343.0,835.0,0.0,0,92.0,1
911,911,0.5946354164951521,0.6,1.0,1.0,420.0,669.0,1.0,1,181.0,1
912,912,0.8054302133240784,0.8,1.0,1.0,273.0,668.0,1.0,1,139.0,1
913,913,0.24992854668538544,0.2,1.0,1.0,340.0,698.0,1.0,1,232.0,1
914,914,0.47346287946128196,0.5,0.0,0.0,430.0,991.0,0.0,1,159.0,1
915,915,0.03391770122702398,0.0,1.0,1.0,377.0,680.0,1.0,1,3943.0,1
916,916,0.7675832498008951,0.8,1.0,1.0,348.0,740.0,1.0,1,72.0,1
917,917,0.8562305342820901,0.9,1.0,1.0,253.0,819.0,1.0,1,98.0,1
918,918,0.562803493784554,0.6,1.0,1.0,499.0,950.0,1.0,1,71.0,1
919,919,-0.6489153611709593,-0.6,0.0,1.0,427.0,784.0,1.0,0,59.0,1
920,920,0.34790282721321,0.3,0.0,0.0,292.0,568.0,0.0,1,230.0,1
921,921,0.7855931478808132,0.8,0.0,0.0,455.0,797.0,0.0,1,118.0,1
922,922,0.36435713948650184,0.4,1.0,1.0,351.0,874.0,1.0,1,165.0,1
923,923,-0.4709449622658769,-0.5,0.0,1.0,469.0,879.0,1.0,0,92.0,1
924,924,0.8772208040933626,0.9,0.0,0.0,412.0,955.0,0.0,1,133.0,1
925,925,-0.4454047180308746,-0.4,0.0,1.0,291.0,891.0,1.0,0,118.0,1
926,926,0.7767005058154209,0.8,1.0,1.0,332.0,731.0,1.0,1,87.0,1
927,927,-0.6914500356316917,-0.7,0.0,1.0,397.0,521.0,1.0,0,242.0,1
928,928,0.2996167178013297,0.3,0.0,0.0,277.0,556.0,0.0,1,357.0,1
929,929,0.7576446914598204,0.8,1.0,1.0,365.0,802.0,1.0,1,113.0,1
930,930,0.29247916706790733,0.3,1.0,1.0,435.0,676.0,1.0,1,239.0,1
931,931,-0.4255491752626723,-0.4,1.0,0.0,420.0,794.0,0.0,0,136.0,1
932,932,-0.10370780195343743,-0.1,1.0,0.0,300.0,555.0,0.0,0,605.0,1
933,933,0.14064939266051601,0.1,1.0,1.0,298.0,554.0,1.0,1,408.0,1
934,934,0.4869773761665813,0.5,0.0,0.0,266.0,552.0,0.0,1,352.0,1
935,935,0.6015612224770138,0.6,1.0,1.0,253.0,767.0,1.0,1,210.0,1
936,936,0.02916198179059737,0.0,0.0,0.0,328.0,716.0,0.0,1,876.0,1
937,937,0.5493429041733843,0.5,0.0,0.0,284.0,524.0,0.0,1,172.0,1
938,938,0.7918502069225616,0.8,1.0,1.0,292.0,722.0,1.0,1,216.0,1
939,939,-0.07854403038047275,-0.1,0.0,1.0,428.0,851.0,1.0,0,211.0,1
940,940,-0.2783569258180376,-0.3,1.0,0.0,358.0,826.0,0.0,0,246.0,1
941,941,0.7383856343070506,0.7,1.0,1.0,357.0,777.0,1.0,1,126.0,1
942,942,0.42713057321936765,0.4,1.0,1.0,376.0,918.0,1.0,1,166.0,1
943,943,-0.24389261645903604,-0.2,1.0,0.0,455.0,613.0,0.0,0,222.0,1
944,944,-0.4663430162360954,-0.5,0.0,1.0,427.0,558.0,1.0,0,135.0,1
945,945,-0.6024777648265494,-0.6,0.0,1.0,395.0,758.0,1.0,0,127.0,1
946,946,-0.11529512054347413,-0.1,1.0,0.0,376.0,682.0,0.0,0,622.0,1
947,947,0.13224237027309094,0.1,0.0,0.0,486.0,539.0,0.0,1,595.0,1
948,948,0.685743345785739,0.7,0.0,0.0,276.0,611.0,0.0,1,123.0,1
949,949,-0.1624627502829411,-0.2,1.0,0.0,335.0,780.0,0.0,0,355.0,1
950,950,-0.3783100848778883,-0.4,1.0,0.0,450.0,569.0,0.0,0,181.0,1
951,951,-0.04095021025343015,-0.0,1.0,0.0,386.0,693.0,0.0,0,1221.0,1
952,952,-0.8074967911043066,-0.8,0.0,1.0,424.0,859.0,1.0,0,87.0,1
953,953,-0.1739805397831059,-0.2,0.0,1.0,380.0,828.0,1.0,0,152.0,1
954,954,-0.44909303112272664,-0.4,1.0,0.0,362.0,759.0,0.0,0,149.0,1
955,955,0.5686989881367962,0.6,1.0,1.0,401.0,513.0,1.0,1,206.0,1
956,956,-0.7973703090758595,-0.8,1.0,0.0,443.0,566.0,0.0,0,111.0,1
957,957,0.1507589213574939,0.2,0.0,0.0,382.0,541.0,0.0,1,507.0,1
958,958,-0.26747422969371437,-0.3,1.0,0.0,281.0,964.0,0.0,0,145.0,1
959,959,0.5616642088401257,0.6,1.0,1.0,417.0,726.0,1.0,1,107.0,1
960,960,0.30214529463192397,0.3,1.0,1.0,439.0,584.0,1.0,1,317.0,1
961,961,-0.7033104408842166,-0.7,0.0,1.0,275.0,967.0,1.0,0,78.0,1
962,962,-0.7636236761126416,-0.8,0.0,1.0,403.0,872.0,1.0,0,105.0,1
963,963,-0.3918586566611286,-0.4,0.0,1.0,335.0,500.0,1.0,0,195.0,1
964,964,0.5773971398601269,0.6,0.0,0.0,357.0,751.0,0.0,1,162.0,1
965,965,-0.7424565526192483,-0.7,1.0,0.0,296.0,823.0,0.0,0,101.0,1
966,966,-0.8155392153168036,-0.8,1.0,0.0,358.0,633.0,0.0,0,89.0,1
967,967,-0.19892175680364532,-0.2,1.0,0.0,275.0,707.0,0.0,0,308.0,1
968,968,-0.4575640282289987,-0.5,0.0,1.0,360.0,517.0,1.0,0,193.0,1
969,969,-0.7581288723315183,-0.8,1.0,0.0,293.0,774.0,0.0,0,73.0,1
970,970,-0.8534372821959859,-0.9,0.0,1.0,440.0,582.0,1.0,0,128.0,1
971,971,0.41849480989028176,0.4,1.0,1.0,453.0,995.0,1.0,1,112.0,1
972,972,-0.6003375194334117,-0.6,1.0,0.0,389.0,999.0,0.0,0,82.0,1
973,973,0.125586526140827,0.1,1.0,1.0,489.0,888.0,1.0,1,413.0,1
974,974,-0.724376481867819,-0.7,1.0,0.0,445.0,714.0,0.0,0,71.0,1
975,975,-0.15134062612070898,-0.2,0.0,1.0,424.0,861.0,1.0,0,225.0,1
976,976,-0.5329842327729688,-0.5,1.0,0.0,284.0,662.0,0.0,0,224.0,1
977,977,-0.801640529064618,-0.8,1.0,0.0,483.0,762.0,0.0,0,95.0,1
978,978,0.43230334961773786,0.4,1.0,1.0,480.0,545.0,1.0,1,305.0,1
979,979,-0.6705784881264257,-0.7,1.0,0.0,437.0,592.0,0.0,0,151.0,1
980,980,0.1288489603458428,0.1,0.0,0.0,330.0,774.0,0.0,1,386.0,1
981,981,-0.6096968734485484,-0.6,0.0,1.0,377.0,937.0,1.0,0,76.0,1
982,982,0.10933922929989481,0.1,0.0,0.0,405.0,585.0,0.0,1,420.0,1
983,983,0.09701194184152007,0.1,1.0,1.0,497.0,642.0,1.0,1,791.0,1
984,984,0.8270035590429504,0.8,1.0,1.0,320.0,615.0,1.0,1,195.0,1
985,985,-0.7723626774479923,-0.8,0.0,1.0,423.0,616.0,1.0,0,141.0,1
986,986,0.48268084088927476,0.5,1.0,1.0,437.0,884.0,1.0,1,89.0,1
987,987,0.38833791505994986,0.4,1.0,1.0,375.0,662.0,1.0,1,353.0,1
988,988,0.1967078616463177,0.2,1.0,1.0,377.0,608.0,1.0,1,385.0,1
989,989,-0.8463318742006218,-0.8,1.0,0.0,329.0,845.0,0.0,0,126.0,1
990,990,-0.3000070902522437,-0.3,1.0,0.0,390.0,954.0,0.0,0,126.0,1
991,991,-0.6505884962437924,-0.7,0.0,1.0,392.0,894.0,1.0,0,104.0,1
992,992,-0.5635120796999862,-0.6,1.0,0.0,380.0,668.0,0.0,0,122.0,1
993,993,0.08172923357541728,0.1,0.0,0.0,344.0,845.0,0.0,1,661.0,1
994,994,-0.528418056826242,-0.5,1.0,0.0,448.0,926.0,0.0,0,126.0,1
995,995,0.636802899933053,0.6,0.0,0.0,302.0,544.0,0.0,1,184.0,1
996,996,-0.6321349739918549,-0.6,0.0,1.0,321.0,786.0,1.0,0,123.0,1
997,997,0.036535427017385436,0.0,0.0,0.0,285.0,619.0,0.0,1,756.0,1
998,998,0.6064044241885224,0.6,0.0,0.0,468.0,906.0,0.0,1,166.0,1
999,999,0.39465035438704554,0.4,0.0,0.0,323.0,762.0,0.0,1,165.0,1
1000,1000,-0.7586277726410662,-0.8,1.0,0.0,490.0,536.0,0.0,0,84.0,1
1001,1001,0.17518975463820385,0.2,0.0,0.0,389.0,539.0,0.0,1,412.0,1
1002,1002,-0.35507736143583346,-0.4,1.0,0.0,311.0,947.0,0.0,0,152.0,1
1003,1003,0.4110758698702691,0.4,1.0,1.0,405.0,685.0,1.0,1,180.0,1
1004,1004,-0.6748809602930415,-0.7,0.0,1.0,399.0,868.0,1.0,0,113.0,1
1005,1005,-0.43558578744665916,-0.4,1.0,0.0,359.0,774.0,0.0,0,167.0,1
1006,1006,-0.041044171913303895,-0.0,1.0,0.0,417.0,995.0,0.0,0,1998.0,1
1007,1007,0.41661682330967775,0.4,0.0,0.0,459.0,712.0,0.0,1,179.0,1
1008,1008,-0.3126847256444484,-0.3,1.0,0.0,304.0,866.0,0.0,0,140.0,1
1009,1009,0.10863624562828689,0.1,1.0,1.0,479.0,658.0,1.0,1,553.0,1
1010,1010,-0.15427064614036068,-0.2,0.0,1.0,341.0,516.0,1.0,0,273.0,1
1011,1011,0.8815581734692738,0.9,1.0,1.0,356.0,973.0,1.0,1,61.0,1
1012,1012,0.44982646360499146,0.4,0.0,0.0,344.0,616.0,0.0,1,220.0,1
1013,1013,0.13974268033559978,0.1,1.0,1.0,253.0,592.0,1.0,1,575.0,1
1014,1014,0.28854157363847854,0.3,1.0,1.0,306.0,980.0,1.0,1,164.0,1
1015,1015,-0.032740313777540386,-0.0,0.0,1.0,346.0,975.0,1.0,0,2619.0,1
1016,1016,-0.5401379333037273,-0.5,1.0,0.0,344.0,709.0,0.0,0,137.0,1
1017,1017,0.6660951677675432,0.7,1.0,1.0,347.0,810.0,1.0,1,93.0,1
1018,1018,0.2420290791132006,0.2,0.0,0.0,348.0,933.0,0.0,1,279.0,1
1019,1019,-0.7206546804535472,-0.7,0.0,1.0,453.0,540.0,1.0,0,107.0,1
1020,1020,0.7039790212315612,0.7,0.0,0.0,319.0,697.0,0.0,1,204.0,1
1021,1021,-0.35724304404859386,-0.4,0.0,1.0,338.0,722.0,1.0,0,100.0,1
1022,1022,-0.7861057449693867,-0.8,0.0,1.0,313.0,987.0,1.0,0,70.0,1
1023,1023,0.2508432483540627,0.3,1.0,1.0,389.0,972.0,1.0,1,169.0,1
1024,1024,-0.3847091688941714,-0.4,0.0,1.0,450.0,958.0,1.0,0,152.0,1
1025,1025,0.1390192048361668,0.1,0.0,0.0,435.0,660.0,0.0,1,465.0,1
1026,1026,0.522816466052732,0.5,1.0,1.0,326.0,532.0,1.0,1,122.0,1
1027,1027,0.09401216919909594,0.1,0.0,0.0,366.0,718.0,0.0,1,716.0,1
1028,1028,-0.10159215758488704,-0.1,1.0,0.0,421.0,665.0,0.0,0,794.0,1
1029,1029,0.3632093287670143,0.4,1.0,1.0,340.0,507.0,1.0,1,303.0,1
1030,1030,-0.4543763410927743,-0.5,1.0,0.0,297.0,597.0,0.0,0,256.0,1
1031,1031,0.7878911545496262,0.8,1.0,1.0,312.0,975.0,1.0,1,53.0,1
1032,1032,0.43093840743297396,0.4,0.0,0.0,265.0,999.0,0.0,1,196.0,1
1033,1033,0.310537348788953,0.3,0.0,0.0,434.0,557.0,0.0,1,239.0,1
1034,1034,0.2562220988070282,0.3,0.0,0.0,327.0,870.0,0.0,1,183.0,1
1035,1035,-0.7742393738083397,-0.8,0.0,1.0,382.0,831.0,1.0,0,97.0,1
1036,1036,-0.8315163137850712,-0.8,0.0,1.0,442.0,633.0,1.0,0,75.0,1
1037,1037,-0.8491849178496539,-0.8,0.0,1.0,409.0,986.0,1.0,0,135.0,1
1038,1038,0.1255732133497377,0.1,1.0,1.0,425.0,507.0,1.0,1,818.0,1
1039,1039,0.32559934128256474,0.3,0.0,0.0,356.0,832.0,0.0,1,102.0,1
1040,1040,-0.6138545943760616,-0.6,0.0,1.0,377.0,878.0,1.0,0,105.0,1
1041,1041,-0.80903747602806,-0.8,1.0,0.0,330.0,840.0,0.0,0,120.0,1
1042,1042,0.5458239634333993,0.5,1.0,1.0,326.0,670.0,1.0,1,124.0,1
1043,1043,-0.024103606514752074,-0.0,1.0,0.0,468.0,881.0,0.0,0,1171.0,1
1044,1044,0.5536241968967205,0.6,1.0,1.0,311.0,886.0,1.0,1,103.0,1
1045,1045,-0.4856971587916153,-0.5,1.0,0.0,488.0,561.0,0.0,0,141.0,1
1046,1046,0.47520729969526243,0.5,0.0,0.0,464.0,534.0,0.0,1,202.0,1
1047,1047,-0.8777941813226168,-0.9,1.0,0.0,479.0,931.0,0.0,0,130.0,1
1048,1048,-0.1636512682405088,-0.2,1.0,0.0,331.0,544.0,0.0,0,445.0,1
1049,1049,0.37072292180342437,0.4,0.0,0.0,380.0,721.0,0.0,1,189.0,1
1050,1050,0.1568752500747833,0.2,1.0,1.0,467.0,944.0,1.0,1,199.0,1
1051,1051,-0.40959487905678543,-0.4,0.0,1.0,424.0,911.0,1.0,0,115.0,1
1052,1052,-0.07431987231381809,-0.1,0.0,1.0,259.0,738.0,1.0,0,1243.0,1
1053,1053,0.2915510268742564,0.3,1.0,1.0,260.0,810.0,1.0,1,250.0,1
1054,1054,-0.8195002167716996,-0.8,0.0,1.0,279.0,563.0,1.0,0,138.0,1
1055,1055,0.41353852830033155,0.4,1.0,1.0,407.0,546.0,1.0,1,227.0,1
1056,1056,0.05482132368681103,0.1,1.0,1.0,459.0,515.0,1.0,1,516.0,1
1057,1057,0.48874349590313726,0.5,0.0,0.0,274.0,604.0,0.0,1,222.0,1
1058,1058,-0.5222279036201003,-0.5,1.0,0.0,296.0,511.0,0.0,0,163.0,1
1059,1059,-0.11813031217048797,-0.1,0.0,1.0,407.0,724.0,1.0,0,319.0,1
1060,1060,0.5666923086097241,0.6,1.0,1.0,460.0,526.0,1.0,1,144.0,1
1061,1061,0.1867807816687045,0.2,0.0,0.0,280.0,533.0,0.0,1,447.0,1
1062,1062,0.5160449699943129,0.5,0.0,0.0,468.0,810.0,0.0,1,132.0,1
1063,1063,-0.8410479311182072,-0.8,1.0,0.0,405.0,655.0,0.0,0,140.0,1
1064,1064,-0.43622205690656235,-0.4,1.0,0.0,386.0,508.0,0.0,0,216.0,1
1065,1065,0.13168431795318825,0.1,0.0,0.0,304.0,586.0,0.0,1,460.0,1
1066,1066,-0.36831264751776005,-0.4,0.0,1.0,362.0,537.0,1.0,0,241.0,1
1067,1067,-0.31859072043432646,-0.3,1.0,0.0,354.0,575.0,0.0,0,311.0,1
1068,1068,-0.12045397089404408,-0.1,1.0,0.0,319.0,905.0,0.0,0,256.0,1
1069,1069,0.6673172844493639,0.7,0.0,0.0,434.0,503.0,0.0,1,143.0,1
1070,1070,-0.6622335058648471,-0.7,0.0,1.0,317.0,602.0,1.0,0,161.0,1
1071,1071,0.8587894660533156,0.9,0.0,0.0,465.0,595.0,0.0,1,220.0,1
1072,1072,0.5246268893483373,0.5,1.0,1.0,409.0,683.0,1.0,1,198.0,1
1073,1073,-0.6762668865860945,-0.7,0.0,1.0,454.0,773.0,1.0,0,63.0,1
1074,1074,0.6264609827656032,0.6,1.0,1.0,451.0,764.0,1.0,1,105.0,1
1075,1075,0.5100424883547384,0.5,0.0,0.0,382.0,600.0,0.0,1,148.0,1
1076,1076,0.23273692477887387,0.2,0.0,0.0,462.0,767.0,0.0,1,261.0,1
1077,1077,0.774705397514191,0.8,0.0,0.0,453.0,882.0,0.0,1,95.0,1
1078,1078,0.08654831966434462,0.1,0.0,0.0,250.0,598.0,0.0,1,512.0,1
1079,1079,-0.4052338346381615,-0.4,1.0,0.0,465.0,646.0,0.0,0,309.0,1
1080,1080,-0.8249908351612024,-0.8,1.0,0.0,390.0,960.0,0.0,0,100.0,1
1081,1081,0.6134300343752445,0.6,0.0,0.0,425.0,981.0,0.0,1,94.0,1
1082,1082,0.10268057312303658,0.1,1.0,1.0,312.0,848.0,1.0,1,540.0,1
1083,1083,-0.5069953685943384,-0.5,0.0,1.0,383.0,923.0,1.0,0,74.0,1
1084,1084,0.40257576987462207,0.4,1.0,1.0,274.0,787.0,1.0,1,159.0,1
1085,1085,0.623150545259895,0.6,0.0,0.0,255.0,667.0,0.0,1,138.0,1
1086,1086,-0.30581571243145667,-0.3,0.0,1.0,419.0,650.0,1.0,0,171.0,1
1087,1087,0.8172009501367347,0.8,0.0,0.0,318.0,627.0,0.0,1,115.0,1
1088,1088,0.5393297276248531,0.5,0.0,0.0,258.0,807.0,0.0,1,155.0,1
1089,1089,0.8137049052708497,0.8,1.0,1.0,302.0,774.0,1.0,1,94.0,1
1090,1090,-0.817155233618327,-0.8,0.0,1.0,496.0,918.0,1.0,0,76.0,1
1091,1091,-0.5641346114870427,-0.6,0.0,1.0,469.0,833.0,1.0,0,38.0,1
1092,1092,0.4375063800002875,0.4,1.0,1.0,365.0,620.0,1.0,1,195.0,1
1093,1093,0.4883047497594236,0.5,1.0,1.0,453.0,960.0,1.0,1,87.0,1
1094,1094,0.5837740488350768,0.6,1.0,1.0,410.0,844.0,1.0,1,136.0,1
1095,1095,0.36521369934545944,0.4,0.0,0.0,456.0,565.0,0.0,1,499.0,1
1096,1096,-0.6296340019608411,-0.6,1.0,0.0,413.0,508.0,0.0,0,139.0,1
1097,1097,-0.1769301065465274,-0.2,0.0,1.0,277.0,536.0,1.0,0,407.0,1
1098,1098,-0.21070314179062688,-0.2,0.0,1.0,449.0,675.0,1.0,0,256.0,1
1099,1099,-0.5208593342506463,-0.5,0.0,1.0,471.0,957.0,1.0,0,52.0,1
1100,1100,-0.7196876064401125,-0.7,1.0,0.0,341.0,953.0,0.0,0,86.0,1
1101,1101,-0.06456059686936677,-0.1,0.0,1.0,415.0,556.0,1.0,0,639.0,1
1102,1102,0.3230712073921397,0.3,1.0,1.0,271.0,857.0,1.0,1,132.0,1
1103,1103,-0.39369206135492796,-0.4,1.0,0.0,493.0,977.0,0.0,0,100.0,1
1104,1104,0.12581303237087405,0.1,1.0,1.0,253.0,958.0,1.0,1,269.0,1
1105,1105,-0.7564998531161866,-0.8,0.0,1.0,415.0,790.0,1.0,0,125.0,1
1106,1106,0.39408622040085783,0.4,0.0,0.0,300.0,689.0,0.0,1,161.0,1
1107,1107,-0.11542796037577652,-0.1,0.0,1.0,264.0,740.0,1.0,0,256.0,1
1108,1108,0.33671761373987585,0.3,1.0,1.0,355.0,694.0,1.0,1,151.0,1
1109,1109,0.6592400429281732,0.7,1.0,1.0,457.0,519.0,1.0,1,154.0,1
1110,1110,0.14965737231257947,0.1,1.0,1.0,493.0,635.0,1.0,1,372.0,1
1111,1111,0.34970917099539334,0.3,0.0,0.0,352.0,978.0,0.0,1,250.0,1
1112,1112,-0.8206078581678761,-0.8,0.0,1.0,442.0,596.0,1.0,0,112.0,1
1113,1113,0.2962698156475966,0.3,1.0,1.0,435.0,723.0,1.0,1,222.0,1
1114,1114,-0.12725624055239892,-0.1,1.0,0.0,315.0,715.0,0.0,0,450.0,1
1115,1115,0.735617763913566,0.7,1.0,1.0,380.0,632.0,1.0,1,108.0,1
1116,1116,-0.5276439343509922,-0.5,0.0,1.0,468.0,550.0,1.0,0,162.0,1
1117,1117,-0.5359784757021078,-0.5,0.0,1.0,279.0,737.0,1.0,0,184.0,1
1118,1118,0.31906726391655804,0.3,0.0,0.0,299.0,797.0,0.0,1,204.0,1
1119,1119,-0.3698435195920511,-0.4,1.0,0.0,471.0,962.0,0.0,0,167.0,1
1120,1120,-0.8192923532025257,-0.8,0.0,1.0,474.0,584.0,1.0,0,82.0,1
1121,1121,-0.737514642015707,-0.7,1.0,0.0,347.0,840.0,0.0,0,83.0,1
1122,1122,0.840623903286387,0.8,1.0,1.0,393.0,995.0,1.0,1,142.0,1
1123,1123,-0.3231289511823504,-0.3,0.0,1.0,491.0,695.0,1.0,0,144.0,1
1124,1124,-0.26611731104132486,-0.3,1.0,0.0,466.0,624.0,0.0,0,320.0,1
1125,1125,0.00773522936810167,0.0,0.0,0.0,372.0,829.0,0.0,1,119.0,1
1126,1126,0.09491985941767611,0.1,0.0,0.0,340.0,861.0,0.0,1,749.0,1
1127,1127,-0.5616488516636491,-0.6,1.0,0.0,466.0,669.0,0.0,0,145.0,1
1128,1128,0.40705631622456206,0.4,0.0,0.0,267.0,626.0,0.0,1,177.0,1
1129,1129,0.49097588052872065,0.5,0.0,0.0,269.0,601.0,0.0,1,170.0,1
1130,1130,0.5530378495987703,0.6,1.0,1.0,452.0,517.0,1.0,1,201.0,1
1131,1131,-0.6545010006468008,-0.7,1.0,0.0,259.0,997.0,0.0,0,74.0,1
1132,1132,-0.16349808633531782,-0.2,1.0,0.0,276.0,706.0,0.0,0,298.0,1
1133,1133,0.8624802888988145,0.9,0.0,0.0,276.0,897.0,0.0,1,137.0,1
1134,1134,0.21185374246487265,0.2,0.0,0.0,287.0,618.0,0.0,1,335.0,1
1135,1135,0.8188936967094006,0.8,1.0,1.0,440.0,763.0,1.0,1,87.0,1
1136,1136,0.3628990073893482,0.4,1.0,1.0,396.0,600.0,1.0,1,174.0,1
1137,1137,0.8953262849167992,0.9,0.0,0.0,475.0,926.0,0.0,1,89.0,1
1138,1138,0.37106753191484276,0.4,0.0,0.0,411.0,708.0,0.0,1,151.0,1
1139,1139,-0.8154186749466782,-0.8,0.0,1.0,371.0,900.0,1.0,0,99.0,1
1140,1140,0.5002522346032537,0.5,1.0,1.0,325.0,959.0,1.0,1,336.0,1
1141,1141,0.5675032267295189,0.6,0.0,0.0,429.0,927.0,0.0,1,104.0,1
1142,1142,-0.5204806932288406,-0.5,1.0,0.0,417.0,595.0,0.0,0,208.0,1
1143,1143,-0.16553388636179045,-0.2,0.0,1.0,268.0,629.0,1.0,0,193.0,1
1144,1144,-0.839838526863753,-0.8,1.0,0.0,276.0,677.0,0.0,0,87.0,1
1145,1145,-0.5701178874728716,-0.6,0.0,1.0,454.0,958.0,1.0,0,88.0,1
1146,1146,0.6521332482260448,0.7,1.0,1.0,442.0,849.0,1.0,1,79.0,1
1147,1147,-0.20084450351243222,-0.2,1.0,0.0,303.0,658.0,0.0,0,329.0,1
1148,1148,-0.8919752119361033,-0.9,1.0,0.0,462.0,858.0,0.0,0,120.0,1
1149,1149,0.46021072552161335,0.5,0.0,0.0,315.0,642.0,0.0,1,123.0,1
1150,1150,0.49992105858099756,0.5,0.0,0.0,289.0,931.0,0.0,1,140.0,1
1151,1151,0.48571512122449423,0.5,1.0,1.0,441.0,523.0,1.0,1,276.0,1
1152,1152,-0.37931011982047647,-0.4,0.0,1.0,457.0,657.0,1.0,0,156.0,1
1153,1153,-0.7716786658403817,-0.8,0.0,1.0,420.0,989.0,1.0,0,81.0,1
1154,1154,0.1585078410095565,0.2,0.0,0.0,479.0,595.0,0.0,1,436.0,1
1155,1155,0.36759916972695594,0.4,1.0,1.0,255.0,836.0,1.0,1,89.0,1
1156,1156,0.09918335604857809,0.1,0.0,0.0,356.0,920.0,0.0,1,724.0,1
1157,1157,0.7457379729412078,0.7,0.0,0.0,284.0,860.0,0.0,1,106.0,1
1158,1158,0.8144877023152192,0.8,1.0,1.0,467.0,622.0,1.0,1,201.0,1
1159,1159,0.663946955297907,0.7,1.0,1.0,358.0,793.0,1.0,1,119.0,1
1160,1160,0.24735257220132667,0.2,0.0,0.0,271.0,894.0,0.0,1,625.0,1
1161,1161,0.27118732720901095,0.3,0.0,0.0,305.0,782.0,0.0,1,193.0,1
1162,1162,-0.3712630706288801,-0.4,1.0,0.0,483.0,627.0,0.0,0,240.0,1
1163,1163,0.6193061087651562,0.6,1.0,1.0,380.0,825.0,1.0,1,105.0,1
1164,1164,-0.7240966481252797,-0.7,0.0,1.0,432.0,754.0,1.0,0,104.0,1
1165,1165,-0.7336266837570624,-0.7,1.0,0.0,272.0,722.0,0.0,0,116.0,1
1166,1166,0.25610305547066925,0.3,0.0,0.0,305.0,506.0,0.0,1,379.0,1
1167,1167,-0.5701164317972605,-0.6,1.0,0.0,405.0,832.0,0.0,0,163.0,1
1168,1168,0.8980661378836231,0.9,0.0,0.0,475.0,724.0,0.0,1,101.0,1
1169,1169,-0.8873468601002951,-0.9,0.0,1.0,495.0,758.0,1.0,0,127.0,1
1170,1170,-0.5286358761487653,-0.5,0.0,1.0,496.0,632.0,1.0,0,162.0,1
1171,1171,0.6709375899269122,0.7,0.0,0.0,335.0,718.0,0.0,1,147.0,1
1172,1172,-0.07728586404340776,-0.1,1.0,0.0,344.0,619.0,0.0,0,317.0,1
1173,1173,0.07767226761239232,0.1,1.0,1.0,457.0,780.0,1.0,1,313.0,1
1174,1174,0.5874458203720289,0.6,1.0,1.0,384.0,575.0,1.0,1,391.0,1
1175,1175,-0.18833713388982742,-0.2,1.0,0.0,365.0,638.0,0.0,0,497.0,1
1176,1176,0.2699263098933221,0.3,1.0,1.0,453.0,584.0,1.0,1,303.0,1
1177,1177,0.3460978935506328,0.3,1.0,1.0,375.0,684.0,1.0,1,211.0,1
1178,1178,-0.32483595986583,-0.3,0.0,1.0,438.0,538.0,1.0,0,204.0,1
1179,1179,-0.38887223616700073,-0.4,1.0,0.0,290.0,844.0,0.0,0,196.0,1
1180,1180,0.833565654135319,0.8,1.0,1.0,303.0,783.0,1.0,1,94.0,1
1181,1181,0.30127846755735177,0.3,1.0,1.0,287.0,652.0,1.0,1,191.0,1
1182,1182,0.226221551771698,0.2,0.0,0.0,372.0,880.0,0.0,1,308.0,1
1183,1183,-0.866991853786636,-0.9,0.0,1.0,296.0,947.0,1.0,0,87.0,1
1184,1184,-0.8946547973808268,-0.9,1.0,0.0,351.0,845.0,0.0,0,44.0,1
1185,1185,-0.8546002688662481,-0.9,1.0,0.0,477.0,809.0,0.0,0,124.0,1
1186,1186,-0.6653768709039298,-0.7,1.0,0.0,264.0,573.0,0.0,0,113.0,1
1187,1187,-0.06566160658063958,-0.1,1.0,0.0,284.0,961.0,0.0,0,475.0,1
1188,1188,-0.743936100416434,-0.7,0.0,1.0,430.0,594.0,1.0,0,146.0,1
1189,1189,0.8658095995947318,0.9,0.0,0.0,264.0,661.0,0.0,1,135.0,1
1190,1190,0.7851831839129303,0.8,1.0,1.0,316.0,812.0,1.0,1,102.0,1
1191,1191,-0.5805575777540336,-0.6,0.0,1.0,464.0,852.0,1.0,0,114.0,1
1192,1192,-0.7595903496268657,-0.8,0.0,1.0,416.0,849.0,1.0,0,85.0,1
1193,1193,-0.8124659381667781,-0.8,1.0,0.0,383.0,530.0,0.0,0,87.0,1
1194,1194,-0.5016538362190563,-0.5,0.0,1.0,314.0,945.0,1.0,0,141.0,1
1195,1195,0.6622052269777178,0.7,0.0,0.0,369.0,850.0,0.0,1,91.0,1
1196,1196,0.4226016148945232,0.4,1.0,1.0,310.0,904.0,1.0,1,66.0,1
1197,1197,-0.5586364865061277,-0.6,0.0,1.0,327.0,739.0,1.0,0,94.0,1
1198,1198,0.723630341763042,0.7,0.0,0.0,277.0,582.0,0.0,1,141.0,1
1199,1199,-0.17028368139088457,-0.2,0.0,1.0,370.0,606.0,1.0,0,364.0,1
1200,1200,-0.3795488466565533,-0.4,0.0,1.0,396.0,683.0,1.0,0,221.0,1
1201,1201,-0.2279512876009756,-0.2,1.0,0.0,370.0,501.0,0.0,0,479.0,1
1202,1202,0.3167535687698836,0.3,0.0,0.0,442.0,647.0,0.0,1,221.0,1
1203,1203,-0.633272213000314,-0.6,0.0,1.0,407.0,746.0,1.0,0,107.0,1
1204,1204,-0.36913031088180026,-0.4,1.0,0.0,257.0,940.0,0.0,0,23.0,1
1205,1205,0.6163434348147391,0.6,1.0,1.0,267.0,838.0,1.0,1,75.0,1
1206,1206,-0.7615050917601914,-0.8,1.0,0.0,470.0,533.0,0.0,0,107.0,1
1207,1207,0.586496866312536,0.6,0.0,0.0,328.0,971.0,0.0,1,81.0,1
1208,1208,-0.5141578965266408,-0.5,1.0,0.0,265.0,990.0,0.0,0,55.0,1
1209,1209,0.5784588988824065,0.6,1.0,1.0,337.0,752.0,1.0,1,141.0,1
1210,1210,-0.6285978314396414,-0.6,1.0,0.0,444.0,892.0,0.0,0,84.0,1
1211,1211,-0.8788477123041781,-0.9,0.0,1.0,411.0,806.0,1.0,0,83.0,1
1212,1212,0.6149484198398908,0.6,0.0,0.0,281.0,795.0,0.0,1,124.0,1
1213,1213,0.8072260456065631,0.8,0.0,0.0,452.0,786.0,0.0,1,92.0,1
1214,1214,-0.07840966327932797,-0.1,0.0,1.0,419.0,641.0,1.0,0,280.0,1
1215,1215,-0.3761059840733382,-0.4,1.0,0.0,324.0,693.0,0.0,0,283.0,1
1216,1216,-0.21844120423413105,-0.2,0.0,1.0,397.0,564.0,1.0,0,289.0,1
1217,1217,0.10271141644298176,0.1,1.0,1.0,355.0,541.0,1.0,1,864.0,1
1218,1218,-0.1462364782241471,-0.1,1.0,0.0,305.0,552.0,0.0,0,543.0,1
1219,1219,0.2364755260725434,0.2,1.0,1.0,353.0,611.0,1.0,1,386.0,1
1220,1220,0.016671369549897785,0.0,0.0,0.0,434.0,785.0,0.0,1,3781.0,1
1221,1221,0.4281807294929775,0.4,1.0,1.0,359.0,711.0,1.0,1,130.0,1
1222,1222,-0.11959208889903339,-0.1,0.0,1.0,497.0,766.0,1.0,0,277.0,1
1223,1223,0.24130791248796013,0.2,0.0,0.0,473.0,949.0,0.0,1,208.0,1
1224,1224,0.14864326547368945,0.1,0.0,0.0,306.0,973.0,0.0,1,151.0,1
1225,1225,0.21048575963693084,0.2,1.0,1.0,487.0,850.0,1.0,1,353.0,1
1226,1226,-0.2166912897371368,-0.2,1.0,0.0,280.0,649.0,0.0,0,181.0,1
1227,1227,0.8761398568122157,0.9,0.0,0.0,402.0,750.0,0.0,1,68.0,1
1228,1228,0.18666802901544444,0.2,1.0,1.0,494.0,903.0,1.0,1,243.0,1
1229,1229,0.32823289518621646,0.3,0.0,0.0,341.0,882.0,0.0,1,187.0,1
1230,1230,-0.8487505442092089,-0.8,0.0,1.0,408.0,599.0,1.0,0,143.0,1
1231,1231,-0.790463155302638,-0.8,0.0,1.0,434.0,880.0,1.0,0,76.0,1
1232,1232,-0.5809422905609367,-0.6,1.0,0.0,378.0,619.0,0.0,0,163.0,1
1233,1233,-0.6228689659041728,-0.6,0.0,1.0,478.0,846.0,1.0,0,116.0,1
1234,1234,0.4410653203012719,0.4,1.0,1.0,492.0,558.0,1.0,1,230.0,1
1235,1235,0.3552922083566702,0.4,0.0,0.0,340.0,911.0,0.0,1,159.0,1
1236,1236,0.8729696258045659,0.9,1.0,1.0,489.0,748.0,1.0,1,93.0,1
1237,1237,-0.5682727390795106,-0.6,1.0,0.0,354.0,623.0,0.0,0,153.0,1
1238,1238,0.260691419969833,0.3,1.0,1.0,265.0,778.0,1.0,1,177.0,1
1239,1239,0.17668006351152543,0.2,1.0,1.0,421.0,523.0,1.0,1,526.0,1
1240,1240,-0.5572765485540974,-0.6,1.0,0.0,441.0,612.0,0.0,0,197.0,1
1241,1241,-0.031350595664517034,-0.0,1.0,0.0,481.0,731.0,0.0,0,818.0,1
1242,1242,0.5605577741467561,0.6,1.0,1.0,340.0,821.0,1.0,1,109.0,1
1243,1243,-0.7981994912359209,-0.8,0.0,1.0,431.0,586.0,1.0,0,133.0,1
1244,1244,-0.3902546250718899,-0.4,0.0,1.0,358.0,954.0,1.0,0,108.0,1
1245,1245,0.4953431760386594,0.5,0.0,0.0,387.0,700.0,0.0,1,253.0,1
1246,1246,-0.24151108326033344,-0.2,1.0,0.0,324.0,570.0,0.0,0,306.0,1
1247,1247,0.22186722371927547,0.2,1.0,1.0,470.0,838.0,1.0,1,102.0,1
1248,1248,-0.8677559440669664,-0.9,0.0,1.0,311.0,705.0,1.0,0,104.0,1
1249,1249,-0.5438451525162227,-0.5,1.0,0.0,305.0,576.0,0.0,0,189.0,1
1250,1250,0.26092997419735553,0.3,0.0,0.0,420.0,866.0,0.0,1,214.0,1
1251,1251,-0.39544210166058225,-0.4,1.0,0.0,422.0,743.0,0.0,0,165.0,1
1252,1252,0.6526934494550943,0.7,1.0,1.0,470.0,906.0,1.0,1,104.0,1
1253,1253,-0.14422032161732035,-0.1,0.0,1.0,335.0,697.0,1.0,0,178.0,1
1254,1254,0.8240817307763729,0.8,1.0,1.0,323.0,807.0,1.0,1,220.0,1
1255,1255,0.1717488410643856,0.2,1.0,1.0,451.0,734.0,1.0,1,145.0,1
1256,1256,-0.5414947766175318,-0.5,1.0,0.0,485.0,844.0,0.0,0,51.0,1
1257,1257,-0.7449573833777262,-0.7,0.0,1.0,490.0,969.0,1.0,0,51.0,1
1258,1258,0.05964625075777563,0.1,1.0,1.0,403.0,878.0,1.0,1,619.0,1
1259,1259,-0.3542993514718965,-0.4,1.0,0.0,301.0,726.0,0.0,0,173.0,1
1260,1260,0.18135656553516355,0.2,0.0,0.0,436.0,987.0,0.0,1,227.0,1
1261,1261,0.6541289268692522,0.7,1.0,1.0,314.0,805.0,1.0,1,111.0,1
1262,1262,-0.08413082436591057,-0.1,1.0,0.0,257.0,817.0,0.0,0,226.0,1
1263,1263,0.7406004477700044,0.7,0.0,0.0,271.0,510.0,0.0,1,129.0,1
1264,1264,0.7665198861553063,0.8,1.0,1.0,475.0,867.0,1.0,1,48.0,1
1265,1265,0.5705613885486408,0.6,1.0,1.0,411.0,812.0,1.0,1,107.0,1
1266,1266,0.3624905062790008,0.4,0.0,0.0,299.0,683.0,0.0,1,228.0,1
1267,1267,-0.2163385258357583,-0.2,0.0,1.0,490.0,886.0,1.0,0,224.0,1
1268,1268,-0.5665094889488766,-0.6,1.0,0.0,352.0,596.0,0.0,0,152.0,1
1269,1269,0.8320569795017833,0.8,0.0,0.0,472.0,627.0,0.0,1,101.0,1
1270,1270,0.7067435942348835,0.7,0.0,0.0,407.0,823.0,0.0,1,140.0,1
1271,1271,0.07649611122204869,0.1,0.0,0.0,361.0,879.0,0.0,1,1460.0,1
1272,1272,0.5337125503385652,0.5,0.0,0.0,329.0,795.0,0.0,1,126.0,1
1273,1273,0.04298306136932528,0.0,0.0,0.0,304.0,533.0,0.0,1,583.0,1
1274,1274,-0.28102002874546606,-0.3,1.0,0.0,340.0,674.0,0.0,0,436.0,1
1275,1275,0.6492359047094344,0.6,0.0,0.0,366.0,683.0,0.0,1,131.0,1
1276,1276,0.6808864437247116,0.7,0.0,0.0,411.0,659.0,0.0,1,140.0,1
1277,1277,0.3071247034200285,0.3,1.0,1.0,498.0,942.0,1.0,1,160.0,1
1278,1278,-0.2716033484530521,-0.3,1.0,0.0,452.0,572.0,0.0,0,246.0,1
1279,1279,0.28383718361289334,0.3,0.0,0.0,261.0,534.0,0.0,1,355.0,1
1280,1280,0.03721318106572302,0.0,1.0,1.0,311.0,888.0,1.0,1,941.0,1
1281,1281,-0.28452354570655436,-0.3,1.0,0.0,364.0,714.0,0.0,0,232.0,1
1282,1282,0.016005266674511187,0.0,0.0,0.0,460.0,513.0,0.0,1,2697.0,1
1283,1283,0.10310237040389503,0.1,1.0,1.0,413.0,523.0,1.0,1,464.0,1
1284,1284,-0.4444654808779158,-0.4,1.0,0.0,399.0,857.0,0.0,0,134.0,1
1285,1285,0.6036204104711874,0.6,0.0,0.0,437.0,932.0,0.0,1,121.0,1
1286,1286,-0.7996191826791879,-0.8,1.0,0.0,253.0,783.0,0.0,0,94.0,1
1287,1287,0.18390742931315962,0.2,1.0,1.0,361.0,555.0,1.0,1,354.0,1
1288,1288,0.5944794593029769,0.6,1.0,1.0,464.0,800.0,1.0,1,116.0,1
1289,1289,0.3159030450623096,0.3,1.0,1.0,347.0,699.0,1.0,1,214.0,1
1290,1290,0.43124718616796776,0.4,1.0,1.0,376.0,797.0,1.0,1,117.0,1
1291,1291,0.8386717284024366,0.8,0.0,0.0,462.0,780.0,0.0,1,78.0,1
1292,1292,-0.5062257701658126,-0.5,1.0,0.0,486.0,908.0,0.0,0,176.0,1
1293,1293,-0.26031952193594043,-0.3,1.0,0.0,262.0,675.0,0.0,0,213.0,1
1294,1294,0.8283756049503203,0.8,0.0,0.0,341.0,824.0,0.0,1,115.0,1
1295,1295,-0.5453382953823405,-0.5,1.0,0.0,333.0,654.0,0.0,0,163.0,1
1296,1296,-0.8760031114527819,-0.9,0.0,1.0,271.0,684.0,1.0,0,95.0,1
1297,1297,-0.5130368954198974,-0.5,0.0,1.0,423.0,927.0,1.0,0,130.0,1
1298,1298,0.15340941680745568,0.2,1.0,1.0,463.0,907.0,1.0,1,1310.0,1
1299,1299,-0.8529960284801784,-0.9,1.0,0.0,372.0,959.0,0.0,0,99.0,1
1300,1300,-0.13797843729965897,-0.1,0.0,1.0,342.0,610.0,1.0,0,418.0,1
1301,1301,-0.36836466281574987,-0.4,1.0,0.0,430.0,955.0,0.0,0,135.0,1
1302,1302,-0.35965916347715354,-0.4,1.0,0.0,402.0,955.0,0.0,0,133.0,1
1303,1303,-0.08021970443263038,-0.1,1.0,0.0,458.0,551.0,0.0,0,721.0,1
1304,1304,-0.5153736827729101,-0.5,1.0,0.0,388.0,799.0,0.0,0,193.0,1
1305,1305,0.739231612664213,0.7,1.0,1.0,325.0,860.0,1.0,1,105.0,1
1306,1306,-0.30283722675386404,-0.3,1.0,0.0,379.0,882.0,0.0,0,179.0,1
1307,1307,0.06915223002201265,0.1,0.0,0.0,305.0,898.0,0.0,1,727.0,1
1308,1308,-0.11449990141584787,-0.1,0.0,1.0,291.0,863.0,1.0,0,296.0,1
1309,1309,-0.47100470070373196,-0.5,1.0,0.0,445.0,560.0,0.0,0,225.0,1
1310,1310,0.021148150226956375,0.0,0.0,0.0,351.0,616.0,0.0,1,683.0,1
1311,1311,0.11023887473543403,0.1,0.0,0.0,299.0,766.0,0.0,1,495.0,1
1312,1312,0.4901822529057477,0.5,1.0,1.0,324.0,673.0,1.0,1,253.0,1
1313,1313,-0.7070775798217501,-0.7,1.0,0.0,276.0,749.0,0.0,0,125.0,1
1314,1314,-0.015031699239835827,-0.0,0.0,1.0,423.0,871.0,1.0,0,776.0,1
1315,1315,0.5638050623620122,0.6,1.0,1.0,436.0,971.0,1.0,1,103.0,1
1316,1316,0.17868302827904115,0.2,1.0,1.0,300.0,527.0,1.0,1,533.0,1
1317,1317,-0.41260070427621776,-0.4,0.0,1.0,404.0,608.0,1.0,0,238.0,1
1318,1318,0.2567864962980878,0.3,1.0,1.0,257.0,579.0,1.0,1,384.0,1
1319,1319,-0.8321997222296046,-0.8,1.0,0.0,293.0,776.0,0.0,0,191.0,1
1320,1320,0.3367602780208768,0.3,0.0,0.0,268.0,918.0,0.0,1,144.0,1
1321,1321,0.8359092224902255,0.8,0.0,0.0,297.0,540.0,0.0,1,93.0,1
1322,1322,-0.7096099246263422,-0.7,1.0,0.0,480.0,582.0,0.0,0,178.0,1
1323,1323,0.7732045282982037,0.8,0.0,0.0,460.0,759.0,0.0,1,141.0,1
1324,1324,-0.3013592939959361,-0.3,0.0,1.0,465.0,689.0,1.0,0,206.0,1
1325,1325,-0.03859337488080783,-0.0,1.0,0.0,420.0,979.0,0.0,0,831.0,1
1326,1326,-0.27550992526735985,-0.3,0.0,1.0,327.0,791.0,1.0,0,102.0,1
1327,1327,-0.10337861872444143,-0.1,0.0,1.0,485.0,892.0,1.0,0,163.0,1
1328,1328,-0.4379685829195851,-0.4,1.0,0.0,302.0,756.0,0.0,0,172.0,1
1329,1329,0.3461177647316064,0.3,0.0,0.0,451.0,997.0,0.0,1,152.0,1
1330,1330,0.08595513949587841,0.1,1.0,1.0,299.0,942.0,1.0,1,369.0,1
1331,1331,0.35448078627517254,0.4,1.0,1.0,404.0,598.0,1.0,1,198.0,1
1332,1332,0.342682684678027,0.3,1.0,1.0,493.0,659.0,1.0,1,288.0,1
1333,1333,0.7526141256112201,0.8,1.0,1.0,385.0,665.0,1.0,1,160.0,1
1334,1334,-0.20235681318039433,-0.2,1.0,0.0,279.0,689.0,0.0,0,322.0,1
1335,1335,-0.7877636726206947,-0.8,0.0,1.0,279.0,611.0,1.0,0,100.0,1
1336,1336,0.7533932498844483,0.8,1.0,1.0,390.0,860.0,1.0,1,170.0,1
1337,1337,-0.6643487212794371,-0.7,0.0,1.0,424.0,767.0,1.0,0,129.0,1
1338,1338,-0.7307753437808671,-0.7,0.0,1.0,313.0,918.0,1.0,0,179.0,1
1339,1339,0.11772227156871617,0.1,0.0,0.0,281.0,797.0,0.0,1,542.0,1
1340,1340,-0.7424765091285408,-0.7,1.0,0.0,333.0,572.0,0.0,0,135.0,1
1341,1341,-0.670939789473467,-0.7,0.0,1.0,338.0,841.0,1.0,0,121.0,1
1342,1342,0.26404719414724764,0.3,0.0,0.0,298.0,767.0,0.0,1,205.0,1
1343,1343,-0.5949753701218574,-0.6,1.0,0.0,369.0,857.0,0.0,0,114.0,1
1344,1344,0.45274933167812204,0.5,0.0,0.0,450.0,628.0,0.0,1,122.0,1
1345,1345,0.6831289524688288,0.7,0.0,0.0,253.0,993.0,0.0,1,84.0,1
1346,1346,-0.6545924502843279,-0.7,1.0,0.0,443.0,567.0,0.0,0,140.0,1
1347,1347,-0.1446167359385171,-0.1,1.0,0.0,300.0,803.0,0.0,0,367.0,1
1348,1348,0.6598422116571198,0.7,1.0,1.0,265.0,513.0,1.0,1,152.0,1
1349,1349,0.5690958782061147,0.6,1.0,1.0,465.0,833.0,1.0,1,152.0,1
1350,1350,-0.8335761129927065,-0.8,0.0,1.0,441.0,564.0,1.0,0,135.0,1
1351,1351,-0.2640419812226129,-0.3,1.0,0.0,373.0,906.0,0.0,0,221.0,1
1352,1352,-0.7516377384104844,-0.8,1.0,0.0,401.0,761.0,0.0,0,148.0,1
1353,1353,-0.16501264820518402,-0.2,1.0,0.0,466.0,694.0,0.0,0,350.0,1
1354,1354,0.8239225770235715,0.8,0.0,0.0,288.0,933.0,0.0,1,89.0,1
1355,1355,0.3929730636858305,0.4,1.0,1.0,354.0,570.0,1.0,1,256.0,1
1356,1356,-0.7528220153777719,-0.8,1.0,0.0,478.0,864.0,0.0,0,158.0,1
1357,1357,-0.042030616521959274,-0.0,1.0,0.0,456.0,971.0,0.0,0,513.0,1
1358,1358,-0.5410364377922803,-0.5,0.0,1.0,297.0,675.0,1.0,0,168.0,1
1359,1359,-0.4046100543581462,-0.4,1.0,0.0,262.0,572.0,0.0,0,176.0,1
1360,1360,0.40788294558755933,0.4,1.0,1.0,261.0,660.0,1.0,1,289.0,1
1361,1361,0.04272774551214853,0.0,1.0,1.0,274.0,772.0,1.0,1,3954.0,1
1362,1362,0.5643757111762479,0.6,1.0,1.0,493.0,984.0,1.0,1,93.0,1
1363,1363,0.321032345361855,0.3,0.0,0.0,305.0,518.0,0.0,1,247.0,1
1364,1364,0.24321714239290648,0.2,1.0,1.0,270.0,991.0,1.0,1,159.0,1
1365,1365,0.44801442659207813,0.4,1.0,1.0,476.0,845.0,1.0,1,139.0,1
1366,1366,0.42915814597302815,0.4,0.0,0.0,462.0,621.0,0.0,1,147.0,1
1367,1367,0.6789529702473979,0.7,1.0,1.0,455.0,705.0,1.0,1,120.0,1
1368,1368,0.8297125181901267,0.8,1.0,1.0,298.0,794.0,1.0,1,68.0,1
1369,1369,-0.7217927861163093,-0.7,1.0,0.0,413.0,638.0,0.0,0,139.0,1
1370,1370,0.505173502219385,0.5,0.0,0.0,452.0,559.0,0.0,1,159.0,1
1371,1371,0.8230063143221983,0.8,0.0,0.0,363.0,915.0,0.0,1,82.0,1
1372,1372,-0.04919682922727242,-0.0,1.0,0.0,384.0,987.0,0.0,0,1849.0,1
1373,1373,-0.3563816504141294,-0.4,1.0,0.0,397.0,673.0,0.0,0,160.0,1
1374,1374,0.3964231270776858,0.4,0.0,0.0,309.0,855.0,0.0,1,216.0,1
1375,1375,-0.19924938682736615,-0.2,0.0,1.0,277.0,942.0,1.0,0,161.0,1
1376,1376,-0.6484668722546896,-0.6,1.0,0.0,360.0,908.0,0.0,0,72.0,1
1377,1377,0.1649791336466716,0.2,0.0,0.0,394.0,770.0,0.0,1,436.0,1
1378,1378,-0.6735036117313098,-0.7,1.0,0.0,481.0,984.0,0.0,0,75.0,1
1379,1379,-0.1053937896040198,-0.1,1.0,0.0,346.0,566.0,0.0,0,1378.0,1
1380,1380,0.8466807293895481,0.8,1.0,1.0,485.0,792.0,1.0,1,73.0,1
1381,1381,-0.23656144052700245,-0.2,0.0,1.0,437.0,592.0,1.0,0,191.0,1
1382,1382,0.29552555159961125,0.3,0.0,0.0,420.0,992.0,0.0,1,138.0,1
1383,1383,-0.6967878277001914,-0.7,0.0,1.0,442.0,652.0,1.0,0,146.0,1
1384,1384,-0.463529386351616,-0.5,0.0,1.0,273.0,994.0,1.0,0,123.0,1
1385,1385,0.46322109878927054,0.5,1.0,1.0,325.0,965.0,1.0,1,50.0,1
1386,1386,0.264859230348229,0.3,1.0,1.0,460.0,777.0,1.0,1,263.0,1
1387,1387,0.25083575030544936,0.3,1.0,1.0,404.0,742.0,1.0,1,224.0,1
1388,1388,0.4001987577173164,0.4,0.0,0.0,271.0,605.0,0.0,1,174.0,1
1389,1389,-0.3919368026574538,-0.4,0.0,1.0,407.0,857.0,1.0,0,156.0,1
1390,1390,-0.41608899602903354,-0.4,1.0,0.0,319.0,992.0,0.0,0,159.0,1
1391,1391,0.35511916549390243,0.4,0.0,0.0,463.0,595.0,0.0,1,192.0,1
1392,1392,-0.19143108131033393,-0.2,0.0,1.0,317.0,718.0,1.0,0,285.0,1
1393,1393,-0.24804707047368102,-0.2,0.0,1.0,334.0,621.0,1.0,0,265.0,1
1394,1394,0.8228702728623661,0.8,0.0,0.0,439.0,806.0,0.0,1,115.0,1
1395,1395,0.536814169603041,0.5,0.0,0.0,381.0,551.0,0.0,1,318.0,1
1396,1396,0.7130196556677247,0.7,1.0,1.0,287.0,784.0,1.0,1,119.0,1
1397,1397,-0.2298863327419628,-0.2,0.0,1.0,428.0,878.0,1.0,0,264.0,1
1398,1398,0.8975358593772754,0.9,1.0,1.0,479.0,834.0,1.0,1,137.0,1
1399,1399,-0.0033929620977228847,-0.0,0.0,1.0,279.0,643.0,0.0,1,4078.0,0
1400,1400,0.82608115644501,0.8,0.0,0.0,278.0,529.0,0.0,1,103.0,1
1401,1401,-0.6083577075374904,-0.6,0.0,1.0,411.0,599.0,1.0,0,190.0,1
1402,1402,0.5610516530062198,0.6,1.0,1.0,459.0,846.0,1.0,1,55.0,1
1403,1403,-0.40316911672307537,-0.4,0.0,1.0,303.0,915.0,1.0,0,72.0,1
1404,1404,0.7525400489466426,0.8,1.0,1.0,263.0,757.0,1.0,1,120.0,1
1405,1405,-0.08865029775369049,-0.1,0.0,1.0,490.0,687.0,1.0,0,343.0,1
1406,1406,-0.8654790185775146,-0.9,0.0,1.0,357.0,930.0,1.0,0,133.0,1
1407,1407,-0.6285696812655905,-0.6,1.0,0.0,268.0,600.0,0.0,0,132.0,1
1408,1408,-0.16356097961069116,-0.2,1.0,0.0,477.0,889.0,0.0,0,384.0,1
1409,1409,0.7517103423390911,0.8,0.0,0.0,379.0,541.0,0.0,1,170.0,1
1410,1410,-0.8559835305377466,-0.9,1.0,0.0,291.0,892.0,0.0,0,77.0,1
1411,1411,-0.8097564340899464,-0.8,1.0,0.0,315.0,592.0,0.0,0,123.0,1
1412,1412,0.043318507804240625,0.0,1.0,1.0,438.0,860.0,1.0,1,812.0,1
1413,1413,0.8345057115175872,0.8,1.0,1.0,476.0,812.0,1.0,1,62.0,1
1414,1414,0.8917908741217103,0.9,0.0,0.0,281.0,767.0,0.0,1,72.0,1
1415,1415,-0.35680088137158705,-0.4,0.0,1.0,360.0,555.0,1.0,0,305.0,1
1416,1416,0.8984108744990408,0.9,1.0,1.0,392.0,971.0,1.0,1,127.0,1
1417,1417,0.061884480707164236,0.1,0.0,0.0,492.0,750.0,0.0,1,458.0,1
1418,1418,-0.5928776185530378,-0.6,0.0,1.0,336.0,560.0,1.0,0,184.0,1
1419,1419,-0.28411707925109286,-0.3,0.0,1.0,496.0,855.0,1.0,0,219.0,1
1420,1420,0.1388521172259226,0.1,0.0,0.0,350.0,939.0,0.0,1,251.0,1
1421,1421,0.22430868847003504,0.2,0.0,0.0,414.0,988.0,0.0,1,278.0,1
1422,1422,-0.13582746191148265,-0.1,0.0,1.0,371.0,555.0,1.0,0,314.0,1
1423,1423,0.8484082645324836,0.8,1.0,1.0,499.0,742.0,1.0,1,79.0,1
1424,1424,0.10778612502361928,0.1,1.0,1.0,357.0,572.0,1.0,1,581.0,1
1425,1425,0.2954268468146902,0.3,0.0,0.0,274.0,967.0,0.0,1,199.0,1
1426,1426,-0.6538869291503393,-0.7,0.0,1.0,355.0,693.0,1.0,0,92.0,1
1427,1427,-0.6129957074876785,-0.6,0.0,1.0,328.0,925.0,1.0,0,97.0,1
1428,1428,-0.8768393642378273,-0.9,1.0,0.0,479.0,825.0,0.0,0,106.0,1
1429,1429,-0.7693138440169082,-0.8,0.0,1.0,255.0,511.0,1.0,0,134.0,1
1430,1430,0.32876879682261306,0.3,0.0,0.0,337.0,683.0,0.0,1,230.0,1
1431,1431,-0.8692030033506938,-0.9,0.0,1.0,300.0,753.0,1.0,0,137.0,1
1432,1432,0.8720041745706079,0.9,1.0,1.0,456.0,576.0,1.0,1,138.0,1
1433,1433,-0.329341009917935,-0.3,0.0,1.0,485.0,758.0,1.0,0,187.0,1
1434,1434,-0.5432925556664707,-0.5,0.0,1.0,262.0,675.0,1.0,0,123.0,1
1435,1435,-0.6023914799373942,-0.6,0.0,1.0,447.0,681.0,1.0,0,142.0,1
1436,1436,0.8370015027953767,0.8,1.0,1.0,443.0,969.0,1.0,1,68.0,1
1437,1437,0.17538335602307276,0.2,1.0,1.0,333.0,564.0,1.0,1,693.0,1
1438,1438,0.18377964948035375,0.2,1.0,1.0,354.0,668.0,1.0,1,188.0,1
1439,1439,-0.8417018218573373,-0.8,0.0,1.0,322.0,970.0,1.0,0,58.0,1
1440,1440,0.6320494679068046,0.6,0.0,0.0,332.0,935.0,0.0,1,83.0,1
1441,1441,-0.3612746259275642,-0.4,1.0,0.0,368.0,849.0,0.0,0,173.0,1
1442,1442,0.8752412808031061,0.9,0.0,0.0,291.0,568.0,0.0,1,121.0,1
1443,1443,-0.09013695915568765,-0.1,1.0,0.0,288.0,616.0,0.0,0,376.0,1
1444,1444,0.5289273111968794,0.5,1.0,1.0,402.0,732.0,1.0,1,146.0,1
1445,1445,-0.25939779244776573,-0.3,1.0,0.0,350.0,556.0,0.0,0,424.0,1
1446,1446,-0.6856326172566874,-0.7,0.0,1.0,356.0,999.0,1.0,0,115.0,1
1447,1447,0.1221765461892258,0.1,1.0,1.0,449.0,710.0,1.0,1,441.0,1
1448,1448,0.6122928750699274,0.6,1.0,1.0,427.0,614.0,1.0,1,129.0,1
1449,1449,-0.3603321776766163,-0.4,0.0,1.0,443.0,543.0,1.0,0,194.0,1
1450,1450,0.094692078636749,0.1,0.0,0.0,367.0,548.0,0.0,1,425.0,1
1451,1451,-0.446915204113337,-0.4,0.0,1.0,350.0,776.0,1.0,0,144.0,1
1452,1452,-0.4952170697821655,-0.5,1.0,0.0,361.0,509.0,0.0,0,250.0,1
1453,1453,0.22804221280937698,0.2,0.0,0.0,429.0,683.0,0.0,1,258.0,1
1454,1454,-0.7415986857600938,-0.7,1.0,0.0,306.0,756.0,0.0,0,158.0,1
1455,1455,-0.7230041940061539,-0.7,1.0,0.0,453.0,781.0,0.0,0,136.0,1
1456,1456,-0.1605799036194071,-0.2,1.0,0.0,499.0,907.0,0.0,0,314.0,1
1457,1457,-0.2009092975653003,-0.2,0.0,1.0,378.0,516.0,1.0,0,156.0,1
1458,1458,-0.41672639321805677,-0.4,0.0,1.0,451.0,849.0,1.0,0,110.0,1
1459,1459,-0.08807780248910269,-0.1,0.0,1.0,342.0,892.0,1.0,0,276.0,1
1460,1460,0.544797271821117,0.5,1.0,1.0,493.0,730.0,1.0,1,107.0,1
1461,1461,0.7610035704920236,0.8,0.0,0.0,315.0,713.0,0.0,1,92.0,1
1462,1462,-0.296266511845077,-0.3,1.0,0.0,405.0,525.0,0.0,0,340.0,1
1463,1463,-0.6914722206362902,-0.7,0.0,1.0,385.0,564.0,1.0,0,101.0,1
1464,1464,0.2722851448183893,0.3,0.0,0.0,400.0,578.0,0.0,1,202.0,1
1465,1465,-0.10675538594573108,-0.1,1.0,0.0,458.0,808.0,0.0,0,524.0,1
1466,1466,-0.2349012628872117,-0.2,0.0,1.0,391.0,729.0,1.0,0,160.0,1
1467,1467,0.04756645401103987,0.0,1.0,1.0,436.0,668.0,1.0,1,2086.0,1
1468,1468,-0.026857994222904247,-0.0,1.0,0.0,387.0,898.0,0.0,0,1145.0,1
1469,1469,0.7264952538343118,0.7,1.0,1.0,260.0,980.0,1.0,1,60.0,1
1470,1470,0.05897055789365313,0.1,0.0,0.0,393.0,870.0,0.0,1,1607.0,1
1471,1471,0.2497087306725677,0.2,1.0,1.0,415.0,646.0,1.0,1,239.0,1
1472,1472,0.4396055798669779,0.4,0.0,0.0,394.0,512.0,0.0,1,204.0,1
1473,1473,-0.8607241324696298,-0.9,0.0,1.0,346.0,538.0,1.0,0,86.0,1
1474,1474,-0.1358577685874518,-0.1,1.0,0.0,360.0,532.0,0.0,0,428.0,1
1475,1475,-0.7093373984002765,-0.7,0.0,1.0,487.0,732.0,1.0,0,131.0,1
1476,1476,-0.4402324632484202,-0.4,0.0,1.0,258.0,535.0,1.0,0,187.0,1
1477,1477,-0.479114312010895,-0.5,0.0,1.0,400.0,789.0,1.0,0,141.0,1
1478,1478,-0.6325496897260214,-0.6,0.0,1.0,348.0,705.0,1.0,0,107.0,1
1479,1479,0.8128409342611044,0.8,0.0,0.0,492.0,897.0,0.0,1,151.0,1
1480,1480,0.21134931433204074,0.2,1.0,1.0,301.0,570.0,1.0,1,389.0,1
1481,1481,0.4150016647290756,0.4,1.0,1.0,467.0,513.0,1.0,1,310.0,1
1482,1482,0.451932137275196,0.5,0.0,0.0,380.0,522.0,0.0,1,218.0,1
1483,1483,0.7468980740790104,0.7,0.0,0.0,380.0,569.0,0.0,1,131.0,1
1484,1484,-0.8184025052283456,-0.8,1.0,0.0,286.0,762.0,0.0,0,112.0,1
1485,1485,-0.03632473337777864,-0.0,0.0,1.0,494.0,549.0,1.0,0,727.0,1
1486,1486,0.5500698651264561,0.6,0.0,0.0,326.0,953.0,0.0,1,121.0,1
1487,1487,-0.16191282251839179,-0.2,1.0,0.0,372.0,572.0,0.0,0,556.0,1
1488,1488,0.23298189821520376,0.2,1.0,1.0,467.0,573.0,1.0,1,430.0,1
1489,1489,-0.37060768643865283,-0.4,1.0,0.0,290.0,964.0,0.0,0,126.0,1
1490,1490,0.42028702862956024,0.4,1.0,1.0,320.0,801.0,1.0,1,69.0,1
1491,1491,-0.8975322145727316,-0.9,1.0,0.0,302.0,708.0,0.0,0,90.0,1
1492,1492,-0.8425578823178396,-0.8,0.0,1.0,458.0,956.0,1.0,0,86.0,1
1493,1493,0.890078810515257,0.9,0.0,0.0,259.0,874.0,0.0,1,87.0,1
1494,1494,0.5430437967052436,0.5,1.0,1.0,411.0,633.0,1.0,1,236.0,1
1495,1495,0.7771289047102828,0.8,0.0,0.0,301.0,574.0,0.0,1,175.0,1
1496,1496,-0.4139610316055085,-0.4,0.0,1.0,348.0,878.0,1.0,0,114.0,1
