,trial,coherence,coherence_bin,green_side,correct_side,target_onset,checker_onset,decision,green_decision,decision_time,correct_decision
0,0,-0.48172633364519807,-0.5,0.0,1.0,493.0,615.0,1.0,0,652.0,1
1,1,0.7743198982279461,0.8,0.0,0.0,326.0,834.0,0.0,1,350.0,1
2,2,0.44943363035116113,0.4,0.0,0.0,447.0,814.0,0.0,1,599.0,1
3,3,-0.16968007081307868,-0.2,1.0,0.0,360.0,960.0,0.0,0,3680.0,1
4,4,0.6070394032745082,0.6,0.0,0.0,429.0,538.0,0.0,1,553.0,1
5,5,-0.4289625586278187,-0.4,1.0,0.0,426.0,905.0,0.0,0,579.0,1
6,6,0.4943817498081079,0.5,1.0,1.0,355.0,875.0,1.0,1,380.0,1
7,7,0.26797738360725,0.3,1.0,1.0,291.0,528.0,1.0,1,441.0,1
8,8,0.4191496833281724,0.4,1.0,1.0,261.0,970.0,1.0,1,269.0,1
9,9,0.16228346029234253,0.2,1.0,1.0,400.0,586.0,1.0,1,574.0,1
10,10,-0.7461976126195231,-0.7,1.0,0.0,472.0,819.0,0.0,0,189.0,1
11,11,-0.030523293998429568,-0.0,1.0,0.0,271.0,577.0,1.0,1,4152.0,0
12,12,0.4852805300820505,0.5,0.0,0.0,292.0,705.0,0.0,1,293.0,1
13,13,0.1805815958005631,0.2,0.0,0.0,255.0,554.0,0.0,1,4191.0,1
14,14,0.6060789032887929,0.6,0.0,0.0,308.0,866.0,0.0,1,356.0,1
15,15,-0.221580173958282,-0.2,1.0,0.0,281.0,566.0,0.0,0,663.0,1
16,16,-0.823067002079856,-0.8,0.0,1.0,266.0,516.0,1.0,0,428.0,1
17,17,-0.11759403644528676,-0.1,0.0,1.0,464.0,678.0,1.0,0,848.0,1
18,18,0.4241664522472425,0.4,0.0,0.0,438.0,929.0,0.0,1,743.0,1
19,19,-0.8325565623414958,-0.8,1.0,0.0,333.0,670.0,0.0,0,277.0,1
20,20,0.1814450444129082,0.2,0.0,0.0,271.0,607.0,0.0,1,1862.0,1
21,21,0.8832114810848762,0.9,0.0,0.0,477.0,966.0,1.0,0,17.0,0
22,22,-0.7019914826918671,-0.7,1.0,0.0,454.0,537.0,0.0,0,459.0,1
23,23,-0.4563364950745883,-0.5,1.0,0.0,439.0,873.0,0.0,0,758.0,1
24,24,-0.7765841749430167,-0.8,1.0,0.0,479.0,636.0,0.0,0,425.0,1
25,25,0.6569559037128919,0.7,0.0,0.0,399.0,664.0,0.0,1,387.0,1
26,26,-0.49731244837465743,-0.5,1.0,0.0,390.0,959.0,0.0,0,801.0,1
27,27,-0.48557967583733697,-0.5,0.0,1.0,405.0,850.0,1.0,0,165.0,1
28,28,-0.6425973292969387,-0.6,1.0,0.0,413.0,647.0,0.0,0,380.0,1
29,29,0.7100849514556423,0.7,1.0,1.0,352.0,870.0,1.0,1,468.0,1
30,30,0.5162906335342518,0.5,1.0,1.0,484.0,898.0,1.0,1,168.0,1
31,31,-0.7639244905836522,-0.8,0.0,1.0,370.0,750.0,1.0,0,160.0,1
32,32,-0.30962665401363354,-0.3,0.0,1.0,400.0,537.0,1.0,0,363.0,1
33,33,0.20257625171792937,0.2,1.0,1.0,481.0,513.0,1.0,1,976.0,1
34,34,-0.6078952272527052,-0.6,0.0,1.0,291.0,905.0,1.0,0,404.0,1
35,35,0.6434895421122536,0.6,0.0,0.0,478.0,972.0,0.0,1,180.0,1
36,36,-0.1555684161470694,-0.2,0.0,1.0,349.0,722.0,1.0,0,539.0,1
37,37,-0.727135381098017,-0.7,1.0,0.0,252.0,966.0,0.0,0,332.0,1
38,38,0.45118517678542813,0.5,0.0,0.0,450.0,557.0,1.0,0,-27.0,0
39,39,-0.18800195833534827,-0.2,0.0,1.0,278.0,934.0,1.0,0,2208.0,1
40,40,0.13627107522454984,0.1,0.0,0.0,452.0,921.0,1.0,0,3627.0,0
41,41,-0.7503985929501721,-0.8,1.0,0.0,459.0,989.0,0.0,0,392.0,1
42,42,-0.16099011192701074,-0.2,0.0,1.0,323.0,577.0,1.0,0,1180.0,1
43,43,0.22257811836853014,0.2,0.0,0.0,431.0,815.0,0.0,1,894.0,1
44,44,0.7865414351221841,0.8,1.0,1.0,421.0,958.0,1.0,1,51.0,1
45,45,-0.12245933632177797,-0.1,1.0,0.0,318.0,831.0,0.0,0,3851.0,1
46,46,0.8214851404946643,0.8,1.0,1.0,474.0,642.0,1.0,1,264.0,1
47,47,-0.1897707617424863,-0.2,1.0,0.0,287.0,567.0,0.0,0,2446.0,1
48,48,-0.6946127315125199,-0.7,0.0,1.0,385.0,743.0,1.0,0,92.0,1
49,49,-0.1612139946378357,-0.2,0.0,1.0,274.0,951.0,1.0,0,-325.0,1
50,50,-0.17357683629990261,-0.2,0.0,1.0,432.0,725.0,1.0,0,43.0,1
51,51,0.8543895592631195,0.9,0.0,0.0,270.0,821.0,0.0,1,69.0,1
52,52,-0.13438553925589958,-0.1,0.0,1.0,313.0,507.0,1.0,0,1360.0,1
53,53,-0.5941383597275862,-0.6,0.0,1.0,360.0,654.0,1.0,0,136.0,1
54,54,-0.8291295190176592,-0.8,0.0,1.0,301.0,655.0,1.0,0,274.0,1
55,55,0.42138296542410514,0.4,1.0,1.0,375.0,972.0,1.0,1,123.0,1
56,56,-0.018540328500599723,-0.0,0.0,1.0,379.0,578.0,1.0,0,583.0,1
57,57,0.31447084012946147,0.3,0.0,0.0,307.0,728.0,0.0,1,1345.0,1
58,58,0.7309224826913597,0.7,1.0,1.0,369.0,667.0,1.0,1,264.0,1
59,59,0.055694638842706645,0.1,0.0,0.0,479.0,601.0,0.0,1,3920.0,1
60,60,-0.40853662820179415,-0.4,0.0,1.0,446.0,789.0,1.0,0,275.0,1
61,61,0.5138203896154679,0.5,0.0,0.0,497.0,545.0,0.0,1,638.0,1
62,62,-0.02729571319930013,-0.0,0.0,1.0,470.0,798.0,1.0,0,912.0,1
63,63,0.2545441870134929,0.3,1.0,1.0,464.0,990.0,1.0,1,456.0,1
64,64,0.8449706343446356,0.8,1.0,1.0,281.0,559.0,1.0,1,80.0,1
65,65,-0.40423890689037195,-0.4,0.0,1.0,281.0,993.0,1.0,0,256.0,1
66,66,0.07976026956253279,0.1,1.0,1.0,308.0,825.0,0.0,0,3867.0,0
67,67,0.4102847976365439,0.4,1.0,1.0,398.0,519.0,1.0,1,563.0,1
68,68,0.4114488304598308,0.4,1.0,1.0,380.0,899.0,1.0,1,661.0,1
69,69,0.4692070743341722,0.5,0.0,0.0,347.0,829.0,0.0,1,824.0,1
70,70,-0.6048527509770131,-0.6,1.0,0.0,465.0,539.0,0.0,0,736.0,1
71,71,0.44675797801884987,0.4,0.0,0.0,279.0,950.0,0.0,1,951.0,1
72,72,0.631351071689955,0.6,1.0,1.0,391.0,716.0,1.0,1,323.0,1
73,73,-0.11099357309670421,-0.1,1.0,0.0,438.0,544.0,0.0,0,4018.0,1
74,74,0.5960545732470542,0.6,0.0,0.0,460.0,967.0,0.0,1,703.0,1
75,75,-0.8963203963755255,-0.9,1.0,0.0,487.0,568.0,0.0,0,1735.0,1
76,76,0.737462662484985,0.7,0.0,0.0,492.0,640.0,0.0,1,348.0,1
77,77,-0.301190513980359,-0.3,1.0,0.0,463.0,860.0,1.0,1,-363.0,0
78,78,-0.031159138190071656,-0.0,1.0,0.0,268.0,577.0,1.0,1,4155.0,0
79,79,-0.700311093081841,-0.7,1.0,0.0,367.0,532.0,0.0,0,1821.0,1
80,80,0.6664648679491655,0.7,0.0,0.0,282.0,729.0,0.0,1,219.0,1
81,81,0.3982849448156295,0.4,1.0,1.0,440.0,599.0,1.0,1,271.0,1
82,82,-0.30289249444117694,-0.3,0.0,1.0,392.0,718.0,1.0,0,100.0,1
83,83,-0.8830321175202287,-0.9,0.0,1.0,487.0,989.0,1.0,0,204.0,1
84,84,-0.4699689436527247,-0.5,0.0,1.0,481.0,696.0,1.0,0,623.0,1
85,85,-0.202953485715878,-0.2,0.0,1.0,332.0,777.0,1.0,0,911.0,1
86,86,0.09529102858166616,0.1,1.0,1.0,466.0,755.0,1.0,1,369.0,1
87,87,0.08602937069524652,0.1,1.0,1.0,398.0,683.0,1.0,1,149.0,1
88,88,0.13569001956484883,0.1,1.0,1.0,288.0,526.0,1.0,1,786.0,1
89,89,0.6065484024204012,0.6,0.0,0.0,452.0,828.0,0.0,1,440.0,1
90,90,0.2980494661240668,0.3,1.0,1.0,273.0,536.0,1.0,1,891.0,1
91,91,-0.34047776166575694,-0.3,1.0,0.0,443.0,938.0,1.0,1,-111.0,0
92,92,0.6477312946527264,0.6,0.0,0.0,416.0,535.0,0.0,1,529.0,1
93,93,0.8396444175743231,0.8,0.0,0.0,343.0,762.0,1.0,0,-25.0,0
94,94,0.7684746584017056,0.8,1.0,1.0,463.0,676.0,1.0,1,951.0,1
95,95,0.1852815185678497,0.2,0.0,0.0,286.0,802.0,0.0,1,1592.0,1
96,96,-0.8506477514419879,-0.9,1.0,0.0,357.0,899.0,0.0,0,824.0,1
97,97,0.6721788326134958,0.7,0.0,0.0,430.0,911.0,0.0,1,139.0,1
98,98,0.1080025049503982,0.1,1.0,1.0,442.0,832.0,1.0,1,2226.0,1
99,99,-0.703672650141296,-0.7,0.0,1.0,270.0,609.0,1.0,0,41.0,1
100,100,-0.2758179891727601,-0.3,1.0,0.0,419.0,565.0,0.0,0,2566.0,1
101,101,-0.7987196713989374,-0.8,0.0,1.0,321.0,632.0,1.0,0,127.0,1
102,102,-0.09648033744810702,-0.1,0.0,1.0,310.0,766.0,1.0,0,544.0,1
103,103,0.2710017085858528,0.3,0.0,0.0,275.0,530.0,0.0,1,1725.0,1
104,104,0.6815130948731535,0.7,0.0,0.0,288.0,893.0,0.0,1,299.0,1
105,105,0.8005808174433388,0.8,1.0,1.0,373.0,530.0,1.0,1,387.0,1
106,106,0.8566049136257482,0.9,1.0,1.0,443.0,777.0,1.0,1,240.0,1
107,107,0.6419133609603528,0.6,0.0,0.0,322.0,923.0,0.0,1,225.0,1
108,108,-0.23539561543816123,-0.2,1.0,0.0,481.0,866.0,0.0,0,983.0,1
109,109,0.4495096649183038,0.4,0.0,0.0,383.0,984.0,0.0,1,293.0,1
110,110,-0.32383450505247646,-0.3,0.0,1.0,474.0,933.0,1.0,0,803.0,1
111,111,0.30791526646947986,0.3,1.0,1.0,377.0,903.0,1.0,1,350.0,1
112,112,0.5961066012135386,0.6,0.0,0.0,282.0,762.0,1.0,0,-164.0,0
113,113,-0.14857115543657096,-0.1,0.0,1.0,365.0,777.0,1.0,0,378.0,1
114,114,0.6696380475156943,0.7,0.0,0.0,336.0,847.0,0.0,1,587.0,1
115,115,-0.565441808430885,-0.6,1.0,0.0,257.0,565.0,0.0,0,618.0,1
116,116,0.7833399196246146,0.8,0.0,0.0,314.0,561.0,0.0,1,185.0,1
117,117,0.6012343219379329,0.6,0.0,0.0,456.0,973.0,0.0,1,281.0,1
118,118,-0.5444686007181806,-0.5,1.0,0.0,346.0,925.0,0.0,0,569.0,1
119,119,0.3160814100683319,0.3,1.0,1.0,446.0,504.0,1.0,1,660.0,1
120,120,-0.23932484534525367,-0.2,0.0,1.0,380.0,765.0,1.0,0,755.0,1
121,121,-0.03918770396235316,-0.0,1.0,0.0,259.0,935.0,0.0,0,3806.0,1
122,122,-0.015674056323020435,-0.0,0.0,1.0,252.0,509.0,1.0,0,1259.0,1
123,123,0.6958295568879135,0.7,1.0,1.0,384.0,995.0,1.0,1,-389.0,1
124,124,-0.5249418426234864,-0.5,0.0,1.0,431.0,781.0,1.0,0,448.0,1
125,125,0.5268124604832872,0.5,1.0,1.0,284.0,653.0,1.0,1,443.0,1
126,126,0.19151934299295836,0.2,1.0,1.0,487.0,530.0,1.0,1,683.0,1
127,127,0.3661283627723967,0.4,0.0,0.0,427.0,899.0,1.0,0,-6.0,0
128,128,0.7576679587851324,0.8,1.0,1.0,457.0,937.0,1.0,1,426.0,1
129,129,-0.5110701626547177,-0.5,0.0,1.0,356.0,894.0,1.0,0,310.0,1
130,130,0.3994549119093057,0.4,0.0,0.0,258.0,658.0,0.0,1,544.0,1
131,131,0.4107895545022301,0.4,1.0,1.0,434.0,813.0,1.0,1,303.0,1
132,132,-0.22544781753341825,-0.2,1.0,0.0,310.0,929.0,0.0,0,3011.0,1
133,133,0.13892139173296691,0.1,1.0,1.0,348.0,621.0,1.0,1,641.0,1
134,134,0.12688562850211016,0.1,0.0,0.0,445.0,858.0,0.0,1,3697.0,1
135,135,-0.44619367424126566,-0.4,1.0,0.0,323.0,604.0,0.0,0,613.0,1
136,136,0.08491138410065502,0.1,1.0,1.0,313.0,700.0,1.0,1,677.0,1
137,137,0.4489979836245853,0.4,1.0,1.0,359.0,572.0,1.0,1,679.0,1
138,138,-0.10145337372075192,-0.1,1.0,0.0,301.0,508.0,0.0,0,4191.0,1
139,139,-0.4702926457907867,-0.5,1.0,0.0,499.0,664.0,0.0,0,467.0,1
140,140,0.4037661889921641,0.4,1.0,1.0,309.0,659.0,1.0,1,532.0,1
141,141,0.6550285466198046,0.7,0.0,0.0,422.0,942.0,0.0,1,336.0,1
142,142,-0.7003192293322456,-0.7,0.0,1.0,331.0,584.0,1.0,0,415.0,1
143,143,0.10123079365082421,0.1,1.0,1.0,487.0,735.0,1.0,1,2198.0,1
144,144,-0.445727145446545,-0.4,1.0,0.0,337.0,822.0,0.0,0,1221.0,1
145,145,-0.2812407572084443,-0.3,1.0,0.0,337.0,956.0,0.0,0,477.0,1
146,146,-0.6900872655349266,-0.7,1.0,0.0,251.0,862.0,0.0,0,467.0,1
147,147,-0.21476364777738366,-0.2,0.0,1.0,410.0,825.0,1.0,0,345.0,1
148,148,-0.2330193328591348,-0.2,0.0,1.0,470.0,810.0,1.0,0,370.0,1
149,149,0.7563436419176593,0.8,1.0,1.0,298.0,984.0,1.0,1,678.0,1
150,150,-0.4221474517426453,-0.4,1.0,0.0,250.0,928.0,0.0,0,712.0,1
151,151,-0.09404088603544536,-0.1,0.0,1.0,324.0,957.0,1.0,0,1579.0,1
152,152,0.3878884233556469,0.4,1.0,1.0,393.0,746.0,1.0,1,161.0,1
153,153,0.8740282909861025,0.9,1.0,1.0,398.0,571.0,1.0,1,181.0,1
154,154,0.0043137451009096495,0.0,0.0,0.0,453.0,791.0,1.0,0,296.0,0
155,155,0.58402808196191,0.6,1.0,1.0,406.0,975.0,1.0,1,489.0,1
156,156,0.45838056973748686,0.5,0.0,0.0,292.0,776.0,0.0,1,452.0,1
157,157,0.3561709038738924,0.4,1.0,1.0,453.0,718.0,1.0,1,549.0,1
158,158,-0.3379182391238684,-0.3,1.0,0.0,443.0,660.0,0.0,0,577.0,1
159,159,0.8628186484142227,0.9,0.0,0.0,413.0,685.0,0.0,1,312.0,1
160,160,-0.6615403817961416,-0.7,0.0,1.0,289.0,748.0,1.0,0,193.0,1
161,161,0.0614902043609421,0.1,0.0,0.0,256.0,578.0,1.0,0,1376.0,0
162,162,0.38821792083715734,0.4,0.0,0.0,451.0,750.0,0.0,1,609.0,1
163,163,-0.15608262955570673,-0.2,0.0,1.0,388.0,574.0,1.0,0,288.0,1
164,164,-0.06454007276781715,-0.1,0.0,1.0,321.0,718.0,1.0,0,1591.0,1
165,165,-0.32814675890117173,-0.3,1.0,0.0,291.0,592.0,1.0,1,17.0,0
166,166,0.11684983169805052,0.1,1.0,1.0,407.0,662.0,1.0,1,861.0,1
167,167,-0.5422507190479742,-0.5,0.0,1.0,287.0,845.0,1.0,0,578.0,1
168,168,-0.7010785084514529,-0.7,0.0,1.0,381.0,991.0,1.0,0,508.0,1
169,169,0.696821546600748,0.7,1.0,1.0,333.0,644.0,1.0,1,1183.0,1
170,170,0.01075375729781558,0.0,0.0,0.0,409.0,508.0,1.0,0,3403.0,0
171,171,-0.18776468378980082,-0.2,0.0,1.0,345.0,628.0,1.0,0,497.0,1
172,172,-0.40775182422066514,-0.4,0.0,1.0,436.0,698.0,1.0,0,56.0,1
173,173,-0.6255041415766682,-0.6,0.0,1.0,485.0,905.0,1.0,0,790.0,1
174,174,-0.7164153465573506,-0.7,0.0,1.0,262.0,935.0,1.0,0,83.0,1
175,175,0.06167941464537541,0.1,1.0,1.0,380.0,649.0,1.0,1,2711.0,1
176,176,0.5856214158550618,0.6,0.0,0.0,413.0,875.0,0.0,1,402.0,1
177,177,0.49793427119895817,0.5,1.0,1.0,300.0,601.0,1.0,1,439.0,1
178,178,-0.7890225661937244,-0.8,0.0,1.0,257.0,671.0,1.0,0,332.0,1
179,179,-0.5738553993619429,-0.6,0.0,1.0,488.0,595.0,1.0,0,417.0,1
180,180,-0.24200013254064634,-0.2,1.0,0.0,450.0,901.0,0.0,0,1019.0,1
181,181,0.6882286500304452,0.7,1.0,1.0,253.0,691.0,1.0,1,406.0,1
182,182,-0.07580565025927599,-0.1,1.0,0.0,378.0,869.0,1.0,1,653.0,0
183,183,-0.5675538460284437,-0.6,0.0,1.0,462.0,614.0,1.0,0,54.0,1
184,184,-0.08113767656060789,-0.1,1.0,0.0,488.0,860.0,1.0,1,2062.0,0
185,185,0.8218462092942068,0.8,1.0,1.0,372.0,811.0,1.0,1,177.0,1
186,186,-0.003974595108508505,-0.0,0.0,1.0,343.0,534.0,1.0,0,473.0,1
187,187,-0.6507299629021179,-0.7,1.0,0.0,385.0,763.0,0.0,0,622.0,1
188,188,0.001889217603259774,0.0,1.0,1.0,356.0,833.0,1.0,1,3761.0,1
189,189,-0.20219142977203142,-0.2,1.0,0.0,491.0,956.0,0.0,0,2303.0,1
190,190,-0.4293976842202642,-0.4,0.0,1.0,377.0,730.0,1.0,0,383.0,1
191,191,0.8304698262813007,0.8,0.0,0.0,473.0,870.0,0.0,1,397.0,1
192,192,0.35618527455989846,0.4,1.0,1.0,392.0,783.0,1.0,1,35.0,1
193,193,0.8934102464030759,0.9,1.0,1.0,251.0,913.0,1.0,1,156.0,1
194,194,-0.12597014579210974,-0.1,0.0,1.0,411.0,554.0,1.0,0,245.0,1
195,195,-0.5286128469935216,-0.5,0.0,1.0,379.0,748.0,1.0,0,303.0,1
196,196,-0.4511430978143473,-0.5,0.0,1.0,271.0,512.0,1.0,0,267.0,1
197,197,0.35473944692327286,0.4,1.0,1.0,289.0,943.0,1.0,1,448.0,1
198,198,0.14829600999982107,0.1,1.0,1.0,388.0,581.0,1.0,1,591.0,1
199,199,-0.03972417674013062,-0.0,0.0,1.0,370.0,971.0,1.0,0,-81.0,1
200,200,0.28674069679202596,0.3,0.0,0.0,445.0,510.0,0.0,1,1215.0,1
201,201,0.015488811785898449,0.0,1.0,1.0,430.0,924.0,1.0,1,3646.0,1
202,202,-0.0649131652604269,-0.1,0.0,1.0,356.0,597.0,1.0,0,557.0,1
203,203,0.8528977684170217,0.9,1.0,1.0,382.0,509.0,1.0,1,549.0,1
204,204,0.042379115411001256,0.0,0.0,0.0,357.0,654.0,1.0,0,1629.0,0
205,205,0.5009669146503958,0.5,0.0,0.0,318.0,626.0,0.0,1,666.0,1
206,206,0.5282932957218393,0.5,0.0,0.0,494.0,997.0,0.0,1,409.0,1
207,207,-0.6297873847520542,-0.6,1.0,0.0,402.0,509.0,0.0,0,669.0,1
208,208,0.4955154410828776,0.5,0.0,0.0,388.0,910.0,0.0,1,352.0,1
209,209,-0.17071062352209065,-0.2,0.0,1.0,460.0,924.0,1.0,0,636.0,1
210,210,0.3102165194514245,0.3,1.0,1.0,312.0,744.0,1.0,1,1174.0,1
211,211,-0.14432845020592366,-0.1,0.0,1.0,300.0,905.0,1.0,0,295.0,1
212,212,0.06006058007127535,0.1,0.0,0.0,358.0,638.0,1.0,0,4004.0,0
213,213,-0.21474603427354055,-0.2,1.0,0.0,324.0,540.0,0.0,0,3666.0,1
214,214,-0.027116650819268062,-0.0,1.0,0.0,439.0,576.0,1.0,1,2425.0,0
215,215,-0.18060558253628434,-0.2,0.0,1.0,278.0,864.0,1.0,0,458.0,1
216,216,0.04750888810374765,0.0,1.0,1.0,301.0,663.0,1.0,1,566.0,1
217,217,-0.6918856580823259,-0.7,1.0,0.0,479.0,892.0,0.0,0,279.0,1
218,218,0.8287911685375838,0.8,0.0,0.0,427.0,704.0,0.0,1,209.0,1
219,219,-0.7958543164163453,-0.8,1.0,0.0,474.0,524.0,0.0,0,372.0,1
220,220,-0.7226617519274379,-0.7,1.0,0.0,372.0,574.0,0.0,0,304.0,1
221,221,0.6370777169448413,0.6,0.0,0.0,491.0,686.0,0.0,1,443.0,1
222,222,-0.8591186953603984,-0.9,0.0,1.0,443.0,513.0,1.0,0,234.0,1
223,223,-0.2854707448892454,-0.3,1.0,0.0,467.0,658.0,0.0,0,1575.0,1
224,224,0.4310831639402545,0.4,1.0,1.0,486.0,525.0,1.0,1,339.0,1
225,225,-0.7982027911547936,-0.8,1.0,0.0,493.0,945.0,0.0,0,472.0,1
226,226,-0.8765211952570416,-0.9,0.0,1.0,453.0,978.0,1.0,0,99.0,1
227,227,0.5527397456612947,0.6,1.0,1.0,304.0,979.0,1.0,1,247.0,1
228,228,-0.23831798091615697,-0.2,1.0,0.0,293.0,792.0,0.0,0,805.0,1
229,229,0.46410771839605436,0.5,1.0,1.0,317.0,997.0,1.0,1,296.0,1
230,230,-0.18726972763623473,-0.2,1.0,0.0,390.0,986.0,0.0,0,534.0,1
231,231,-0.01935050160738927,-0.0,0.0,1.0,360.0,841.0,1.0,0,419.0,1
232,232,0.14672418853090174,0.1,0.0,0.0,448.0,625.0,0.0,1,1157.0,1
233,233,0.2740038287491485,0.3,0.0,0.0,353.0,644.0,0.0,1,1153.0,1
234,234,0.6581664915011681,0.7,1.0,1.0,319.0,635.0,1.0,1,216.0,1
235,235,-0.3130829141120458,-0.3,1.0,0.0,291.0,691.0,0.0,0,628.0,1
236,236,0.5725678469884997,0.6,0.0,0.0,434.0,777.0,0.0,1,809.0,1
237,237,-0.8439634626192519,-0.8,0.0,1.0,315.0,954.0,1.0,0,451.0,1
238,238,-0.4632455998113698,-0.5,1.0,0.0,299.0,636.0,0.0,0,605.0,1
239,239,0.23189400094677504,0.2,0.0,0.0,287.0,871.0,0.0,1,1292.0,1
240,240,-0.21340972311609485,-0.2,1.0,0.0,467.0,772.0,0.0,0,161.0,1
241,241,0.41942989108998685,0.4,1.0,1.0,382.0,887.0,1.0,1,201.0,1
242,242,-0.7261918029161722,-0.7,1.0,0.0,387.0,747.0,0.0,0,476.0,1
243,243,0.7601991688871065,0.8,0.0,0.0,313.0,785.0,0.0,1,412.0,1
244,244,-0.1446257521412303,-0.1,0.0,1.0,499.0,744.0,1.0,0,327.0,1
245,245,0.47450633348089666,0.5,1.0,1.0,392.0,889.0,1.0,1,259.0,1
246,246,0.5405238982274861,0.5,1.0,1.0,407.0,769.0,1.0,1,244.0,1
247,247,-0.4908640496299769,-0.5,0.0,1.0,324.0,823.0,1.0,0,273.0,1
248,248,0.38671863402660167,0.4,0.0,0.0,378.0,778.0,0.0,1,654.0,1
249,249,-0.36226448815793,-0.4,0.0,1.0,272.0,853.0,1.0,0,685.0,1
250,250,0.5868241250359466,0.6,0.0,0.0,316.0,908.0,1.0,0,-164.0,0
251,251,-0.6452798483446203,-0.6,0.0,1.0,267.0,752.0,1.0,0,351.0,1
252,252,0.2574024881949012,0.3,0.0,0.0,296.0,940.0,0.0,1,2494.0,1
253,253,-0.40432967721947727,-0.4,0.0,1.0,389.0,635.0,1.0,0,426.0,1
254,254,0.10153348079285973,0.1,0.0,0.0,486.0,721.0,1.0,0,413.0,0
255,255,-0.7661934775726313,-0.8,1.0,0.0,402.0,902.0,0.0,0,236.0,1
256,256,-0.5778287645057258,-0.6,1.0,0.0,412.0,570.0,0.0,0,368.0,1
257,257,-0.5542968357353613,-0.6,0.0,1.0,395.0,582.0,1.0,0,193.0,1
258,258,-0.59476323602154,-0.6,1.0,0.0,399.0,915.0,0.0,0,336.0,1
259,259,-0.2413152620879221,-0.2,0.0,1.0,431.0,869.0,1.0,0,-380.0,1
260,260,0.7273025355528479,0.7,1.0,1.0,435.0,846.0,1.0,1,-11.0,1
261,261,0.015800003917601613,0.0,0.0,0.0,495.0,660.0,1.0,0,405.0,0
262,262,0.48179039851862726,0.5,1.0,1.0,471.0,577.0,1.0,1,332.0,1
263,263,-0.5299457246868857,-0.5,0.0,1.0,381.0,520.0,1.0,0,129.0,1
264,264,-0.3279231795134727,-0.3,0.0,1.0,253.0,744.0,1.0,0,303.0,1
265,265,-0.3670077546148063,-0.4,1.0,0.0,480.0,544.0,0.0,0,686.0,1
266,266,0.7397487117365241,0.7,0.0,0.0,383.0,603.0,0.0,1,534.0,1
267,267,-0.020876639396851138,-0.0,0.0,1.0,429.0,730.0,1.0,0,1081.0,1
268,268,-0.00472418543347819,-0.0,0.0,1.0,314.0,876.0,1.0,0,2070.0,1
269,269,-0.7012921265648252,-0.7,1.0,0.0,309.0,715.0,0.0,0,236.0,1
270,270,0.6420612591683957,0.6,1.0,1.0,341.0,921.0,1.0,1,158.0,1
271,271,0.1638453276507882,0.2,0.0,0.0,254.0,855.0,0.0,1,2651.0,1
272,272,0.42340952896163586,0.4,1.0,1.0,356.0,649.0,1.0,1,305.0,1
273,273,0.8408853287687027,0.8,0.0,0.0,389.0,815.0,0.0,1,396.0,1
274,274,0.7826953666944111,0.8,0.0,0.0,409.0,662.0,1.0,0,-41.0,0
275,275,-0.37260274159865603,-0.4,0.0,1.0,262.0,742.0,1.0,0,756.0,1
276,276,-0.49845695910833987,-0.5,1.0,0.0,287.0,969.0,0.0,0,494.0,1
277,277,0.6738583331096605,0.7,1.0,1.0,497.0,919.0,1.0,1,304.0,1
278,278,0.35540287549915395,0.4,0.0,0.0,296.0,860.0,0.0,1,1234.0,1
279,279,0.6590365588177217,0.7,0.0,0.0,499.0,857.0,0.0,1,74.0,1
280,280,-0.7666242428300123,-0.8,0.0,1.0,462.0,938.0,1.0,0,-220.0,1
281,281,0.3198556044701958,0.3,0.0,0.0,274.0,722.0,0.0,1,864.0,1
282,282,-0.5513231978195223,-0.6,1.0,0.0,335.0,866.0,0.0,0,239.0,1
283,283,0.8311477963610342,0.8,1.0,1.0,468.0,808.0,1.0,1,644.0,1
284,284,-0.22837837453065624,-0.2,0.0,1.0,396.0,742.0,1.0,0,1092.0,1
285,285,-0.024834997180590346,-0.0,1.0,0.0,498.0,928.0,1.0,1,3574.0,0
286,286,0.0459796814156741,0.0,1.0,1.0,300.0,771.0,1.0,1,2559.0,1
287,287,-0.7484651701981273,-0.7,1.0,0.0,371.0,880.0,0.0,0,319.0,1
288,288,-0.7927199044125959,-0.8,1.0,0.0,387.0,907.0,0.0,0,936.0,1
289,289,0.4696992462433055,0.5,1.0,1.0,456.0,733.0,1.0,1,551.0,1
290,290,0.38295418849546403,0.4,1.0,1.0,353.0,719.0,1.0,1,558.0,1
291,291,-0.4446306509267663,-0.4,1.0,0.0,262.0,521.0,0.0,0,847.0,1
292,292,-0.2765059982869724,-0.3,1.0,0.0,303.0,807.0,0.0,0,710.0,1
293,293,-0.7681740839312341,-0.8,1.0,0.0,371.0,995.0,0.0,0,394.0,1
294,294,-0.4385255417402151,-0.4,1.0,0.0,263.0,501.0,0.0,0,826.0,1
295,295,0.6729782820842259,0.7,1.0,1.0,351.0,595.0,1.0,1,274.0,1
296,296,0.4629597994726059,0.5,1.0,1.0,385.0,596.0,1.0,1,349.0,1
297,297,0.7648523314691072,0.8,0.0,0.0,342.0,920.0,0.0,1,478.0,1
298,298,0.20418075776994404,0.2,1.0,1.0,311.0,688.0,1.0,1,1941.0,1
299,299,-0.8487333413436271,-0.8,1.0,0.0,364.0,909.0,0.0,0,417.0,1
300,300,0.6775690538027485,0.7,0.0,0.0,282.0,849.0,0.0,1,379.0,1
301,301,0.8642240489260188,0.9,1.0,1.0,277.0,871.0,1.0,1,132.0,1
302,302,0.6380355620236208,0.6,0.0,0.0,395.0,820.0,0.0,1,65.0,1
303,303,0.4058913881550762,0.4,0.0,0.0,484.0,880.0,0.0,1,666.0,1
304,304,-0.36968751577083125,-0.4,1.0,0.0,456.0,761.0,0.0,0,373.0,1
305,305,0.4444030129530593,0.4,1.0,1.0,383.0,774.0,1.0,1,403.0,1
306,306,-0.7344824776385483,-0.7,0.0,1.0,364.0,622.0,1.0,0,414.0,1
307,307,0.6934380582975436,0.7,1.0,1.0,341.0,574.0,1.0,1,515.0,1
308,308,-0.07936576589127176,-0.1,1.0,0.0,252.0,749.0,1.0,1,1529.0,0
309,309,0.7219206023667238,0.7,0.0,0.0,325.0,902.0,0.0,1,283.0,1
310,310,-0.12982510837962202,-0.1,1.0,0.0,417.0,984.0,0.0,0,3599.0,1
311,311,-0.7331264283792116,-0.7,1.0,0.0,365.0,621.0,0.0,0,224.0,1
312,312,0.5085340348065933,0.5,0.0,0.0,473.0,697.0,0.0,1,1040.0,1
313,313,-0.4714837286774674,-0.5,1.0,0.0,387.0,914.0,0.0,0,1259.0,1
314,314,0.7257279700820026,0.7,0.0,0.0,390.0,701.0,0.0,1,1699.0,1
315,315,-0.38529380438299254,-0.4,1.0,0.0,362.0,775.0,0.0,0,1133.0,1
316,316,-0.6772918847306566,-0.7,1.0,0.0,439.0,975.0,0.0,0,1046.0,1
317,317,0.18928348189747146,0.2,0.0,0.0,442.0,590.0,0.0,1,2508.0,1
318,318,0.03502320537503445,0.0,0.0,0.0,460.0,736.0,1.0,0,2824.0,0
319,319,-0.1989117738295454,-0.2,1.0,0.0,260.0,524.0,0.0,0,3726.0,1
320,320,0.5005270716622375,0.5,0.0,0.0,375.0,630.0,0.0,1,735.0,1
321,321,-0.3574722654434743,-0.4,0.0,1.0,374.0,894.0,1.0,0,492.0,1
322,322,0.02904911033503177,0.0,0.0,0.0,479.0,813.0,1.0,0,-32.0,0
323,323,0.3876534350166839,0.4,0.0,0.0,418.0,593.0,0.0,1,1349.0,1
324,324,0.3761123378601555,0.4,1.0,1.0,313.0,659.0,1.0,1,338.0,1
325,325,0.25139553766484124,0.3,0.0,0.0,410.0,626.0,0.0,1,554.0,1
326,326,-0.5335701653966642,-0.5,1.0,0.0,378.0,922.0,0.0,0,400.0,1
327,327,0.7000430063249289,0.7,1.0,1.0,441.0,965.0,1.0,1,444.0,1
328,328,0.20398346302920112,0.2,1.0,1.0,437.0,841.0,1.0,1,262.0,1
329,329,0.803323018006118,0.8,1.0,1.0,447.0,972.0,1.0,1,271.0,1
330,330,0.47018456027862376,0.5,1.0,1.0,345.0,973.0,1.0,1,452.0,1
331,331,0.7035119254535108,0.7,1.0,1.0,409.0,703.0,1.0,1,238.0,1
332,332,-0.30293244601324165,-0.3,1.0,0.0,394.0,996.0,0.0,0,2300.0,1
333,333,0.5041211116081813,0.5,0.0,0.0,256.0,914.0,1.0,0,70.0,0
334,334,-0.28942576970822476,-0.3,1.0,0.0,420.0,999.0,0.0,0,441.0,1
335,335,-0.02742854377720294,-0.0,0.0,1.0,283.0,902.0,1.0,0,1365.0,1
336,336,0.7139088243246164,0.7,1.0,1.0,448.0,548.0,1.0,1,344.0,1
337,337,-0.5355912297141048,-0.5,1.0,0.0,272.0,793.0,0.0,0,325.0,1
338,338,0.2952545840909867,0.3,0.0,0.0,461.0,994.0,0.0,1,355.0,1
339,339,-0.34211325213151067,-0.3,1.0,0.0,454.0,500.0,0.0,0,656.0,1
340,340,0.04168219326763334,0.0,0.0,0.0,400.0,940.0,1.0,0,120.0,0
341,341,0.814090414147269,0.8,0.0,0.0,344.0,584.0,0.0,1,492.0,1
342,342,-0.2817160703336493,-0.3,1.0,0.0,353.0,969.0,0.0,0,3678.0,1
343,343,0.02089753255192839,0.0,1.0,1.0,429.0,787.0,1.0,1,1474.0,1
344,344,-0.2651467293655182,-0.3,0.0,1.0,315.0,668.0,1.0,0,317.0,1
345,345,-0.6750427547354743,-0.7,0.0,1.0,402.0,707.0,1.0,0,121.0,1
346,346,0.5645132807329106,0.6,1.0,1.0,307.0,878.0,1.0,1,465.0,1
347,347,-0.1880261548795945,-0.2,0.0,1.0,337.0,662.0,1.0,0,511.0,1
348,348,-0.5922950692914104,-0.6,1.0,0.0,476.0,801.0,0.0,0,493.0,1
349,349,0.6627404479299847,0.7,0.0,0.0,428.0,782.0,0.0,1,280.0,1
350,350,-0.4550581477149856,-0.5,0.0,1.0,289.0,545.0,1.0,0,96.0,1
351,351,0.11052433917902371,0.1,0.0,0.0,316.0,983.0,0.0,1,3601.0,1
352,352,-0.4002687087090374,-0.4,1.0,0.0,377.0,577.0,0.0,0,276.0,1
353,353,0.12336716538536174,0.1,1.0,1.0,315.0,641.0,1.0,1,1914.0,1
354,354,-0.33196412786486296,-0.3,0.0,1.0,370.0,815.0,1.0,0,535.0,1
355,355,-0.6890556503778403,-0.7,0.0,1.0,278.0,916.0,1.0,0,206.0,1
356,356,-0.6174448150713387,-0.6,1.0,0.0,260.0,614.0,0.0,0,476.0,1
357,357,0.714355713761342,0.7,0.0,0.0,449.0,614.0,0.0,1,237.0,1
358,358,0.41663968718299127,0.4,0.0,0.0,471.0,547.0,0.0,1,532.0,1
359,359,0.1908970605927659,0.2,0.0,0.0,379.0,944.0,0.0,1,1367.0,1
360,360,0.7205463914456286,0.7,0.0,0.0,437.0,587.0,0.0,1,606.0,1
361,361,-0.591174659928021,-0.6,0.0,1.0,413.0,799.0,1.0,0,408.0,1
362,362,-0.6427730262356828,-0.6,0.0,1.0,471.0,893.0,1.0,0,366.0,1
363,363,-0.2625831225463463,-0.3,1.0,0.0,338.0,791.0,0.0,0,2751.0,1
364,364,-0.49898868086180154,-0.5,0.0,1.0,264.0,825.0,1.0,0,221.0,1
365,365,-0.6980915883985939,-0.7,1.0,0.0,255.0,506.0,0.0,0,439.0,1
366,366,0.8498583983131923,0.8,0.0,0.0,385.0,619.0,0.0,1,536.0,1
367,367,0.5750345364411821,0.6,0.0,0.0,455.0,729.0,0.0,1,216.0,1
368,368,0.2224251268957408,0.2,0.0,0.0,287.0,843.0,0.0,1,2240.0,1
369,369,-0.17020792711946697,-0.2,1.0,0.0,343.0,782.0,0.0,0,3285.0,1
370,370,-0.0616740977448913,-0.1,0.0,1.0,304.0,863.0,1.0,0,583.0,1
371,371,0.1971251491488878,0.2,1.0,1.0,480.0,779.0,1.0,1,841.0,1
372,372,0.39121167103618115,0.4,1.0,1.0,354.0,918.0,1.0,1,728.0,1
373,373,-0.7585188615474252,-0.8,1.0,0.0,415.0,795.0,1.0,1,-520.0,0
374,374,-0.7178095448560218,-0.7,0.0,1.0,416.0,714.0,1.0,0,250.0,1
375,375,-0.14964586535446667,-0.1,1.0,0.0,379.0,759.0,0.0,0,3862.0,1
376,376,-0.5911443532372043,-0.6,0.0,1.0,345.0,660.0,1.0,0,505.0,1
377,377,0.7366771753589706,0.7,0.0,0.0,469.0,813.0,0.0,1,318.0,1
378,378,0.2776424737036972,0.3,0.0,0.0,265.0,828.0,0.0,1,1357.0,1
379,379,0.8873846049238782,0.9,0.0,0.0,380.0,558.0,0.0,1,532.0,1
380,380,0.5808640562603934,0.6,1.0,1.0,288.0,954.0,1.0,1,178.0,1
381,381,-0.11769124037905032,-0.1,1.0,0.0,369.0,622.0,1.0,1,4009.0,0
382,382,-0.37515648058087103,-0.4,1.0,0.0,366.0,555.0,0.0,0,1229.0,1
383,383,-0.7522760525178436,-0.8,0.0,1.0,357.0,745.0,1.0,0,278.0,1
384,384,0.780152932935846,0.8,1.0,1.0,391.0,602.0,1.0,1,137.0,1
385,385,-0.4897584126520634,-0.5,1.0,0.0,471.0,568.0,0.0,0,461.0,1
386,386,0.3264379138445649,0.3,0.0,0.0,498.0,771.0,0.0,1,251.0,1
387,387,0.4064841239784026,0.4,1.0,1.0,272.0,639.0,1.0,1,1679.0,1
388,388,-0.8114449266116276,-0.8,1.0,0.0,306.0,776.0,0.0,0,278.0,1
389,389,-0.22746115502875297,-0.2,1.0,0.0,285.0,647.0,0.0,0,2678.0,1
390,390,0.1615801100793407,0.2,1.0,1.0,335.0,642.0,1.0,1,543.0,1
391,391,0.731498796571349,0.7,1.0,1.0,319.0,689.0,1.0,1,52.0,1
392,392,0.5499981422650423,0.5,1.0,1.0,264.0,793.0,1.0,1,383.0,1
393,393,0.5127508075618253,0.5,1.0,1.0,265.0,599.0,1.0,1,686.0,1
394,394,0.8445671103322917,0.8,1.0,1.0,396.0,663.0,1.0,1,651.0,1
395,395,-0.4011009128648509,-0.4,1.0,0.0,456.0,706.0,0.0,0,218.0,1
396,396,-0.6089602193468597,-0.6,1.0,0.0,284.0,661.0,0.0,0,175.0,1
397,397,-0.14688883511112216,-0.1,1.0,0.0,310.0,546.0,1.0,1,4144.0,0
398,398,0.16783144070833023,0.2,1.0,1.0,405.0,719.0,1.0,1,276.0,1
399,399,-0.838022608672802,-0.8,0.0,1.0,316.0,621.0,1.0,0,263.0,1
400,400,0.09597623943196587,0.1,1.0,1.0,436.0,863.0,1.0,1,791.0,1
401,401,-0.2882867777094562,-0.3,0.0,1.0,338.0,811.0,1.0,0,-219.0,1
402,402,-0.0630046366978535,-0.1,0.0,1.0,300.0,935.0,1.0,0,685.0,1
403,403,0.3205399398362708,0.3,1.0,1.0,368.0,944.0,1.0,1,348.0,1
404,404,-0.3042201500421523,-0.3,1.0,0.0,354.0,783.0,0.0,0,1773.0,1
405,405,-0.18639641051048073,-0.2,0.0,1.0,310.0,526.0,1.0,0,1244.0,1
406,406,-0.7945197761230405,-0.8,0.0,1.0,256.0,980.0,1.0,0,104.0,1
407,407,-0.6596936425132989,-0.7,1.0,0.0,254.0,908.0,0.0,0,418.0,1
408,408,0.8100545218087866,0.8,0.0,0.0,452.0,841.0,0.0,1,467.0,1
409,409,-0.5862211986139528,-0.6,1.0,0.0,291.0,523.0,0.0,0,786.0,1
410,410,-0.6383911631416376,-0.6,1.0,0.0,417.0,913.0,0.0,0,330.0,1
411,411,0.817362556896161,0.8,0.0,0.0,293.0,595.0,0.0,1,202.0,1
412,412,-0.8712922495096693,-0.9,1.0,0.0,348.0,501.0,0.0,0,1591.0,1
413,413,-0.1304228004302248,-0.1,1.0,0.0,273.0,596.0,0.0,0,2381.0,1
414,414,-0.8153917354015865,-0.8,0.0,1.0,335.0,601.0,1.0,0,254.0,1
415,415,-0.3596132506681444,-0.4,1.0,0.0,350.0,879.0,0.0,0,831.0,1
416,416,-0.4492990212658363,-0.4,0.0,1.0,281.0,581.0,1.0,0,418.0,1
417,417,-0.4778667999414368,-0.5,1.0,0.0,455.0,564.0,0.0,0,441.0,1
418,418,-0.8496821135543742,-0.8,1.0,0.0,336.0,501.0,0.0,0,303.0,1
419,419,0.04100851541670336,0.0,0.0,0.0,356.0,963.0,1.0,0,101.0,0
420,420,0.11948276365284116,0.1,0.0,0.0,335.0,747.0,0.0,1,1368.0,1
421,421,-0.7175147923244026,-0.7,0.0,1.0,320.0,715.0,1.0,0,405.0,1
422,422,0.4080759191858351,0.4,0.0,0.0,260.0,611.0,0.0,1,89.0,1
423,423,-0.5707369251023887,-0.6,1.0,0.0,487.0,520.0,0.0,0,433.0,1
424,424,0.7572682785343107,0.8,0.0,0.0,405.0,982.0,0.0,1,613.0,1
425,425,-0.5342267850644595,-0.5,1.0,0.0,286.0,967.0,0.0,0,457.0,1
426,426,-0.7679874255257962,-0.8,0.0,1.0,256.0,775.0,1.0,0,229.0,1
427,427,-0.792343672855058,-0.8,0.0,1.0,346.0,721.0,1.0,0,-97.0,1
428,428,0.6250610313166324,0.6,1.0,1.0,383.0,622.0,1.0,1,15.0,1
429,429,-0.23978299944221515,-0.2,1.0,0.0,482.0,919.0,0.0,0,249.0,1
430,430,0.3474849892346511,0.3,1.0,1.0,277.0,677.0,1.0,1,676.0,1
431,431,-0.6518488377068086,-0.7,0.0,1.0,416.0,751.0,1.0,0,683.0,1
432,432,-0.8001833853108714,-0.8,1.0,0.0,469.0,712.0,0.0,0,209.0,1
433,433,-0.03480218574726379,-0.0,0.0,1.0,295.0,908.0,1.0,0,-243.0,1
434,434,0.06402183173340814,0.1,1.0,1.0,432.0,746.0,1.0,1,2352.0,1
435,435,0.5759057868078522,0.6,0.0,0.0,326.0,681.0,0.0,1,663.0,1
436,436,-0.8862422524954264,-0.9,1.0,0.0,462.0,963.0,0.0,0,325.0,1
437,437,0.675554000942613,0.7,0.0,0.0,354.0,968.0,0.0,1,128.0,1
438,438,0.4282467752843705,0.4,1.0,1.0,428.0,626.0,1.0,1,356.0,1
439,439,-0.4124224859083426,-0.4,0.0,1.0,497.0,832.0,1.0,0,251.0,1
440,440,-0.4901145261001323,-0.5,1.0,0.0,358.0,691.0,0.0,0,191.0,1
441,441,0.42940727139263657,0.4,1.0,1.0,437.0,829.0,1.0,1,564.0,1
442,442,-0.12635893249973473,-0.1,0.0,1.0,394.0,812.0,1.0,0,634.0,1
443,443,0.06794464994089455,0.1,0.0,0.0,345.0,544.0,1.0,0,1041.0,0
444,444,-0.6887153462598831,-0.7,0.0,1.0,458.0,715.0,1.0,0,227.0,1
445,445,0.2262126493627986,0.2,1.0,1.0,274.0,547.0,1.0,1,159.0,1
446,446,0.868913041334984,0.9,1.0,1.0,326.0,697.0,1.0,1,167.0,1
447,447,0.3910217450408503,0.4,0.0,0.0,353.0,529.0,0.0,1,668.0,1
448,448,0.05869228456092246,0.1,1.0,1.0,368.0,967.0,1.0,1,505.0,1
449,449,0.5135942934374867,0.5,0.0,0.0,412.0,979.0,1.0,0,-91.0,0
450,450,-0.2560680270775141,-0.3,0.0,1.0,337.0,700.0,1.0,0,363.0,1
451,451,-0.5870939913778886,-0.6,0.0,1.0,495.0,989.0,1.0,0,246.0,1
452,452,0.4267875415056027,0.4,1.0,1.0,270.0,820.0,1.0,1,400.0,1
453,453,0.1572098048968843,0.2,0.0,0.0,263.0,873.0,0.0,1,3614.0,1
454,454,-0.03617100924262262,-0.0,1.0,0.0,261.0,769.0,1.0,1,3970.0,0
455,455,-0.5004750186001617,-0.5,1.0,0.0,443.0,603.0,0.0,0,544.0,1
456,456,-0.5566082421680278,-0.6,0.0,1.0,407.0,959.0,1.0,0,254.0,1
457,457,0.3021885282280824,0.3,1.0,1.0,265.0,946.0,1.0,1,759.0,1
458,458,0.6954030722026064,0.7,1.0,1.0,359.0,778.0,1.0,1,23.0,1
459,459,0.8283663271355209,0.8,1.0,1.0,268.0,605.0,1.0,1,687.0,1
460,460,-0.11718411198843803,-0.1,0.0,1.0,338.0,589.0,1.0,0,1813.0,1
461,461,-0.6353065079326701,-0.6,0.0,1.0,345.0,745.0,1.0,0,250.0,1
462,462,-0.35868795471882986,-0.4,1.0,0.0,481.0,874.0,0.0,0,785.0,1
463,463,0.2702166095941264,0.3,1.0,1.0,400.0,961.0,1.0,1,969.0,1
464,464,-0.5540958880431133,-0.6,0.0,1.0,485.0,816.0,1.0,0,369.0,1
465,465,-0.18462674156969794,-0.2,1.0,0.0,478.0,790.0,0.0,0,2972.0,1
466,466,-0.7921443603822487,-0.8,0.0,1.0,382.0,641.0,1.0,0,157.0,1
467,467,-0.3533452633138626,-0.4,1.0,0.0,485.0,660.0,0.0,0,505.0,1
468,468,-0.11222674517031783,-0.1,1.0,0.0,253.0,732.0,0.0,0,4015.0,1
469,469,0.5120483911922801,0.5,0.0,0.0,255.0,728.0,0.0,1,157.0,1
470,470,-0.8681929633258332,-0.9,1.0,0.0,468.0,938.0,0.0,0,154.0,1
471,471,-0.26044131318607067,-0.3,0.0,1.0,299.0,590.0,1.0,0,321.0,1
472,472,0.2473763239047767,0.2,0.0,0.0,377.0,598.0,0.0,1,2135.0,1
473,473,-0.812711539135217,-0.8,1.0,0.0,301.0,734.0,0.0,0,2115.0,1
474,474,0.2947035808496806,0.3,0.0,0.0,466.0,719.0,0.0,1,1945.0,1
475,475,-0.8713804806709842,-0.9,1.0,0.0,259.0,658.0,0.0,0,363.0,1
476,476,0.03835109065283204,0.0,0.0,0.0,414.0,725.0,1.0,0,-59.0,0
477,477,-0.8603301011663178,-0.9,1.0,0.0,335.0,582.0,0.0,0,693.0,1
478,478,-0.5083103784711621,-0.5,1.0,0.0,480.0,530.0,0.0,0,1840.0,1
479,479,-0.12021136186883208,-0.1,0.0,1.0,450.0,803.0,1.0,0,557.0,1
480,480,0.48351408310575017,0.5,1.0,1.0,301.0,638.0,1.0,1,491.0,1
481,481,-0.06506630416340364,-0.1,0.0,1.0,302.0,858.0,1.0,0,900.0,1
482,482,0.43847607226814367,0.4,1.0,1.0,257.0,993.0,1.0,1,1370.0,1
483,483,0.3564945775783791,0.4,1.0,1.0,430.0,641.0,1.0,1,419.0,1
484,484,0.7060361308161066,0.7,0.0,0.0,420.0,686.0,0.0,1,2064.0,1
485,485,0.3356458063318096,0.3,0.0,0.0,487.0,542.0,0.0,1,1051.0,1
486,486,0.5599226207156583,0.6,0.0,0.0,426.0,673.0,0.0,1,1021.0,1
487,487,0.8210613987125651,0.8,1.0,1.0,394.0,852.0,1.0,1,64.0,1
488,488,-0.806333219223669,-0.8,0.0,1.0,286.0,530.0,1.0,0,354.0,1
489,489,-0.2912443841517467,-0.3,0.0,1.0,444.0,621.0,1.0,0,105.0,1
490,490,0.6042365423255186,0.6,1.0,1.0,451.0,764.0,1.0,1,225.0,1
491,491,-0.29949499609498453,-0.3,1.0,0.0,445.0,586.0,0.0,0,789.0,1
492,492,-0.6604186700843776,-0.7,1.0,0.0,377.0,857.0,0.0,0,476.0,1
493,493,-0.3876761672304746,-0.4,1.0,0.0,393.0,529.0,0.0,0,758.0,1
494,494,0.6793118410503608,0.7,0.0,0.0,396.0,724.0,0.0,1,1000.0,1
495,495,-0.11883884286124113,-0.1,1.0,0.0,435.0,500.0,0.0,0,955.0,1
496,496,-0.865989146636055,-0.9,0.0,1.0,283.0,746.0,1.0,0,231.0,1
497,497,-0.04470853814811637,-0.0,1.0,0.0,405.0,780.0,1.0,1,485.0,0
498,498,-0.5633045576962585,-0.6,1.0,0.0,496.0,985.0,0.0,0,1089.0,1
499,499,-0.6850469408565903,-0.7,1.0,0.0,462.0,899.0,0.0,0,259.0,1
500,500,0.2969776735894537,0.3,0.0,0.0,277.0,993.0,0.0,1,1030.0,1
501,501,0.661348034491292,0.7,0.0,0.0,333.0,977.0,0.0,1,290.0,1
502,502,0.17191218858546542,0.2,0.0,0.0,461.0,901.0,0.0,1,2168.0,1
503,503,-0.8505369943675243,-0.9,0.0,1.0,465.0,811.0,1.0,0,74.0,1
504,504,0.5442170915135073,0.5,0.0,0.0,486.0,537.0,0.0,1,497.0,1
505,505,-0.32783106622023495,-0.3,1.0,0.0,479.0,687.0,0.0,0,664.0,1
506,506,0.6129829828813876,0.6,0.0,0.0,396.0,811.0,0.0,1,523.0,1
507,507,-0.35384531564258603,-0.4,0.0,1.0,306.0,515.0,1.0,0,779.0,1
508,508,0.42698498110636296,0.4,0.0,0.0,417.0,784.0,0.0,1,1159.0,1
509,509,0.049327580952384764,0.0,1.0,1.0,493.0,728.0,1.0,1,3079.0,1
510,510,-0.42999631786292186,-0.4,0.0,1.0,265.0,529.0,1.0,0,136.0,1
511,511,-0.03366428449051162,-0.0,1.0,0.0,266.0,504.0,1.0,1,4230.0,0
512,512,-0.4120390768662333,-0.4,0.0,1.0,383.0,737.0,1.0,0,530.0,1
513,513,-0.2862999070692942,-0.3,0.0,1.0,360.0,978.0,1.0,0,622.0,1
514,514,0.0023236455964369407,0.0,0.0,0.0,288.0,644.0,1.0,0,1278.0,0
515,515,-0.2608570714149734,-0.3,0.0,1.0,475.0,602.0,0.0,1,-17.0,0
516,516,0.5979411937353457,0.6,1.0,1.0,276.0,712.0,1.0,1,1262.0,1
517,517,0.271395746685429,0.3,1.0,1.0,352.0,616.0,1.0,1,512.0,1
518,518,0.6423578734332861,0.6,0.0,0.0,301.0,885.0,0.0,1,494.0,1
519,519,0.42297406465013065,0.4,0.0,0.0,399.0,607.0,0.0,1,744.0,1
520,520,0.7918615969963708,0.8,1.0,1.0,403.0,504.0,1.0,1,493.0,1
521,521,0.7234229871602978,0.7,1.0,1.0,476.0,658.0,1.0,1,306.0,1
522,522,-0.6104279183335253,-0.6,1.0,0.0,392.0,872.0,0.0,0,636.0,1
523,523,-0.35816822596313447,-0.4,0.0,1.0,348.0,663.0,1.0,0,529.0,1
524,524,-0.843122220481233,-0.8,0.0,1.0,358.0,878.0,1.0,0,174.0,1
525,525,0.0014171879171492874,0.0,1.0,1.0,251.0,874.0,1.0,1,3875.0,1
526,526,0.21899800349040321,0.2,1.0,1.0,432.0,700.0,1.0,1,498.0,1
527,527,-0.6781309712714481,-0.7,0.0,1.0,254.0,970.0,1.0,0,426.0,1
528,528,-0.8973669116735827,-0.9,0.0,1.0,482.0,592.0,1.0,0,396.0,1
529,529,0.5569214997411013,0.6,0.0,0.0,397.0,574.0,0.0,1,489.0,1
530,530,-0.7864183314184139,-0.8,1.0,0.0,386.0,574.0,0.0,0,-40.0,1
531,531,0.39784404841638266,0.4,1.0,1.0,403.0,563.0,1.0,1,294.0,1
532,532,0.3198943771913719,0.3,0.0,0.0,364.0,545.0,0.0,1,1681.0,1
533,533,0.3141975670586744,0.3,0.0,0.0,497.0,957.0,0.0,1,936.0,1
534,534,-0.6034519112800797,-0.6,1.0,0.0,397.0,894.0,0.0,0,449.0,1
535,535,-0.7870009386290474,-0.8,0.0,1.0,429.0,808.0,1.0,0,103.0,1
536,536,0.629471631544278,0.6,0.0,0.0,286.0,600.0,0.0,1,424.0,1
537,537,0.8592062760510945,0.9,1.0,1.0,485.0,618.0,1.0,1,387.0,1
538,538,0.8018684006060809,0.8,0.0,0.0,327.0,956.0,1.0,0,-113.0,0
539,539,0.12231267940260382,0.1,1.0,1.0,313.0,858.0,1.0,1,829.0,1
540,540,0.40661326708818046,0.4,0.0,0.0,395.0,527.0,0.0,1,1408.0,1
541,541,-0.7002846978166433,-0.7,0.0,1.0,313.0,519.0,1.0,0,178.0,1
542,542,0.8364795625462175,0.8,1.0,1.0,490.0,507.0,1.0,1,443.0,1
543,543,-0.06188585296984772,-0.1,0.0,1.0,334.0,511.0,1.0,0,385.0,1
544,544,-0.2741332758059474,-0.3,0.0,1.0,429.0,947.0,1.0,0,124.0,1
545,545,0.3810718617214678,0.4,1.0,1.0,451.0,851.0,1.0,1,398.0,1
546,546,0.2386325056436821,0.2,1.0,1.0,307.0,932.0,1.0,1,1841.0,1
547,547,0.4693923330782789,0.5,0.0,0.0,420.0,661.0,0.0,1,529.0,1
548,548,-0.009203078265776377,-0.0,1.0,0.0,317.0,807.0,1.0,1,3706.0,0
549,549,-0.645297136898811,-0.6,0.0,1.0,406.0,647.0,1.0,0,-203.0,1
550,550,-0.5240170509545954,-0.5,0.0,1.0,378.0,594.0,1.0,0,548.0,1
551,551,-0.41323967154691665,-0.4,0.0,1.0,296.0,927.0,1.0,0,127.0,1
552,552,0.021560211688959163,0.0,0.0,0.0,366.0,609.0,1.0,0,4025.0,0
553,553,-0.4023237394414815,-0.4,0.0,1.0,336.0,782.0,1.0,0,172.0,1
554,554,0.07073934561927475,0.1,0.0,0.0,470.0,690.0,0.0,1,10.0,1
555,555,0.5935705330775073,0.6,0.0,0.0,270.0,809.0,1.0,0,-149.0,0
556,556,-0.399910350859071,-0.4,1.0,0.0,404.0,975.0,0.0,0,411.0,1
557,557,0.5545112465917156,0.6,1.0,1.0,472.0,993.0,1.0,1,685.0,1
558,558,-0.7934700821767597,-0.8,0.0,1.0,433.0,909.0,1.0,0,138.0,1
559,559,-0.4685335353962429,-0.5,1.0,0.0,335.0,640.0,0.0,0,245.0,1
560,560,0.29312291026214277,0.3,1.0,1.0,432.0,528.0,1.0,1,730.0,1
561,561,-0.5276291982790902,-0.5,0.0,1.0,438.0,572.0,1.0,0,160.0,1
562,562,-0.7147778278535979,-0.7,0.0,1.0,391.0,640.0,1.0,0,69.0,1
563,563,-0.7414258249911541,-0.7,1.0,0.0,482.0,998.0,0.0,0,290.0,1
564,564,0.787404894323798,0.8,1.0,1.0,341.0,731.0,1.0,1,178.0,1
565,565,-0.15780288795313768,-0.2,1.0,0.0,412.0,881.0,0.0,0,2697.0,1
566,566,0.16047190136781786,0.2,1.0,1.0,459.0,836.0,1.0,1,1865.0,1
567,567,-0.6521690171758993,-0.7,0.0,1.0,311.0,956.0,1.0,0,553.0,1
568,568,-0.1541011638976736,-0.2,1.0,0.0,319.0,552.0,0.0,0,1369.0,1
569,569,-0.1789916795139952,-0.2,0.0,1.0,357.0,890.0,1.0,0,203.0,1
570,570,0.7784686680880216,0.8,1.0,1.0,330.0,740.0,1.0,1,210.0,1
571,571,-0.49601841783408024,-0.5,0.0,1.0,271.0,511.0,1.0,0,178.0,1
572,572,-0.8016998237587745,-0.8,0.0,1.0,472.0,674.0,1.0,0,404.0,1
573,573,0.129466864084829,0.1,1.0,1.0,404.0,994.0,1.0,1,652.0,1
574,574,0.8521794169217954,0.9,0.0,0.0,476.0,866.0,0.0,1,398.0,1
575,575,0.024767124831268084,0.0,0.0,0.0,497.0,870.0,0.0,1,1803.0,1
576,576,0.8315745362422463,0.8,0.0,0.0,327.0,723.0,0.0,1,870.0,1
577,577,0.7329641873239122,0.7,0.0,0.0,294.0,529.0,0.0,1,777.0,1
578,578,-0.19039051582791588,-0.2,1.0,0.0,491.0,670.0,0.0,0,859.0,1
579,579,0.5721686713476656,0.6,0.0,0.0,301.0,695.0,0.0,1,274.0,1
580,580,0.8140514721291453,0.8,1.0,1.0,288.0,870.0,1.0,1,272.0,1
581,581,-0.4112194169683598,-0.4,0.0,1.0,483.0,802.0,1.0,0,455.0,1
582,582,0.6225872656982309,0.6,0.0,0.0,497.0,639.0,0.0,1,624.0,1
583,583,-0.4909033146631817,-0.5,1.0,0.0,357.0,613.0,0.0,0,790.0,1
584,584,0.4303952440712001,0.4,1.0,1.0,298.0,671.0,1.0,1,631.0,1
585,585,0.5958761484563827,0.6,0.0,0.0,428.0,777.0,0.0,1,555.0,1
586,586,0.7732161945926855,0.8,1.0,1.0,426.0,869.0,1.0,1,265.0,1
587,587,0.6997452113532711,0.7,0.0,0.0,302.0,597.0,0.0,1,941.0,1
588,588,0.8455321154391447,0.8,1.0,1.0,271.0,848.0,1.0,1,151.0,1
589,589,0.11717908287478462,0.1,1.0,1.0,437.0,903.0,1.0,1,1870.0,1
590,590,0.6266056469523541,0.6,1.0,1.0,431.0,862.0,1.0,1,427.0,1
591,591,0.32438290942184234,0.3,1.0,1.0,496.0,513.0,1.0,1,581.0,1
592,592,-0.03719937320493061,-0.0,1.0,0.0,292.0,504.0,1.0,1,1214.0,0
593,593,-0.8554511898963993,-0.9,1.0,0.0,442.0,926.0,0.0,0,372.0,1
594,594,-0.8503827368677853,-0.9,0.0,1.0,279.0,727.0,1.0,0,194.0,1
595,595,0.12289279883693827,0.1,0.0,0.0,270.0,933.0,0.0,1,1367.0,1
596,596,-0.6366654973117978,-0.6,0.0,1.0,310.0,947.0,1.0,0,383.0,1
597,597,-0.6582294730313509,-0.7,1.0,0.0,341.0,747.0,0.0,0,472.0,1
598,598,-0.23647324466392172,-0.2,0.0,1.0,454.0,943.0,1.0,0,523.0,1
599,599,0.4105947683436396,0.4,0.0,0.0,353.0,784.0,0.0,1,823.0,1
600,600,0.2547915858185398,0.3,1.0,1.0,300.0,616.0,1.0,1,534.0,1
601,601,-0.08009858986270701,-0.1,1.0,0.0,405.0,881.0,0.0,0,2054.0,1
602,602,-0.8418912540818219,-0.8,1.0,0.0,370.0,817.0,0.0,0,573.0,1
603,603,-0.05246938139996238,-0.1,1.0,0.0,422.0,641.0,0.0,0,1747.0,1
604,604,-0.8331991363834867,-0.8,0.0,1.0,335.0,551.0,1.0,0,154.0,1
605,605,-0.07590703886226113,-0.1,0.0,1.0,371.0,818.0,1.0,0,1321.0,1
606,606,0.6336026648584819,0.6,1.0,1.0,333.0,719.0,1.0,1,568.0,1
607,607,-0.855416867663496,-0.9,1.0,0.0,274.0,530.0,0.0,0,286.0,1
608,608,0.6884403026667466,0.7,1.0,1.0,440.0,826.0,1.0,1,204.0,1
609,609,0.16685567697101844,0.2,1.0,1.0,352.0,737.0,1.0,1,1021.0,1
610,610,0.15934503582597104,0.2,1.0,1.0,333.0,947.0,1.0,1,50.0,1
611,611,-0.3938477001161763,-0.4,1.0,0.0,321.0,965.0,0.0,0,654.0,1
612,612,0.6702024702182313,0.7,0.0,0.0,415.0,925.0,0.0,1,310.0,1
613,613,0.5597536387250331,0.6,1.0,1.0,350.0,541.0,1.0,1,499.0,1
614,614,-0.18633240909081406,-0.2,0.0,1.0,467.0,808.0,1.0,0,215.0,1
615,615,-0.3705423003049597,-0.4,0.0,1.0,272.0,515.0,1.0,0,543.0,1
616,616,0.8323910817783117,0.8,0.0,0.0,295.0,772.0,0.0,1,1223.0,1
617,617,-0.5306395474147331,-0.5,1.0,0.0,297.0,654.0,0.0,0,589.0,1
618,618,0.06354227255810874,0.1,1.0,1.0,381.0,870.0,1.0,1,3749.0,1
619,619,0.6107489896106829,0.6,1.0,1.0,443.0,583.0,1.0,1,334.0,1
620,620,-0.050514279489587866,-0.1,0.0,1.0,462.0,763.0,1.0,0,775.0,1
621,621,-0.5490231833320186,-0.5,0.0,1.0,292.0,915.0,1.0,0,-247.0,1
622,622,0.03798627222048079,0.0,0.0,0.0,275.0,932.0,1.0,0,-37.0,0
623,623,0.7320921345414108,0.7,0.0,0.0,441.0,996.0,0.0,1,273.0,1
624,624,0.8219845295400626,0.8,1.0,1.0,326.0,625.0,1.0,1,319.0,1
625,625,0.6789413771452163,0.7,0.0,0.0,287.0,718.0,0.0,1,65.0,1
626,626,0.2610618121812477,0.3,1.0,1.0,333.0,997.0,1.0,1,480.0,1
627,627,-0.4441575502895632,-0.4,1.0,0.0,266.0,529.0,0.0,0,165.0,1
628,628,-0.6466978975833433,-0.6,1.0,0.0,496.0,760.0,0.0,0,674.0,1
629,629,0.03352445309110741,0.0,0.0,0.0,284.0,920.0,1.0,0,3076.0,0
630,630,-0.7544019898361772,-0.8,1.0,0.0,350.0,835.0,0.0,0,285.0,1
631,631,0.2985878162646559,0.3,1.0,1.0,491.0,723.0,1.0,1,756.0,1
632,632,-0.2405794849626518,-0.2,1.0,0.0,496.0,846.0,0.0,0,488.0,1
633,633,0.45132948322552957,0.5,1.0,1.0,387.0,712.0,1.0,1,181.0,1
634,634,-0.8480654093065056,-0.8,0.0,1.0,281.0,871.0,1.0,0,158.0,1
635,635,-0.5389174097051861,-0.5,1.0,0.0,452.0,679.0,0.0,0,449.0,1
636,636,0.5723791439004221,0.6,1.0,1.0,481.0,542.0,1.0,1,187.0,1
637,637,-0.3325580622735296,-0.3,0.0,1.0,305.0,614.0,1.0,0,381.0,1
638,638,-0.8395530121407475,-0.8,0.0,1.0,461.0,765.0,1.0,0,-286.0,1
639,639,0.1687098221065474,0.2,1.0,1.0,326.0,522.0,1.0,1,1102.0,1
640,640,-0.7330159101457961,-0.7,1.0,0.0,325.0,652.0,0.0,0,453.0,1
641,641,0.06070377016455397,0.1,0.0,0.0,258.0,650.0,0.0,1,4092.0,1
642,642,-0.5324695490614879,-0.5,1.0,0.0,414.0,923.0,0.0,0,423.0,1
643,643,0.5675792463898236,0.6,0.0,0.0,443.0,680.0,0.0,1,487.0,1
644,644,0.1012560373147432,0.1,0.0,0.0,366.0,837.0,1.0,0,-123.0,0
645,645,0.20472149702682996,0.2,1.0,1.0,429.0,777.0,1.0,1,624.0,1
646,646,-0.10844385898829367,-0.1,0.0,1.0,430.0,665.0,1.0,0,95.0,1
647,647,0.5831731582875331,0.6,0.0,0.0,426.0,621.0,0.0,1,243.0,1
648,648,-0.37468266776115333,-0.4,1.0,0.0,480.0,981.0,0.0,0,289.0,1
649,649,0.378053759778871,0.4,1.0,1.0,256.0,788.0,1.0,1,626.0,1
650,650,-0.2726805438724501,-0.3,1.0,0.0,473.0,629.0,0.0,0,3898.0,1
651,651,0.21734853535426846,0.2,1.0,1.0,292.0,500.0,1.0,1,218.0,1
652,652,0.02989900976688009,0.0,0.0,0.0,377.0,738.0,0.0,1,3885.0,1
653,653,-0.5426616730638416,-0.5,0.0,1.0,375.0,578.0,1.0,0,247.0,1
654,654,-0.49582511848753347,-0.5,0.0,1.0,360.0,931.0,1.0,0,-411.0,1
655,655,-0.7677603837625715,-0.8,1.0,0.0,356.0,785.0,0.0,0,469.0,1
656,656,-0.8364372657875374,-0.8,1.0,0.0,281.0,799.0,0.0,0,470.0,1
657,657,-0.8983408960820687,-0.9,0.0,1.0,376.0,579.0,1.0,0,185.0,1
658,658,-0.09334383181075623,-0.1,1.0,0.0,295.0,952.0,1.0,1,3753.0,0
659,659,0.6447202563102296,0.6,1.0,1.0,412.0,790.0,1.0,1,418.0,1
660,660,0.7033118048168631,0.7,1.0,1.0,492.0,800.0,1.0,1,348.0,1
661,661,-0.19196226299041408,-0.2,0.0,1.0,404.0,698.0,1.0,0,1988.0,1
662,662,0.6159882177422075,0.6,1.0,1.0,462.0,824.0,1.0,1,434.0,1
663,663,-0.7943022095248299,-0.8,0.0,1.0,297.0,624.0,1.0,0,249.0,1
664,664,-0.4016153390423018,-0.4,0.0,1.0,287.0,605.0,1.0,0,108.0,1
665,665,0.8191430775326504,0.8,1.0,1.0,324.0,758.0,1.0,1,188.0,1
666,666,0.596246865406595,0.6,0.0,0.0,383.0,653.0,0.0,1,304.0,1
667,667,0.5121164366882286,0.5,0.0,0.0,307.0,903.0,0.0,1,200.0,1
668,668,-0.7887956872740551,-0.8,0.0,1.0,338.0,927.0,1.0,0,-25.0,1
669,669,-0.6827618023604604,-0.7,1.0,0.0,251.0,709.0,0.0,0,280.0,1
670,670,0.6873206990869593,0.7,0.0,0.0,375.0,604.0,0.0,1,321.0,1
671,671,0.10865849195957977,0.1,1.0,1.0,295.0,789.0,1.0,1,566.0,1
672,672,0.11841343093903955,0.1,0.0,0.0,252.0,590.0,1.0,0,1488.0,0
673,673,0.37714879791930944,0.4,0.0,0.0,257.0,929.0,0.0,1,934.0,1
674,674,-0.7165095175263883,-0.7,1.0,0.0,317.0,787.0,0.0,0,446.0,1
675,675,0.7595058492303778,0.8,0.0,0.0,356.0,841.0,0.0,1,403.0,1
676,676,0.8734187251580089,0.9,1.0,1.0,286.0,886.0,1.0,1,398.0,1
677,677,-0.2846250534922883,-0.3,0.0,1.0,484.0,900.0,1.0,0,476.0,1
678,678,0.5001433437583013,0.5,1.0,1.0,251.0,765.0,1.0,1,44.0,1
679,679,0.8862313398846392,0.9,1.0,1.0,380.0,533.0,1.0,1,217.0,1
680,680,-0.049204928192777664,-0.0,0.0,1.0,269.0,644.0,1.0,0,1657.0,1
681,681,-0.8157001065090889,-0.8,0.0,1.0,465.0,571.0,1.0,0,144.0,1
682,682,0.4539281489286774,0.5,1.0,1.0,443.0,743.0,1.0,1,324.0,1
683,683,0.06835680421215906,0.1,0.0,0.0,489.0,697.0,1.0,0,3814.0,0
684,684,-0.39868281599461186,-0.4,1.0,0.0,292.0,866.0,0.0,0,732.0,1
685,685,-0.881375346127709,-0.9,1.0,0.0,393.0,852.0,1.0,1,-95.0,0
686,686,0.27757029173383707,0.3,0.0,0.0,342.0,919.0,0.0,1,899.0,1
687,687,-0.6844335611793251,-0.7,1.0,0.0,268.0,951.0,0.0,0,321.0,1
688,688,0.7086040401455304,0.7,0.0,0.0,363.0,571.0,0.0,1,656.0,1
689,689,0.2681185463222243,0.3,0.0,0.0,257.0,841.0,0.0,1,122.0,1
690,690,-0.27286520364176325,-0.3,0.0,1.0,455.0,821.0,1.0,0,224.0,1
691,691,0.786427801149784,0.8,0.0,0.0,462.0,504.0,0.0,1,404.0,1
692,692,-0.40961301372398756,-0.4,1.0,0.0,439.0,979.0,0.0,0,232.0,1
693,693,-0.4279755184703535,-0.4,1.0,0.0,313.0,661.0,0.0,0,286.0,1
694,694,0.7362622802027087,0.7,0.0,0.0,481.0,634.0,0.0,1,575.0,1
695,695,0.6748008648921783,0.7,0.0,0.0,262.0,752.0,0.0,1,316.0,1
696,696,0.818805380166631,0.8,0.0,0.0,427.0,590.0,0.0,1,223.0,1
697,697,-0.43585435689735075,-0.4,0.0,1.0,389.0,801.0,1.0,0,400.0,1
698,698,-0.6366118388915245,-0.6,0.0,1.0,430.0,738.0,1.0,0,312.0,1
699,699,-0.8586573672633465,-0.9,0.0,1.0,253.0,979.0,1.0,0,78.0,1
700,700,-0.888613586391336,-0.9,1.0,0.0,448.0,906.0,0.0,0,216.0,1
701,701,-0.19454477754342758,-0.2,0.0,1.0,356.0,681.0,1.0,0,373.0,1
702,702,0.10607549304059927,0.1,0.0,0.0,451.0,539.0,1.0,0,4010.0,0
703,703,-0.4896370882605847,-0.5,0.0,1.0,408.0,796.0,0.0,1,-54.0,0
704,704,-0.32199851076145114,-0.3,1.0,0.0,364.0,522.0,0.0,0,794.0,1
705,705,0.8112339353482708,0.8,1.0,1.0,458.0,775.0,1.0,1,237.0,1
706,706,-0.31674289142781764,-0.3,0.0,1.0,327.0,795.0,1.0,0,908.0,1
707,707,-0.1329312255751547,-0.1,0.0,1.0,475.0,612.0,1.0,0,2313.0,1
708,708,-0.4535132737003772,-0.5,0.0,1.0,424.0,584.0,1.0,0,-88.0,1
709,709,0.7347700542610812,0.7,1.0,1.0,266.0,704.0,1.0,1,300.0,1
710,710,0.16833902738661,0.2,0.0,0.0,312.0,785.0,1.0,0,83.0,0
711,711,-0.654216488462004,-0.7,0.0,1.0,474.0,749.0,1.0,0,247.0,1
712,712,0.8631661898834057,0.9,0.0,0.0,439.0,713.0,0.0,1,578.0,1
713,713,-0.6886591535423379,-0.7,1.0,0.0,414.0,701.0,0.0,0,245.0,1
714,714,-0.5658774423622235,-0.6,1.0,0.0,266.0,955.0,0.0,0,289.0,1
715,715,-0.2194154620115586,-0.2,0.0,1.0,481.0,526.0,1.0,0,443.0,1
716,716,-0.14290205592252792,-0.1,1.0,0.0,325.0,600.0,0.0,0,3855.0,1
717,717,0.8166224199261191,0.8,0.0,0.0,472.0,526.0,0.0,1,222.0,1
718,718,-0.8433694930381197,-0.8,0.0,1.0,457.0,528.0,1.0,0,285.0,1
719,719,-0.017352700878904836,-0.0,0.0,1.0,361.0,521.0,1.0,0,698.0,1
720,720,0.1743079170718852,0.2,0.0,0.0,331.0,586.0,0.0,1,703.0,1
721,721,-0.1288380737528797,-0.1,1.0,0.0,469.0,831.0,0.0,0,3700.0,1
722,722,0.41439174460796424,0.4,1.0,1.0,284.0,972.0,1.0,1,234.0,1
723,723,0.19222022097122793,0.2,0.0,0.0,499.0,674.0,0.0,1,1177.0,1
724,724,-0.24951691381171326,-0.2,1.0,0.0,395.0,756.0,0.0,0,49.0,1
725,725,-0.5179049006375522,-0.5,0.0,1.0,460.0,594.0,1.0,0,446.0,1
726,726,0.10209629896116057,0.1,1.0,1.0,417.0,755.0,1.0,1,1378.0,1
727,727,-0.3635017514888417,-0.4,0.0,1.0,401.0,752.0,1.0,0,607.0,1
728,728,0.3828324636817625,0.4,0.0,0.0,498.0,560.0,0.0,1,202.0,1
729,729,0.09833237849227738,0.1,0.0,0.0,483.0,940.0,1.0,0,-383.0,0
730,730,-0.041895441362134744,-0.0,0.0,1.0,346.0,847.0,1.0,0,1277.0,1
731,731,0.2698815892715819,0.3,1.0,1.0,372.0,947.0,1.0,1,811.0,1
732,732,-0.5642239770653839,-0.6,0.0,1.0,387.0,968.0,1.0,0,165.0,1
733,733,-0.3788801939029278,-0.4,0.0,1.0,317.0,648.0,1.0,0,385.0,1
734,734,-0.5267161087059793,-0.5,0.0,1.0,336.0,922.0,1.0,0,412.0,1
735,735,0.29062614282827026,0.3,0.0,0.0,470.0,748.0,0.0,1,752.0,1
736,736,-0.7702234821835724,-0.8,1.0,0.0,453.0,583.0,0.0,0,94.0,1
737,737,-0.5598362446940621,-0.6,0.0,1.0,352.0,808.0,1.0,0,170.0,1
738,738,-0.8794668246370023,-0.9,0.0,1.0,305.0,651.0,1.0,0,204.0,1
739,739,-0.0338746685683885,-0.0,1.0,0.0,453.0,754.0,1.0,1,3793.0,0
740,740,0.2716577746931005,0.3,1.0,1.0,462.0,812.0,1.0,1,-104.0,1
741,741,0.521591219835495,0.5,1.0,1.0,339.0,718.0,1.0,1,243.0,1
742,742,-0.4212730928398161,-0.4,1.0,0.0,401.0,686.0,0.0,0,623.0,1
743,743,-0.07200175605047532,-0.1,1.0,0.0,408.0,587.0,0.0,0,985.0,1
744,744,0.6873289335081997,0.7,0.0,0.0,382.0,900.0,0.0,1,1168.0,1
745,745,0.39069948501028795,0.4,0.0,0.0,311.0,628.0,0.0,1,1511.0,1
746,746,-0.5676902447424006,-0.6,1.0,0.0,381.0,575.0,0.0,0,934.0,1
747,747,0.7061216372116134,0.7,1.0,1.0,475.0,941.0,1.0,1,244.0,1
748,748,-0.08340657710514088,-0.1,0.0,1.0,465.0,601.0,1.0,0,354.0,1
749,749,-0.35896139387025394,-0.4,0.0,1.0,331.0,704.0,1.0,0,375.0,1
750,750,0.1437148216323737,0.1,0.0,0.0,340.0,894.0,0.0,1,706.0,1
751,751,-0.2838083074947373,-0.3,1.0,0.0,407.0,843.0,0.0,0,1970.0,1
752,752,0.09083148507622951,0.1,0.0,0.0,437.0,963.0,0.0,1,1820.0,1
753,753,0.4891635935407955,0.5,0.0,0.0,376.0,529.0,0.0,1,635.0,1
754,754,-0.1257731857939942,-0.1,1.0,0.0,416.0,951.0,0.0,0,3233.0,1
755,755,-0.23754092741568567,-0.2,0.0,1.0,434.0,751.0,1.0,0,-45.0,1
756,756,-0.061932123082297785,-0.1,1.0,0.0,349.0,661.0,1.0,1,2050.0,0
757,757,-0.656707345372011,-0.7,0.0,1.0,371.0,835.0,1.0,0,154.0,1
758,758,0.5951499703337061,0.6,1.0,1.0,498.0,635.0,1.0,1,37.0,1
759,759,-0.5012593564913599,-0.5,0.0,1.0,389.0,775.0,1.0,0,-224.0,1
760,760,0.7837481373290492,0.8,0.0,0.0,298.0,570.0,0.0,1,292.0,1
761,761,-0.6408740402871349,-0.6,0.0,1.0,454.0,997.0,1.0,0,79.0,1
762,762,0.7105526175665934,0.7,1.0,1.0,380.0,959.0,1.0,1,61.0,1
763,763,-0.056676164095771586,-0.1,1.0,0.0,394.0,556.0,1.0,1,480.0,0
764,764,0.5509036307018461,0.6,1.0,1.0,392.0,624.0,1.0,1,44.0,1
765,765,0.5903695720753946,0.6,0.0,0.0,405.0,500.0,0.0,1,825.0,1
766,766,0.7224098921070817,0.7,1.0,1.0,323.0,852.0,1.0,1,255.0,1
767,767,0.7635155830365669,0.8,0.0,0.0,393.0,528.0,0.0,1,409.0,1
768,768,0.47536435832710644,0.5,1.0,1.0,457.0,772.0,1.0,1,581.0,1
769,769,0.4222401267375172,0.4,1.0,1.0,274.0,622.0,1.0,1,364.0,1
770,770,0.13830095846852852,0.1,1.0,1.0,478.0,921.0,1.0,1,421.0,1
771,771,-0.1448900513721899,-0.1,1.0,0.0,304.0,606.0,0.0,0,830.0,1
772,772,-0.06735570862737783,-0.1,0.0,1.0,390.0,976.0,1.0,0,2454.0,1
773,773,0.47314872051135815,0.5,1.0,1.0,358.0,631.0,1.0,1,271.0,1
774,774,0.8722373536884701,0.9,0.0,0.0,265.0,906.0,0.0,1,479.0,1
775,775,-0.8155319756301093,-0.8,1.0,0.0,264.0,767.0,0.0,0,489.0,1
776,776,0.4846569018991159,0.5,0.0,0.0,381.0,520.0,0.0,1,669.0,1
777,777,0.2635427746261588,0.3,0.0,0.0,366.0,627.0,0.0,1,687.0,1
778,778,0.29026659989035763,0.3,1.0,1.0,280.0,950.0,1.0,1,270.0,1
779,779,0.7021787976593686,0.7,0.0,0.0,497.0,582.0,0.0,1,461.0,1
780,780,0.764547005328276,0.8,1.0,1.0,498.0,969.0,1.0,1,193.0,1
781,781,0.05430954733541127,0.1,1.0,1.0,485.0,938.0,1.0,1,807.0,1
782,782,0.6535067118554697,0.7,1.0,1.0,423.0,757.0,1.0,1,690.0,1
783,783,-0.41772951737840575,-0.4,0.0,1.0,324.0,791.0,1.0,0,325.0,1
784,784,-0.4732552371207671,-0.5,0.0,1.0,391.0,918.0,1.0,0,561.0,1
785,785,0.5512349139361618,0.6,0.0,0.0,414.0,613.0,0.0,1,153.0,1
786,786,0.6018332185125185,0.6,0.0,0.0,260.0,921.0,0.0,1,439.0,1
787,787,0.16664597135855252,0.2,1.0,1.0,488.0,861.0,1.0,1,281.0,1
788,788,-0.7874327587548265,-0.8,0.0,1.0,299.0,900.0,1.0,0,311.0,1
789,789,0.5735883659095801,0.6,0.0,0.0,268.0,745.0,0.0,1,507.0,1
790,790,0.8176741681218404,0.8,0.0,0.0,351.0,974.0,0.0,1,235.0,1
791,791,0.6286871974761533,0.6,1.0,1.0,454.0,651.0,1.0,1,225.0,1
792,792,-0.39468578941396837,-0.4,1.0,0.0,456.0,948.0,1.0,1,-114.0,0
793,793,-0.4358495838542276,-0.4,1.0,0.0,382.0,787.0,0.0,0,451.0,1
794,794,0.32266274216713453,0.3,0.0,0.0,389.0,642.0,0.0,1,889.0,1
795,795,0.0728138036454522,0.1,1.0,1.0,252.0,680.0,1.0,1,3468.0,1
796,796,-0.5591230069164667,-0.6,0.0,1.0,470.0,924.0,1.0,0,366.0,1
797,797,-0.11245110698345318,-0.1,0.0,1.0,318.0,935.0,1.0,0,97.0,1
798,798,0.3994122050316261,0.4,0.0,0.0,401.0,936.0,0.0,1,473.0,1
799,799,0.43576107887637583,0.4,0.0,0.0,315.0,759.0,0.0,1,406.0,1
800,800,-0.2782969629608979,-0.3,1.0,0.0,408.0,583.0,0.0,0,1299.0,1
801,801,-0.8520300847713639,-0.9,0.0,1.0,258.0,836.0,1.0,0,276.0,1
802,802,-0.2778227476345464,-0.3,0.0,1.0,453.0,772.0,1.0,0,825.0,1
803,803,0.7115445179435248,0.7,1.0,1.0,432.0,682.0,1.0,1,356.0,1
804,804,0.8811417621268606,0.9,0.0,0.0,369.0,882.0,0.0,1,749.0,1
805,805,-0.6684055657084464,-0.7,1.0,0.0,311.0,713.0,0.0,0,276.0,1
806,806,-0.14265449703783162,-0.1,1.0,0.0,341.0,604.0,0.0,0,585.0,1
807,807,-0.28564090826161426,-0.3,0.0,1.0,326.0,841.0,1.0,0,143.0,1
808,808,0.47146262357223867,0.5,1.0,1.0,260.0,969.0,1.0,1,531.0,1
809,809,-0.8344225159842392,-0.8,0.0,1.0,408.0,515.0,1.0,0,267.0,1
810,810,-0.8170450077584388,-0.8,0.0,1.0,379.0,506.0,1.0,0,255.0,1
811,811,0.6640889084009635,0.7,1.0,1.0,283.0,911.0,1.0,1,116.0,1
812,812,0.10327512542511219,0.1,0.0,0.0,385.0,970.0,0.0,1,3645.0,1
813,813,0.3936465963776189,0.4,0.0,0.0,413.0,806.0,0.0,1,321.0,1
814,814,0.6020431942966814,0.6,0.0,0.0,370.0,923.0,0.0,1,477.0,1
815,815,-0.11378307420083245,-0.1,0.0,1.0,460.0,853.0,1.0,0,977.0,1
816,816,0.820638185420279,0.8,1.0,1.0,345.0,908.0,1.0,1,107.0,1
817,817,0.20591574042816185,0.2,1.0,1.0,451.0,719.0,1.0,1,840.0,1
818,818,0.42205909200970704,0.4,1.0,1.0,462.0,896.0,1.0,1,832.0,1
819,819,0.667600551753733,0.7,0.0,0.0,323.0,629.0,0.0,1,438.0,1
820,820,0.7752679289596899,0.8,0.0,0.0,424.0,983.0,0.0,1,443.0,1
821,821,-0.738602256537537,-0.7,1.0,0.0,475.0,717.0,0.0,0,268.0,1
822,822,-0.3659926426066107,-0.4,1.0,0.0,391.0,945.0,0.0,0,454.0,1
823,823,-0.1362784088728377,-0.1,1.0,0.0,420.0,566.0,0.0,0,1764.0,1
824,824,0.37217348414385587,0.4,0.0,0.0,486.0,877.0,0.0,1,1077.0,1
825,825,0.8667905612981833,0.9,1.0,1.0,488.0,607.0,1.0,1,305.0,1
826,826,0.6927036391880911,0.7,1.0,1.0,288.0,658.0,1.0,1,234.0,1
827,827,0.7500433615796428,0.8,1.0,1.0,379.0,919.0,1.0,1,102.0,1
828,828,0.11476675417887694,0.1,1.0,1.0,474.0,594.0,1.0,1,672.0,1
829,829,-0.2940287957508968,-0.3,0.0,1.0,466.0,637.0,1.0,0,607.0,1
830,830,0.6817005523475789,0.7,1.0,1.0,425.0,834.0,1.0,1,621.0,1
831,831,-0.8336299556548048,-0.8,1.0,0.0,402.0,818.0,0.0,0,470.0,1
832,832,-0.4113388869218581,-0.4,1.0,0.0,494.0,834.0,0.0,0,322.0,1
833,833,0.18793032320102598,0.2,0.0,0.0,342.0,902.0,0.0,1,1466.0,1
834,834,0.5367073939159689,0.5,1.0,1.0,264.0,724.0,1.0,1,442.0,1
835,835,-0.8232535238454572,-0.8,1.0,0.0,481.0,847.0,0.0,0,282.0,1
836,836,-0.8606999732063998,-0.9,1.0,0.0,330.0,766.0,0.0,0,214.0,1
837,837,0.8496497484275466,0.8,1.0,1.0,476.0,791.0,1.0,1,273.0,1
838,838,0.3482121384705227,0.3,0.0,0.0,456.0,622.0,0.0,1,782.0,1
839,839,-0.338836793914458,-0.3,1.0,0.0,419.0,653.0,0.0,0,1018.0,1
840,840,0.8658159571011003,0.9,1.0,1.0,487.0,632.0,1.0,1,361.0,1
841,841,-0.4452557691879906,-0.4,1.0,0.0,336.0,981.0,0.0,0,713.0,1
842,842,0.23964023262803458,0.2,0.0,0.0,481.0,998.0,0.0,1,451.0,1
843,843,0.7115892173748494,0.7,0.0,0.0,384.0,748.0,0.0,1,438.0,1
844,844,0.6725587871784401,0.7,1.0,1.0,440.0,604.0,1.0,1,866.0,1
845,845,-0.8473688441232918,-0.8,0.0,1.0,291.0,687.0,1.0,0,882.0,1
846,846,0.0685337137673867,0.1,1.0,1.0,394.0,925.0,1.0,1,441.0,1
847,847,0.07146797119300197,0.1,0.0,0.0,407.0,992.0,0.0,1,3601.0,1
848,848,0.5520726341950034,0.6,1.0,1.0,370.0,809.0,1.0,1,261.0,1
849,849,0.6829544182521484,0.7,1.0,1.0,487.0,979.0,1.0,1,284.0,1
850,850,-0.7312354041645426,-0.7,0.0,1.0,330.0,541.0,1.0,0,-61.0,1
851,851,-0.17115457197694017,-0.2,1.0,0.0,296.0,743.0,0.0,0,1791.0,1
852,852,0.36196221368486714,0.4,0.0,0.0,323.0,672.0,0.0,1,735.0,1
853,853,0.3155914648607744,0.3,1.0,1.0,481.0,693.0,1.0,1,106.0,1
854,854,-0.5918730898717448,-0.6,1.0,0.0,268.0,935.0,0.0,0,347.0,1
855,855,0.1246283017067199,0.1,1.0,1.0,439.0,866.0,1.0,1,515.0,1
856,856,-0.6928522718196615,-0.7,1.0,0.0,451.0,647.0,0.0,0,442.0,1
857,857,0.18506529543556638,0.2,0.0,0.0,341.0,953.0,1.0,0,1646.0,0
858,858,-0.5937670378902478,-0.6,0.0,1.0,364.0,895.0,1.0,0,131.0,1
859,859,0.6419005401330372,0.6,0.0,0.0,298.0,731.0,0.0,1,281.0,1
860,860,-0.5534348387191916,-0.6,0.0,1.0,261.0,599.0,1.0,0,460.0,1
861,861,-0.1536197954604679,-0.2,0.0,1.0,277.0,576.0,1.0,0,487.0,1
862,862,-0.4577326960733239,-0.5,0.0,1.0,395.0,951.0,1.0,0,224.0,1
863,863,-0.001755264559156089,-0.0,1.0,0.0,454.0,504.0,1.0,1,492.0,0
864,864,0.22976433658879747,0.2,1.0,1.0,403.0,513.0,1.0,1,244.0,1
865,865,-0.5946941813939519,-0.6,1.0,0.0,251.0,848.0,0.0,0,501.0,1
866,866,0.7681157965247373,0.8,0.0,0.0,461.0,608.0,0.0,1,891.0,1
867,867,-0.4546696197491944,-0.5,1.0,0.0,259.0,620.0,0.0,0,1281.0,1
868,868,-0.21346336597017512,-0.2,0.0,1.0,286.0,751.0,1.0,0,253.0,1
869,869,-0.2595893472629408,-0.3,1.0,0.0,459.0,867.0,0.0,0,144.0,1
870,870,-0.4876763546365044,-0.5,1.0,0.0,308.0,832.0,0.0,0,460.0,1
871,871,-0.8242216144323472,-0.8,0.0,1.0,439.0,958.0,1.0,0,173.0,1
872,872,0.7361980759547148,0.7,0.0,0.0,285.0,667.0,0.0,1,108.0,1
873,873,0.2426303558810471,0.2,1.0,1.0,288.0,834.0,1.0,1,438.0,1
874,874,0.5297302917993624,0.5,1.0,1.0,446.0,549.0,1.0,1,685.0,1
875,875,-0.2501064802276268,-0.3,1.0,0.0,468.0,837.0,0.0,0,715.0,1
876,876,0.883645358473519,0.9,0.0,0.0,386.0,690.0,0.0,1,284.0,1
877,877,-0.08088899905831626,-0.1,1.0,0.0,370.0,930.0,1.0,1,3700.0,0
878,878,-0.7102064571257922,-0.7,0.0,1.0,311.0,597.0,1.0,0,372.0,1
879,879,0.28872858792053246,0.3,0.0,0.0,475.0,501.0,0.0,1,1924.0,1
880,880,0.580145552827538,0.6,0.0,0.0,305.0,778.0,0.0,1,347.0,1
881,881,0.3796565670816955,0.4,0.0,0.0,292.0,582.0,0.0,1,716.0,1
882,882,-0.7428504506477152,-0.7,1.0,0.0,292.0,721.0,0.0,0,1937.0,1
883,883,-0.3580796154798196,-0.4,1.0,0.0,318.0,669.0,1.0,1,63.0,0
884,884,0.5711921976063713,0.6,0.0,0.0,447.0,807.0,0.0,1,366.0,1
885,885,0.7245920914136342,0.7,1.0,1.0,294.0,726.0,1.0,1,130.0,1
886,886,-0.19955006660578922,-0.2,1.0,0.0,268.0,727.0,0.0,0,555.0,1
887,887,0.30554805410442587,0.3,0.0,0.0,385.0,754.0,0.0,1,1021.0,1
888,888,-0.5877935558362886,-0.6,0.0,1.0,325.0,838.0,1.0,0,207.0,1
889,889,-0.04035727133274525,-0.0,0.0,1.0,402.0,885.0,1.0,0,2433.0,1
890,890,-0.5481597754970358,-0.5,1.0,0.0,364.0,976.0,0.0,0,320.0,1
891,891,-0.7410051647324285,-0.7,1.0,0.0,417.0,573.0,0.0,0,400.0,1
892,892,-0.1113555081596117,-0.1,1.0,0.0,288.0,885.0,1.0,1,257.0,0
893,893,0.738083229608609,0.7,0.0,0.0,291.0,980.0,0.0,1,419.0,1
894,894,-0.14454506307422854,-0.1,1.0,0.0,408.0,620.0,0.0,0,3972.0,1
895,895,0.23468574188676972,0.2,0.0,0.0,459.0,875.0,0.0,1,1096.0,1
896,896,-0.2104003480709703,-0.2,1.0,0.0,335.0,588.0,0.0,0,2327.0,1
897,897,0.42395185060557006,0.4,0.0,0.0,255.0,944.0,0.0,1,811.0,1
898,898,0.5834575988973448,0.6,1.0,1.0,427.0,774.0,1.0,1,299.0,1
899,899,-0.5004244717720706,-0.5,1.0,0.0,340.0,848.0,0.0,0,632.0,1
900,900,0.04251872313110461,0.0,1.0,1.0,322.0,709.0,1.0,1,649.0,1
901,901,-0.6373622429572021,-0.6,0.0,1.0,287.0,893.0,1.0,0,120.0,1
902,902,0.3718861435564883,0.4,1.0,1.0,270.0,871.0,1.0,1,-41.0,1
903,903,-0.4385071477028802,-0.4,1.0,0.0,491.0,693.0,0.0,0,326.0,1
904,904,0.899476968776097,0.9,0.0,0.0,276.0,734.0,0.0,1,590.0,1
905,905,-0.24228824448132835,-0.2,0.0,1.0,404.0,908.0,1.0,0,938.0,1
906,906,-0.36627042191097303,-0.4,0.0,1.0,470.0,524.0,1.0,0,186.0,1
907,907,-0.7219392180518747,-0.7,0.0,1.0,355.0,557.0,1.0,0,328.0,1
908,908,-0.5555806580919576,-0.6,1.0,0.0,447.0,636.0,0.0,0,3367.0,1
909,909,-0.8969503304933985,-0.9,1.0,0.0,454.0,695.0,0.0,0,371.0,1
910,910,0.11974753774312352,0.1,1.0,1.0,492.0,988.0,1.0,1,380.0,1
911,911,-0.21471528330188772,-0.2,1.0,0.0,317.0,663.0,0.0,0,1370.0,1
912,912,-0.29440371659414966,-0.3,0.0,1.0,446.0,557.0,1.0,0,177.0,1
913,913,-0.4958258600677561,-0.5,0.0,1.0,301.0,649.0,1.0,0,310.0,1
914,914,-0.8918306618705903,-0.9,1.0,0.0,411.0,809.0,0.0,0,160.0,1
915,915,-0.36144663962765144,-0.4,0.0,1.0,417.0,730.0,1.0,0,203.0,1
916,916,-0.46964497008315603,-0.5,0.0,1.0,339.0,824.0,1.0,0,507.0,1
917,917,-0.33802692500166653,-0.3,1.0,0.0,471.0,832.0,0.0,0,1567.0,1
918,918,0.5314278174089176,0.5,1.0,1.0,441.0,571.0,1.0,1,268.0,1
919,919,-0.6065804522319278,-0.6,0.0,1.0,302.0,851.0,1.0,0,187.0,1
920,920,0.021143640140660502,0.0,0.0,0.0,313.0,823.0,1.0,0,1104.0,0
921,921,0.876299331178927,0.9,0.0,0.0,282.0,607.0,0.0,1,371.0,1
922,922,0.3500765257953974,0.4,0.0,0.0,365.0,746.0,1.0,0,29.0,0
923,923,0.7090289257624768,0.7,0.0,0.0,357.0,811.0,0.0,1,542.0,1
924,924,0.14612783097569781,0.1,1.0,1.0,349.0,609.0,1.0,1,352.0,1
925,925,-0.7706041969654254,-0.8,1.0,0.0,440.0,861.0,0.0,0,249.0,1
926,926,0.47681323266854625,0.5,0.0,0.0,317.0,757.0,0.0,1,106.0,1
927,927,-0.09107423003337212,-0.1,0.0,1.0,257.0,693.0,1.0,0,350.0,1
928,928,-0.6927139065349515,-0.7,1.0,0.0,274.0,838.0,0.0,0,248.0,1
929,929,-0.6594587288614095,-0.7,1.0,0.0,424.0,580.0,0.0,0,266.0,1
930,930,-0.32489148708237636,-0.3,1.0,0.0,253.0,597.0,0.0,0,1540.0,1
931,931,0.5926709006727043,0.6,0.0,0.0,337.0,871.0,0.0,1,422.0,1
932,932,-0.7361567692379849,-0.7,1.0,0.0,359.0,651.0,0.0,0,200.0,1
933,933,0.5124720287512178,0.5,0.0,0.0,451.0,696.0,0.0,1,363.0,1
934,934,-0.45239797175684393,-0.5,1.0,0.0,314.0,649.0,0.0,0,577.0,1
935,935,-0.40484121465482303,-0.4,1.0,0.0,265.0,524.0,0.0,0,471.0,1
936,936,-0.2905008019114531,-0.3,0.0,1.0,455.0,741.0,1.0,0,464.0,1
937,937,-0.34899497650499944,-0.3,0.0,1.0,305.0,746.0,1.0,0,369.0,1
938,938,0.40073533612866463,0.4,0.0,0.0,360.0,697.0,0.0,1,883.0,1
939,939,0.6629581592681723,0.7,0.0,0.0,301.0,511.0,0.0,1,528.0,1
940,940,-0.3648221186488111,-0.4,1.0,0.0,366.0,897.0,0.0,0,547.0,1
941,941,-0.1502823974049654,-0.2,1.0,0.0,310.0,947.0,0.0,0,1163.0,1
942,942,0.8615938922150331,0.9,1.0,1.0,313.0,658.0,1.0,1,9.0,1
943,943,-0.5693093264805155,-0.6,1.0,0.0,469.0,832.0,0.0,0,309.0,1
944,944,0.30837332387695804,0.3,0.0,0.0,320.0,939.0,0.0,1,1181.0,1
945,945,-0.49839819610398717,-0.5,0.0,1.0,382.0,530.0,1.0,0,358.0,1
946,946,-0.7880417515335536,-0.8,0.0,1.0,380.0,729.0,1.0,0,151.0,1
947,947,-0.898696709455594,-0.9,1.0,0.0,407.0,847.0,0.0,0,186.0,1
948,948,-0.2769737544391917,-0.3,1.0,0.0,435.0,900.0,0.0,0,1905.0,1
949,949,-0.2696562293016792,-0.3,0.0,1.0,311.0,734.0,1.0,0,225.0,1
950,950,0.2517096906313533,0.3,1.0,1.0,449.0,778.0,1.0,1,333.0,1
951,951,-0.13583428755124782,-0.1,0.0,1.0,285.0,920.0,1.0,0,1305.0,1
952,952,0.7281913412716042,0.7,0.0,0.0,278.0,722.0,0.0,1,170.0,1
953,953,-0.4945164470674751,-0.5,0.0,1.0,492.0,622.0,1.0,0,186.0,1
954,954,0.7330879703671275,0.7,0.0,0.0,386.0,588.0,0.0,1,796.0,1
955,955,0.5645422468897004,0.6,0.0,0.0,479.0,551.0,0.0,1,410.0,1
956,956,-0.7527035924252026,-0.8,1.0,0.0,269.0,952.0,0.0,0,109.0,1
957,957,-0.3949818864553054,-0.4,0.0,1.0,267.0,638.0,1.0,0,995.0,1
958,958,0.4560050385486104,0.5,0.0,0.0,443.0,943.0,0.0,1,424.0,1
959,959,0.6721707756015013,0.7,0.0,0.0,298.0,940.0,0.0,1,82.0,1
960,960,-0.3162114998301747,-0.3,0.0,1.0,312.0,534.0,1.0,0,424.0,1
961,961,-0.6910739270481561,-0.7,1.0,0.0,272.0,878.0,0.0,0,410.0,1
962,962,0.7168613810034868,0.7,1.0,1.0,257.0,920.0,1.0,1,33.0,1
963,963,-0.567242413232409,-0.6,1.0,0.0,379.0,986.0,0.0,0,335.0,1
964,964,-0.30079521530132347,-0.3,1.0,0.0,484.0,649.0,0.0,0,1687.0,1
965,965,0.22017285310257384,0.2,1.0,1.0,466.0,525.0,1.0,1,929.0,1
966,966,-0.33039874287682613,-0.3,0.0,1.0,324.0,945.0,1.0,0,-119.0,1
967,967,0.5278629257884625,0.5,0.0,0.0,410.0,928.0,0.0,1,1402.0,1
968,968,0.11299252686505368,0.1,0.0,0.0,423.0,971.0,0.0,1,3326.0,1
969,969,-0.0620927715070374,-0.1,0.0,1.0,483.0,914.0,1.0,0,203.0,1
970,970,-0.864264708180011,-0.9,1.0,0.0,498.0,729.0,0.0,0,213.0,1
971,971,0.732758403367184,0.7,0.0,0.0,393.0,877.0,0.0,1,420.0,1
972,972,-0.44463399662601194,-0.4,1.0,0.0,485.0,725.0,0.0,0,720.0,1
973,973,0.059314618914596884,0.1,1.0,1.0,473.0,941.0,1.0,1,1436.0,1
974,974,0.13239668931572857,0.1,0.0,0.0,351.0,668.0,0.0,1,381.0,1
975,975,-0.6932648096909051,-0.7,1.0,0.0,499.0,522.0,0.0,0,2089.0,1
976,976,0.4150373144154712,0.4,1.0,1.0,265.0,703.0,1.0,1,232.0,1
977,977,0.6957566677458046,0.7,0.0,0.0,320.0,913.0,0.0,1,847.0,1
978,978,-0.007558463933944992,-0.0,1.0,0.0,404.0,880.0,1.0,1,996.0,0
979,979,0.0829512739789654,0.1,1.0,1.0,379.0,562.0,1.0,1,3109.0,1
980,980,0.32115067202978353,0.3,1.0,1.0,288.0,980.0,1.0,1,522.0,1
981,981,0.6140486722447701,0.6,1.0,1.0,285.0,711.0,1.0,1,344.0,1
982,982,-0.8304814098932489,-0.8,1.0,0.0,309.0,579.0,0.0,0,192.0,1
983,983,-0.10960212759737187,-0.1,0.0,1.0,450.0,992.0,1.0,0,458.0,1
984,984,-0.21585975029160975,-0.2,0.0,1.0,386.0,957.0,1.0,0,57.0,1
985,985,-0.79835239532709,-0.8,0.0,1.0,493.0,552.0,1.0,0,305.0,1
986,986,0.3552888379308111,0.4,1.0,1.0,407.0,900.0,1.0,1,103.0,1
987,987,-0.2833664791065037,-0.3,1.0,0.0,273.0,881.0,0.0,0,1966.0,1
988,988,0.6639535638626058,0.7,0.0,0.0,296.0,673.0,0.0,1,411.0,1
989,989,-0.09554302506859846,-0.1,0.0,1.0,355.0,553.0,1.0,0,2502.0,1
990,990,-0.49432111147957075,-0.5,0.0,1.0,459.0,738.0,1.0,0,63.0,1
991,991,0.22117919649838436,0.2,1.0,1.0,305.0,762.0,1.0,1,1033.0,1
992,992,-0.6309549309964729,-0.6,0.0,1.0,479.0,804.0,1.0,0,267.0,1
993,993,0.07403528044080876,0.1,0.0,0.0,365.0,871.0,0.0,1,834.0,1
994,994,-0.23433304804219557,-0.2,1.0,0.0,451.0,830.0,0.0,0,2199.0,1
995,995,-0.5574117965202312,-0.6,0.0,1.0,477.0,991.0,1.0,0,372.0,1
996,996,0.5332066692037917,0.5,0.0,0.0,389.0,722.0,0.0,1,379.0,1
997,997,-0.28017366981798497,-0.3,0.0,1.0,341.0,716.0,1.0,0,873.0,1
998,998,-0.32387867222754396,-0.3,1.0,0.0,290.0,736.0,0.0,0,664.0,1
999,999,0.1763254689433117,0.2,0.0,0.0,401.0,691.0,0.0,1,2068.0,1
1000,1000,-0.007002717330926722,-0.0,1.0,0.0,255.0,601.0,0.0,0,4144.0,1
1001,1001,0.7552032000289989,0.8,0.0,0.0,282.0,829.0,0.0,1,469.0,1
1002,1002,-0.46723086836504685,-0.5,1.0,0.0,473.0,600.0,0.0,0,437.0,1
1003,1003,0.6837528136269849,0.7,0.0,0.0,344.0,542.0,0.0,1,1124.0,1
1004,1004,-0.24527440130814782,-0.2,1.0,0.0,498.0,865.0,0.0,0,2067.0,1
1005,1005,-0.1810074132450341,-0.2,0.0,1.0,396.0,661.0,1.0,0,613.0,1
1006,1006,0.0488182769659492,0.0,1.0,1.0,294.0,729.0,1.0,1,3977.0,1
1007,1007,0.20467647012650014,0.2,0.0,0.0,338.0,587.0,0.0,1,425.0,1
1008,1008,-0.06260380764102613,-0.1,1.0,0.0,375.0,953.0,1.0,1,992.0,0
1009,1009,0.3161583887996905,0.3,1.0,1.0,301.0,894.0,1.0,1,585.0,1
1010,1010,-0.06569391452786555,-0.1,1.0,0.0,417.0,878.0,1.0,1,2165.0,0
1011,1011,-0.31072223917492015,-0.3,1.0,0.0,260.0,569.0,0.0,0,3331.0,1
1012,1012,0.3796404327058468,0.4,0.0,0.0,425.0,623.0,0.0,1,952.0,1
1013,1013,-0.17260987341069545,-0.2,1.0,0.0,297.0,710.0,1.0,1,3993.0,0
1014,1014,0.06910703935545381,0.1,1.0,1.0,364.0,563.0,1.0,1,2653.0,1
1015,1015,0.03310148249874634,0.0,1.0,1.0,403.0,507.0,1.0,1,1330.0,1
1016,1016,0.6694921210323518,0.7,0.0,0.0,286.0,944.0,0.0,1,470.0,1
1017,1017,-0.10433436557264719,-0.1,1.0,0.0,275.0,968.0,1.0,1,3757.0,0
1018,1018,-0.03468479206032793,-0.0,0.0,1.0,332.0,611.0,1.0,0,2017.0,1
1019,1019,0.09670798823759663,0.1,1.0,1.0,253.0,590.0,1.0,1,617.0,1
1020,1020,0.45236019045339504,0.5,0.0,0.0,347.0,689.0,0.0,1,894.0,1
1021,1021,0.20037874443380665,0.2,0.0,0.0,470.0,766.0,0.0,1,2104.0,1
1022,1022,0.6314726128667597,0.6,0.0,0.0,273.0,687.0,0.0,1,420.0,1
1023,1023,0.09979468586287776,0.1,1.0,1.0,372.0,540.0,1.0,1,2778.0,1
1024,1024,-0.15306598380349679,-0.2,1.0,0.0,372.0,678.0,0.0,0,3950.0,1
1025,1025,-0.8263465096593541,-0.8,1.0,0.0,436.0,769.0,0.0,0,275.0,1
1026,1026,-0.21600082095307316,-0.2,1.0,0.0,496.0,506.0,0.0,0,2158.0,1
1027,1027,-0.06791630784702274,-0.1,0.0,1.0,261.0,960.0,1.0,0,1129.0,1
1028,1028,0.02699042195537238,0.0,0.0,0.0,310.0,681.0,1.0,0,1529.0,0
1029,1029,0.695569825269828,0.7,1.0,1.0,270.0,558.0,1.0,1,542.0,1
1030,1030,-0.4494467298404335,-0.4,0.0,1.0,444.0,874.0,1.0,0,252.0,1
1031,1031,0.8619320948321881,0.9,0.0,0.0,337.0,532.0,0.0,1,331.0,1
1032,1032,0.030341513413812415,0.0,1.0,1.0,390.0,516.0,1.0,1,934.0,1
1033,1033,0.46929652798861776,0.5,0.0,0.0,355.0,867.0,0.0,1,738.0,1
1034,1034,0.1390901441261071,0.1,0.0,0.0,416.0,693.0,0.0,1,1311.0,1
1035,1035,0.44364196533036016,0.4,1.0,1.0,287.0,743.0,1.0,1,340.0,1
1036,1036,-0.8247508292590773,-0.8,0.0,1.0,347.0,529.0,1.0,0,224.0,1
1037,1037,-0.8022132012329156,-0.8,0.0,1.0,250.0,769.0,1.0,0,171.0,1
1038,1038,-0.20020047143097963,-0.2,0.0,1.0,490.0,955.0,1.0,0,25.0,1
1039,1039,-0.763832232379514,-0.8,0.0,1.0,481.0,500.0,1.0,0,279.0,1
1040,1040,0.4185311873999974,0.4,1.0,1.0,405.0,869.0,1.0,1,-224.0,1
1041,1041,-0.6423609355589122,-0.6,1.0,0.0,499.0,808.0,0.0,0,1033.0,1
1042,1042,0.3433929211261927,0.3,1.0,1.0,379.0,856.0,1.0,1,485.0,1
1043,1043,0.8154760050136215,0.8,1.0,1.0,350.0,639.0,1.0,1,141.0,1
1044,1044,0.029050634414594323,0.0,1.0,1.0,295.0,742.0,1.0,1,-77.0,1
1045,1045,-0.31161083139650114,-0.3,0.0,1.0,367.0,724.0,1.0,0,429.0,1
1046,1046,0.6955336328690834,0.7,0.0,0.0,325.0,646.0,0.0,1,309.0,1
1047,1047,-0.4248910918766541,-0.4,0.0,1.0,496.0,693.0,1.0,0,371.0,1
1048,1048,-0.1019185127399761,-0.1,0.0,1.0,345.0,964.0,1.0,0,481.0,1
1049,1049,-0.47565389040361883,-0.5,0.0,1.0,329.0,597.0,1.0,0,464.0,1
1050,1050,-0.2504702556369176,-0.3,1.0,0.0,460.0,906.0,0.0,0,854.0,1
1051,1051,0.08577770345443447,0.1,1.0,1.0,291.0,702.0,1.0,1,2997.0,1
1052,1052,0.44912282059087494,0.4,0.0,0.0,422.0,833.0,0.0,1,555.0,1
1053,1053,-0.6133178456785144,-0.6,1.0,0.0,418.0,940.0,0.0,0,532.0,1
1054,1054,0.3298711234425368,0.3,0.0,0.0,275.0,549.0,0.0,1,706.0,1
1055,1055,0.12448615253785056,0.1,0.0,0.0,491.0,919.0,1.0,0,3160.0,0
1056,1056,0.6006054853262307,0.6,0.0,0.0,343.0,576.0,0.0,1,551.0,1
1057,1057,0.3480198561535618,0.3,0.0,0.0,324.0,552.0,0.0,1,1184.0,1
1058,1058,-0.7781696002425189,-0.8,1.0,0.0,363.0,865.0,0.0,0,132.0,1
1059,1059,-0.049125767647466456,-0.0,0.0,1.0,268.0,687.0,1.0,0,1095.0,1
1060,1060,-0.24105895294377055,-0.2,1.0,0.0,382.0,658.0,0.0,0,1380.0,1
1061,1061,-0.08867832217180383,-0.1,0.0,1.0,449.0,668.0,1.0,0,1743.0,1
1062,1062,0.8375353722268767,0.8,1.0,1.0,487.0,807.0,1.0,1,256.0,1
1063,1063,-0.12797276762229837,-0.1,1.0,0.0,256.0,901.0,0.0,0,1583.0,1
1064,1064,-0.08962744526098732,-0.1,1.0,0.0,277.0,606.0,1.0,1,4117.0,0
1065,1065,0.38581699237870304,0.4,0.0,0.0,470.0,835.0,1.0,0,-65.0,0
1066,1066,-0.7413288374428567,-0.7,1.0,0.0,416.0,727.0,0.0,0,407.0,1
1067,1067,-0.4253781662121956,-0.4,1.0,0.0,288.0,717.0,0.0,0,595.0,1
1068,1068,0.8874286775900818,0.9,1.0,1.0,430.0,744.0,1.0,1,346.0,1
1069,1069,-0.09824121650106699,-0.1,0.0,1.0,456.0,995.0,1.0,0,1619.0,1
1070,1070,0.18425670922066606,0.2,0.0,0.0,425.0,645.0,0.0,1,970.0,1
1071,1071,0.45343459038389156,0.5,1.0,1.0,430.0,920.0,1.0,1,300.0,1
1072,1072,-0.5096484568694939,-0.5,0.0,1.0,390.0,804.0,1.0,0,286.0,1
1073,1073,0.787640131433922,0.8,1.0,1.0,375.0,936.0,1.0,1,299.0,1
1074,1074,0.09914048115593188,0.1,1.0,1.0,302.0,982.0,1.0,1,1286.0,1
1075,1075,0.4890872135103518,0.5,0.0,0.0,320.0,899.0,0.0,1,261.0,1
1076,1076,-0.053885264333865535,-0.1,0.0,1.0,316.0,769.0,1.0,0,205.0,1
1077,1077,0.8468540411129527,0.8,1.0,1.0,490.0,632.0,1.0,1,288.0,1
1078,1078,-0.463261746702961,-0.5,0.0,1.0,457.0,585.0,1.0,0,448.0,1
1079,1079,0.1399227771803232,0.1,0.0,0.0,466.0,700.0,0.0,1,1874.0,1
1080,1080,-0.34933421771794404,-0.3,1.0,0.0,495.0,658.0,0.0,0,677.0,1
1081,1081,0.7959650238509776,0.8,1.0,1.0,269.0,647.0,1.0,1,144.0,1
1082,1082,0.19877770074938705,0.2,0.0,0.0,352.0,972.0,0.0,1,2006.0,1
1083,1083,0.27848755274524317,0.3,0.0,0.0,454.0,744.0,0.0,1,992.0,1
1084,1084,-0.3633625109177975,-0.4,0.0,1.0,475.0,909.0,1.0,0,286.0,1
1085,1085,-0.8948007992541862,-0.9,0.0,1.0,330.0,986.0,1.0,0,14.0,1
1086,1086,0.3178832485637252,0.3,1.0,1.0,389.0,533.0,1.0,1,388.0,1
1087,1087,0.17041426640268653,0.2,1.0,1.0,427.0,742.0,1.0,1,991.0,1
1088,1088,-0.5947787694812092,-0.6,1.0,0.0,330.0,720.0,0.0,0,190.0,1
1089,1089,-0.5625099124917727,-0.6,1.0,0.0,429.0,847.0,0.0,0,564.0,1
1090,1090,-0.1498113393788063,-0.1,1.0,0.0,459.0,670.0,0.0,0,1651.0,1
1091,1091,-0.159258405851741,-0.2,1.0,0.0,260.0,683.0,0.0,0,1117.0,1
1092,1092,-0.7692199757132123,-0.8,0.0,1.0,299.0,911.0,1.0,0,250.0,1
1093,1093,-0.7393785821695162,-0.7,0.0,1.0,367.0,576.0,1.0,0,137.0,1
1094,1094,-0.3262708148365784,-0.3,1.0,0.0,277.0,751.0,0.0,0,1512.0,1
1095,1095,-0.07926152879189474,-0.1,1.0,0.0,340.0,633.0,0.0,0,4027.0,1
1096,1096,0.3659096774462355,0.4,0.0,0.0,335.0,785.0,0.0,1,550.0,1
1097,1097,0.24420993554841253,0.2,1.0,1.0,335.0,611.0,1.0,1,1234.0,1
1098,1098,-0.11048395089946339,-0.1,0.0,1.0,474.0,610.0,1.0,0,1786.0,1
1099,1099,-0.8954242964066434,-0.9,1.0,0.0,375.0,514.0,0.0,0,91.0,1
1100,1100,0.5990896291183506,0.6,0.0,0.0,488.0,539.0,0.0,1,313.0,1
1101,1101,0.8549128331691046,0.9,1.0,1.0,498.0,820.0,1.0,1,62.0,1
1102,1102,0.7090459436071662,0.7,0.0,0.0,433.0,825.0,0.0,1,702.0,1
1103,1103,0.3198040409166293,0.3,0.0,0.0,489.0,726.0,0.0,1,2325.0,1
1104,1104,-0.2798531146232843,-0.3,1.0,0.0,252.0,986.0,0.0,0,2052.0,1
1105,1105,0.6465284595003237,0.6,1.0,1.0,343.0,599.0,1.0,1,1238.0,1
1106,1106,-0.39645840854674474,-0.4,0.0,1.0,429.0,518.0,1.0,0,213.0,1
1107,1107,0.715355130702349,0.7,0.0,0.0,349.0,584.0,0.0,1,277.0,1
1108,1108,-0.3812767742894402,-0.4,0.0,1.0,486.0,833.0,1.0,0,51.0,1
1109,1109,0.7394485324413832,0.7,1.0,1.0,307.0,500.0,1.0,1,183.0,1
1110,1110,-0.4415873003742493,-0.4,0.0,1.0,379.0,752.0,1.0,0,179.0,1
1111,1111,-0.4215199912705451,-0.4,0.0,1.0,300.0,711.0,1.0,0,149.0,1
1112,1112,0.5419663042860022,0.5,1.0,1.0,420.0,984.0,1.0,1,496.0,1
1113,1113,0.5189397315704297,0.5,0.0,0.0,284.0,869.0,0.0,1,317.0,1
1114,1114,-0.28424595051761326,-0.3,1.0,0.0,492.0,755.0,0.0,0,1003.0,1
1115,1115,-0.19257199265022562,-0.2,1.0,0.0,344.0,557.0,0.0,0,1759.0,1
1116,1116,0.4364227620841964,0.4,1.0,1.0,388.0,642.0,1.0,1,480.0,1
1117,1117,0.36423391946651484,0.4,0.0,0.0,403.0,632.0,0.0,1,745.0,1
1118,1118,0.5250202294271481,0.5,0.0,0.0,434.0,932.0,0.0,1,614.0,1
1119,1119,-0.43450809461447987,-0.4,1.0,0.0,430.0,506.0,0.0,0,724.0,1
1120,1120,-0.6725950321117329,-0.7,0.0,1.0,283.0,778.0,1.0,0,169.0,1
1121,1121,-0.516025462894194,-0.5,1.0,0.0,388.0,514.0,0.0,0,398.0,1
1122,1122,-0.34098061806722946,-0.3,1.0,0.0,358.0,836.0,0.0,0,636.0,1
1123,1123,-0.6318629596213614,-0.6,0.0,1.0,266.0,923.0,1.0,0,221.0,1
1124,1124,0.5151519199473001,0.5,1.0,1.0,272.0,876.0,1.0,1,92.0,1
1125,1125,0.4426789617671404,0.4,1.0,1.0,431.0,800.0,1.0,1,489.0,1
1126,1126,-0.03424697673829313,-0.0,0.0,1.0,433.0,821.0,1.0,0,1606.0,1
1127,1127,0.8358702523944189,0.8,0.0,0.0,349.0,697.0,0.0,1,264.0,1
1128,1128,0.21567052546621224,0.2,0.0,0.0,369.0,905.0,0.0,1,1436.0,1
1129,1129,-0.16425107751991264,-0.2,0.0,1.0,499.0,598.0,1.0,0,593.0,1
1130,1130,-0.034529418642036847,-0.0,0.0,1.0,333.0,829.0,1.0,0,338.0,1
1131,1131,0.21374447205541947,0.2,0.0,0.0,257.0,716.0,0.0,1,2097.0,1
1132,1132,0.3839853315414604,0.4,1.0,1.0,356.0,862.0,1.0,1,22.0,1
1133,1133,0.31399050874440826,0.3,0.0,0.0,348.0,728.0,0.0,1,1134.0,1
1134,1134,0.71311186553426,0.7,1.0,1.0,356.0,728.0,1.0,1,246.0,1
1135,1135,-0.02111012667737755,-0.0,0.0,1.0,448.0,708.0,1.0,0,1524.0,1
1136,1136,-0.3199235636256621,-0.3,0.0,1.0,446.0,611.0,1.0,0,423.0,1
1137,1137,0.47084786326258155,0.5,0.0,0.0,498.0,890.0,0.0,1,732.0,1
1138,1138,-0.5618944235469887,-0.6,1.0,0.0,456.0,523.0,0.0,0,1111.0,1
1139,1139,-0.7033623209576079,-0.7,0.0,1.0,443.0,578.0,1.0,0,-151.0,1
1140,1140,-0.28076427028323436,-0.3,0.0,1.0,460.0,518.0,1.0,0,202.0,1
1141,1141,-0.5840036736807576,-0.6,0.0,1.0,477.0,944.0,1.0,0,229.0,1
1142,1142,0.04636942877173078,0.0,0.0,0.0,404.0,516.0,1.0,0,910.0,0
1143,1143,-0.5563632106018074,-0.6,0.0,1.0,371.0,706.0,1.0,0,383.0,1
1144,1144,0.0411893407866476,0.0,0.0,0.0,300.0,691.0,0.0,1,4009.0,1
1145,1145,-0.10504350491249836,-0.1,1.0,0.0,423.0,635.0,1.0,1,3942.0,0
1146,1146,-0.7077897060109247,-0.7,0.0,1.0,255.0,557.0,1.0,0,148.0,1
1147,1147,0.7418879148951415,0.7,1.0,1.0,299.0,790.0,1.0,1,291.0,1
1148,1148,0.44276811131087357,0.4,0.0,0.0,260.0,731.0,0.0,1,319.0,1
1149,1149,-0.42849165212457774,-0.4,1.0,0.0,365.0,520.0,0.0,0,795.0,1
1150,1150,-0.6264521799054632,-0.6,1.0,0.0,463.0,528.0,0.0,0,459.0,1
1151,1151,0.09611880437369369,0.1,0.0,0.0,399.0,521.0,1.0,0,510.0,0
1152,1152,0.17950136028969677,0.2,0.0,0.0,330.0,741.0,0.0,1,1229.0,1
1153,1153,0.6466837073948629,0.6,0.0,0.0,273.0,853.0,1.0,0,-16.0,0
1154,1154,-0.7736192859592315,-0.8,1.0,0.0,414.0,581.0,0.0,0,1075.0,1
1155,1155,-0.22707160539149795,-0.2,0.0,1.0,467.0,827.0,1.0,0,316.0,1
1156,1156,0.011522728432905915,0.0,1.0,1.0,351.0,541.0,1.0,1,1878.0,1
1157,1157,0.5157254547889579,0.5,1.0,1.0,259.0,809.0,1.0,1,242.0,1
1158,1158,0.48094034707351974,0.5,0.0,0.0,275.0,683.0,0.0,1,942.0,1
1159,1159,-0.8273473389669408,-0.8,0.0,1.0,322.0,674.0,1.0,0,214.0,1
1160,1160,-0.3466491212487053,-0.3,0.0,1.0,264.0,704.0,1.0,0,472.0,1
1161,1161,-0.4221200771402448,-0.4,1.0,0.0,317.0,950.0,0.0,0,333.0,1
1162,1162,0.7295460253886189,0.7,0.0,0.0,286.0,709.0,0.0,1,2085.0,1
1163,1163,0.0270821192037225,0.0,1.0,1.0,324.0,511.0,1.0,1,275.0,1
1164,1164,0.02977349355199932,0.0,0.0,0.0,436.0,555.0,1.0,0,549.0,0
1165,1165,0.05025221853470618,0.1,0.0,0.0,493.0,528.0,1.0,0,-81.0,0
1166,1166,-0.5609055860448657,-0.6,0.0,1.0,479.0,919.0,1.0,0,252.0,1
1167,1167,0.19941956067642408,0.2,0.0,0.0,304.0,977.0,1.0,0,-191.0,0
1168,1168,-0.24364778348976335,-0.2,0.0,1.0,402.0,977.0,1.0,0,-249.0,1
1169,1169,0.6367023141017777,0.6,0.0,0.0,362.0,905.0,0.0,1,403.0,1
1170,1170,-0.6764990363141935,-0.7,1.0,0.0,359.0,798.0,0.0,0,133.0,1
1171,1171,0.4145934638533103,0.4,1.0,1.0,476.0,650.0,1.0,1,-16.0,1
1172,1172,0.04558700700019114,0.0,1.0,1.0,348.0,891.0,1.0,1,3761.0,1
1173,1173,-0.63583504037492,-0.6,0.0,1.0,264.0,861.0,1.0,0,85.0,1
1174,1174,-0.3111195408709305,-0.3,1.0,0.0,313.0,802.0,0.0,0,1085.0,1
1175,1175,-0.32129229828087513,-0.3,1.0,0.0,443.0,783.0,0.0,0,1154.0,1
1176,1176,0.19573405169744384,0.2,1.0,1.0,325.0,619.0,1.0,1,576.0,1
1177,1177,0.5609401771888775,0.6,1.0,1.0,432.0,764.0,1.0,1,204.0,1
1178,1178,-0.2802746934276653,-0.3,1.0,0.0,398.0,831.0,0.0,0,1511.0,1
1179,1179,-0.3458852740195346,-0.3,1.0,0.0,469.0,918.0,0.0,0,313.0,1
1180,1180,0.5708677334661548,0.6,0.0,0.0,316.0,760.0,0.0,1,774.0,1
1181,1181,0.6869259912221141,0.7,1.0,1.0,313.0,509.0,1.0,1,158.0,1
1182,1182,0.4099883118493334,0.4,1.0,1.0,272.0,875.0,1.0,1,613.0,1
1183,1183,-0.8794605888565045,-0.9,1.0,0.0,344.0,673.0,0.0,0,483.0,1
1184,1184,0.6324195153339393,0.6,1.0,1.0,381.0,826.0,1.0,1,183.0,1
1185,1185,-0.2415213427305305,-0.2,1.0,0.0,277.0,994.0,0.0,0,2009.0,1
1186,1186,0.556028893887298,0.6,0.0,0.0,280.0,632.0,0.0,1,908.0,1
1187,1187,0.5148428283658301,0.5,0.0,0.0,256.0,858.0,0.0,1,476.0,1
1188,1188,-0.39334512601336646,-0.4,1.0,0.0,291.0,560.0,0.0,0,269.0,1
1189,1189,0.05165957676436761,0.1,1.0,1.0,365.0,805.0,1.0,1,2280.0,1
1190,1190,0.49927133482580965,0.5,1.0,1.0,401.0,506.0,1.0,1,603.0,1
1191,1191,-0.16262888200055947,-0.2,0.0,1.0,360.0,913.0,1.0,0,-83.0,1
1192,1192,0.1798603140362901,0.2,1.0,1.0,352.0,650.0,1.0,1,698.0,1
1193,1193,-0.6255976785273936,-0.6,0.0,1.0,285.0,804.0,0.0,1,-79.0,0
1194,1194,0.5447401556011219,0.5,1.0,1.0,400.0,945.0,1.0,1,385.0,1
1195,1195,-0.014354123236862248,-0.0,0.0,1.0,448.0,987.0,1.0,0,1005.0,1
1196,1196,-0.49171331784515987,-0.5,1.0,0.0,413.0,518.0,0.0,0,1479.0,1
1197,1197,0.4745993852218445,0.5,1.0,1.0,365.0,609.0,1.0,1,106.0,1
1198,1198,-0.4161555510335409,-0.4,0.0,1.0,381.0,834.0,1.0,0,375.0,1
1199,1199,-0.5564620222492637,-0.6,0.0,1.0,408.0,897.0,1.0,0,505.0,1
1200,1200,0.22850713892266794,0.2,1.0,1.0,461.0,568.0,1.0,1,1391.0,1
1201,1201,-0.6944969326070338,-0.7,1.0,0.0,274.0,876.0,0.0,0,200.0,1
1202,1202,0.11509017649289788,0.1,0.0,0.0,285.0,973.0,0.0,1,3742.0,1
1203,1203,-0.006583944274555109,-0.0,0.0,1.0,497.0,836.0,1.0,0,1117.0,1
1204,1204,0.0955550520558981,0.1,0.0,0.0,439.0,834.0,1.0,0,1287.0,0
1205,1205,0.040444776053784603,0.0,0.0,0.0,453.0,537.0,1.0,0,830.0,0
1206,1206,-0.6065931282548949,-0.6,0.0,1.0,358.0,794.0,1.0,0,368.0,1
1207,1207,-0.5477101813492744,-0.5,1.0,0.0,406.0,517.0,0.0,0,87.0,1
1208,1208,-0.4355143860428931,-0.4,1.0,0.0,401.0,716.0,0.0,0,803.0,1
1209,1209,-0.8766102176053489,-0.9,1.0,0.0,262.0,693.0,0.0,0,715.0,1
1210,1210,0.36690239337930997,0.4,1.0,1.0,436.0,904.0,1.0,1,530.0,1
1211,1211,-0.8134234488232953,-0.8,0.0,1.0,470.0,896.0,1.0,0,-266.0,1
1212,1212,0.3015649271317048,0.3,1.0,1.0,299.0,964.0,1.0,1,-3.0,1
1213,1213,-0.4037877696035609,-0.4,0.0,1.0,428.0,649.0,1.0,0,1013.0,1
1214,1214,0.3365666786450444,0.3,0.0,0.0,450.0,942.0,0.0,1,758.0,1
1215,1215,-0.8714075850033471,-0.9,1.0,0.0,251.0,566.0,0.0,0,213.0,1
1216,1216,-0.41719303593515816,-0.4,1.0,0.0,251.0,513.0,0.0,0,696.0,1
1217,1217,0.40473922151258435,0.4,0.0,0.0,460.0,758.0,0.0,1,852.0,1
1218,1218,-0.4846011577251888,-0.5,0.0,1.0,253.0,840.0,1.0,0,297.0,1
1219,1219,0.6090388041303724,0.6,1.0,1.0,283.0,610.0,1.0,1,277.0,1
1220,1220,0.21597038211351538,0.2,0.0,0.0,259.0,789.0,0.0,1,802.0,1
1221,1221,0.22172127661410423,0.2,1.0,1.0,443.0,953.0,1.0,1,354.0,1
1222,1222,0.8164453468402236,0.8,0.0,0.0,468.0,575.0,0.0,1,-113.0,1
1223,1223,-0.14813815506885397,-0.1,0.0,1.0,296.0,520.0,1.0,0,1394.0,1
1224,1224,0.7428981640189577,0.7,0.0,0.0,365.0,519.0,0.0,1,846.0,1
1225,1225,-0.2752408980255505,-0.3,1.0,0.0,268.0,528.0,0.0,0,1124.0,1
1226,1226,-0.7498217070536444,-0.7,0.0,1.0,288.0,773.0,1.0,0,259.0,1
1227,1227,-0.7479573581956012,-0.7,0.0,1.0,375.0,906.0,1.0,0,339.0,1
1228,1228,0.35108604143331756,0.4,1.0,1.0,340.0,567.0,1.0,1,393.0,1
1229,1229,0.7490086899347806,0.7,0.0,0.0,395.0,620.0,0.0,1,305.0,1
1230,1230,-0.5136564696989433,-0.5,1.0,0.0,408.0,525.0,0.0,0,407.0,1
1231,1231,-0.7057160322058063,-0.7,1.0,0.0,342.0,878.0,0.0,0,120.0,1
1232,1232,-0.2826123779709233,-0.3,1.0,0.0,338.0,891.0,0.0,0,1061.0,1
1233,1233,-0.4172032733476871,-0.4,1.0,0.0,417.0,595.0,0.0,0,1138.0,1
1234,1234,0.7025624604093937,0.7,0.0,0.0,385.0,545.0,0.0,1,370.0,1
1235,1235,-0.3493830848712616,-0.3,0.0,1.0,353.0,899.0,1.0,0,368.0,1
1236,1236,0.4703807260675842,0.5,1.0,1.0,325.0,516.0,1.0,1,479.0,1
1237,1237,0.3171165820329941,0.3,0.0,0.0,362.0,960.0,0.0,1,468.0,1
1238,1238,-0.4935727341850858,-0.5,1.0,0.0,446.0,703.0,0.0,0,301.0,1
1239,1239,0.7890108916817123,0.8,1.0,1.0,470.0,656.0,1.0,1,254.0,1
1240,1240,0.35957488460927867,0.4,1.0,1.0,331.0,821.0,1.0,1,198.0,1
1241,1241,0.46918293101335873,0.5,1.0,1.0,314.0,878.0,1.0,1,518.0,1
1242,1242,0.7279701791945149,0.7,1.0,1.0,303.0,837.0,1.0,1,250.0,1
1243,1243,-0.12016097447727325,-0.1,0.0,1.0,484.0,901.0,1.0,0,1405.0,1
1244,1244,0.7955946744139909,0.8,1.0,1.0,321.0,730.0,1.0,1,319.0,1
1245,1245,-0.16351214898605393,-0.2,0.0,1.0,430.0,912.0,1.0,0,148.0,1
1246,1246,0.4217348117214951,0.4,1.0,1.0,405.0,952.0,1.0,1,133.0,1
1247,1247,0.003802696497764768,0.0,0.0,0.0,278.0,738.0,1.0,0,734.0,0
1248,1248,0.1334116941771416,0.1,1.0,1.0,317.0,529.0,1.0,1,1494.0,1
1249,1249,-0.243296494462103,-0.2,0.0,1.0,443.0,770.0,1.0,0,767.0,1
1250,1250,0.21558507710143793,0.2,1.0,1.0,290.0,935.0,1.0,1,335.0,1
1251,1251,-0.5316816658194093,-0.5,0.0,1.0,427.0,929.0,1.0,0,234.0,1
1252,1252,0.5676012866624983,0.6,1.0,1.0,432.0,809.0,1.0,1,379.0,1
1253,1253,-0.6418914356314229,-0.6,1.0,0.0,438.0,520.0,0.0,0,432.0,1
1254,1254,0.3794895483623689,0.4,1.0,1.0,444.0,871.0,1.0,1,165.0,1
1255,1255,-0.09246372163751493,-0.1,1.0,0.0,428.0,610.0,0.0,0,3962.0,1
1256,1256,0.6068116754429221,0.6,0.0,0.0,474.0,791.0,1.0,0,-85.0,0
1257,1257,0.5383181758811414,0.5,0.0,0.0,338.0,851.0,0.0,1,101.0,1
1258,1258,-0.5165568013554818,-0.5,1.0,0.0,349.0,980.0,0.0,0,511.0,1
1259,1259,0.6844439795635465,0.7,0.0,0.0,464.0,686.0,0.0,1,520.0,1
1260,1260,0.5078499970352227,0.5,0.0,0.0,451.0,759.0,1.0,0,-170.0,0
1261,1261,0.6503292036415637,0.7,0.0,0.0,373.0,981.0,1.0,0,-114.0,0
1262,1262,0.11853860199241428,0.1,1.0,1.0,358.0,634.0,1.0,1,1568.0,1
1263,1263,0.23950936964083647,0.2,1.0,1.0,453.0,514.0,1.0,1,883.0,1
1264,1264,-0.5237131637504671,-0.5,0.0,1.0,395.0,809.0,1.0,0,-364.0,1
1265,1265,0.07675839199637147,0.1,0.0,0.0,459.0,552.0,0.0,1,3989.0,1
1266,1266,-0.16976986054784082,-0.2,1.0,0.0,473.0,795.0,1.0,1,3732.0,0
1267,1267,0.6254248005661392,0.6,0.0,0.0,449.0,815.0,0.0,1,1316.0,1
1268,1268,0.6036457078800815,0.6,1.0,1.0,460.0,506.0,1.0,1,264.0,1
1269,1269,0.7549014610526653,0.8,0.0,0.0,415.0,903.0,0.0,1,372.0,1
1270,1270,0.12609863566565072,0.1,1.0,1.0,469.0,745.0,1.0,1,6.0,1
1271,1271,0.8298777242957233,0.8,0.0,0.0,352.0,926.0,0.0,1,252.0,1
1272,1272,-0.7334827577077921,-0.7,0.0,1.0,449.0,558.0,1.0,0,143.0,1
1273,1273,0.32816243482235163,0.3,0.0,0.0,346.0,960.0,0.0,1,364.0,1
1274,1274,-0.48339043465986664,-0.5,0.0,1.0,418.0,921.0,1.0,0,281.0,1
1275,1275,-0.2827617228065987,-0.3,0.0,1.0,464.0,598.0,1.0,0,728.0,1
1276,1276,-0.09243428155872435,-0.1,0.0,1.0,476.0,604.0,1.0,0,220.0,1
1277,1277,0.8903943738870942,0.9,1.0,1.0,405.0,945.0,1.0,1,100.0,1
1278,1278,-0.51813853266285,-0.5,1.0,0.0,298.0,687.0,0.0,0,1045.0,1
1279,1279,0.3233025255278926,0.3,1.0,1.0,329.0,660.0,1.0,1,491.0,1
1280,1280,-0.5802436793810608,-0.6,1.0,0.0,356.0,522.0,0.0,0,452.0,1
1281,1281,0.022799430244424546,0.0,1.0,1.0,274.0,774.0,1.0,1,2902.0,1
1282,1282,-0.7105650927558872,-0.7,0.0,1.0,408.0,998.0,1.0,0,234.0,1
1283,1283,-0.5699880814616138,-0.6,1.0,0.0,361.0,567.0,0.0,0,332.0,1
1284,1284,-0.09251047028708137,-0.1,1.0,0.0,312.0,718.0,1.0,1,40.0,0
1285,1285,0.1931423257753807,0.2,1.0,1.0,384.0,768.0,1.0,1,178.0,1
1286,1286,0.40522824304375027,0.4,1.0,1.0,466.0,790.0,1.0,1,344.0,1
1287,1287,0.5687298688389707,0.6,1.0,1.0,295.0,669.0,1.0,1,786.0,1
1288,1288,0.6116873317725652,0.6,0.0,0.0,346.0,830.0,0.0,1,224.0,1
1289,1289,-0.22656093130714727,-0.2,0.0,1.0,337.0,588.0,1.0,0,265.0,1
1290,1290,-0.588694255200479,-0.6,0.0,1.0,477.0,774.0,0.0,1,19.0,0
1291,1291,0.1909933065799826,0.2,1.0,1.0,435.0,613.0,1.0,1,672.0,1
1292,1292,-0.8472069879102125,-0.8,0.0,1.0,427.0,535.0,1.0,0,788.0,1
1293,1293,-0.2934674639146244,-0.3,0.0,1.0,402.0,979.0,1.0,0,139.0,1
1294,1294,-0.353952255554985,-0.4,0.0,1.0,437.0,639.0,1.0,0,274.0,1
1295,1295,0.5817252662142492,0.6,0.0,0.0,363.0,597.0,0.0,1,230.0,1
1296,1296,-0.5838229068479394,-0.6,0.0,1.0,327.0,583.0,1.0,0,420.0,1
1297,1297,0.5405109446046724,0.5,1.0,1.0,485.0,733.0,1.0,1,212.0,1
1298,1298,-0.5791606549387291,-0.6,0.0,1.0,379.0,570.0,1.0,0,281.0,1
1299,1299,-0.15733999403438303,-0.2,0.0,1.0,469.0,993.0,1.0,0,558.0,1
1300,1300,-0.3381505542286313,-0.3,0.0,1.0,383.0,682.0,1.0,0,475.0,1
1301,1301,0.5126092964448236,0.5,0.0,0.0,353.0,702.0,0.0,1,475.0,1
1302,1302,-0.880110874292761,-0.9,1.0,0.0,382.0,626.0,0.0,0,202.0,1
1303,1303,-0.5200582208629251,-0.5,1.0,0.0,283.0,981.0,0.0,0,256.0,1
1304,1304,-0.29742170437670123,-0.3,0.0,1.0,461.0,898.0,1.0,0,561.0,1
1305,1305,0.6690781027877654,0.7,1.0,1.0,428.0,884.0,1.0,1,168.0,1
1306,1306,0.25767910345336287,0.3,1.0,1.0,310.0,801.0,1.0,1,579.0,1
1307,1307,-0.08742397528743584,-0.1,0.0,1.0,440.0,875.0,1.0,0,615.0,1
1308,1308,0.1370500974119907,0.1,1.0,1.0,400.0,956.0,1.0,1,454.0,1
1309,1309,-0.7261845080560518,-0.7,0.0,1.0,319.0,631.0,1.0,0,100.0,1
1310,1310,0.37015223917566187,0.4,0.0,0.0,440.0,655.0,0.0,1,475.0,1
1311,1311,-0.5809852168940381,-0.6,1.0,0.0,300.0,584.0,0.0,0,126.0,1
1312,1312,0.19753024714497103,0.2,1.0,1.0,460.0,503.0,1.0,1,827.0,1
1313,1313,0.6408286200757031,0.6,0.0,0.0,271.0,738.0,0.0,1,451.0,1
1314,1314,-0.27488347652973655,-0.3,1.0,0.0,401.0,947.0,0.0,0,672.0,1
1315,1315,-0.5315044726771838,-0.5,1.0,0.0,373.0,560.0,0.0,0,487.0,1
1316,1316,0.6609061311617609,0.7,0.0,0.0,447.0,810.0,0.0,1,343.0,1
1317,1317,-0.26380045107251293,-0.3,1.0,0.0,349.0,756.0,0.0,0,1515.0,1
1318,1318,0.1954316620057287,0.2,1.0,1.0,326.0,604.0,1.0,1,2150.0,1
1319,1319,-0.602053820897883,-0.6,1.0,0.0,272.0,750.0,0.0,0,618.0,1
1320,1320,0.10596747809909479,0.1,0.0,0.0,325.0,841.0,1.0,0,544.0,0
1321,1321,-0.6025816235924503,-0.6,0.0,1.0,442.0,675.0,1.0,0,243.0,1
1322,1322,-0.8995798714778328,-0.9,1.0,0.0,421.0,764.0,0.0,0,895.0,1
1323,1323,-0.18194623700817203,-0.2,0.0,1.0,297.0,922.0,1.0,0,-149.0,1
1324,1324,0.6541659023579326,0.7,0.0,0.0,330.0,749.0,0.0,1,231.0,1
1325,1325,0.1597295647095024,0.2,0.0,0.0,404.0,758.0,0.0,1,3838.0,1
1326,1326,-0.2578035676776136,-0.3,0.0,1.0,450.0,530.0,1.0,0,1040.0,1
1327,1327,0.41714136597733587,0.4,1.0,1.0,264.0,861.0,1.0,1,265.0,1
1328,1328,-0.1930063353025162,-0.2,1.0,0.0,315.0,672.0,0.0,0,1373.0,1
1329,1329,-0.0765221211492989,-0.1,0.0,1.0,363.0,575.0,1.0,0,1352.0,1
1330,1330,-0.7503649129541224,-0.8,1.0,0.0,347.0,568.0,0.0,0,185.0,1
1331,1331,-0.5086611775374783,-0.5,1.0,0.0,490.0,914.0,0.0,0,596.0,1
1332,1332,0.45910497209192036,0.5,1.0,1.0,384.0,824.0,1.0,1,292.0,1
1333,1333,-0.772256838110596,-0.8,1.0,0.0,413.0,883.0,0.0,0,214.0,1
1334,1334,-0.31933393721839476,-0.3,0.0,1.0,447.0,651.0,1.0,0,562.0,1
1335,1335,-0.11550180486506112,-0.1,1.0,0.0,348.0,508.0,0.0,0,734.0,1
1336,1336,0.4882411370562322,0.5,1.0,1.0,270.0,794.0,1.0,1,336.0,1
1337,1337,0.3418971076402092,0.3,0.0,0.0,285.0,845.0,0.0,1,930.0,1
1338,1338,-0.6993274835420458,-0.7,0.0,1.0,478.0,869.0,1.0,0,143.0,1
1339,1339,-0.4121117525399138,-0.4,0.0,1.0,450.0,515.0,1.0,0,185.0,1
1340,1340,0.4559027492866127,0.5,1.0,1.0,447.0,613.0,1.0,1,140.0,1
1341,1341,-0.6890832922693857,-0.7,0.0,1.0,436.0,616.0,1.0,0,218.0,1
1342,1342,-0.7393396855812024,-0.7,1.0,0.0,456.0,866.0,0.0,0,398.0,1
1343,1343,0.7948755242970525,0.8,0.0,0.0,497.0,684.0,1.0,0,-81.0,0
1344,1344,0.3239732402364258,0.3,1.0,1.0,378.0,659.0,1.0,1,833.0,1
1345,1345,0.214321696724041,0.2,1.0,1.0,251.0,964.0,1.0,1,-15.0,1
1346,1346,-0.6313973082379494,-0.6,1.0,0.0,358.0,537.0,0.0,0,945.0,1
1347,1347,0.5445078800338666,0.5,0.0,0.0,376.0,620.0,0.0,1,344.0,1
1348,1348,0.6681245366667886,0.7,0.0,0.0,289.0,907.0,0.0,1,364.0,1
1349,1349,-0.1752012934155801,-0.2,1.0,0.0,360.0,866.0,0.0,0,1344.0,1
1350,1350,0.2795646795551182,0.3,1.0,1.0,428.0,666.0,1.0,1,466.0,1
1351,1351,0.6840986842671809,0.7,0.0,0.0,454.0,929.0,0.0,1,257.0,1
1352,1352,-0.8196083593472073,-0.8,0.0,1.0,480.0,728.0,1.0,0,802.0,1
1353,1353,-0.05727392545980714,-0.1,0.0,1.0,489.0,589.0,1.0,0,1892.0,1
1354,1354,-0.4617599247401997,-0.5,1.0,0.0,401.0,874.0,0.0,0,805.0,1
1355,1355,0.3476099070979156,0.3,1.0,1.0,488.0,754.0,1.0,1,468.0,1
1356,1356,0.8506178713081064,0.9,1.0,1.0,392.0,934.0,1.0,1,454.0,1
1357,1357,0.2725073309669802,0.3,1.0,1.0,477.0,590.0,1.0,1,263.0,1
1358,1358,-0.10727699151908421,-0.1,0.0,1.0,255.0,704.0,1.0,0,321.0,1
1359,1359,-0.48752043562658604,-0.5,0.0,1.0,349.0,691.0,1.0,0,260.0,1
1360,1360,0.07998193403374931,0.1,1.0,1.0,373.0,813.0,1.0,1,1044.0,1
1361,1361,0.6888801912872174,0.7,0.0,0.0,477.0,561.0,0.0,1,312.0,1
1362,1362,-0.11137275315967143,-0.1,1.0,0.0,482.0,609.0,0.0,0,3909.0,1
1363,1363,-0.7403131387487074,-0.7,0.0,1.0,373.0,766.0,1.0,0,331.0,1
1364,1364,-0.7587981357928286,-0.8,1.0,0.0,407.0,844.0,0.0,0,569.0,1
1365,1365,0.06745785661847503,0.1,0.0,0.0,413.0,588.0,1.0,0,3379.0,0
1366,1366,-0.732216405799139,-0.7,1.0,0.0,365.0,989.0,0.0,0,166.0,1
1367,1367,-0.7527331208815586,-0.8,1.0,0.0,435.0,866.0,0.0,0,629.0,1
1368,1368,-0.7977263482001785,-0.8,1.0,0.0,471.0,704.0,0.0,0,445.0,1
1369,1369,0.5473264922913096,0.5,0.0,0.0,396.0,987.0,1.0,0,-3.0,0
1370,1370,0.7665177660008041,0.8,0.0,0.0,333.0,531.0,0.0,1,326.0,1
1371,1371,0.7639726083684849,0.8,1.0,1.0,324.0,849.0,1.0,1,267.0,1
1372,1372,0.6202348097607943,0.6,1.0,1.0,478.0,672.0,1.0,1,530.0,1
1373,1373,0.48726147638301753,0.5,0.0,0.0,407.0,811.0,1.0,0,-258.0,0
1374,1374,0.3004750582388148,0.3,1.0,1.0,489.0,843.0,1.0,1,428.0,1
1375,1375,0.6637710787138603,0.7,1.0,1.0,498.0,782.0,1.0,1,150.0,1
1376,1376,-0.8566117623859077,-0.9,1.0,0.0,302.0,880.0,0.0,0,188.0,1
1377,1377,0.6904590012303103,0.7,1.0,1.0,267.0,812.0,1.0,1,161.0,1
1378,1378,0.8859485687666998,0.9,1.0,1.0,349.0,523.0,1.0,1,248.0,1
1379,1379,-0.029783912851105154,-0.0,1.0,0.0,313.0,626.0,1.0,1,3071.0,0
1380,1380,0.26852257662409984,0.3,1.0,1.0,432.0,801.0,1.0,1,777.0,1
1381,1381,0.4694880710208874,0.5,1.0,1.0,301.0,752.0,1.0,1,317.0,1
1382,1382,0.271270820053113,0.3,0.0,0.0,275.0,577.0,0.0,1,78.0,1
1383,1383,-0.053073873932494964,-0.1,1.0,0.0,347.0,886.0,1.0,1,287.0,0
1384,1384,-0.6464831537289621,-0.6,1.0,0.0,495.0,620.0,0.0,0,615.0,1
1385,1385,-0.6106651347069421,-0.6,1.0,0.0,493.0,982.0,0.0,0,1175.0,1
1386,1386,0.04137464041569294,0.0,1.0,1.0,487.0,970.0,1.0,1,563.0,1
1387,1387,-0.7175432794351366,-0.7,1.0,0.0,496.0,844.0,0.0,0,240.0,1
1388,1388,-0.47373963619788284,-0.5,1.0,0.0,493.0,787.0,0.0,0,770.0,1
1389,1389,-0.7374656785770921,-0.7,1.0,0.0,403.0,890.0,0.0,0,177.0,1
1390,1390,-0.11248684150073984,-0.1,0.0,1.0,340.0,644.0,1.0,0,806.0,1
1391,1391,0.27747533678176095,0.3,0.0,0.0,298.0,863.0,1.0,0,-381.0,0
1392,1392,-0.24494019332310124,-0.2,1.0,0.0,372.0,708.0,0.0,0,3690.0,1
1393,1393,0.6129070368642698,0.6,0.0,0.0,315.0,504.0,0.0,1,1351.0,1
1394,1394,-0.10020778616311377,-0.1,1.0,0.0,466.0,801.0,1.0,1,3733.0,0
1395,1395,-0.7750820799326965,-0.8,0.0,1.0,253.0,555.0,1.0,0,232.0,1
1396,1396,-0.49519288409797896,-0.5,1.0,0.0,369.0,547.0,0.0,0,684.0,1
1397,1397,0.5348719371265577,0.5,1.0,1.0,274.0,622.0,1.0,1,554.0,1
1398,1398,-0.8367370415612315,-0.8,1.0,0.0,326.0,601.0,0.0,0,333.0,1
1399,1399,-0.5835861571268308,-0.6,1.0,0.0,419.0,557.0,0.0,0,2444.0,1
1400,1400,-0.5188395682418098,-0.5,0.0,1.0,280.0,924.0,1.0,0,286.0,1
1401,1401,0.52618841092163,0.5,1.0,1.0,496.0,898.0,1.0,1,196.0,1
1402,1402,-0.41696963112497953,-0.4,1.0,0.0,499.0,906.0,0.0,0,1725.0,1
1403,1403,-0.17342193922741367,-0.2,0.0,1.0,381.0,654.0,1.0,0,765.0,1
1404,1404,-0.7381731638999018,-0.7,0.0,1.0,357.0,640.0,1.0,0,203.0,1
1405,1405,-0.053227370151542774,-0.1,0.0,1.0,416.0,955.0,1.0,0,309.0,1
1406,1406,-0.08632660863176378,-0.1,0.0,1.0,495.0,918.0,1.0,0,587.0,1
1407,1407,0.03446847655358398,0.0,0.0,0.0,495.0,783.0,1.0,0,2422.0,0
1408,1408,-0.8606498837521421,-0.9,0.0,1.0,270.0,566.0,1.0,0,114.0,1
1409,1409,-0.675198291841499,-0.7,1.0,0.0,433.0,746.0,0.0,0,341.0,1
1410,1410,-0.24667802114425064,-0.2,1.0,0.0,340.0,945.0,0.0,0,1115.0,1
1411,1411,0.03043677778842402,0.0,1.0,1.0,346.0,695.0,1.0,1,1059.0,1
1412,1412,-0.07773004016017981,-0.1,0.0,1.0,450.0,688.0,1.0,0,1122.0,1
1413,1413,-0.7418420605406655,-0.7,1.0,0.0,434.0,511.0,0.0,0,665.0,1
1414,1414,-0.0030873371120495596,-0.0,0.0,1.0,385.0,630.0,1.0,0,1475.0,1
1415,1415,0.05280707591204248,0.1,1.0,1.0,429.0,732.0,1.0,1,1869.0,1
1416,1416,0.2837740841940354,0.3,0.0,0.0,463.0,664.0,1.0,0,-37.0,0
1417,1417,0.46124803235921974,0.5,0.0,0.0,272.0,735.0,0.0,1,333.0,1
1418,1418,-0.29905624691495347,-0.3,1.0,0.0,315.0,791.0,0.0,0,824.0,1
1419,1419,0.6568668631507805,0.7,1.0,1.0,457.0,739.0,1.0,1,224.0,1
1420,1420,0.31614742075699465,0.3,1.0,1.0,314.0,603.0,1.0,1,643.0,1
1421,1421,-0.09288915269059417,-0.1,1.0,0.0,348.0,766.0,0.0,0,3886.0,1
1422,1422,-0.19507057738943423,-0.2,1.0,0.0,277.0,926.0,1.0,1,-243.0,0
1423,1423,-0.32107999685329647,-0.3,1.0,0.0,350.0,537.0,0.0,0,2103.0,1
1424,1424,0.2975452657524097,0.3,0.0,0.0,253.0,567.0,1.0,0,460.0,0
1425,1425,0.4851861018499638,0.5,0.0,0.0,436.0,904.0,0.0,1,310.0,1
1426,1426,-0.022536478312411012,-0.0,1.0,0.0,467.0,704.0,1.0,1,3829.0,0
1427,1427,0.06163737669472413,0.1,1.0,1.0,328.0,950.0,1.0,1,1362.0,1
1428,1428,0.5291505247722791,0.5,0.0,0.0,453.0,503.0,0.0,1,444.0,1
1429,1429,0.18238197237985976,0.2,1.0,1.0,434.0,856.0,1.0,1,940.0,1
1430,1430,0.5661528053594637,0.6,0.0,0.0,366.0,875.0,0.0,1,299.0,1
1431,1431,0.31083924505222227,0.3,1.0,1.0,266.0,632.0,1.0,1,1032.0,1
1432,1432,-0.5791944890022436,-0.6,1.0,0.0,427.0,814.0,0.0,0,19.0,1
1433,1433,-0.7143097883473346,-0.7,0.0,1.0,444.0,868.0,1.0,0,-232.0,1
1434,1434,-0.4995279055997841,-0.5,1.0,0.0,349.0,808.0,1.0,1,-157.0,0
1435,1435,0.7852816749558343,0.8,0.0,0.0,315.0,838.0,1.0,0,-203.0,0
1436,1436,-0.3334048590262937,-0.3,0.0,1.0,323.0,538.0,1.0,0,619.0,1
1437,1437,0.35049794313656657,0.4,1.0,1.0,462.0,782.0,1.0,1,236.0,1
1438,1438,-0.2461903681218237,-0.2,0.0,1.0,492.0,771.0,1.0,0,107.0,1
1439,1439,0.16500093419407735,0.2,0.0,0.0,479.0,820.0,0.0,1,891.0,1
1440,1440,0.8587536668191899,0.9,1.0,1.0,320.0,517.0,1.0,1,303.0,1
1441,1441,-0.7593861558489406,-0.8,0.0,1.0,287.0,932.0,1.0,0,91.0,1
1442,1442,-0.1717819890587574,-0.2,1.0,0.0,296.0,982.0,0.0,0,3722.0,1
1443,1443,-0.36809832483091454,-0.4,0.0,1.0,303.0,591.0,1.0,0,356.0,1
1444,1444,-0.1932835984902278,-0.2,1.0,0.0,368.0,746.0,0.0,0,2156.0,1
1445,1445,-0.6300512345257812,-0.6,1.0,0.0,305.0,829.0,0.0,0,236.0,1
1446,1446,0.3912602852828241,0.4,1.0,1.0,348.0,597.0,1.0,1,275.0,1
1447,1447,-0.43464896759278665,-0.4,0.0,1.0,459.0,573.0,1.0,0,628.0,1
1448,1448,0.3427026816531461,0.3,1.0,1.0,450.0,867.0,1.0,1,743.0,1
1449,1449,-0.10989917081680023,-0.1,0.0,1.0,431.0,833.0,1.0,0,1796.0,1
1450,1450,0.08057533049433196,0.1,0.0,0.0,294.0,893.0,0.0,1,3463.0,1
1451,1451,0.7844721545287935,0.8,1.0,1.0,415.0,881.0,1.0,1,34.0,1
1452,1452,0.433570134614801,0.4,0.0,0.0,444.0,635.0,0.0,1,331.0,1
1453,1453,0.14826068408643767,0.1,0.0,0.0,392.0,996.0,0.0,1,3612.0,1
1454,1454,-0.2975409391709144,-0.3,0.0,1.0,474.0,829.0,1.0,0,227.0,1
1455,1455,-0.7714015638402137,-0.8,1.0,0.0,329.0,670.0,0.0,0,181.0,1
1456,1456,-0.06997515603590498,-0.1,0.0,1.0,485.0,910.0,1.0,0,775.0,1
1457,1457,0.5169999903496291,0.5,0.0,0.0,444.0,621.0,0.0,1,1785.0,1
1458,1458,0.7285418071377098,0.7,1.0,1.0,489.0,577.0,1.0,1,494.0,1
1459,1459,-0.4319067884789833,-0.4,0.0,1.0,295.0,886.0,1.0,0,529.0,1
1460,1460,-0.5502085388232112,-0.6,1.0,0.0,323.0,922.0,0.0,0,265.0,1
1461,1461,-0.47242135299544447,-0.5,1.0,0.0,284.0,519.0,0.0,0,517.0,1
1462,1462,0.5903731083883249,0.6,0.0,0.0,313.0,923.0,0.0,1,834.0,1
1463,1463,0.43315809828204654,0.4,1.0,1.0,324.0,698.0,1.0,1,348.0,1
1464,1464,0.33869729431005935,0.3,1.0,1.0,297.0,986.0,1.0,1,1187.0,1
1465,1465,0.6673399197561555,0.7,1.0,1.0,363.0,817.0,1.0,1,230.0,1
1466,1466,-0.0338089179568406,-0.0,0.0,1.0,430.0,913.0,1.0,0,887.0,1
1467,1467,-0.7102946647880932,-0.7,1.0,0.0,295.0,730.0,0.0,0,645.0,1
1468,1468,0.8436189889761724,0.8,0.0,0.0,331.0,838.0,0.0,1,591.0,1
1469,1469,0.328846978703751,0.3,1.0,1.0,279.0,793.0,1.0,1,488.0,1
1470,1470,0.35086691068973874,0.4,1.0,1.0,320.0,741.0,1.0,1,179.0,1
1471,1471,0.3422898845797949,0.3,0.0,0.0,257.0,696.0,0.0,1,1427.0,1
1472,1472,-0.186537162046282,-0.2,0.0,1.0,299.0,911.0,1.0,0,410.0,1
1473,1473,0.8003970617142032,0.8,1.0,1.0,393.0,973.0,1.0,1,174.0,1
1474,1474,0.2852100249581301,0.3,1.0,1.0,357.0,589.0,1.0,1,734.0,1
1475,1475,-0.19943789142421808,-0.2,0.0,1.0,301.0,538.0,1.0,0,1671.0,1
1476,1476,0.7953596340488732,0.8,1.0,1.0,414.0,842.0,1.0,1,424.0,1
1477,1477,0.1514194509249488,0.2,1.0,1.0,441.0,979.0,1.0,1,2720.0,1
1478,1478,-0.668695784527827,-0.7,1.0,0.0,374.0,519.0,0.0,0,217.0,1
1479,1479,-0.8730289568428725,-0.9,0.0,1.0,495.0,516.0,1.0,0,309.0,1
1480,1480,0.5353873930097831,0.5,0.0,0.0,431.0,554.0,0.0,1,415.0,1
1481,1481,0.10670666783008398,0.1,1.0,1.0,352.0,517.0,1.0,1,1951.0,1
1482,1482,-0.179848614279989,-0.2,0.0,1.0,322.0,590.0,1.0,0,258.0,1
1483,1483,0.08548998493913873,0.1,0.0,0.0,487.0,907.0,1.0,0,-384.0,0
1484,1484,0.3092594988030405,0.3,0.0,0.0,325.0,825.0,0.0,1,770.0,1
1485,1485,-0.4671630074278081,-0.5,0.0,1.0,426.0,748.0,1.0,0,286.0,1
1486,1486,-0.8655635231676666,-0.9,1.0,0.0,350.0,804.0,0.0,0,326.0,1
1487,1487,0.27259698472017135,0.3,0.0,0.0,261.0,984.0,0.0,1,2125.0,1
1488,1488,-0.8122736734644119,-0.8,0.0,1.0,331.0,744.0,1.0,0,535.0,1
1489,1489,-0.8137696240644418,-0.8,1.0,0.0,372.0,716.0,0.0,0,232.0,1
