,trial,coherence,coherence_bin,green_side,correct_side,target_onset,checker_onset,decision,green_decision,decision_time,correct_decision
0,0,-0.034951237646183686,-0.0,1.0,0.0,285.0,720.0,0.0,0,1735.0,1
1,1,0.6053349517966974,0.6,0.0,0.0,294.0,893.0,0.0,1,183.0,1
2,2,-0.17420715981937407,-0.2,0.0,1.0,438.0,590.0,1.0,0,1972.0,1
3,3,-0.09837727158392096,-0.1,0.0,1.0,428.0,811.0,0.0,1,1761.0,0
4,4,0.25595327958443204,0.3,0.0,0.0,272.0,843.0,0.0,1,-65.0,1
5,5,0.48408293724617446,0.5,1.0,1.0,468.0,806.0,1.0,1,536.0,1
6,6,0.8089911060069447,0.8,0.0,0.0,349.0,637.0,0.0,1,824.0,1
7,7,0.5933825719919229,0.6,0.0,0.0,317.0,952.0,0.0,1,181.0,1
8,8,-0.25955715272987634,-0.3,1.0,0.0,496.0,632.0,0.0,0,182.0,1
9,9,0.05562019780379379,0.1,1.0,1.0,428.0,737.0,0.0,0,1835.0,0
10,10,-0.7057415103604908,-0.7,0.0,1.0,429.0,704.0,1.0,0,777.0,1
11,11,-0.2314026137078129,-0.2,0.0,1.0,422.0,713.0,1.0,0,1865.0,1
12,12,-0.8252992516343304,-0.8,1.0,0.0,260.0,880.0,0.0,0,210.0,1
13,13,-0.1226439187328009,-0.1,0.0,1.0,270.0,891.0,0.0,1,189.0,0
14,14,0.3538215938354531,0.4,0.0,0.0,314.0,521.0,0.0,1,435.0,1
15,15,0.06162947062217794,0.1,1.0,1.0,280.0,951.0,1.0,1,1769.0,1
16,16,0.43293145423752033,0.4,0.0,0.0,259.0,935.0,0.0,1,1436.0,1
17,17,-0.2564155294871988,-0.3,0.0,1.0,312.0,794.0,0.0,1,84.0,0
18,18,-0.43316646291399696,-0.4,0.0,1.0,428.0,804.0,0.0,1,1768.0,0
19,19,0.1917725173931476,0.2,0.0,0.0,326.0,980.0,0.0,1,344.0,1
20,20,0.17347149559815278,0.2,1.0,1.0,474.0,521.0,0.0,0,1655.0,0
21,21,-0.6621229533374853,-0.7,1.0,0.0,482.0,849.0,0.0,0,439.0,1
22,22,0.010811878227278027,0.0,1.0,1.0,462.0,573.0,0.0,0,975.0,0
23,23,0.20043226796807845,0.2,1.0,1.0,446.0,994.0,0.0,0,-350.0,0
24,24,-0.32524195737653605,-0.3,0.0,1.0,357.0,511.0,1.0,0,2132.0,1
25,25,0.12280092805930731,0.1,1.0,1.0,433.0,922.0,1.0,1,1645.0,1
26,26,0.7423785194578308,0.7,1.0,1.0,418.0,824.0,1.0,1,718.0,1
27,27,-0.557098590732255,-0.6,0.0,1.0,284.0,528.0,1.0,0,938.0,1
28,28,0.0953979414677848,0.1,1.0,1.0,494.0,791.0,1.0,1,1715.0,1
29,29,0.5496725104394679,0.5,0.0,0.0,467.0,779.0,0.0,1,564.0,1
30,30,-0.8279119794558522,-0.8,0.0,1.0,469.0,791.0,1.0,0,370.0,1
31,31,0.47272594215250774,0.5,1.0,1.0,475.0,992.0,1.0,1,1083.0,1
32,32,-0.6426863901024562,-0.6,1.0,0.0,414.0,932.0,0.0,0,474.0,1
33,33,0.6658176061038313,0.7,1.0,1.0,291.0,846.0,1.0,1,733.0,1
34,34,0.2237192032131844,0.2,0.0,0.0,413.0,555.0,0.0,1,682.0,1
35,35,0.4653713905249858,0.5,1.0,1.0,330.0,697.0,1.0,1,1253.0,1
36,36,-0.28328054246126044,-0.3,0.0,1.0,380.0,725.0,1.0,0,1895.0,1
37,37,-0.04349627064238726,-0.0,0.0,1.0,393.0,882.0,1.0,0,1725.0,1
38,38,-0.004769872011748055,-0.0,1.0,0.0,430.0,816.0,0.0,0,264.0,1
39,39,0.6833249014233379,0.7,0.0,0.0,282.0,891.0,0.0,1,187.0,1
40,40,0.48296093537771323,0.5,0.0,0.0,488.0,511.0,0.0,1,571.0,1
41,41,0.7352981225317362,0.7,0.0,0.0,314.0,899.0,0.0,1,117.0,1
42,42,-0.8474376683244857,-0.8,1.0,0.0,307.0,783.0,1.0,1,-370.0,0
43,43,0.7074072129139776,0.7,1.0,1.0,369.0,836.0,1.0,1,455.0,1
44,44,0.8194330015022954,0.8,1.0,1.0,365.0,519.0,1.0,1,406.0,1
45,45,-0.12209492806764499,-0.1,0.0,1.0,261.0,700.0,0.0,1,2039.0,0
46,46,0.7598279768478805,0.8,0.0,0.0,297.0,672.0,0.0,1,211.0,1
47,47,-0.3675919836741236,-0.4,0.0,1.0,390.0,893.0,1.0,0,1717.0,1
48,48,-0.012500159157923352,-0.0,1.0,0.0,488.0,952.0,1.0,1,930.0,0
49,49,0.7506866882750448,0.8,1.0,1.0,435.0,709.0,1.0,1,1006.0,1
50,50,-0.42753857522889566,-0.4,1.0,0.0,347.0,717.0,0.0,0,406.0,1
51,51,-0.35392027792208003,-0.4,1.0,0.0,415.0,663.0,0.0,0,1212.0,1
52,52,0.07996821411549626,0.1,0.0,0.0,274.0,700.0,0.0,1,1926.0,1
53,53,0.5160381798274402,0.5,1.0,1.0,438.0,580.0,1.0,1,1192.0,1
54,54,0.8479332637371414,0.8,0.0,0.0,299.0,696.0,1.0,0,-345.0,0
55,55,0.8764251809570595,0.9,1.0,1.0,345.0,823.0,1.0,1,382.0,1
56,56,-0.06494300262962449,-0.1,1.0,0.0,254.0,943.0,0.0,0,363.0,1
57,57,0.7539457115485394,0.8,1.0,1.0,492.0,874.0,1.0,1,444.0,1
58,58,-0.20232926483590297,-0.2,1.0,0.0,464.0,865.0,0.0,0,341.0,1
59,59,-0.6464030038745956,-0.6,0.0,1.0,296.0,883.0,1.0,0,321.0,1
60,60,-0.6307501917999097,-0.6,1.0,0.0,321.0,842.0,0.0,0,427.0,1
61,61,-0.7136693176292899,-0.7,1.0,0.0,319.0,911.0,0.0,0,310.0,1
62,62,0.35308862604970914,0.4,0.0,0.0,301.0,661.0,0.0,1,228.0,1
63,63,0.040225402204338345,0.0,0.0,0.0,269.0,900.0,0.0,1,1831.0,1
64,64,0.7878076035387528,0.8,1.0,1.0,288.0,970.0,1.0,1,202.0,1
65,65,-0.48651021218462626,-0.5,0.0,1.0,317.0,974.0,0.0,1,-441.0,0
66,66,-0.8895708680581734,-0.9,0.0,1.0,256.0,672.0,1.0,0,1202.0,1
67,67,0.4763650453694973,0.5,0.0,0.0,461.0,652.0,0.0,1,207.0,1
68,68,0.5272276433634443,0.5,1.0,1.0,368.0,987.0,1.0,1,1645.0,1
69,69,0.7728898533717549,0.8,0.0,0.0,414.0,808.0,0.0,1,538.0,1
70,70,-0.5164712028297842,-0.5,1.0,0.0,280.0,629.0,0.0,0,501.0,1
71,71,0.8321430619960591,0.8,0.0,0.0,471.0,805.0,0.0,1,184.0,1
72,72,0.061046856206975586,0.1,1.0,1.0,421.0,606.0,0.0,0,1973.0,0
73,73,-0.6326405430463448,-0.6,0.0,1.0,414.0,572.0,1.0,0,554.0,1
74,74,-0.06797327569269429,-0.1,0.0,1.0,461.0,893.0,0.0,1,-74.0,0
75,75,0.47084645324803975,0.5,1.0,1.0,464.0,547.0,1.0,1,119.0,1
76,76,-0.5575047459034268,-0.6,0.0,1.0,397.0,900.0,1.0,0,153.0,1
77,77,0.8219060426190784,0.8,1.0,1.0,375.0,897.0,1.0,1,1128.0,1
78,78,-0.8014039849581726,-0.8,1.0,0.0,250.0,901.0,0.0,0,279.0,1
79,79,-0.4658741813931118,-0.5,1.0,0.0,370.0,598.0,0.0,0,-328.0,1
80,80,-0.02903281703148297,-0.0,1.0,0.0,384.0,941.0,0.0,0,-165.0,1
81,81,-0.7559321277738351,-0.8,1.0,0.0,274.0,504.0,0.0,0,332.0,1
82,82,0.1447010703402033,0.1,1.0,1.0,311.0,735.0,0.0,0,1954.0,0
83,83,0.7851702701048565,0.8,1.0,1.0,381.0,514.0,1.0,1,485.0,1
84,84,0.07194537918252031,0.1,1.0,1.0,264.0,950.0,0.0,0,-14.0,0
85,85,0.6954350948915181,0.7,1.0,1.0,371.0,557.0,1.0,1,522.0,1
86,86,-0.25291584040261217,-0.3,0.0,1.0,357.0,812.0,1.0,0,1831.0,1
87,87,-0.06619909247064115,-0.1,1.0,0.0,357.0,901.0,0.0,0,1692.0,1
88,88,0.7917745365056265,0.8,0.0,0.0,274.0,511.0,0.0,1,185.0,1
89,89,-0.4404209575036076,-0.4,1.0,0.0,281.0,980.0,0.0,0,579.0,1
90,90,-0.3536934232122858,-0.4,1.0,0.0,361.0,860.0,0.0,0,569.0,1
91,91,0.6912141119455338,0.7,0.0,0.0,371.0,570.0,0.0,1,409.0,1
92,92,-0.310425115352311,-0.3,1.0,0.0,382.0,931.0,0.0,0,1047.0,1
93,93,0.7854604693860058,0.8,1.0,1.0,333.0,787.0,0.0,0,-250.0,0
94,94,0.8295323381586889,0.8,0.0,0.0,477.0,555.0,0.0,1,268.0,1
95,95,0.31438733157425525,0.3,1.0,1.0,468.0,561.0,1.0,1,1971.0,1
96,96,0.3825252637651694,0.4,0.0,0.0,364.0,943.0,0.0,1,543.0,1
97,97,-0.809136862444298,-0.8,0.0,1.0,278.0,945.0,1.0,0,687.0,1
98,98,-0.8645540042340885,-0.9,0.0,1.0,291.0,655.0,1.0,0,864.0,1
99,99,-0.550901160332004,-0.6,1.0,0.0,482.0,802.0,0.0,0,756.0,1
100,100,0.1523468743331674,0.2,1.0,1.0,458.0,561.0,1.0,1,1981.0,1
101,101,0.22232143702321838,0.2,0.0,0.0,329.0,925.0,0.0,1,-384.0,1
102,102,0.7388154183045651,0.7,1.0,1.0,329.0,907.0,1.0,1,374.0,1
103,103,-0.5122890448363513,-0.5,0.0,1.0,384.0,666.0,1.0,0,790.0,1
104,104,-0.06776790303945912,-0.1,0.0,1.0,448.0,538.0,0.0,1,2014.0,0
105,105,-0.1772806470575653,-0.2,0.0,1.0,435.0,689.0,1.0,0,1876.0,1
106,106,-0.48454323500849256,-0.5,0.0,1.0,298.0,895.0,1.0,0,1607.0,1
107,107,-0.7498018804385134,-0.7,1.0,0.0,282.0,562.0,0.0,0,-204.0,1
108,108,0.4464299016410108,0.4,0.0,0.0,298.0,845.0,0.0,1,377.0,1
109,109,0.3753408613937016,0.4,0.0,0.0,312.0,786.0,0.0,1,1062.0,1
110,110,-0.2700053320498911,-0.3,1.0,0.0,459.0,905.0,0.0,0,1036.0,1
111,111,0.2975344767040059,0.3,1.0,1.0,273.0,734.0,1.0,1,1993.0,1
112,112,-0.5734298105008901,-0.6,1.0,0.0,267.0,946.0,0.0,0,987.0,1
113,113,0.4138838095043472,0.4,1.0,1.0,493.0,706.0,1.0,1,1801.0,1
114,114,-0.2007024855688706,-0.2,1.0,0.0,411.0,703.0,0.0,0,1336.0,1
115,115,0.22205465150511394,0.2,0.0,0.0,342.0,531.0,0.0,1,357.0,1
116,116,0.6869358405627793,0.7,0.0,0.0,333.0,724.0,1.0,0,-367.0,0
117,117,-0.2944652239578799,-0.3,0.0,1.0,284.0,658.0,1.0,0,1588.0,1
118,118,0.8613017155925645,0.9,0.0,0.0,327.0,968.0,0.0,1,295.0,1
119,119,0.46816505385925844,0.5,0.0,0.0,370.0,913.0,0.0,1,497.0,1
120,120,-0.08806636555734437,-0.1,0.0,1.0,447.0,857.0,1.0,0,1696.0,1
121,121,-0.2767740243064365,-0.3,1.0,0.0,413.0,538.0,0.0,0,299.0,1
122,122,-0.7066918558438404,-0.7,0.0,1.0,341.0,793.0,1.0,0,1046.0,1
123,123,0.5344133475751421,0.5,1.0,1.0,441.0,934.0,0.0,0,-425.0,0
124,124,0.056358998162655216,0.1,0.0,0.0,402.0,790.0,0.0,1,688.0,1
125,125,-0.46845437805607987,-0.5,1.0,0.0,320.0,514.0,0.0,0,376.0,1
126,126,0.3522989875135084,0.4,0.0,0.0,376.0,680.0,0.0,1,354.0,1
127,127,-0.10022172090737747,-0.1,0.0,1.0,331.0,667.0,0.0,1,2002.0,0
128,128,0.39801612161734956,0.4,0.0,0.0,259.0,507.0,0.0,1,334.0,1
129,129,0.04801107471379851,0.0,0.0,0.0,309.0,694.0,0.0,1,1867.0,1
130,130,-0.7508284154246239,-0.8,0.0,1.0,330.0,963.0,1.0,0,317.0,1
131,131,0.8444758978983565,0.8,1.0,1.0,305.0,747.0,1.0,1,578.0,1
132,132,0.06309582255012214,0.1,0.0,0.0,485.0,852.0,0.0,1,383.0,1
133,133,-0.04670467428516656,-0.0,0.0,1.0,375.0,635.0,0.0,1,1990.0,0
134,134,-0.39019230062297194,-0.4,0.0,1.0,349.0,829.0,1.0,0,1822.0,1
135,135,0.3192610445382501,0.3,0.0,0.0,284.0,959.0,0.0,1,707.0,1
136,136,0.35437274833628385,0.4,0.0,0.0,396.0,892.0,0.0,1,1112.0,1
137,137,-0.6338679653471849,-0.6,1.0,0.0,440.0,592.0,0.0,0,488.0,1
138,138,-0.6277013426382423,-0.6,1.0,0.0,281.0,748.0,0.0,0,451.0,1
139,139,0.36231369508761124,0.4,1.0,1.0,365.0,569.0,1.0,1,516.0,1
140,140,0.8604436931109413,0.9,0.0,0.0,462.0,629.0,0.0,1,549.0,1
141,141,-0.6745633827948316,-0.7,1.0,0.0,279.0,834.0,0.0,0,117.0,1
142,142,-0.6630420174873242,-0.7,0.0,1.0,439.0,673.0,1.0,0,718.0,1
143,143,0.8524016103218502,0.9,0.0,0.0,288.0,759.0,0.0,1,403.0,1
144,144,0.6986857528601039,0.7,1.0,1.0,266.0,501.0,1.0,1,423.0,1
145,145,-0.5571198831852213,-0.6,1.0,0.0,349.0,997.0,0.0,0,4.0,1
146,146,0.43901073020895354,0.4,0.0,0.0,309.0,799.0,0.0,1,432.0,1
147,147,-0.537054894382474,-0.5,1.0,0.0,414.0,638.0,0.0,0,488.0,1
148,148,0.5481216622322781,0.5,1.0,1.0,256.0,975.0,1.0,1,989.0,1
149,149,0.4431334621553159,0.4,1.0,1.0,462.0,561.0,1.0,1,1977.0,1
150,150,-0.3788386777361592,-0.4,0.0,1.0,325.0,862.0,1.0,0,1813.0,1
151,151,0.28289827600279416,0.3,0.0,0.0,266.0,542.0,0.0,1,1772.0,1
152,152,-0.020119916686457295,-0.0,0.0,1.0,289.0,957.0,0.0,1,1754.0,0
153,153,0.6168293054594663,0.6,1.0,1.0,350.0,687.0,1.0,1,473.0,1
154,154,0.5030949027228765,0.5,0.0,0.0,426.0,903.0,0.0,1,221.0,1
155,155,0.2382418858048162,0.2,0.0,0.0,431.0,842.0,0.0,1,397.0,1
156,156,-0.20887761972080454,-0.2,1.0,0.0,383.0,729.0,0.0,0,318.0,1
157,157,-0.6277117870259104,-0.6,0.0,1.0,382.0,723.0,1.0,0,235.0,1
158,158,-0.5748787014880182,-0.6,1.0,0.0,279.0,603.0,0.0,0,648.0,1
159,159,-0.14257333201273148,-0.1,0.0,1.0,446.0,986.0,1.0,0,1568.0,1
160,160,0.2210138321674665,0.2,1.0,1.0,494.0,784.0,1.0,1,1722.0,1
161,161,-0.6667638173239427,-0.7,0.0,1.0,312.0,513.0,1.0,0,705.0,1
162,162,0.6133039345533166,0.6,0.0,0.0,391.0,958.0,0.0,1,1331.0,1
163,163,-0.09833616291691727,-0.1,1.0,0.0,256.0,635.0,0.0,0,1729.0,1
164,164,-0.6985943155240983,-0.7,0.0,1.0,445.0,587.0,1.0,0,568.0,1
165,165,-0.8966167614318467,-0.9,0.0,1.0,433.0,848.0,1.0,0,469.0,1
166,166,-0.42528729978644664,-0.4,1.0,0.0,356.0,784.0,0.0,0,30.0,1
167,167,0.39263992582812557,0.4,1.0,1.0,391.0,766.0,1.0,1,1843.0,1
168,168,-0.2364340136916646,-0.2,1.0,0.0,385.0,887.0,0.0,0,1038.0,1
169,169,-0.8842251353867999,-0.9,0.0,1.0,287.0,547.0,1.0,0,516.0,1
170,170,0.2740498026089834,0.3,1.0,1.0,277.0,636.0,0.0,0,87.0,0
171,171,0.8198016908680593,0.8,1.0,1.0,469.0,827.0,1.0,1,1054.0,1
172,172,0.659604803209152,0.7,1.0,1.0,319.0,884.0,1.0,1,897.0,1
173,173,0.7567058134439048,0.8,0.0,0.0,281.0,835.0,0.0,1,534.0,1
174,174,0.8235133728051013,0.8,1.0,1.0,257.0,980.0,1.0,1,1043.0,1
175,175,-0.05570361843842109,-0.1,0.0,1.0,340.0,711.0,0.0,1,1949.0,0
176,176,0.3331104649947142,0.3,1.0,1.0,410.0,598.0,1.0,1,902.0,1
177,177,-0.05085392553520007,-0.1,1.0,0.0,334.0,523.0,0.0,0,993.0,1
178,178,0.17692938119066481,0.2,1.0,1.0,486.0,604.0,0.0,0,620.0,0
179,179,-0.1861658742698039,-0.2,1.0,0.0,359.0,795.0,0.0,0,1846.0,1
180,180,-0.21467011868438823,-0.2,1.0,0.0,467.0,571.0,0.0,0,932.0,1
181,181,-0.08160912624036987,-0.1,1.0,0.0,257.0,602.0,0.0,0,271.0,1
182,182,-0.3275400693619469,-0.3,0.0,1.0,496.0,896.0,0.0,1,-362.0,0
183,183,-0.40636897110074055,-0.4,0.0,1.0,387.0,600.0,1.0,0,533.0,1
184,184,-0.8624716632223642,-0.9,0.0,1.0,320.0,713.0,1.0,0,257.0,1
185,185,-0.3101186211213365,-0.3,0.0,1.0,269.0,512.0,1.0,0,2219.0,1
186,186,0.23703247749195577,0.2,1.0,1.0,324.0,642.0,1.0,1,2034.0,1
187,187,-0.3380981379798764,-0.3,1.0,0.0,438.0,565.0,0.0,0,357.0,1
188,188,-0.3587031607000605,-0.4,1.0,0.0,390.0,504.0,0.0,0,436.0,1
189,189,-0.272146625720598,-0.3,1.0,0.0,395.0,614.0,0.0,0,661.0,1
190,190,-0.029490155596023637,-0.0,0.0,1.0,458.0,765.0,0.0,1,577.0,0
191,191,-0.4958408765164146,-0.5,0.0,1.0,327.0,895.0,1.0,0,918.0,1
192,192,-0.5148638349602774,-0.5,0.0,1.0,403.0,573.0,1.0,0,464.0,1
193,193,-0.26685898653660545,-0.3,0.0,1.0,285.0,613.0,1.0,0,2102.0,1
194,194,0.2752872223997208,0.3,1.0,1.0,491.0,561.0,1.0,1,688.0,1
195,195,-0.5507579860974037,-0.6,1.0,0.0,282.0,931.0,0.0,0,717.0,1
196,196,0.4380733783367382,0.4,0.0,0.0,294.0,573.0,0.0,1,493.0,1
197,197,-0.625821991658464,-0.6,1.0,0.0,288.0,657.0,0.0,0,165.0,1
198,198,-0.09786539977661768,-0.1,1.0,0.0,483.0,598.0,0.0,0,589.0,1
199,199,-0.5282541496107694,-0.5,1.0,0.0,332.0,933.0,0.0,0,-365.0,1
200,200,-0.7489074592017132,-0.7,0.0,1.0,366.0,809.0,1.0,0,685.0,1
201,201,0.7800274543916211,0.8,1.0,1.0,428.0,765.0,1.0,1,517.0,1
202,202,0.33468283873502946,0.3,0.0,0.0,447.0,558.0,0.0,1,825.0,1
203,203,-0.3957855041416648,-0.4,1.0,0.0,340.0,635.0,0.0,0,545.0,1
204,204,-0.3247697132529277,-0.3,1.0,0.0,467.0,982.0,0.0,0,-449.0,1
205,205,0.5889948772505095,0.6,1.0,1.0,379.0,583.0,1.0,1,1518.0,1
206,206,-0.7865765860987932,-0.8,0.0,1.0,458.0,595.0,1.0,0,177.0,1
207,207,-0.7961312516798336,-0.8,0.0,1.0,387.0,639.0,1.0,0,544.0,1
208,208,0.8533000736021848,0.9,0.0,0.0,377.0,672.0,0.0,1,471.0,1
209,209,0.6029267191512732,0.6,1.0,1.0,456.0,656.0,1.0,1,1408.0,1
210,210,0.5910705505880657,0.6,1.0,1.0,341.0,830.0,1.0,1,499.0,1
211,211,0.5122492688669013,0.5,1.0,1.0,253.0,665.0,1.0,1,512.0,1
212,212,-0.5746056838590394,-0.6,1.0,0.0,302.0,548.0,0.0,0,260.0,1
213,213,-0.2611737716965936,-0.3,1.0,0.0,423.0,655.0,0.0,0,222.0,1
214,214,-0.16069038287577087,-0.2,1.0,0.0,349.0,591.0,0.0,0,1050.0,1
215,215,0.16592039193676056,0.2,0.0,0.0,302.0,857.0,0.0,1,181.0,1
216,216,0.5777930892436812,0.6,1.0,1.0,490.0,770.0,0.0,0,-40.0,0
217,217,0.07803849463902035,0.1,0.0,0.0,459.0,823.0,0.0,1,1718.0,1
218,218,-0.5690601280228051,-0.6,0.0,1.0,425.0,868.0,1.0,0,1347.0,1
219,219,0.5645782697351279,0.6,0.0,0.0,336.0,773.0,0.0,1,271.0,1
220,220,-0.036232645578247014,-0.0,1.0,0.0,463.0,877.0,0.0,0,1660.0,1
221,221,0.030025522235151758,0.0,0.0,0.0,429.0,809.0,0.0,1,1762.0,1
222,222,0.7775511485193912,0.8,1.0,1.0,282.0,730.0,1.0,1,388.0,1
223,223,0.12104497074354337,0.1,1.0,1.0,484.0,709.0,0.0,0,117.0,0
224,224,0.20637754266144726,0.2,1.0,1.0,305.0,945.0,1.0,1,1750.0,1
225,225,-0.7276179645179859,-0.7,0.0,1.0,315.0,865.0,0.0,1,1820.0,0
226,226,0.3218870740709615,0.3,0.0,0.0,489.0,607.0,0.0,1,644.0,1
227,227,-0.5422279748934377,-0.5,1.0,0.0,294.0,652.0,0.0,0,314.0,1
228,228,0.5942688460611841,0.6,1.0,1.0,322.0,675.0,1.0,1,823.0,1
229,229,0.45823772919223893,0.5,0.0,0.0,390.0,824.0,0.0,1,306.0,1
230,230,0.07998685687947904,0.1,0.0,0.0,273.0,741.0,0.0,1,416.0,1
231,231,0.6396025618649882,0.6,0.0,0.0,490.0,702.0,0.0,1,258.0,1
232,232,0.35862475174515607,0.4,0.0,0.0,421.0,810.0,0.0,1,-291.0,1
233,233,0.25102382554297564,0.3,0.0,0.0,355.0,606.0,0.0,1,529.0,1
234,234,0.043273275393384214,0.0,1.0,1.0,405.0,875.0,0.0,0,1720.0,0
235,235,-0.01704486942206629,-0.0,1.0,0.0,326.0,710.0,0.0,0,1964.0,1
236,236,-0.10018401641991104,-0.1,0.0,1.0,404.0,507.0,1.0,0,2089.0,1
237,237,-0.6731068462261826,-0.7,0.0,1.0,497.0,501.0,1.0,0,1362.0,1
238,238,-0.35098201085130587,-0.4,0.0,1.0,491.0,981.0,1.0,0,1188.0,1
239,239,0.7504384207842433,0.8,0.0,0.0,442.0,948.0,0.0,1,-220.0,1
240,240,0.5273262370321185,0.5,0.0,0.0,418.0,960.0,0.0,1,-458.0,1
241,241,0.6154650336480717,0.6,1.0,1.0,313.0,534.0,1.0,1,573.0,1
242,242,0.44814858695618,0.4,1.0,1.0,433.0,899.0,0.0,0,-252.0,0
243,243,0.7365229484383614,0.7,0.0,0.0,456.0,855.0,0.0,1,769.0,1
244,244,-0.7916663779374089,-0.8,1.0,0.0,270.0,522.0,0.0,0,228.0,1
245,245,-0.02790050231417396,-0.0,1.0,0.0,425.0,659.0,0.0,0,1766.0,1
246,246,0.8803198301520704,0.9,1.0,1.0,422.0,832.0,1.0,1,466.0,1
247,247,-0.09510718300216359,-0.1,1.0,0.0,355.0,654.0,0.0,0,911.0,1
248,248,0.7041406818009889,0.7,0.0,0.0,332.0,584.0,0.0,1,954.0,1
249,249,-0.6901072072074209,-0.7,0.0,1.0,456.0,544.0,1.0,0,360.0,1
250,250,-0.2253180133614039,-0.2,0.0,1.0,429.0,511.0,1.0,0,2060.0,1
251,251,0.2193557770200686,0.2,1.0,1.0,299.0,903.0,1.0,1,1208.0,1
252,252,0.008524673821146966,0.0,1.0,1.0,286.0,866.0,0.0,0,1848.0,0
253,253,-0.21472049593349407,-0.2,0.0,1.0,405.0,920.0,0.0,1,1675.0,0
254,254,0.4905635699022085,0.5,0.0,0.0,258.0,892.0,0.0,1,50.0,1
255,255,-0.02628234997450629,-0.0,1.0,0.0,434.0,682.0,0.0,0,1884.0,1
256,256,0.09593070172217089,0.1,0.0,0.0,319.0,948.0,0.0,1,1733.0,1
257,257,-0.3711602107965095,-0.4,1.0,0.0,373.0,917.0,0.0,0,310.0,1
258,258,-0.8794680909193721,-0.9,1.0,0.0,414.0,515.0,0.0,0,271.0,1
259,259,-0.7473561906250592,-0.7,1.0,0.0,322.0,822.0,0.0,0,396.0,1
260,260,0.7198584087582921,0.7,1.0,1.0,371.0,510.0,1.0,1,1219.0,1
261,261,-0.23585892158000454,-0.2,1.0,0.0,475.0,822.0,0.0,0,223.0,1
262,262,-0.5864068972879304,-0.6,0.0,1.0,356.0,620.0,1.0,0,1024.0,1
263,263,-0.3680586637613307,-0.4,0.0,1.0,369.0,879.0,0.0,1,1752.0,0
264,264,-0.04606537553906409,-0.0,0.0,1.0,397.0,780.0,0.0,1,233.0,0
265,265,0.5928894892342146,0.6,0.0,0.0,283.0,959.0,0.0,1,258.0,1
266,266,0.8505898538245883,0.9,0.0,0.0,276.0,575.0,0.0,1,109.0,1
267,267,0.7307353742714778,0.7,1.0,1.0,293.0,555.0,1.0,1,752.0,1
268,268,-0.49675010216782833,-0.5,1.0,0.0,364.0,880.0,0.0,0,616.0,1
269,269,0.5161989254133091,0.5,1.0,1.0,454.0,964.0,1.0,1,1582.0,1
270,270,-0.12349965168414212,-0.1,0.0,1.0,343.0,755.0,0.0,1,1902.0,0
271,271,-0.4134443358234368,-0.4,0.0,1.0,312.0,850.0,1.0,0,1838.0,1
272,272,0.7329610972011057,0.7,0.0,0.0,302.0,904.0,0.0,1,354.0,1
273,273,0.6200484783959269,0.6,1.0,1.0,394.0,819.0,1.0,1,297.0,1
274,274,-0.06802920781798749,-0.1,0.0,1.0,371.0,644.0,1.0,0,1985.0,1
275,275,-0.4350242187474184,-0.4,1.0,0.0,332.0,737.0,0.0,0,241.0,1
276,276,-0.3977167448999216,-0.4,0.0,1.0,331.0,854.0,1.0,0,1815.0,1
277,277,0.4828828612907755,0.5,0.0,0.0,421.0,773.0,0.0,1,1076.0,1
278,278,-0.720795160057657,-0.7,1.0,0.0,498.0,725.0,0.0,0,-133.0,1
279,279,-0.07834603997581191,-0.1,1.0,0.0,496.0,507.0,0.0,0,1997.0,1
280,280,-0.7860431974006227,-0.8,1.0,0.0,296.0,580.0,0.0,0,354.0,1
281,281,0.7076014480877214,0.7,0.0,0.0,476.0,838.0,0.0,1,296.0,1
282,282,-0.4437442899584744,-0.4,1.0,0.0,261.0,632.0,0.0,0,227.0,1
283,283,0.5110861329862809,0.5,0.0,0.0,435.0,679.0,0.0,1,726.0,1
284,284,0.07586562491030768,0.1,1.0,1.0,464.0,581.0,1.0,1,345.0,1
285,285,0.6473998548705783,0.6,1.0,1.0,460.0,837.0,1.0,1,1073.0,1
286,286,-0.14902131141991015,-0.1,0.0,1.0,299.0,672.0,0.0,1,2029.0,0
287,287,0.7434930178186684,0.7,0.0,0.0,365.0,788.0,0.0,1,167.0,1
288,288,0.11915566302224823,0.1,0.0,0.0,343.0,786.0,0.0,1,661.0,1
289,289,0.2819049990959136,0.3,0.0,0.0,453.0,795.0,0.0,1,1752.0,1
290,290,-0.5762947256810245,-0.6,0.0,1.0,453.0,754.0,1.0,0,593.0,1
291,291,-0.14112947950820065,-0.1,1.0,0.0,308.0,755.0,0.0,0,1157.0,1
292,292,0.19579377915738372,0.2,1.0,1.0,395.0,693.0,1.0,1,1842.0,1
293,293,-0.2665914271968286,-0.3,1.0,0.0,496.0,503.0,0.0,0,291.0,1
294,294,0.49909597089871227,0.5,1.0,1.0,366.0,532.0,1.0,1,882.0,1
295,295,0.5237892378489665,0.5,0.0,0.0,339.0,743.0,0.0,1,428.0,1
296,296,-0.4656430512436539,-0.5,1.0,0.0,480.0,526.0,0.0,0,314.0,1
297,297,0.4989034123106849,0.5,1.0,1.0,474.0,891.0,1.0,1,1445.0,1
298,298,-0.19201179431180504,-0.2,0.0,1.0,378.0,639.0,0.0,1,133.0,0
299,299,-0.8101392280063274,-0.8,0.0,1.0,424.0,667.0,1.0,0,289.0,1
300,300,-0.7952446578899037,-0.8,1.0,0.0,317.0,561.0,0.0,0,372.0,1
301,301,0.07139054689477797,0.1,0.0,0.0,385.0,731.0,0.0,1,1884.0,1
302,302,0.7543927286609394,0.8,0.0,0.0,394.0,764.0,0.0,1,162.0,1
303,303,-0.061459835649212424,-0.1,1.0,0.0,411.0,864.0,0.0,0,1725.0,1
304,304,-0.035968562871937504,-0.0,1.0,0.0,424.0,630.0,0.0,0,1946.0,1
305,305,-0.6335472732445164,-0.6,1.0,0.0,256.0,930.0,0.0,0,114.0,1
306,306,-0.7416931656331145,-0.7,1.0,0.0,269.0,571.0,0.0,0,290.0,1
307,307,0.5093258992780948,0.5,0.0,0.0,480.0,863.0,0.0,1,447.0,1
308,308,-0.015620781757652247,-0.0,0.0,1.0,392.0,638.0,0.0,1,1970.0,0
309,309,0.4388336949459716,0.4,1.0,1.0,257.0,592.0,1.0,1,631.0,1
310,310,-0.5341728959403507,-0.5,1.0,0.0,439.0,929.0,0.0,0,932.0,1
311,311,0.22704803993243472,0.2,1.0,1.0,394.0,999.0,0.0,0,1577.0,0
312,312,0.15214046889346122,0.2,1.0,1.0,329.0,881.0,0.0,0,1790.0,0
313,313,-0.5667482084410043,-0.6,0.0,1.0,454.0,509.0,1.0,0,457.0,1
314,314,0.2834953020709011,0.3,0.0,0.0,327.0,538.0,0.0,1,1745.0,1
315,315,-0.579779360797118,-0.6,1.0,0.0,470.0,583.0,0.0,0,817.0,1
316,316,-0.8283380356088073,-0.8,1.0,0.0,393.0,551.0,0.0,0,386.0,1
317,317,0.8506959255603913,0.9,1.0,1.0,372.0,594.0,1.0,1,824.0,1
318,318,0.8320064552968568,0.8,1.0,1.0,393.0,783.0,1.0,1,384.0,1
319,319,-0.8940519353943224,-0.9,1.0,0.0,397.0,520.0,0.0,0,123.0,1
320,320,-0.4431156041592679,-0.4,1.0,0.0,395.0,779.0,0.0,0,606.0,1
321,321,0.15241377548878876,0.2,1.0,1.0,493.0,919.0,0.0,0,1588.0,0
322,322,-0.27941180407118393,-0.3,0.0,1.0,453.0,903.0,1.0,0,1644.0,1
323,323,0.6837271455767954,0.7,1.0,1.0,319.0,912.0,1.0,1,-391.0,1
324,324,-0.8605876950031627,-0.9,1.0,0.0,337.0,515.0,0.0,0,608.0,1
325,325,-0.7960916084647037,-0.8,1.0,0.0,397.0,765.0,0.0,0,418.0,1
326,326,-0.4110365655993245,-0.4,1.0,0.0,398.0,835.0,0.0,0,127.0,1
327,327,-0.04509731224237978,-0.0,0.0,1.0,471.0,707.0,0.0,1,1822.0,0
328,328,-0.7523238349645859,-0.8,1.0,0.0,432.0,803.0,0.0,0,295.0,1
329,329,-0.09430327319103327,-0.1,1.0,0.0,444.0,985.0,0.0,0,571.0,1
330,330,-0.24960662244551424,-0.2,0.0,1.0,335.0,900.0,0.0,1,-225.0,0
331,331,0.45629903418664053,0.5,1.0,1.0,495.0,554.0,1.0,1,651.0,1
332,332,-0.08371573058705395,-0.1,1.0,0.0,457.0,525.0,1.0,1,2018.0,0
333,333,-0.7152110058971572,-0.7,1.0,0.0,306.0,843.0,0.0,0,551.0,1
334,334,-0.5131544512665571,-0.5,1.0,0.0,339.0,866.0,1.0,1,-85.0,0
335,335,0.24924963603054417,0.2,0.0,0.0,438.0,749.0,0.0,1,553.0,1
336,336,-0.060275161153509504,-0.1,1.0,0.0,472.0,826.0,0.0,0,702.0,1
337,337,-0.2551048189557672,-0.3,0.0,1.0,273.0,641.0,1.0,0,2086.0,1
338,338,0.8569259800275036,0.9,1.0,1.0,316.0,757.0,1.0,1,737.0,1
339,339,-0.16955321313602534,-0.2,1.0,0.0,296.0,787.0,0.0,0,727.0,1
340,340,0.5391567492559487,0.5,1.0,1.0,426.0,548.0,0.0,0,56.0,0
341,341,0.6949119462887526,0.7,0.0,0.0,442.0,581.0,0.0,1,197.0,1
342,342,-0.06380451340703863,-0.1,0.0,1.0,329.0,676.0,0.0,1,1995.0,0
343,343,-0.4244075410809726,-0.4,0.0,1.0,486.0,723.0,1.0,0,1371.0,1
344,344,0.8617305239968936,0.9,1.0,1.0,476.0,647.0,1.0,1,547.0,1
345,345,-0.07401361538605755,-0.1,0.0,1.0,301.0,661.0,0.0,1,1088.0,0
346,346,0.46258089955255965,0.5,0.0,0.0,346.0,862.0,0.0,1,-368.0,1
347,347,0.6369986063820238,0.6,0.0,0.0,349.0,518.0,0.0,1,543.0,1
348,348,0.7192621063100045,0.7,1.0,1.0,321.0,991.0,1.0,1,658.0,1
349,349,0.21672788179129598,0.2,0.0,0.0,432.0,849.0,0.0,1,299.0,1
350,350,0.7976646236336592,0.8,1.0,1.0,369.0,824.0,1.0,1,327.0,1
351,351,-0.6609065691117721,-0.7,1.0,0.0,338.0,852.0,0.0,0,120.0,1
352,352,-0.8673189917583691,-0.9,1.0,0.0,454.0,611.0,0.0,0,155.0,1
353,353,0.2214836264778247,0.2,1.0,1.0,490.0,756.0,1.0,1,1754.0,1
354,354,-0.5567960725745154,-0.6,1.0,0.0,381.0,613.0,0.0,0,506.0,1
355,355,-0.19926071275723045,-0.2,0.0,1.0,264.0,620.0,0.0,1,2116.0,0
356,356,0.7259012158843047,0.7,1.0,1.0,262.0,712.0,1.0,1,276.0,1
357,357,0.32043944678702496,0.3,1.0,1.0,251.0,896.0,1.0,1,1853.0,1
358,358,0.16634271160867475,0.2,1.0,1.0,360.0,664.0,1.0,1,796.0,1
359,359,-0.8299321179616211,-0.8,1.0,0.0,358.0,735.0,0.0,0,177.0,1
360,360,-0.2611826784588026,-0.3,1.0,0.0,400.0,683.0,0.0,0,107.0,1
361,361,0.11694632069800204,0.1,0.0,0.0,334.0,625.0,0.0,1,281.0,1
362,362,0.062391294695769095,0.1,0.0,0.0,472.0,775.0,0.0,1,553.0,1
363,363,0.7162689439101754,0.7,1.0,1.0,298.0,678.0,1.0,1,254.0,1
364,364,0.8363005066605779,0.8,0.0,0.0,262.0,971.0,0.0,1,-3.0,1
365,365,0.4305727098843496,0.4,1.0,1.0,266.0,787.0,1.0,1,1517.0,1
366,366,0.23497180602044854,0.2,0.0,0.0,395.0,996.0,0.0,1,429.0,1
367,367,-0.26454274315553494,-0.3,1.0,0.0,413.0,798.0,0.0,0,1789.0,1
368,368,0.5230286352290111,0.5,0.0,0.0,444.0,849.0,0.0,1,347.0,1
369,369,0.13056864583948247,0.1,1.0,1.0,259.0,667.0,0.0,0,834.0,0
370,370,0.8807749932852901,0.9,1.0,1.0,329.0,752.0,1.0,1,229.0,1
371,371,-0.23042719297470582,-0.2,0.0,1.0,418.0,754.0,0.0,1,1828.0,0
372,372,-0.24731921341472685,-0.2,0.0,1.0,268.0,845.0,1.0,0,1887.0,1
373,373,-0.22192969873884127,-0.2,1.0,0.0,393.0,833.0,0.0,0,264.0,1
374,374,0.6523468957263819,0.7,1.0,1.0,475.0,543.0,1.0,1,242.0,1
375,375,-0.8875066371336775,-0.9,1.0,0.0,278.0,864.0,0.0,0,338.0,1
376,376,-0.7857123355117217,-0.8,0.0,1.0,355.0,684.0,1.0,0,981.0,1
377,377,0.792829913933858,0.8,0.0,0.0,285.0,621.0,0.0,1,284.0,1
378,378,-0.5361702981541945,-0.5,1.0,0.0,304.0,589.0,0.0,0,137.0,1
379,379,-0.712861183285768,-0.7,1.0,0.0,315.0,657.0,0.0,0,228.0,1
380,380,-0.0037891837290420227,-0.0,1.0,0.0,286.0,564.0,0.0,0,970.0,1
381,381,-0.8491693833288804,-0.8,1.0,0.0,370.0,709.0,0.0,0,591.0,1
382,382,-0.29797493086011706,-0.3,0.0,1.0,356.0,927.0,0.0,1,1717.0,0
383,383,0.43817221817556595,0.4,0.0,0.0,311.0,535.0,0.0,1,614.0,1
384,384,-0.6302078069527991,-0.6,0.0,1.0,464.0,702.0,1.0,0,364.0,1
385,385,0.18540260653348806,0.2,1.0,1.0,342.0,617.0,1.0,1,891.0,1
386,386,-0.8755521949106325,-0.9,1.0,0.0,268.0,656.0,0.0,0,96.0,1
387,387,0.29237494278623355,0.3,0.0,0.0,343.0,673.0,0.0,1,724.0,1
388,388,-0.7829956996783044,-0.8,1.0,0.0,432.0,521.0,0.0,0,507.0,1
389,389,0.01774063884852617,0.0,0.0,0.0,448.0,710.0,0.0,1,1842.0,1
390,390,-0.35418134803612045,-0.4,0.0,1.0,455.0,661.0,0.0,1,44.0,0
391,391,-0.18157185025733358,-0.2,0.0,1.0,327.0,997.0,0.0,1,-184.0,0
392,392,-0.21648373966381695,-0.2,1.0,0.0,338.0,827.0,0.0,0,615.0,1
393,393,-0.7544846706122627,-0.8,1.0,0.0,468.0,861.0,0.0,0,121.0,1
394,394,0.09326133468410891,0.1,1.0,1.0,314.0,749.0,0.0,0,1937.0,0
395,395,0.16829680678451442,0.2,0.0,0.0,458.0,517.0,0.0,1,-475.0,1
396,396,-0.1102972203018241,-0.1,0.0,1.0,382.0,788.0,0.0,1,1830.0,0
397,397,-0.7188726030535849,-0.7,1.0,0.0,377.0,779.0,0.0,0,354.0,1
398,398,0.7781566565147756,0.8,0.0,0.0,299.0,773.0,0.0,1,-372.0,1
399,399,0.7899906377476508,0.8,1.0,1.0,455.0,775.0,1.0,1,430.0,1
400,400,0.1994989639621284,0.2,1.0,1.0,371.0,615.0,1.0,1,1554.0,1
401,401,-0.5894861998205456,-0.6,0.0,1.0,314.0,907.0,1.0,0,1769.0,1
402,402,-0.8257637147321206,-0.8,0.0,1.0,401.0,788.0,1.0,0,191.0,1
403,403,0.8736373361051858,0.9,0.0,0.0,337.0,989.0,0.0,1,184.0,1
404,404,0.4557682786131415,0.5,0.0,0.0,461.0,918.0,0.0,1,761.0,1
405,405,-0.5332542789530894,-0.5,1.0,0.0,272.0,650.0,0.0,0,-192.0,1
406,406,-0.38731829995897493,-0.4,0.0,1.0,418.0,592.0,1.0,0,1180.0,1
407,407,-0.4450121915641512,-0.4,0.0,1.0,300.0,958.0,1.0,0,1142.0,1
408,408,0.4488650782731106,0.4,1.0,1.0,442.0,594.0,1.0,1,1414.0,1
409,409,0.4898500809722063,0.5,0.0,0.0,445.0,697.0,0.0,1,48.0,1
410,410,-0.8700877664437812,-0.9,0.0,1.0,443.0,844.0,1.0,0,733.0,1
411,411,-0.2623315633476063,-0.3,1.0,0.0,397.0,696.0,0.0,0,597.0,1
412,412,-0.6676042195895678,-0.7,0.0,1.0,301.0,515.0,1.0,0,264.0,1
413,413,-0.8390367052374528,-0.8,0.0,1.0,419.0,944.0,1.0,0,707.0,1
414,414,0.41148181644945125,0.4,1.0,1.0,260.0,582.0,1.0,1,1648.0,1
415,415,0.8638767516938962,0.9,0.0,0.0,398.0,833.0,0.0,1,529.0,1
416,416,0.5346958996865151,0.5,1.0,1.0,463.0,695.0,1.0,1,392.0,1
417,417,-0.19282772553735805,-0.2,1.0,0.0,364.0,876.0,0.0,0,-220.0,1
418,418,0.012047819886404576,0.0,1.0,1.0,472.0,712.0,0.0,0,1816.0,0
419,419,-0.4014951407599081,-0.4,1.0,0.0,407.0,769.0,0.0,0,244.0,1
420,420,-0.279623740221273,-0.3,1.0,0.0,345.0,557.0,0.0,0,228.0,1
421,421,0.25091019002389936,0.3,0.0,0.0,317.0,990.0,0.0,1,1203.0,1
422,422,0.6034224190478313,0.6,0.0,0.0,469.0,525.0,0.0,1,536.0,1
423,423,-0.5840112622306557,-0.6,1.0,0.0,472.0,812.0,0.0,0,466.0,1
424,424,-0.6874813985427766,-0.7,0.0,1.0,336.0,577.0,1.0,0,717.0,1
425,425,0.08168150933054186,0.1,0.0,0.0,423.0,778.0,0.0,1,1799.0,1
426,426,0.3248577029174101,0.3,1.0,1.0,379.0,509.0,1.0,1,422.0,1
427,427,0.14430679188285211,0.1,1.0,1.0,349.0,558.0,1.0,1,2093.0,1
428,428,-0.70235553894445,-0.7,0.0,1.0,497.0,780.0,1.0,0,523.0,1
429,429,-0.27178785217122214,-0.3,1.0,0.0,458.0,670.0,0.0,0,612.0,1
430,430,-0.0029699751868289548,-0.0,0.0,1.0,464.0,562.0,0.0,1,1974.0,0
431,431,-0.6295363665059641,-0.6,1.0,0.0,497.0,990.0,0.0,0,213.0,1
432,432,-0.8012385667611317,-0.8,0.0,1.0,460.0,880.0,1.0,0,610.0,1
433,433,0.5221547199454616,0.5,1.0,1.0,271.0,637.0,1.0,1,1372.0,1
434,434,-0.6042870072581923,-0.6,1.0,0.0,266.0,836.0,0.0,0,148.0,1
435,435,0.2282373065168336,0.2,0.0,0.0,375.0,822.0,0.0,1,1803.0,1
436,436,0.11264896827176163,0.1,1.0,1.0,424.0,964.0,0.0,0,1512.0,0
437,437,-0.16310324686978794,-0.2,1.0,0.0,489.0,526.0,0.0,0,495.0,1
438,438,0.615802480356599,0.6,1.0,1.0,425.0,752.0,1.0,1,1173.0,1
439,439,0.2641697589923241,0.3,0.0,0.0,309.0,717.0,0.0,1,1974.0,1
440,440,0.4554961342768161,0.5,1.0,1.0,343.0,853.0,1.0,1,504.0,1
441,441,0.8235414569464558,0.8,1.0,1.0,277.0,552.0,1.0,1,931.0,1
442,442,0.556315682054198,0.6,1.0,1.0,478.0,725.0,1.0,1,477.0,1
443,443,-0.2927015947685303,-0.3,1.0,0.0,350.0,952.0,0.0,0,258.0,1
444,444,0.7555804146699711,0.8,1.0,1.0,453.0,778.0,1.0,1,399.0,1
445,445,0.7797159004129613,0.8,0.0,0.0,303.0,533.0,0.0,1,594.0,1
446,446,-0.16646222718317327,-0.2,1.0,0.0,279.0,826.0,0.0,0,1015.0,1
447,447,0.020345464012124337,0.0,1.0,1.0,308.0,770.0,1.0,1,1922.0,1
448,448,-0.8169708581692571,-0.8,0.0,1.0,401.0,662.0,1.0,0,497.0,1
449,449,-0.32690147741107656,-0.3,1.0,0.0,259.0,857.0,0.0,0,1364.0,1
450,450,-0.7451078606364592,-0.7,0.0,1.0,344.0,563.0,1.0,0,403.0,1
451,451,0.7195900003585297,0.7,1.0,1.0,348.0,770.0,1.0,1,602.0,1
452,452,0.5915485961346266,0.6,1.0,1.0,427.0,781.0,1.0,1,1792.0,1
453,453,-0.6057852517789655,-0.6,0.0,1.0,466.0,769.0,1.0,0,1765.0,1
454,454,0.8192397318828678,0.8,0.0,0.0,302.0,636.0,0.0,1,302.0,1
455,455,0.26629016813907846,0.3,0.0,0.0,397.0,633.0,0.0,1,1190.0,1
456,456,0.7093997118916996,0.7,1.0,1.0,459.0,746.0,1.0,1,995.0,1
457,457,-0.27653357724842076,-0.3,0.0,1.0,406.0,703.0,1.0,0,981.0,1
458,458,-0.49411499490619265,-0.5,1.0,0.0,326.0,526.0,0.0,0,468.0,1
459,459,-0.3682979414311943,-0.4,1.0,0.0,400.0,622.0,0.0,0,548.0,1
460,460,-0.7569253354259872,-0.8,0.0,1.0,415.0,806.0,1.0,0,629.0,1
461,461,0.6717880630823406,0.7,1.0,1.0,295.0,701.0,1.0,1,824.0,1
462,462,0.5069848784603815,0.5,1.0,1.0,255.0,986.0,1.0,1,849.0,1
463,463,-0.04078194492406173,-0.0,1.0,0.0,412.0,747.0,0.0,0,1221.0,1
464,464,0.29929391360086754,0.3,0.0,0.0,470.0,524.0,0.0,1,396.0,1
465,465,-0.16773384423882398,-0.2,0.0,1.0,435.0,693.0,1.0,0,1872.0,1
466,466,0.6679984181248958,0.7,1.0,1.0,426.0,531.0,1.0,1,533.0,1
467,467,-0.39720563668748954,-0.4,0.0,1.0,273.0,588.0,1.0,0,1129.0,1
468,468,0.7102579909469152,0.7,0.0,0.0,316.0,554.0,0.0,1,300.0,1
469,469,-0.8597990559350247,-0.9,0.0,1.0,395.0,931.0,1.0,0,944.0,1
470,470,0.4244204021386294,0.4,0.0,0.0,299.0,566.0,0.0,1,15.0,1
471,471,-0.6347018977429886,-0.6,0.0,1.0,291.0,575.0,0.0,1,-386.0,0
472,472,-0.4593864409560666,-0.5,0.0,1.0,338.0,684.0,1.0,0,918.0,1
473,473,-0.4688644808755275,-0.5,1.0,0.0,294.0,669.0,0.0,0,567.0,1
474,474,-0.2222991231239262,-0.2,0.0,1.0,265.0,843.0,1.0,0,1892.0,1
475,475,0.07193963896306055,0.1,0.0,0.0,490.0,721.0,0.0,1,609.0,1
476,476,-0.3998578659415397,-0.4,0.0,1.0,324.0,908.0,1.0,0,1478.0,1
477,477,0.4085561237819527,0.4,0.0,0.0,425.0,966.0,0.0,1,309.0,1
478,478,0.3790724275791092,0.4,1.0,1.0,383.0,826.0,1.0,1,1791.0,1
479,479,0.06131046758655667,0.1,1.0,1.0,412.0,952.0,0.0,0,-594.0,0
480,480,0.6496743191392879,0.6,1.0,1.0,390.0,579.0,1.0,1,311.0,1
481,481,0.08509154451043688,0.1,1.0,1.0,376.0,570.0,0.0,0,2054.0,0
482,482,-0.058750317576784505,-0.1,1.0,0.0,358.0,839.0,0.0,0,1803.0,1
483,483,-0.0874651790402875,-0.1,1.0,0.0,264.0,561.0,0.0,0,1195.0,1
484,484,-0.5123093825594904,-0.5,0.0,1.0,261.0,699.0,1.0,0,2040.0,1
485,485,0.6461669994517131,0.6,1.0,1.0,466.0,541.0,1.0,1,343.0,1
486,486,-0.7230979203765763,-0.7,0.0,1.0,351.0,914.0,1.0,0,605.0,1
487,487,-0.6321679453577842,-0.6,0.0,1.0,423.0,541.0,1.0,0,566.0,1
488,488,0.6959054180306296,0.7,0.0,0.0,313.0,866.0,0.0,1,521.0,1
489,489,0.8138914941382219,0.8,0.0,0.0,326.0,848.0,0.0,1,326.0,1
490,490,-0.7545732111206482,-0.8,0.0,1.0,257.0,818.0,1.0,0,395.0,1
491,491,-0.6395485124823733,-0.6,0.0,1.0,260.0,885.0,1.0,0,445.0,1
492,492,-0.1471535309898343,-0.1,0.0,1.0,326.0,548.0,1.0,0,2126.0,1
493,493,-0.35056666371551104,-0.4,0.0,1.0,418.0,938.0,1.0,0,1644.0,1
494,494,0.5313280727653459,0.5,1.0,1.0,452.0,685.0,1.0,1,1593.0,1
495,495,-0.0869712544949649,-0.1,0.0,1.0,397.0,586.0,1.0,0,2017.0,1
496,496,-0.6439178053765444,-0.6,1.0,0.0,353.0,522.0,0.0,0,195.0,1
497,497,-0.6001772546564755,-0.6,0.0,1.0,254.0,846.0,0.0,1,-250.0,0
498,498,-0.32126992662381426,-0.3,0.0,1.0,347.0,590.0,1.0,0,443.0,1
499,499,-0.1536464947176185,-0.2,0.0,1.0,273.0,786.0,1.0,0,1941.0,1
500,500,0.09710138792943501,0.1,1.0,1.0,357.0,557.0,1.0,1,2086.0,1
501,501,0.5342469274192764,0.5,0.0,0.0,342.0,797.0,0.0,1,81.0,1
502,502,-0.16700346694961077,-0.2,1.0,0.0,475.0,655.0,0.0,0,1180.0,1
503,503,0.8064376019542813,0.8,0.0,0.0,380.0,961.0,0.0,1,339.0,1
504,504,-0.17630376848479168,-0.2,0.0,1.0,481.0,616.0,1.0,0,1903.0,1
505,505,0.7909866030849141,0.8,1.0,1.0,380.0,737.0,1.0,1,393.0,1
506,506,-0.5568038515001492,-0.6,0.0,1.0,446.0,853.0,1.0,0,61.0,1
507,507,-0.04430748271229579,-0.0,1.0,0.0,427.0,968.0,0.0,0,545.0,1
508,508,-0.812665324554867,-0.8,0.0,1.0,360.0,844.0,1.0,0,866.0,1
509,509,-0.8969096230076812,-0.9,1.0,0.0,310.0,778.0,0.0,0,102.0,1
510,510,-0.02343545932457447,-0.0,1.0,0.0,450.0,790.0,0.0,0,710.0,1
511,511,0.19629504650771612,0.2,1.0,1.0,373.0,602.0,0.0,0,2025.0,0
512,512,-0.7891206187562887,-0.8,1.0,0.0,364.0,632.0,0.0,0,554.0,1
513,513,-0.15535680360551796,-0.2,0.0,1.0,375.0,706.0,1.0,0,1919.0,1
514,514,-0.1882728970042653,-0.2,0.0,1.0,324.0,615.0,0.0,1,71.0,0
515,515,-0.40797185286664217,-0.4,0.0,1.0,288.0,852.0,0.0,1,-520.0,0
516,516,-0.6596987440543702,-0.7,1.0,0.0,473.0,985.0,0.0,0,-528.0,1
517,517,0.8859317534336398,0.9,0.0,0.0,407.0,527.0,0.0,1,826.0,1
518,518,-0.5770430743916304,-0.6,0.0,1.0,290.0,793.0,1.0,0,1917.0,1
519,519,0.22641737180747856,0.2,1.0,1.0,256.0,841.0,0.0,0,213.0,0
520,520,-0.3781500536737633,-0.4,1.0,0.0,396.0,662.0,0.0,0,352.0,1
521,521,0.4634112023971907,0.5,0.0,0.0,279.0,592.0,0.0,1,199.0,1
522,522,0.4318725119244605,0.4,1.0,1.0,255.0,506.0,1.0,1,1929.0,1
523,523,-0.5175809752345306,-0.5,0.0,1.0,489.0,508.0,1.0,0,1283.0,1
524,524,-0.2577334928438335,-0.3,0.0,1.0,485.0,948.0,1.0,0,-373.0,1
525,525,0.26565136957861435,0.3,0.0,0.0,301.0,900.0,0.0,1,209.0,1
526,526,-0.8907592458912222,-0.9,1.0,0.0,404.0,516.0,0.0,0,210.0,1
527,527,-0.1072060667016933,-0.1,1.0,0.0,307.0,749.0,0.0,0,624.0,1
528,528,0.4098867509432903,0.4,1.0,1.0,480.0,888.0,1.0,1,1632.0,1
529,529,0.299149843489945,0.3,1.0,1.0,283.0,707.0,1.0,1,2010.0,1
530,530,0.34293544990141867,0.3,1.0,1.0,399.0,558.0,1.0,1,1133.0,1
531,531,-0.22459867415555412,-0.2,1.0,0.0,429.0,716.0,0.0,0,985.0,1
532,532,0.13452713734278487,0.1,1.0,1.0,378.0,573.0,0.0,0,2049.0,0
533,533,-0.0056209838625467246,-0.0,1.0,0.0,371.0,569.0,0.0,0,2060.0,1
534,534,-0.5832353551354073,-0.6,0.0,1.0,332.0,859.0,1.0,0,719.0,1
535,535,0.19639288285592527,0.2,1.0,1.0,450.0,705.0,0.0,0,-245.0,0
536,536,-0.71985051811544,-0.7,1.0,0.0,328.0,794.0,0.0,0,478.0,1
537,537,-0.07102509417854419,-0.1,1.0,0.0,277.0,844.0,0.0,0,-61.0,1
538,538,0.278128324068153,0.3,0.0,0.0,299.0,811.0,0.0,1,510.0,1
539,539,0.41734461906576004,0.4,1.0,1.0,260.0,848.0,1.0,1,1512.0,1
540,540,0.4893958320510069,0.5,1.0,1.0,493.0,601.0,1.0,1,696.0,1
541,541,0.6052934203910904,0.6,1.0,1.0,273.0,682.0,1.0,1,1275.0,1
542,542,-0.17640393383090058,-0.2,0.0,1.0,250.0,914.0,1.0,0,1836.0,1
543,543,0.5354731508760938,0.5,1.0,1.0,389.0,540.0,1.0,1,251.0,1
544,544,0.008845015631400388,0.0,1.0,1.0,281.0,730.0,0.0,0,1989.0,0
545,545,0.8911272790158905,0.9,0.0,0.0,251.0,967.0,0.0,1,402.0,1
546,546,-0.41753241166284416,-0.4,0.0,1.0,293.0,757.0,1.0,0,1440.0,1
547,547,-0.12148561657889445,-0.1,0.0,1.0,417.0,610.0,1.0,0,1973.0,1
548,548,-0.8867459731291074,-0.9,0.0,1.0,432.0,691.0,1.0,0,107.0,1
549,549,0.6024766342365825,0.6,1.0,1.0,252.0,608.0,1.0,1,1270.0,1
550,550,-0.7754654274426872,-0.8,1.0,0.0,411.0,867.0,0.0,0,152.0,1
551,551,0.8366454621100691,0.8,1.0,1.0,438.0,514.0,1.0,1,428.0,1
552,552,0.23710243904874784,0.2,1.0,1.0,259.0,553.0,1.0,1,308.0,1
553,553,0.7455977247647899,0.7,1.0,1.0,274.0,759.0,1.0,1,1247.0,1
554,554,-0.28154082443798023,-0.3,0.0,1.0,252.0,540.0,1.0,0,2208.0,1
555,555,0.025319342305022308,0.0,1.0,1.0,309.0,634.0,1.0,1,2057.0,1
556,556,0.13550558969975113,0.1,1.0,1.0,351.0,893.0,0.0,0,1756.0,0
557,557,0.2982429644075627,0.3,1.0,1.0,302.0,699.0,1.0,1,1999.0,1
558,558,0.8418440390868295,0.8,1.0,1.0,374.0,769.0,1.0,1,1177.0,1
559,559,0.0067480461072289,0.0,0.0,0.0,466.0,945.0,0.0,1,449.0,1
560,560,0.5400588883438405,0.5,0.0,0.0,433.0,718.0,0.0,1,239.0,1
561,561,-0.040055478580384496,-0.0,0.0,1.0,483.0,686.0,0.0,1,1831.0,0
562,562,-0.05889438896279475,-0.1,1.0,0.0,401.0,571.0,0.0,0,2028.0,1
563,563,0.5020175292235113,0.5,1.0,1.0,427.0,680.0,1.0,1,1893.0,1
564,564,0.6682136442578283,0.7,0.0,0.0,265.0,704.0,0.0,1,231.0,1
565,565,-0.38723962968402603,-0.4,1.0,0.0,263.0,950.0,0.0,0,1097.0,1
566,566,0.14043928868282174,0.1,1.0,1.0,447.0,858.0,1.0,1,1695.0,1
567,567,-0.6734448199633286,-0.7,0.0,1.0,426.0,859.0,1.0,0,1605.0,1
568,568,-0.7171665093830814,-0.7,1.0,0.0,445.0,719.0,0.0,0,346.0,1
569,569,0.8867695956828249,0.9,1.0,1.0,437.0,559.0,1.0,1,214.0,1
570,570,0.1062330148458569,0.1,1.0,1.0,418.0,734.0,1.0,1,1848.0,1
571,571,-0.7141293618908594,-0.7,1.0,0.0,464.0,740.0,0.0,0,356.0,1
572,572,0.6034842305133264,0.6,1.0,1.0,338.0,961.0,1.0,1,981.0,1
573,573,-0.6258408333558346,-0.6,1.0,0.0,425.0,826.0,0.0,0,79.0,1
574,574,0.3973561221696552,0.4,1.0,1.0,394.0,605.0,1.0,1,1431.0,1
575,575,0.409199746589611,0.4,1.0,1.0,477.0,722.0,1.0,1,1801.0,1
576,576,-0.08315334632599747,-0.1,0.0,1.0,346.0,885.0,0.0,1,1769.0,0
577,577,-0.4218276652359612,-0.4,0.0,1.0,377.0,706.0,1.0,0,707.0,1
578,578,0.20455680076114702,0.2,1.0,1.0,414.0,955.0,1.0,1,1631.0,1
579,579,0.4544479061506016,0.5,0.0,0.0,307.0,717.0,0.0,1,16.0,1
580,580,-0.21542725204698387,-0.2,1.0,0.0,312.0,972.0,0.0,0,1716.0,1
581,581,-0.8566738386053071,-0.9,1.0,0.0,401.0,818.0,0.0,0,231.0,1
582,582,-0.6421452896695276,-0.6,0.0,1.0,299.0,593.0,1.0,0,808.0,1
583,583,-0.6229405647429456,-0.6,0.0,1.0,444.0,504.0,1.0,0,1542.0,1
584,584,-0.20835157695568163,-0.2,1.0,0.0,469.0,654.0,0.0,0,1237.0,1
585,585,0.23317643060423576,0.2,0.0,0.0,462.0,908.0,0.0,1,1260.0,1
586,586,-0.2757619590106437,-0.3,0.0,1.0,303.0,590.0,0.0,1,2107.0,0
587,587,-0.8125436096120703,-0.8,0.0,1.0,431.0,537.0,1.0,0,352.0,1
588,588,-0.7964013211069096,-0.8,0.0,1.0,488.0,644.0,1.0,0,148.0,1
589,589,0.775119745488385,0.8,0.0,0.0,285.0,652.0,0.0,1,763.0,1
590,590,0.5801834823385735,0.6,0.0,0.0,418.0,796.0,0.0,1,446.0,1
591,591,0.3992045191949153,0.4,1.0,1.0,426.0,966.0,1.0,1,1378.0,1
592,592,-0.7379512236718619,-0.7,1.0,0.0,308.0,657.0,0.0,0,645.0,1
593,593,-0.22722838994736183,-0.2,0.0,1.0,467.0,674.0,1.0,0,1859.0,1
594,594,-0.1267975638628891,-0.1,0.0,1.0,407.0,503.0,1.0,0,2090.0,1
595,595,-0.241807779479152,-0.2,1.0,0.0,439.0,856.0,0.0,0,-415.0,1
596,596,0.7404931256946777,0.7,0.0,0.0,300.0,748.0,0.0,1,692.0,1
597,597,-0.06760490434775968,-0.1,0.0,1.0,378.0,507.0,0.0,1,85.0,0
598,598,-0.5603637804460357,-0.6,0.0,1.0,349.0,966.0,1.0,0,895.0,1
599,599,0.5251989396215538,0.5,1.0,1.0,474.0,942.0,1.0,1,804.0,1
600,600,-0.016974159212091555,-0.0,0.0,1.0,259.0,580.0,1.0,0,2161.0,1
601,601,-0.6011416281796922,-0.6,1.0,0.0,449.0,870.0,0.0,0,-259.0,1
602,602,0.7453955523278125,0.7,1.0,1.0,443.0,563.0,1.0,1,334.0,1
603,603,0.4638316104970771,0.5,0.0,0.0,420.0,702.0,0.0,1,378.0,1
604,604,0.08921028143663368,0.1,0.0,0.0,339.0,691.0,0.0,1,570.0,1
605,605,0.09037100585126978,0.1,0.0,0.0,447.0,737.0,0.0,1,-274.0,1
606,606,0.74594662678057,0.7,0.0,0.0,417.0,852.0,0.0,1,141.0,1
607,607,-0.5609259671933724,-0.6,1.0,0.0,275.0,955.0,0.0,0,150.0,1
608,608,0.7050483859152267,0.7,0.0,0.0,324.0,611.0,0.0,1,105.0,1
609,609,0.7259469733271021,0.7,0.0,0.0,273.0,532.0,0.0,1,125.0,1
610,610,-0.19924098145524782,-0.2,1.0,0.0,363.0,743.0,0.0,0,1894.0,1
611,611,-0.5540295154817128,-0.6,0.0,1.0,327.0,807.0,1.0,0,706.0,1
612,612,-0.6004950388175097,-0.6,0.0,1.0,386.0,525.0,1.0,0,439.0,1
613,613,-0.3377888963543084,-0.3,0.0,1.0,358.0,797.0,1.0,0,275.0,1
614,614,0.4361723487805754,0.4,0.0,0.0,424.0,607.0,0.0,1,739.0,1
615,615,0.21135865755213545,0.2,1.0,1.0,479.0,569.0,1.0,1,1952.0,1
616,616,-0.5012047101031549,-0.5,1.0,0.0,351.0,601.0,0.0,0,498.0,1
617,617,-0.3546610585073027,-0.4,1.0,0.0,418.0,796.0,0.0,0,1526.0,1
618,618,0.3158275902627802,0.3,0.0,0.0,482.0,841.0,0.0,1,227.0,1
619,619,-0.8038736586510733,-0.8,0.0,1.0,301.0,648.0,0.0,1,-69.0,0
620,620,0.17839495288990392,0.2,1.0,1.0,250.0,978.0,1.0,1,1772.0,1
621,621,0.5010463182181856,0.5,0.0,0.0,486.0,652.0,0.0,1,1862.0,1
622,622,0.3674733115497987,0.4,1.0,1.0,486.0,559.0,1.0,1,1955.0,1
623,623,-0.3471277166861375,-0.3,1.0,0.0,274.0,635.0,0.0,0,351.0,1
624,624,-0.3465147555453246,-0.3,0.0,1.0,423.0,901.0,1.0,0,1676.0,1
625,625,0.2738274631077723,0.3,1.0,1.0,425.0,807.0,1.0,1,1768.0,1
626,626,0.7049645693051908,0.7,0.0,0.0,332.0,679.0,0.0,1,319.0,1
627,627,0.04759116833018784,0.0,0.0,0.0,407.0,833.0,0.0,1,1120.0,1
628,628,-0.28559797507403584,-0.3,0.0,1.0,296.0,712.0,1.0,0,1992.0,1
629,629,-0.17739365755827208,-0.2,0.0,1.0,481.0,812.0,0.0,1,1057.0,0
630,630,-0.5450802482232084,-0.5,1.0,0.0,389.0,851.0,0.0,0,200.0,1
631,631,-0.8006024359953215,-0.8,1.0,0.0,440.0,670.0,0.0,0,130.0,1
632,632,0.23748588912944146,0.2,1.0,1.0,329.0,656.0,0.0,0,2015.0,0
633,633,-0.28625159775453723,-0.3,0.0,1.0,464.0,993.0,1.0,0,1543.0,1
634,634,-0.7537288531016202,-0.8,0.0,1.0,342.0,957.0,1.0,0,821.0,1
635,635,0.859654097019355,0.9,1.0,1.0,477.0,743.0,1.0,1,90.0,1
636,636,-0.2620720271118956,-0.3,1.0,0.0,352.0,520.0,0.0,0,478.0,1
637,637,-0.47588589909255474,-0.5,1.0,0.0,259.0,574.0,0.0,0,267.0,1
638,638,-0.8113136112180819,-0.8,1.0,0.0,427.0,581.0,0.0,0,212.0,1
639,639,-0.6429462590538298,-0.6,0.0,1.0,278.0,523.0,1.0,0,519.0,1
640,640,-0.6619759518352378,-0.7,0.0,1.0,284.0,617.0,1.0,0,429.0,1
641,641,0.11752244863662475,0.1,1.0,1.0,443.0,694.0,0.0,0,-27.0,0
642,642,-0.3072946778809481,-0.3,0.0,1.0,496.0,609.0,1.0,0,1895.0,1
643,643,-0.053652955695954296,-0.1,0.0,1.0,262.0,850.0,0.0,1,1888.0,0
644,644,0.15389691717159726,0.2,0.0,0.0,396.0,962.0,0.0,1,1642.0,1
645,645,-0.10140873235852255,-0.1,0.0,1.0,322.0,622.0,0.0,1,2056.0,0
646,646,0.6778288625957486,0.7,1.0,1.0,434.0,889.0,1.0,1,1207.0,1
647,647,0.48899397522511967,0.5,0.0,0.0,381.0,589.0,0.0,1,200.0,1
648,648,-0.0894413380800656,-0.1,1.0,0.0,423.0,816.0,0.0,0,431.0,1
649,649,0.5015754886039033,0.5,1.0,1.0,461.0,514.0,1.0,1,565.0,1
650,650,0.7897936027604843,0.8,1.0,1.0,375.0,770.0,1.0,1,375.0,1
651,651,0.6906261340405649,0.7,0.0,0.0,389.0,787.0,0.0,1,284.0,1
652,652,-0.4627036169095545,-0.5,1.0,0.0,420.0,573.0,0.0,0,307.0,1
653,653,-0.5508718953884328,-0.6,0.0,1.0,483.0,902.0,1.0,0,1615.0,1
654,654,0.48232600876358867,0.5,0.0,0.0,466.0,597.0,0.0,1,367.0,1
655,655,0.8342356596307178,0.8,0.0,0.0,458.0,589.0,0.0,1,163.0,1
656,656,0.7309599502755363,0.7,0.0,0.0,430.0,930.0,0.0,1,490.0,1
657,657,0.7604807269857866,0.8,0.0,0.0,478.0,948.0,0.0,1,-476.0,1
658,658,-0.7540535827736681,-0.8,1.0,0.0,278.0,841.0,0.0,0,411.0,1
659,659,0.3137448988564976,0.3,1.0,1.0,455.0,769.0,0.0,0,166.0,0
660,660,-0.4297479353059839,-0.4,0.0,1.0,418.0,747.0,1.0,0,1525.0,1
661,661,0.3134565937240229,0.3,1.0,1.0,254.0,931.0,0.0,0,-185.0,0
662,662,0.6382398296647295,0.6,0.0,0.0,495.0,581.0,0.0,1,684.0,1
663,663,0.15053590284688412,0.2,0.0,0.0,470.0,609.0,0.0,1,1181.0,1
664,664,-0.38587756228280246,-0.4,1.0,0.0,399.0,529.0,0.0,0,242.0,1
665,665,0.5887140927070008,0.6,1.0,1.0,376.0,540.0,1.0,1,974.0,1
666,666,0.3701660061979647,0.4,1.0,1.0,290.0,507.0,1.0,1,303.0,1
667,667,-0.442196530329182,-0.4,0.0,1.0,314.0,914.0,1.0,0,162.0,1
668,668,0.4926280254115639,0.5,0.0,0.0,413.0,619.0,0.0,1,508.0,1
669,669,-0.24959760510404416,-0.2,1.0,0.0,254.0,634.0,0.0,0,1132.0,1
670,670,0.845070416725724,0.8,0.0,0.0,478.0,978.0,0.0,1,154.0,1
671,671,0.876845322070778,0.9,0.0,0.0,489.0,981.0,0.0,1,440.0,1
672,672,-0.5880993516679991,-0.6,0.0,1.0,488.0,893.0,0.0,1,-151.0,0
673,673,0.40887437399088145,0.4,0.0,0.0,336.0,948.0,0.0,1,816.0,1
674,674,0.7406505488833269,0.7,1.0,1.0,401.0,789.0,1.0,1,480.0,1
675,675,-0.2635043720051161,-0.3,0.0,1.0,365.0,986.0,0.0,1,-171.0,0
676,676,-0.2652007642345744,-0.3,0.0,1.0,405.0,618.0,1.0,0,1977.0,1
677,677,-0.3198236809207645,-0.3,0.0,1.0,375.0,658.0,0.0,1,117.0,0
678,678,0.12459079587273447,0.1,1.0,1.0,288.0,867.0,1.0,1,1845.0,1
679,679,0.47016866147034564,0.5,1.0,1.0,450.0,649.0,0.0,0,-119.0,0
680,680,-0.41074490220047355,-0.4,1.0,0.0,374.0,701.0,0.0,0,555.0,1
681,681,0.36337569192224073,0.4,1.0,1.0,278.0,741.0,1.0,1,1981.0,1
682,682,0.30610477913449097,0.3,1.0,1.0,394.0,988.0,0.0,0,-412.0,0
683,683,0.8284806442993208,0.8,1.0,1.0,417.0,730.0,1.0,1,243.0,1
684,684,-0.8988363582055776,-0.9,1.0,0.0,417.0,750.0,0.0,0,223.0,1
685,685,0.09209408280616771,0.1,0.0,0.0,290.0,868.0,1.0,0,1842.0,0
686,686,-0.4895378408000582,-0.5,1.0,0.0,499.0,578.0,0.0,0,283.0,1
687,687,0.2536241497886501,0.3,1.0,1.0,296.0,724.0,1.0,1,1980.0,1
688,688,0.2741233558577746,0.3,0.0,0.0,386.0,607.0,0.0,1,1367.0,1
689,689,0.7869591238807095,0.8,0.0,0.0,344.0,725.0,0.0,1,441.0,1
690,690,-0.4997971732676637,-0.5,0.0,1.0,421.0,521.0,1.0,0,768.0,1
691,691,-0.43387253458562086,-0.4,0.0,1.0,440.0,838.0,1.0,0,1722.0,1
692,692,0.18331322522601645,0.2,1.0,1.0,304.0,536.0,1.0,1,2160.0,1
693,693,-0.7449974729460906,-0.7,1.0,0.0,344.0,928.0,0.0,0,268.0,1
694,694,-0.48243628444498227,-0.5,0.0,1.0,472.0,694.0,1.0,0,644.0,1
695,695,0.7466720519402398,0.7,1.0,1.0,325.0,957.0,1.0,1,-372.0,1
696,696,0.6325194298827018,0.6,1.0,1.0,450.0,744.0,1.0,1,466.0,1
697,697,0.08281612973035746,0.1,0.0,0.0,278.0,992.0,0.0,1,1730.0,1
698,698,0.10575648699215201,0.1,1.0,1.0,400.0,992.0,0.0,0,838.0,0
699,699,0.5156484896549417,0.5,1.0,1.0,431.0,790.0,1.0,1,589.0,1
700,700,0.716606916341363,0.7,0.0,0.0,456.0,784.0,0.0,1,600.0,1
701,701,-0.7299902832224151,-0.7,0.0,1.0,402.0,695.0,1.0,0,483.0,1
702,702,-0.7110908310876339,-0.7,0.0,1.0,297.0,798.0,1.0,0,1005.0,1
703,703,-0.49735594578716685,-0.5,0.0,1.0,304.0,905.0,1.0,0,1621.0,1
704,704,-0.17728781095696078,-0.2,1.0,0.0,305.0,523.0,0.0,0,782.0,1
705,705,-0.3362911719874385,-0.3,1.0,0.0,304.0,879.0,0.0,0,1817.0,1
706,706,-0.8426493713101039,-0.8,1.0,0.0,372.0,594.0,0.0,0,314.0,1
707,707,0.03451525683587531,0.0,0.0,0.0,477.0,992.0,0.0,1,371.0,1
708,708,-0.4670712553946108,-0.5,1.0,0.0,262.0,857.0,0.0,0,181.0,1
709,709,0.8058387122107157,0.8,0.0,0.0,343.0,649.0,0.0,1,368.0,1
710,710,0.3005929730904645,0.3,1.0,1.0,314.0,515.0,1.0,1,781.0,1
711,711,0.8883042956631525,0.9,1.0,1.0,280.0,711.0,1.0,1,729.0,1
712,712,0.3190712906748271,0.3,1.0,1.0,330.0,549.0,1.0,1,1311.0,1
713,713,-0.4410982334474786,-0.4,0.0,1.0,401.0,737.0,1.0,0,1812.0,1
714,714,0.2723306820599313,0.3,1.0,1.0,323.0,710.0,1.0,1,1967.0,1
715,715,0.2634986437815502,0.3,1.0,1.0,448.0,717.0,1.0,1,265.0,1
716,716,-0.038988961969609215,-0.0,0.0,1.0,258.0,997.0,0.0,1,795.0,0
717,717,0.38402082005924243,0.4,1.0,1.0,341.0,549.0,1.0,1,230.0,1
718,718,0.34455345316841146,0.3,1.0,1.0,312.0,881.0,1.0,1,1807.0,1
719,719,-0.4677698822348063,-0.5,1.0,0.0,490.0,618.0,0.0,0,822.0,1
720,720,-0.7571256432649885,-0.8,1.0,0.0,352.0,931.0,0.0,0,437.0,1
721,721,-0.8238093061229842,-0.8,1.0,0.0,496.0,744.0,0.0,0,90.0,1
722,722,-0.815397586250636,-0.8,1.0,0.0,314.0,687.0,0.0,0,239.0,1
723,723,0.2856845176508366,0.3,1.0,1.0,447.0,911.0,1.0,1,1202.0,1
724,724,-0.7920089458937729,-0.8,1.0,0.0,322.0,884.0,0.0,0,134.0,1
725,725,-0.6587227824194555,-0.7,1.0,0.0,420.0,766.0,0.0,0,84.0,1
726,726,-0.24269491322525105,-0.2,1.0,0.0,271.0,520.0,0.0,0,339.0,1
727,727,0.46107887929631175,0.5,0.0,0.0,262.0,822.0,0.0,1,-134.0,1
728,728,0.4568240846892272,0.5,0.0,0.0,407.0,692.0,0.0,1,1261.0,1
729,729,-0.008114887190359132,-0.0,1.0,0.0,355.0,735.0,0.0,0,330.0,1
730,730,-0.654959401574282,-0.7,1.0,0.0,348.0,551.0,0.0,0,511.0,1
731,731,-0.8453241634955354,-0.8,0.0,1.0,400.0,846.0,1.0,0,304.0,1
732,732,0.46111235185536514,0.5,1.0,1.0,468.0,992.0,1.0,1,490.0,1
733,733,-0.3307274278092648,-0.3,1.0,0.0,369.0,834.0,0.0,0,187.0,1
734,734,-0.3414436432243836,-0.3,0.0,1.0,282.0,795.0,1.0,0,813.0,1
735,735,0.5103000284379248,0.5,0.0,0.0,370.0,714.0,0.0,1,566.0,1
736,736,0.3335366788543047,0.3,1.0,1.0,294.0,595.0,1.0,1,2111.0,1
737,737,0.3199040891668635,0.3,1.0,1.0,430.0,968.0,1.0,1,952.0,1
738,738,0.21452178275286526,0.2,0.0,0.0,264.0,615.0,0.0,1,171.0,1
739,739,0.3089727464442883,0.3,0.0,0.0,399.0,923.0,0.0,1,258.0,1
740,740,-0.6857168555819689,-0.7,1.0,0.0,345.0,516.0,0.0,0,89.0,1
741,741,0.823815232242107,0.8,0.0,0.0,425.0,689.0,0.0,1,296.0,1
742,742,-0.21775192266874432,-0.2,0.0,1.0,334.0,927.0,1.0,0,1739.0,1
743,743,0.27323769565994593,0.3,0.0,0.0,323.0,591.0,0.0,1,566.0,1
744,744,0.08201713816570666,0.1,1.0,1.0,310.0,784.0,0.0,0,1906.0,0
745,745,0.330909023322553,0.3,1.0,1.0,371.0,766.0,1.0,1,1863.0,1
746,746,-0.6169499187172565,-0.6,0.0,1.0,332.0,979.0,1.0,0,779.0,1
747,747,-0.6980763319613816,-0.7,0.0,1.0,327.0,791.0,1.0,0,462.0,1
748,748,-0.6329913703965774,-0.6,0.0,1.0,444.0,776.0,1.0,0,1780.0,1
749,749,0.07749747647867544,0.1,1.0,1.0,325.0,811.0,0.0,0,1864.0,0
750,750,0.003427802424212145,0.0,1.0,1.0,461.0,583.0,1.0,1,1956.0,1
751,751,0.3819416616557162,0.4,1.0,1.0,292.0,906.0,0.0,0,-28.0,0
752,752,-0.3104172993040639,-0.3,1.0,0.0,430.0,720.0,0.0,0,1850.0,1
753,753,0.8838069906482126,0.9,0.0,0.0,304.0,887.0,0.0,1,-521.0,1
754,754,0.5498297354870497,0.5,0.0,0.0,292.0,786.0,0.0,1,112.0,1
755,755,-0.868302591645302,-0.9,0.0,1.0,353.0,876.0,1.0,0,751.0,1
756,756,-0.4266322820951656,-0.4,1.0,0.0,447.0,661.0,0.0,0,532.0,1
757,757,0.4887784132891696,0.5,0.0,0.0,296.0,929.0,0.0,1,1395.0,1
758,758,-0.7525753809466519,-0.8,1.0,0.0,308.0,724.0,0.0,0,388.0,1
759,759,-0.4897047828755565,-0.5,0.0,1.0,308.0,981.0,1.0,0,501.0,1
760,760,0.5884272263994589,0.6,1.0,1.0,338.0,912.0,0.0,0,-430.0,0
761,761,0.36449406780798566,0.4,0.0,0.0,316.0,812.0,0.0,1,1572.0,1
762,762,0.8470898042517142,0.8,0.0,0.0,467.0,517.0,0.0,1,196.0,1
763,763,-0.5360416512846665,-0.5,1.0,0.0,343.0,827.0,0.0,0,680.0,1
764,764,0.13085575022365037,0.1,0.0,0.0,321.0,727.0,0.0,1,1872.0,1
765,765,-0.13282509134142528,-0.1,0.0,1.0,406.0,539.0,0.0,1,2055.0,0
766,766,0.28408423178500153,0.3,1.0,1.0,272.0,590.0,1.0,1,1398.0,1
767,767,-0.3737551854826312,-0.4,0.0,1.0,479.0,609.0,1.0,0,1912.0,1
768,768,-0.23042745101220197,-0.2,1.0,0.0,403.0,936.0,0.0,0,1201.0,1
769,769,0.6643845462476802,0.7,1.0,1.0,446.0,656.0,1.0,1,768.0,1
770,770,0.21290111442376747,0.2,1.0,1.0,433.0,821.0,1.0,1,1746.0,1
771,771,-0.4913703426424277,-0.5,1.0,0.0,444.0,875.0,0.0,0,541.0,1
772,772,0.04931337956748971,0.0,0.0,0.0,353.0,520.0,0.0,1,2127.0,1
773,773,0.08678540741484841,0.1,1.0,1.0,392.0,520.0,1.0,1,2088.0,1
774,774,0.5260971650380012,0.5,1.0,1.0,396.0,801.0,1.0,1,603.0,1
775,775,0.26610349418562895,0.3,0.0,0.0,297.0,941.0,0.0,1,1052.0,1
776,776,-0.6101411647680539,-0.6,0.0,1.0,448.0,667.0,1.0,0,745.0,1
777,777,-0.6575382345494434,-0.7,0.0,1.0,446.0,618.0,1.0,0,556.0,1
778,778,-0.24908338124070706,-0.2,1.0,0.0,471.0,796.0,0.0,0,813.0,1
779,779,-0.8668627020353648,-0.9,1.0,0.0,348.0,943.0,0.0,0,189.0,1
780,780,0.3103391160733283,0.3,1.0,1.0,323.0,515.0,1.0,1,482.0,1
781,781,-0.5080530964394745,-0.5,0.0,1.0,349.0,878.0,1.0,0,613.0,1
782,782,0.2009889199481093,0.2,1.0,1.0,252.0,513.0,1.0,1,585.0,1
783,783,-0.307830808048416,-0.3,0.0,1.0,314.0,882.0,0.0,1,1804.0,0
784,784,0.24359516466809328,0.2,1.0,1.0,319.0,869.0,1.0,1,1812.0,1
785,785,0.34757783682861765,0.3,1.0,1.0,434.0,812.0,0.0,0,-346.0,0
786,786,0.4023184362831759,0.4,1.0,1.0,452.0,971.0,1.0,1,817.0,1
787,787,0.8246146597679084,0.8,1.0,1.0,376.0,652.0,1.0,1,412.0,1
788,788,-0.714504541659582,-0.7,0.0,1.0,497.0,933.0,0.0,1,-80.0,0
789,789,-0.4484044057370327,-0.4,0.0,1.0,471.0,695.0,1.0,0,704.0,1
790,790,-0.8560947976545018,-0.9,0.0,1.0,384.0,956.0,1.0,0,320.0,1
791,791,0.16004111804525245,0.2,1.0,1.0,252.0,804.0,0.0,0,1304.0,0
792,792,0.8943268219056509,0.9,0.0,0.0,377.0,954.0,0.0,1,1009.0,1
793,793,0.6240655661359374,0.6,0.0,0.0,265.0,805.0,0.0,1,330.0,1
794,794,0.37011779860998717,0.4,0.0,0.0,362.0,838.0,0.0,1,920.0,1
795,795,-0.12651288171906527,-0.1,1.0,0.0,481.0,648.0,0.0,0,1871.0,1
796,796,0.45783153577639946,0.5,1.0,1.0,402.0,788.0,1.0,1,660.0,1
797,797,0.16061946939965044,0.2,0.0,0.0,469.0,744.0,0.0,1,1787.0,1
798,798,-0.7459412307455144,-0.7,1.0,0.0,384.0,754.0,0.0,0,152.0,1
799,799,-0.10448839738996685,-0.1,1.0,0.0,376.0,660.0,0.0,0,1384.0,1
800,800,-0.3173919544487358,-0.3,1.0,0.0,302.0,860.0,0.0,0,-202.0,1
801,801,-0.7252691848074901,-0.7,1.0,0.0,442.0,802.0,0.0,0,326.0,1
802,802,-0.3135916778642893,-0.3,1.0,0.0,328.0,577.0,0.0,0,1925.0,1
803,803,-0.1259106136947853,-0.1,1.0,0.0,448.0,567.0,1.0,1,-195.0,0
804,804,0.1249451759491963,0.1,0.0,0.0,445.0,705.0,0.0,1,1850.0,1
805,805,0.06548134447663434,0.1,0.0,0.0,300.0,538.0,0.0,1,2162.0,1
806,806,0.19992307974450918,0.2,1.0,1.0,338.0,752.0,1.0,1,1910.0,1
807,807,-0.013874710531674217,-0.0,1.0,0.0,387.0,543.0,1.0,1,2070.0,0
808,808,-0.3909683878103094,-0.4,1.0,0.0,402.0,796.0,0.0,0,612.0,1
809,809,0.46668179610940796,0.5,1.0,1.0,268.0,739.0,0.0,0,-67.0,0
810,810,0.6876290443051728,0.7,0.0,0.0,321.0,925.0,0.0,1,314.0,1
811,811,0.33117905684618043,0.3,0.0,0.0,499.0,676.0,0.0,1,355.0,1
812,812,-0.7768101071567644,-0.8,1.0,0.0,375.0,714.0,0.0,0,281.0,1
813,813,0.5196818012705225,0.5,0.0,0.0,441.0,822.0,0.0,1,197.0,1
814,814,-0.7156164386746056,-0.7,1.0,0.0,350.0,553.0,0.0,0,317.0,1
815,815,-0.502244945671183,-0.5,1.0,0.0,259.0,560.0,0.0,0,961.0,1
816,816,0.5093519997850114,0.5,0.0,0.0,315.0,806.0,0.0,1,289.0,1
817,817,-0.37750936058842166,-0.4,1.0,0.0,495.0,569.0,0.0,0,126.0,1
818,818,0.08701176760736518,0.1,1.0,1.0,335.0,736.0,0.0,0,1749.0,0
819,819,-0.7133475991627962,-0.7,0.0,1.0,322.0,631.0,1.0,0,167.0,1
820,820,0.019882588319951155,0.0,0.0,0.0,279.0,976.0,0.0,1,-65.0,1
821,821,-0.44618603547296376,-0.4,1.0,0.0,291.0,524.0,0.0,0,1305.0,1
822,822,0.040074774316349204,0.0,0.0,0.0,371.0,999.0,1.0,0,1630.0,0
823,823,0.2809216727177396,0.3,1.0,1.0,284.0,512.0,1.0,1,2204.0,1
824,824,0.21449661756973126,0.2,1.0,1.0,255.0,546.0,1.0,1,2199.0,1
825,825,0.44558774038924553,0.4,0.0,0.0,386.0,699.0,0.0,1,645.0,1
826,826,-0.8032008241910326,-0.8,1.0,0.0,376.0,827.0,0.0,0,117.0,1
827,827,0.5654253530830619,0.6,0.0,0.0,442.0,839.0,0.0,1,439.0,1
828,828,-0.14958540039653345,-0.1,1.0,0.0,462.0,553.0,0.0,0,1265.0,1
829,829,-0.6412588833408033,-0.6,1.0,0.0,341.0,654.0,0.0,0,205.0,1
830,830,0.36725678942357354,0.4,1.0,1.0,388.0,606.0,1.0,1,996.0,1
831,831,0.7251410232963652,0.7,0.0,0.0,401.0,862.0,0.0,1,-273.0,1
832,832,0.5831935171678376,0.6,1.0,1.0,395.0,893.0,0.0,0,-198.0,0
833,833,-0.2827375303095174,-0.3,1.0,0.0,474.0,630.0,0.0,0,556.0,1
834,834,0.15590689304705585,0.2,1.0,1.0,468.0,649.0,1.0,1,1883.0,1
835,835,-0.47767655173865703,-0.5,0.0,1.0,395.0,885.0,0.0,1,-690.0,0
836,836,0.6221349419718502,0.6,0.0,0.0,335.0,888.0,0.0,1,207.0,1
837,837,-0.7939587170781796,-0.8,1.0,0.0,287.0,670.0,0.0,0,223.0,1
838,838,0.008733954129774402,0.0,1.0,1.0,449.0,712.0,0.0,0,1839.0,0
839,839,0.6034881707619754,0.6,1.0,1.0,395.0,758.0,1.0,1,397.0,1
840,840,-0.8958331966064904,-0.9,1.0,0.0,254.0,595.0,0.0,0,-249.0,1
841,841,-0.06101260212944837,-0.1,0.0,1.0,485.0,733.0,0.0,1,1782.0,0
842,842,-0.12410160537877635,-0.1,0.0,1.0,289.0,903.0,1.0,0,1808.0,1
843,843,-0.2892641684263636,-0.3,1.0,0.0,374.0,511.0,0.0,0,1065.0,1
844,844,-0.7429330410799868,-0.7,1.0,0.0,270.0,937.0,0.0,0,243.0,1
845,845,-0.4246333172648521,-0.4,1.0,0.0,426.0,995.0,0.0,0,-901.0,1
846,846,-0.2723892200135529,-0.3,0.0,1.0,445.0,605.0,1.0,0,1950.0,1
847,847,-0.10037394802274435,-0.1,0.0,1.0,402.0,565.0,1.0,0,2033.0,1
848,848,0.8131720472322089,0.8,1.0,1.0,468.0,574.0,1.0,1,508.0,1
849,849,-0.19385502233070784,-0.2,0.0,1.0,258.0,934.0,1.0,0,1808.0,1
850,850,0.13980344960534785,0.1,1.0,1.0,360.0,519.0,0.0,0,2121.0,0
851,851,0.6513742868302771,0.7,0.0,0.0,300.0,577.0,0.0,1,443.0,1
852,852,-0.18399506973976254,-0.2,1.0,0.0,488.0,632.0,0.0,0,1450.0,1
853,853,0.10489801487928341,0.1,1.0,1.0,269.0,543.0,0.0,0,628.0,0
854,854,-0.023835899035367647,-0.0,0.0,1.0,261.0,601.0,0.0,1,1848.0,0
855,855,0.02053430644570886,0.0,1.0,1.0,475.0,860.0,0.0,0,675.0,0
856,856,0.3039871948267029,0.3,1.0,1.0,344.0,652.0,1.0,1,904.0,1
857,857,-0.7729445955819823,-0.8,0.0,1.0,464.0,979.0,1.0,0,567.0,1
858,858,0.149251855719141,0.1,1.0,1.0,465.0,805.0,0.0,0,760.0,0
859,859,-0.8298112652414509,-0.8,1.0,0.0,499.0,646.0,0.0,0,455.0,1
860,860,0.1425728006363699,0.1,0.0,0.0,369.0,532.0,0.0,1,559.0,1
861,861,-0.7741366498947472,-0.8,0.0,1.0,295.0,763.0,0.0,1,-278.0,0
862,862,-0.8088592818567873,-0.8,0.0,1.0,265.0,587.0,1.0,0,518.0,1
863,863,-0.7046180296124211,-0.7,0.0,1.0,259.0,638.0,1.0,0,923.0,1
864,864,-0.8954018602877027,-0.9,1.0,0.0,352.0,974.0,0.0,0,254.0,1
865,865,0.17094505238412727,0.2,1.0,1.0,417.0,515.0,0.0,0,2068.0,0
866,866,0.8272944727340205,0.8,1.0,1.0,422.0,726.0,1.0,1,372.0,1
867,867,-0.3729875024090089,-0.4,1.0,0.0,465.0,620.0,0.0,0,195.0,1
868,868,0.11697356745465115,0.1,0.0,0.0,351.0,639.0,1.0,0,2010.0,0
869,869,0.3343623935716794,0.3,1.0,1.0,313.0,906.0,1.0,1,1781.0,1
870,870,-0.451399734915303,-0.5,1.0,0.0,315.0,777.0,0.0,0,258.0,1
871,871,-0.15157780896984108,-0.2,0.0,1.0,295.0,840.0,1.0,0,1865.0,1
872,872,0.34671272084641547,0.3,0.0,0.0,401.0,853.0,0.0,1,1486.0,1
873,873,-0.3337155101661371,-0.3,0.0,1.0,406.0,998.0,0.0,1,-184.0,0
874,874,-0.1644734587350315,-0.2,1.0,0.0,437.0,715.0,0.0,0,1478.0,1
875,875,0.6978305121896525,0.7,0.0,0.0,425.0,662.0,0.0,1,283.0,1
876,876,-0.6985105853376693,-0.7,1.0,0.0,294.0,638.0,0.0,0,188.0,1
877,877,-0.4992607552736536,-0.5,0.0,1.0,441.0,528.0,1.0,0,2031.0,1
878,878,-0.7833268943970777,-0.8,0.0,1.0,396.0,642.0,1.0,0,942.0,1
879,879,0.08272841675134301,0.1,1.0,1.0,486.0,695.0,1.0,1,989.0,1
880,880,-0.34916886224283283,-0.3,1.0,0.0,444.0,744.0,0.0,0,722.0,1
881,881,-0.5580948437416797,-0.6,0.0,1.0,333.0,714.0,1.0,0,1953.0,1
882,882,0.8680304759848302,0.9,1.0,1.0,398.0,912.0,1.0,1,370.0,1
883,883,-0.28086323963924853,-0.3,1.0,0.0,402.0,873.0,0.0,0,735.0,1
884,884,-0.21640911419359588,-0.2,1.0,0.0,298.0,575.0,0.0,0,1487.0,1
885,885,0.7622267012632656,0.8,0.0,0.0,445.0,819.0,0.0,1,316.0,1
886,886,-0.766165447459465,-0.8,1.0,0.0,305.0,807.0,0.0,0,348.0,1
887,887,-0.5196179955555402,-0.5,1.0,0.0,482.0,647.0,0.0,0,411.0,1
888,888,0.1229851764249853,0.1,0.0,0.0,498.0,735.0,0.0,1,877.0,1
889,889,-0.37050389851516685,-0.4,0.0,1.0,418.0,800.0,1.0,0,1642.0,1
890,890,-0.8012753559408835,-0.8,1.0,0.0,431.0,886.0,0.0,0,163.0,1
891,891,0.10620921939905414,0.1,0.0,0.0,320.0,911.0,0.0,1,1769.0,1
892,892,-0.020592373055791313,-0.0,1.0,0.0,442.0,926.0,0.0,0,1632.0,1
893,893,0.29145237973092153,0.3,0.0,0.0,312.0,745.0,0.0,1,1073.0,1
894,894,-0.6452371332184232,-0.6,0.0,1.0,322.0,938.0,1.0,0,320.0,1
895,895,-0.6187930722369994,-0.6,0.0,1.0,355.0,670.0,1.0,0,115.0,1
896,896,0.07663793052176626,0.1,1.0,1.0,292.0,680.0,0.0,0,2028.0,0
897,897,0.10164145827636262,0.1,1.0,1.0,445.0,980.0,1.0,1,755.0,1
898,898,-0.30300252105583747,-0.3,1.0,0.0,264.0,972.0,0.0,0,1004.0,1
899,899,-0.7434521671884218,-0.7,0.0,1.0,370.0,916.0,0.0,1,-486.0,0
900,900,0.4307768499428203,0.4,0.0,0.0,427.0,783.0,0.0,1,680.0,1
901,901,-0.7021593251626047,-0.7,1.0,0.0,261.0,713.0,0.0,0,146.0,1
902,902,-0.7325954136259873,-0.7,0.0,1.0,332.0,631.0,0.0,1,-3.0,0
903,903,0.1681846210345147,0.2,1.0,1.0,287.0,709.0,1.0,1,1184.0,1
904,904,-0.5752362592517704,-0.6,1.0,0.0,255.0,666.0,0.0,0,919.0,1
905,905,0.18665036037484584,0.2,1.0,1.0,255.0,656.0,1.0,1,809.0,1
906,906,0.6902401757686442,0.7,1.0,1.0,440.0,975.0,1.0,1,1295.0,1
907,907,0.0575236171586152,0.1,0.0,0.0,391.0,688.0,0.0,1,711.0,1
908,908,0.7036519385186509,0.7,0.0,0.0,492.0,996.0,0.0,1,512.0,1
909,909,0.07253648325014206,0.1,0.0,0.0,465.0,816.0,0.0,1,1489.0,1
910,910,-0.6346122404201755,-0.6,0.0,1.0,439.0,836.0,1.0,0,625.0,1
911,911,-0.8855068936371565,-0.9,0.0,1.0,437.0,545.0,0.0,1,-222.0,0
912,912,0.2805347908480512,0.3,0.0,0.0,489.0,973.0,0.0,1,1538.0,1
913,913,0.4966530598564637,0.5,1.0,1.0,347.0,644.0,0.0,0,-71.0,0
914,914,0.4956865916952665,0.5,0.0,0.0,443.0,955.0,0.0,1,362.0,1
915,915,0.23233467301891408,0.2,1.0,1.0,402.0,907.0,1.0,1,1131.0,1
916,916,0.4543056046787456,0.5,1.0,1.0,335.0,758.0,0.0,0,1907.0,0
917,917,0.5977171111393352,0.6,1.0,1.0,457.0,690.0,1.0,1,423.0,1
918,918,-0.03843056321863514,-0.0,0.0,1.0,428.0,506.0,0.0,1,2066.0,0
919,919,-0.08127215044106961,-0.1,1.0,0.0,443.0,757.0,0.0,0,1720.0,1
920,920,-0.5844944660293735,-0.6,0.0,1.0,320.0,644.0,1.0,0,566.0,1
921,921,-0.09547735200583751,-0.1,1.0,0.0,489.0,876.0,0.0,0,1635.0,1
922,922,0.6393096472076222,0.6,0.0,0.0,284.0,656.0,0.0,1,1640.0,1
923,923,0.19535933818619078,0.2,1.0,1.0,382.0,676.0,1.0,1,1942.0,1
924,924,0.8100190218841697,0.8,1.0,1.0,474.0,715.0,1.0,1,1061.0,1
925,925,0.3548185164152077,0.4,0.0,0.0,319.0,715.0,0.0,1,866.0,1
926,926,-0.6972313664829108,-0.7,1.0,0.0,326.0,808.0,0.0,0,136.0,1
927,927,-0.32842808110282773,-0.3,0.0,1.0,460.0,714.0,1.0,0,1826.0,1
928,928,-0.7015598559198104,-0.7,1.0,0.0,304.0,632.0,0.0,0,334.0,1
929,929,0.712180469900135,0.7,1.0,1.0,385.0,824.0,1.0,1,461.0,1
930,930,-0.8316249692791743,-0.8,1.0,0.0,360.0,693.0,0.0,0,177.0,1
931,931,0.43741140707527715,0.4,0.0,0.0,359.0,622.0,0.0,1,729.0,1
932,932,0.190278795498369,0.2,1.0,1.0,279.0,642.0,1.0,1,2079.0,1
933,933,-0.6314994870357222,-0.6,1.0,0.0,298.0,859.0,0.0,0,-217.0,1
934,934,-0.29111959643796015,-0.3,1.0,0.0,442.0,843.0,0.0,0,365.0,1
935,935,0.5149645374747435,0.5,0.0,0.0,331.0,918.0,0.0,1,181.0,1
936,936,-0.21706912061446837,-0.2,1.0,0.0,355.0,974.0,0.0,0,1241.0,1
937,937,0.23033319692125465,0.2,1.0,1.0,389.0,748.0,0.0,0,1863.0,0
938,938,0.7541923482286391,0.8,1.0,1.0,338.0,674.0,1.0,1,318.0,1
939,939,0.749109646196552,0.7,1.0,1.0,372.0,759.0,1.0,1,1139.0,1
940,940,-0.2542033768699201,-0.3,1.0,0.0,341.0,566.0,0.0,0,233.0,1
941,941,0.38036694139278737,0.4,1.0,1.0,265.0,693.0,1.0,1,1512.0,1
942,942,-0.42599330301980004,-0.4,0.0,1.0,331.0,536.0,0.0,1,-17.0,0
943,943,-0.14543268647478014,-0.1,0.0,1.0,305.0,937.0,0.0,1,1758.0,0
944,944,-0.6268755032940755,-0.6,0.0,1.0,493.0,690.0,1.0,0,597.0,1
945,945,0.09986395398012149,0.1,0.0,0.0,305.0,913.0,0.0,1,222.0,1
946,946,0.2765945482767723,0.3,1.0,1.0,476.0,750.0,0.0,0,1774.0,0
947,947,0.10065129747685708,0.1,0.0,0.0,303.0,613.0,0.0,1,1014.0,1
948,948,-0.822022544254311,-0.8,0.0,1.0,274.0,784.0,1.0,0,272.0,1
949,949,-0.5183421028716038,-0.5,1.0,0.0,420.0,665.0,0.0,0,275.0,1
950,950,-0.46664805206607624,-0.5,1.0,0.0,304.0,858.0,0.0,0,1228.0,1
951,951,-0.7283007762837304,-0.7,0.0,1.0,472.0,764.0,1.0,0,584.0,1
952,952,0.11012711506472639,0.1,1.0,1.0,468.0,787.0,1.0,1,1745.0,1
953,953,-0.3300384737262323,-0.3,0.0,1.0,455.0,625.0,1.0,0,1920.0,1
954,954,-0.07601032411922481,-0.1,0.0,1.0,391.0,534.0,0.0,1,945.0,0
955,955,-0.021776993417104706,-0.0,1.0,0.0,295.0,957.0,0.0,0,908.0,1
956,956,0.41967262483798484,0.4,0.0,0.0,421.0,997.0,0.0,1,1582.0,1
957,957,0.5397523681660569,0.5,0.0,0.0,349.0,665.0,0.0,1,746.0,1
958,958,0.3960700145289643,0.4,1.0,1.0,251.0,907.0,1.0,1,1632.0,1
959,959,-0.29341079874037157,-0.3,0.0,1.0,465.0,549.0,1.0,0,1986.0,1
960,960,-0.5944460154273081,-0.6,0.0,1.0,270.0,572.0,1.0,0,1598.0,1
961,961,0.7278716363173964,0.7,0.0,0.0,455.0,688.0,0.0,1,247.0,1
962,962,-0.456147639226831,-0.5,0.0,1.0,398.0,753.0,1.0,0,1849.0,1
963,963,-0.7111154949223573,-0.7,1.0,0.0,459.0,647.0,0.0,0,464.0,1
964,964,-0.2767902474705206,-0.3,1.0,0.0,301.0,614.0,0.0,0,2005.0,1
965,965,-0.016968382875342525,-0.0,0.0,1.0,495.0,632.0,0.0,1,1873.0,0
966,966,0.7859117697964605,0.8,0.0,0.0,259.0,572.0,0.0,1,389.0,1
967,967,0.8448885972087058,0.8,1.0,1.0,428.0,839.0,1.0,1,353.0,1
968,968,-0.06356346588248296,-0.1,1.0,0.0,332.0,618.0,0.0,0,960.0,1
969,969,0.5711079983255353,0.6,1.0,1.0,252.0,836.0,1.0,1,1042.0,1
970,970,0.8183049866424105,0.8,1.0,1.0,255.0,609.0,1.0,1,1206.0,1
971,971,-0.8966629564157513,-0.9,1.0,0.0,427.0,866.0,0.0,0,257.0,1
972,972,-0.43401731765817736,-0.4,0.0,1.0,287.0,701.0,1.0,0,822.0,1
973,973,0.13271209855362576,0.1,0.0,0.0,413.0,939.0,0.0,1,-332.0,1
974,974,0.2514698542901125,0.3,1.0,1.0,434.0,579.0,1.0,1,607.0,1
975,975,-0.04106627024872567,-0.0,1.0,0.0,267.0,652.0,1.0,1,41.0,0
976,976,-0.7334339525375514,-0.7,0.0,1.0,285.0,748.0,1.0,0,1217.0,1
977,977,-0.04824021479692697,-0.0,1.0,0.0,441.0,983.0,0.0,0,1576.0,1
978,978,0.3083781139698515,0.3,1.0,1.0,387.0,953.0,1.0,1,1660.0,1
979,979,0.7615220381673639,0.8,0.0,0.0,433.0,858.0,0.0,1,-491.0,1
980,980,-0.281223640529369,-0.3,1.0,0.0,458.0,887.0,0.0,0,-505.0,1
981,981,-0.16115444797666112,-0.2,0.0,1.0,332.0,731.0,0.0,1,1887.0,0
982,982,0.18741541118545813,0.2,0.0,0.0,303.0,872.0,0.0,1,1565.0,1
983,983,0.37661085632147506,0.4,1.0,1.0,457.0,820.0,1.0,1,1723.0,1
984,984,-0.8523790806138182,-0.9,1.0,0.0,318.0,877.0,0.0,0,315.0,1
985,985,-0.5928731471320965,-0.6,0.0,1.0,465.0,703.0,1.0,0,782.0,1
986,986,-0.5395550369007789,-0.5,1.0,0.0,374.0,682.0,0.0,0,424.0,1
987,987,-0.5995926556521294,-0.6,0.0,1.0,331.0,504.0,1.0,0,1965.0,1
988,988,0.8232139052680182,0.8,0.0,0.0,487.0,770.0,0.0,1,503.0,1
989,989,0.187486384295113,0.2,1.0,1.0,352.0,573.0,1.0,1,35.0,1
990,990,-0.6205585051664646,-0.6,0.0,1.0,428.0,678.0,1.0,0,-116.0,1
991,991,-0.43648628428377295,-0.4,1.0,0.0,363.0,635.0,0.0,0,-148.0,1
992,992,0.23064548393339723,0.2,0.0,0.0,273.0,692.0,0.0,1,525.0,1
993,993,0.8320277989853199,0.8,0.0,0.0,464.0,694.0,0.0,1,512.0,1
994,994,-0.2869975230535893,-0.3,0.0,1.0,347.0,774.0,1.0,0,1539.0,1
995,995,-0.8313936491490573,-0.8,1.0,0.0,483.0,834.0,0.0,0,293.0,1
996,996,-0.34230222486972073,-0.3,0.0,1.0,446.0,520.0,1.0,0,304.0,1
997,997,0.5567938110236249,0.6,1.0,1.0,332.0,945.0,1.0,1,613.0,1
998,998,0.29729479770716705,0.3,1.0,1.0,450.0,635.0,1.0,1,1915.0,1
999,999,-0.029935195027158246,-0.0,0.0,1.0,474.0,818.0,0.0,1,1708.0,0
1000,1000,-0.5225979713056108,-0.5,1.0,0.0,330.0,862.0,0.0,0,248.0,1
1001,1001,-0.33552398099578906,-0.3,0.0,1.0,329.0,662.0,1.0,0,819.0,1
1002,1002,-0.22103083046688798,-0.2,0.0,1.0,435.0,662.0,1.0,0,1893.0,1
1003,1003,0.7025069926735513,0.7,0.0,0.0,288.0,679.0,0.0,1,153.0,1
1004,1004,0.7466164603697892,0.7,0.0,0.0,254.0,588.0,0.0,1,328.0,1
1005,1005,0.740505006963092,0.7,1.0,1.0,369.0,586.0,1.0,1,345.0,1
1006,1006,0.2013559431598505,0.2,1.0,1.0,436.0,875.0,0.0,0,219.0,0
1007,1007,-0.567629015252346,-0.6,0.0,1.0,392.0,995.0,0.0,1,-377.0,0
1008,1008,-0.2125055137403875,-0.2,0.0,1.0,383.0,885.0,1.0,0,-278.0,1
1009,1009,0.8149003481653952,0.8,1.0,1.0,332.0,892.0,1.0,1,976.0,1
1010,1010,-0.4826229476971209,-0.5,0.0,1.0,414.0,934.0,1.0,0,1652.0,1
1011,1011,0.38426616129279834,0.4,1.0,1.0,267.0,505.0,1.0,1,2228.0,1
1012,1012,-0.07480212879751047,-0.1,0.0,1.0,330.0,986.0,0.0,1,1104.0,0
1013,1013,0.8342525473660344,0.8,1.0,1.0,389.0,656.0,1.0,1,745.0,1
1014,1014,0.2378204222223005,0.2,0.0,0.0,379.0,749.0,0.0,1,1222.0,1
1015,1015,-0.5865472150133242,-0.6,1.0,0.0,271.0,517.0,0.0,0,262.0,1
1016,1016,-0.29997795024057783,-0.3,1.0,0.0,363.0,673.0,0.0,0,914.0,1
1017,1017,-0.8236048699311542,-0.8,1.0,0.0,263.0,755.0,0.0,0,522.0,1
1018,1018,0.7214400518776386,0.7,1.0,1.0,459.0,910.0,1.0,1,1631.0,1
1019,1019,0.8142715471845622,0.8,1.0,1.0,495.0,722.0,1.0,1,1063.0,1
1020,1020,0.8765835106694436,0.9,1.0,1.0,449.0,675.0,1.0,1,306.0,1
1021,1021,0.8331369661949363,0.8,0.0,0.0,394.0,525.0,0.0,1,561.0,1
1022,1022,-0.5909977584566368,-0.6,1.0,0.0,477.0,567.0,0.0,0,256.0,1
1023,1023,0.10134545638004255,0.1,0.0,0.0,269.0,511.0,0.0,1,1340.0,1
1024,1024,-0.3026177802960397,-0.3,1.0,0.0,310.0,776.0,0.0,0,574.0,1
1025,1025,-0.26851263749182264,-0.3,0.0,1.0,489.0,974.0,1.0,0,1537.0,1
1026,1026,0.46451509994352513,0.5,0.0,0.0,405.0,610.0,0.0,1,225.0,1
1027,1027,-0.5416781342544814,-0.5,1.0,0.0,261.0,900.0,0.0,0,629.0,1
1028,1028,-0.7555797141688234,-0.8,0.0,1.0,458.0,602.0,1.0,0,640.0,1
1029,1029,0.5619740480005134,0.6,1.0,1.0,472.0,545.0,1.0,1,323.0,1
1030,1030,-0.13655750432172853,-0.1,0.0,1.0,265.0,760.0,1.0,0,1975.0,1
1031,1031,0.8279611506168386,0.8,1.0,1.0,316.0,875.0,1.0,1,869.0,1
1032,1032,-0.649886063334506,-0.6,1.0,0.0,352.0,945.0,0.0,0,-347.0,1
1033,1033,-0.5209151688865654,-0.5,0.0,1.0,383.0,734.0,1.0,0,403.0,1
1034,1034,-0.8263683720148591,-0.8,0.0,1.0,347.0,983.0,1.0,0,440.0,1
1035,1035,0.3587086846693214,0.4,0.0,0.0,451.0,573.0,0.0,1,326.0,1
1036,1036,-0.8414968860366095,-0.8,0.0,1.0,427.0,628.0,1.0,0,645.0,1
1037,1037,-0.6085575860639981,-0.6,0.0,1.0,364.0,946.0,1.0,0,590.0,1
1038,1038,-0.4356378118289509,-0.4,1.0,0.0,464.0,915.0,0.0,0,571.0,1
1039,1039,-0.7015035708817743,-0.7,0.0,1.0,379.0,846.0,1.0,0,575.0,1
1040,1040,0.8350699222630907,0.8,0.0,0.0,486.0,629.0,0.0,1,225.0,1
1041,1041,0.8119629933811129,0.8,0.0,0.0,482.0,704.0,0.0,1,464.0,1
1042,1042,-0.6170767279480617,-0.6,1.0,0.0,303.0,811.0,0.0,0,-654.0,1
1043,1043,0.16320095276043867,0.2,1.0,1.0,362.0,734.0,1.0,1,1904.0,1
1044,1044,-0.21111141596833394,-0.2,0.0,1.0,274.0,940.0,1.0,0,1156.0,1
1045,1045,0.3223280789212263,0.3,1.0,1.0,356.0,947.0,1.0,1,287.0,1
1046,1046,-0.1232582562415645,-0.1,1.0,0.0,464.0,922.0,0.0,0,1344.0,1
1047,1047,0.4481687544396856,0.4,0.0,0.0,492.0,758.0,0.0,1,210.0,1
1048,1048,-0.5811053146179024,-0.6,0.0,1.0,409.0,717.0,1.0,0,1074.0,1
1049,1049,-0.3500377834222784,-0.4,1.0,0.0,497.0,576.0,0.0,0,767.0,1
1050,1050,-0.35063390283143114,-0.4,1.0,0.0,351.0,776.0,0.0,0,483.0,1
1051,1051,-0.4378496005872581,-0.4,1.0,0.0,267.0,950.0,0.0,0,-327.0,1
1052,1052,-0.0327427881583473,-0.0,0.0,1.0,477.0,861.0,0.0,1,1662.0,0
1053,1053,0.46113059707592197,0.5,1.0,1.0,466.0,500.0,1.0,1,1384.0,1
1054,1054,-0.7252745728087301,-0.7,1.0,0.0,312.0,963.0,0.0,0,195.0,1
1055,1055,-0.2495919784401759,-0.2,1.0,0.0,486.0,689.0,0.0,0,895.0,1
1056,1056,0.5592768511907967,0.6,1.0,1.0,277.0,704.0,1.0,1,559.0,1
1057,1057,-0.28584091986130944,-0.3,1.0,0.0,496.0,967.0,0.0,0,337.0,1
1058,1058,0.8166798401331002,0.8,0.0,0.0,293.0,657.0,0.0,1,370.0,1
1059,1059,-0.13734176642544038,-0.1,0.0,1.0,420.0,668.0,0.0,1,1912.0,0
1060,1060,0.23278724600532008,0.2,0.0,0.0,282.0,591.0,0.0,1,837.0,1
1061,1061,-0.2059895340820571,-0.2,0.0,1.0,255.0,813.0,1.0,0,1932.0,1
1062,1062,0.3338259062114387,0.3,0.0,0.0,461.0,654.0,0.0,1,695.0,1
1063,1063,0.08254420142777241,0.1,1.0,1.0,307.0,878.0,0.0,0,1815.0,0
1064,1064,-0.02266358450649364,-0.0,1.0,0.0,489.0,938.0,0.0,0,1573.0,1
1065,1065,0.5835422109346803,0.6,1.0,1.0,400.0,942.0,1.0,1,1258.0,1
1066,1066,-0.029238451706178004,-0.0,1.0,0.0,403.0,519.0,0.0,0,308.0,1
1067,1067,0.0534942007757524,0.1,1.0,1.0,412.0,978.0,1.0,1,1610.0,1
1068,1068,0.4025330888170685,0.4,0.0,0.0,268.0,940.0,0.0,1,-488.0,1
1069,1069,-0.6808529771396954,-0.7,1.0,0.0,378.0,579.0,0.0,0,-37.0,1
1070,1070,0.4221165321520518,0.4,1.0,1.0,320.0,826.0,1.0,1,1854.0,1
1071,1071,-0.8188494532960371,-0.8,0.0,1.0,479.0,549.0,1.0,0,982.0,1
1072,1072,0.37045301016296406,0.4,0.0,0.0,468.0,610.0,0.0,1,502.0,1
1073,1073,-0.8766732054820279,-0.9,0.0,1.0,425.0,604.0,1.0,0,441.0,1
1074,1074,-0.5665440955976887,-0.6,1.0,0.0,307.0,682.0,0.0,0,361.0,1
1075,1075,0.6476837407407566,0.6,0.0,0.0,468.0,952.0,0.0,1,290.0,1
1076,1076,-0.21432464156319952,-0.2,1.0,0.0,351.0,837.0,0.0,0,-238.0,1
1077,1077,-0.3359108310669454,-0.3,0.0,1.0,290.0,726.0,1.0,0,1984.0,1
1078,1078,-0.7214339863946656,-0.7,1.0,0.0,281.0,730.0,0.0,0,269.0,1
1079,1079,0.4954950725075916,0.5,0.0,0.0,255.0,575.0,0.0,1,1040.0,1
1080,1080,-0.2886602912831956,-0.3,1.0,0.0,259.0,528.0,0.0,0,1353.0,1
1081,1081,0.6601489396626726,0.7,0.0,0.0,456.0,949.0,0.0,1,735.0,1
1082,1082,0.06749628547471642,0.1,1.0,1.0,356.0,800.0,1.0,1,1844.0,1
1083,1083,0.8286937163086127,0.8,1.0,1.0,272.0,900.0,1.0,1,348.0,1
1084,1084,0.6378681349017904,0.6,1.0,1.0,304.0,589.0,1.0,1,577.0,1
1085,1085,0.057716421752681435,0.1,0.0,0.0,399.0,704.0,0.0,1,1897.0,1
1086,1086,0.2177949360484538,0.2,0.0,0.0,391.0,532.0,0.0,1,1457.0,1
1087,1087,-0.6604202954375462,-0.7,0.0,1.0,383.0,737.0,1.0,0,440.0,1
1088,1088,-0.28602216609451103,-0.3,0.0,1.0,287.0,970.0,1.0,0,1743.0,1
1089,1089,0.8050952722039152,0.8,1.0,1.0,423.0,754.0,1.0,1,733.0,1
1090,1090,-0.5167034742431581,-0.5,0.0,1.0,479.0,889.0,1.0,0,672.0,1
1091,1091,0.5206182672431995,0.5,0.0,0.0,260.0,590.0,0.0,1,30.0,1
1092,1092,0.6915116658477264,0.7,0.0,0.0,297.0,985.0,0.0,1,-462.0,1
1093,1093,-0.04449069874138789,-0.0,0.0,1.0,316.0,712.0,1.0,0,1972.0,1
1094,1094,-0.5997690335463077,-0.6,0.0,1.0,330.0,874.0,1.0,0,586.0,1
1095,1095,-0.32718692851621833,-0.3,1.0,0.0,444.0,932.0,0.0,0,374.0,1
1096,1096,-0.8581782502880789,-0.9,0.0,1.0,361.0,949.0,1.0,0,430.0,1
1097,1097,-0.40636688730244963,-0.4,1.0,0.0,377.0,507.0,0.0,0,936.0,1
1098,1098,-0.8088212360584393,-0.8,0.0,1.0,408.0,818.0,1.0,0,524.0,1
1099,1099,0.010974427935284359,0.0,1.0,1.0,403.0,850.0,0.0,0,1747.0,0
1100,1100,-0.5560834911607564,-0.6,0.0,1.0,304.0,613.0,1.0,0,1483.0,1
1101,1101,-0.7052065114766815,-0.7,0.0,1.0,279.0,566.0,1.0,0,505.0,1
1102,1102,0.25688722257988006,0.3,0.0,0.0,422.0,959.0,0.0,1,1229.0,1
1103,1103,-0.006823546577307771,-0.0,0.0,1.0,478.0,859.0,0.0,1,1663.0,0
1104,1104,0.07892062694940627,0.1,0.0,0.0,455.0,974.0,0.0,1,1571.0,1
1105,1105,-0.3271432106125193,-0.3,0.0,1.0,264.0,833.0,1.0,0,1903.0,1
1106,1106,0.4364955376752434,0.4,1.0,1.0,405.0,751.0,1.0,1,1844.0,1
1107,1107,0.35125071711360156,0.4,1.0,1.0,349.0,532.0,1.0,1,1389.0,1
1108,1108,-0.7170155182183395,-0.7,1.0,0.0,269.0,651.0,0.0,0,570.0,1
1109,1109,-0.2528374485477408,-0.3,1.0,0.0,416.0,868.0,0.0,0,406.0,1
1110,1110,0.2179302064565921,0.2,0.0,0.0,358.0,651.0,0.0,1,1731.0,1
1111,1111,0.5852694709916763,0.6,0.0,0.0,311.0,883.0,0.0,1,286.0,1
1112,1112,-0.8122340336696751,-0.8,1.0,0.0,405.0,517.0,0.0,0,338.0,1
1113,1113,-0.40841992603639815,-0.4,0.0,1.0,378.0,794.0,1.0,0,398.0,1
1114,1114,0.34482023633208125,0.3,1.0,1.0,378.0,856.0,1.0,1,1396.0,1
1115,1115,-0.031098844379962798,-0.0,0.0,1.0,382.0,763.0,0.0,1,1095.0,0
1116,1116,-0.7326318655272589,-0.7,1.0,0.0,271.0,645.0,0.0,0,224.0,1
1117,1117,0.12003880235347297,0.1,0.0,0.0,376.0,829.0,0.0,1,1795.0,1
1118,1118,0.551570770318749,0.6,1.0,1.0,390.0,548.0,1.0,1,402.0,1
1119,1119,0.38383899271386024,0.4,1.0,1.0,380.0,502.0,1.0,1,2118.0,1
1120,1120,-0.672219408236433,-0.7,0.0,1.0,467.0,508.0,1.0,0,1445.0,1
1121,1121,0.8593474574344963,0.9,0.0,0.0,439.0,776.0,0.0,1,185.0,1
1122,1122,-0.21067525961678435,-0.2,1.0,0.0,471.0,860.0,0.0,0,1669.0,1
1123,1123,0.4153897196068982,0.4,0.0,0.0,310.0,796.0,0.0,1,564.0,1
1124,1124,-0.6115885590545881,-0.6,0.0,1.0,382.0,907.0,1.0,0,331.0,1
1125,1125,-0.8124624013480595,-0.8,1.0,0.0,431.0,836.0,0.0,0,103.0,1
1126,1126,0.00425358567053058,0.0,1.0,1.0,274.0,768.0,0.0,0,1958.0,0
1127,1127,0.05135878491426549,0.1,0.0,0.0,349.0,881.0,0.0,1,1540.0,1
1128,1128,0.4611439892336343,0.5,0.0,0.0,299.0,856.0,0.0,1,475.0,1
1129,1129,0.00764546029998503,0.0,0.0,0.0,369.0,736.0,0.0,1,1895.0,1
1130,1130,-0.2176547302983085,-0.2,1.0,0.0,339.0,521.0,0.0,0,970.0,1
1131,1131,-0.2121797081457194,-0.2,0.0,1.0,417.0,557.0,0.0,1,166.0,0
1132,1132,0.6132147462998269,0.6,1.0,1.0,370.0,778.0,1.0,1,372.0,1
1133,1133,-0.5126446983387284,-0.5,1.0,0.0,476.0,609.0,0.0,0,565.0,1
1134,1134,-0.8838777347788811,-0.9,0.0,1.0,261.0,693.0,1.0,0,456.0,1
1135,1135,0.6360485224720988,0.6,1.0,1.0,468.0,742.0,1.0,1,530.0,1
1136,1136,0.630849259414422,0.6,1.0,1.0,352.0,651.0,1.0,1,1617.0,1
1137,1137,-0.6904346314240545,-0.7,0.0,1.0,458.0,535.0,1.0,0,207.0,1
1138,1138,0.5781175595043283,0.6,1.0,1.0,273.0,821.0,1.0,1,1136.0,1
1139,1139,-0.7939045506618427,-0.8,1.0,0.0,323.0,660.0,0.0,0,227.0,1
1140,1140,-0.1459236917897878,-0.1,1.0,0.0,370.0,556.0,0.0,0,534.0,1
1141,1141,-0.22325955345422266,-0.2,1.0,0.0,456.0,723.0,0.0,0,-39.0,1
1142,1142,0.8133567835592882,0.8,0.0,0.0,420.0,663.0,0.0,1,177.0,1
1143,1143,-0.42345690118760154,-0.4,0.0,1.0,275.0,858.0,1.0,0,1767.0,1
1144,1144,-0.1136744934122641,-0.1,1.0,0.0,460.0,713.0,0.0,0,1827.0,1
1145,1145,0.08702980311405362,0.1,0.0,0.0,320.0,731.0,0.0,1,-381.0,1
1146,1146,-0.2056447714003783,-0.2,1.0,0.0,292.0,969.0,0.0,0,-511.0,1
1147,1147,0.7817557188304088,0.8,1.0,1.0,427.0,577.0,1.0,1,1236.0,1
1148,1148,0.6684190297143467,0.7,1.0,1.0,303.0,594.0,1.0,1,1533.0,1
1149,1149,0.20259955417071207,0.2,0.0,0.0,303.0,680.0,0.0,1,657.0,1
1150,1150,-0.8106774389730244,-0.8,0.0,1.0,344.0,917.0,0.0,1,-321.0,0
1151,1151,0.8128370778020023,0.8,1.0,1.0,344.0,905.0,0.0,0,-409.0,0
1152,1152,-0.1459017678972484,-0.1,1.0,0.0,306.0,974.0,0.0,0,730.0,1
1153,1153,0.13461362468075244,0.1,1.0,1.0,464.0,893.0,0.0,0,1643.0,0
1154,1154,-0.15048992762444968,-0.2,1.0,0.0,312.0,705.0,0.0,0,1253.0,1
1155,1155,-0.6895815873789382,-0.7,0.0,1.0,413.0,691.0,1.0,0,1166.0,1
1156,1156,0.6682503552371272,0.7,1.0,1.0,254.0,764.0,0.0,0,-458.0,0
1157,1157,0.09607183292290855,0.1,0.0,0.0,425.0,810.0,0.0,1,1765.0,1
1158,1158,0.7135833137949904,0.7,1.0,1.0,405.0,659.0,1.0,1,616.0,1
1159,1159,-0.37821549625401085,-0.4,0.0,1.0,492.0,655.0,1.0,0,923.0,1
1160,1160,-0.5424310821172897,-0.5,1.0,0.0,368.0,719.0,0.0,0,843.0,1
1161,1161,0.07012099526170323,0.1,1.0,1.0,441.0,578.0,0.0,0,951.0,0
1162,1162,-0.6583825637496497,-0.7,0.0,1.0,369.0,552.0,1.0,0,339.0,1
1163,1163,0.4965819618745274,0.5,1.0,1.0,285.0,539.0,1.0,1,756.0,1
1164,1164,-0.42569576864427466,-0.4,0.0,1.0,337.0,996.0,1.0,0,1207.0,1
1165,1165,-0.884407243473491,-0.9,0.0,1.0,497.0,625.0,1.0,0,888.0,1
1166,1166,-0.32497270237053055,-0.3,1.0,0.0,360.0,839.0,0.0,0,711.0,1
1167,1167,-0.7105553874244864,-0.7,0.0,1.0,475.0,522.0,1.0,0,313.0,1
1168,1168,-0.6077734722028498,-0.6,1.0,0.0,284.0,531.0,0.0,0,885.0,1
1169,1169,0.5245438095858742,0.5,1.0,1.0,441.0,963.0,0.0,0,-414.0,0
1170,1170,-0.05063967681245529,-0.1,1.0,0.0,322.0,746.0,0.0,0,2.0,1
1171,1171,0.6794297259501559,0.7,1.0,1.0,375.0,770.0,1.0,1,1105.0,1
1172,1172,0.02638447880762329,0.0,1.0,1.0,331.0,877.0,0.0,0,1502.0,0
1173,1173,-0.7269004847456103,-0.7,1.0,0.0,422.0,985.0,0.0,0,623.0,1
1174,1174,0.43805661353949465,0.4,0.0,0.0,264.0,751.0,0.0,1,1345.0,1
1175,1175,-0.002313304566194385,-0.0,0.0,1.0,256.0,741.0,0.0,1,2003.0,0
1176,1176,-0.7935012617521215,-0.8,1.0,0.0,303.0,712.0,0.0,0,405.0,1
1177,1177,0.633057688447274,0.6,0.0,0.0,361.0,643.0,0.0,1,526.0,1
1178,1178,0.22667738735948995,0.2,0.0,0.0,423.0,805.0,0.0,1,782.0,1
1179,1179,-0.11200886190711423,-0.1,1.0,0.0,367.0,837.0,0.0,0,1586.0,1
1180,1180,-0.5232867574786425,-0.5,0.0,1.0,457.0,700.0,1.0,0,763.0,1
1181,1181,0.0886069811860799,0.1,1.0,1.0,287.0,739.0,1.0,1,1974.0,1
1182,1182,0.2701633533291242,0.3,1.0,1.0,458.0,635.0,1.0,1,1907.0,1
1183,1183,0.5114640956025872,0.5,0.0,0.0,426.0,518.0,0.0,1,1476.0,1
1184,1184,-0.28707225975207984,-0.3,0.0,1.0,300.0,508.0,0.0,1,72.0,0
1185,1185,0.2828398915449256,0.3,0.0,0.0,417.0,602.0,0.0,1,831.0,1
1186,1186,-0.05799866480017579,-0.1,1.0,0.0,464.0,766.0,0.0,0,1050.0,1
1187,1187,-0.25176103183199827,-0.3,1.0,0.0,297.0,805.0,0.0,0,1028.0,1
1188,1188,-0.3988889619515975,-0.4,1.0,0.0,390.0,808.0,0.0,0,-318.0,1
1189,1189,-0.5844698817169145,-0.6,1.0,0.0,497.0,564.0,0.0,0,179.0,1
1190,1190,0.0006926047361285326,0.0,0.0,0.0,257.0,860.0,0.0,1,1883.0,1
1191,1191,0.6286006812643242,0.6,0.0,0.0,299.0,847.0,0.0,1,374.0,1
1192,1192,-0.5084820223857025,-0.5,1.0,0.0,475.0,795.0,0.0,0,370.0,1
1193,1193,-0.8010336932015775,-0.8,1.0,0.0,493.0,732.0,0.0,0,-375.0,1
1194,1194,-0.7544633530538369,-0.8,0.0,1.0,443.0,631.0,1.0,0,576.0,1
1195,1195,-0.37083592656881403,-0.4,1.0,0.0,320.0,510.0,0.0,0,430.0,1
1196,1196,0.644806639122231,0.6,0.0,0.0,438.0,902.0,0.0,1,20.0,1
1197,1197,-0.8082950100682885,-0.8,0.0,1.0,375.0,840.0,1.0,0,545.0,1
1198,1198,-0.08916842547483483,-0.1,1.0,0.0,349.0,612.0,0.0,0,719.0,1
1199,1199,0.009241694354522823,0.0,1.0,1.0,353.0,594.0,0.0,0,783.0,0
1200,1200,-0.5045972041220326,-0.5,0.0,1.0,250.0,538.0,1.0,0,912.0,1
1201,1201,0.7829368773486866,0.8,0.0,0.0,298.0,504.0,0.0,1,498.0,1
1202,1202,-0.5517181255156426,-0.6,0.0,1.0,375.0,799.0,1.0,0,1556.0,1
1203,1203,-0.8737134067612712,-0.9,1.0,0.0,389.0,939.0,0.0,0,142.0,1
1204,1204,0.383242748581753,0.4,0.0,0.0,401.0,752.0,0.0,1,277.0,1
1205,1205,-0.728269767778009,-0.7,0.0,1.0,398.0,670.0,1.0,0,632.0,1
1206,1206,0.15255446982664,0.2,1.0,1.0,251.0,890.0,0.0,0,1859.0,0
1207,1207,-0.8679017521840239,-0.9,0.0,1.0,494.0,628.0,1.0,0,478.0,1
1208,1208,-0.8464427509375632,-0.8,1.0,0.0,258.0,744.0,0.0,0,-42.0,1
1209,1209,0.5460041654674662,0.5,0.0,0.0,318.0,627.0,0.0,1,5.0,1
1210,1210,-0.7610230713651682,-0.8,1.0,0.0,429.0,672.0,0.0,0,399.0,1
1211,1211,-0.4203283821217185,-0.4,0.0,1.0,260.0,598.0,0.0,1,-38.0,0
1212,1212,-0.8034464465370151,-0.8,1.0,0.0,471.0,923.0,0.0,0,296.0,1
1213,1213,0.6781323768136235,0.7,0.0,0.0,257.0,547.0,0.0,1,266.0,1
1214,1214,0.21526241604958518,0.2,1.0,1.0,386.0,658.0,1.0,1,1526.0,1
1215,1215,-0.5509880431913676,-0.6,0.0,1.0,415.0,754.0,1.0,0,301.0,1
1216,1216,-0.49934793334308336,-0.5,1.0,0.0,473.0,825.0,0.0,0,302.0,1
1217,1217,0.5284998994117903,0.5,1.0,1.0,405.0,620.0,1.0,1,535.0,1
1218,1218,-0.5288936776797544,-0.5,1.0,0.0,431.0,866.0,0.0,0,293.0,1
1219,1219,-0.4240462024597798,-0.4,1.0,0.0,272.0,657.0,0.0,0,861.0,1
1220,1220,-0.7965085287707059,-0.8,1.0,0.0,285.0,839.0,0.0,0,126.0,1
1221,1221,0.6902405920169085,0.7,0.0,0.0,283.0,688.0,0.0,1,149.0,1
1222,1222,-0.396531599015862,-0.4,0.0,1.0,299.0,691.0,1.0,0,2010.0,1
1223,1223,-0.5023729725788852,-0.5,1.0,0.0,383.0,999.0,0.0,0,1128.0,1
1224,1224,-0.526343987706357,-0.5,0.0,1.0,361.0,999.0,1.0,0,1640.0,1
1225,1225,-0.733332481080904,-0.7,1.0,0.0,278.0,655.0,0.0,0,457.0,1
1226,1226,-0.13590087636317905,-0.1,0.0,1.0,482.0,807.0,1.0,0,1711.0,1
1227,1227,-0.6822122449423811,-0.7,1.0,0.0,450.0,925.0,0.0,0,-375.0,1
1228,1228,0.625951976140862,0.6,1.0,1.0,399.0,582.0,1.0,1,639.0,1
1229,1229,-0.09512884092106444,-0.1,1.0,0.0,434.0,577.0,0.0,0,1989.0,1
1230,1230,0.848834460142114,0.8,0.0,0.0,367.0,909.0,0.0,1,224.0,1
1231,1231,-0.5915418650577906,-0.6,0.0,1.0,396.0,574.0,1.0,0,800.0,1
1232,1232,0.28572571597609075,0.3,0.0,0.0,326.0,743.0,0.0,1,801.0,1
1233,1233,0.7832227311342067,0.8,0.0,0.0,272.0,953.0,1.0,0,-515.0,0
1234,1234,-0.19699130349474114,-0.2,1.0,0.0,480.0,798.0,0.0,0,782.0,1
1235,1235,-0.12221775360291154,-0.1,1.0,0.0,292.0,740.0,0.0,0,1868.0,1
1236,1236,-0.8624120063722869,-0.9,0.0,1.0,318.0,691.0,1.0,0,531.0,1
1237,1237,0.398891807895171,0.4,1.0,1.0,408.0,566.0,1.0,1,1396.0,1
1238,1238,-0.49064916226550676,-0.5,1.0,0.0,329.0,910.0,0.0,0,191.0,1
1239,1239,0.1812636333886145,0.2,0.0,0.0,412.0,712.0,0.0,1,1876.0,1
1240,1240,-0.8987859405579893,-0.9,0.0,1.0,285.0,891.0,1.0,0,744.0,1
1241,1241,-0.5915199522171863,-0.6,1.0,0.0,479.0,642.0,0.0,0,159.0,1
1242,1242,0.11414492952964406,0.1,0.0,0.0,282.0,901.0,0.0,1,1817.0,1
1243,1243,-0.6626594890819623,-0.7,1.0,0.0,473.0,689.0,0.0,0,218.0,1
1244,1244,-0.7329972250863186,-0.7,0.0,1.0,315.0,994.0,1.0,0,1021.0,1
1245,1245,0.054636110919088154,0.1,1.0,1.0,315.0,635.0,1.0,1,1310.0,1
1246,1246,0.8001604467111402,0.8,1.0,1.0,424.0,768.0,1.0,1,448.0,1
1247,1247,0.40885372993880387,0.4,1.0,1.0,313.0,575.0,1.0,1,2112.0,1
1248,1248,0.7577666788713756,0.8,0.0,0.0,337.0,803.0,0.0,1,240.0,1
1249,1249,-0.45597048238045573,-0.5,0.0,1.0,429.0,717.0,0.0,1,-26.0,0
1250,1250,-0.4741050686298706,-0.5,0.0,1.0,318.0,781.0,1.0,0,781.0,1
1251,1251,0.4766624838285106,0.5,0.0,0.0,486.0,978.0,0.0,1,186.0,1
1252,1252,0.5953609837601069,0.6,0.0,0.0,446.0,765.0,0.0,1,589.0,1
1253,1253,0.41107837084059085,0.4,1.0,1.0,257.0,874.0,1.0,1,1749.0,1
1254,1254,-0.5837814128514514,-0.6,0.0,1.0,489.0,621.0,1.0,0,820.0,1
1255,1255,-0.2559474252299424,-0.3,1.0,0.0,354.0,553.0,0.0,0,2093.0,1
1256,1256,0.7065036180165164,0.7,0.0,0.0,319.0,754.0,0.0,1,277.0,1
1257,1257,-0.3151517176512849,-0.3,1.0,0.0,481.0,760.0,0.0,0,-201.0,1
1258,1258,0.584687733819485,0.6,0.0,0.0,475.0,877.0,0.0,1,168.0,1
1259,1259,-0.4752151254480265,-0.5,0.0,1.0,286.0,829.0,1.0,0,605.0,1
1260,1260,-0.8932159389993612,-0.9,0.0,1.0,360.0,855.0,1.0,0,555.0,1
1261,1261,0.5239740566925696,0.5,1.0,1.0,310.0,773.0,1.0,1,437.0,1
1262,1262,-0.8895717845744883,-0.9,0.0,1.0,294.0,694.0,1.0,0,522.0,1
1263,1263,-0.7074705323339179,-0.7,0.0,1.0,486.0,640.0,1.0,0,634.0,1
1264,1264,0.7382158570727816,0.7,1.0,1.0,390.0,522.0,0.0,0,-192.0,0
1265,1265,0.7112633900308262,0.7,0.0,0.0,477.0,665.0,0.0,1,228.0,1
1266,1266,0.6910549562560803,0.7,1.0,1.0,252.0,582.0,1.0,1,676.0,1
1267,1267,-0.01972496934485668,-0.0,1.0,0.0,455.0,729.0,0.0,0,-54.0,1
1268,1268,0.6486744580379334,0.6,0.0,0.0,452.0,589.0,0.0,1,549.0,1
1269,1269,0.0672798512123185,0.1,1.0,1.0,426.0,576.0,1.0,1,1058.0,1
1270,1270,-0.7309561419288855,-0.7,0.0,1.0,390.0,749.0,1.0,0,641.0,1
1271,1271,0.7978412869778956,0.8,1.0,1.0,267.0,522.0,1.0,1,521.0,1
1272,1272,0.13875494172262315,0.1,0.0,0.0,356.0,723.0,0.0,1,1921.0,1
1273,1273,-0.25197331314680815,-0.3,0.0,1.0,329.0,710.0,1.0,0,1051.0,1
1274,1274,-0.4470345099661467,-0.4,1.0,0.0,460.0,759.0,0.0,0,1.0,1
1275,1275,-0.5161593428066553,-0.5,1.0,0.0,398.0,734.0,0.0,0,118.0,1
1276,1276,0.7917431331317689,0.8,1.0,1.0,419.0,651.0,1.0,1,480.0,1
1277,1277,0.07758455504177919,0.1,0.0,0.0,427.0,688.0,0.0,1,1335.0,1
1278,1278,0.05964471645051894,0.1,0.0,0.0,418.0,853.0,1.0,0,1729.0,0
1279,1279,-0.8286197177679938,-0.8,1.0,0.0,258.0,569.0,0.0,0,313.0,1
1280,1280,0.6796331929858149,0.7,0.0,0.0,317.0,841.0,0.0,1,172.0,1
1281,1281,-0.32439292299062017,-0.3,0.0,1.0,381.0,829.0,0.0,1,140.0,0
1282,1282,0.6483563676658916,0.6,1.0,1.0,387.0,894.0,1.0,1,1219.0,1
1283,1283,-0.5600726730677208,-0.6,0.0,1.0,321.0,863.0,1.0,0,726.0,1
1284,1284,0.8373273752950584,0.8,1.0,1.0,274.0,744.0,1.0,1,1082.0,1
1285,1285,-0.3493725076973644,-0.3,1.0,0.0,441.0,867.0,0.0,0,472.0,1
1286,1286,0.3516779080881355,0.4,1.0,1.0,486.0,691.0,1.0,1,1043.0,1
1287,1287,-0.7940752236820336,-0.8,1.0,0.0,448.0,755.0,0.0,0,217.0,1
1288,1288,-0.20672163453928483,-0.2,1.0,0.0,439.0,794.0,0.0,0,1767.0,1
1289,1289,0.1999021462134617,0.2,0.0,0.0,439.0,509.0,0.0,1,502.0,1
1290,1290,0.22582793967673254,0.2,1.0,1.0,298.0,809.0,1.0,1,1893.0,1
1291,1291,0.45739131001496014,0.5,0.0,0.0,436.0,961.0,0.0,1,383.0,1
1292,1292,0.7181588404517546,0.7,0.0,0.0,486.0,838.0,0.0,1,-414.0,1
1293,1293,-0.53890729936297,-0.5,1.0,0.0,390.0,705.0,0.0,0,665.0,1
1294,1294,0.09777750496465099,0.1,0.0,0.0,499.0,991.0,0.0,1,1510.0,1
1295,1295,0.031731800350400574,0.0,1.0,1.0,373.0,630.0,0.0,0,87.0,0
1296,1296,-0.6135318131001861,-0.6,0.0,1.0,499.0,628.0,1.0,0,543.0,1
1297,1297,-0.18640819913100504,-0.2,0.0,1.0,422.0,620.0,0.0,1,1368.0,0
1298,1298,0.005240433968512037,0.0,1.0,1.0,287.0,646.0,0.0,0,417.0,0
1299,1299,0.6367413465957777,0.6,1.0,1.0,498.0,622.0,1.0,1,600.0,1
1300,1300,-0.6267708863264099,-0.6,0.0,1.0,427.0,589.0,1.0,0,1244.0,1
1301,1301,-0.2270894352617957,-0.2,0.0,1.0,286.0,572.0,1.0,0,2142.0,1
1302,1302,-0.5112622199759684,-0.5,1.0,0.0,310.0,562.0,0.0,0,418.0,1
1303,1303,0.2278391540613448,0.2,1.0,1.0,330.0,545.0,1.0,1,2125.0,1
1304,1304,0.4367924713890773,0.4,0.0,0.0,259.0,898.0,0.0,1,413.0,1
1305,1305,0.5886894075047656,0.6,1.0,1.0,384.0,667.0,1.0,1,439.0,1
1306,1306,-0.7243730521952205,-0.7,1.0,0.0,327.0,876.0,0.0,0,287.0,1
1307,1307,-0.7221247012201284,-0.7,1.0,0.0,251.0,599.0,0.0,0,570.0,1
1308,1308,-0.07971596806773806,-0.1,1.0,0.0,315.0,628.0,0.0,0,1117.0,1
1309,1309,0.8678131641932233,0.9,0.0,0.0,388.0,587.0,0.0,1,185.0,1
1310,1310,0.03844658972992132,0.0,1.0,1.0,292.0,736.0,0.0,0,822.0,0
1311,1311,0.6673589106359265,0.7,0.0,0.0,340.0,998.0,0.0,1,832.0,1
1312,1312,-0.7828486838735759,-0.8,1.0,0.0,284.0,769.0,0.0,0,217.0,1
1313,1313,0.5663023566089184,0.6,0.0,0.0,382.0,953.0,0.0,1,-505.0,1
1314,1314,-0.8602961549465865,-0.9,0.0,1.0,385.0,828.0,1.0,0,277.0,1
1315,1315,-0.06272701034811523,-0.1,1.0,0.0,316.0,652.0,0.0,0,182.0,1
1316,1316,0.2651664609929606,0.3,1.0,1.0,386.0,834.0,1.0,1,1780.0,1
1317,1317,0.7026205254079702,0.7,1.0,1.0,272.0,827.0,1.0,1,1161.0,1
1318,1318,-0.5965576827230482,-0.6,1.0,0.0,301.0,580.0,0.0,0,259.0,1
1319,1319,0.08245761672935636,0.1,1.0,1.0,303.0,684.0,1.0,1,2013.0,1
1320,1320,-0.32365636770174566,-0.3,0.0,1.0,434.0,623.0,1.0,0,1943.0,1
1321,1321,-0.3947876716695744,-0.4,1.0,0.0,414.0,918.0,0.0,0,388.0,1
1322,1322,0.05620353406606948,0.1,0.0,0.0,447.0,647.0,0.0,1,1906.0,1
1323,1323,-0.8514491731216897,-0.9,1.0,0.0,397.0,665.0,0.0,0,328.0,1
1324,1324,0.25024227873966043,0.3,1.0,1.0,494.0,672.0,1.0,1,1834.0,1
1325,1325,-0.6890246642698067,-0.7,1.0,0.0,296.0,566.0,0.0,0,168.0,1
1326,1326,0.878087270067789,0.9,1.0,1.0,478.0,965.0,1.0,1,427.0,1
1327,1327,-0.6123341605494821,-0.6,1.0,0.0,283.0,851.0,0.0,0,856.0,1
1328,1328,0.731128728304386,0.7,0.0,0.0,369.0,954.0,0.0,1,657.0,1
1329,1329,-0.36045738436292485,-0.4,0.0,1.0,315.0,775.0,1.0,0,1820.0,1
1330,1330,-0.2781014898420149,-0.3,0.0,1.0,366.0,882.0,1.0,0,1752.0,1
1331,1331,-0.10487287374765597,-0.1,1.0,0.0,350.0,966.0,0.0,0,1684.0,1
1332,1332,-0.41884082383863125,-0.4,0.0,1.0,424.0,794.0,1.0,0,752.0,1
1333,1333,-0.607651317313656,-0.6,1.0,0.0,411.0,757.0,0.0,0,252.0,1
1334,1334,0.7498584294097804,0.7,0.0,0.0,261.0,826.0,0.0,1,563.0,1
1335,1335,-0.33341334970772596,-0.3,0.0,1.0,278.0,837.0,1.0,0,1885.0,1
1336,1336,0.417286285232939,0.4,0.0,0.0,478.0,865.0,0.0,1,637.0,1
1337,1337,0.05545258571692191,0.1,0.0,0.0,343.0,904.0,0.0,1,833.0,1
1338,1338,0.7870267888980053,0.8,0.0,0.0,325.0,618.0,0.0,1,427.0,1
1339,1339,0.013199915051075428,0.0,0.0,0.0,476.0,859.0,0.0,1,1665.0,1
1340,1340,0.16729912797093094,0.2,1.0,1.0,431.0,738.0,1.0,1,1831.0,1
1341,1341,0.16614105702197735,0.2,1.0,1.0,499.0,510.0,0.0,0,1991.0,0
1342,1342,0.5363261316269393,0.5,0.0,0.0,402.0,604.0,0.0,1,344.0,1
1343,1343,-0.33950622690644794,-0.3,1.0,0.0,342.0,752.0,0.0,0,1496.0,1
1344,1344,-0.07340149435908228,-0.1,1.0,0.0,292.0,811.0,0.0,0,-23.0,1
1345,1345,0.3477962276041445,0.3,1.0,1.0,358.0,594.0,1.0,1,1228.0,1
1346,1346,-0.31533464164761693,-0.3,0.0,1.0,395.0,832.0,1.0,0,1653.0,1
1347,1347,0.6117897675064975,0.6,0.0,0.0,385.0,723.0,0.0,1,472.0,1
1348,1348,0.04996999448451234,0.0,1.0,1.0,390.0,844.0,0.0,0,466.0,0
1349,1349,0.26315628162845683,0.3,0.0,0.0,343.0,979.0,0.0,1,238.0,1
1350,1350,0.6455435562750208,0.6,0.0,0.0,462.0,851.0,0.0,1,287.0,1
1351,1351,0.1439737769677193,0.1,1.0,1.0,373.0,748.0,1.0,1,1549.0,1
1352,1352,0.8712320159859254,0.9,0.0,0.0,378.0,709.0,0.0,1,313.0,1
1353,1353,-0.49906959819478003,-0.5,1.0,0.0,415.0,936.0,0.0,0,-571.0,1
1354,1354,-0.18702349343142555,-0.2,0.0,1.0,312.0,594.0,1.0,0,2094.0,1
1355,1355,-0.2946655759566533,-0.3,0.0,1.0,428.0,801.0,1.0,0,661.0,1
1356,1356,-0.37311113736043655,-0.4,1.0,0.0,258.0,744.0,0.0,0,428.0,1
1357,1357,-0.6201408273778619,-0.6,0.0,1.0,468.0,862.0,0.0,1,-310.0,0
1358,1358,0.4053641681138248,0.4,1.0,1.0,466.0,877.0,1.0,1,1647.0,1
1359,1359,0.3994028229353722,0.4,0.0,0.0,447.0,935.0,0.0,1,-292.0,1
1360,1360,-0.28838964287736857,-0.3,0.0,1.0,401.0,732.0,1.0,0,1867.0,1
1361,1361,-0.8332368139989409,-0.8,0.0,1.0,332.0,568.0,1.0,0,330.0,1
1362,1362,0.6072268887763544,0.6,0.0,0.0,379.0,573.0,0.0,1,258.0,1
1363,1363,0.6315374049725223,0.6,1.0,1.0,461.0,592.0,1.0,1,907.0,1
1364,1364,0.4776007465626134,0.5,0.0,0.0,437.0,874.0,0.0,1,-81.0,1
1365,1365,-0.2600372748450904,-0.3,0.0,1.0,340.0,975.0,1.0,0,325.0,1
1366,1366,-0.5881923911981055,-0.6,1.0,0.0,436.0,798.0,0.0,0,-194.0,1
1367,1367,0.4030210133820492,0.4,0.0,0.0,339.0,796.0,0.0,1,95.0,1
1368,1368,-0.7902156546758158,-0.8,0.0,1.0,338.0,896.0,1.0,0,236.0,1
1369,1369,0.2957983304912123,0.3,1.0,1.0,284.0,916.0,0.0,0,-70.0,0
1370,1370,0.5466776415574465,0.5,1.0,1.0,416.0,947.0,1.0,1,897.0,1
1371,1371,0.42588583675384883,0.4,0.0,0.0,436.0,782.0,0.0,1,162.0,1
1372,1372,-0.2268209064963671,-0.2,1.0,0.0,456.0,766.0,1.0,1,1778.0,0
1373,1373,0.7336402170005122,0.7,0.0,0.0,263.0,607.0,0.0,1,370.0,1
1374,1374,0.8340714871693214,0.8,1.0,1.0,357.0,603.0,1.0,1,710.0,1
1375,1375,-0.7121133820630767,-0.7,0.0,1.0,331.0,829.0,1.0,0,330.0,1
1376,1376,0.24089734573439892,0.2,0.0,0.0,456.0,597.0,0.0,1,827.0,1
1377,1377,-0.6122868776482595,-0.6,1.0,0.0,473.0,945.0,0.0,0,72.0,1
1378,1378,0.4232049734674853,0.4,0.0,0.0,293.0,706.0,0.0,1,531.0,1
1379,1379,-0.8166656141319454,-0.8,1.0,0.0,252.0,792.0,0.0,0,646.0,1
1380,1380,-0.3470737673902925,-0.3,0.0,1.0,368.0,604.0,1.0,0,2028.0,1
1381,1381,-0.7848789825992576,-0.8,0.0,1.0,499.0,683.0,1.0,0,658.0,1
1382,1382,-0.6723186458309324,-0.7,1.0,0.0,469.0,535.0,0.0,0,186.0,1
1383,1383,0.17390842753828706,0.2,1.0,1.0,398.0,891.0,1.0,1,1711.0,1
1384,1384,-0.8567892962972177,-0.9,1.0,0.0,367.0,566.0,0.0,0,437.0,1
1385,1385,0.38119916656248265,0.4,1.0,1.0,454.0,522.0,1.0,1,1104.0,1
1386,1386,0.8177354468357133,0.8,1.0,1.0,470.0,821.0,1.0,1,769.0,1
1387,1387,0.3303186802005983,0.3,1.0,1.0,441.0,807.0,1.0,1,1752.0,1
1388,1388,-0.11451879976275048,-0.1,0.0,1.0,328.0,970.0,0.0,1,1702.0,0
1389,1389,0.39400644958862074,0.4,1.0,1.0,328.0,580.0,1.0,1,442.0,1
1390,1390,0.33206954333528504,0.3,1.0,1.0,254.0,717.0,1.0,1,1899.0,1
1391,1391,0.10739688860635332,0.1,0.0,0.0,361.0,745.0,0.0,1,-246.0,1
1392,1392,0.11378532349716519,0.1,1.0,1.0,470.0,610.0,0.0,0,1920.0,0
1393,1393,0.7112257332427411,0.7,0.0,0.0,269.0,731.0,0.0,1,150.0,1
1394,1394,-0.024478559715105597,-0.0,0.0,1.0,473.0,786.0,0.0,1,61.0,0
1395,1395,-0.836402597364142,-0.8,0.0,1.0,286.0,755.0,1.0,0,569.0,1
1396,1396,0.02753398753565639,0.0,1.0,1.0,431.0,745.0,0.0,0,1824.0,0
1397,1397,0.312332252893493,0.3,0.0,0.0,333.0,894.0,0.0,1,103.0,1
1398,1398,-0.25234075575995585,-0.3,1.0,0.0,270.0,684.0,0.0,0,496.0,1
1399,1399,0.6493821908025624,0.6,0.0,0.0,283.0,972.0,0.0,1,115.0,1
1400,1400,-0.2577529297853862,-0.3,1.0,0.0,358.0,933.0,0.0,0,819.0,1
1401,1401,0.22860087362398607,0.2,1.0,1.0,349.0,704.0,1.0,1,1947.0,1
1402,1402,-0.3589140884234592,-0.4,0.0,1.0,329.0,981.0,0.0,1,1690.0,0
1403,1403,0.521219874180369,0.5,0.0,0.0,299.0,925.0,0.0,1,456.0,1
1404,1404,0.04761085504136042,0.0,1.0,1.0,474.0,589.0,0.0,0,1937.0,0
1405,1405,-0.22648633463705625,-0.2,0.0,1.0,497.0,762.0,1.0,0,1741.0,1
1406,1406,0.07201727110381162,0.1,1.0,1.0,431.0,873.0,0.0,0,1696.0,0
1407,1407,0.19782665070845862,0.2,0.0,0.0,439.0,891.0,0.0,1,1670.0,1
1408,1408,0.7417624328866276,0.7,1.0,1.0,257.0,541.0,1.0,1,712.0,1
1409,1409,0.36650832184107796,0.4,0.0,0.0,323.0,568.0,0.0,1,1139.0,1
1410,1410,0.05080056752259099,0.1,1.0,1.0,268.0,955.0,1.0,1,1777.0,1
1411,1411,0.26144352017354355,0.3,1.0,1.0,431.0,882.0,1.0,1,1687.0,1
1412,1412,-0.24055808941110568,-0.2,1.0,0.0,258.0,583.0,0.0,0,1019.0,1
1413,1413,0.2359158396564175,0.2,1.0,1.0,348.0,516.0,1.0,1,606.0,1
1414,1414,-0.10987001526963414,-0.1,1.0,0.0,312.0,653.0,0.0,0,1255.0,1
1415,1415,0.8434390981650658,0.8,1.0,1.0,480.0,545.0,1.0,1,395.0,1
1416,1416,0.6401308806398834,0.6,0.0,0.0,407.0,622.0,0.0,1,1.0,1
1417,1417,-0.10886453230819193,-0.1,1.0,0.0,365.0,623.0,1.0,1,2012.0,0
1418,1418,0.7736082411549564,0.8,1.0,1.0,349.0,971.0,1.0,1,520.0,1
1419,1419,-0.32738763057380305,-0.3,0.0,1.0,284.0,830.0,1.0,0,476.0,1
1420,1420,0.3929543346732588,0.4,0.0,0.0,380.0,919.0,0.0,1,1391.0,1
1421,1421,-0.20630526524937365,-0.2,0.0,1.0,292.0,512.0,1.0,0,2196.0,1
1422,1422,-0.040174621590519655,-0.0,0.0,1.0,490.0,648.0,0.0,1,1522.0,0
1423,1423,-0.3761008246629093,-0.4,1.0,0.0,427.0,681.0,0.0,0,-18.0,1
1424,1424,0.5115975748522196,0.5,0.0,0.0,442.0,922.0,0.0,1,246.0,1
1425,1425,0.05495947872178353,0.1,0.0,0.0,275.0,714.0,0.0,1,2011.0,1
1426,1426,-0.8616858362955306,-0.9,0.0,1.0,287.0,701.0,1.0,0,202.0,1
1427,1427,-0.4844695078047812,-0.5,0.0,1.0,316.0,855.0,1.0,0,869.0,1
1428,1428,0.7980622220085677,0.8,1.0,1.0,286.0,802.0,1.0,1,282.0,1
1429,1429,0.719971879299825,0.7,0.0,0.0,383.0,890.0,0.0,1,647.0,1
1430,1430,-0.2081091543846637,-0.2,0.0,1.0,324.0,584.0,0.0,1,2092.0,0
1431,1431,-0.5094312527031619,-0.5,0.0,1.0,455.0,759.0,1.0,0,1786.0,1
1432,1432,-0.8479524596590564,-0.8,0.0,1.0,360.0,611.0,1.0,0,939.0,1
1433,1433,-0.7369478589616734,-0.7,1.0,0.0,459.0,876.0,1.0,1,-165.0,0
1434,1434,0.2033641529270066,0.2,1.0,1.0,419.0,669.0,1.0,1,792.0,1
1435,1435,0.2302235460982004,0.2,1.0,1.0,311.0,762.0,1.0,1,1927.0,1
1436,1436,0.017695474828038682,0.0,1.0,1.0,264.0,665.0,0.0,0,941.0,0
1437,1437,-0.8917666485405167,-0.9,1.0,0.0,314.0,611.0,0.0,0,345.0,1
1438,1438,0.4791096643990359,0.5,0.0,0.0,369.0,751.0,0.0,1,910.0,1
1439,1439,-0.44791897798178754,-0.4,0.0,1.0,342.0,668.0,1.0,0,1270.0,1
1440,1440,-0.19258834670142821,-0.2,1.0,0.0,385.0,627.0,1.0,1,1988.0,0
1441,1441,0.5575440178329131,0.6,0.0,0.0,321.0,999.0,0.0,1,340.0,1
1442,1442,0.40585356282782026,0.4,0.0,0.0,315.0,656.0,1.0,0,-61.0,0
1443,1443,0.8447626587039782,0.8,0.0,0.0,497.0,866.0,0.0,1,517.0,1
1444,1444,-0.6876859728670841,-0.7,0.0,1.0,459.0,972.0,1.0,0,499.0,1
1445,1445,-0.759034719308572,-0.8,1.0,0.0,491.0,623.0,0.0,0,236.0,1
1446,1446,-0.7335349340245705,-0.7,1.0,0.0,376.0,953.0,0.0,0,-99.0,1
1447,1447,0.6573175714528244,0.7,1.0,1.0,304.0,567.0,1.0,1,1219.0,1
1448,1448,-0.7758483817104589,-0.8,1.0,0.0,422.0,788.0,0.0,0,550.0,1
1449,1449,-0.5331597212593249,-0.5,1.0,0.0,437.0,988.0,0.0,0,255.0,1
1450,1450,-0.46187287787213066,-0.5,0.0,1.0,301.0,741.0,1.0,0,968.0,1
1451,1451,0.19716254920862897,0.2,0.0,0.0,474.0,702.0,0.0,1,1214.0,1
1452,1452,-0.24771850090635672,-0.2,1.0,0.0,412.0,639.0,0.0,0,1349.0,1
1453,1453,0.8473663197266094,0.8,1.0,1.0,479.0,988.0,0.0,0,-137.0,0
1454,1454,-0.09339434878962494,-0.1,0.0,1.0,407.0,819.0,0.0,1,1774.0,0
1455,1455,-0.4965786837053737,-0.5,0.0,1.0,393.0,851.0,1.0,0,816.0,1
1456,1456,0.7730778902063419,0.8,0.0,0.0,336.0,963.0,0.0,1,271.0,1
1457,1457,0.4919890563774908,0.5,0.0,0.0,433.0,979.0,0.0,1,308.0,1
1458,1458,0.48465751409169033,0.5,1.0,1.0,261.0,791.0,1.0,1,568.0,1
1459,1459,0.5147135519981995,0.5,0.0,0.0,298.0,765.0,0.0,1,1517.0,1
1460,1460,0.8311467086790308,0.8,1.0,1.0,281.0,679.0,1.0,1,380.0,1
1461,1461,-0.5108187115832763,-0.5,0.0,1.0,447.0,524.0,1.0,0,589.0,1
1462,1462,0.1962016782330912,0.2,1.0,1.0,323.0,862.0,1.0,1,1815.0,1
1463,1463,-0.41465890397316263,-0.4,1.0,0.0,449.0,745.0,0.0,0,826.0,1
1464,1464,0.3414155625128651,0.3,1.0,1.0,288.0,815.0,1.0,1,1897.0,1
1465,1465,-0.8683307763380255,-0.9,0.0,1.0,409.0,762.0,1.0,0,1069.0,1
1466,1466,0.29277696892629435,0.3,1.0,1.0,489.0,851.0,1.0,1,1660.0,1
1467,1467,-0.3693431308679207,-0.4,1.0,0.0,261.0,829.0,0.0,0,1070.0,1
1468,1468,0.3611007455779546,0.4,1.0,1.0,422.0,626.0,1.0,1,312.0,1
1469,1469,-0.2583505528792357,-0.3,1.0,0.0,414.0,660.0,0.0,0,986.0,1
1470,1470,-0.7877243851262795,-0.8,1.0,0.0,403.0,875.0,0.0,0,282.0,1
1471,1471,0.5485178955000541,0.5,0.0,0.0,336.0,522.0,0.0,1,392.0,1
1472,1472,0.42887329866240653,0.4,1.0,1.0,295.0,874.0,1.0,1,-379.0,1
1473,1473,0.7807371069089931,0.8,0.0,0.0,279.0,877.0,0.0,1,584.0,1
1474,1474,-0.054143189615105,-0.1,0.0,1.0,385.0,822.0,0.0,1,1793.0,0
1475,1475,0.09079415102397381,0.1,1.0,1.0,409.0,653.0,0.0,0,1518.0,0
1476,1476,-0.5845810276600183,-0.6,1.0,0.0,434.0,541.0,0.0,0,185.0,1
1477,1477,0.1297435402909991,0.1,1.0,1.0,497.0,827.0,0.0,0,1676.0,0
1478,1478,0.04113302561940424,0.0,0.0,0.0,455.0,880.0,0.0,1,-345.0,1
1479,1479,0.8662087321805084,0.9,0.0,0.0,317.0,635.0,0.0,1,188.0,1
1480,1480,-0.3271026183993899,-0.3,0.0,1.0,327.0,855.0,1.0,0,938.0,1
1481,1481,-0.06962663701616334,-0.1,1.0,0.0,467.0,857.0,0.0,0,1556.0,1
1482,1482,-0.09485595393502633,-0.1,0.0,1.0,429.0,927.0,1.0,0,1644.0,1
1483,1483,-0.028634010122455256,-0.0,0.0,1.0,330.0,738.0,0.0,1,282.0,0
