,trial,coherence,coherence_bin,green_side,correct_side,target_onset,checker_onset,decision,green_decision,decision_time,correct_decision
0,0,0.8727955819477496,0.9,1.0,1.0,270.0,601.0,1.0,1,319.0,1
1,1,-0.2142376096721078,-0.2,1.0,0.0,289.0,523.0,0.0,0,998.0,1
2,2,0.15630009433484682,0.2,1.0,1.0,485.0,702.0,1.0,1,803.0,1
3,3,0.3343404753095146,0.3,1.0,1.0,436.0,517.0,1.0,1,167.0,1
4,4,-0.8019715171348848,-0.8,1.0,0.0,305.0,619.0,0.0,0,226.0,1
5,5,0.3152861910260828,0.3,1.0,1.0,493.0,869.0,1.0,1,238.0,1
6,6,-0.6409917683546595,-0.6,1.0,0.0,312.0,572.0,0.0,0,316.0,1
7,7,0.3180714380541537,0.3,1.0,1.0,486.0,580.0,1.0,1,694.0,1
8,8,0.7373851733936571,0.7,0.0,0.0,440.0,739.0,0.0,1,601.0,1
9,9,-0.8857737056321539,-0.9,1.0,0.0,306.0,882.0,0.0,0,312.0,1
10,10,0.8699222919210453,0.9,0.0,0.0,372.0,792.0,0.0,1,176.0,1
11,11,-0.11312817338140913,-0.1,0.0,1.0,366.0,640.0,1.0,0,424.0,1
12,12,-0.6657263198390181,-0.7,0.0,1.0,426.0,691.0,1.0,0,223.0,1
13,13,-0.07850953915989367,-0.1,1.0,0.0,443.0,799.0,1.0,1,1758.0,0
14,14,0.014691052195026644,0.0,0.0,0.0,334.0,668.0,1.0,0,1488.0,0
15,15,-0.4750821161347435,-0.5,1.0,0.0,417.0,981.0,0.0,0,622.0,1
16,16,0.4594629583044615,0.5,0.0,0.0,421.0,905.0,0.0,1,254.0,1
17,17,0.5138926059932049,0.5,0.0,0.0,481.0,649.0,0.0,1,310.0,1
18,18,0.4001087054372999,0.4,1.0,1.0,394.0,604.0,1.0,1,492.0,1
19,19,0.15005864750839992,0.2,0.0,0.0,296.0,659.0,0.0,1,655.0,1
20,20,-0.6746296459279111,-0.7,1.0,0.0,279.0,786.0,0.0,0,275.0,1
21,21,-0.619893857718754,-0.6,0.0,1.0,412.0,784.0,1.0,0,254.0,1
22,22,0.13672104315478883,0.1,1.0,1.0,318.0,938.0,1.0,1,1744.0,1
23,23,-0.29613543471492243,-0.3,0.0,1.0,266.0,898.0,1.0,0,456.0,1
24,24,0.81369507418295,0.8,1.0,1.0,485.0,761.0,1.0,1,154.0,1
25,25,-0.520225499966765,-0.5,1.0,0.0,283.0,643.0,0.0,0,444.0,1
26,26,0.4459411117236306,0.4,1.0,1.0,308.0,611.0,1.0,1,191.0,1
27,27,-0.5060042496313633,-0.5,0.0,1.0,299.0,823.0,1.0,0,108.0,1
28,28,0.3077283572140356,0.3,0.0,0.0,258.0,513.0,0.0,1,669.0,1
29,29,-0.8758124080297545,-0.9,0.0,1.0,341.0,822.0,1.0,0,227.0,1
30,30,0.09854587838038653,0.1,1.0,1.0,258.0,824.0,1.0,1,1888.0,1
31,31,-0.14751974621521058,-0.1,0.0,1.0,260.0,841.0,1.0,0,1699.0,1
32,32,-0.09746760567231916,-0.1,0.0,1.0,285.0,806.0,1.0,0,679.0,1
33,33,-0.15716616588059829,-0.2,0.0,1.0,473.0,952.0,1.0,0,605.0,1
34,34,-0.8869396256446079,-0.9,0.0,1.0,472.0,684.0,1.0,0,174.0,1
35,35,-0.5369306626142031,-0.5,0.0,1.0,277.0,835.0,1.0,0,298.0,1
36,36,0.6754755375234044,0.7,1.0,1.0,383.0,744.0,1.0,1,213.0,1
37,37,0.4671238876464642,0.5,1.0,1.0,358.0,796.0,1.0,1,246.0,1
38,38,-0.6026032138561987,-0.6,0.0,1.0,410.0,976.0,1.0,0,224.0,1
39,39,-0.8789652353489305,-0.9,0.0,1.0,377.0,990.0,1.0,0,-127.0,1
40,40,0.43773257022588397,0.4,1.0,1.0,472.0,689.0,1.0,1,389.0,1
41,41,0.761734056251569,0.8,0.0,0.0,296.0,915.0,0.0,1,239.0,1
42,42,0.4274878263049461,0.4,0.0,0.0,254.0,819.0,0.0,1,357.0,1
43,43,0.5589255892199444,0.6,0.0,0.0,328.0,562.0,0.0,1,80.0,1
44,44,0.3284955630610781,0.3,1.0,1.0,446.0,773.0,1.0,1,291.0,1
45,45,-0.5976721634347499,-0.6,1.0,0.0,296.0,763.0,0.0,0,331.0,1
46,46,-0.08888081843353368,-0.1,1.0,0.0,304.0,614.0,1.0,1,2082.0,0
47,47,0.3149646452630247,0.3,1.0,1.0,364.0,681.0,1.0,1,185.0,1
48,48,0.7856135772522271,0.8,1.0,1.0,492.0,865.0,1.0,1,193.0,1
49,49,-0.5954350529422847,-0.6,1.0,0.0,378.0,551.0,0.0,0,451.0,1
50,50,-0.024148469529234773,-0.0,0.0,1.0,289.0,859.0,1.0,0,652.0,1
51,51,-0.14808130292745103,-0.1,1.0,0.0,280.0,726.0,0.0,0,1254.0,1
52,52,-0.5508210797631168,-0.6,0.0,1.0,450.0,928.0,1.0,0,102.0,1
53,53,-0.400358512974257,-0.4,1.0,0.0,433.0,540.0,0.0,0,527.0,1
54,54,-0.6509379645988229,-0.7,0.0,1.0,323.0,915.0,1.0,0,152.0,1
55,55,0.30065275074333286,0.3,1.0,1.0,451.0,815.0,1.0,1,334.0,1
56,56,0.4165385164694996,0.4,1.0,1.0,307.0,798.0,1.0,1,275.0,1
57,57,-0.14077852739216257,-0.1,1.0,0.0,384.0,833.0,1.0,1,1783.0,0
58,58,-0.07048622211752353,-0.1,0.0,1.0,364.0,870.0,1.0,0,386.0,1
59,59,0.47603541223503776,0.5,1.0,1.0,405.0,557.0,1.0,1,358.0,1
60,60,-0.317599758460146,-0.3,0.0,1.0,281.0,811.0,1.0,0,208.0,1
61,61,0.8482910163242946,0.8,1.0,1.0,398.0,949.0,1.0,1,343.0,1
62,62,0.7947409725557225,0.8,0.0,0.0,408.0,582.0,0.0,1,310.0,1
63,63,-0.4971146555381459,-0.5,0.0,1.0,468.0,791.0,1.0,0,481.0,1
64,64,0.6613969887950438,0.7,1.0,1.0,368.0,939.0,1.0,1,233.0,1
65,65,-0.5960652794464696,-0.6,1.0,0.0,276.0,613.0,0.0,0,371.0,1
66,66,-0.7821552673282681,-0.8,0.0,1.0,271.0,630.0,1.0,0,159.0,1
67,67,-0.2762213969155688,-0.3,0.0,1.0,495.0,552.0,1.0,0,553.0,1
68,68,-0.8354915059723729,-0.8,0.0,1.0,321.0,630.0,1.0,0,159.0,1
69,69,0.5497593170818732,0.5,0.0,0.0,467.0,829.0,0.0,1,254.0,1
70,70,-0.7560592489433489,-0.8,1.0,0.0,472.0,999.0,0.0,0,259.0,1
71,71,-0.7677597540595847,-0.8,1.0,0.0,333.0,596.0,0.0,0,221.0,1
72,72,0.6788821011771761,0.7,1.0,1.0,352.0,722.0,1.0,1,276.0,1
73,73,0.42617781259554455,0.4,1.0,1.0,458.0,530.0,1.0,1,452.0,1
74,74,-0.7283446612391118,-0.7,0.0,1.0,281.0,815.0,1.0,0,244.0,1
75,75,-0.011920672975348046,-0.0,0.0,1.0,422.0,804.0,1.0,0,914.0,1
76,76,-0.5729916867779554,-0.6,1.0,0.0,426.0,870.0,0.0,0,114.0,1
77,77,0.6268318102883851,0.6,0.0,0.0,324.0,653.0,0.0,1,333.0,1
78,78,0.2378257623925374,0.2,0.0,0.0,308.0,965.0,0.0,1,207.0,1
79,79,0.5009496390607381,0.5,1.0,1.0,397.0,853.0,1.0,1,310.0,1
80,80,0.6778091151229414,0.7,0.0,0.0,453.0,690.0,0.0,1,267.0,1
81,81,0.3019164896104082,0.3,0.0,0.0,427.0,518.0,0.0,1,655.0,1
82,82,-0.040895662759047324,-0.0,1.0,0.0,409.0,995.0,0.0,0,1596.0,1
83,83,0.792350523356041,0.8,0.0,0.0,372.0,593.0,0.0,1,225.0,1
84,84,0.3244243176019411,0.3,1.0,1.0,315.0,709.0,1.0,1,116.0,1
85,85,-0.1783473051328931,-0.2,1.0,0.0,319.0,953.0,0.0,0,1728.0,1
86,86,-0.4504587793924932,-0.5,1.0,0.0,335.0,714.0,0.0,0,331.0,1
87,87,0.11412686662593374,0.1,0.0,0.0,359.0,912.0,0.0,1,1729.0,1
88,88,0.8889633919268857,0.9,1.0,1.0,475.0,629.0,1.0,1,136.0,1
89,89,-0.794652109436952,-0.8,0.0,1.0,387.0,826.0,1.0,0,247.0,1
90,90,-0.47847004757383554,-0.5,0.0,1.0,497.0,969.0,1.0,0,244.0,1
91,91,0.07500715840117078,0.1,0.0,0.0,497.0,854.0,0.0,1,1649.0,1
92,92,-0.20258105893803546,-0.2,1.0,0.0,470.0,649.0,0.0,0,971.0,1
93,93,-0.5749684270298039,-0.6,1.0,0.0,264.0,811.0,0.0,0,265.0,1
94,94,0.8496884206505723,0.8,1.0,1.0,342.0,715.0,1.0,1,63.0,1
95,95,-0.893192941124319,-0.9,0.0,1.0,453.0,862.0,1.0,0,135.0,1
96,96,0.23651489331163755,0.2,0.0,0.0,347.0,604.0,0.0,1,249.0,1
97,97,0.3620962724446638,0.4,1.0,1.0,283.0,748.0,1.0,1,419.0,1
98,98,-0.3261931503722685,-0.3,1.0,0.0,291.0,570.0,0.0,0,659.0,1
99,99,-0.49371295264467113,-0.5,0.0,1.0,326.0,723.0,1.0,0,501.0,1
100,100,-0.2854748420803739,-0.3,1.0,0.0,406.0,857.0,0.0,0,617.0,1
101,101,-0.4411193156146866,-0.4,0.0,1.0,404.0,864.0,1.0,0,172.0,1
102,102,0.16869623404449008,0.2,0.0,0.0,273.0,521.0,0.0,1,1226.0,1
103,103,-0.6126639116207251,-0.6,1.0,0.0,253.0,912.0,0.0,0,265.0,1
104,104,-0.7914499025922079,-0.8,1.0,0.0,307.0,751.0,0.0,0,432.0,1
105,105,0.49960961073648724,0.5,0.0,0.0,408.0,948.0,0.0,1,234.0,1
106,106,-0.19990972809825658,-0.2,0.0,1.0,404.0,782.0,1.0,0,1074.0,1
107,107,-0.24993350117841084,-0.2,1.0,0.0,313.0,782.0,0.0,0,445.0,1
108,108,0.6877452155690439,0.7,0.0,0.0,472.0,677.0,0.0,1,141.0,1
109,109,0.5153914182385316,0.5,1.0,1.0,312.0,906.0,1.0,1,492.0,1
110,110,0.17678989194844819,0.2,0.0,0.0,399.0,760.0,0.0,1,1841.0,1
111,111,-0.757279488611678,-0.8,1.0,0.0,298.0,663.0,0.0,0,219.0,1
112,112,-0.7261861805996582,-0.7,1.0,0.0,293.0,938.0,0.0,0,549.0,1
113,113,-0.48509784651868587,-0.5,1.0,0.0,403.0,559.0,0.0,0,318.0,1
114,114,0.047989356221592505,0.0,1.0,1.0,393.0,764.0,1.0,1,1003.0,1
115,115,-0.8300108230230164,-0.8,0.0,1.0,291.0,856.0,1.0,0,173.0,1
116,116,0.25922198741780755,0.3,0.0,0.0,380.0,827.0,0.0,1,933.0,1
117,117,-0.35278534112468307,-0.4,1.0,0.0,441.0,923.0,0.0,0,456.0,1
118,118,0.6612349698411185,0.7,0.0,0.0,395.0,787.0,0.0,1,558.0,1
119,119,0.29698028318166225,0.3,0.0,0.0,285.0,862.0,0.0,1,683.0,1
120,120,-0.3318316269402981,-0.3,0.0,1.0,303.0,613.0,1.0,0,724.0,1
121,121,-0.7439972432631107,-0.7,1.0,0.0,480.0,966.0,0.0,0,194.0,1
122,122,-0.050939046028548374,-0.1,0.0,1.0,360.0,540.0,1.0,0,1260.0,1
123,123,0.3010263606251752,0.3,0.0,0.0,317.0,850.0,0.0,1,423.0,1
124,124,-0.20550941526376243,-0.2,0.0,1.0,341.0,805.0,1.0,0,404.0,1
125,125,-0.28698883751391846,-0.3,1.0,0.0,277.0,743.0,0.0,0,490.0,1
126,126,0.15189033859523182,0.2,1.0,1.0,311.0,765.0,1.0,1,844.0,1
127,127,0.6879262444759598,0.7,0.0,0.0,389.0,610.0,0.0,1,411.0,1
128,128,0.40795106326403874,0.4,1.0,1.0,413.0,741.0,1.0,1,196.0,1
129,129,0.36694158405020183,0.4,1.0,1.0,441.0,782.0,1.0,1,307.0,1
130,130,0.2152431732133845,0.2,1.0,1.0,496.0,770.0,1.0,1,554.0,1
131,131,0.6916069750977231,0.7,1.0,1.0,401.0,983.0,1.0,1,-554.0,1
132,132,-0.6140952054062865,-0.6,1.0,0.0,300.0,745.0,0.0,0,525.0,1
133,133,-0.640527308090034,-0.6,1.0,0.0,354.0,779.0,0.0,0,417.0,1
134,134,0.03617063587387426,0.0,1.0,1.0,480.0,920.0,1.0,1,1600.0,1
135,135,0.27098719095788304,0.3,1.0,1.0,319.0,794.0,1.0,1,-243.0,1
136,136,-0.4068816672498213,-0.4,0.0,1.0,434.0,584.0,1.0,0,282.0,1
137,137,0.8737420591437967,0.9,0.0,0.0,412.0,619.0,0.0,1,189.0,1
138,138,0.4876285505923087,0.5,1.0,1.0,487.0,787.0,1.0,1,516.0,1
139,139,0.1966208403038664,0.2,0.0,0.0,313.0,750.0,0.0,1,147.0,1
140,140,0.38644660569513867,0.4,0.0,0.0,410.0,636.0,0.0,1,1044.0,1
141,141,-0.2869209483399068,-0.3,0.0,1.0,343.0,606.0,1.0,0,191.0,1
142,142,-0.2560439416111072,-0.3,1.0,0.0,377.0,715.0,0.0,0,518.0,1
143,143,0.22998736465669445,0.2,1.0,1.0,429.0,961.0,1.0,1,480.0,1
144,144,0.03424105359402896,0.0,0.0,0.0,401.0,544.0,0.0,1,2055.0,1
145,145,0.45758454404730264,0.5,1.0,1.0,339.0,602.0,1.0,1,539.0,1
146,146,-0.8671096273222801,-0.9,0.0,1.0,251.0,640.0,1.0,0,289.0,1
147,147,0.3834453544481492,0.4,1.0,1.0,454.0,898.0,1.0,1,328.0,1
148,148,-0.7688391171187983,-0.8,1.0,0.0,292.0,916.0,0.0,0,172.0,1
149,149,-0.3794685092767026,-0.4,0.0,1.0,457.0,868.0,1.0,0,275.0,1
150,150,0.1970897824764123,0.2,1.0,1.0,266.0,691.0,1.0,1,563.0,1
151,151,0.5615520230382526,0.6,0.0,0.0,366.0,825.0,0.0,1,229.0,1
152,152,0.29419075252146143,0.3,0.0,0.0,310.0,585.0,0.0,1,475.0,1
153,153,-0.6379650671229886,-0.6,0.0,1.0,382.0,974.0,1.0,0,164.0,1
154,154,0.4436932032061077,0.4,0.0,0.0,464.0,588.0,0.0,1,418.0,1
155,155,-0.7730088599023566,-0.8,1.0,0.0,399.0,528.0,0.0,0,143.0,1
156,156,-0.29876176519692266,-0.3,0.0,1.0,305.0,502.0,1.0,0,643.0,1
157,157,-0.4773655162716005,-0.5,1.0,0.0,297.0,605.0,0.0,0,338.0,1
158,158,0.7530906362925763,0.8,0.0,0.0,292.0,721.0,0.0,1,337.0,1
159,159,-0.07166264389160204,-0.1,0.0,1.0,459.0,503.0,1.0,0,1958.0,1
160,160,0.39061314891795307,0.4,0.0,0.0,264.0,943.0,0.0,1,503.0,1
161,161,-0.2407376937152068,-0.2,0.0,1.0,318.0,673.0,1.0,0,599.0,1
162,162,-0.0088980282189427,-0.0,0.0,1.0,376.0,949.0,1.0,0,1675.0,1
163,163,-0.5511055806000094,-0.6,0.0,1.0,338.0,604.0,1.0,0,268.0,1
164,164,0.29010405099691805,0.3,1.0,1.0,261.0,797.0,1.0,1,262.0,1
165,165,0.30414635646807564,0.3,0.0,0.0,263.0,841.0,0.0,1,546.0,1
166,166,-0.041594484590856906,-0.0,0.0,1.0,352.0,517.0,1.0,0,2131.0,1
167,167,0.1813682382918832,0.2,1.0,1.0,262.0,983.0,1.0,1,405.0,1
168,168,-0.8403383640678351,-0.8,0.0,1.0,349.0,848.0,1.0,0,333.0,1
169,169,0.4026202298176521,0.4,0.0,0.0,469.0,858.0,0.0,1,413.0,1
170,170,0.3134665882612412,0.3,1.0,1.0,326.0,933.0,1.0,1,851.0,1
171,171,-0.7750955774437164,-0.8,0.0,1.0,429.0,624.0,1.0,0,147.0,1
172,172,0.7563263635633616,0.8,0.0,0.0,316.0,940.0,0.0,1,294.0,1
173,173,-0.41349555071581184,-0.4,1.0,0.0,499.0,954.0,0.0,0,297.0,1
174,174,0.3836083888443508,0.4,1.0,1.0,497.0,541.0,1.0,1,422.0,1
175,175,-0.8296133605341482,-0.8,0.0,1.0,477.0,531.0,1.0,0,252.0,1
176,176,0.6215108933104702,0.6,0.0,0.0,296.0,897.0,0.0,1,487.0,1
177,177,0.4290671441030055,0.4,0.0,0.0,293.0,549.0,0.0,1,298.0,1
178,178,-0.7468514451950176,-0.7,1.0,0.0,428.0,785.0,0.0,0,237.0,1
179,179,-0.06693508969225803,-0.1,1.0,0.0,413.0,756.0,0.0,0,1831.0,1
180,180,-0.29152856141689854,-0.3,1.0,0.0,276.0,588.0,0.0,0,536.0,1
181,181,-0.8602020747554779,-0.9,0.0,1.0,258.0,509.0,1.0,0,173.0,1
182,182,0.0837767391814509,0.1,0.0,0.0,271.0,712.0,0.0,1,2017.0,1
183,183,-0.845279654398934,-0.8,0.0,1.0,409.0,773.0,1.0,0,268.0,1
184,184,-0.0971565309682264,-0.1,1.0,0.0,262.0,810.0,0.0,0,1928.0,1
185,185,-0.7836130304290858,-0.8,1.0,0.0,499.0,610.0,0.0,0,211.0,1
186,186,0.35679793890281053,0.4,1.0,1.0,293.0,526.0,1.0,1,201.0,1
187,187,0.4490184923722994,0.4,1.0,1.0,371.0,798.0,1.0,1,211.0,1
188,188,-0.8754536997171605,-0.9,0.0,1.0,363.0,576.0,1.0,0,271.0,1
189,189,-0.8867412837236529,-0.9,0.0,1.0,252.0,999.0,1.0,0,229.0,1
190,190,0.48659000490292004,0.5,0.0,0.0,457.0,686.0,0.0,1,367.0,1
191,191,0.18386233268970298,0.2,0.0,0.0,296.0,952.0,0.0,1,582.0,1
192,192,-0.8783712409055228,-0.9,1.0,0.0,315.0,733.0,0.0,0,192.0,1
193,193,-0.5282291873824041,-0.5,1.0,0.0,395.0,592.0,0.0,0,183.0,1
194,194,0.235518049997966,0.2,0.0,0.0,464.0,994.0,0.0,1,782.0,1
195,195,0.24744858619166232,0.2,0.0,0.0,412.0,875.0,0.0,1,443.0,1
196,196,0.12859637400372514,0.1,0.0,0.0,497.0,826.0,0.0,1,1677.0,1
197,197,0.5663227137111325,0.6,0.0,0.0,469.0,579.0,0.0,1,212.0,1
198,198,-0.44973236802874295,-0.4,1.0,0.0,451.0,823.0,0.0,0,246.0,1
199,199,-0.6819021135656373,-0.7,1.0,0.0,251.0,621.0,0.0,0,298.0,1
200,200,0.25914367893589907,0.3,0.0,0.0,288.0,974.0,0.0,1,288.0,1
201,201,-0.4957820744159478,-0.5,1.0,0.0,290.0,553.0,0.0,0,477.0,1
202,202,-0.1695775472924016,-0.2,0.0,1.0,466.0,640.0,1.0,0,514.0,1
203,203,-0.1631131256964965,-0.2,1.0,0.0,319.0,977.0,0.0,0,1704.0,1
204,204,0.5521880012284189,0.6,1.0,1.0,255.0,539.0,1.0,1,246.0,1
205,205,-0.3635216958485685,-0.4,0.0,1.0,406.0,963.0,1.0,0,211.0,1
206,206,0.030119534366381262,0.0,1.0,1.0,259.0,589.0,1.0,1,2152.0,1
207,207,-0.5042802497899144,-0.5,0.0,1.0,412.0,912.0,1.0,0,176.0,1
208,208,0.8600179201094292,0.9,1.0,1.0,403.0,831.0,1.0,1,226.0,1
209,209,-0.4278733730301567,-0.4,0.0,1.0,410.0,576.0,1.0,0,634.0,1
210,210,-0.3268839034149129,-0.3,0.0,1.0,386.0,645.0,1.0,0,169.0,1
211,211,0.3877456499169206,0.4,1.0,1.0,273.0,707.0,1.0,1,400.0,1
212,212,0.8372224539829046,0.8,1.0,1.0,395.0,953.0,1.0,1,162.0,1
213,213,-0.3460467816635845,-0.3,0.0,1.0,343.0,524.0,1.0,0,333.0,1
214,214,0.3049714557224886,0.3,1.0,1.0,316.0,990.0,1.0,1,264.0,1
215,215,-0.2571965289540339,-0.3,0.0,1.0,430.0,505.0,1.0,0,215.0,1
216,216,-0.03748154363791201,-0.0,1.0,0.0,346.0,888.0,0.0,0,1766.0,1
217,217,0.4003475334256542,0.4,0.0,0.0,484.0,971.0,0.0,1,485.0,1
218,218,0.46497723085716325,0.5,0.0,0.0,294.0,944.0,0.0,1,782.0,1
219,219,0.8757710520522405,0.9,0.0,0.0,449.0,678.0,0.0,1,353.0,1
220,220,0.5775190473659283,0.6,1.0,1.0,377.0,930.0,1.0,1,333.0,1
221,221,0.35918265634011404,0.4,0.0,0.0,487.0,684.0,0.0,1,379.0,1
222,222,-0.2294379508736032,-0.2,1.0,0.0,390.0,777.0,0.0,0,1443.0,1
223,223,0.7427146028585309,0.7,1.0,1.0,471.0,715.0,1.0,1,74.0,1
224,224,0.6774058597254541,0.7,0.0,0.0,478.0,781.0,1.0,0,-429.0,0
225,225,0.5076328777814952,0.5,1.0,1.0,364.0,826.0,1.0,1,250.0,1
226,226,0.8085909282851812,0.8,0.0,0.0,435.0,663.0,0.0,1,182.0,1
227,227,-0.8619821709160612,-0.9,0.0,1.0,380.0,756.0,1.0,0,114.0,1
228,228,-0.7874671020703495,-0.8,0.0,1.0,406.0,784.0,1.0,0,140.0,1
229,229,0.009900233848733508,0.0,0.0,0.0,290.0,820.0,1.0,0,1890.0,0
230,230,0.35276792970636983,0.4,1.0,1.0,435.0,773.0,1.0,1,132.0,1
231,231,-0.7924518457189428,-0.8,0.0,1.0,359.0,793.0,1.0,0,158.0,1
232,232,-0.7013910804051526,-0.7,1.0,0.0,404.0,911.0,0.0,0,395.0,1
233,233,0.2108273985628223,0.2,1.0,1.0,335.0,595.0,1.0,1,630.0,1
234,234,-0.3845443661811001,-0.4,1.0,0.0,256.0,848.0,0.0,0,326.0,1
235,235,-0.8106227267377016,-0.8,0.0,1.0,361.0,647.0,1.0,0,282.0,1
236,236,0.6917671990514817,0.7,0.0,0.0,453.0,734.0,0.0,1,253.0,1
237,237,0.5117873244006811,0.5,1.0,1.0,261.0,707.0,1.0,1,332.0,1
238,238,0.865098395436115,0.9,1.0,1.0,354.0,859.0,1.0,1,127.0,1
239,239,-0.5616245833015152,-0.6,0.0,1.0,285.0,673.0,1.0,0,22.0,1
240,240,-0.21793030676984837,-0.2,1.0,0.0,289.0,752.0,0.0,0,689.0,1
241,241,-0.4282579788065912,-0.4,0.0,1.0,357.0,984.0,1.0,0,229.0,1
242,242,-0.6435445554260277,-0.6,0.0,1.0,282.0,518.0,1.0,0,170.0,1
243,243,0.8042639641206372,0.8,0.0,0.0,279.0,556.0,0.0,1,285.0,1
244,244,-0.7675618070034268,-0.8,1.0,0.0,480.0,839.0,0.0,0,291.0,1
245,245,0.6299716214459848,0.6,0.0,0.0,480.0,901.0,0.0,1,339.0,1
246,246,-0.7112953500403325,-0.7,0.0,1.0,328.0,844.0,1.0,0,278.0,1
247,247,-0.6194722578519405,-0.6,1.0,0.0,471.0,623.0,0.0,0,376.0,1
248,248,0.3409408117154006,0.3,0.0,0.0,344.0,894.0,0.0,1,792.0,1
249,249,-0.524829302255873,-0.5,1.0,0.0,381.0,573.0,0.0,0,486.0,1
250,250,0.2505959086753965,0.3,1.0,1.0,261.0,905.0,1.0,1,44.0,1
251,251,0.38907849640704917,0.4,1.0,1.0,285.0,855.0,1.0,1,190.0,1
252,252,0.09802312609141184,0.1,0.0,0.0,275.0,839.0,0.0,1,456.0,1
253,253,-0.4243389418531113,-0.4,0.0,1.0,441.0,876.0,1.0,0,323.0,1
254,254,0.13904459489122722,0.1,0.0,0.0,403.0,871.0,0.0,1,1726.0,1
255,255,0.19637524870487544,0.2,1.0,1.0,410.0,916.0,1.0,1,324.0,1
256,256,0.038461459565391265,0.0,0.0,0.0,350.0,997.0,1.0,0,1653.0,0
257,257,0.3145078885253815,0.3,1.0,1.0,441.0,961.0,1.0,1,388.0,1
258,258,-0.19182685615567185,-0.2,0.0,1.0,332.0,714.0,1.0,0,924.0,1
259,259,-0.26710100333011877,-0.3,1.0,0.0,432.0,936.0,0.0,0,272.0,1
260,260,0.022397787548329995,0.0,0.0,0.0,351.0,692.0,0.0,1,97.0,1
261,261,-0.4666082828857883,-0.5,1.0,0.0,481.0,567.0,0.0,0,512.0,1
262,262,0.2818514639908677,0.3,0.0,0.0,496.0,564.0,0.0,1,800.0,1
263,263,0.1866089918224204,0.2,1.0,1.0,440.0,970.0,1.0,1,650.0,1
264,264,0.05706444915651954,0.1,1.0,1.0,456.0,711.0,1.0,1,963.0,1
265,265,-0.6451554456130336,-0.6,0.0,1.0,416.0,686.0,1.0,0,158.0,1
266,266,0.37299165732644723,0.4,0.0,0.0,465.0,910.0,0.0,1,535.0,1
267,267,0.3802948687280311,0.4,0.0,0.0,423.0,800.0,0.0,1,277.0,1
268,268,-0.5780061231590666,-0.6,1.0,0.0,416.0,698.0,0.0,0,346.0,1
269,269,-0.8319692573764925,-0.8,1.0,0.0,360.0,549.0,0.0,0,191.0,1
270,270,-0.22198737766392362,-0.2,0.0,1.0,443.0,500.0,1.0,0,767.0,1
271,271,0.5396555539725439,0.5,0.0,0.0,292.0,585.0,0.0,1,433.0,1
272,272,0.2221480320283854,0.2,0.0,0.0,286.0,893.0,0.0,1,491.0,1
273,273,-0.43638733155702,-0.4,1.0,0.0,311.0,884.0,0.0,0,245.0,1
274,274,0.2955350303092251,0.3,1.0,1.0,442.0,986.0,1.0,1,512.0,1
275,275,0.6803862696107396,0.7,0.0,0.0,285.0,900.0,0.0,1,215.0,1
276,276,0.3314409319141137,0.3,0.0,0.0,475.0,762.0,0.0,1,423.0,1
277,277,-0.5680848242522989,-0.6,0.0,1.0,480.0,580.0,1.0,0,160.0,1
278,278,0.217721788525845,0.2,1.0,1.0,307.0,842.0,1.0,1,-139.0,1
279,279,0.26287377316049565,0.3,1.0,1.0,325.0,744.0,1.0,1,501.0,1
280,280,-0.1608332811034462,-0.2,0.0,1.0,305.0,915.0,1.0,0,210.0,1
281,281,-0.6431556513213164,-0.6,1.0,0.0,324.0,581.0,0.0,0,205.0,1
282,282,-0.8809054497285105,-0.9,0.0,1.0,356.0,796.0,1.0,0,268.0,1
283,283,-0.1138266892974672,-0.1,1.0,0.0,495.0,982.0,0.0,0,1523.0,1
284,284,0.7230764060813596,0.7,0.0,0.0,292.0,949.0,0.0,1,249.0,1
285,285,0.5390756241141433,0.5,1.0,1.0,320.0,530.0,1.0,1,250.0,1
286,286,0.03973153151763964,0.0,1.0,1.0,478.0,694.0,1.0,1,1828.0,1
287,287,-0.20077857967966106,-0.2,1.0,0.0,450.0,565.0,0.0,0,1985.0,1
288,288,-0.2881207656132848,-0.3,0.0,1.0,330.0,840.0,1.0,0,160.0,1
289,289,0.43523789195893403,0.4,0.0,0.0,360.0,715.0,0.0,1,375.0,1
290,290,-0.5390724012705541,-0.5,0.0,1.0,489.0,842.0,1.0,0,239.0,1
291,291,0.8963396833323088,0.9,1.0,1.0,459.0,604.0,1.0,1,157.0,1
292,292,0.5070002085238047,0.5,1.0,1.0,475.0,812.0,1.0,1,53.0,1
293,293,0.5940830224795218,0.6,1.0,1.0,485.0,625.0,1.0,1,440.0,1
294,294,0.5068078666342452,0.5,0.0,0.0,262.0,732.0,0.0,1,436.0,1
295,295,-0.11148232563056926,-0.1,0.0,1.0,430.0,756.0,1.0,0,1814.0,1
296,296,-0.7459048080590566,-0.7,0.0,1.0,311.0,897.0,1.0,0,172.0,1
297,297,-0.8354601892245361,-0.8,1.0,0.0,494.0,579.0,0.0,0,167.0,1
298,298,0.15595273896698691,0.2,1.0,1.0,250.0,723.0,1.0,1,157.0,1
299,299,0.5832873053687443,0.6,0.0,0.0,445.0,505.0,0.0,1,610.0,1
300,300,0.3307738440143052,0.3,1.0,1.0,434.0,530.0,1.0,1,246.0,1
301,301,-0.7815639037947814,-0.8,0.0,1.0,392.0,854.0,1.0,0,174.0,1
302,302,-0.28854641708264006,-0.3,1.0,0.0,318.0,841.0,0.0,0,1371.0,1
303,303,-0.8335222221546634,-0.8,0.0,1.0,400.0,744.0,1.0,0,86.0,1
304,304,-0.8661585724063484,-0.9,1.0,0.0,442.0,975.0,0.0,0,163.0,1
305,305,0.08805862382756457,0.1,1.0,1.0,287.0,808.0,1.0,1,1905.0,1
306,306,0.6684333174073479,0.7,0.0,0.0,309.0,956.0,0.0,1,425.0,1
307,307,0.8050707199638473,0.8,0.0,0.0,282.0,880.0,0.0,1,448.0,1
308,308,-0.08260936070626268,-0.1,1.0,0.0,330.0,786.0,0.0,0,1884.0,1
309,309,0.7065023059747223,0.7,1.0,1.0,415.0,670.0,1.0,1,245.0,1
310,310,0.7098411404435129,0.7,0.0,0.0,416.0,693.0,0.0,1,211.0,1
311,311,-0.17607126580074706,-0.2,1.0,0.0,464.0,800.0,0.0,0,536.0,1
312,312,-0.8293873344207503,-0.8,0.0,1.0,435.0,740.0,1.0,0,365.0,1
313,313,0.7245369590757115,0.7,0.0,0.0,280.0,844.0,0.0,1,216.0,1
314,314,0.4782557329205327,0.5,1.0,1.0,307.0,532.0,1.0,1,141.0,1
315,315,-0.8221421938722322,-0.8,0.0,1.0,283.0,833.0,1.0,0,134.0,1
316,316,-0.7913396418423111,-0.8,0.0,1.0,462.0,997.0,1.0,0,-279.0,1
317,317,-0.6941824241884409,-0.7,1.0,0.0,472.0,611.0,0.0,0,587.0,1
318,318,-0.6242197734315924,-0.6,1.0,0.0,281.0,802.0,0.0,0,197.0,1
319,319,0.7727846377439856,0.8,1.0,1.0,284.0,715.0,1.0,1,191.0,1
320,320,-0.2894387571046998,-0.3,1.0,0.0,359.0,908.0,0.0,0,1183.0,1
321,321,-0.3936611226623863,-0.4,0.0,1.0,402.0,938.0,1.0,0,340.0,1
322,322,-0.007601719459747969,-0.0,0.0,1.0,291.0,550.0,1.0,0,2159.0,1
323,323,-0.7439439402118382,-0.7,0.0,1.0,250.0,865.0,1.0,0,105.0,1
324,324,0.2422734825352183,0.2,0.0,0.0,300.0,815.0,0.0,1,1055.0,1
325,325,0.1424551946692888,0.1,0.0,0.0,400.0,894.0,0.0,1,606.0,1
326,326,-0.001703757423550667,-0.0,0.0,1.0,311.0,769.0,0.0,1,1920.0,0
327,327,-0.49535291717107605,-0.5,1.0,0.0,362.0,929.0,0.0,0,249.0,1
328,328,-0.31413069743478594,-0.3,1.0,0.0,422.0,647.0,0.0,0,401.0,1
329,329,-0.1500606441939223,-0.2,0.0,1.0,413.0,720.0,1.0,0,947.0,1
330,330,-0.8377281598866818,-0.8,1.0,0.0,474.0,787.0,0.0,0,159.0,1
331,331,0.6352840961686445,0.6,1.0,1.0,348.0,885.0,1.0,1,317.0,1
332,332,-0.0803029708423032,-0.1,1.0,0.0,315.0,787.0,0.0,0,1898.0,1
333,333,0.8106907452576223,0.8,0.0,0.0,287.0,519.0,0.0,1,204.0,1
334,334,0.33741544492112185,0.3,0.0,0.0,285.0,737.0,0.0,1,338.0,1
335,335,0.6881866225794447,0.7,0.0,0.0,480.0,794.0,0.0,1,276.0,1
336,336,-0.7952600630660944,-0.8,0.0,1.0,292.0,734.0,1.0,0,244.0,1
337,337,-0.08657564851065336,-0.1,1.0,0.0,399.0,931.0,0.0,0,1670.0,1
338,338,-0.09633750811523067,-0.1,1.0,0.0,417.0,768.0,0.0,0,1815.0,1
339,339,0.6738385212358223,0.7,1.0,1.0,299.0,586.0,1.0,1,245.0,1
340,340,-0.4341062933053908,-0.4,1.0,0.0,412.0,607.0,0.0,0,1311.0,1
341,341,-0.3449749353989977,-0.3,1.0,0.0,303.0,682.0,0.0,0,735.0,1
342,342,-0.6746871569193491,-0.7,0.0,1.0,301.0,688.0,1.0,0,121.0,1
343,343,0.21790757251136583,0.2,1.0,1.0,383.0,962.0,1.0,1,595.0,1
344,344,0.46488853601918223,0.5,0.0,0.0,462.0,674.0,0.0,1,384.0,1
345,345,0.6887517161917341,0.7,1.0,1.0,342.0,782.0,1.0,1,116.0,1
346,346,-0.27130805200583585,-0.3,1.0,0.0,455.0,841.0,0.0,0,1624.0,1
347,347,-0.3945582100465692,-0.4,1.0,0.0,362.0,828.0,0.0,0,790.0,1
348,348,-0.7336797211671302,-0.7,1.0,0.0,260.0,684.0,0.0,0,456.0,1
349,349,-0.03374596342405922,-0.0,0.0,1.0,296.0,661.0,1.0,0,1823.0,1
350,350,0.18753591561830174,0.2,1.0,1.0,333.0,634.0,1.0,1,923.0,1
351,351,0.6060669717204025,0.6,1.0,1.0,291.0,744.0,1.0,1,395.0,1
352,352,0.4500270273252719,0.5,0.0,0.0,416.0,672.0,0.0,1,582.0,1
353,353,-0.7204299568417722,-0.7,0.0,1.0,253.0,900.0,1.0,0,197.0,1
354,354,0.3110684657485393,0.3,0.0,0.0,481.0,544.0,0.0,1,575.0,1
355,355,0.7397263386669074,0.7,1.0,1.0,296.0,892.0,1.0,1,192.0,1
356,356,0.19428631136513108,0.2,0.0,0.0,401.0,558.0,0.0,1,641.0,1
357,357,-0.6411723949426529,-0.6,1.0,0.0,484.0,540.0,0.0,0,406.0,1
358,358,-0.8369103585524426,-0.8,1.0,0.0,469.0,547.0,0.0,0,694.0,1
359,359,0.7187965597554237,0.7,0.0,0.0,254.0,971.0,0.0,1,255.0,1
360,360,0.604405421666988,0.6,1.0,1.0,413.0,973.0,1.0,1,304.0,1
361,361,-0.6665498642024158,-0.7,0.0,1.0,448.0,866.0,1.0,0,256.0,1
362,362,-0.5008048455593681,-0.5,0.0,1.0,447.0,961.0,1.0,0,332.0,1
363,363,0.4284063969991466,0.4,0.0,0.0,317.0,508.0,0.0,1,265.0,1
364,364,0.8420648670056278,0.8,1.0,1.0,314.0,986.0,1.0,1,80.0,1
365,365,0.5051677207866293,0.5,0.0,0.0,460.0,621.0,0.0,1,409.0,1
366,366,0.6535064521272177,0.7,1.0,1.0,374.0,720.0,1.0,1,396.0,1
367,367,0.6920281413470467,0.7,0.0,0.0,312.0,718.0,0.0,1,230.0,1
368,368,0.6311538551824992,0.6,0.0,0.0,362.0,968.0,0.0,1,390.0,1
369,369,0.21861007530854393,0.2,1.0,1.0,407.0,940.0,1.0,1,843.0,1
370,370,-0.07000546914471328,-0.1,1.0,0.0,412.0,933.0,0.0,0,1655.0,1
371,371,-0.7414741299696149,-0.7,1.0,0.0,409.0,891.0,0.0,0,200.0,1
372,372,0.31410472466392336,0.3,1.0,1.0,487.0,778.0,1.0,1,365.0,1
373,373,-0.6283186289644856,-0.6,1.0,0.0,386.0,794.0,0.0,0,230.0,1
374,374,-0.8628297673856923,-0.9,0.0,1.0,462.0,809.0,1.0,0,179.0,1
375,375,0.8188313829151189,0.8,1.0,1.0,439.0,805.0,1.0,1,126.0,1
376,376,0.21538630166088113,0.2,0.0,0.0,472.0,598.0,0.0,1,700.0,1
377,377,0.4665410097083075,0.5,0.0,0.0,482.0,794.0,0.0,1,924.0,1
378,378,-0.19925176577701242,-0.2,1.0,0.0,379.0,923.0,0.0,0,1698.0,1
379,379,0.3382362220957328,0.3,0.0,0.0,448.0,839.0,0.0,1,773.0,1
380,380,-0.029124190524413174,-0.0,1.0,0.0,462.0,765.0,0.0,0,1773.0,1
381,381,0.3888878814391564,0.4,1.0,1.0,307.0,916.0,1.0,1,367.0,1
382,382,-0.6889166801156317,-0.7,0.0,1.0,333.0,772.0,1.0,0,345.0,1
383,383,0.14943485641302445,0.1,1.0,1.0,470.0,634.0,1.0,1,1896.0,1
384,384,-0.3370247643781139,-0.3,1.0,0.0,408.0,957.0,0.0,0,425.0,1
385,385,0.33261217324346537,0.3,0.0,0.0,250.0,975.0,0.0,1,285.0,1
386,386,-0.44804123869147977,-0.4,0.0,1.0,375.0,671.0,1.0,0,404.0,1
387,387,0.5061559859688977,0.5,0.0,0.0,349.0,977.0,0.0,1,304.0,1
388,388,-0.4901107803322112,-0.5,0.0,1.0,383.0,921.0,1.0,0,446.0,1
389,389,0.7742569529384916,0.8,0.0,0.0,343.0,741.0,0.0,1,126.0,1
390,390,-0.006308045200515866,-0.0,0.0,1.0,477.0,544.0,0.0,1,1979.0,0
391,391,-0.6067979685053717,-0.6,0.0,1.0,344.0,926.0,1.0,0,110.0,1
392,392,-0.6191502389230554,-0.6,1.0,0.0,447.0,976.0,0.0,0,257.0,1
393,393,0.8238798113149125,0.8,0.0,0.0,349.0,769.0,0.0,1,182.0,1
394,394,0.7537864089762935,0.8,1.0,1.0,437.0,807.0,1.0,1,106.0,1
395,395,-0.7174567128755731,-0.7,0.0,1.0,261.0,688.0,1.0,0,191.0,1
396,396,-0.8086224108754397,-0.8,1.0,0.0,306.0,727.0,0.0,0,107.0,1
397,397,-0.367532263486147,-0.4,1.0,0.0,488.0,952.0,0.0,0,240.0,1
398,398,0.7141793278973577,0.7,1.0,1.0,320.0,522.0,1.0,1,308.0,1
399,399,-0.7714424035182698,-0.8,1.0,0.0,497.0,626.0,0.0,0,247.0,1
400,400,-0.6168451742762767,-0.6,0.0,1.0,486.0,709.0,1.0,0,85.0,1
401,401,-0.4378215442070194,-0.4,0.0,1.0,328.0,876.0,1.0,0,166.0,1
402,402,-0.46267653211227955,-0.5,0.0,1.0,317.0,820.0,1.0,0,243.0,1
403,403,-0.5120235233621597,-0.5,0.0,1.0,392.0,981.0,1.0,0,117.0,1
404,404,0.6484261866796642,0.6,0.0,0.0,356.0,986.0,1.0,0,-252.0,0
405,405,0.6100653749726342,0.6,0.0,0.0,339.0,890.0,0.0,1,221.0,1
406,406,0.30797428403615446,0.3,0.0,0.0,319.0,990.0,0.0,1,351.0,1
407,407,-0.3619514341098612,-0.4,0.0,1.0,435.0,546.0,1.0,0,789.0,1
408,408,0.8968300026922528,0.9,1.0,1.0,469.0,810.0,1.0,1,141.0,1
409,409,0.029824733981464124,0.0,1.0,1.0,279.0,875.0,1.0,1,1846.0,1
410,410,-0.3155495717975618,-0.3,1.0,0.0,487.0,964.0,0.0,0,239.0,1
411,411,-0.7967011588925147,-0.8,0.0,1.0,364.0,821.0,1.0,0,275.0,1
412,412,0.36162981851316045,0.4,1.0,1.0,425.0,846.0,1.0,1,419.0,1
413,413,0.5084103176721645,0.5,1.0,1.0,387.0,715.0,1.0,1,88.0,1
414,414,0.24893922441000138,0.2,1.0,1.0,323.0,564.0,1.0,1,543.0,1
415,415,0.019909462207917228,0.0,1.0,1.0,462.0,680.0,1.0,1,1858.0,1
416,416,0.47858615595651044,0.5,0.0,0.0,310.0,876.0,1.0,0,-156.0,0
417,417,0.8417211371979757,0.8,0.0,0.0,305.0,853.0,0.0,1,262.0,1
418,418,-0.662269657251765,-0.7,1.0,0.0,372.0,606.0,0.0,0,882.0,1
419,419,0.3408263000863013,0.3,0.0,0.0,289.0,602.0,0.0,1,649.0,1
420,420,0.261810918528418,0.3,1.0,1.0,397.0,601.0,1.0,1,482.0,1
421,421,-0.8093044801039307,-0.8,1.0,0.0,320.0,746.0,0.0,0,274.0,1
422,422,0.6494632350202304,0.6,1.0,1.0,282.0,964.0,1.0,1,204.0,1
423,423,-0.07081841221894514,-0.1,1.0,0.0,357.0,948.0,0.0,0,1695.0,1
424,424,0.1334496882365147,0.1,0.0,0.0,423.0,999.0,0.0,1,1578.0,1
425,425,0.7325180226473916,0.7,0.0,0.0,318.0,747.0,0.0,1,165.0,1
426,426,0.8818963477654455,0.9,1.0,1.0,313.0,760.0,1.0,1,187.0,1
427,427,0.4829646140070446,0.5,0.0,0.0,357.0,895.0,0.0,1,318.0,1
428,428,-0.8646241419755836,-0.9,0.0,1.0,323.0,958.0,1.0,0,499.0,1
429,429,0.6968355637765179,0.7,0.0,0.0,332.0,978.0,0.0,1,200.0,1
430,430,-0.5437219382463132,-0.5,0.0,1.0,316.0,530.0,1.0,0,564.0,1
431,431,-0.41684834481530775,-0.4,0.0,1.0,331.0,581.0,1.0,0,478.0,1
432,432,-0.542891288498186,-0.5,0.0,1.0,366.0,753.0,1.0,0,371.0,1
433,433,-0.44628469411943356,-0.4,1.0,0.0,496.0,859.0,0.0,0,415.0,1
434,434,-0.7947004367591787,-0.8,0.0,1.0,336.0,751.0,1.0,0,263.0,1
435,435,0.13471313142709984,0.1,1.0,1.0,403.0,535.0,1.0,1,2032.0,1
436,436,0.7246784725898935,0.7,1.0,1.0,388.0,992.0,1.0,1,90.0,1
437,437,-0.8322168163356822,-0.8,0.0,1.0,316.0,687.0,1.0,0,417.0,1
438,438,0.346224973909783,0.3,0.0,0.0,480.0,941.0,0.0,1,289.0,1
439,439,0.015591423403310656,0.0,1.0,1.0,251.0,627.0,0.0,0,2122.0,0
440,440,0.7544485431740421,0.8,0.0,0.0,423.0,549.0,0.0,1,248.0,1
441,441,-0.49028809898783926,-0.5,0.0,1.0,316.0,978.0,1.0,0,116.0,1
442,442,0.6930381488463192,0.7,1.0,1.0,305.0,664.0,1.0,1,201.0,1
443,443,-0.4912837849066991,-0.5,0.0,1.0,267.0,909.0,1.0,0,514.0,1
444,444,0.3921010512260682,0.4,1.0,1.0,476.0,874.0,1.0,1,220.0,1
445,445,0.8911976929369047,0.9,1.0,1.0,477.0,685.0,1.0,1,188.0,1
446,446,-0.07282178064797196,-0.1,0.0,1.0,473.0,995.0,1.0,0,432.0,1
447,447,-0.3580963842576148,-0.4,1.0,0.0,499.0,963.0,0.0,0,618.0,1
448,448,-0.7390213488093742,-0.7,1.0,0.0,355.0,879.0,0.0,0,186.0,1
449,449,0.6077183932410769,0.6,1.0,1.0,439.0,911.0,1.0,1,190.0,1
450,450,0.8389304969329822,0.8,0.0,0.0,287.0,876.0,0.0,1,157.0,1
451,451,-0.22633039440938185,-0.2,1.0,0.0,313.0,739.0,0.0,0,1458.0,1
452,452,-0.15890207387703015,-0.2,1.0,0.0,322.0,918.0,0.0,0,1760.0,1
453,453,0.852268991527703,0.9,0.0,0.0,319.0,758.0,0.0,1,143.0,1
454,454,-0.8439294284978582,-0.8,1.0,0.0,285.0,633.0,0.0,0,522.0,1
455,455,-0.06836446009050734,-0.1,1.0,0.0,446.0,936.0,0.0,0,1308.0,1
456,456,0.5653120142905815,0.6,1.0,1.0,377.0,665.0,1.0,1,198.0,1
457,457,0.6075478132505351,0.6,0.0,0.0,313.0,945.0,0.0,1,122.0,1
458,458,-0.008939912191363697,-0.0,1.0,0.0,415.0,957.0,0.0,0,1628.0,1
459,459,0.789915416145872,0.8,0.0,0.0,282.0,572.0,0.0,1,286.0,1
460,460,-0.2843199507215718,-0.3,0.0,1.0,288.0,878.0,1.0,0,304.0,1
461,461,0.41998309259667777,0.4,1.0,1.0,481.0,861.0,1.0,1,168.0,1
462,462,0.3267462956971642,0.3,1.0,1.0,281.0,635.0,1.0,1,384.0,1
463,463,-0.34610937510268913,-0.3,0.0,1.0,277.0,753.0,1.0,0,410.0,1
464,464,0.4613542143909869,0.5,0.0,0.0,498.0,770.0,0.0,1,582.0,1
465,465,0.8338377363145429,0.8,0.0,0.0,415.0,990.0,0.0,1,205.0,1
466,466,0.03187011002250384,0.0,1.0,1.0,405.0,607.0,1.0,1,1778.0,1
467,467,0.8629691153374835,0.9,0.0,0.0,267.0,931.0,0.0,1,192.0,1
468,468,0.25809443641779584,0.3,1.0,1.0,285.0,639.0,1.0,1,496.0,1
469,469,0.23417960497133572,0.2,1.0,1.0,485.0,801.0,1.0,1,604.0,1
470,470,0.5653977218923419,0.6,0.0,0.0,252.0,836.0,0.0,1,272.0,1
471,471,-0.8380851093590541,-0.8,1.0,0.0,250.0,527.0,0.0,0,203.0,1
472,472,0.36658527284925657,0.4,0.0,0.0,463.0,838.0,0.0,1,219.0,1
473,473,-0.7304208796955546,-0.7,0.0,1.0,384.0,924.0,1.0,0,152.0,1
474,474,-0.18566650646329064,-0.2,0.0,1.0,427.0,829.0,1.0,0,644.0,1
475,475,-0.23823880857855828,-0.2,0.0,1.0,316.0,813.0,1.0,0,891.0,1
476,476,0.3163940389931482,0.3,0.0,0.0,458.0,765.0,0.0,1,507.0,1
477,477,-0.12923613446209137,-0.1,0.0,1.0,421.0,503.0,1.0,0,1246.0,1
478,478,0.3165264234673716,0.3,0.0,0.0,425.0,764.0,0.0,1,651.0,1
479,479,0.015182158690465908,0.0,1.0,1.0,329.0,617.0,0.0,0,2054.0,0
480,480,-0.22126714993500018,-0.2,1.0,0.0,317.0,616.0,0.0,0,417.0,1
481,481,0.5147558127109225,0.5,0.0,0.0,270.0,571.0,0.0,1,369.0,1
482,482,0.8278300380339146,0.8,1.0,1.0,331.0,978.0,1.0,1,91.0,1
483,483,-0.6820661788557947,-0.7,0.0,1.0,479.0,908.0,1.0,0,203.0,1
484,484,-0.6787071182633768,-0.7,1.0,0.0,336.0,772.0,0.0,0,122.0,1
485,485,-0.4236328969958907,-0.4,1.0,0.0,364.0,630.0,0.0,0,276.0,1
486,486,0.581600353652158,0.6,1.0,1.0,306.0,987.0,1.0,1,217.0,1
487,487,0.4871371108645376,0.5,1.0,1.0,488.0,671.0,1.0,1,321.0,1
488,488,-0.6875863563712235,-0.7,0.0,1.0,470.0,659.0,1.0,0,331.0,1
489,489,0.617233851156125,0.6,1.0,1.0,399.0,755.0,1.0,1,296.0,1
490,490,-0.22208279344936643,-0.2,0.0,1.0,446.0,567.0,1.0,0,1117.0,1
491,491,-0.2652118532026976,-0.3,1.0,0.0,493.0,783.0,0.0,0,744.0,1
492,492,0.42183264742484317,0.4,0.0,0.0,367.0,956.0,0.0,1,247.0,1
493,493,0.013410081532249096,0.0,0.0,0.0,435.0,653.0,0.0,1,1912.0,1
494,494,0.023847437434157848,0.0,1.0,1.0,429.0,907.0,0.0,0,1664.0,0
495,495,-0.6941709586526476,-0.7,1.0,0.0,277.0,863.0,0.0,0,290.0,1
496,496,-0.20563059079443236,-0.2,0.0,1.0,475.0,683.0,1.0,0,872.0,1
497,497,-0.4196040330367065,-0.4,1.0,0.0,436.0,918.0,1.0,1,-484.0,0
498,498,-0.11420488022811437,-0.1,0.0,1.0,422.0,570.0,1.0,0,448.0,1
499,499,-0.2576485151170974,-0.3,1.0,0.0,379.0,862.0,0.0,0,1169.0,1
500,500,0.43613377458499014,0.4,1.0,1.0,414.0,883.0,1.0,1,253.0,1
501,501,-0.5719654904840719,-0.6,0.0,1.0,428.0,958.0,1.0,0,174.0,1
502,502,-0.8115772838824042,-0.8,0.0,1.0,419.0,616.0,1.0,0,425.0,1
503,503,0.00818004702727293,0.0,1.0,1.0,458.0,572.0,1.0,1,1970.0,1
504,504,-0.1471354205515455,-0.1,1.0,0.0,347.0,519.0,0.0,0,2134.0,1
505,505,-0.022100793821810738,-0.0,0.0,1.0,382.0,976.0,0.0,1,1642.0,0
506,506,0.4858448682159212,0.5,0.0,0.0,292.0,653.0,0.0,1,385.0,1
507,507,0.1390234828278144,0.1,0.0,0.0,422.0,866.0,1.0,0,1712.0,0
508,508,-0.7293903257664278,-0.7,0.0,1.0,268.0,584.0,1.0,0,308.0,1
509,509,-0.2318366276383721,-0.2,0.0,1.0,451.0,894.0,1.0,0,615.0,1
510,510,-0.5900842790549994,-0.6,0.0,1.0,474.0,669.0,1.0,0,227.0,1
511,511,-0.3443080932654422,-0.3,0.0,1.0,389.0,597.0,1.0,0,314.0,1
512,512,-0.40097711574391265,-0.4,1.0,0.0,488.0,853.0,0.0,0,649.0,1
513,513,-0.1535733815589877,-0.2,1.0,0.0,309.0,713.0,0.0,0,368.0,1
514,514,0.6246713927443296,0.6,1.0,1.0,408.0,668.0,1.0,1,294.0,1
515,515,0.47323869670613006,0.5,0.0,0.0,325.0,647.0,0.0,1,238.0,1
516,516,0.2843589213212424,0.3,0.0,0.0,321.0,808.0,0.0,1,691.0,1
517,517,-0.6756440389354819,-0.7,1.0,0.0,301.0,965.0,0.0,0,234.0,1
518,518,0.3591237546032272,0.4,0.0,0.0,493.0,755.0,0.0,1,232.0,1
519,519,0.2306895409788977,0.2,1.0,1.0,307.0,652.0,1.0,1,491.0,1
520,520,-0.48618648748026483,-0.5,0.0,1.0,494.0,622.0,1.0,0,304.0,1
521,521,0.47003277511836117,0.5,0.0,0.0,482.0,658.0,0.0,1,430.0,1
522,522,0.15388441918966145,0.2,0.0,0.0,478.0,633.0,0.0,1,859.0,1
523,523,-0.2473533814506198,-0.2,0.0,1.0,325.0,658.0,1.0,0,137.0,1
524,524,0.4990551450345647,0.5,1.0,1.0,431.0,643.0,1.0,1,106.0,1
525,525,0.26759102200541485,0.3,1.0,1.0,316.0,928.0,1.0,1,296.0,1
526,526,-0.023071602928559587,-0.0,1.0,0.0,326.0,504.0,0.0,0,2170.0,1
527,527,-0.42714612211449987,-0.4,0.0,1.0,337.0,915.0,1.0,0,298.0,1
528,528,-0.7863558950735187,-0.8,1.0,0.0,346.0,901.0,0.0,0,173.0,1
529,529,-0.5151199400840771,-0.5,1.0,0.0,453.0,543.0,0.0,0,484.0,1
530,530,0.5751830048166241,0.6,0.0,0.0,264.0,607.0,0.0,1,189.0,1
531,531,-0.4867750949924906,-0.5,0.0,1.0,310.0,824.0,1.0,0,176.0,1
532,532,0.34682537016484283,0.3,0.0,0.0,374.0,569.0,0.0,1,397.0,1
533,533,0.8970452986307224,0.9,1.0,1.0,308.0,726.0,1.0,1,456.0,1
534,534,0.3014024748168166,0.3,1.0,1.0,253.0,961.0,1.0,1,426.0,1
535,535,-0.09249566430394285,-0.1,0.0,1.0,415.0,584.0,1.0,0,121.0,1
536,536,-0.649714669912106,-0.6,1.0,0.0,296.0,607.0,0.0,0,237.0,1
537,537,-0.023539503416199037,-0.0,0.0,1.0,398.0,753.0,1.0,0,1849.0,1
538,538,0.883620364260083,0.9,1.0,1.0,472.0,739.0,1.0,1,229.0,1
539,539,-0.7260673344223952,-0.7,0.0,1.0,480.0,869.0,1.0,0,141.0,1
540,540,-0.569670039595685,-0.6,0.0,1.0,401.0,562.0,1.0,0,127.0,1
541,541,0.680021381128665,0.7,1.0,1.0,328.0,715.0,1.0,1,257.0,1
542,542,0.6998250984956208,0.7,0.0,0.0,480.0,649.0,0.0,1,481.0,1
543,543,-0.5082721188590736,-0.5,1.0,0.0,370.0,892.0,0.0,0,398.0,1
544,544,0.5156555012525254,0.5,1.0,1.0,299.0,541.0,1.0,1,80.0,1
545,545,-0.7756916991991258,-0.8,1.0,0.0,399.0,930.0,0.0,0,251.0,1
546,546,0.6510179960703176,0.7,0.0,0.0,355.0,611.0,0.0,1,224.0,1
547,547,-0.7418422552087696,-0.7,1.0,0.0,321.0,546.0,0.0,0,203.0,1
548,548,0.8225703879976093,0.8,1.0,1.0,287.0,926.0,1.0,1,207.0,1
549,549,0.46227220837626104,0.5,0.0,0.0,387.0,788.0,0.0,1,315.0,1
550,550,0.2065682929314675,0.2,1.0,1.0,448.0,543.0,1.0,1,1279.0,1
551,551,-0.6854672112364082,-0.7,0.0,1.0,412.0,693.0,1.0,0,425.0,1
552,552,-0.32604847255412417,-0.3,0.0,1.0,257.0,918.0,1.0,0,345.0,1
553,553,-0.4192757946252965,-0.4,1.0,0.0,374.0,723.0,0.0,0,273.0,1
554,554,-0.5946738406191152,-0.6,1.0,0.0,455.0,615.0,0.0,0,300.0,1
555,555,-0.21576030697128679,-0.2,0.0,1.0,340.0,672.0,1.0,0,88.0,1
556,556,0.4115983008434424,0.4,1.0,1.0,281.0,625.0,1.0,1,294.0,1
557,557,0.6286742054989182,0.6,0.0,0.0,257.0,760.0,0.0,1,193.0,1
558,558,0.8724079444953655,0.9,0.0,0.0,495.0,527.0,0.0,1,258.0,1
559,559,0.09281441423039472,0.1,1.0,1.0,439.0,598.0,1.0,1,433.0,1
560,560,0.10262473996744259,0.1,0.0,0.0,336.0,939.0,0.0,1,1725.0,1
561,561,0.2467609762179409,0.2,0.0,0.0,354.0,746.0,0.0,1,750.0,1
562,562,0.7697188422658284,0.8,1.0,1.0,456.0,501.0,1.0,1,173.0,1
563,563,-0.6368699851131827,-0.6,1.0,0.0,330.0,616.0,0.0,0,254.0,1
564,564,-0.4939055246919066,-0.5,1.0,0.0,397.0,793.0,0.0,0,260.0,1
565,565,0.016727179481885845,0.0,0.0,0.0,493.0,631.0,1.0,0,116.0,0
566,566,-0.166793037728857,-0.2,0.0,1.0,424.0,504.0,1.0,0,382.0,1
567,567,0.6629906721030298,0.7,0.0,0.0,467.0,580.0,0.0,1,193.0,1
568,568,-0.8976225675861943,-0.9,1.0,0.0,485.0,759.0,0.0,0,236.0,1
569,569,-0.3950174760922094,-0.4,1.0,0.0,290.0,595.0,0.0,0,445.0,1
570,570,-0.6982708420431514,-0.7,0.0,1.0,447.0,696.0,1.0,0,227.0,1
571,571,0.4765863875020636,0.5,1.0,1.0,254.0,540.0,1.0,1,466.0,1
572,572,-0.53228635971174,-0.5,0.0,1.0,258.0,579.0,1.0,0,213.0,1
573,573,-0.10482948559489502,-0.1,0.0,1.0,273.0,909.0,0.0,1,1818.0,0
574,574,-0.17246885821794644,-0.2,0.0,1.0,436.0,975.0,1.0,0,1589.0,1
575,575,-0.12837877043564894,-0.1,0.0,1.0,266.0,620.0,1.0,0,814.0,1
576,576,-0.14289838297086688,-0.1,1.0,0.0,462.0,943.0,0.0,0,1595.0,1
577,577,-0.16295194084002906,-0.2,0.0,1.0,338.0,971.0,1.0,0,771.0,1
578,578,-0.6259615769242428,-0.6,1.0,0.0,292.0,599.0,0.0,0,329.0,1
579,579,-0.5287233909270487,-0.5,1.0,0.0,441.0,750.0,0.0,0,619.0,1
580,580,-0.8289356528507161,-0.8,1.0,0.0,343.0,832.0,0.0,0,95.0,1
581,581,0.07067932185877102,0.1,1.0,1.0,303.0,666.0,1.0,1,2031.0,1
582,582,-0.42665843887157684,-0.4,0.0,1.0,290.0,805.0,1.0,0,445.0,1
583,583,0.16608888160501556,0.2,0.0,0.0,420.0,905.0,0.0,1,1675.0,1
584,584,-0.7999591498964111,-0.8,1.0,0.0,298.0,566.0,0.0,0,146.0,1
585,585,-0.7736708852026741,-0.8,0.0,1.0,386.0,557.0,1.0,0,257.0,1
586,586,-0.36082870753522134,-0.4,1.0,0.0,477.0,840.0,0.0,0,403.0,1
587,587,-0.15037617628301447,-0.2,0.0,1.0,420.0,852.0,1.0,0,508.0,1
588,588,0.4825063730583986,0.5,1.0,1.0,477.0,882.0,1.0,1,161.0,1
589,589,0.6861798865561785,0.7,1.0,1.0,397.0,789.0,1.0,1,284.0,1
590,590,0.05533075511206287,0.1,0.0,0.0,334.0,567.0,0.0,1,2099.0,1
591,591,-0.2065979191033246,-0.2,1.0,0.0,269.0,835.0,0.0,0,656.0,1
592,592,-0.40730945963088006,-0.4,0.0,1.0,437.0,972.0,1.0,0,191.0,1
593,593,0.03531018784315154,0.0,0.0,0.0,384.0,781.0,0.0,1,505.0,1
594,594,0.15090378443679364,0.2,0.0,0.0,459.0,584.0,0.0,1,1587.0,1
595,595,0.8270835845193923,0.8,0.0,0.0,255.0,746.0,0.0,1,229.0,1
596,596,0.27464661769779253,0.3,0.0,0.0,456.0,634.0,0.0,1,900.0,1
597,597,-0.1363419581217602,-0.1,1.0,0.0,472.0,986.0,0.0,0,1542.0,1
598,598,-0.3499119523170404,-0.3,1.0,0.0,329.0,567.0,0.0,0,424.0,1
599,599,0.211153667065339,0.2,1.0,1.0,463.0,793.0,1.0,1,884.0,1
600,600,0.07441313996506682,0.1,1.0,1.0,401.0,764.0,1.0,1,1835.0,1
601,601,0.8880971480113707,0.9,0.0,0.0,419.0,836.0,0.0,1,145.0,1
602,602,-0.7209997734592595,-0.7,0.0,1.0,374.0,511.0,1.0,0,315.0,1
603,603,0.8794788609757235,0.9,1.0,1.0,362.0,955.0,1.0,1,233.0,1
604,604,0.4887331610427196,0.5,1.0,1.0,353.0,913.0,1.0,1,114.0,1
605,605,0.49925428727635135,0.5,1.0,1.0,371.0,641.0,1.0,1,588.0,1
606,606,-0.11802063346606584,-0.1,1.0,0.0,281.0,710.0,1.0,1,2009.0,0
607,607,0.5425641491323691,0.5,0.0,0.0,317.0,830.0,0.0,1,283.0,1
608,608,-0.6528046683923789,-0.7,0.0,1.0,406.0,764.0,1.0,0,240.0,1
609,609,0.6699267741027525,0.7,0.0,0.0,487.0,526.0,0.0,1,337.0,1
610,610,-0.35923235846446155,-0.4,1.0,0.0,373.0,521.0,0.0,0,646.0,1
611,611,0.023263284395790285,0.0,0.0,0.0,324.0,944.0,0.0,1,1732.0,1
612,612,0.8115492937200074,0.8,1.0,1.0,374.0,551.0,1.0,1,185.0,1
613,613,0.037351062828529846,0.0,0.0,0.0,495.0,538.0,0.0,1,1797.0,1
614,614,-0.05158576534439352,-0.1,1.0,0.0,386.0,825.0,0.0,0,1789.0,1
615,615,0.7159991909216178,0.7,0.0,0.0,492.0,877.0,0.0,1,491.0,1
616,616,-0.7629459480441189,-0.8,1.0,0.0,285.0,942.0,0.0,0,353.0,1
617,617,0.3242277925212297,0.3,1.0,1.0,294.0,616.0,1.0,1,270.0,1
618,618,-0.2762795624250316,-0.3,0.0,1.0,465.0,770.0,1.0,0,185.0,1
619,619,0.5918608030459661,0.6,1.0,1.0,334.0,541.0,1.0,1,55.0,1
620,620,-0.33863778331642935,-0.3,1.0,0.0,260.0,953.0,0.0,0,587.0,1
621,621,0.23219417285036503,0.2,1.0,1.0,470.0,613.0,1.0,1,407.0,1
622,622,-0.17847746144687848,-0.2,0.0,1.0,488.0,877.0,1.0,0,525.0,1
623,623,-0.2558071432598412,-0.3,0.0,1.0,335.0,843.0,1.0,0,262.0,1
624,624,-0.09094874948528231,-0.1,1.0,0.0,250.0,547.0,0.0,0,913.0,1
625,625,0.5618535336493734,0.6,0.0,0.0,374.0,539.0,0.0,1,177.0,1
626,626,-0.6302552893361821,-0.6,1.0,0.0,442.0,732.0,0.0,0,536.0,1
627,627,0.6089619270637027,0.6,0.0,0.0,323.0,814.0,0.0,1,353.0,1
628,628,-0.711417050089812,-0.7,0.0,1.0,408.0,939.0,1.0,0,133.0,1
629,629,0.33853982047637865,0.3,1.0,1.0,416.0,763.0,1.0,1,321.0,1
630,630,0.2069901496002079,0.2,1.0,1.0,300.0,878.0,1.0,1,232.0,1
631,631,0.4649770858859318,0.5,1.0,1.0,307.0,997.0,1.0,1,166.0,1
632,632,-0.7472673899075379,-0.7,1.0,0.0,410.0,969.0,0.0,0,141.0,1
633,633,0.8690406991182701,0.9,0.0,0.0,404.0,872.0,0.0,1,514.0,1
634,634,0.10577503820440926,0.1,1.0,1.0,255.0,791.0,1.0,1,634.0,1
635,635,-0.0062315069313283455,-0.0,0.0,1.0,367.0,551.0,0.0,1,2082.0,0
636,636,0.3753626274803935,0.4,1.0,1.0,380.0,514.0,1.0,1,476.0,1
637,637,0.388255563447946,0.4,0.0,0.0,334.0,533.0,0.0,1,513.0,1
638,638,-0.8589802195874668,-0.9,1.0,0.0,330.0,971.0,0.0,0,139.0,1
639,639,-0.6519795338369732,-0.7,0.0,1.0,441.0,659.0,1.0,0,230.0,1
640,640,0.7121682774036334,0.7,0.0,0.0,419.0,615.0,0.0,1,146.0,1
641,641,-0.13617678848151926,-0.1,1.0,0.0,398.0,534.0,0.0,0,2068.0,1
642,642,-0.6855646839794847,-0.7,0.0,1.0,258.0,580.0,1.0,0,222.0,1
643,643,-0.18047887260276418,-0.2,0.0,1.0,485.0,521.0,0.0,1,-116.0,0
644,644,-0.5742302087976088,-0.6,0.0,1.0,254.0,941.0,1.0,0,225.0,1
645,645,-0.4048980281243969,-0.4,0.0,1.0,443.0,602.0,1.0,0,345.0,1
646,646,0.7190968196496647,0.7,0.0,0.0,338.0,928.0,0.0,1,294.0,1
647,647,-0.08039665524675399,-0.1,1.0,0.0,329.0,595.0,0.0,0,2076.0,1
648,648,-0.30356064765502233,-0.3,0.0,1.0,389.0,671.0,1.0,0,180.0,1
649,649,-0.7031589558739786,-0.7,0.0,1.0,296.0,586.0,1.0,0,308.0,1
650,650,0.19415368094262286,0.2,0.0,0.0,367.0,531.0,0.0,1,1192.0,1
651,651,-0.3902259907310984,-0.4,0.0,1.0,379.0,680.0,1.0,0,261.0,1
652,652,-0.7363622904561129,-0.7,1.0,0.0,296.0,532.0,0.0,0,202.0,1
653,653,-0.45706412900297305,-0.5,1.0,0.0,307.0,788.0,0.0,0,285.0,1
654,654,-0.7644337115913494,-0.8,0.0,1.0,306.0,658.0,1.0,0,176.0,1
655,655,0.03763164720894441,0.0,1.0,1.0,377.0,865.0,1.0,1,1758.0,1
656,656,-0.07340556294576173,-0.1,0.0,1.0,467.0,537.0,1.0,0,1996.0,1
657,657,-0.7027827016282263,-0.7,0.0,1.0,283.0,814.0,1.0,0,-47.0,1
658,658,-0.6706127672531581,-0.7,0.0,1.0,472.0,920.0,1.0,0,228.0,1
659,659,-0.6207826005824247,-0.6,0.0,1.0,254.0,525.0,1.0,0,361.0,1
660,660,-0.6307037858534369,-0.6,1.0,0.0,378.0,831.0,0.0,0,271.0,1
661,661,-0.7565649362746816,-0.8,1.0,0.0,253.0,698.0,0.0,0,139.0,1
662,662,0.09257671491105257,0.1,0.0,0.0,283.0,512.0,0.0,1,905.0,1
663,663,0.09818177938645745,0.1,1.0,1.0,255.0,851.0,1.0,1,1894.0,1
664,664,-0.19807745188116077,-0.2,0.0,1.0,394.0,892.0,1.0,0,1284.0,1
665,665,0.3358466506486758,0.3,1.0,1.0,284.0,687.0,1.0,1,489.0,1
666,666,-0.2590657064736419,-0.3,1.0,0.0,339.0,724.0,0.0,0,967.0,1
667,667,-0.21121466218943552,-0.2,0.0,1.0,469.0,733.0,1.0,0,-122.0,1
668,668,0.3026574727429091,0.3,1.0,1.0,308.0,606.0,1.0,1,776.0,1
669,669,-0.6738801414458201,-0.7,1.0,0.0,293.0,737.0,0.0,0,200.0,1
670,670,-0.41276590636669097,-0.4,0.0,1.0,453.0,873.0,1.0,0,324.0,1
671,671,0.44474809321339726,0.4,1.0,1.0,298.0,740.0,1.0,1,342.0,1
672,672,0.494097029539457,0.5,1.0,1.0,364.0,966.0,1.0,1,190.0,1
673,673,-0.49955940677162775,-0.5,0.0,1.0,390.0,999.0,1.0,0,131.0,1
674,674,0.5145829312842575,0.5,0.0,0.0,380.0,685.0,0.0,1,665.0,1
675,675,-0.03039801749792803,-0.0,1.0,0.0,467.0,928.0,0.0,0,1605.0,1
676,676,0.8036961807504109,0.8,1.0,1.0,310.0,783.0,1.0,1,227.0,1
677,677,0.2762796494931491,0.3,0.0,0.0,376.0,687.0,0.0,1,377.0,1
678,678,0.1480152870647572,0.1,0.0,0.0,349.0,617.0,0.0,1,1404.0,1
679,679,-0.4750529383018015,-0.5,1.0,0.0,421.0,890.0,0.0,0,329.0,1
680,680,0.42512560886704287,0.4,0.0,0.0,375.0,689.0,0.0,1,386.0,1
681,681,0.4166195675048431,0.4,1.0,1.0,465.0,614.0,1.0,1,441.0,1
682,682,0.49211714320690836,0.5,1.0,1.0,346.0,942.0,1.0,1,262.0,1
683,683,-0.6164865059473192,-0.6,1.0,0.0,307.0,634.0,0.0,0,319.0,1
684,684,0.020460646250163528,0.0,1.0,1.0,403.0,710.0,1.0,1,1737.0,1
685,685,-0.07156103924683277,-0.1,1.0,0.0,452.0,586.0,0.0,0,1372.0,1
686,686,0.4988623369001278,0.5,1.0,1.0,469.0,632.0,1.0,1,269.0,1
687,687,0.44590820370790596,0.4,0.0,0.0,479.0,569.0,0.0,1,512.0,1
688,688,0.7229946814854463,0.7,0.0,0.0,326.0,682.0,0.0,1,172.0,1
689,689,-0.503898030265745,-0.5,0.0,1.0,409.0,730.0,1.0,0,261.0,1
690,690,-0.15781858567495843,-0.2,1.0,0.0,341.0,925.0,0.0,0,1734.0,1
691,691,-0.1701071428643628,-0.2,0.0,1.0,347.0,518.0,1.0,0,1045.0,1
692,692,-0.6488287539461384,-0.6,0.0,1.0,267.0,770.0,1.0,0,193.0,1
693,693,-0.33274007553448026,-0.3,0.0,1.0,427.0,732.0,1.0,0,481.0,1
694,694,-0.494502541663094,-0.5,1.0,0.0,493.0,808.0,0.0,0,189.0,1
695,695,-0.3861079457355815,-0.4,1.0,0.0,341.0,564.0,0.0,0,565.0,1
696,696,0.8132477027996851,0.8,1.0,1.0,257.0,866.0,1.0,1,207.0,1
697,697,0.5305922018334525,0.5,0.0,0.0,264.0,942.0,0.0,1,314.0,1
698,698,0.289623403719652,0.3,0.0,0.0,460.0,937.0,0.0,1,613.0,1
699,699,-0.39513984158437165,-0.4,0.0,1.0,275.0,670.0,1.0,0,305.0,1
700,700,-0.6861853894884011,-0.7,1.0,0.0,381.0,733.0,0.0,0,326.0,1
701,701,0.18175844134498031,0.2,1.0,1.0,402.0,606.0,1.0,1,302.0,1
702,702,-0.7683209871159277,-0.8,1.0,0.0,277.0,604.0,0.0,0,309.0,1
703,703,-0.4885280185840519,-0.5,1.0,0.0,285.0,530.0,0.0,0,315.0,1
704,704,-0.565377307345581,-0.6,0.0,1.0,479.0,609.0,1.0,0,212.0,1
705,705,-0.37111860893744353,-0.4,1.0,0.0,371.0,644.0,0.0,0,405.0,1
706,706,0.4198840387533761,0.4,0.0,0.0,312.0,941.0,0.0,1,257.0,1
707,707,0.3311864966774444,0.3,1.0,1.0,279.0,677.0,1.0,1,334.0,1
708,708,-0.7943098442697034,-0.8,0.0,1.0,317.0,836.0,1.0,0,197.0,1
709,709,-0.7536619311342329,-0.8,0.0,1.0,459.0,833.0,1.0,0,118.0,1
710,710,0.44237553561645304,0.4,0.0,0.0,499.0,965.0,0.0,1,236.0,1
711,711,-0.39195269760938023,-0.4,1.0,0.0,304.0,835.0,0.0,0,301.0,1
712,712,0.2998281622608069,0.3,1.0,1.0,302.0,669.0,1.0,1,439.0,1
713,713,-0.830699081781037,-0.8,0.0,1.0,462.0,782.0,1.0,0,156.0,1
714,714,-0.6067727144915773,-0.6,1.0,0.0,282.0,834.0,0.0,0,214.0,1
715,715,0.7315794431044177,0.7,1.0,1.0,290.0,874.0,1.0,1,186.0,1
716,716,0.7901046315376078,0.8,0.0,0.0,491.0,794.0,0.0,1,305.0,1
717,717,-0.5900534476279548,-0.6,1.0,0.0,452.0,532.0,0.0,0,336.0,1
718,718,-0.21836412218279522,-0.2,1.0,0.0,427.0,638.0,0.0,0,445.0,1
719,719,0.6467915615576617,0.6,1.0,1.0,407.0,983.0,1.0,1,300.0,1
720,720,-0.6554069702193835,-0.7,0.0,1.0,261.0,802.0,1.0,0,247.0,1
721,721,0.8446137419328014,0.8,0.0,0.0,466.0,501.0,0.0,1,223.0,1
722,722,0.15823394659332413,0.2,1.0,1.0,458.0,786.0,1.0,1,606.0,1
723,723,-0.732689338168558,-0.7,0.0,1.0,495.0,805.0,1.0,0,200.0,1
724,724,0.7818128124044169,0.8,1.0,1.0,401.0,570.0,1.0,1,259.0,1
725,725,-0.11787259875928657,-0.1,1.0,0.0,262.0,718.0,0.0,0,2020.0,1
726,726,-0.5098131132951218,-0.5,0.0,1.0,468.0,852.0,1.0,0,180.0,1
727,727,0.3920001029385106,0.4,0.0,0.0,495.0,934.0,0.0,1,261.0,1
728,728,0.09553488021546952,0.1,0.0,0.0,429.0,648.0,0.0,1,333.0,1
729,729,-0.39074839823893814,-0.4,0.0,1.0,381.0,676.0,1.0,0,473.0,1
730,730,-0.39480730034639844,-0.4,1.0,0.0,282.0,977.0,0.0,0,281.0,1
731,731,0.38473370157341613,0.4,0.0,0.0,352.0,620.0,0.0,1,658.0,1
732,732,0.656864340015129,0.7,0.0,0.0,274.0,779.0,0.0,1,437.0,1
733,733,0.6665864166323531,0.7,0.0,0.0,367.0,531.0,0.0,1,292.0,1
734,734,0.629440542349864,0.6,1.0,1.0,449.0,718.0,1.0,1,263.0,1
735,735,0.502478762788675,0.5,0.0,0.0,350.0,567.0,0.0,1,363.0,1
736,736,0.8994125723356231,0.9,1.0,1.0,328.0,794.0,1.0,1,258.0,1
737,737,0.27075781868522963,0.3,0.0,0.0,389.0,781.0,0.0,1,1010.0,1
738,738,-0.5372175875751696,-0.5,0.0,1.0,346.0,606.0,1.0,0,228.0,1
739,739,0.13203636998880952,0.1,0.0,0.0,474.0,742.0,0.0,1,744.0,1
740,740,-0.5467957635454668,-0.5,0.0,1.0,477.0,542.0,1.0,0,471.0,1
741,741,-0.39933250134792897,-0.4,0.0,1.0,322.0,775.0,1.0,0,273.0,1
742,742,-0.4158771125781813,-0.4,0.0,1.0,478.0,644.0,1.0,0,238.0,1
743,743,-0.13008580170886563,-0.1,0.0,1.0,310.0,605.0,1.0,0,575.0,1
744,744,0.6696217809744681,0.7,0.0,0.0,496.0,747.0,0.0,1,137.0,1
745,745,-0.21876469172462787,-0.2,0.0,1.0,271.0,670.0,1.0,0,269.0,1
746,746,0.6373717199984134,0.6,0.0,0.0,412.0,915.0,0.0,1,273.0,1
747,747,-0.1380639286879951,-0.1,1.0,0.0,446.0,930.0,0.0,0,1624.0,1
748,748,0.6008670154388226,0.6,0.0,0.0,296.0,693.0,0.0,1,61.0,1
749,749,0.6265689998913152,0.6,0.0,0.0,414.0,609.0,0.0,1,177.0,1
750,750,-0.8364849473869275,-0.8,1.0,0.0,412.0,994.0,0.0,0,104.0,1
751,751,-0.7003523239304171,-0.7,0.0,1.0,465.0,948.0,1.0,0,207.0,1
752,752,-0.04509755651305092,-0.0,0.0,1.0,426.0,693.0,1.0,0,1881.0,1
753,753,-0.3375814879100789,-0.3,1.0,0.0,470.0,643.0,0.0,0,647.0,1
754,754,0.8431477982001202,0.8,1.0,1.0,328.0,925.0,1.0,1,157.0,1
755,755,-0.09351951622544652,-0.1,1.0,0.0,317.0,737.0,0.0,0,1946.0,1
756,756,0.5512487333104698,0.6,1.0,1.0,287.0,920.0,1.0,1,173.0,1
757,757,-0.2489891499792789,-0.2,1.0,0.0,331.0,511.0,0.0,0,1178.0,1
758,758,0.2800060234544205,0.3,1.0,1.0,271.0,848.0,1.0,1,821.0,1
759,759,0.8764488994747827,0.9,0.0,0.0,347.0,850.0,0.0,1,203.0,1
760,760,-0.2704598627000351,-0.3,0.0,1.0,498.0,722.0,1.0,0,280.0,1
761,761,-0.8319378777263889,-0.8,1.0,0.0,431.0,655.0,0.0,0,254.0,1
762,762,0.6158454509251524,0.6,0.0,0.0,490.0,988.0,0.0,1,262.0,1
763,763,-0.5352099113400229,-0.5,1.0,0.0,447.0,566.0,0.0,0,297.0,1
764,764,-0.7160511874229737,-0.7,1.0,0.0,359.0,905.0,0.0,0,286.0,1
765,765,-0.40575591063785105,-0.4,1.0,0.0,255.0,868.0,0.0,0,357.0,1
766,766,-0.6505938537683,-0.7,0.0,1.0,334.0,695.0,1.0,0,341.0,1
767,767,-0.03239405384907501,-0.0,0.0,1.0,346.0,646.0,1.0,0,-142.0,1
768,768,-0.4510976028927935,-0.5,0.0,1.0,404.0,828.0,1.0,0,278.0,1
769,769,0.3744727461491232,0.4,1.0,1.0,357.0,895.0,1.0,1,348.0,1
770,770,0.33084926333087694,0.3,1.0,1.0,279.0,547.0,1.0,1,794.0,1
771,771,0.206704591225623,0.2,0.0,0.0,273.0,502.0,0.0,1,665.0,1
772,772,0.5045671842919256,0.5,1.0,1.0,446.0,664.0,1.0,1,300.0,1
773,773,0.3474169821781886,0.3,0.0,0.0,319.0,793.0,0.0,1,598.0,1
774,774,0.406257836801288,0.4,1.0,1.0,413.0,975.0,1.0,1,262.0,1
775,775,-0.841841894611941,-0.8,0.0,1.0,430.0,938.0,1.0,0,222.0,1
776,776,-0.03391859470233771,-0.0,0.0,1.0,341.0,989.0,1.0,0,880.0,1
777,777,0.35874091698768173,0.4,0.0,0.0,326.0,993.0,0.0,1,131.0,1
778,778,-0.1684647219551716,-0.2,0.0,1.0,440.0,961.0,1.0,0,459.0,1
779,779,0.06952009346523214,0.1,1.0,1.0,416.0,665.0,1.0,1,1919.0,1
780,780,0.5842088887707438,0.6,0.0,0.0,303.0,602.0,0.0,1,635.0,1
781,781,0.4805874479343172,0.5,0.0,0.0,360.0,588.0,0.0,1,172.0,1
782,782,-0.052087832643860965,-0.1,0.0,1.0,291.0,893.0,1.0,0,1326.0,1
783,783,-0.24528674273340934,-0.2,0.0,1.0,319.0,985.0,1.0,0,306.0,1
784,784,-0.48678456317881136,-0.5,0.0,1.0,355.0,593.0,1.0,0,302.0,1
785,785,-0.828353196678433,-0.8,0.0,1.0,261.0,860.0,1.0,0,339.0,1
786,786,0.5792690214599513,0.6,1.0,1.0,407.0,624.0,1.0,1,149.0,1
787,787,-0.8408090069749428,-0.8,1.0,0.0,359.0,733.0,0.0,0,218.0,1
788,788,0.3193405965661117,0.3,1.0,1.0,431.0,867.0,1.0,1,402.0,1
789,789,0.8005955550883835,0.8,1.0,1.0,370.0,979.0,1.0,1,281.0,1
790,790,0.24801888189817023,0.2,0.0,0.0,416.0,877.0,0.0,1,537.0,1
791,791,-0.44815272560477315,-0.4,1.0,0.0,428.0,965.0,0.0,0,337.0,1
792,792,0.37193018187886795,0.4,0.0,0.0,495.0,759.0,0.0,1,326.0,1
793,793,-0.594032776756934,-0.6,0.0,1.0,422.0,880.0,1.0,0,348.0,1
794,794,-0.4940513605484547,-0.5,0.0,1.0,310.0,608.0,1.0,0,422.0,1
795,795,-0.07557899898967346,-0.1,1.0,0.0,393.0,871.0,0.0,0,1736.0,1
796,796,-0.66327931967403,-0.7,1.0,0.0,404.0,846.0,0.0,0,330.0,1
797,797,0.07198247911781497,0.1,1.0,1.0,495.0,813.0,1.0,1,1322.0,1
798,798,-0.3097082522081771,-0.3,1.0,0.0,341.0,574.0,0.0,0,1235.0,1
799,799,-0.05174285973812709,-0.1,0.0,1.0,350.0,932.0,1.0,0,208.0,1
800,800,0.17362522096535205,0.2,1.0,1.0,325.0,834.0,1.0,1,1211.0,1
801,801,0.6679044841172518,0.7,0.0,0.0,289.0,887.0,0.0,1,154.0,1
802,802,-0.6494206802704128,-0.6,1.0,0.0,456.0,572.0,0.0,0,372.0,1
803,803,-0.7623991412571904,-0.8,1.0,0.0,261.0,755.0,0.0,0,244.0,1
804,804,0.341660513088318,0.3,1.0,1.0,257.0,903.0,1.0,1,380.0,1
805,805,0.527928312690903,0.5,0.0,0.0,312.0,896.0,0.0,1,212.0,1
806,806,0.6989683538511354,0.7,0.0,0.0,298.0,914.0,0.0,1,218.0,1
807,807,0.6375545175950826,0.6,1.0,1.0,362.0,768.0,1.0,1,130.0,1
808,808,0.7577274086790197,0.8,1.0,1.0,372.0,731.0,1.0,1,157.0,1
809,809,-0.8960781615028616,-0.9,1.0,0.0,474.0,965.0,0.0,0,201.0,1
810,810,0.7795063755962724,0.8,1.0,1.0,383.0,918.0,1.0,1,159.0,1
811,811,-0.590488033204206,-0.6,1.0,0.0,256.0,837.0,0.0,0,107.0,1
812,812,0.6499200246943005,0.6,1.0,1.0,278.0,727.0,1.0,1,145.0,1
813,813,0.42371926410188177,0.4,0.0,0.0,358.0,741.0,0.0,1,731.0,1
814,814,0.09453431847094118,0.1,0.0,0.0,394.0,699.0,0.0,1,137.0,1
815,815,0.784791521410816,0.8,0.0,0.0,304.0,804.0,0.0,1,92.0,1
816,816,-0.5524904106553813,-0.6,0.0,1.0,252.0,669.0,1.0,0,269.0,1
817,817,0.29835967147667264,0.3,1.0,1.0,479.0,860.0,1.0,1,621.0,1
818,818,-0.28874066227792583,-0.3,1.0,0.0,291.0,762.0,0.0,0,1187.0,1
819,819,0.1516915177008339,0.2,0.0,0.0,413.0,823.0,0.0,1,1764.0,1
820,820,-0.85676326283464,-0.9,1.0,0.0,286.0,678.0,0.0,0,236.0,1
821,821,-0.841107127826084,-0.8,1.0,0.0,487.0,725.0,0.0,0,328.0,1
822,822,0.08182770552710428,0.1,1.0,1.0,337.0,978.0,1.0,1,1545.0,1
823,823,-0.2993926084091474,-0.3,0.0,1.0,458.0,794.0,1.0,0,338.0,1
824,824,-0.22167739227601968,-0.2,0.0,1.0,280.0,526.0,1.0,0,434.0,1
825,825,-0.5618871792341829,-0.6,1.0,0.0,432.0,894.0,0.0,0,634.0,1
826,826,0.48828506919328485,0.5,1.0,1.0,328.0,915.0,1.0,1,267.0,1
827,827,0.027458825897083705,0.0,0.0,0.0,279.0,660.0,1.0,0,751.0,0
828,828,-0.5441708341245565,-0.5,1.0,0.0,392.0,816.0,0.0,0,172.0,1
829,829,-0.22653029706301486,-0.2,0.0,1.0,461.0,796.0,1.0,0,1043.0,1
830,830,0.8835167653486745,0.9,0.0,0.0,350.0,891.0,0.0,1,79.0,1
831,831,-0.8068077809519799,-0.8,1.0,0.0,345.0,748.0,0.0,0,157.0,1
832,832,0.6583156716440887,0.7,1.0,1.0,487.0,589.0,1.0,1,274.0,1
833,833,-0.05861033915786551,-0.1,0.0,1.0,423.0,520.0,1.0,0,747.0,1
834,834,0.0685842990961163,0.1,1.0,1.0,409.0,707.0,1.0,1,1884.0,1
835,835,-0.05855597035376947,-0.1,1.0,0.0,281.0,928.0,0.0,0,1791.0,1
836,836,0.5808630158635165,0.6,0.0,0.0,436.0,576.0,0.0,1,148.0,1
837,837,0.018112228157222465,0.0,1.0,1.0,320.0,824.0,1.0,1,1856.0,1
838,838,0.33299727438433513,0.3,1.0,1.0,444.0,724.0,1.0,1,592.0,1
839,839,0.2031833057624438,0.2,0.0,0.0,462.0,654.0,0.0,1,884.0,1
840,840,0.16970225118215587,0.2,0.0,0.0,498.0,683.0,0.0,1,329.0,1
841,841,-0.7255460485189453,-0.7,1.0,0.0,451.0,820.0,0.0,0,189.0,1
842,842,-0.8549473291005096,-0.9,1.0,0.0,406.0,803.0,0.0,0,271.0,1
843,843,-0.7448864004936864,-0.7,1.0,0.0,483.0,956.0,0.0,0,131.0,1
844,844,0.1569654584322263,0.2,1.0,1.0,270.0,828.0,1.0,1,812.0,1
845,845,-0.3448734549400634,-0.3,1.0,0.0,419.0,648.0,0.0,0,603.0,1
846,846,-0.5328947852471296,-0.5,0.0,1.0,490.0,640.0,1.0,0,120.0,1
847,847,-0.74865814516204,-0.7,0.0,1.0,415.0,992.0,1.0,0,303.0,1
848,848,0.6756258845932052,0.7,1.0,1.0,258.0,672.0,1.0,1,210.0,1
849,849,-0.5128955052698785,-0.5,1.0,0.0,252.0,861.0,0.0,0,207.0,1
850,850,-0.08417477609190283,-0.1,0.0,1.0,451.0,929.0,1.0,0,500.0,1
851,851,-0.11073956824500875,-0.1,1.0,0.0,487.0,626.0,0.0,0,1647.0,1
852,852,-0.6176572821643683,-0.6,0.0,1.0,447.0,612.0,1.0,0,571.0,1
853,853,-0.6180440490900634,-0.6,1.0,0.0,391.0,796.0,0.0,0,183.0,1
854,854,0.6093399990308402,0.6,0.0,0.0,262.0,551.0,0.0,1,167.0,1
855,855,-0.49816336867022615,-0.5,0.0,1.0,372.0,994.0,1.0,0,134.0,1
856,856,-0.329615131944034,-0.3,0.0,1.0,460.0,656.0,1.0,0,424.0,1
857,857,-0.8873635994286728,-0.9,1.0,0.0,429.0,864.0,0.0,0,137.0,1
858,858,0.8437315169861245,0.8,1.0,1.0,333.0,606.0,1.0,1,331.0,1
859,859,0.4670975136207288,0.5,0.0,0.0,373.0,983.0,0.0,1,504.0,1
860,860,-0.8717231422239199,-0.9,1.0,0.0,330.0,501.0,0.0,0,469.0,1
861,861,-0.5328724496049322,-0.5,0.0,1.0,429.0,832.0,1.0,0,309.0,1
862,862,-0.07337730318156177,-0.1,1.0,0.0,413.0,514.0,0.0,0,2073.0,1
863,863,0.26350289518651915,0.3,1.0,1.0,364.0,891.0,1.0,1,1425.0,1
864,864,0.8374626976913152,0.8,1.0,1.0,364.0,580.0,1.0,1,226.0,1
865,865,0.004728896952790218,0.0,0.0,0.0,333.0,728.0,1.0,0,839.0,0
866,866,0.051766330154552676,0.1,1.0,1.0,430.0,574.0,1.0,1,1416.0,1
867,867,-0.4050043835357144,-0.4,0.0,1.0,260.0,566.0,1.0,0,104.0,1
868,868,0.7912949123351328,0.8,1.0,1.0,401.0,508.0,1.0,1,181.0,1
869,869,-0.6469718448650161,-0.6,1.0,0.0,421.0,733.0,0.0,0,276.0,1
870,870,0.2542833209801213,0.3,1.0,1.0,494.0,643.0,1.0,1,983.0,1
871,871,0.8875984909466174,0.9,1.0,1.0,375.0,788.0,1.0,1,157.0,1
872,872,-0.15966000126247715,-0.2,1.0,0.0,443.0,620.0,0.0,0,1937.0,1
873,873,-0.5303195488771342,-0.5,1.0,0.0,285.0,836.0,0.0,0,299.0,1
874,874,-0.10623862130689588,-0.1,0.0,1.0,290.0,773.0,1.0,0,1937.0,1
875,875,0.7428905940149108,0.7,0.0,0.0,469.0,771.0,0.0,1,230.0,1
876,876,-0.06445437156934486,-0.1,0.0,1.0,486.0,618.0,1.0,0,1646.0,1
877,877,0.4149446016541206,0.4,1.0,1.0,471.0,989.0,1.0,1,360.0,1
878,878,-0.28446048052874384,-0.3,0.0,1.0,473.0,702.0,1.0,0,155.0,1
879,879,-0.8379782711744647,-0.8,1.0,0.0,448.0,585.0,0.0,0,217.0,1
880,880,-0.2374575921376718,-0.2,1.0,0.0,289.0,985.0,0.0,0,1066.0,1
881,881,-0.5599137081569427,-0.6,1.0,0.0,427.0,970.0,0.0,0,453.0,1
882,882,0.7601232517872628,0.8,1.0,1.0,488.0,746.0,1.0,1,536.0,1
883,883,-0.7374112027491331,-0.7,1.0,0.0,495.0,788.0,0.0,0,377.0,1
884,884,0.5242549304964351,0.5,0.0,0.0,300.0,980.0,0.0,1,580.0,1
885,885,0.5177535831736532,0.5,1.0,1.0,369.0,521.0,1.0,1,610.0,1
886,886,0.5411669852114577,0.5,0.0,0.0,303.0,507.0,0.0,1,270.0,1
887,887,-0.5337884702019985,-0.5,0.0,1.0,255.0,963.0,1.0,0,312.0,1
888,888,0.6267050089188736,0.6,1.0,1.0,463.0,653.0,1.0,1,224.0,1
889,889,0.6774622134962304,0.7,1.0,1.0,426.0,809.0,1.0,1,235.0,1
890,890,-0.1501509633639333,-0.2,0.0,1.0,473.0,801.0,1.0,0,546.0,1
891,891,0.0941907377892448,0.1,0.0,0.0,281.0,514.0,0.0,1,1215.0,1
892,892,0.8108679863688576,0.8,1.0,1.0,430.0,688.0,1.0,1,192.0,1
893,893,0.5176325218284469,0.5,1.0,1.0,293.0,844.0,1.0,1,413.0,1
894,894,-0.840886250290547,-0.8,0.0,1.0,409.0,814.0,1.0,0,147.0,1
895,895,0.24878925873003166,0.2,1.0,1.0,438.0,726.0,1.0,1,1506.0,1
896,896,0.3323661321252508,0.3,0.0,0.0,263.0,988.0,0.0,1,879.0,1
897,897,0.41860880544088397,0.4,0.0,0.0,476.0,616.0,0.0,1,358.0,1
898,898,-0.8062193238427212,-0.8,1.0,0.0,404.0,876.0,0.0,0,440.0,1
899,899,0.20772465170845023,0.2,0.0,0.0,319.0,617.0,0.0,1,664.0,1
900,900,0.4625732441850635,0.5,0.0,0.0,380.0,679.0,0.0,1,231.0,1
901,901,-0.029609116381246525,-0.0,0.0,1.0,285.0,965.0,1.0,0,1750.0,1
902,902,0.5782265712927867,0.6,0.0,0.0,432.0,746.0,0.0,1,482.0,1
903,903,-0.2551056330494339,-0.3,0.0,1.0,280.0,590.0,1.0,0,750.0,1
904,904,-0.7172033080541941,-0.7,0.0,1.0,315.0,854.0,1.0,0,211.0,1
905,905,0.5577667230422073,0.6,0.0,0.0,392.0,556.0,0.0,1,202.0,1
906,906,0.24056843360738023,0.2,0.0,0.0,491.0,565.0,1.0,0,-36.0,0
907,907,0.1585575895514405,0.2,0.0,0.0,299.0,649.0,0.0,1,1452.0,1
908,908,-0.25039475919628273,-0.3,0.0,1.0,485.0,776.0,1.0,0,489.0,1
909,909,-0.5427186318848713,-0.5,1.0,0.0,293.0,833.0,0.0,0,274.0,1
910,910,0.5345221016106662,0.5,1.0,1.0,445.0,609.0,1.0,1,486.0,1
911,911,-0.7121251788602286,-0.7,1.0,0.0,476.0,651.0,0.0,0,293.0,1
912,912,0.5873108908627861,0.6,1.0,1.0,355.0,997.0,1.0,1,298.0,1
913,913,-0.5298734126897844,-0.5,1.0,0.0,451.0,780.0,0.0,0,479.0,1
914,914,0.8449071478271298,0.8,1.0,1.0,377.0,589.0,1.0,1,284.0,1
915,915,-0.03229078371873817,-0.0,0.0,1.0,307.0,518.0,0.0,1,2175.0,0
916,916,-0.2182997225466884,-0.2,0.0,1.0,328.0,793.0,1.0,0,709.0,1
917,917,-0.3457031819144565,-0.3,1.0,0.0,386.0,652.0,0.0,0,582.0,1
918,918,0.30938206399848267,0.3,1.0,1.0,369.0,937.0,1.0,1,504.0,1
919,919,0.501021021704592,0.5,0.0,0.0,353.0,568.0,0.0,1,439.0,1
920,920,0.4433983750079792,0.4,0.0,0.0,498.0,971.0,0.0,1,441.0,1
921,921,0.08182678754072237,0.1,1.0,1.0,462.0,600.0,1.0,1,1508.0,1
922,922,0.003088417068600524,0.0,0.0,0.0,389.0,892.0,0.0,1,1719.0,1
923,923,-0.5512888493190713,-0.6,0.0,1.0,385.0,785.0,1.0,0,510.0,1
924,924,-0.45588888225820473,-0.5,0.0,1.0,472.0,849.0,1.0,0,209.0,1
925,925,-0.12955748982339665,-0.1,0.0,1.0,381.0,699.0,1.0,0,900.0,1
926,926,0.35595654272207133,0.4,0.0,0.0,492.0,745.0,0.0,1,623.0,1
927,927,0.7968174411601753,0.8,1.0,1.0,371.0,599.0,1.0,1,140.0,1
928,928,-0.4279801533647915,-0.4,1.0,0.0,489.0,797.0,0.0,0,284.0,1
929,929,-0.8156880845879775,-0.8,1.0,0.0,382.0,796.0,0.0,0,232.0,1
930,930,-0.7561749839809839,-0.8,0.0,1.0,399.0,554.0,1.0,0,277.0,1
931,931,0.7469512979239797,0.7,1.0,1.0,427.0,698.0,1.0,1,105.0,1
932,932,-0.008695748418562577,-0.0,1.0,0.0,261.0,573.0,1.0,1,2166.0,0
933,933,0.4495212470911888,0.4,1.0,1.0,420.0,837.0,1.0,1,353.0,1
934,934,0.7097121224544626,0.7,0.0,0.0,445.0,671.0,0.0,1,384.0,1
935,935,-0.7816513935339633,-0.8,1.0,0.0,447.0,659.0,0.0,0,214.0,1
936,936,-0.24602514797555664,-0.2,1.0,0.0,458.0,750.0,0.0,0,1792.0,1
937,937,-0.5497096962148984,-0.5,0.0,1.0,492.0,834.0,1.0,0,84.0,1
938,938,0.3659776520071326,0.4,0.0,0.0,481.0,640.0,0.0,1,399.0,1
939,939,-0.8004449955401011,-0.8,0.0,1.0,451.0,818.0,1.0,0,141.0,1
940,940,-0.3257691610250346,-0.3,0.0,1.0,447.0,500.0,1.0,0,823.0,1
941,941,-0.7966274127643376,-0.8,0.0,1.0,395.0,864.0,1.0,0,51.0,1
942,942,0.1014544753547223,0.1,1.0,1.0,418.0,577.0,1.0,1,1285.0,1
943,943,0.896955776210366,0.9,0.0,0.0,392.0,670.0,0.0,1,178.0,1
944,944,-0.2034699808636785,-0.2,0.0,1.0,400.0,808.0,1.0,0,392.0,1
945,945,0.825913198989635,0.8,1.0,1.0,286.0,516.0,1.0,1,338.0,1
946,946,-0.06502345073423565,-0.1,1.0,0.0,324.0,657.0,1.0,1,9.0,0
947,947,-0.12114271684121902,-0.1,1.0,0.0,372.0,534.0,0.0,0,2094.0,1
948,948,0.23113133980818834,0.2,1.0,1.0,471.0,744.0,1.0,1,1095.0,1
949,949,0.2788767980455379,0.3,1.0,1.0,341.0,773.0,1.0,1,296.0,1
950,950,-0.7988901914966986,-0.8,1.0,0.0,421.0,895.0,0.0,0,184.0,1
951,951,0.46818281751318647,0.5,1.0,1.0,462.0,540.0,1.0,1,188.0,1
952,952,0.3292454226480864,0.3,0.0,0.0,335.0,584.0,0.0,1,761.0,1
953,953,-0.8539282424248961,-0.9,1.0,0.0,413.0,747.0,0.0,0,340.0,1
954,954,-0.0751470824563798,-0.1,1.0,0.0,333.0,758.0,0.0,0,1089.0,1
955,955,0.43450751736900706,0.4,1.0,1.0,260.0,952.0,1.0,1,428.0,1
956,956,0.47497347539418777,0.5,0.0,0.0,335.0,776.0,0.0,1,129.0,1
957,957,0.11138312144405804,0.1,1.0,1.0,437.0,619.0,1.0,1,914.0,1
958,958,-0.25346920115799654,-0.3,0.0,1.0,349.0,515.0,1.0,0,596.0,1
959,959,0.23971613655972235,0.2,0.0,0.0,464.0,502.0,0.0,1,454.0,1
960,960,-0.14117483509430695,-0.1,0.0,1.0,251.0,957.0,1.0,0,202.0,1
961,961,0.8608820791493238,0.9,1.0,1.0,316.0,993.0,1.0,1,131.0,1
962,962,-0.7394657287322848,-0.7,0.0,1.0,452.0,844.0,1.0,0,224.0,1
963,963,-0.8905708067088963,-0.9,0.0,1.0,418.0,750.0,1.0,0,172.0,1
964,964,0.8218115837251329,0.8,1.0,1.0,283.0,683.0,1.0,1,94.0,1
965,965,-0.4164936046641315,-0.4,1.0,0.0,496.0,619.0,0.0,0,315.0,1
966,966,0.4918380226764648,0.5,1.0,1.0,339.0,728.0,1.0,1,153.0,1
967,967,0.17307448152108507,0.2,1.0,1.0,395.0,505.0,1.0,1,690.0,1
968,968,-0.6569482427062243,-0.7,0.0,1.0,305.0,908.0,1.0,0,157.0,1
969,969,0.21331198610621682,0.2,1.0,1.0,399.0,761.0,1.0,1,230.0,1
970,970,-0.4483397481767521,-0.4,1.0,0.0,338.0,594.0,0.0,0,198.0,1
971,971,-0.8081216504174861,-0.8,1.0,0.0,463.0,751.0,0.0,0,266.0,1
972,972,0.8557545550784146,0.9,0.0,0.0,408.0,883.0,0.0,1,99.0,1
973,973,0.1659884074624468,0.2,0.0,0.0,495.0,991.0,0.0,1,894.0,1
974,974,-0.38578709820383483,-0.4,0.0,1.0,435.0,655.0,1.0,0,320.0,1
975,975,0.3560474774076666,0.4,0.0,0.0,453.0,858.0,0.0,1,389.0,1
976,976,-0.4098792039876467,-0.4,0.0,1.0,459.0,830.0,1.0,0,451.0,1
977,977,0.8486964976814432,0.8,0.0,0.0,454.0,894.0,0.0,1,242.0,1
978,978,-0.7411880723982068,-0.7,0.0,1.0,308.0,874.0,1.0,0,238.0,1
979,979,0.5849714545239854,0.6,1.0,1.0,358.0,936.0,1.0,1,296.0,1
980,980,0.8009929714548966,0.8,0.0,0.0,494.0,912.0,0.0,1,414.0,1
981,981,0.46987630721551754,0.5,1.0,1.0,318.0,811.0,1.0,1,371.0,1
982,982,-0.1288026615278638,-0.1,0.0,1.0,385.0,638.0,1.0,0,707.0,1
983,983,-0.6491705484241062,-0.6,0.0,1.0,294.0,781.0,1.0,0,155.0,1
984,984,-0.862903667598607,-0.9,1.0,0.0,439.0,792.0,0.0,0,119.0,1
985,985,-0.31574307599782536,-0.3,0.0,1.0,391.0,706.0,1.0,0,433.0,1
986,986,-0.759659605508528,-0.8,1.0,0.0,457.0,612.0,0.0,0,351.0,1
987,987,0.48734683063477224,0.5,0.0,0.0,438.0,605.0,0.0,1,307.0,1
988,988,0.2856337598452704,0.3,0.0,0.0,294.0,902.0,0.0,1,1714.0,1
989,989,0.23093502405462119,0.2,1.0,1.0,349.0,948.0,1.0,1,553.0,1
990,990,0.059316904510839374,0.1,0.0,0.0,348.0,630.0,0.0,1,2022.0,1
991,991,-0.00939195524283798,-0.0,0.0,1.0,357.0,662.0,1.0,0,251.0,1
992,992,-0.33765268925126923,-0.3,0.0,1.0,393.0,721.0,1.0,0,216.0,1
993,993,0.08954051574410604,0.1,1.0,1.0,315.0,544.0,1.0,1,1481.0,1
994,994,-0.7055912880410065,-0.7,0.0,1.0,360.0,962.0,1.0,0,188.0,1
995,995,-0.5748267762482866,-0.6,0.0,1.0,400.0,886.0,1.0,0,244.0,1
996,996,0.4122475212866109,0.4,1.0,1.0,260.0,739.0,1.0,1,211.0,1
997,997,-0.24181587527521753,-0.2,0.0,1.0,304.0,702.0,1.0,0,844.0,1
998,998,0.05214680409498529,0.1,1.0,1.0,303.0,676.0,1.0,1,2021.0,1
999,999,0.4518297238937815,0.5,0.0,0.0,450.0,837.0,0.0,1,173.0,1
1000,1000,0.41532167429603295,0.4,1.0,1.0,346.0,828.0,1.0,1,296.0,1
1001,1001,0.1923098194332432,0.2,0.0,0.0,420.0,600.0,0.0,1,1980.0,1
1002,1002,0.21745075270375402,0.2,1.0,1.0,260.0,858.0,1.0,1,382.0,1
1003,1003,-0.6383529416051874,-0.6,0.0,1.0,376.0,935.0,1.0,0,39.0,1
1004,1004,0.12409448881770213,0.1,0.0,0.0,271.0,719.0,1.0,0,-180.0,0
1005,1005,0.4472566125843197,0.4,0.0,0.0,302.0,860.0,0.0,1,318.0,1
1006,1006,-0.6245560839107465,-0.6,1.0,0.0,363.0,597.0,0.0,0,310.0,1
1007,1007,0.5200632551303138,0.5,0.0,0.0,402.0,600.0,0.0,1,598.0,1
1008,1008,0.5205791193281494,0.5,1.0,1.0,320.0,851.0,1.0,1,179.0,1
1009,1009,-0.6178705880804284,-0.6,0.0,1.0,298.0,672.0,1.0,0,250.0,1
1010,1010,0.1895159427652916,0.2,0.0,0.0,372.0,738.0,0.0,1,860.0,1
1011,1011,0.13602301088441615,0.1,0.0,0.0,329.0,509.0,0.0,1,1072.0,1
1012,1012,-0.05218345931427659,-0.1,1.0,0.0,452.0,997.0,0.0,0,1551.0,1
1013,1013,0.7596664630681024,0.8,0.0,0.0,477.0,817.0,0.0,1,186.0,1
1014,1014,0.4681039726777957,0.5,0.0,0.0,496.0,885.0,0.0,1,219.0,1
1015,1015,-0.8685417742594789,-0.9,0.0,1.0,286.0,667.0,1.0,0,147.0,1
1016,1016,0.5839026869727687,0.6,0.0,0.0,389.0,697.0,0.0,1,184.0,1
1017,1017,-0.8536375449014676,-0.9,0.0,1.0,474.0,621.0,1.0,0,165.0,1
1018,1018,-0.8276178905082547,-0.8,1.0,0.0,260.0,929.0,0.0,0,101.0,1
1019,1019,0.622088393838537,0.6,1.0,1.0,298.0,999.0,1.0,1,113.0,1
1020,1020,-0.05010229366493424,-0.1,1.0,0.0,314.0,970.0,0.0,0,1716.0,1
1021,1021,-0.2778539371715937,-0.3,1.0,0.0,365.0,629.0,0.0,0,946.0,1
1022,1022,0.429200983874482,0.4,0.0,0.0,442.0,575.0,0.0,1,673.0,1
1023,1023,0.46495797385777726,0.5,0.0,0.0,492.0,845.0,0.0,1,363.0,1
1024,1024,0.13922066814865663,0.1,0.0,0.0,267.0,847.0,0.0,1,1886.0,1
1025,1025,-0.10861971519907687,-0.1,0.0,1.0,410.0,519.0,1.0,0,451.0,1
1026,1026,0.713256699169106,0.7,0.0,0.0,283.0,942.0,0.0,1,165.0,1
1027,1027,-0.7685929383298998,-0.8,0.0,1.0,268.0,927.0,1.0,0,125.0,1
1028,1028,-0.4444747356834795,-0.4,0.0,1.0,297.0,861.0,1.0,0,342.0,1
1029,1029,0.007666416461604819,0.0,1.0,1.0,480.0,665.0,1.0,1,1855.0,1
1030,1030,-0.5913464928189318,-0.6,0.0,1.0,275.0,646.0,1.0,0,159.0,1
1031,1031,-0.8523785441012792,-0.9,0.0,1.0,332.0,563.0,1.0,0,325.0,1
1032,1032,-0.5054287240126627,-0.5,0.0,1.0,412.0,522.0,1.0,0,206.0,1
1033,1033,0.14884503399983184,0.1,0.0,0.0,466.0,911.0,0.0,1,1623.0,1
1034,1034,-0.6202887497292492,-0.6,0.0,1.0,278.0,569.0,1.0,0,143.0,1
1035,1035,0.4932453616150382,0.5,0.0,0.0,356.0,772.0,0.0,1,222.0,1
1036,1036,-0.8902375917888068,-0.9,1.0,0.0,419.0,766.0,0.0,0,135.0,1
1037,1037,0.0603108202665773,0.1,0.0,0.0,381.0,659.0,0.0,1,1960.0,1
1038,1038,0.4598505026752845,0.5,0.0,0.0,439.0,772.0,0.0,1,269.0,1
1039,1039,0.07518107481749647,0.1,0.0,0.0,455.0,939.0,0.0,1,1606.0,1
1040,1040,0.5304681503949954,0.5,0.0,0.0,337.0,509.0,0.0,1,194.0,1
1041,1041,-0.01629403445784261,-0.0,1.0,0.0,420.0,767.0,0.0,0,1813.0,1
1042,1042,0.0724256718765407,0.1,1.0,1.0,319.0,631.0,1.0,1,1570.0,1
1043,1043,-0.5898619827626661,-0.6,0.0,1.0,349.0,636.0,1.0,0,35.0,1
1044,1044,0.4501559350916221,0.5,1.0,1.0,450.0,900.0,1.0,1,340.0,1
1045,1045,-0.8972769597950012,-0.9,0.0,1.0,265.0,822.0,1.0,0,153.0,1
1046,1046,-0.6106238975987941,-0.6,0.0,1.0,312.0,513.0,1.0,0,335.0,1
1047,1047,0.49660019872345085,0.5,0.0,0.0,304.0,566.0,0.0,1,300.0,1
1048,1048,0.4854735650642573,0.5,0.0,0.0,346.0,893.0,0.0,1,301.0,1
1049,1049,-0.7262486160869089,-0.7,0.0,1.0,394.0,565.0,1.0,0,231.0,1
1050,1050,0.1725752186465329,0.2,0.0,0.0,458.0,781.0,0.0,1,1761.0,1
1051,1051,0.8826794409746327,0.9,0.0,0.0,437.0,827.0,0.0,1,266.0,1
1052,1052,-0.20058421741003452,-0.2,1.0,0.0,473.0,517.0,0.0,0,1730.0,1
1053,1053,-0.14418047192599515,-0.1,0.0,1.0,359.0,674.0,1.0,0,617.0,1
1054,1054,-0.8006275918223428,-0.8,1.0,0.0,308.0,582.0,0.0,0,260.0,1
1055,1055,-0.2989408822349813,-0.3,1.0,0.0,321.0,649.0,0.0,0,710.0,1
1056,1056,-0.8387299078500139,-0.8,0.0,1.0,371.0,847.0,1.0,0,172.0,1
1057,1057,-0.8052712568011225,-0.8,1.0,0.0,364.0,992.0,0.0,0,154.0,1
1058,1058,0.6966826564763816,0.7,0.0,0.0,441.0,952.0,0.0,1,127.0,1
1059,1059,0.15467273085444988,0.2,1.0,1.0,456.0,524.0,1.0,1,1030.0,1
1060,1060,0.33505161545170126,0.3,0.0,0.0,375.0,847.0,0.0,1,228.0,1
1061,1061,-0.11014045195015487,-0.1,0.0,1.0,473.0,626.0,1.0,0,291.0,1
1062,1062,0.05903598438647795,0.1,0.0,0.0,252.0,756.0,0.0,1,1992.0,1
1063,1063,0.55824768976868,0.6,1.0,1.0,369.0,892.0,1.0,1,129.0,1
1064,1064,0.601219236839886,0.6,0.0,0.0,469.0,737.0,0.0,1,254.0,1
1065,1065,-0.7345666529029651,-0.7,1.0,0.0,322.0,594.0,0.0,0,194.0,1
1066,1066,0.5757720099123936,0.6,1.0,1.0,321.0,905.0,1.0,1,184.0,1
1067,1067,-0.8174132610089628,-0.8,1.0,0.0,473.0,953.0,0.0,0,214.0,1
1068,1068,0.02076931208686328,0.0,1.0,1.0,452.0,580.0,0.0,0,1968.0,0
1069,1069,-0.3166841080156414,-0.3,1.0,0.0,382.0,828.0,0.0,0,220.0,1
1070,1070,0.19366046725171027,0.2,1.0,1.0,304.0,696.0,1.0,1,510.0,1
1071,1071,-0.5273591930354534,-0.5,0.0,1.0,473.0,990.0,1.0,0,297.0,1
1072,1072,0.883893745684272,0.9,0.0,0.0,441.0,527.0,0.0,1,202.0,1
1073,1073,-0.448960240948462,-0.4,0.0,1.0,432.0,825.0,1.0,0,453.0,1
1074,1074,-0.5025426465043378,-0.5,1.0,0.0,332.0,541.0,0.0,0,227.0,1
1075,1075,-0.7060664519186446,-0.7,0.0,1.0,454.0,803.0,1.0,0,683.0,1
1076,1076,-0.03395350351738535,-0.0,1.0,0.0,423.0,998.0,1.0,1,1579.0,0
1077,1077,0.5722940078366908,0.6,1.0,1.0,473.0,805.0,1.0,1,292.0,1
1078,1078,-0.7722196355600464,-0.8,0.0,1.0,449.0,734.0,1.0,0,187.0,1
1079,1079,-0.2600023138461788,-0.3,1.0,0.0,468.0,887.0,0.0,0,1365.0,1
1080,1080,-0.8512568701928446,-0.9,1.0,0.0,351.0,894.0,0.0,0,135.0,1
1081,1081,-0.0921770343449243,-0.1,0.0,1.0,313.0,726.0,1.0,0,1961.0,1
1082,1082,-0.5049820035643346,-0.5,1.0,0.0,285.0,824.0,0.0,0,401.0,1
1083,1083,0.2948337738481207,0.3,1.0,1.0,470.0,736.0,1.0,1,174.0,1
1084,1084,0.6083672262054288,0.6,0.0,0.0,396.0,504.0,0.0,1,340.0,1
1085,1085,0.718347143187252,0.7,0.0,0.0,487.0,912.0,0.0,1,291.0,1
1086,1086,0.5836103831971643,0.6,0.0,0.0,299.0,627.0,0.0,1,154.0,1
1087,1087,0.49775504257050474,0.5,0.0,0.0,375.0,703.0,0.0,1,822.0,1
1088,1088,-0.8246399656977641,-0.8,1.0,0.0,314.0,661.0,0.0,0,185.0,1
1089,1089,-0.3059368094195256,-0.3,0.0,1.0,328.0,957.0,1.0,0,275.0,1
1090,1090,0.38789573055968807,0.4,1.0,1.0,315.0,638.0,1.0,1,377.0,1
1091,1091,0.08228539915623212,0.1,1.0,1.0,293.0,506.0,1.0,1,1841.0,1
1092,1092,-0.51960352681379,-0.5,1.0,0.0,493.0,877.0,0.0,0,230.0,1
1093,1093,0.7587018441732828,0.8,0.0,0.0,310.0,730.0,0.0,1,290.0,1
1094,1094,0.3323089862943257,0.3,0.0,0.0,393.0,733.0,0.0,1,544.0,1
1095,1095,-0.7495694422576112,-0.7,0.0,1.0,424.0,977.0,1.0,0,279.0,1
1096,1096,-0.0466469142982322,-0.0,0.0,1.0,364.0,898.0,1.0,0,928.0,1
1097,1097,-0.6644553761841567,-0.7,0.0,1.0,495.0,992.0,1.0,0,213.0,1
1098,1098,-0.619014096297105,-0.6,1.0,0.0,267.0,934.0,0.0,0,359.0,1
1099,1099,-0.25975287213138276,-0.3,1.0,0.0,490.0,684.0,0.0,0,1476.0,1
1100,1100,0.6208713690916402,0.6,0.0,0.0,310.0,767.0,0.0,1,43.0,1
1101,1101,-0.041025850988003265,-0.0,1.0,0.0,456.0,528.0,1.0,1,2016.0,0
1102,1102,-0.5944014779263405,-0.6,1.0,0.0,498.0,524.0,0.0,0,248.0,1
1103,1103,0.48832168220726346,0.5,1.0,1.0,438.0,665.0,1.0,1,457.0,1
1104,1104,-0.2934048602575273,-0.3,1.0,0.0,342.0,523.0,0.0,0,175.0,1
1105,1105,0.6237053366381203,0.6,1.0,1.0,286.0,525.0,1.0,1,569.0,1
1106,1106,0.5523358724964732,0.6,1.0,1.0,262.0,651.0,1.0,1,177.0,1
1107,1107,0.8987713519477231,0.9,0.0,0.0,493.0,636.0,0.0,1,321.0,1
1108,1108,0.43144172321582286,0.4,1.0,1.0,313.0,995.0,1.0,1,492.0,1
1109,1109,-0.028861700286066605,-0.0,1.0,0.0,469.0,762.0,1.0,1,1769.0,0
1110,1110,-0.7016987188757482,-0.7,1.0,0.0,494.0,687.0,0.0,0,249.0,1
1111,1111,0.8163657756483363,0.8,0.0,0.0,479.0,668.0,0.0,1,363.0,1
1112,1112,-0.8994183031975045,-0.9,1.0,0.0,469.0,663.0,0.0,0,298.0,1
1113,1113,-0.5884092924537356,-0.6,1.0,0.0,343.0,935.0,0.0,0,262.0,1
1114,1114,-0.22230917072110223,-0.2,0.0,1.0,333.0,884.0,1.0,0,303.0,1
1115,1115,0.1219673056848739,0.1,0.0,0.0,494.0,781.0,0.0,1,1645.0,1
1116,1116,0.024305350834057382,0.0,1.0,1.0,461.0,828.0,0.0,0,1711.0,0
1117,1117,-0.8430497205865912,-0.8,0.0,1.0,256.0,601.0,1.0,0,173.0,1
1118,1118,-0.5554099446436653,-0.6,0.0,1.0,367.0,727.0,1.0,0,186.0,1
1119,1119,-0.10274307814591321,-0.1,0.0,1.0,259.0,899.0,1.0,0,1842.0,1
1120,1120,-0.5122399176132033,-0.5,1.0,0.0,277.0,580.0,0.0,0,273.0,1
1121,1121,0.3379432869461819,0.3,0.0,0.0,372.0,630.0,0.0,1,738.0,1
1122,1122,0.11168581294383217,0.1,1.0,1.0,494.0,915.0,1.0,1,1591.0,1
1123,1123,-0.808318779965196,-0.8,1.0,0.0,309.0,593.0,0.0,0,138.0,1
1124,1124,0.427573266509215,0.4,0.0,0.0,314.0,805.0,0.0,1,231.0,1
1125,1125,0.6279702699298323,0.6,1.0,1.0,499.0,837.0,1.0,1,384.0,1
1126,1126,-0.44925190948010935,-0.4,0.0,1.0,433.0,855.0,1.0,0,152.0,1
1127,1127,-0.8708279689962546,-0.9,1.0,0.0,337.0,706.0,0.0,0,677.0,1
1128,1128,0.8227352400680817,0.8,0.0,0.0,420.0,809.0,0.0,1,111.0,1
1129,1129,-0.42950133338945184,-0.4,1.0,0.0,358.0,699.0,0.0,0,783.0,1
1130,1130,0.7408815027803383,0.7,0.0,0.0,257.0,661.0,0.0,1,352.0,1
1131,1131,-0.7865848135663634,-0.8,0.0,1.0,321.0,893.0,1.0,0,156.0,1
1132,1132,0.38519770107861995,0.4,1.0,1.0,306.0,712.0,1.0,1,462.0,1
1133,1133,0.7635634484459951,0.8,0.0,0.0,456.0,646.0,0.0,1,308.0,1
1134,1134,-0.724762066855528,-0.7,0.0,1.0,318.0,658.0,1.0,0,164.0,1
1135,1135,-0.5922626760111234,-0.6,0.0,1.0,350.0,651.0,1.0,0,249.0,1
1136,1136,-0.2986298676364336,-0.3,0.0,1.0,259.0,958.0,1.0,0,453.0,1
1137,1137,-0.0008788681648072005,-0.0,0.0,1.0,406.0,550.0,1.0,0,1404.0,1
1138,1138,0.08684386676247802,0.1,1.0,1.0,328.0,691.0,0.0,0,1981.0,0
1139,1139,-0.8548998049887407,-0.9,1.0,0.0,462.0,732.0,0.0,0,256.0,1
1140,1140,0.123244526189355,0.1,0.0,0.0,495.0,875.0,0.0,1,1630.0,1
1141,1141,-0.733258617822998,-0.7,0.0,1.0,472.0,540.0,1.0,0,158.0,1
1142,1142,0.23767469205771274,0.2,1.0,1.0,314.0,752.0,1.0,1,474.0,1
1143,1143,0.5729729530407871,0.6,1.0,1.0,309.0,712.0,1.0,1,239.0,1
1144,1144,-0.524389746900058,-0.5,0.0,1.0,320.0,801.0,1.0,0,219.0,1
1145,1145,-0.7268224028717647,-0.7,1.0,0.0,339.0,791.0,0.0,0,160.0,1
1146,1146,-0.08884392186563816,-0.1,1.0,0.0,443.0,821.0,0.0,0,1736.0,1
1147,1147,0.33320160975655233,0.3,0.0,0.0,355.0,765.0,0.0,1,580.0,1
1148,1148,-0.8762553208507093,-0.9,1.0,0.0,332.0,511.0,0.0,0,187.0,1
1149,1149,0.22816457433279458,0.2,0.0,0.0,270.0,751.0,0.0,1,1979.0,1
1150,1150,0.3772480704227966,0.4,1.0,1.0,401.0,621.0,1.0,1,178.0,1
1151,1151,0.4706184999290538,0.5,0.0,0.0,494.0,877.0,0.0,1,169.0,1
1152,1152,0.01985205856836547,0.0,1.0,1.0,455.0,799.0,1.0,1,1746.0,1
1153,1153,-0.028568754036706,-0.0,0.0,1.0,358.0,968.0,1.0,0,1674.0,1
1154,1154,0.3394238728682767,0.3,0.0,0.0,366.0,997.0,0.0,1,247.0,1
1155,1155,-0.24775650168389085,-0.2,0.0,1.0,270.0,702.0,1.0,0,838.0,1
1156,1156,-0.038177352015600574,-0.0,1.0,0.0,463.0,665.0,0.0,0,1872.0,1
1157,1157,-0.5370028957993104,-0.5,1.0,0.0,292.0,899.0,0.0,0,199.0,1
1158,1158,-0.3180361995884642,-0.3,0.0,1.0,260.0,558.0,1.0,0,492.0,1
1159,1159,0.13032073697657431,0.1,1.0,1.0,352.0,659.0,1.0,1,1799.0,1
1160,1160,-0.45507725613270833,-0.5,1.0,0.0,359.0,636.0,0.0,0,365.0,1
1161,1161,0.1219012154725937,0.1,0.0,0.0,477.0,633.0,0.0,1,1440.0,1
1162,1162,-0.6038954771059568,-0.6,0.0,1.0,416.0,656.0,1.0,0,318.0,1
1163,1163,0.6879034075540548,0.7,1.0,1.0,394.0,674.0,1.0,1,212.0,1
1164,1164,0.7297862068804996,0.7,1.0,1.0,453.0,621.0,1.0,1,276.0,1
1165,1165,-0.6718792564495429,-0.7,0.0,1.0,409.0,921.0,1.0,0,210.0,1
1166,1166,0.8507607449457161,0.9,1.0,1.0,348.0,855.0,1.0,1,237.0,1
1167,1167,0.6592602528388588,0.7,1.0,1.0,448.0,584.0,1.0,1,158.0,1
1168,1168,-0.7612806239955895,-0.8,0.0,1.0,261.0,500.0,1.0,0,229.0,1
1169,1169,0.5940513061309564,0.6,1.0,1.0,416.0,888.0,1.0,1,676.0,1
1170,1170,-0.43946723985879216,-0.4,1.0,0.0,393.0,602.0,0.0,0,215.0,1
1171,1171,0.5368666729003039,0.5,1.0,1.0,441.0,502.0,1.0,1,337.0,1
1172,1172,-0.7350662170585951,-0.7,1.0,0.0,279.0,670.0,0.0,0,201.0,1
1173,1173,0.2260397613737718,0.2,0.0,0.0,293.0,912.0,0.0,1,965.0,1
1174,1174,-0.24225323865198112,-0.2,1.0,0.0,481.0,844.0,0.0,0,415.0,1
1175,1175,0.11146174613055326,0.1,1.0,1.0,293.0,606.0,1.0,1,2101.0,1
1176,1176,0.36294686235001195,0.4,1.0,1.0,307.0,760.0,1.0,1,373.0,1
1177,1177,-0.893248115421424,-0.9,1.0,0.0,451.0,972.0,0.0,0,277.0,1
1178,1178,0.2949764903949462,0.3,0.0,0.0,449.0,782.0,0.0,1,1229.0,1
1179,1179,-0.4289630872048522,-0.4,1.0,0.0,340.0,693.0,0.0,0,267.0,1
1180,1180,0.6800305969578088,0.7,0.0,0.0,377.0,908.0,0.0,1,165.0,1
1181,1181,0.12055861522471212,0.1,0.0,0.0,389.0,533.0,0.0,1,1298.0,1
1182,1182,-0.5676098165994514,-0.6,1.0,0.0,440.0,650.0,0.0,0,380.0,1
1183,1183,0.33122752854261595,0.3,0.0,0.0,263.0,549.0,0.0,1,608.0,1
1184,1184,-0.4614384268288189,-0.5,0.0,1.0,474.0,548.0,1.0,0,138.0,1
1185,1185,-0.16007307543772697,-0.2,0.0,1.0,330.0,543.0,1.0,0,857.0,1
1186,1186,-0.8105056771305839,-0.8,1.0,0.0,415.0,890.0,0.0,0,145.0,1
1187,1187,0.43636152206884826,0.4,0.0,0.0,254.0,574.0,0.0,1,282.0,1
1188,1188,-0.13067581311297516,-0.1,0.0,1.0,310.0,572.0,1.0,0,1188.0,1
1189,1189,0.07318075019046455,0.1,0.0,0.0,446.0,880.0,0.0,1,1674.0,1
1190,1190,-0.3232579052225395,-0.3,1.0,0.0,499.0,964.0,0.0,0,507.0,1
1191,1191,0.811240971612463,0.8,0.0,0.0,365.0,624.0,0.0,1,241.0,1
1192,1192,0.3867933024624356,0.4,0.0,0.0,267.0,636.0,0.0,1,587.0,1
1193,1193,0.5805869357038477,0.6,0.0,0.0,294.0,754.0,0.0,1,192.0,1
1194,1194,-0.1388984487528454,-0.1,1.0,0.0,437.0,549.0,0.0,0,2014.0,1
1195,1195,0.2582039122643637,0.3,1.0,1.0,451.0,834.0,1.0,1,395.0,1
1196,1196,0.5014956501493918,0.5,1.0,1.0,490.0,965.0,1.0,1,385.0,1
1197,1197,0.6491200286205311,0.6,1.0,1.0,311.0,719.0,1.0,1,50.0,1
1198,1198,0.254549056307248,0.3,0.0,0.0,389.0,998.0,0.0,1,783.0,1
1199,1199,0.7003736764053811,0.7,1.0,1.0,420.0,649.0,1.0,1,201.0,1
1200,1200,0.484656645173834,0.5,1.0,1.0,336.0,864.0,1.0,1,160.0,1
1201,1201,0.8507107648243156,0.9,1.0,1.0,282.0,794.0,1.0,1,214.0,1
1202,1202,-0.6692006905593479,-0.7,0.0,1.0,351.0,976.0,1.0,0,363.0,1
1203,1203,0.5968916761734445,0.6,1.0,1.0,412.0,627.0,1.0,1,271.0,1
1204,1204,-0.6163075497412949,-0.6,1.0,0.0,484.0,934.0,0.0,0,232.0,1
1205,1205,0.7082084316970944,0.7,1.0,1.0,496.0,990.0,1.0,1,324.0,1
1206,1206,0.7256801275445676,0.7,0.0,0.0,402.0,677.0,0.0,1,301.0,1
1207,1207,-0.8138252912007181,-0.8,1.0,0.0,467.0,940.0,1.0,1,-177.0,0
1208,1208,0.27211114130842884,0.3,0.0,0.0,252.0,927.0,0.0,1,451.0,1
1209,1209,0.8626535534895127,0.9,1.0,1.0,452.0,551.0,1.0,1,147.0,1
1210,1210,-0.30476335763194184,-0.3,0.0,1.0,369.0,544.0,1.0,0,907.0,1
1211,1211,-0.08247537217489509,-0.1,1.0,0.0,309.0,506.0,0.0,0,2185.0,1
1212,1212,-0.847833340832706,-0.8,1.0,0.0,356.0,791.0,0.0,0,313.0,1
1213,1213,-0.5621251360882968,-0.6,1.0,0.0,304.0,646.0,0.0,0,530.0,1
1214,1214,0.857291470648455,0.9,0.0,0.0,416.0,972.0,0.0,1,202.0,1
1215,1215,0.19641314997084536,0.2,0.0,0.0,374.0,571.0,0.0,1,1595.0,1
1216,1216,-0.7120621104693199,-0.7,1.0,0.0,493.0,668.0,0.0,0,249.0,1
1217,1217,-0.5527818247800746,-0.6,1.0,0.0,354.0,567.0,0.0,0,339.0,1
1218,1218,-0.29530249214496596,-0.3,0.0,1.0,493.0,666.0,1.0,0,451.0,1
1219,1219,-0.6261379395980472,-0.6,0.0,1.0,357.0,636.0,1.0,0,247.0,1
1220,1220,-0.3260274702444793,-0.3,0.0,1.0,487.0,710.0,1.0,0,463.0,1
1221,1221,-0.8300291881338654,-0.8,0.0,1.0,296.0,717.0,1.0,0,107.0,1
1222,1222,-0.31562291252603913,-0.3,0.0,1.0,294.0,958.0,1.0,0,608.0,1
1223,1223,-0.565720226408186,-0.6,1.0,0.0,489.0,911.0,0.0,0,600.0,1
1224,1224,-0.28913733947220743,-0.3,0.0,1.0,370.0,896.0,1.0,0,824.0,1
1225,1225,0.31118522820340455,0.3,1.0,1.0,327.0,884.0,1.0,1,239.0,1
1226,1226,0.5640502590367372,0.6,1.0,1.0,265.0,974.0,1.0,1,171.0,1
1227,1227,0.7010402222931095,0.7,1.0,1.0,432.0,960.0,1.0,1,218.0,1
1228,1228,-0.8323876367672348,-0.8,0.0,1.0,480.0,787.0,1.0,0,363.0,1
1229,1229,0.7224310925867453,0.7,0.0,0.0,267.0,852.0,0.0,1,241.0,1
1230,1230,-0.29620004968869573,-0.3,1.0,0.0,298.0,901.0,0.0,0,511.0,1
1231,1231,-0.060334496480342836,-0.1,0.0,1.0,440.0,900.0,1.0,0,1540.0,1
1232,1232,-0.680131116999617,-0.7,0.0,1.0,393.0,849.0,1.0,0,118.0,1
1233,1233,0.44657327444864425,0.4,0.0,0.0,484.0,609.0,0.0,1,457.0,1
1234,1234,0.7211673277908016,0.7,0.0,0.0,397.0,714.0,0.0,1,149.0,1
1235,1235,-0.5073824190000911,-0.5,1.0,0.0,424.0,960.0,0.0,0,226.0,1
1236,1236,0.09222122961330359,0.1,0.0,0.0,365.0,852.0,1.0,0,1783.0,0
1237,1237,-0.3766348732697271,-0.4,0.0,1.0,270.0,912.0,1.0,0,218.0,1
1238,1238,-0.588643964802143,-0.6,1.0,0.0,313.0,720.0,0.0,0,467.0,1
1239,1239,-0.17248818569846314,-0.2,0.0,1.0,347.0,832.0,1.0,0,741.0,1
1240,1240,0.15842134450431,0.2,1.0,1.0,444.0,823.0,1.0,1,473.0,1
1241,1241,-0.7244955281960058,-0.7,1.0,0.0,467.0,885.0,0.0,0,238.0,1
1242,1242,-0.24981821063802256,-0.2,0.0,1.0,486.0,822.0,1.0,0,772.0,1
1243,1243,-0.7999167506928015,-0.8,1.0,0.0,381.0,976.0,0.0,0,273.0,1
1244,1244,-0.4895463016558088,-0.5,1.0,0.0,351.0,827.0,0.0,0,332.0,1
1245,1245,0.1664226297755872,0.2,0.0,0.0,380.0,754.0,0.0,1,1806.0,1
1246,1246,0.6838540488962238,0.7,1.0,1.0,488.0,531.0,1.0,1,371.0,1
1247,1247,0.08346592992684598,0.1,1.0,1.0,368.0,773.0,1.0,1,1059.0,1
1248,1248,-0.07238039032016375,-0.1,0.0,1.0,336.0,728.0,1.0,0,1346.0,1
1249,1249,0.14872148375904592,0.1,1.0,1.0,266.0,518.0,1.0,1,1056.0,1
1250,1250,-0.408309366103188,-0.4,0.0,1.0,311.0,816.0,1.0,0,33.0,1
1251,1251,0.20300440527046237,0.2,1.0,1.0,286.0,892.0,1.0,1,892.0,1
1252,1252,-0.7236181256600254,-0.7,1.0,0.0,380.0,506.0,0.0,0,224.0,1
1253,1253,-0.2779597168020933,-0.3,0.0,1.0,395.0,836.0,1.0,0,629.0,1
1254,1254,-0.5851659454008549,-0.6,1.0,0.0,406.0,775.0,0.0,0,759.0,1
1255,1255,-0.6145119498882676,-0.6,1.0,0.0,482.0,737.0,0.0,0,231.0,1
1256,1256,-0.12076517836700618,-0.1,0.0,1.0,264.0,597.0,1.0,0,379.0,1
1257,1257,0.6164635419256222,0.6,0.0,0.0,441.0,851.0,0.0,1,218.0,1
1258,1258,-0.31346690962628077,-0.3,0.0,1.0,312.0,717.0,1.0,0,121.0,1
1259,1259,0.44388616206223264,0.4,0.0,0.0,281.0,705.0,0.0,1,424.0,1
1260,1260,0.040056392058830825,0.0,0.0,0.0,353.0,579.0,1.0,0,2068.0,0
1261,1261,0.37211933523638574,0.4,1.0,1.0,342.0,519.0,1.0,1,609.0,1
1262,1262,-0.6491936058305643,-0.6,1.0,0.0,250.0,779.0,0.0,0,411.0,1
1263,1263,0.8363253908180909,0.8,0.0,0.0,262.0,604.0,0.0,1,244.0,1
1264,1264,-0.6748270199148126,-0.7,1.0,0.0,457.0,709.0,0.0,0,204.0,1
1265,1265,-0.3284009010168215,-0.3,0.0,1.0,448.0,885.0,1.0,0,547.0,1
1266,1266,0.48953163160595936,0.5,0.0,0.0,325.0,878.0,0.0,1,457.0,1
1267,1267,0.00529277293856667,0.0,1.0,1.0,319.0,635.0,0.0,0,2046.0,0
1268,1268,-0.5131927677095371,-0.5,1.0,0.0,479.0,504.0,0.0,0,217.0,1
1269,1269,-0.04579288260641601,-0.0,0.0,1.0,314.0,918.0,1.0,0,808.0,1
1270,1270,0.5967860572299334,0.6,1.0,1.0,476.0,695.0,1.0,1,329.0,1
1271,1271,0.24649326948213146,0.2,1.0,1.0,342.0,647.0,1.0,1,-79.0,1
1272,1272,0.28141083953590573,0.3,0.0,0.0,463.0,594.0,0.0,1,353.0,1
1273,1273,0.5661302999456262,0.6,1.0,1.0,498.0,844.0,1.0,1,368.0,1
1274,1274,-0.7699057042892086,-0.8,1.0,0.0,317.0,847.0,0.0,0,316.0,1
1275,1275,-0.30322677957333755,-0.3,1.0,0.0,297.0,852.0,0.0,0,211.0,1
1276,1276,-0.08315909457011894,-0.1,1.0,0.0,477.0,502.0,0.0,0,1511.0,1
1277,1277,-0.4284508463461431,-0.4,1.0,0.0,371.0,803.0,0.0,0,576.0,1
1278,1278,-0.8072136449574915,-0.8,1.0,0.0,416.0,520.0,0.0,0,244.0,1
1279,1279,0.7929990202076996,0.8,0.0,0.0,415.0,813.0,0.0,1,692.0,1
1280,1280,0.5450788274021184,0.5,0.0,0.0,376.0,533.0,0.0,1,541.0,1
1281,1281,-0.47866630241756697,-0.5,1.0,0.0,392.0,566.0,0.0,0,532.0,1
1282,1282,0.1907127511394845,0.2,0.0,0.0,399.0,800.0,0.0,1,1801.0,1
1283,1283,-0.7839721409764489,-0.8,0.0,1.0,322.0,515.0,1.0,0,223.0,1
1284,1284,-0.02444554259685927,-0.0,0.0,1.0,302.0,979.0,0.0,1,1719.0,0
1285,1285,0.02562453864256098,0.0,0.0,0.0,393.0,992.0,0.0,1,1615.0,1
1286,1286,-0.46869886834873614,-0.5,0.0,1.0,489.0,848.0,1.0,0,263.0,1
1287,1287,0.3373204918602192,0.3,1.0,1.0,327.0,674.0,1.0,1,409.0,1
1288,1288,-0.7304419234067937,-0.7,0.0,1.0,271.0,730.0,1.0,0,299.0,1
1289,1289,-0.5273168827546761,-0.5,1.0,0.0,464.0,874.0,0.0,0,242.0,1
1290,1290,0.6656877482464753,0.7,1.0,1.0,267.0,933.0,1.0,1,110.0,1
1291,1291,-0.21694172430017444,-0.2,0.0,1.0,467.0,576.0,1.0,0,527.0,1
1292,1292,-0.7577645357093119,-0.8,1.0,0.0,467.0,634.0,0.0,0,259.0,1
1293,1293,0.5884129875704144,0.6,1.0,1.0,260.0,822.0,1.0,1,228.0,1
1294,1294,-0.21923643060436715,-0.2,0.0,1.0,306.0,811.0,1.0,0,343.0,1
1295,1295,-0.13352919204377156,-0.1,1.0,0.0,297.0,877.0,0.0,0,1826.0,1
1296,1296,0.5736390865824551,0.6,1.0,1.0,337.0,964.0,1.0,1,169.0,1
1297,1297,-0.34058027659785506,-0.3,0.0,1.0,302.0,905.0,1.0,0,293.0,1
1298,1298,-0.12311170282915662,-0.1,1.0,0.0,490.0,500.0,0.0,0,1480.0,1
1299,1299,0.17360846696642873,0.2,1.0,1.0,298.0,972.0,1.0,1,240.0,1
1300,1300,-0.23622717206691268,-0.2,1.0,0.0,376.0,753.0,0.0,0,651.0,1
1301,1301,0.2966498233664564,0.3,0.0,0.0,436.0,524.0,0.0,1,500.0,1
1302,1302,0.21291831136213968,0.2,0.0,0.0,322.0,871.0,0.0,1,1807.0,1
1303,1303,0.15071334833462224,0.2,0.0,0.0,257.0,948.0,0.0,1,1105.0,1
1304,1304,0.8637278826894043,0.9,0.0,0.0,463.0,528.0,0.0,1,229.0,1
1305,1305,-0.19048029689646873,-0.2,1.0,0.0,431.0,831.0,0.0,0,1738.0,1
1306,1306,0.8521995007052042,0.9,0.0,0.0,326.0,692.0,0.0,1,122.0,1
1307,1307,0.28706421896631407,0.3,0.0,0.0,471.0,654.0,0.0,1,865.0,1
1308,1308,-0.23250374691869347,-0.2,1.0,0.0,391.0,529.0,0.0,0,1440.0,1
1309,1309,0.5561099398818842,0.6,0.0,0.0,336.0,636.0,0.0,1,218.0,1
1310,1310,0.11218914557757043,0.1,1.0,1.0,458.0,925.0,1.0,1,1617.0,1
1311,1311,0.43894856465121157,0.4,1.0,1.0,301.0,750.0,1.0,1,319.0,1
1312,1312,-0.3532853076246686,-0.4,0.0,1.0,401.0,574.0,1.0,0,455.0,1
1313,1313,0.6626379049507097,0.7,0.0,0.0,277.0,602.0,0.0,1,421.0,1
1314,1314,0.28703967660507723,0.3,0.0,0.0,303.0,682.0,0.0,1,915.0,1
1315,1315,0.10665534956556721,0.1,1.0,1.0,251.0,888.0,1.0,1,171.0,1
1316,1316,-0.17842045906707338,-0.2,0.0,1.0,455.0,931.0,1.0,0,114.0,1
1317,1317,0.7755371512374326,0.8,1.0,1.0,479.0,874.0,1.0,1,177.0,1
1318,1318,0.8208201061651131,0.8,0.0,0.0,482.0,980.0,0.0,1,178.0,1
1319,1319,0.0942942239579998,0.1,1.0,1.0,267.0,914.0,1.0,1,1819.0,1
1320,1320,-0.23714181009239876,-0.2,1.0,0.0,267.0,678.0,0.0,0,1275.0,1
1321,1321,-0.8445509755774191,-0.8,1.0,0.0,476.0,530.0,0.0,0,554.0,1
1322,1322,-0.8748481050781052,-0.9,0.0,1.0,493.0,833.0,1.0,0,254.0,1
1323,1323,0.8511655998107363,0.9,0.0,0.0,427.0,944.0,0.0,1,269.0,1
1324,1324,-0.4311832368525732,-0.4,0.0,1.0,469.0,973.0,1.0,0,198.0,1
1325,1325,0.18968503289429284,0.2,1.0,1.0,345.0,706.0,1.0,1,709.0,1
1326,1326,-0.17347995671739846,-0.2,0.0,1.0,433.0,720.0,1.0,0,1127.0,1
1327,1327,0.6919373291156216,0.7,0.0,0.0,393.0,827.0,0.0,1,250.0,1
1328,1328,-0.6403243553795097,-0.6,1.0,0.0,270.0,604.0,0.0,0,346.0,1
1329,1329,0.4188947615940971,0.4,0.0,0.0,447.0,976.0,0.0,1,277.0,1
1330,1330,-0.7586386432650782,-0.8,1.0,0.0,250.0,542.0,0.0,0,208.0,1
1331,1331,-0.7594520275288881,-0.8,0.0,1.0,312.0,606.0,1.0,0,252.0,1
1332,1332,0.337742925440366,0.3,0.0,0.0,392.0,685.0,0.0,1,483.0,1
1333,1333,-0.4889290111662048,-0.5,1.0,0.0,442.0,827.0,0.0,0,131.0,1
1334,1334,-0.10128845187897695,-0.1,1.0,0.0,495.0,896.0,0.0,0,1609.0,1
1335,1335,-0.2864977163616266,-0.3,1.0,0.0,499.0,933.0,0.0,0,428.0,1
1336,1336,0.06578737645979005,0.1,1.0,1.0,476.0,708.0,1.0,1,1466.0,1
1337,1337,0.4974823127709157,0.5,1.0,1.0,439.0,844.0,1.0,1,267.0,1
1338,1338,0.7245998231519265,0.7,1.0,1.0,322.0,975.0,1.0,1,53.0,1
1339,1339,-0.5806776867642655,-0.6,1.0,0.0,494.0,927.0,0.0,0,249.0,1
1340,1340,-0.7137657587621203,-0.7,1.0,0.0,455.0,698.0,0.0,0,237.0,1
1341,1341,0.18806257735845178,0.2,1.0,1.0,314.0,685.0,1.0,1,541.0,1
1342,1342,-0.4532707310785947,-0.5,1.0,0.0,260.0,850.0,0.0,0,540.0,1
1343,1343,-0.2563372939878703,-0.3,1.0,0.0,294.0,710.0,0.0,0,316.0,1
1344,1344,0.016330569967874964,0.0,1.0,1.0,474.0,859.0,1.0,1,1667.0,1
1345,1345,-0.5142337269823496,-0.5,1.0,0.0,303.0,630.0,0.0,0,497.0,1
1346,1346,-0.10010053768484617,-0.1,1.0,0.0,287.0,750.0,1.0,1,1963.0,0
1347,1347,0.6528305271944149,0.7,1.0,1.0,380.0,656.0,1.0,1,344.0,1
1348,1348,0.23988919130428854,0.2,0.0,0.0,413.0,590.0,0.0,1,917.0,1
1349,1349,-0.3526309834612519,-0.4,1.0,0.0,252.0,829.0,0.0,0,819.0,1
1350,1350,0.6088429116141857,0.6,1.0,1.0,331.0,727.0,1.0,1,102.0,1
1351,1351,0.531709510022336,0.5,1.0,1.0,419.0,838.0,1.0,1,273.0,1
1352,1352,-0.44963802616380094,-0.4,0.0,1.0,381.0,502.0,1.0,0,507.0,1
1353,1353,0.5658411659019301,0.6,0.0,0.0,266.0,540.0,0.0,1,274.0,1
1354,1354,-0.030009073770634775,-0.0,1.0,0.0,397.0,719.0,0.0,0,1884.0,1
1355,1355,-0.6729479669760682,-0.7,1.0,0.0,294.0,843.0,0.0,0,403.0,1
1356,1356,-0.09826592586882843,-0.1,0.0,1.0,362.0,571.0,1.0,0,1337.0,1
1357,1357,-0.04002337762366359,-0.0,0.0,1.0,331.0,536.0,1.0,0,1333.0,1
1358,1358,-0.25470710808800656,-0.3,1.0,0.0,321.0,624.0,0.0,0,895.0,1
1359,1359,-0.1023470477795897,-0.1,1.0,0.0,353.0,817.0,0.0,0,1450.0,1
1360,1360,0.6558166661987309,0.7,1.0,1.0,369.0,625.0,1.0,1,236.0,1
1361,1361,-0.7277944973884246,-0.7,1.0,0.0,384.0,542.0,0.0,0,374.0,1
1362,1362,-0.5005211880632938,-0.5,0.0,1.0,332.0,620.0,1.0,0,468.0,1
1363,1363,0.41360598544555993,0.4,1.0,1.0,311.0,967.0,1.0,1,82.0,1
1364,1364,-0.6993617312306871,-0.7,0.0,1.0,346.0,838.0,1.0,0,226.0,1
1365,1365,-0.8839240188837781,-0.9,0.0,1.0,422.0,663.0,1.0,0,-35.0,1
1366,1366,0.7575838894717027,0.8,0.0,0.0,286.0,757.0,0.0,1,197.0,1
1367,1367,0.25473463803546925,0.3,0.0,0.0,479.0,524.0,0.0,1,677.0,1
1368,1368,-0.4721148170131985,-0.5,1.0,0.0,372.0,829.0,0.0,0,219.0,1
1369,1369,0.2834415703128216,0.3,0.0,0.0,288.0,637.0,0.0,1,185.0,1
1370,1370,0.595395415496465,0.6,1.0,1.0,309.0,583.0,1.0,1,178.0,1
1371,1371,0.08150256067076955,0.1,0.0,0.0,422.0,878.0,1.0,0,1060.0,0
1372,1372,0.3655109410140974,0.4,1.0,1.0,252.0,979.0,1.0,1,299.0,1
1373,1373,0.0632795246613419,0.1,1.0,1.0,470.0,911.0,1.0,1,1619.0,1
1374,1374,0.25689389945030683,0.3,0.0,0.0,382.0,828.0,0.0,1,1350.0,1
1375,1375,0.6433123496230398,0.6,0.0,0.0,479.0,740.0,0.0,1,161.0,1
1376,1376,-0.06314446169607779,-0.1,1.0,0.0,340.0,687.0,1.0,1,1973.0,0
1377,1377,-0.23745710684977928,-0.2,1.0,0.0,338.0,604.0,0.0,0,818.0,1
1378,1378,-0.023690630994740003,-0.0,0.0,1.0,307.0,849.0,1.0,0,1064.0,1
1379,1379,0.7986483586776837,0.8,1.0,1.0,267.0,709.0,1.0,1,164.0,1
1380,1380,-0.3576724933562275,-0.4,1.0,0.0,329.0,824.0,0.0,0,607.0,1
1381,1381,0.6652146994830556,0.7,0.0,0.0,272.0,904.0,0.0,1,524.0,1
1382,1382,0.03768400877463929,0.0,1.0,1.0,366.0,506.0,1.0,1,258.0,1
1383,1383,0.6602093421288052,0.7,1.0,1.0,472.0,953.0,1.0,1,175.0,1
1384,1384,-0.21975990068985474,-0.2,0.0,1.0,409.0,948.0,1.0,0,183.0,1
1385,1385,-0.8335357593622276,-0.8,1.0,0.0,304.0,829.0,0.0,0,167.0,1
1386,1386,-0.6339969619558281,-0.6,0.0,1.0,397.0,931.0,1.0,0,292.0,1
1387,1387,0.07414741368603317,0.1,1.0,1.0,447.0,683.0,1.0,1,620.0,1
1388,1388,0.41687653867653285,0.4,1.0,1.0,466.0,876.0,1.0,1,348.0,1
1389,1389,0.38018359711641037,0.4,1.0,1.0,446.0,537.0,1.0,1,377.0,1
1390,1390,0.22665370094571002,0.2,1.0,1.0,473.0,539.0,1.0,1,548.0,1
1391,1391,-0.6927829456925968,-0.7,0.0,1.0,409.0,640.0,1.0,0,181.0,1
1392,1392,0.6208873588779499,0.6,1.0,1.0,321.0,897.0,1.0,1,142.0,1
1393,1393,-0.7072865516036396,-0.7,1.0,0.0,436.0,975.0,0.0,0,389.0,1
1394,1394,-0.3380949319081775,-0.3,0.0,1.0,467.0,763.0,1.0,0,650.0,1
1395,1395,0.6315234620635589,0.6,1.0,1.0,468.0,537.0,1.0,1,225.0,1
1396,1396,0.379957167480551,0.4,0.0,0.0,409.0,747.0,0.0,1,274.0,1
1397,1397,0.6589880950404711,0.7,1.0,1.0,261.0,999.0,1.0,1,280.0,1
1398,1398,-0.6345223416817745,-0.6,1.0,0.0,382.0,657.0,0.0,0,201.0,1
1399,1399,-0.5471160801845691,-0.5,0.0,1.0,315.0,741.0,1.0,0,144.0,1
1400,1400,-0.3737443051740439,-0.4,1.0,0.0,485.0,993.0,0.0,0,342.0,1
1401,1401,0.1397918725970141,0.1,1.0,1.0,314.0,847.0,1.0,1,1699.0,1
1402,1402,-0.7564267751357054,-0.8,1.0,0.0,414.0,843.0,0.0,0,423.0,1
1403,1403,-0.6202742641581989,-0.6,0.0,1.0,361.0,990.0,1.0,0,129.0,1
1404,1404,-0.3189612795872756,-0.3,0.0,1.0,471.0,745.0,1.0,0,484.0,1
1405,1405,-0.3736386728553758,-0.4,0.0,1.0,323.0,582.0,1.0,0,555.0,1
1406,1406,-0.6733052038061766,-0.7,0.0,1.0,270.0,534.0,1.0,0,206.0,1
1407,1407,-0.5941879407366966,-0.6,0.0,1.0,444.0,779.0,1.0,0,297.0,1
1408,1408,-0.8730689751809868,-0.9,1.0,0.0,368.0,959.0,0.0,0,283.0,1
1409,1409,0.08345139029360915,0.1,0.0,0.0,353.0,875.0,1.0,0,1772.0,0
1410,1410,0.1960717369859345,0.2,1.0,1.0,262.0,904.0,1.0,1,814.0,1
1411,1411,0.0019358305790297958,0.0,0.0,0.0,251.0,544.0,0.0,1,2205.0,1
1412,1412,-0.18916684744536816,-0.2,0.0,1.0,303.0,583.0,1.0,0,264.0,1
1413,1413,0.6689880669162475,0.7,1.0,1.0,392.0,543.0,1.0,1,125.0,1
1414,1414,0.1465152104739723,0.1,1.0,1.0,372.0,572.0,1.0,1,736.0,1
1415,1415,-0.5844692526310427,-0.6,0.0,1.0,282.0,877.0,1.0,0,431.0,1
1416,1416,0.16328088615140157,0.2,1.0,1.0,365.0,920.0,1.0,1,1715.0,1
1417,1417,0.27401146153325173,0.3,0.0,0.0,367.0,959.0,0.0,1,424.0,1
1418,1418,0.44764313966739466,0.4,1.0,1.0,320.0,862.0,1.0,1,218.0,1
1419,1419,-0.4488114885258062,-0.4,1.0,0.0,289.0,507.0,0.0,0,434.0,1
1420,1420,0.703954604292849,0.7,0.0,0.0,394.0,918.0,1.0,0,-52.0,0
1421,1421,0.30929843303758575,0.3,1.0,1.0,284.0,501.0,1.0,1,475.0,1
1422,1422,-0.698883775242223,-0.7,1.0,0.0,434.0,655.0,0.0,0,371.0,1
1423,1423,0.4076083810846235,0.4,0.0,0.0,378.0,975.0,0.0,1,457.0,1
1424,1424,0.017869786872929616,0.0,1.0,1.0,483.0,647.0,1.0,1,1870.0,1
1425,1425,-0.8738045511682757,-0.9,0.0,1.0,346.0,897.0,1.0,0,317.0,1
1426,1426,-0.309845124951976,-0.3,0.0,1.0,324.0,781.0,1.0,0,815.0,1
1427,1427,-0.8313377463497884,-0.8,1.0,0.0,367.0,847.0,0.0,0,136.0,1
1428,1428,-0.3937548876664787,-0.4,0.0,1.0,254.0,857.0,1.0,0,259.0,1
1429,1429,-0.53324697097201,-0.5,0.0,1.0,294.0,589.0,1.0,0,327.0,1
1430,1430,0.6393384164380785,0.6,0.0,0.0,311.0,861.0,0.0,1,258.0,1
1431,1431,0.7746977237034011,0.8,0.0,0.0,388.0,633.0,0.0,1,239.0,1
1432,1432,0.05696495382115396,0.1,1.0,1.0,409.0,817.0,1.0,1,534.0,1
1433,1433,-0.5318131525485084,-0.5,0.0,1.0,465.0,763.0,1.0,0,402.0,1
1434,1434,-0.2965599227141622,-0.3,1.0,0.0,346.0,770.0,0.0,0,504.0,1
1435,1435,-0.1347177514880994,-0.1,1.0,0.0,478.0,677.0,0.0,0,1525.0,1
1436,1436,0.33340495853921437,0.3,1.0,1.0,293.0,539.0,1.0,1,488.0,1
1437,1437,-0.38827368625234804,-0.4,1.0,0.0,335.0,691.0,0.0,0,834.0,1
1438,1438,-0.5316831111037678,-0.5,0.0,1.0,330.0,710.0,1.0,0,240.0,1
1439,1439,0.21256142672259137,0.2,0.0,0.0,304.0,670.0,0.0,1,606.0,1
1440,1440,-0.21462287237457478,-0.2,1.0,0.0,355.0,677.0,0.0,0,798.0,1
1441,1441,-0.774911661628068,-0.8,0.0,1.0,399.0,731.0,1.0,0,320.0,1
1442,1442,-0.21605577203749604,-0.2,0.0,1.0,385.0,690.0,1.0,0,215.0,1
1443,1443,0.8133489788857814,0.8,0.0,0.0,317.0,539.0,0.0,1,244.0,1
1444,1444,0.8808696583965122,0.9,1.0,1.0,478.0,566.0,1.0,1,146.0,1
1445,1445,-0.7230140161142663,-0.7,0.0,1.0,332.0,600.0,1.0,0,298.0,1
1446,1446,-0.6852258684512885,-0.7,1.0,0.0,265.0,889.0,0.0,0,326.0,1
1447,1447,-0.029745518770035506,-0.0,0.0,1.0,309.0,808.0,1.0,0,1393.0,1
1448,1448,0.2679459305945239,0.3,0.0,0.0,257.0,754.0,0.0,1,339.0,1
1449,1449,0.7040556576930154,0.7,1.0,1.0,474.0,744.0,1.0,1,242.0,1
1450,1450,0.7117993996229263,0.7,0.0,0.0,261.0,551.0,0.0,1,368.0,1
1451,1451,0.695383449507441,0.7,0.0,0.0,297.0,896.0,0.0,1,197.0,1
1452,1452,-0.2776970573632537,-0.3,1.0,0.0,362.0,517.0,0.0,0,2121.0,1
1453,1453,-0.6706932558273657,-0.7,0.0,1.0,273.0,897.0,1.0,0,230.0,1
1454,1454,-0.09100430786731095,-0.1,1.0,0.0,327.0,756.0,0.0,0,1917.0,1
1455,1455,0.4308727788140069,0.4,0.0,0.0,487.0,966.0,0.0,1,457.0,1
1456,1456,0.36032243092099103,0.4,1.0,1.0,286.0,671.0,1.0,1,543.0,1
1457,1457,0.5268295661999763,0.5,1.0,1.0,358.0,900.0,1.0,1,202.0,1
1458,1458,0.1462263905828417,0.1,1.0,1.0,446.0,718.0,1.0,1,676.0,1
1459,1459,0.3238303714756746,0.3,0.0,0.0,261.0,643.0,0.0,1,426.0,1
1460,1460,0.726839026412507,0.7,0.0,0.0,465.0,503.0,0.0,1,152.0,1
1461,1461,-0.13416340691134088,-0.1,0.0,1.0,330.0,652.0,1.0,0,688.0,1
1462,1462,-0.29694575713251337,-0.3,0.0,1.0,389.0,765.0,1.0,0,336.0,1
1463,1463,-0.18685625574376508,-0.2,1.0,0.0,410.0,696.0,0.0,0,1724.0,1
1464,1464,0.2714112067614586,0.3,1.0,1.0,322.0,981.0,1.0,1,387.0,1
1465,1465,0.8944283300285106,0.9,1.0,1.0,260.0,736.0,1.0,1,64.0,1
1466,1466,-0.5044277830764795,-0.5,0.0,1.0,283.0,724.0,1.0,0,-57.0,1
1467,1467,-0.45979076017687887,-0.5,1.0,0.0,356.0,772.0,0.0,0,942.0,1
1468,1468,0.5429502263185505,0.5,0.0,0.0,276.0,606.0,0.0,1,548.0,1
1469,1469,-0.10459197004559284,-0.1,1.0,0.0,323.0,597.0,1.0,1,2080.0,0
1470,1470,-0.5399437114535618,-0.5,1.0,0.0,486.0,861.0,0.0,0,393.0,1
1471,1471,-0.22478218241283443,-0.2,0.0,1.0,491.0,898.0,1.0,0,451.0,1
1472,1472,-0.6452969786178668,-0.6,0.0,1.0,397.0,656.0,1.0,0,337.0,1
1473,1473,-0.16483999667998728,-0.2,0.0,1.0,322.0,932.0,1.0,0,526.0,1
1474,1474,0.45667230709832884,0.5,0.0,0.0,456.0,808.0,0.0,1,386.0,1
1475,1475,0.587988698234785,0.6,1.0,1.0,315.0,800.0,1.0,1,315.0,1
1476,1476,0.5611688066678117,0.6,0.0,0.0,363.0,779.0,0.0,1,328.0,1
1477,1477,0.5782141526410446,0.6,1.0,1.0,422.0,656.0,1.0,1,322.0,1
1478,1478,0.8538086813559315,0.9,0.0,0.0,351.0,676.0,0.0,1,103.0,1
1479,1479,0.17255928722110825,0.2,1.0,1.0,375.0,632.0,1.0,1,323.0,1
1480,1480,0.8911690054579452,0.9,1.0,1.0,461.0,543.0,1.0,1,166.0,1
1481,1481,0.3011767584414272,0.3,0.0,0.0,360.0,793.0,0.0,1,357.0,1
1482,1482,-0.8419729514140692,-0.8,0.0,1.0,383.0,551.0,1.0,0,316.0,1
1483,1483,0.22445601922162461,0.2,0.0,0.0,260.0,566.0,0.0,1,1744.0,1
1484,1484,-0.10202364035784184,-0.1,1.0,0.0,397.0,724.0,0.0,0,1259.0,1
1485,1485,-0.30107381100210884,-0.3,0.0,1.0,357.0,783.0,1.0,0,490.0,1
1486,1486,-0.031035954346356975,-0.0,0.0,1.0,410.0,906.0,1.0,0,1684.0,1
1487,1487,0.7984957511077674,0.8,0.0,0.0,302.0,881.0,0.0,1,187.0,1
1488,1488,0.206085578955563,0.2,1.0,1.0,385.0,784.0,1.0,1,721.0,1
1489,1489,-0.07349666903667873,-0.1,1.0,0.0,484.0,908.0,0.0,0,1608.0,1
1490,1490,0.5401704554124277,0.5,0.0,0.0,328.0,521.0,0.0,1,511.0,1
