,trial,coherence,coherence_bin,green_side,correct_side,target_onset,checker_onset,decision,green_decision,decision_time,correct_decision
0,0,-0.06920852814642375,-0.1,1.0,0.0,338.0,913.0,0.0,0,1749.0,1
1,1,-0.23599644626400984,-0.2,0.0,1.0,416.0,912.0,0.0,1,-8.0,0
2,2,0.2476746293078137,0.2,1.0,1.0,360.0,637.0,1.0,1,533.0,1
3,3,-0.1058341580375074,-0.1,0.0,1.0,462.0,698.0,1.0,0,650.0,1
4,4,0.2923188718629012,0.3,0.0,0.0,429.0,910.0,0.0,1,341.0,1
5,5,-0.29014494150857306,-0.3,1.0,0.0,313.0,863.0,0.0,0,214.0,1
6,6,-0.28779721207551345,-0.3,0.0,1.0,419.0,898.0,1.0,0,253.0,1
7,7,-0.3130758471851637,-0.3,0.0,1.0,292.0,839.0,1.0,0,199.0,1
8,8,0.09538728617220493,0.1,1.0,1.0,351.0,826.0,1.0,1,1483.0,1
9,9,0.8286554359362058,0.8,1.0,1.0,345.0,555.0,1.0,1,310.0,1
10,10,0.15990547620821982,0.2,0.0,0.0,430.0,586.0,0.0,1,584.0,1
11,11,0.6654483723812951,0.7,1.0,1.0,256.0,761.0,1.0,1,133.0,1
12,12,0.32852794852123324,0.3,1.0,1.0,431.0,850.0,1.0,1,249.0,1
13,13,0.519214254422815,0.5,1.0,1.0,331.0,943.0,0.0,0,-104.0,0
14,14,-0.7956641510790546,-0.8,0.0,1.0,339.0,568.0,1.0,0,193.0,1
15,15,0.8235739093670739,0.8,0.0,0.0,492.0,723.0,0.0,1,65.0,1
16,16,0.8426487578767575,0.8,1.0,1.0,371.0,640.0,1.0,1,149.0,1
17,17,-0.7735024563658857,-0.8,1.0,0.0,266.0,591.0,0.0,0,103.0,1
18,18,0.29239148644200974,0.3,0.0,0.0,306.0,634.0,0.0,1,100.0,1
19,19,-0.11824021949095342,-0.1,0.0,1.0,317.0,670.0,1.0,0,1623.0,1
20,20,0.6305945762500734,0.6,0.0,0.0,466.0,538.0,0.0,1,116.0,1
21,21,0.2659336749590723,0.3,1.0,1.0,397.0,648.0,1.0,1,855.0,1
22,22,0.09290162985311157,0.1,0.0,0.0,400.0,670.0,0.0,1,1110.0,1
23,23,-0.7957529427244222,-0.8,0.0,1.0,427.0,518.0,1.0,0,165.0,1
24,24,-0.7544388349651314,-0.8,0.0,1.0,462.0,798.0,1.0,0,210.0,1
25,25,0.8130524590939677,0.8,1.0,1.0,250.0,568.0,1.0,1,142.0,1
26,26,-0.24122924232257825,-0.2,1.0,0.0,386.0,550.0,0.0,0,444.0,1
27,27,0.26169506890264416,0.3,0.0,0.0,404.0,653.0,0.0,1,863.0,1
28,28,0.33248549505983716,0.3,0.0,0.0,460.0,773.0,0.0,1,157.0,1
29,29,-0.3816111504446901,-0.4,1.0,0.0,292.0,851.0,0.0,0,127.0,1
30,30,-0.7123486030949673,-0.7,1.0,0.0,437.0,663.0,0.0,0,80.0,1
31,31,0.2375217325520821,0.2,1.0,1.0,312.0,619.0,1.0,1,309.0,1
32,32,-0.27442509418861993,-0.3,0.0,1.0,278.0,780.0,1.0,0,162.0,1
33,33,-0.764405453437632,-0.8,0.0,1.0,318.0,764.0,1.0,0,238.0,1
34,34,0.34400656635189575,0.3,0.0,0.0,251.0,814.0,0.0,1,115.0,1
35,35,0.19474267733199635,0.2,1.0,1.0,254.0,780.0,1.0,1,356.0,1
36,36,0.6970284961457777,0.7,0.0,0.0,412.0,668.0,0.0,1,180.0,1
37,37,-0.04730541060226712,-0.0,0.0,1.0,266.0,535.0,1.0,0,2199.0,1
38,38,0.4779009761844427,0.5,1.0,1.0,435.0,671.0,1.0,1,604.0,1
39,39,-0.14637736928779788,-0.1,1.0,0.0,397.0,623.0,0.0,0,750.0,1
40,40,-0.7826215122591458,-0.8,1.0,0.0,349.0,711.0,0.0,0,130.0,1
41,41,-0.374967304721583,-0.4,0.0,1.0,250.0,885.0,1.0,0,365.0,1
42,42,-0.8831015135401145,-0.9,1.0,0.0,334.0,556.0,0.0,0,220.0,1
43,43,0.5849478895283163,0.6,1.0,1.0,432.0,986.0,1.0,1,112.0,1
44,44,-0.5673416261967128,-0.6,0.0,1.0,382.0,921.0,1.0,0,197.0,1
45,45,0.48636274720402983,0.5,1.0,1.0,366.0,770.0,1.0,1,224.0,1
46,46,0.6039358634050481,0.6,1.0,1.0,340.0,611.0,1.0,1,279.0,1
47,47,0.8267528141182342,0.8,0.0,0.0,391.0,593.0,0.0,1,266.0,1
48,48,0.056108965446301395,0.1,0.0,0.0,322.0,536.0,0.0,1,402.0,1
49,49,-0.27302963144868286,-0.3,0.0,1.0,263.0,837.0,1.0,0,240.0,1
50,50,-0.6164864876190009,-0.6,1.0,0.0,446.0,922.0,0.0,0,142.0,1
51,51,-0.40482227103726043,-0.4,1.0,0.0,429.0,633.0,0.0,0,278.0,1
52,52,0.8246683887542873,0.8,1.0,1.0,499.0,695.0,1.0,1,76.0,1
53,53,-0.4080693800696914,-0.4,0.0,1.0,391.0,504.0,1.0,0,395.0,1
54,54,0.6160366589506298,0.6,1.0,1.0,409.0,654.0,1.0,1,107.0,1
55,55,0.32350264027327313,0.3,1.0,1.0,333.0,685.0,1.0,1,222.0,1
56,56,0.6409189331559894,0.6,0.0,0.0,451.0,906.0,0.0,1,93.0,1
57,57,-0.3395217642828834,-0.3,1.0,0.0,347.0,964.0,0.0,0,349.0,1
58,58,0.4825751553193446,0.5,0.0,0.0,335.0,805.0,0.0,1,260.0,1
59,59,0.3246151831064662,0.3,1.0,1.0,451.0,954.0,1.0,1,105.0,1
60,60,0.3983874278734073,0.4,1.0,1.0,332.0,693.0,1.0,1,285.0,1
61,61,0.6689904384469306,0.7,0.0,0.0,342.0,797.0,0.0,1,231.0,1
62,62,-0.31915788141861146,-0.3,1.0,0.0,336.0,621.0,0.0,0,253.0,1
63,63,0.2138492522003682,0.2,1.0,1.0,254.0,598.0,1.0,1,368.0,1
64,64,0.6880756622375613,0.7,1.0,1.0,339.0,781.0,1.0,1,140.0,1
65,65,-0.6396641778686112,-0.6,0.0,1.0,342.0,616.0,1.0,0,302.0,1
66,66,-0.35904250763138057,-0.4,1.0,0.0,397.0,540.0,0.0,0,453.0,1
67,67,-0.6609185427734589,-0.7,0.0,1.0,412.0,991.0,1.0,0,147.0,1
68,68,-0.4513608469937984,-0.5,0.0,1.0,280.0,591.0,1.0,0,209.0,1
69,69,0.6274268502374122,0.6,0.0,0.0,334.0,966.0,0.0,1,90.0,1
70,70,-0.27988151544100015,-0.3,0.0,1.0,292.0,824.0,1.0,0,604.0,1
71,71,0.08476560197206673,0.1,1.0,1.0,285.0,932.0,1.0,1,1383.0,1
72,72,0.423184867556215,0.4,1.0,1.0,442.0,572.0,1.0,1,286.0,1
73,73,-0.10820698155374797,-0.1,0.0,1.0,256.0,970.0,1.0,0,174.0,1
74,74,0.119430871360653,0.1,1.0,1.0,317.0,810.0,1.0,1,443.0,1
75,75,-0.5603016606005439,-0.6,0.0,1.0,327.0,857.0,1.0,0,216.0,1
76,76,0.7260377563114416,0.7,0.0,0.0,289.0,760.0,0.0,1,171.0,1
77,77,0.23702590282144043,0.2,0.0,0.0,389.0,663.0,0.0,1,418.0,1
78,78,0.400929545073882,0.4,1.0,1.0,323.0,656.0,1.0,1,181.0,1
79,79,0.4340576301892801,0.4,1.0,1.0,280.0,511.0,1.0,1,109.0,1
80,80,0.8510891667304349,0.9,1.0,1.0,320.0,688.0,1.0,1,112.0,1
81,81,0.24978670333886843,0.2,0.0,0.0,318.0,990.0,0.0,1,342.0,1
82,82,0.8594830238650636,0.9,0.0,0.0,455.0,877.0,0.0,1,78.0,1
83,83,-0.611885585422373,-0.6,0.0,1.0,313.0,834.0,1.0,0,193.0,1
84,84,-0.4130510962943568,-0.4,1.0,0.0,422.0,632.0,0.0,0,306.0,1
85,85,-0.3049166516008457,-0.3,1.0,0.0,358.0,842.0,0.0,0,280.0,1
86,86,0.05692585826087615,0.1,1.0,1.0,282.0,630.0,1.0,1,758.0,1
87,87,0.2772373067886592,0.3,0.0,0.0,298.0,723.0,0.0,1,249.0,1
88,88,0.4356368069842461,0.4,0.0,0.0,491.0,803.0,0.0,1,166.0,1
89,89,-0.15902346396744027,-0.2,0.0,1.0,284.0,635.0,1.0,0,1621.0,1
90,90,-0.7983135846605192,-0.8,0.0,1.0,284.0,604.0,1.0,0,92.0,1
91,91,-0.36585522313985774,-0.4,1.0,0.0,302.0,779.0,0.0,0,149.0,1
92,92,-0.5716211200287105,-0.6,0.0,1.0,464.0,966.0,1.0,0,160.0,1
93,93,0.6481419898340485,0.6,1.0,1.0,382.0,843.0,1.0,1,105.0,1
94,94,0.3507841576616938,0.4,1.0,1.0,496.0,897.0,1.0,1,367.0,1
95,95,0.4706251591491316,0.5,0.0,0.0,346.0,713.0,0.0,1,181.0,1
96,96,-0.5887851488514747,-0.6,0.0,1.0,326.0,830.0,1.0,0,1844.0,1
97,97,-0.043699350897812295,-0.0,0.0,1.0,409.0,591.0,1.0,0,2000.0,1
98,98,-0.7693442082305222,-0.8,0.0,1.0,476.0,605.0,1.0,0,219.0,1
99,99,0.264433739127374,0.3,1.0,1.0,466.0,989.0,1.0,1,175.0,1
100,100,0.012858645474388197,0.0,1.0,1.0,330.0,724.0,1.0,1,1946.0,1
101,101,0.5456398145448375,0.5,0.0,0.0,300.0,984.0,0.0,1,-164.0,1
102,102,-0.23297423005158224,-0.2,0.0,1.0,252.0,952.0,1.0,0,466.0,1
103,103,-0.1187813193416597,-0.1,0.0,1.0,378.0,971.0,1.0,0,891.0,1
104,104,0.6467910274215,0.6,0.0,0.0,368.0,969.0,0.0,1,73.0,1
105,105,-0.06257849512064273,-0.1,0.0,1.0,270.0,625.0,1.0,0,2105.0,1
106,106,-0.5241837179659157,-0.5,1.0,0.0,487.0,842.0,0.0,0,21.0,1
107,107,0.42416209447622444,0.4,1.0,1.0,464.0,950.0,1.0,1,346.0,1
108,108,0.8064082158876752,0.8,1.0,1.0,345.0,530.0,1.0,1,275.0,1
109,109,-0.2905343894444625,-0.3,0.0,1.0,446.0,748.0,1.0,0,786.0,1
110,110,0.4348347675122789,0.4,1.0,1.0,320.0,715.0,1.0,1,285.0,1
111,111,-0.8176151300188611,-0.8,0.0,1.0,492.0,678.0,1.0,0,200.0,1
112,112,0.6032334446963253,0.6,1.0,1.0,389.0,987.0,1.0,1,44.0,1
113,113,0.12793204161138794,0.1,0.0,0.0,369.0,525.0,0.0,1,566.0,1
114,114,0.11343882833366858,0.1,0.0,0.0,294.0,570.0,0.0,1,366.0,1
115,115,0.31031287107986316,0.3,1.0,1.0,440.0,778.0,1.0,1,262.0,1
116,116,-0.8281135055223681,-0.8,0.0,1.0,284.0,958.0,1.0,0,308.0,1
117,117,-0.35312033971902734,-0.4,1.0,0.0,493.0,799.0,0.0,0,178.0,1
118,118,0.32722912138246485,0.3,0.0,0.0,499.0,929.0,0.0,1,142.0,1
119,119,-0.6721676973164619,-0.7,1.0,0.0,293.0,655.0,0.0,0,122.0,1
120,120,0.21823831125106719,0.2,0.0,0.0,421.0,544.0,0.0,1,315.0,1
121,121,-0.5206281974299103,-0.5,0.0,1.0,403.0,771.0,1.0,0,1686.0,1
122,122,-0.023491983402516237,-0.0,1.0,0.0,297.0,846.0,0.0,0,1857.0,1
123,123,0.2898887157231226,0.3,1.0,1.0,263.0,555.0,1.0,1,252.0,1
124,124,0.4230015884700121,0.4,0.0,0.0,311.0,557.0,0.0,1,282.0,1
125,125,0.8279505446191294,0.8,1.0,1.0,379.0,515.0,1.0,1,286.0,1
126,126,-0.7909329051879036,-0.8,0.0,1.0,488.0,550.0,1.0,0,312.0,1
127,127,-0.11597228853947372,-0.1,1.0,0.0,399.0,729.0,0.0,0,812.0,1
128,128,-0.3482245012507402,-0.3,0.0,1.0,356.0,858.0,1.0,0,286.0,1
129,129,0.10187055064694495,0.1,0.0,0.0,393.0,615.0,0.0,1,452.0,1
130,130,-0.363512133559727,-0.4,1.0,0.0,362.0,682.0,0.0,0,196.0,1
131,131,-0.27748828901572486,-0.3,1.0,0.0,348.0,842.0,0.0,0,270.0,1
132,132,-0.41965440846460217,-0.4,0.0,1.0,430.0,927.0,1.0,0,233.0,1
133,133,0.2391304672894462,0.2,0.0,0.0,467.0,625.0,0.0,1,478.0,1
134,134,-0.1819334293600413,-0.2,1.0,0.0,343.0,813.0,0.0,0,234.0,1
135,135,-0.26700755949309907,-0.3,1.0,0.0,260.0,850.0,0.0,0,160.0,1
136,136,0.0779746992046616,0.1,1.0,1.0,380.0,765.0,1.0,1,945.0,1
137,137,0.11373625647559249,0.1,0.0,0.0,422.0,829.0,0.0,1,199.0,1
138,138,-0.8096270239121899,-0.8,1.0,0.0,460.0,618.0,0.0,0,112.0,1
139,139,0.7704830104832902,0.8,1.0,1.0,305.0,726.0,1.0,1,229.0,1
140,140,0.6585299739226725,0.7,0.0,0.0,473.0,884.0,0.0,1,93.0,1
141,141,0.15274952970317324,0.2,0.0,0.0,400.0,841.0,0.0,1,639.0,1
142,142,0.7421432073397588,0.7,1.0,1.0,298.0,689.0,1.0,1,2013.0,1
143,143,0.24437072163986684,0.2,1.0,1.0,364.0,948.0,1.0,1,268.0,1
144,144,-0.25499284343808426,-0.3,1.0,0.0,410.0,966.0,0.0,0,254.0,1
145,145,0.6900447565590112,0.7,1.0,1.0,406.0,788.0,1.0,1,76.0,1
146,146,-0.14807074795040243,-0.1,0.0,1.0,333.0,751.0,1.0,0,316.0,1
147,147,0.2552698219555999,0.3,0.0,0.0,363.0,519.0,0.0,1,478.0,1
148,148,0.007166114198741025,0.0,0.0,0.0,440.0,542.0,1.0,0,2018.0,0
149,149,0.07674797294823821,0.1,0.0,0.0,331.0,969.0,0.0,1,640.0,1
150,150,0.31239554828551663,0.3,1.0,1.0,356.0,881.0,1.0,1,693.0,1
151,151,0.0521385875437681,0.1,0.0,0.0,288.0,730.0,0.0,1,1982.0,1
152,152,-0.40620457434035073,-0.4,0.0,1.0,455.0,505.0,1.0,0,200.0,1
153,153,-0.6445610113037434,-0.6,1.0,0.0,269.0,671.0,0.0,0,180.0,1
154,154,0.5585413176427502,0.6,1.0,1.0,477.0,515.0,1.0,1,218.0,1
155,155,0.02050190367660798,0.0,0.0,0.0,481.0,815.0,0.0,1,1704.0,1
156,156,-0.3633460191993836,-0.4,1.0,0.0,479.0,743.0,0.0,0,418.0,1
157,157,-0.7364139424346807,-0.7,0.0,1.0,470.0,670.0,1.0,0,170.0,1
158,158,-0.48887685077372417,-0.5,0.0,1.0,322.0,795.0,1.0,0,263.0,1
159,159,-0.5447040807016224,-0.5,0.0,1.0,424.0,624.0,1.0,0,202.0,1
160,160,-0.5233244295937105,-0.5,0.0,1.0,486.0,686.0,1.0,0,448.0,1
161,161,0.08028944428619489,0.1,1.0,1.0,486.0,721.0,1.0,1,473.0,1
162,162,0.3576746592894805,0.4,1.0,1.0,294.0,536.0,1.0,1,380.0,1
163,163,0.7844793999298315,0.8,0.0,0.0,374.0,975.0,0.0,1,161.0,1
164,164,0.33357388082456507,0.3,1.0,1.0,254.0,937.0,1.0,1,309.0,1
165,165,0.6068601778732728,0.6,1.0,1.0,378.0,573.0,1.0,1,269.0,1
166,166,-0.07236084674191956,-0.1,1.0,0.0,344.0,621.0,0.0,0,2035.0,1
167,167,0.6408461110478197,0.6,1.0,1.0,414.0,580.0,1.0,1,236.0,1
168,168,0.7867136206232285,0.8,0.0,0.0,494.0,590.0,0.0,1,186.0,1
169,169,0.2950066988182801,0.3,1.0,1.0,439.0,988.0,1.0,1,203.0,1
170,170,0.7153839693709713,0.7,1.0,1.0,461.0,962.0,1.0,1,187.0,1
171,171,0.8565697927672536,0.9,1.0,1.0,480.0,503.0,1.0,1,167.0,1
172,172,-0.3227051779932911,-0.3,1.0,0.0,330.0,802.0,0.0,0,308.0,1
173,173,-0.5114185114794363,-0.5,1.0,0.0,403.0,644.0,0.0,0,213.0,1
174,174,-0.2801856654753683,-0.3,0.0,1.0,466.0,798.0,1.0,0,796.0,1
175,175,-0.39949730686961504,-0.4,1.0,0.0,388.0,984.0,0.0,0,98.0,1
176,176,-0.230531799654893,-0.2,1.0,0.0,435.0,681.0,0.0,0,304.0,1
177,177,-0.6282004749135822,-0.6,1.0,0.0,322.0,506.0,0.0,0,122.0,1
178,178,-0.47383119356414916,-0.5,1.0,0.0,367.0,837.0,0.0,0,156.0,1
179,179,-0.5464666653950006,-0.5,0.0,1.0,417.0,722.0,1.0,0,191.0,1
180,180,0.7041663986613348,0.7,0.0,0.0,454.0,580.0,0.0,1,196.0,1
181,181,-0.050895682215147287,-0.1,1.0,0.0,258.0,872.0,0.0,0,1870.0,1
182,182,0.540492427833931,0.5,1.0,1.0,376.0,716.0,1.0,1,248.0,1
183,183,0.8390951513554817,0.8,1.0,1.0,447.0,591.0,1.0,1,62.0,1
184,184,-0.4062491643451205,-0.4,1.0,0.0,469.0,713.0,0.0,0,338.0,1
185,185,0.5922947841918441,0.6,0.0,0.0,426.0,945.0,0.0,1,239.0,1
186,186,-0.22224735045007527,-0.2,1.0,0.0,453.0,528.0,0.0,0,369.0,1
187,187,-0.4137798113728414,-0.4,0.0,1.0,443.0,522.0,1.0,0,275.0,1
188,188,0.5078031960700308,0.5,0.0,0.0,421.0,732.0,0.0,1,227.0,1
189,189,-0.6927051051187574,-0.7,0.0,1.0,421.0,692.0,1.0,0,127.0,1
190,190,-0.7523570176749761,-0.8,1.0,0.0,480.0,936.0,0.0,0,174.0,1
191,191,-0.8211306807464663,-0.8,0.0,1.0,377.0,709.0,1.0,0,214.0,1
192,192,-0.36955401915916497,-0.4,0.0,1.0,298.0,681.0,1.0,0,301.0,1
193,193,-0.8653736303300653,-0.9,1.0,0.0,353.0,612.0,0.0,0,85.0,1
194,194,0.2909554947745706,0.3,1.0,1.0,484.0,803.0,1.0,1,353.0,1
195,195,-0.6848465984890753,-0.7,0.0,1.0,260.0,949.0,1.0,0,621.0,1
196,196,0.7827892187659514,0.8,0.0,0.0,284.0,920.0,0.0,1,156.0,1
197,197,0.07671716140742757,0.1,1.0,1.0,407.0,996.0,1.0,1,647.0,1
198,198,-0.8336863025844787,-0.8,1.0,0.0,354.0,854.0,0.0,0,82.0,1
199,199,-0.1593849699251394,-0.2,1.0,0.0,299.0,641.0,0.0,0,410.0,1
200,200,0.26431890303735484,0.3,1.0,1.0,309.0,635.0,1.0,1,396.0,1
201,201,-0.5588716582575345,-0.6,1.0,0.0,270.0,937.0,0.0,0,223.0,1
202,202,0.21869868420188288,0.2,0.0,0.0,385.0,569.0,0.0,1,366.0,1
203,203,0.7629778952419018,0.8,0.0,0.0,391.0,802.0,0.0,1,167.0,1
204,204,-0.273598083058887,-0.3,0.0,1.0,342.0,805.0,1.0,0,283.0,1
205,205,0.3484013257646258,0.3,0.0,0.0,397.0,577.0,0.0,1,226.0,1
206,206,-0.19247076122794404,-0.2,1.0,0.0,410.0,985.0,0.0,0,125.0,1
207,207,0.8505226197012478,0.9,0.0,0.0,306.0,802.0,0.0,1,12.0,1
208,208,-0.020371928923078264,-0.0,1.0,0.0,407.0,960.0,1.0,1,-207.0,0
209,209,0.4723369673469594,0.5,1.0,1.0,356.0,775.0,1.0,1,109.0,1
210,210,-0.8481235844330435,-0.8,1.0,0.0,312.0,670.0,0.0,0,158.0,1
211,211,0.11874133848939128,0.1,0.0,0.0,432.0,524.0,0.0,1,354.0,1
212,212,-0.3757038389402242,-0.4,0.0,1.0,447.0,881.0,1.0,0,232.0,1
213,213,-0.38360629818714664,-0.4,0.0,1.0,435.0,970.0,1.0,0,335.0,1
214,214,-0.780985389218906,-0.8,1.0,0.0,384.0,884.0,0.0,0,232.0,1
215,215,-0.44588822406574463,-0.4,0.0,1.0,299.0,981.0,1.0,0,230.0,1
216,216,-0.713607003999615,-0.7,0.0,1.0,441.0,506.0,1.0,0,983.0,1
217,217,-0.2745116174990747,-0.3,0.0,1.0,286.0,762.0,1.0,0,662.0,1
218,218,0.7850188098900518,0.8,1.0,1.0,275.0,726.0,1.0,1,69.0,1
219,219,0.4517901168009394,0.5,0.0,0.0,259.0,552.0,0.0,1,289.0,1
220,220,0.09978209201536137,0.1,1.0,1.0,450.0,500.0,1.0,1,700.0,1
221,221,-0.5521190816488055,-0.6,1.0,0.0,288.0,965.0,0.0,0,137.0,1
222,222,-0.010079077923287105,-0.0,1.0,0.0,313.0,876.0,1.0,1,1061.0,0
223,223,0.45241768023230844,0.5,1.0,1.0,423.0,893.0,1.0,1,194.0,1
224,224,-0.10806385673824348,-0.1,0.0,1.0,397.0,920.0,1.0,0,1163.0,1
225,225,-0.32341814040574235,-0.3,1.0,0.0,289.0,721.0,0.0,0,260.0,1
226,226,-0.37882270666626605,-0.4,0.0,1.0,445.0,842.0,1.0,0,553.0,1
227,227,-0.27142057664749475,-0.3,1.0,0.0,299.0,908.0,0.0,0,243.0,1
228,228,0.598709480230582,0.6,0.0,0.0,366.0,964.0,0.0,1,140.0,1
229,229,-0.1401999468730778,-0.1,0.0,1.0,450.0,583.0,1.0,0,327.0,1
230,230,-0.5856376240234802,-0.6,1.0,0.0,397.0,879.0,0.0,0,54.0,1
231,231,0.40409071545661945,0.4,0.0,0.0,280.0,961.0,0.0,1,179.0,1
232,232,-0.7575365008006882,-0.8,0.0,1.0,367.0,654.0,1.0,0,1979.0,1
233,233,0.8297124387827158,0.8,1.0,1.0,453.0,592.0,1.0,1,225.0,1
234,234,0.6026825913420063,0.6,1.0,1.0,443.0,952.0,1.0,1,85.0,1
235,235,-0.8130705483394042,-0.8,1.0,0.0,360.0,966.0,0.0,0,194.0,1
236,236,-0.02389762674322038,-0.0,0.0,1.0,382.0,924.0,1.0,0,1224.0,1
237,237,-0.6855564708115056,-0.7,1.0,0.0,414.0,541.0,0.0,0,245.0,1
238,238,-0.7636778582584325,-0.8,1.0,0.0,262.0,590.0,0.0,0,188.0,1
239,239,-0.041567285282001154,-0.0,0.0,1.0,341.0,816.0,1.0,0,1843.0,1
240,240,0.06244608209060998,0.1,0.0,0.0,303.0,689.0,0.0,1,908.0,1
241,241,-0.23393090527319194,-0.2,0.0,1.0,476.0,739.0,1.0,0,1785.0,1
242,242,-0.17621213970882998,-0.2,1.0,0.0,284.0,760.0,0.0,0,286.0,1
243,243,0.4205914754224823,0.4,0.0,0.0,290.0,798.0,0.0,1,272.0,1
244,244,0.8531213835743915,0.9,1.0,1.0,461.0,617.0,1.0,1,272.0,1
245,245,0.7653294128968672,0.8,1.0,1.0,403.0,597.0,1.0,1,130.0,1
246,246,-0.049241992981640004,-0.0,0.0,1.0,445.0,677.0,1.0,0,1878.0,1
247,247,-0.09281661313315204,-0.1,0.0,1.0,369.0,621.0,1.0,0,2010.0,1
248,248,-0.5782149969677344,-0.6,0.0,1.0,261.0,592.0,1.0,0,267.0,1
249,249,-0.612856090025808,-0.6,1.0,0.0,458.0,823.0,0.0,0,239.0,1
250,250,0.31713209048266255,0.3,0.0,0.0,283.0,763.0,0.0,1,234.0,1
251,251,-0.7442810358565943,-0.7,1.0,0.0,255.0,567.0,0.0,0,218.0,1
252,252,0.5891445877164575,0.6,0.0,0.0,311.0,800.0,0.0,1,199.0,1
253,253,0.4239202494451021,0.4,0.0,0.0,280.0,557.0,0.0,1,293.0,1
254,254,0.8942068178237356,0.9,0.0,0.0,400.0,990.0,0.0,1,-370.0,1
255,255,-0.8800285990551577,-0.9,1.0,0.0,416.0,846.0,0.0,0,48.0,1
256,256,0.05564423834743937,0.1,1.0,1.0,295.0,687.0,1.0,1,2018.0,1
257,257,-0.8342076381520547,-0.8,1.0,0.0,374.0,945.0,0.0,0,131.0,1
258,258,-0.8222417572130493,-0.8,1.0,0.0,447.0,819.0,0.0,0,4.0,1
259,259,0.8051913032561909,0.8,1.0,1.0,433.0,578.0,1.0,1,109.0,1
260,260,0.5524437985876313,0.6,1.0,1.0,340.0,960.0,1.0,1,120.0,1
261,261,-0.026118383705239778,-0.0,0.0,1.0,306.0,947.0,1.0,0,1747.0,1
262,262,-0.6962911164822359,-0.7,1.0,0.0,261.0,815.0,0.0,0,164.0,1
263,263,0.6493549728939941,0.6,1.0,1.0,294.0,865.0,1.0,1,241.0,1
264,264,-0.3937547376456949,-0.4,0.0,1.0,388.0,555.0,1.0,0,417.0,1
265,265,0.7061786940029565,0.7,0.0,0.0,433.0,518.0,0.0,1,169.0,1
266,266,0.6410369850156389,0.6,0.0,0.0,254.0,604.0,0.0,1,232.0,1
267,267,0.2926761777503232,0.3,0.0,0.0,307.0,888.0,0.0,1,-315.0,1
268,268,-0.5033642653822819,-0.5,0.0,1.0,444.0,687.0,1.0,0,1869.0,1
269,269,0.03222084982030482,0.0,1.0,1.0,430.0,619.0,1.0,1,581.0,1
270,270,-0.2476469690884372,-0.2,0.0,1.0,474.0,765.0,1.0,0,401.0,1
271,271,0.04947413949020052,0.0,1.0,1.0,490.0,698.0,1.0,1,1572.0,1
272,272,0.8793309937611679,0.9,0.0,0.0,355.0,599.0,0.0,1,236.0,1
273,273,-0.22181666258891763,-0.2,1.0,0.0,271.0,729.0,0.0,0,490.0,1
274,274,-0.8150238584409546,-0.8,0.0,1.0,338.0,603.0,1.0,0,219.0,1
275,275,-0.7007260881487716,-0.7,0.0,1.0,469.0,585.0,1.0,0,186.0,1
276,276,0.5251802504014981,0.5,0.0,0.0,386.0,852.0,0.0,1,-298.0,1
277,277,-0.2843754454152584,-0.3,1.0,0.0,338.0,951.0,0.0,0,401.0,1
278,278,-0.1557451117930464,-0.2,0.0,1.0,455.0,860.0,1.0,0,505.0,1
279,279,0.8321463766641596,0.8,0.0,0.0,489.0,617.0,0.0,1,94.0,1
280,280,-0.4224521171822565,-0.4,1.0,0.0,385.0,507.0,0.0,0,358.0,1
281,281,-0.6801570086682027,-0.7,1.0,0.0,411.0,940.0,0.0,0,119.0,1
282,282,0.4595079865327979,0.5,0.0,0.0,351.0,676.0,0.0,1,23.0,1
283,283,-0.15613724872467794,-0.2,1.0,0.0,328.0,548.0,0.0,0,914.0,1
284,284,0.12036482581359154,0.1,1.0,1.0,492.0,947.0,1.0,1,1031.0,1
285,285,-0.5882029833525364,-0.6,0.0,1.0,318.0,509.0,1.0,0,283.0,1
286,286,0.13190065676358753,0.1,0.0,0.0,379.0,559.0,0.0,1,892.0,1
287,287,0.8528754224213918,0.9,0.0,0.0,378.0,784.0,0.0,1,38.0,1
288,288,-0.7492950843347823,-0.7,1.0,0.0,491.0,882.0,0.0,0,237.0,1
289,289,0.7933715407620957,0.8,0.0,0.0,338.0,796.0,0.0,1,156.0,1
290,290,-0.5279834334909328,-0.5,1.0,0.0,425.0,814.0,0.0,0,251.0,1
291,291,0.8032373709339037,0.8,0.0,0.0,290.0,509.0,0.0,1,211.0,1
292,292,-0.29049329531472123,-0.3,1.0,0.0,440.0,963.0,0.0,0,257.0,1
293,293,-0.44643708932522025,-0.4,0.0,1.0,447.0,983.0,1.0,0,490.0,1
294,294,0.3480924355529996,0.3,0.0,0.0,451.0,505.0,0.0,1,204.0,1
295,295,-0.09180081161497167,-0.1,0.0,1.0,396.0,684.0,1.0,0,1920.0,1
296,296,-0.2561500010737501,-0.3,0.0,1.0,347.0,515.0,1.0,0,438.0,1
297,297,0.12943052679242284,0.1,1.0,1.0,421.0,715.0,1.0,1,224.0,1
298,298,0.04235529992744036,0.0,1.0,1.0,357.0,909.0,1.0,1,764.0,1
299,299,-0.3245552283844707,-0.3,0.0,1.0,367.0,814.0,1.0,0,129.0,1
300,300,0.4318645080230322,0.4,0.0,0.0,361.0,878.0,0.0,1,281.0,1
301,301,-0.7700322546570292,-0.8,1.0,0.0,483.0,659.0,0.0,0,188.0,1
302,302,0.8885909300569815,0.9,1.0,1.0,339.0,609.0,1.0,1,102.0,1
303,303,0.37929062557987725,0.4,0.0,0.0,320.0,659.0,0.0,1,241.0,1
304,304,-0.35537858736665673,-0.4,0.0,1.0,266.0,839.0,1.0,0,235.0,1
305,305,0.0988860513051153,0.1,1.0,1.0,327.0,786.0,1.0,1,227.0,1
306,306,-0.48540079785311346,-0.5,0.0,1.0,278.0,832.0,1.0,0,110.0,1
307,307,0.7430795602826376,0.7,1.0,1.0,475.0,744.0,1.0,1,171.0,1
308,308,-0.6911392238772448,-0.7,1.0,0.0,374.0,500.0,0.0,0,186.0,1
309,309,0.3931354100715517,0.4,1.0,1.0,387.0,559.0,1.0,1,264.0,1
310,310,0.8301845097531028,0.8,0.0,0.0,297.0,987.0,0.0,1,126.0,1
311,311,0.68027379589818,0.7,1.0,1.0,335.0,931.0,1.0,1,144.0,1
312,312,0.5985352397420055,0.6,0.0,0.0,293.0,986.0,0.0,1,61.0,1
313,313,-0.220995525425831,-0.2,0.0,1.0,318.0,510.0,1.0,0,502.0,1
314,314,-0.07471888036698116,-0.1,0.0,1.0,482.0,720.0,1.0,0,818.0,1
315,315,0.1288275889742817,0.1,0.0,0.0,445.0,911.0,0.0,1,534.0,1
316,316,-0.1531102159463792,-0.2,1.0,0.0,369.0,950.0,0.0,0,321.0,1
317,317,0.14003302791564043,0.1,1.0,1.0,493.0,968.0,1.0,1,399.0,1
318,318,-0.023073955962395143,-0.0,0.0,1.0,276.0,602.0,1.0,0,2122.0,1
319,319,-0.38400516611708424,-0.4,1.0,0.0,377.0,949.0,0.0,0,224.0,1
320,320,0.6591044887713019,0.7,1.0,1.0,309.0,810.0,1.0,1,121.0,1
321,321,0.5265926135979434,0.5,1.0,1.0,486.0,753.0,1.0,1,701.0,1
322,322,-0.8069753921763183,-0.8,0.0,1.0,264.0,862.0,1.0,0,134.0,1
323,323,-0.01974624853856921,-0.0,0.0,1.0,486.0,658.0,0.0,1,566.0,0
324,324,-0.04311963762341475,-0.0,1.0,0.0,481.0,696.0,0.0,0,433.0,1
325,325,0.3927668883129406,0.4,1.0,1.0,294.0,555.0,1.0,1,221.0,1
326,326,0.3660265577814398,0.4,1.0,1.0,277.0,825.0,1.0,1,398.0,1
327,327,0.08368434281218728,0.1,1.0,1.0,345.0,893.0,1.0,1,1762.0,1
328,328,-0.8374045214801185,-0.8,1.0,0.0,452.0,534.0,0.0,0,104.0,1
329,329,0.023118336180641297,0.0,0.0,0.0,486.0,994.0,1.0,0,1520.0,0
330,330,-0.859184336037428,-0.9,1.0,0.0,439.0,845.0,0.0,0,36.0,1
331,331,0.6672227984322942,0.7,0.0,0.0,405.0,714.0,0.0,1,61.0,1
332,332,-0.03375159547724138,-0.0,0.0,1.0,380.0,518.0,1.0,0,2102.0,1
333,333,0.4918134724960562,0.5,0.0,0.0,367.0,515.0,0.0,1,158.0,1
334,334,-0.797623875062617,-0.8,1.0,0.0,289.0,689.0,0.0,0,192.0,1
335,335,-0.2692650001386713,-0.3,1.0,0.0,266.0,813.0,0.0,0,301.0,1
336,336,0.024593813246588714,0.0,0.0,0.0,467.0,755.0,0.0,1,458.0,1
337,337,0.31943181073925164,0.3,0.0,0.0,457.0,933.0,0.0,1,130.0,1
338,338,-0.10585440361473364,-0.1,1.0,0.0,252.0,926.0,0.0,0,362.0,1
339,339,-0.23119539365314745,-0.2,0.0,1.0,431.0,677.0,1.0,0,922.0,1
340,340,0.2189432462708084,0.2,1.0,1.0,430.0,508.0,1.0,1,702.0,1
341,341,-0.36395625297254475,-0.4,1.0,0.0,310.0,622.0,0.0,0,128.0,1
342,342,-0.4510242973572701,-0.5,0.0,1.0,346.0,808.0,1.0,0,186.0,1
343,343,0.2544843702466565,0.3,0.0,0.0,339.0,881.0,0.0,1,460.0,1
344,344,0.27186072418517815,0.3,1.0,1.0,472.0,742.0,1.0,1,256.0,1
345,345,0.6188823399049238,0.6,0.0,0.0,413.0,840.0,0.0,1,237.0,1
346,346,-0.13768652737551557,-0.1,1.0,0.0,318.0,715.0,0.0,0,477.0,1
347,347,0.4574521925944558,0.5,0.0,0.0,454.0,642.0,0.0,1,214.0,1
348,348,0.17730199935548685,0.2,1.0,1.0,261.0,540.0,1.0,1,259.0,1
349,349,-0.28911292597054394,-0.3,0.0,1.0,261.0,685.0,1.0,0,264.0,1
350,350,0.48111810241008046,0.5,1.0,1.0,390.0,755.0,1.0,1,165.0,1
351,351,0.14521284888097374,0.1,1.0,1.0,343.0,994.0,1.0,1,1093.0,1
352,352,0.21660003112858994,0.2,0.0,0.0,456.0,602.0,0.0,1,222.0,1
353,353,-0.16821312886594275,-0.2,0.0,1.0,419.0,736.0,1.0,0,1245.0,1
354,354,0.008608926546949558,0.0,0.0,0.0,466.0,859.0,0.0,1,935.0,1
355,355,-0.5473471265155456,-0.5,1.0,0.0,444.0,566.0,0.0,0,300.0,1
356,356,-0.5458003750400213,-0.5,1.0,0.0,256.0,684.0,0.0,0,220.0,1
357,357,0.09036636403797782,0.1,1.0,1.0,389.0,970.0,1.0,1,941.0,1
358,358,0.8280550736269642,0.8,1.0,1.0,258.0,501.0,1.0,1,131.0,1
359,359,0.7232414916155617,0.7,1.0,1.0,344.0,568.0,1.0,1,188.0,1
360,360,0.22966148999258718,0.2,0.0,0.0,385.0,888.0,0.0,1,177.0,1
361,361,0.4658929470954608,0.5,0.0,0.0,291.0,671.0,0.0,1,168.0,1
362,362,0.36539296307631763,0.4,1.0,1.0,309.0,598.0,1.0,1,363.0,1
363,363,0.06586763970852638,0.1,1.0,1.0,344.0,512.0,1.0,1,574.0,1
364,364,0.27798479884676996,0.3,1.0,1.0,256.0,816.0,1.0,1,298.0,1
365,365,-0.14354252724157657,-0.1,1.0,0.0,465.0,728.0,0.0,0,217.0,1
366,366,0.2538254926740605,0.3,1.0,1.0,298.0,628.0,1.0,1,234.0,1
367,367,0.06093523781482357,0.1,0.0,0.0,275.0,843.0,0.0,1,1882.0,1
368,368,0.4027012081955078,0.4,0.0,0.0,482.0,663.0,0.0,1,125.0,1
369,369,-0.5385863837939059,-0.5,0.0,1.0,251.0,576.0,1.0,0,203.0,1
370,370,-0.14419545771283104,-0.1,0.0,1.0,402.0,832.0,1.0,0,366.0,1
371,371,-0.8601850073235939,-0.9,0.0,1.0,251.0,716.0,1.0,0,213.0,1
372,372,-0.42517004439555905,-0.4,1.0,0.0,329.0,903.0,0.0,0,138.0,1
373,373,0.795064239866185,0.8,1.0,1.0,296.0,508.0,1.0,1,206.0,1
374,374,0.016796595301827755,0.0,0.0,0.0,283.0,725.0,0.0,1,1992.0,1
375,375,-0.601349202821998,-0.6,0.0,1.0,451.0,741.0,1.0,0,1808.0,1
376,376,0.0838544490713915,0.1,0.0,0.0,471.0,817.0,0.0,1,1262.0,1
377,377,0.0434307032128719,0.0,1.0,1.0,391.0,752.0,1.0,1,1857.0,1
378,378,0.37863355079988714,0.4,0.0,0.0,394.0,988.0,0.0,1,158.0,1
379,379,0.11778058811760717,0.1,0.0,0.0,447.0,813.0,0.0,1,430.0,1
380,380,-0.5621142564667383,-0.6,1.0,0.0,361.0,854.0,0.0,0,255.0,1
381,381,0.8531676585768139,0.9,1.0,1.0,255.0,652.0,1.0,1,133.0,1
382,382,0.07199836322602415,0.1,1.0,1.0,427.0,781.0,1.0,1,1652.0,1
383,383,0.3645879848109971,0.4,0.0,0.0,308.0,901.0,0.0,1,131.0,1
384,384,0.3671113278385282,0.4,1.0,1.0,386.0,708.0,1.0,1,216.0,1
385,385,-0.6965819418344777,-0.7,1.0,0.0,419.0,557.0,0.0,0,214.0,1
386,386,0.7312211060728177,0.7,1.0,1.0,255.0,665.0,1.0,1,220.0,1
387,387,-0.2858666260018309,-0.3,0.0,1.0,477.0,676.0,1.0,0,597.0,1
388,388,0.5157366563367375,0.5,1.0,1.0,447.0,634.0,1.0,1,169.0,1
389,389,0.5876496253446141,0.6,0.0,0.0,329.0,781.0,0.0,1,40.0,1
390,390,-0.12174876257178657,-0.1,1.0,0.0,466.0,610.0,0.0,0,964.0,1
391,391,-0.07669303713079967,-0.1,1.0,0.0,436.0,623.0,0.0,0,331.0,1
392,392,0.5562304442207083,0.6,1.0,1.0,406.0,556.0,1.0,1,298.0,1
393,393,-0.44085151729592414,-0.4,1.0,0.0,479.0,766.0,0.0,0,135.0,1
394,394,0.09889196618228857,0.1,1.0,1.0,261.0,705.0,1.0,1,284.0,1
395,395,-0.2315462931298825,-0.2,1.0,0.0,413.0,974.0,0.0,0,253.0,1
396,396,-0.4972538833297542,-0.5,1.0,0.0,372.0,943.0,1.0,1,-25.0,0
397,397,-0.13335471606217153,-0.1,0.0,1.0,267.0,786.0,1.0,0,507.0,1
398,398,-0.1072446257682983,-0.1,0.0,1.0,446.0,875.0,1.0,0,739.0,1
399,399,-0.7323665234627932,-0.7,0.0,1.0,470.0,575.0,1.0,0,335.0,1
400,400,0.5212089379560866,0.5,0.0,0.0,338.0,668.0,0.0,1,164.0,1
401,401,0.5506715815067761,0.6,0.0,0.0,281.0,706.0,0.0,1,133.0,1
402,402,-0.7848420358884108,-0.8,0.0,1.0,474.0,954.0,1.0,0,332.0,1
403,403,0.8187359341514898,0.8,1.0,1.0,363.0,723.0,1.0,1,134.0,1
404,404,-0.605077502014382,-0.6,0.0,1.0,342.0,709.0,1.0,0,179.0,1
405,405,-0.3121294221128825,-0.3,1.0,0.0,311.0,762.0,0.0,0,337.0,1
406,406,-0.3581648089796817,-0.4,0.0,1.0,419.0,944.0,1.0,0,297.0,1
407,407,0.24844385600242413,0.2,0.0,0.0,288.0,619.0,0.0,1,163.0,1
408,408,-0.7065709829313269,-0.7,1.0,0.0,438.0,991.0,0.0,0,331.0,1
409,409,0.2915273086330762,0.3,0.0,0.0,269.0,973.0,0.0,1,258.0,1
410,410,0.8530129299913224,0.9,1.0,1.0,385.0,509.0,1.0,1,116.0,1
411,411,0.88051834369362,0.9,0.0,0.0,452.0,552.0,0.0,1,116.0,1
412,412,-0.25704067935536445,-0.3,0.0,1.0,485.0,964.0,1.0,0,551.0,1
413,413,0.2703296919236954,0.3,1.0,1.0,319.0,673.0,1.0,1,468.0,1
414,414,-0.08703446517503632,-0.1,1.0,0.0,374.0,522.0,0.0,0,294.0,1
415,415,-0.19921409532710055,-0.2,0.0,1.0,349.0,688.0,1.0,0,833.0,1
416,416,0.7148467686176397,0.7,0.0,0.0,401.0,648.0,0.0,1,181.0,1
417,417,-0.2864661968396698,-0.3,1.0,0.0,266.0,740.0,0.0,0,244.0,1
418,418,-0.25303690364306664,-0.3,1.0,0.0,494.0,543.0,0.0,0,353.0,1
419,419,-0.4158825922126766,-0.4,1.0,0.0,361.0,841.0,0.0,0,248.0,1
420,420,0.097099011680987,0.1,1.0,1.0,342.0,977.0,1.0,1,1061.0,1
421,421,-0.5445941488443604,-0.5,0.0,1.0,392.0,722.0,1.0,0,226.0,1
422,422,-0.19397369065596903,-0.2,0.0,1.0,490.0,587.0,1.0,0,593.0,1
423,423,-0.5368152287247985,-0.5,1.0,0.0,393.0,895.0,0.0,0,162.0,1
424,424,-0.20255456848104347,-0.2,0.0,1.0,300.0,584.0,1.0,0,706.0,1
425,425,0.1491293529250678,0.1,1.0,1.0,310.0,591.0,1.0,1,649.0,1
426,426,0.4199064528689397,0.4,0.0,0.0,390.0,582.0,0.0,1,338.0,1
427,427,0.48780793367688247,0.5,0.0,0.0,279.0,703.0,0.0,1,128.0,1
428,428,0.7384529612134599,0.7,1.0,1.0,475.0,606.0,1.0,1,189.0,1
429,429,0.1923142747991985,0.2,1.0,1.0,433.0,819.0,1.0,1,568.0,1
430,430,0.8227288297699903,0.8,1.0,1.0,455.0,718.0,1.0,1,137.0,1
431,431,0.31591516793300867,0.3,1.0,1.0,474.0,584.0,1.0,1,312.0,1
432,432,-0.49280560556594727,-0.5,1.0,0.0,344.0,670.0,0.0,0,256.0,1
433,433,0.4664726375066882,0.5,1.0,1.0,403.0,664.0,1.0,1,153.0,1
434,434,-0.12869098419485814,-0.1,0.0,1.0,260.0,624.0,1.0,0,516.0,1
435,435,-0.6537426652624744,-0.7,1.0,0.0,386.0,508.0,0.0,0,166.0,1
436,436,-0.7385848788978752,-0.7,0.0,1.0,380.0,911.0,1.0,0,169.0,1
437,437,-0.48248020074705555,-0.5,1.0,0.0,330.0,642.0,0.0,0,168.0,1
438,438,0.6626600032442677,0.7,1.0,1.0,489.0,882.0,1.0,1,219.0,1
439,439,0.7296101484482315,0.7,0.0,0.0,287.0,842.0,0.0,1,121.0,1
440,440,0.8278844026777957,0.8,1.0,1.0,381.0,539.0,1.0,1,200.0,1
441,441,-0.4166428404994857,-0.4,1.0,0.0,371.0,852.0,0.0,0,227.0,1
442,442,-0.48330070747510645,-0.5,1.0,0.0,295.0,772.0,0.0,0,223.0,1
443,443,-0.18321367892168494,-0.2,1.0,0.0,258.0,823.0,0.0,0,179.0,1
444,444,-0.3289116570257766,-0.3,0.0,1.0,250.0,812.0,1.0,0,478.0,1
445,445,0.04289429069708339,0.0,1.0,1.0,309.0,515.0,1.0,1,1566.0,1
446,446,0.2724428428350686,0.3,1.0,1.0,250.0,852.0,1.0,1,418.0,1
447,447,0.7982521802779189,0.8,0.0,0.0,250.0,645.0,0.0,1,175.0,1
448,448,0.5339036868879034,0.5,0.0,0.0,425.0,625.0,0.0,1,160.0,1
449,449,0.4267568382901191,0.4,0.0,0.0,276.0,780.0,0.0,1,184.0,1
450,450,0.88735291525978,0.9,1.0,1.0,262.0,634.0,1.0,1,164.0,1
451,451,0.7793304392277743,0.8,1.0,1.0,302.0,569.0,1.0,1,189.0,1
452,452,0.354809562175065,0.4,1.0,1.0,270.0,506.0,1.0,1,274.0,1
453,453,0.8343436763694495,0.8,1.0,1.0,377.0,894.0,1.0,1,109.0,1
454,454,0.24073215278483528,0.2,0.0,0.0,357.0,967.0,0.0,1,296.0,1
455,455,-0.8633731979709893,-0.9,0.0,1.0,442.0,691.0,1.0,0,437.0,1
456,456,0.37537263386842035,0.4,0.0,0.0,316.0,534.0,0.0,1,330.0,1
457,457,0.3326239694717029,0.3,0.0,0.0,343.0,866.0,0.0,1,211.0,1
458,458,0.4781797388181225,0.5,0.0,0.0,293.0,758.0,0.0,1,109.0,1
459,459,0.41727962924205386,0.4,1.0,1.0,393.0,603.0,1.0,1,234.0,1
460,460,-0.43393319078351683,-0.4,0.0,1.0,403.0,897.0,1.0,0,230.0,1
461,461,0.2620879770886603,0.3,0.0,0.0,486.0,897.0,0.0,1,117.0,1
462,462,0.5686692608984495,0.6,0.0,0.0,452.0,792.0,0.0,1,-214.0,1
463,463,0.3918300724694902,0.4,0.0,0.0,329.0,955.0,0.0,1,206.0,1
464,464,-0.15395171215300618,-0.2,1.0,0.0,334.0,531.0,0.0,0,305.0,1
465,465,0.23929256122315323,0.2,0.0,0.0,421.0,917.0,0.0,1,272.0,1
466,466,-0.7486665159610115,-0.7,0.0,1.0,388.0,923.0,1.0,0,199.0,1
467,467,-0.16453268444173685,-0.2,0.0,1.0,284.0,659.0,1.0,0,567.0,1
468,468,0.08920508294986884,0.1,1.0,1.0,283.0,820.0,1.0,1,1897.0,1
469,469,0.19025049776643532,0.2,1.0,1.0,324.0,629.0,1.0,1,277.0,1
470,470,0.5432100311245344,0.5,0.0,0.0,359.0,747.0,0.0,1,154.0,1
471,471,0.7499764637471126,0.7,0.0,0.0,283.0,762.0,0.0,1,125.0,1
472,472,0.3471181773906996,0.3,0.0,0.0,464.0,615.0,0.0,1,291.0,1
473,473,-0.6633471222697496,-0.7,1.0,0.0,266.0,528.0,0.0,0,146.0,1
474,474,0.3910303445031552,0.4,0.0,0.0,316.0,840.0,0.0,1,224.0,1
475,475,0.6862850288747014,0.7,0.0,0.0,308.0,514.0,0.0,1,168.0,1
476,476,-0.21280865914420888,-0.2,1.0,0.0,365.0,767.0,0.0,0,638.0,1
477,477,0.5294775767852252,0.5,0.0,0.0,495.0,824.0,0.0,1,31.0,1
478,478,0.08083278489079071,0.1,1.0,1.0,256.0,974.0,1.0,1,340.0,1
479,479,0.7163966572113286,0.7,0.0,0.0,368.0,516.0,0.0,1,96.0,1
480,480,-0.24786423151240178,-0.2,0.0,1.0,256.0,538.0,1.0,0,406.0,1
481,481,-0.3671330805382683,-0.4,1.0,0.0,433.0,860.0,0.0,0,187.0,1
482,482,0.8031935394321646,0.8,1.0,1.0,274.0,994.0,1.0,1,142.0,1
483,483,-0.6850104116727084,-0.7,0.0,1.0,400.0,685.0,1.0,0,195.0,1
484,484,-0.3047546368789269,-0.3,1.0,0.0,421.0,984.0,0.0,0,285.0,1
485,485,-0.36341188828965476,-0.4,0.0,1.0,439.0,730.0,1.0,0,271.0,1
486,486,0.7774443754110817,0.8,1.0,1.0,336.0,754.0,1.0,1,180.0,1
487,487,0.82637018989986,0.8,0.0,0.0,423.0,831.0,0.0,1,146.0,1
488,488,0.055701600669997964,0.1,0.0,0.0,483.0,653.0,0.0,1,1364.0,1
489,489,-0.8082029417938686,-0.8,1.0,0.0,450.0,889.0,0.0,0,141.0,1
490,490,-0.6626553801688226,-0.7,0.0,1.0,267.0,990.0,1.0,0,1743.0,1
491,491,-0.7026672347024645,-0.7,1.0,0.0,469.0,874.0,0.0,0,157.0,1
492,492,-0.26272611025626,-0.3,1.0,0.0,462.0,875.0,0.0,0,173.0,1
493,493,0.40922066717014516,0.4,0.0,0.0,264.0,955.0,0.0,1,291.0,1
494,494,0.1265805721132861,0.1,1.0,1.0,433.0,566.0,1.0,1,1571.0,1
495,495,0.289389413851214,0.3,1.0,1.0,460.0,600.0,1.0,1,200.0,1
496,496,0.7601960719997717,0.8,1.0,1.0,448.0,989.0,1.0,1,203.0,1
497,497,0.5110522330258732,0.5,1.0,1.0,367.0,708.0,1.0,1,225.0,1
498,498,0.8846067287803533,0.9,1.0,1.0,255.0,746.0,1.0,1,239.0,1
499,499,0.7173487522426735,0.7,1.0,1.0,422.0,991.0,1.0,1,257.0,1
500,500,-0.2798543604474145,-0.3,0.0,1.0,261.0,615.0,1.0,0,224.0,1
501,501,0.6783725630858993,0.7,0.0,0.0,416.0,751.0,0.0,1,93.0,1
502,502,-0.23404540480243607,-0.2,0.0,1.0,358.0,951.0,1.0,0,541.0,1
503,503,0.8808002056236813,0.9,0.0,0.0,469.0,915.0,0.0,1,126.0,1
504,504,-0.5907212469078569,-0.6,1.0,0.0,286.0,723.0,0.0,0,161.0,1
505,505,0.8812711461236408,0.9,1.0,1.0,306.0,796.0,1.0,1,138.0,1
506,506,0.7596783773361052,0.8,0.0,0.0,483.0,768.0,0.0,1,109.0,1
507,507,-0.7173018982195327,-0.7,0.0,1.0,468.0,804.0,1.0,0,248.0,1
508,508,0.8123305032662537,0.8,1.0,1.0,318.0,530.0,1.0,1,172.0,1
509,509,-0.8896577893984119,-0.9,0.0,1.0,371.0,866.0,1.0,0,183.0,1
510,510,-0.3999947768934571,-0.4,1.0,0.0,449.0,755.0,0.0,0,346.0,1
511,511,-0.5428882821509153,-0.5,1.0,0.0,412.0,517.0,0.0,0,211.0,1
512,512,-0.5999365339668534,-0.6,0.0,1.0,263.0,678.0,1.0,0,2059.0,1
513,513,0.07893555549879805,0.1,1.0,1.0,487.0,607.0,1.0,1,466.0,1
514,514,-0.6953703115981434,-0.7,0.0,1.0,342.0,997.0,1.0,0,61.0,1
515,515,-0.8264540376287057,-0.8,1.0,0.0,349.0,760.0,0.0,0,211.0,1
516,516,-0.6516560186431779,-0.7,1.0,0.0,402.0,681.0,0.0,0,177.0,1
517,517,-0.4298121122046498,-0.4,0.0,1.0,292.0,922.0,1.0,0,236.0,1
518,518,0.047918226980701806,0.0,0.0,0.0,444.0,894.0,0.0,1,422.0,1
519,519,0.1213748698937801,0.1,0.0,0.0,369.0,899.0,0.0,1,382.0,1
520,520,0.23427505510648594,0.2,0.0,0.0,411.0,859.0,0.0,1,350.0,1
521,521,-0.6005029222515712,-0.6,0.0,1.0,253.0,747.0,1.0,0,200.0,1
522,522,0.8492215711008196,0.8,1.0,1.0,394.0,769.0,1.0,1,127.0,1
523,523,-0.5760443901787198,-0.6,0.0,1.0,320.0,512.0,1.0,0,208.0,1
524,524,0.02937227000336362,0.0,0.0,0.0,438.0,828.0,1.0,0,1734.0,0
525,525,-0.8434357333447415,-0.8,0.0,1.0,404.0,936.0,0.0,1,-250.0,0
526,526,-0.445741959805949,-0.4,0.0,1.0,335.0,561.0,1.0,0,284.0,1
527,527,-0.2683106379275354,-0.3,0.0,1.0,266.0,981.0,1.0,0,3.0,1
528,528,0.0001606735187082986,0.0,0.0,0.0,253.0,771.0,0.0,1,1976.0,1
529,529,-0.40900562970102855,-0.4,1.0,0.0,271.0,982.0,0.0,0,197.0,1
530,530,-0.19436129547989223,-0.2,1.0,0.0,347.0,915.0,0.0,0,258.0,1
531,531,0.4422756265968505,0.4,1.0,1.0,410.0,937.0,1.0,1,213.0,1
532,532,0.6976538149610677,0.7,1.0,1.0,440.0,644.0,1.0,1,226.0,1
533,533,-0.2659643019942991,-0.3,0.0,1.0,255.0,588.0,1.0,0,387.0,1
534,534,0.8612765597470856,0.9,1.0,1.0,396.0,943.0,1.0,1,61.0,1
535,535,-0.27233673247643964,-0.3,0.0,1.0,380.0,939.0,1.0,0,281.0,1
536,536,0.5319655453915147,0.5,1.0,1.0,302.0,579.0,1.0,1,399.0,1
537,537,0.3144066861265705,0.3,1.0,1.0,388.0,776.0,1.0,1,326.0,1
538,538,-0.4212655947269929,-0.4,1.0,0.0,295.0,652.0,0.0,0,223.0,1
539,539,-0.13331149027894074,-0.1,0.0,1.0,357.0,979.0,1.0,0,234.0,1
540,540,0.38733564178728785,0.4,0.0,0.0,469.0,895.0,0.0,1,116.0,1
541,541,0.5425343400240034,0.5,0.0,0.0,438.0,565.0,0.0,1,237.0,1
542,542,-0.29632593117668904,-0.3,0.0,1.0,330.0,839.0,1.0,0,311.0,1
543,543,-0.6554322494046039,-0.7,1.0,0.0,404.0,805.0,0.0,0,141.0,1
544,544,-0.1011147396968114,-0.1,1.0,0.0,332.0,550.0,0.0,0,858.0,1
545,545,-0.39299889964934065,-0.4,0.0,1.0,319.0,615.0,1.0,0,476.0,1
546,546,-0.7454529081543715,-0.7,0.0,1.0,324.0,709.0,1.0,0,207.0,1
547,547,-0.5969754152101538,-0.6,0.0,1.0,364.0,890.0,1.0,0,276.0,1
548,548,0.4430465962038569,0.4,1.0,1.0,394.0,577.0,1.0,1,189.0,1
549,549,0.17199921974369625,0.2,1.0,1.0,444.0,682.0,1.0,1,414.0,1
550,550,0.7566390351247362,0.8,0.0,0.0,482.0,517.0,0.0,1,211.0,1
551,551,-0.03140847908253197,-0.0,0.0,1.0,321.0,901.0,0.0,1,48.0,0
552,552,-0.8616178678124996,-0.9,0.0,1.0,479.0,861.0,1.0,0,410.0,1
553,553,0.5068333624828273,0.5,1.0,1.0,431.0,589.0,1.0,1,220.0,1
554,554,0.2767833701622192,0.3,0.0,0.0,375.0,683.0,0.0,1,262.0,1
555,555,-0.6802009711578666,-0.7,1.0,0.0,480.0,837.0,0.0,0,143.0,1
556,556,-0.11537410222526134,-0.1,0.0,1.0,293.0,962.0,1.0,0,1745.0,1
557,557,0.17750707705298485,0.2,1.0,1.0,370.0,616.0,1.0,1,404.0,1
558,558,0.09637214874158129,0.1,1.0,1.0,318.0,832.0,1.0,1,1850.0,1
559,559,-0.15644456855317868,-0.2,0.0,1.0,322.0,886.0,1.0,0,932.0,1
560,560,-0.855784656092602,-0.9,0.0,1.0,420.0,592.0,1.0,0,398.0,1
561,561,0.4585358496512125,0.5,0.0,0.0,405.0,647.0,0.0,1,68.0,1
562,562,-0.24359246208953278,-0.2,1.0,0.0,460.0,962.0,0.0,0,378.0,1
563,563,0.6861377681452586,0.7,0.0,0.0,326.0,514.0,0.0,1,150.0,1
564,564,0.6481924169401893,0.6,0.0,0.0,482.0,796.0,0.0,1,212.0,1
565,565,0.036273221299179204,0.0,1.0,1.0,255.0,731.0,1.0,1,2014.0,1
566,566,0.7761245782143932,0.8,1.0,1.0,461.0,507.0,1.0,1,222.0,1
567,567,-0.06708579783864244,-0.1,0.0,1.0,463.0,686.0,1.0,0,361.0,1
568,568,0.7534820222292274,0.8,0.0,0.0,372.0,853.0,0.0,1,155.0,1
569,569,0.43341128706181176,0.4,0.0,0.0,270.0,832.0,0.0,1,258.0,1
570,570,-0.7254119005723766,-0.7,0.0,1.0,274.0,716.0,1.0,0,140.0,1
571,571,0.4283704931328388,0.4,1.0,1.0,457.0,502.0,1.0,1,251.0,1
572,572,-0.7315529310149721,-0.7,1.0,0.0,465.0,850.0,0.0,0,185.0,1
573,573,-0.7977182483158807,-0.8,0.0,1.0,409.0,609.0,1.0,0,282.0,1
574,574,-0.08056610909579842,-0.1,1.0,0.0,443.0,879.0,0.0,0,338.0,1
575,575,-0.5701495942969164,-0.6,0.0,1.0,338.0,716.0,1.0,0,286.0,1
576,576,0.23203007900816253,0.2,0.0,0.0,366.0,679.0,0.0,1,395.0,1
577,577,0.06604798412317436,0.1,0.0,0.0,270.0,937.0,0.0,1,423.0,1
578,578,-0.4304169820326626,-0.4,0.0,1.0,337.0,624.0,1.0,0,369.0,1
579,579,0.60225494112649,0.6,1.0,1.0,310.0,689.0,1.0,1,171.0,1
580,580,-0.48423913878629893,-0.5,1.0,0.0,287.0,596.0,0.0,0,107.0,1
581,581,-0.8973815964773642,-0.9,1.0,0.0,463.0,949.0,0.0,0,138.0,1
582,582,-0.4637934738328864,-0.5,1.0,0.0,353.0,984.0,0.0,0,193.0,1
583,583,-0.37396984319832083,-0.4,0.0,1.0,370.0,773.0,1.0,0,297.0,1
584,584,-0.5184213929911441,-0.5,1.0,0.0,309.0,873.0,0.0,0,268.0,1
585,585,-0.42255814856989427,-0.4,0.0,1.0,473.0,907.0,1.0,0,640.0,1
586,586,0.7552944073974798,0.8,0.0,0.0,466.0,722.0,0.0,1,112.0,1
587,587,0.5443265540218288,0.5,0.0,0.0,496.0,517.0,0.0,1,197.0,1
588,588,-0.17668952401591387,-0.2,0.0,1.0,374.0,934.0,1.0,0,772.0,1
589,589,0.45821359973120146,0.5,1.0,1.0,443.0,754.0,1.0,1,183.0,1
590,590,-0.4368200304804484,-0.4,1.0,0.0,285.0,879.0,0.0,0,276.0,1
591,591,-0.3788877573518944,-0.4,1.0,0.0,268.0,687.0,0.0,0,275.0,1
592,592,-0.19368432845542216,-0.2,1.0,0.0,385.0,595.0,0.0,0,420.0,1
593,593,0.4630197959128767,0.5,1.0,1.0,349.0,551.0,1.0,1,130.0,1
594,594,-0.35875060210182497,-0.4,0.0,1.0,465.0,910.0,1.0,0,165.0,1
595,595,-0.7002651654820411,-0.7,0.0,1.0,279.0,775.0,1.0,0,436.0,1
596,596,0.5423086733829424,0.5,0.0,0.0,469.0,967.0,0.0,1,184.0,1
597,597,-0.19269824686367276,-0.2,0.0,1.0,270.0,705.0,1.0,0,1265.0,1
598,598,0.48324979366826304,0.5,0.0,0.0,490.0,522.0,0.0,1,118.0,1
599,599,0.8852774200168593,0.9,1.0,1.0,362.0,556.0,1.0,1,222.0,1
600,600,-0.10632808677111827,-0.1,0.0,1.0,275.0,644.0,1.0,0,2081.0,1
601,601,-0.07650712646390934,-0.1,1.0,0.0,402.0,982.0,0.0,0,1616.0,1
602,602,-0.5978543766576228,-0.6,1.0,0.0,313.0,815.0,0.0,0,92.0,1
603,603,0.6238928745209588,0.6,0.0,0.0,349.0,849.0,0.0,1,122.0,1
604,604,-0.8401003885991909,-0.8,1.0,0.0,439.0,714.0,0.0,0,157.0,1
605,605,-0.8457273267136177,-0.8,1.0,0.0,274.0,648.0,0.0,0,98.0,1
606,606,-0.38131054812364173,-0.4,1.0,0.0,332.0,556.0,0.0,0,202.0,1
607,607,-0.5939299125615246,-0.6,1.0,0.0,258.0,786.0,0.0,0,146.0,1
608,608,0.3113501909434152,0.3,0.0,0.0,468.0,928.0,0.0,1,254.0,1
609,609,-0.41164408387062557,-0.4,0.0,1.0,360.0,957.0,1.0,0,73.0,1
610,610,-0.5752019738244036,-0.6,1.0,0.0,416.0,943.0,0.0,0,191.0,1
611,611,0.3478418666687101,0.3,0.0,0.0,300.0,860.0,0.0,1,180.0,1
612,612,-0.3271999381105479,-0.3,0.0,1.0,371.0,651.0,1.0,0,178.0,1
613,613,0.4683692386832471,0.5,1.0,1.0,278.0,916.0,1.0,1,226.0,1
614,614,0.6088628467178941,0.6,1.0,1.0,403.0,594.0,1.0,1,193.0,1
615,615,-0.3164741129489228,-0.3,0.0,1.0,379.0,763.0,1.0,0,538.0,1
616,616,-0.40999428963256385,-0.4,0.0,1.0,475.0,654.0,1.0,0,781.0,1
617,617,-0.14492278699843064,-0.1,0.0,1.0,402.0,999.0,1.0,0,459.0,1
618,618,0.06114104618888294,0.1,1.0,1.0,352.0,988.0,1.0,1,1140.0,1
619,619,-0.35808411958246433,-0.4,0.0,1.0,286.0,742.0,1.0,0,342.0,1
620,620,-0.42680015485219697,-0.4,0.0,1.0,279.0,845.0,1.0,0,286.0,1
621,621,-0.030934521162581663,-0.0,0.0,1.0,349.0,877.0,0.0,1,1774.0,0
622,622,0.4355970531225103,0.4,1.0,1.0,368.0,750.0,1.0,1,242.0,1
623,623,-0.6637384928456904,-0.7,1.0,0.0,459.0,567.0,0.0,0,164.0,1
624,624,0.14126692862603807,0.1,1.0,1.0,293.0,766.0,1.0,1,311.0,1
625,625,0.5096631368761168,0.5,0.0,0.0,394.0,977.0,0.0,1,-461.0,1
626,626,-0.2306356211255336,-0.2,1.0,0.0,459.0,769.0,0.0,0,482.0,1
627,627,-0.5624373471395445,-0.6,0.0,1.0,455.0,749.0,1.0,0,456.0,1
628,628,0.3016995613948158,0.3,0.0,0.0,309.0,520.0,0.0,1,331.0,1
629,629,-0.3209400659564493,-0.3,0.0,1.0,360.0,643.0,1.0,0,197.0,1
630,630,-0.5045171885383559,-0.5,0.0,1.0,412.0,918.0,1.0,0,340.0,1
631,631,0.32765875599122773,0.3,1.0,1.0,269.0,934.0,1.0,1,97.0,1
632,632,-0.0401688401323157,-0.0,1.0,0.0,492.0,859.0,0.0,0,719.0,1
633,633,0.44581521942369673,0.4,1.0,1.0,365.0,728.0,1.0,1,187.0,1
634,634,0.44548162497171717,0.4,1.0,1.0,270.0,872.0,1.0,1,238.0,1
635,635,0.7813820638755838,0.8,0.0,0.0,395.0,954.0,0.0,1,41.0,1
636,636,-0.306475797070483,-0.3,1.0,0.0,447.0,766.0,0.0,0,157.0,1
637,637,-0.35551294734371597,-0.4,1.0,0.0,276.0,794.0,0.0,0,150.0,1
638,638,-0.5042141961667994,-0.5,1.0,0.0,460.0,767.0,0.0,0,163.0,1
639,639,-0.7208328170082046,-0.7,0.0,1.0,396.0,723.0,1.0,0,201.0,1
640,640,0.33353398662932554,0.3,0.0,0.0,442.0,844.0,0.0,1,324.0,1
641,641,-0.25179923473764243,-0.3,0.0,1.0,458.0,621.0,1.0,0,491.0,1
642,642,-0.7082645596797307,-0.7,0.0,1.0,290.0,855.0,0.0,1,1625.0,0
643,643,0.2814192472393383,0.3,0.0,0.0,346.0,978.0,0.0,1,426.0,1
644,644,0.5731464253500415,0.6,1.0,1.0,271.0,798.0,1.0,1,181.0,1
645,645,-0.7342057350151839,-0.7,0.0,1.0,475.0,859.0,1.0,0,376.0,1
646,646,0.3154709680998963,0.3,1.0,1.0,436.0,829.0,1.0,1,325.0,1
647,647,0.5927943879311443,0.6,1.0,1.0,301.0,716.0,1.0,1,223.0,1
648,648,-0.4280928021294021,-0.4,0.0,1.0,302.0,915.0,1.0,0,543.0,1
649,649,-0.44725475785914004,-0.4,1.0,0.0,308.0,931.0,0.0,0,151.0,1
650,650,0.5152601718249491,0.5,0.0,0.0,312.0,559.0,0.0,1,299.0,1
651,651,0.19965315776502013,0.2,0.0,0.0,334.0,931.0,0.0,1,175.0,1
652,652,-0.42175497422118996,-0.4,0.0,1.0,327.0,614.0,1.0,0,229.0,1
653,653,-0.3427125800430466,-0.3,0.0,1.0,488.0,784.0,1.0,0,228.0,1
654,654,-0.03195972484157894,-0.0,0.0,1.0,467.0,967.0,0.0,1,356.0,0
655,655,0.3796533461650674,0.4,1.0,1.0,321.0,715.0,1.0,1,204.0,1
656,656,0.7836190857222892,0.8,0.0,0.0,386.0,732.0,0.0,1,82.0,1
657,657,-0.6582943974869536,-0.7,1.0,0.0,255.0,532.0,0.0,0,143.0,1
658,658,0.7772854195774684,0.8,0.0,0.0,497.0,747.0,0.0,1,116.0,1
659,659,0.2776781829410401,0.3,0.0,0.0,366.0,556.0,0.0,1,398.0,1
660,660,-0.5435202081148574,-0.5,0.0,1.0,345.0,636.0,1.0,0,129.0,1
661,661,-0.8838789487754284,-0.9,1.0,0.0,300.0,642.0,0.0,0,68.0,1
662,662,0.5460701950854919,0.5,0.0,0.0,426.0,715.0,0.0,1,249.0,1
663,663,-0.6558157689671,-0.7,1.0,0.0,338.0,880.0,0.0,0,162.0,1
664,664,-0.436709880799233,-0.4,0.0,1.0,450.0,684.0,1.0,0,156.0,1
665,665,0.837596398813257,0.8,1.0,1.0,253.0,859.0,1.0,1,88.0,1
666,666,-0.008110689923766512,-0.0,1.0,0.0,422.0,540.0,1.0,1,2038.0,0
667,667,0.029672988982155313,0.0,1.0,1.0,478.0,517.0,1.0,1,2005.0,1
668,668,-0.5289335942427349,-0.5,0.0,1.0,277.0,956.0,1.0,0,137.0,1
669,669,-0.7926601421351976,-0.8,1.0,0.0,316.0,628.0,0.0,0,196.0,1
670,670,0.04473848744339093,0.0,0.0,0.0,416.0,539.0,1.0,0,2045.0,0
671,671,-0.2790012051496751,-0.3,0.0,1.0,287.0,669.0,1.0,0,364.0,1
672,672,-0.5722456822400845,-0.6,0.0,1.0,348.0,820.0,0.0,1,-288.0,0
673,673,-0.4353446157957579,-0.4,0.0,1.0,333.0,746.0,1.0,0,321.0,1
674,674,-0.15734716576641805,-0.2,1.0,0.0,408.0,528.0,0.0,0,314.0,1
675,675,0.8849623633403682,0.9,0.0,0.0,421.0,844.0,0.0,1,135.0,1
676,676,0.2694663277959445,0.3,1.0,1.0,280.0,825.0,1.0,1,415.0,1
677,677,0.7805169452374475,0.8,0.0,0.0,312.0,756.0,0.0,1,172.0,1
678,678,-0.079792621724329,-0.1,1.0,0.0,381.0,936.0,0.0,0,463.0,1
679,679,0.5367250074142932,0.5,0.0,0.0,312.0,696.0,0.0,1,262.0,1
680,680,-0.038776799713917676,-0.0,0.0,1.0,400.0,551.0,0.0,1,1479.0,0
681,681,-0.4827451748121217,-0.5,1.0,0.0,346.0,842.0,0.0,0,192.0,1
682,682,0.4826974187818597,0.5,1.0,1.0,437.0,882.0,1.0,1,321.0,1
683,683,-0.09088524739374193,-0.1,0.0,1.0,281.0,847.0,1.0,0,502.0,1
684,684,-0.7470103162907323,-0.7,1.0,0.0,309.0,676.0,0.0,0,245.0,1
685,685,-0.44127986299465716,-0.4,0.0,1.0,463.0,511.0,1.0,0,286.0,1
686,686,0.019489914174233514,0.0,0.0,0.0,286.0,885.0,1.0,0,1829.0,0
687,687,0.6415329174426275,0.6,1.0,1.0,254.0,887.0,1.0,1,189.0,1
688,688,-0.016746306583739212,-0.0,0.0,1.0,269.0,973.0,0.0,1,1758.0,0
689,689,-0.08126962702672436,-0.1,1.0,0.0,391.0,806.0,0.0,0,1653.0,1
690,690,0.7811442090358379,0.8,1.0,1.0,463.0,853.0,1.0,1,44.0,1
691,691,-0.544047752026101,-0.5,1.0,0.0,350.0,535.0,0.0,0,185.0,1
692,692,-0.03755694808257892,-0.0,1.0,0.0,445.0,987.0,0.0,0,1568.0,1
693,693,0.14815595689252092,0.1,1.0,1.0,386.0,615.0,1.0,1,449.0,1
694,694,-0.30677454657137415,-0.3,0.0,1.0,343.0,541.0,1.0,0,186.0,1
695,695,-0.0010058434135120642,-0.0,0.0,1.0,473.0,792.0,0.0,1,425.0,0
696,696,-0.47470273420287784,-0.5,1.0,0.0,328.0,744.0,0.0,0,78.0,1
697,697,0.2903804575272627,0.3,1.0,1.0,486.0,567.0,1.0,1,317.0,1
698,698,-0.8491353030143236,-0.8,1.0,0.0,427.0,899.0,0.0,0,114.0,1
699,699,-0.5313273748972323,-0.5,0.0,1.0,381.0,833.0,1.0,0,156.0,1
700,700,0.5422654609961876,0.5,0.0,0.0,447.0,916.0,0.0,1,157.0,1
701,701,-0.23603822931744256,-0.2,1.0,0.0,407.0,729.0,0.0,0,514.0,1
702,702,0.5740412078227185,0.6,0.0,0.0,266.0,821.0,0.0,1,143.0,1
703,703,-0.7685915389331908,-0.8,1.0,0.0,260.0,504.0,0.0,0,336.0,1
704,704,-0.8119349506685499,-0.8,0.0,1.0,336.0,581.0,1.0,0,163.0,1
705,705,-0.4151920311948151,-0.4,0.0,1.0,490.0,950.0,1.0,0,240.0,1
706,706,0.5248845616792112,0.5,1.0,1.0,295.0,835.0,1.0,1,150.0,1
707,707,-0.20297897753100713,-0.2,1.0,0.0,327.0,762.0,0.0,0,571.0,1
708,708,0.865608966415334,0.9,1.0,1.0,363.0,571.0,1.0,1,176.0,1
709,709,-0.10827111579253867,-0.1,1.0,0.0,352.0,844.0,0.0,0,674.0,1
710,710,-0.6737980376632304,-0.7,0.0,1.0,445.0,657.0,1.0,0,118.0,1
711,711,0.7143797748162842,0.7,0.0,0.0,269.0,879.0,0.0,1,162.0,1
712,712,0.2051897702378621,0.2,0.0,0.0,258.0,790.0,0.0,1,132.0,1
713,713,-0.8077749229141302,-0.8,1.0,0.0,499.0,843.0,0.0,0,138.0,1
714,714,0.15375459732467756,0.2,1.0,1.0,422.0,828.0,1.0,1,690.0,1
715,715,0.18815098084542237,0.2,1.0,1.0,401.0,974.0,1.0,1,1535.0,1
716,716,0.6421530833113659,0.6,1.0,1.0,466.0,652.0,1.0,1,212.0,1
717,717,-0.7140945063101524,-0.7,1.0,0.0,355.0,594.0,0.0,0,31.0,1
718,718,-0.3285501022775271,-0.3,0.0,1.0,270.0,899.0,1.0,0,281.0,1
719,719,0.4873472775562272,0.5,1.0,1.0,496.0,987.0,1.0,1,287.0,1
720,720,0.7850042684919237,0.8,0.0,0.0,266.0,674.0,0.0,1,200.0,1
721,721,0.8916475850618001,0.9,0.0,0.0,477.0,710.0,0.0,1,103.0,1
722,722,0.6484901911952247,0.6,0.0,0.0,367.0,613.0,0.0,1,140.0,1
723,723,-0.4162378612488431,-0.4,1.0,0.0,375.0,705.0,0.0,0,330.0,1
724,724,-0.16393927105116113,-0.2,0.0,1.0,385.0,839.0,1.0,0,1226.0,1
725,725,0.8606606699473042,0.9,1.0,1.0,264.0,836.0,1.0,1,210.0,1
726,726,-0.6723153422892694,-0.7,0.0,1.0,470.0,947.0,1.0,0,523.0,1
727,727,-0.45880767478368006,-0.5,0.0,1.0,255.0,570.0,1.0,0,225.0,1
728,728,0.887480206719156,0.9,1.0,1.0,258.0,617.0,1.0,1,165.0,1
729,729,-0.3704951823258851,-0.4,1.0,0.0,490.0,659.0,0.0,0,351.0,1
730,730,-0.10832320960829878,-0.1,1.0,0.0,328.0,868.0,0.0,0,444.0,1
731,731,-0.12835932688580998,-0.1,1.0,0.0,458.0,661.0,0.0,0,1001.0,1
732,732,0.6858504825021604,0.7,0.0,0.0,384.0,870.0,0.0,1,196.0,1
733,733,-0.3384465716004983,-0.3,1.0,0.0,378.0,510.0,0.0,0,292.0,1
734,734,-0.34686196851426454,-0.3,1.0,0.0,462.0,876.0,0.0,0,172.0,1
735,735,-0.0008874375180609739,-0.0,1.0,0.0,287.0,514.0,0.0,0,1289.0,1
736,736,-0.7329769647225096,-0.7,0.0,1.0,347.0,989.0,1.0,0,154.0,1
737,737,-0.8159173740830601,-0.8,1.0,0.0,487.0,843.0,0.0,0,150.0,1
738,738,-0.15622092193995163,-0.2,1.0,0.0,332.0,756.0,0.0,0,732.0,1
739,739,0.38455466218233914,0.4,0.0,0.0,404.0,886.0,0.0,1,40.0,1
740,740,-0.37930956679627625,-0.4,0.0,1.0,432.0,862.0,1.0,0,286.0,1
741,741,0.22016504052022745,0.2,1.0,1.0,262.0,589.0,1.0,1,769.0,1
742,742,0.4119706084574667,0.4,1.0,1.0,344.0,715.0,1.0,1,191.0,1
743,743,0.2619521784448181,0.3,0.0,0.0,279.0,751.0,0.0,1,140.0,1
744,744,-0.613377891320198,-0.6,1.0,0.0,481.0,608.0,0.0,0,261.0,1
745,745,0.23700428987094713,0.2,0.0,0.0,349.0,988.0,0.0,1,143.0,1
746,746,0.17431349522455897,0.2,1.0,1.0,328.0,605.0,1.0,1,747.0,1
747,747,-0.18133091863903616,-0.2,0.0,1.0,361.0,640.0,1.0,0,579.0,1
748,748,0.025685472827504774,0.0,1.0,1.0,372.0,717.0,0.0,0,1171.0,0
749,749,-0.5591975563056131,-0.6,1.0,0.0,428.0,558.0,0.0,0,174.0,1
750,750,-0.43118518798023725,-0.4,1.0,0.0,281.0,815.0,0.0,0,224.0,1
751,751,0.5155933001987859,0.5,0.0,0.0,346.0,503.0,0.0,1,271.0,1
752,752,-0.42623082992642913,-0.4,0.0,1.0,276.0,875.0,1.0,0,199.0,1
753,753,-0.7024111917795212,-0.7,0.0,1.0,320.0,716.0,1.0,0,184.0,1
754,754,0.6719806349438334,0.7,1.0,1.0,499.0,609.0,1.0,1,242.0,1
755,755,-0.4727431134824164,-0.5,1.0,0.0,325.0,718.0,0.0,0,197.0,1
756,756,-0.4378823894350626,-0.4,1.0,0.0,348.0,831.0,0.0,0,211.0,1
757,757,-0.8497549464205842,-0.8,0.0,1.0,261.0,505.0,1.0,0,224.0,1
758,758,0.7983731255428222,0.8,0.0,0.0,479.0,954.0,0.0,1,227.0,1
759,759,-0.72533473857524,-0.7,1.0,0.0,495.0,539.0,0.0,0,286.0,1
760,760,-0.7728659526458477,-0.8,1.0,0.0,490.0,682.0,0.0,0,178.0,1
761,761,0.2566716167781816,0.3,0.0,0.0,455.0,857.0,0.0,1,228.0,1
762,762,-0.381360470667955,-0.4,1.0,0.0,333.0,844.0,0.0,0,463.0,1
763,763,-0.2524664963905693,-0.3,0.0,1.0,288.0,559.0,1.0,0,133.0,1
764,764,0.8622584892813073,0.9,0.0,0.0,339.0,752.0,0.0,1,109.0,1
765,765,-0.5676749075929584,-0.6,1.0,0.0,352.0,790.0,0.0,0,148.0,1
766,766,-0.4410271126352423,-0.4,0.0,1.0,344.0,706.0,1.0,0,440.0,1
767,767,0.5396938130584735,0.5,0.0,0.0,286.0,500.0,0.0,1,204.0,1
768,768,0.7599464298818371,0.8,0.0,0.0,314.0,555.0,0.0,1,231.0,1
769,769,-0.3918663072476518,-0.4,1.0,0.0,310.0,979.0,0.0,0,151.0,1
770,770,0.10983443356382672,0.1,0.0,0.0,351.0,690.0,0.0,1,89.0,1
771,771,-0.6745889310343327,-0.7,0.0,1.0,390.0,584.0,1.0,0,236.0,1
772,772,-0.02178422205886088,-0.0,0.0,1.0,361.0,996.0,1.0,0,1643.0,1
773,773,-0.5515950407311083,-0.6,0.0,1.0,324.0,563.0,1.0,0,2113.0,1
774,774,-0.021536919914135866,-0.0,1.0,0.0,319.0,909.0,0.0,0,1772.0,1
775,775,0.17511843061786292,0.2,0.0,0.0,492.0,600.0,0.0,1,368.0,1
776,776,-0.6210044421828527,-0.6,0.0,1.0,266.0,822.0,1.0,0,312.0,1
777,777,-0.7140420345515095,-0.7,1.0,0.0,404.0,812.0,0.0,0,264.0,1
778,778,0.5693151651227656,0.6,1.0,1.0,424.0,515.0,1.0,1,201.0,1
779,779,-0.5372460437129722,-0.5,1.0,0.0,434.0,661.0,0.0,0,295.0,1
780,780,0.5496478066762754,0.5,1.0,1.0,351.0,687.0,1.0,1,302.0,1
781,781,-0.4647812423689804,-0.5,0.0,1.0,315.0,630.0,1.0,0,155.0,1
782,782,0.7029580955059777,0.7,1.0,1.0,467.0,530.0,1.0,1,183.0,1
783,783,-0.5579941203632743,-0.6,0.0,1.0,324.0,503.0,1.0,0,353.0,1
784,784,0.7852852001794502,0.8,1.0,1.0,384.0,829.0,1.0,1,187.0,1
785,785,0.11174424045335163,0.1,1.0,1.0,276.0,541.0,1.0,1,153.0,1
786,786,-0.37825642150586347,-0.4,1.0,0.0,497.0,854.0,0.0,0,229.0,1
787,787,-0.8823348413449995,-0.9,1.0,0.0,499.0,912.0,0.0,0,129.0,1
788,788,0.7014243444797145,0.7,0.0,0.0,486.0,567.0,0.0,1,127.0,1
789,789,-0.27487320576506036,-0.3,0.0,1.0,339.0,901.0,1.0,0,210.0,1
790,790,0.8216679163042507,0.8,1.0,1.0,351.0,810.0,1.0,1,99.0,1
791,791,0.19176715910918485,0.2,1.0,1.0,434.0,603.0,1.0,1,293.0,1
792,792,0.34675189786517546,0.3,1.0,1.0,418.0,527.0,1.0,1,495.0,1
793,793,0.3927106560846282,0.4,1.0,1.0,394.0,748.0,1.0,1,428.0,1
794,794,-0.8159375523293217,-0.8,0.0,1.0,276.0,587.0,1.0,0,457.0,1
795,795,0.6071189522709769,0.6,0.0,0.0,319.0,779.0,0.0,1,122.0,1
796,796,0.8841225512432324,0.9,0.0,0.0,294.0,946.0,0.0,1,90.0,1
797,797,0.2760021120066646,0.3,0.0,0.0,448.0,745.0,0.0,1,-203.0,1
798,798,-0.8432074722348389,-0.8,1.0,0.0,394.0,631.0,0.0,0,195.0,1
799,799,-0.5173269003110137,-0.5,1.0,0.0,342.0,749.0,0.0,0,239.0,1
800,800,0.7172710422086211,0.7,1.0,1.0,488.0,633.0,1.0,1,189.0,1
801,801,-0.8891127367547105,-0.9,0.0,1.0,313.0,716.0,0.0,1,1971.0,0
802,802,0.35978677058524544,0.4,1.0,1.0,306.0,549.0,1.0,1,655.0,1
803,803,0.6166950531101575,0.6,1.0,1.0,406.0,915.0,1.0,1,219.0,1
804,804,0.2845763957229911,0.3,1.0,1.0,446.0,881.0,1.0,1,223.0,1
805,805,0.2823269354496253,0.3,1.0,1.0,423.0,815.0,1.0,1,512.0,1
806,806,-0.23627234750605985,-0.2,0.0,1.0,389.0,901.0,1.0,0,620.0,1
807,807,-0.2868174320263548,-0.3,1.0,0.0,357.0,814.0,0.0,0,229.0,1
808,808,0.38247231213943456,0.4,1.0,1.0,412.0,826.0,1.0,1,252.0,1
809,809,0.16621561529797468,0.2,0.0,0.0,253.0,616.0,0.0,1,521.0,1
810,810,-0.5379415396744922,-0.5,0.0,1.0,417.0,611.0,1.0,0,502.0,1
811,811,0.7493444053554149,0.7,0.0,0.0,430.0,641.0,0.0,1,149.0,1
812,812,0.08408949354080653,0.1,1.0,1.0,354.0,804.0,1.0,1,1012.0,1
813,813,-0.6804061458446145,-0.7,1.0,0.0,313.0,981.0,0.0,0,196.0,1
814,814,0.3731151222326413,0.4,1.0,1.0,442.0,988.0,1.0,1,160.0,1
815,815,0.10935549778538312,0.1,1.0,1.0,426.0,758.0,1.0,1,1556.0,1
816,816,0.6088426977955791,0.6,0.0,0.0,469.0,925.0,0.0,1,306.0,1
817,817,-0.8886481964734879,-0.9,0.0,1.0,482.0,954.0,1.0,0,174.0,1
818,818,0.19762531253555948,0.2,1.0,1.0,352.0,572.0,1.0,1,726.0,1
819,819,-0.7994319424010436,-0.8,0.0,1.0,394.0,533.0,1.0,0,363.0,1
820,820,0.29146727798271355,0.3,1.0,1.0,420.0,595.0,1.0,1,575.0,1
821,821,-0.3439392446151258,-0.3,0.0,1.0,272.0,734.0,1.0,0,294.0,1
822,822,-0.825801008469321,-0.8,0.0,1.0,277.0,816.0,1.0,0,197.0,1
823,823,-0.6041547619671603,-0.6,0.0,1.0,369.0,999.0,1.0,0,512.0,1
824,824,-0.6420604215320461,-0.6,1.0,0.0,386.0,581.0,0.0,0,213.0,1
825,825,-0.45440545849288816,-0.5,0.0,1.0,452.0,689.0,1.0,0,689.0,1
826,826,0.8663437974658755,0.9,1.0,1.0,267.0,541.0,1.0,1,182.0,1
827,827,-0.7008184030471799,-0.7,0.0,1.0,422.0,906.0,1.0,0,312.0,1
828,828,-0.4175788125172443,-0.4,1.0,0.0,479.0,822.0,0.0,0,179.0,1
829,829,0.7060090813651841,0.7,0.0,0.0,424.0,940.0,0.0,1,96.0,1
830,830,0.7835898790562726,0.8,1.0,1.0,280.0,732.0,1.0,1,128.0,1
831,831,0.615993922650712,0.6,1.0,1.0,308.0,790.0,1.0,1,72.0,1
832,832,0.30181888560721115,0.3,0.0,0.0,338.0,719.0,0.0,1,293.0,1
833,833,0.5876541902160549,0.6,1.0,1.0,257.0,837.0,1.0,1,186.0,1
834,834,-0.6775910043855953,-0.7,0.0,1.0,344.0,787.0,1.0,0,229.0,1
835,835,-0.5651211094851961,-0.6,1.0,0.0,343.0,514.0,0.0,0,163.0,1
836,836,0.6272759178776078,0.6,1.0,1.0,464.0,564.0,1.0,1,262.0,1
837,837,0.25720785400415147,0.3,1.0,1.0,290.0,893.0,1.0,1,147.0,1
838,838,-0.014269983347857451,-0.0,0.0,1.0,464.0,611.0,1.0,0,1925.0,1
839,839,0.35928841761236174,0.4,0.0,0.0,261.0,884.0,0.0,1,325.0,1
840,840,0.8545955993086473,0.9,1.0,1.0,333.0,504.0,1.0,1,183.0,1
841,841,-0.429784477145533,-0.4,1.0,0.0,359.0,770.0,0.0,0,201.0,1
842,842,0.885069352123025,0.9,1.0,1.0,334.0,829.0,1.0,1,217.0,1
843,843,0.4768393554331486,0.5,0.0,0.0,454.0,876.0,0.0,1,230.0,1
844,844,0.38094154648018386,0.4,1.0,1.0,483.0,779.0,1.0,1,-152.0,1
845,845,0.36213925386175483,0.4,1.0,1.0,396.0,614.0,1.0,1,220.0,1
846,846,0.5259072348354356,0.5,0.0,0.0,448.0,675.0,0.0,1,257.0,1
847,847,-0.8443533724778479,-0.8,0.0,1.0,484.0,520.0,1.0,0,216.0,1
848,848,-0.15183226500475822,-0.2,1.0,0.0,267.0,602.0,0.0,0,631.0,1
849,849,-0.25873046635011043,-0.3,1.0,0.0,325.0,686.0,0.0,0,199.0,1
850,850,0.5368725708223302,0.5,1.0,1.0,387.0,551.0,1.0,1,262.0,1
851,851,-0.6690838965711841,-0.7,0.0,1.0,330.0,757.0,1.0,0,203.0,1
852,852,0.4348019569547653,0.4,1.0,1.0,372.0,823.0,1.0,1,245.0,1
853,853,-0.0918350216002013,-0.1,1.0,0.0,335.0,898.0,0.0,0,-153.0,1
854,854,-0.38709076699112455,-0.4,0.0,1.0,427.0,583.0,1.0,0,230.0,1
855,855,0.8009200926916688,0.8,0.0,0.0,252.0,885.0,0.0,1,153.0,1
856,856,-0.4212020153704431,-0.4,0.0,1.0,473.0,647.0,1.0,0,110.0,1
857,857,0.06852862335187881,0.1,1.0,1.0,282.0,550.0,1.0,1,1468.0,1
858,858,-0.6311835575985179,-0.6,1.0,0.0,402.0,684.0,0.0,0,84.0,1
859,859,-0.17630617687957673,-0.2,0.0,1.0,375.0,587.0,1.0,0,388.0,1
860,860,0.28852791902959696,0.3,0.0,0.0,427.0,824.0,0.0,1,359.0,1
861,861,0.4460364886301277,0.4,1.0,1.0,449.0,840.0,1.0,1,211.0,1
862,862,-0.007074266662213113,-0.0,0.0,1.0,491.0,700.0,1.0,0,1809.0,1
863,863,0.7115278562211415,0.7,0.0,0.0,390.0,665.0,0.0,1,205.0,1
864,864,0.3421553481116909,0.3,1.0,1.0,413.0,916.0,1.0,1,201.0,1
865,865,0.22326747158100735,0.2,0.0,0.0,274.0,699.0,0.0,1,257.0,1
866,866,0.22091877106668167,0.2,0.0,0.0,284.0,983.0,1.0,0,-47.0,0
867,867,-0.051296805644210464,-0.1,0.0,1.0,301.0,817.0,1.0,0,1882.0,1
868,868,0.6545315984148267,0.7,0.0,0.0,285.0,521.0,0.0,1,174.0,1
869,869,-0.500520801139207,-0.5,0.0,1.0,449.0,876.0,1.0,0,425.0,1
870,870,-0.5286437765846582,-0.5,1.0,0.0,455.0,724.0,0.0,0,201.0,1
871,871,-0.5630855529488579,-0.6,0.0,1.0,345.0,648.0,1.0,0,237.0,1
872,872,-0.7484858720979013,-0.7,0.0,1.0,485.0,891.0,1.0,0,164.0,1
873,873,0.1405838693578182,0.1,0.0,0.0,398.0,931.0,0.0,1,291.0,1
874,874,-0.5039190120398696,-0.5,1.0,0.0,314.0,609.0,0.0,0,107.0,1
875,875,0.33268807706429426,0.3,0.0,0.0,367.0,599.0,0.0,1,384.0,1
876,876,0.17825275677196595,0.2,0.0,0.0,403.0,962.0,0.0,1,465.0,1
877,877,0.40290240498646124,0.4,0.0,0.0,253.0,896.0,0.0,1,251.0,1
878,878,0.47018880986890565,0.5,1.0,1.0,319.0,648.0,1.0,1,333.0,1
879,879,0.8911739332118677,0.9,1.0,1.0,468.0,722.0,1.0,1,150.0,1
880,880,0.14068990564459594,0.1,1.0,1.0,429.0,582.0,1.0,1,479.0,1
881,881,-0.8735517289868275,-0.9,0.0,1.0,250.0,810.0,1.0,0,180.0,1
882,882,0.8465898006471465,0.8,0.0,0.0,255.0,553.0,0.0,1,132.0,1
883,883,-0.6187723279810002,-0.6,1.0,0.0,326.0,690.0,0.0,0,144.0,1
884,884,-0.6408764061017131,-0.6,0.0,1.0,273.0,727.0,1.0,0,130.0,1
885,885,-0.3979280594131508,-0.4,0.0,1.0,430.0,979.0,0.0,1,-489.0,0
886,886,0.6699618778026745,0.7,1.0,1.0,309.0,638.0,1.0,1,143.0,1
887,887,-0.1564160460462607,-0.2,0.0,1.0,480.0,886.0,1.0,0,1144.0,1
888,888,0.274571028602803,0.3,1.0,1.0,354.0,522.0,1.0,1,304.0,1
889,889,0.8744535461726209,0.9,1.0,1.0,452.0,998.0,1.0,1,170.0,1
890,890,0.6299277695080258,0.6,1.0,1.0,329.0,990.0,1.0,1,81.0,1
891,891,0.6768853242483622,0.7,0.0,0.0,473.0,932.0,0.0,1,155.0,1
892,892,-0.0007173798194851644,-0.0,0.0,1.0,363.0,869.0,0.0,1,1448.0,0
893,893,-0.7123955939603193,-0.7,0.0,1.0,405.0,897.0,1.0,0,198.0,1
894,894,-0.25358626389771155,-0.3,1.0,0.0,431.0,756.0,0.0,0,463.0,1
895,895,0.08792477557817091,0.1,1.0,1.0,461.0,906.0,1.0,1,1633.0,1
896,896,-0.17406603930188436,-0.2,0.0,1.0,401.0,914.0,1.0,0,265.0,1
897,897,-0.6026867657907524,-0.6,1.0,0.0,333.0,706.0,0.0,0,161.0,1
898,898,0.22836220876551094,0.2,0.0,0.0,413.0,791.0,0.0,1,296.0,1
899,899,-0.5240065346845261,-0.5,1.0,0.0,402.0,759.0,0.0,0,239.0,1
900,900,0.6080934487145534,0.6,1.0,1.0,375.0,596.0,1.0,1,199.0,1
901,901,0.3763046372288722,0.4,1.0,1.0,272.0,635.0,1.0,1,233.0,1
902,902,-0.08670210049032467,-0.1,1.0,0.0,388.0,904.0,0.0,0,1708.0,1
903,903,0.14843543946801285,0.1,1.0,1.0,400.0,748.0,1.0,1,472.0,1
904,904,-0.19017028702601857,-0.2,0.0,1.0,276.0,539.0,1.0,0,485.0,1
905,905,0.013679884808153409,0.0,1.0,1.0,324.0,691.0,1.0,1,1985.0,1
906,906,0.23521910239884358,0.2,1.0,1.0,312.0,794.0,1.0,1,214.0,1
907,907,0.6220645273324913,0.6,1.0,1.0,373.0,688.0,1.0,1,219.0,1
908,908,0.7884886959213647,0.8,1.0,1.0,310.0,974.0,1.0,1,186.0,1
909,909,-0.030595990293644904,-0.0,1.0,0.0,250.0,525.0,0.0,0,705.0,1
910,910,0.624142139298881,0.6,0.0,0.0,335.0,707.0,0.0,1,288.0,1
911,911,-0.06934444742738344,-0.1,1.0,0.0,338.0,673.0,0.0,0,1719.0,1
912,912,-0.42131665507552635,-0.4,0.0,1.0,252.0,616.0,1.0,0,232.0,1
913,913,0.8164323141517366,0.8,1.0,1.0,334.0,808.0,1.0,1,168.0,1
914,914,0.4480856641343415,0.4,1.0,1.0,429.0,611.0,1.0,1,250.0,1
915,915,0.7976096415035209,0.8,1.0,1.0,427.0,600.0,1.0,1,143.0,1
916,916,0.46457410241720376,0.5,1.0,1.0,462.0,502.0,1.0,1,276.0,1
917,917,0.6677804223566627,0.7,0.0,0.0,328.0,809.0,0.0,1,203.0,1
918,918,-0.6186468315023466,-0.6,1.0,0.0,321.0,970.0,0.0,0,99.0,1
919,919,-0.5995234654641868,-0.6,1.0,0.0,354.0,713.0,0.0,0,203.0,1
920,920,-0.46761382309451605,-0.5,1.0,0.0,441.0,864.0,0.0,0,75.0,1
921,921,-0.7548506727078313,-0.8,1.0,0.0,279.0,640.0,0.0,0,171.0,1
922,922,-0.684877296215201,-0.7,1.0,0.0,331.0,936.0,0.0,0,183.0,1
923,923,0.7035569822862427,0.7,1.0,1.0,481.0,898.0,1.0,1,201.0,1
924,924,0.5628507931940417,0.6,0.0,0.0,254.0,567.0,0.0,1,249.0,1
925,925,-0.8843569125069652,-0.9,1.0,0.0,443.0,867.0,0.0,0,100.0,1
926,926,0.342409008201349,0.3,1.0,1.0,309.0,809.0,1.0,1,232.0,1
927,927,0.10708149013577095,0.1,0.0,0.0,351.0,595.0,0.0,1,404.0,1
928,928,0.3079389355881271,0.3,1.0,1.0,374.0,802.0,1.0,1,354.0,1
929,929,0.46111154450806857,0.5,1.0,1.0,260.0,520.0,1.0,1,360.0,1
930,930,0.7232452430167077,0.7,1.0,1.0,274.0,522.0,1.0,1,204.0,1
931,931,-0.42482128574679334,-0.4,0.0,1.0,419.0,816.0,0.0,1,-105.0,0
932,932,-0.3687621056094923,-0.4,0.0,1.0,348.0,935.0,0.0,1,-493.0,0
933,933,0.5857037836893101,0.6,1.0,1.0,422.0,723.0,1.0,1,145.0,1
934,934,0.8823289703822684,0.9,0.0,0.0,295.0,550.0,0.0,1,135.0,1
935,935,-0.7383158258299004,-0.7,1.0,0.0,392.0,951.0,0.0,0,157.0,1
936,936,-0.1668011022847813,-0.2,0.0,1.0,364.0,909.0,1.0,0,297.0,1
937,937,0.36987292954032946,0.4,0.0,0.0,360.0,590.0,0.0,1,290.0,1
938,938,-0.6481961581354296,-0.6,1.0,0.0,471.0,925.0,0.0,0,124.0,1
939,939,0.39543557653658146,0.4,1.0,1.0,286.0,734.0,1.0,1,490.0,1
940,940,0.310272384044478,0.3,1.0,1.0,446.0,706.0,1.0,1,178.0,1
941,941,-0.3621113946058865,-0.4,1.0,0.0,358.0,917.0,0.0,0,375.0,1
942,942,0.032858450668375005,0.0,0.0,0.0,298.0,921.0,0.0,1,631.0,1
943,943,-0.46015078649167873,-0.5,0.0,1.0,334.0,788.0,1.0,0,298.0,1
944,944,-0.028051163081785013,-0.0,0.0,1.0,430.0,976.0,1.0,0,1594.0,1
945,945,0.09199397899899342,0.1,1.0,1.0,398.0,994.0,1.0,1,508.0,1
946,946,0.16274125661646333,0.2,1.0,1.0,402.0,508.0,1.0,1,1120.0,1
947,947,0.042204650020943424,0.0,0.0,0.0,347.0,526.0,0.0,1,1327.0,1
948,948,-0.5375903348143501,-0.5,1.0,0.0,349.0,964.0,0.0,0,137.0,1
949,949,0.7815485270437369,0.8,0.0,0.0,388.0,912.0,0.0,1,140.0,1
950,950,0.6942557261384085,0.7,1.0,1.0,298.0,830.0,1.0,1,52.0,1
951,951,0.28765439755637623,0.3,1.0,1.0,389.0,730.0,1.0,1,231.0,1
952,952,-0.5201593150934499,-0.5,0.0,1.0,473.0,877.0,1.0,0,500.0,1
953,953,-0.3435434615790084,-0.3,0.0,1.0,423.0,670.0,1.0,0,177.0,1
954,954,0.7855868123513877,0.8,0.0,0.0,480.0,901.0,0.0,1,59.0,1
955,955,-0.09998298573456388,-0.1,1.0,0.0,398.0,901.0,0.0,0,1701.0,1
956,956,0.7082140460736551,0.7,0.0,0.0,277.0,926.0,0.0,1,257.0,1
957,957,0.3200330401475896,0.3,0.0,0.0,298.0,968.0,0.0,1,394.0,1
958,958,-0.6125913554382498,-0.6,1.0,0.0,348.0,895.0,0.0,0,107.0,1
959,959,-0.6659687771709054,-0.7,1.0,0.0,404.0,614.0,0.0,0,72.0,1
960,960,0.7372494158329909,0.7,0.0,0.0,288.0,748.0,0.0,1,104.0,1
961,961,0.5177257137681822,0.5,0.0,0.0,254.0,933.0,0.0,1,143.0,1
962,962,-0.6931530546495586,-0.7,1.0,0.0,410.0,819.0,0.0,0,251.0,1
963,963,-0.2626067999638313,-0.3,1.0,0.0,290.0,821.0,0.0,0,309.0,1
964,964,0.31969140442169774,0.3,1.0,1.0,312.0,891.0,1.0,1,217.0,1
965,965,-0.3953535517288871,-0.4,0.0,1.0,250.0,699.0,1.0,0,221.0,1
966,966,0.5148227793962677,0.5,1.0,1.0,278.0,605.0,1.0,1,377.0,1
967,967,-0.34919339240393943,-0.3,0.0,1.0,338.0,601.0,1.0,0,431.0,1
968,968,-0.8754931896913338,-0.9,0.0,1.0,465.0,851.0,1.0,0,154.0,1
969,969,-0.7045510285736252,-0.7,0.0,1.0,357.0,879.0,1.0,0,214.0,1
970,970,-0.6749203769433029,-0.7,0.0,1.0,498.0,727.0,1.0,0,-85.0,1
971,971,0.46381106797133265,0.5,1.0,1.0,446.0,712.0,1.0,1,182.0,1
972,972,0.48406523246454725,0.5,1.0,1.0,430.0,609.0,1.0,1,181.0,1
973,973,-0.855915768001416,-0.9,1.0,0.0,438.0,893.0,0.0,0,79.0,1
974,974,0.3160281850601866,0.3,1.0,1.0,261.0,994.0,1.0,1,265.0,1
975,975,-0.04996047060350817,-0.0,1.0,0.0,288.0,679.0,0.0,0,723.0,1
976,976,0.5249649476237112,0.5,0.0,0.0,485.0,728.0,0.0,1,-283.0,1
977,977,0.6795116328621725,0.7,0.0,0.0,301.0,539.0,0.0,1,-50.0,1
978,978,-0.5662476090196795,-0.6,0.0,1.0,292.0,828.0,1.0,0,500.0,1
979,979,-0.2049253008504084,-0.2,0.0,1.0,384.0,620.0,1.0,0,796.0,1
980,980,-0.4757470582864159,-0.5,0.0,1.0,385.0,792.0,1.0,0,223.0,1
981,981,-0.6428173671853037,-0.6,1.0,0.0,299.0,966.0,0.0,0,255.0,1
982,982,0.08206339440826826,0.1,0.0,0.0,300.0,836.0,0.0,1,284.0,1
983,983,0.006831709157380406,0.0,0.0,0.0,341.0,511.0,0.0,1,468.0,1
984,984,0.2863663921688421,0.3,1.0,1.0,314.0,519.0,1.0,1,347.0,1
985,985,-0.5345463062201565,-0.5,0.0,1.0,395.0,762.0,1.0,0,153.0,1
986,986,0.3727662110517044,0.4,1.0,1.0,288.0,934.0,1.0,1,128.0,1
987,987,-0.21529077546006914,-0.2,1.0,0.0,372.0,680.0,0.0,0,428.0,1
988,988,0.5989175767017313,0.6,1.0,1.0,308.0,947.0,0.0,0,-25.0,0
989,989,0.5504206252710776,0.6,0.0,0.0,283.0,661.0,0.0,1,156.0,1
990,990,0.58391236715116,0.6,0.0,0.0,309.0,609.0,0.0,1,162.0,1
991,991,-0.37254108841125266,-0.4,1.0,0.0,289.0,723.0,0.0,0,228.0,1
992,992,0.17599981307258383,0.2,0.0,0.0,430.0,677.0,0.0,1,263.0,1
993,993,-0.18806799390085405,-0.2,0.0,1.0,337.0,996.0,1.0,0,847.0,1
994,994,-0.10956317092441359,-0.1,1.0,0.0,473.0,689.0,0.0,0,688.0,1
995,995,-0.8470525452819276,-0.8,0.0,1.0,451.0,507.0,1.0,0,2042.0,1
996,996,0.396566993462245,0.4,1.0,1.0,475.0,803.0,1.0,1,232.0,1
997,997,0.6953149182958517,0.7,1.0,1.0,379.0,759.0,1.0,1,212.0,1
998,998,-0.20404087310480523,-0.2,0.0,1.0,413.0,774.0,1.0,0,443.0,1
999,999,-0.5280458629485649,-0.5,0.0,1.0,310.0,638.0,1.0,0,342.0,1
1000,1000,-0.27405416116595616,-0.3,0.0,1.0,399.0,664.0,1.0,0,457.0,1
1001,1001,0.42641691794917913,0.4,0.0,0.0,438.0,751.0,0.0,1,201.0,1
1002,1002,-0.6133637720693239,-0.6,1.0,0.0,256.0,928.0,0.0,0,196.0,1
1003,1003,-0.36115394875816786,-0.4,1.0,0.0,312.0,562.0,0.0,0,406.0,1
1004,1004,0.09083036573969883,0.1,1.0,1.0,401.0,731.0,1.0,1,698.0,1
1005,1005,0.32394126959822944,0.3,0.0,0.0,289.0,853.0,0.0,1,178.0,1
1006,1006,0.4721022032578216,0.5,1.0,1.0,295.0,906.0,1.0,1,139.0,1
1007,1007,-0.7267207218545221,-0.7,1.0,0.0,425.0,828.0,0.0,0,117.0,1
1008,1008,-0.6341329377137344,-0.6,1.0,0.0,337.0,561.0,0.0,0,102.0,1
1009,1009,0.7138607034226897,0.7,1.0,1.0,429.0,658.0,1.0,1,133.0,1
1010,1010,-0.5441181883714437,-0.5,1.0,0.0,364.0,891.0,0.0,0,205.0,1
1011,1011,-0.7509165716923306,-0.8,1.0,0.0,358.0,655.0,0.0,0,177.0,1
1012,1012,0.40759208490330334,0.4,1.0,1.0,358.0,685.0,1.0,1,117.0,1
1013,1013,-0.8252097405911812,-0.8,1.0,0.0,425.0,948.0,0.0,0,157.0,1
1014,1014,-0.3725966656548414,-0.4,1.0,0.0,358.0,951.0,0.0,0,171.0,1
1015,1015,0.2775760570075868,0.3,1.0,1.0,354.0,957.0,1.0,1,509.0,1
1016,1016,0.24139554941684882,0.2,0.0,0.0,390.0,752.0,0.0,1,398.0,1
1017,1017,-0.4403586165666951,-0.4,0.0,1.0,421.0,826.0,1.0,0,443.0,1
1018,1018,-0.1198076644120799,-0.1,1.0,0.0,439.0,707.0,0.0,0,914.0,1
1019,1019,-0.2826980172175778,-0.3,1.0,0.0,320.0,932.0,0.0,0,278.0,1
1020,1020,-0.6380685125830972,-0.6,0.0,1.0,372.0,941.0,1.0,0,237.0,1
1021,1021,0.11708166488383698,0.1,0.0,0.0,393.0,596.0,0.0,1,421.0,1
1022,1022,-0.7234922899830323,-0.7,1.0,0.0,305.0,570.0,0.0,0,85.0,1
1023,1023,-0.034527747840585654,-0.0,1.0,0.0,320.0,827.0,0.0,0,853.0,1
1024,1024,-0.11413672769386085,-0.1,1.0,0.0,429.0,669.0,0.0,0,392.0,1
1025,1025,0.7342792703758277,0.7,1.0,1.0,364.0,999.0,1.0,1,157.0,1
1026,1026,-0.3635707250952578,-0.4,1.0,0.0,255.0,658.0,0.0,0,267.0,1
1027,1027,-0.005764551288900521,-0.0,1.0,0.0,285.0,701.0,0.0,0,2014.0,1
1028,1028,0.06517138918087506,0.1,0.0,0.0,267.0,973.0,0.0,1,1760.0,1
1029,1029,0.7179440502909124,0.7,0.0,0.0,319.0,575.0,0.0,1,206.0,1
1030,1030,-0.5434768871620772,-0.5,1.0,0.0,260.0,710.0,0.0,0,190.0,1
1031,1031,0.7505042509336078,0.8,1.0,1.0,446.0,631.0,1.0,1,83.0,1
1032,1032,0.14000785140851402,0.1,0.0,0.0,385.0,612.0,0.0,1,563.0,1
1033,1033,0.4288460347941133,0.4,0.0,0.0,286.0,965.0,0.0,1,29.0,1
1034,1034,0.7690535990605533,0.8,0.0,0.0,386.0,533.0,0.0,1,171.0,1
1035,1035,0.5099110986527992,0.5,0.0,0.0,250.0,860.0,0.0,1,110.0,1
1036,1036,0.6282156624468874,0.6,1.0,1.0,275.0,841.0,1.0,1,144.0,1
1037,1037,0.6148216573163122,0.6,0.0,0.0,484.0,923.0,0.0,1,133.0,1
1038,1038,-0.483587452351847,-0.5,1.0,0.0,395.0,811.0,0.0,0,234.0,1
1039,1039,0.10325285031961762,0.1,1.0,1.0,474.0,847.0,0.0,0,-21.0,0
1040,1040,0.8796422035349213,0.9,1.0,1.0,493.0,889.0,1.0,1,128.0,1
1041,1041,-0.6131798312971868,-0.6,1.0,0.0,406.0,946.0,0.0,0,118.0,1
1042,1042,0.8743489908737775,0.9,1.0,1.0,372.0,712.0,1.0,1,146.0,1
1043,1043,-0.2161871407307001,-0.2,0.0,1.0,280.0,879.0,1.0,0,311.0,1
1044,1044,0.04737680929318466,0.0,1.0,1.0,380.0,916.0,1.0,1,1704.0,1
1045,1045,0.7835427806305933,0.8,1.0,1.0,321.0,651.0,1.0,1,448.0,1
1046,1046,0.026215487606151333,0.0,1.0,1.0,490.0,795.0,1.0,1,1255.0,1
1047,1047,-0.5571351409800633,-0.6,0.0,1.0,298.0,906.0,1.0,0,246.0,1
1048,1048,-0.002893486027384151,-0.0,0.0,1.0,317.0,614.0,0.0,1,2069.0,0
1049,1049,-0.7883705826425825,-0.8,1.0,0.0,290.0,917.0,0.0,0,123.0,1
1050,1050,-0.6328776915042009,-0.6,0.0,1.0,412.0,618.0,1.0,0,100.0,1
1051,1051,-0.6922224063670773,-0.7,0.0,1.0,308.0,708.0,1.0,0,164.0,1
1052,1052,0.7913054707267649,0.8,0.0,0.0,478.0,616.0,0.0,1,106.0,1
1053,1053,0.00991477090474524,0.0,0.0,0.0,318.0,935.0,1.0,0,1747.0,0
1054,1054,0.8940996750019597,0.9,1.0,1.0,430.0,782.0,1.0,1,168.0,1
1055,1055,-0.5284178333003589,-0.5,1.0,0.0,378.0,936.0,0.0,0,176.0,1
1056,1056,0.8427071552870294,0.8,0.0,0.0,381.0,777.0,0.0,1,112.0,1
1057,1057,0.17081436141851414,0.2,1.0,1.0,348.0,778.0,1.0,1,684.0,1
1058,1058,-0.08580433283177291,-0.1,1.0,0.0,499.0,979.0,0.0,0,1232.0,1
1059,1059,0.1011458363504133,0.1,0.0,0.0,264.0,998.0,0.0,1,708.0,1
1060,1060,0.039739596210597194,0.0,0.0,0.0,409.0,661.0,0.0,1,1930.0,1
1061,1061,-0.2668374703988887,-0.3,1.0,0.0,381.0,524.0,0.0,0,365.0,1
1062,1062,0.8794102168308896,0.9,0.0,0.0,447.0,775.0,0.0,1,78.0,1
1063,1063,0.7015681946429427,0.7,1.0,1.0,255.0,844.0,1.0,1,121.0,1
1064,1064,-0.2651322434078923,-0.3,0.0,1.0,322.0,526.0,1.0,0,682.0,1
1065,1065,0.15129496899711425,0.2,1.0,1.0,379.0,816.0,1.0,1,475.0,1
1066,1066,0.27004296859053223,0.3,0.0,0.0,347.0,677.0,0.0,1,206.0,1
1067,1067,0.204584129829548,0.2,0.0,0.0,446.0,789.0,0.0,1,555.0,1
1068,1068,-0.802230534025489,-0.8,1.0,0.0,270.0,965.0,0.0,0,175.0,1
1069,1069,0.6202480040175561,0.6,1.0,1.0,309.0,709.0,1.0,1,152.0,1
1070,1070,-0.1895982339591903,-0.2,0.0,1.0,479.0,798.0,1.0,0,723.0,1
1071,1071,-0.6985109840790376,-0.7,1.0,0.0,482.0,938.0,0.0,0,130.0,1
1072,1072,0.5221057331647011,0.5,1.0,1.0,286.0,608.0,1.0,1,106.0,1
1073,1073,0.7525995884334195,0.8,1.0,1.0,466.0,713.0,1.0,1,201.0,1
1074,1074,-0.8310454918137277,-0.8,0.0,1.0,483.0,626.0,0.0,1,1891.0,0
1075,1075,0.5916066136095849,0.6,0.0,0.0,467.0,874.0,0.0,1,209.0,1
1076,1076,-0.7386903633365595,-0.7,1.0,0.0,408.0,994.0,0.0,0,68.0,1
1077,1077,0.8594121560628231,0.9,0.0,0.0,450.0,921.0,0.0,1,79.0,1
1078,1078,0.016900779718267755,0.0,0.0,0.0,456.0,894.0,0.0,1,950.0,1
1079,1079,0.8506959507272353,0.9,1.0,1.0,384.0,629.0,1.0,1,77.0,1
1080,1080,0.11325294652127582,0.1,1.0,1.0,420.0,591.0,1.0,1,1559.0,1
1081,1081,0.3567683203822053,0.4,1.0,1.0,287.0,575.0,1.0,1,658.0,1
1082,1082,-0.6676142149093635,-0.7,0.0,1.0,446.0,803.0,1.0,0,1751.0,1
1083,1083,-0.39375700902865607,-0.4,0.0,1.0,275.0,667.0,1.0,0,258.0,1
1084,1084,-0.3683902897690029,-0.4,1.0,0.0,271.0,570.0,0.0,0,289.0,1
1085,1085,0.46872621265643455,0.5,1.0,1.0,331.0,668.0,1.0,1,131.0,1
1086,1086,0.41140560606352594,0.4,1.0,1.0,367.0,601.0,1.0,1,332.0,1
1087,1087,-0.8582560704769714,-0.9,1.0,0.0,432.0,735.0,0.0,0,193.0,1
1088,1088,0.39252732837250404,0.4,0.0,0.0,297.0,741.0,0.0,1,212.0,1
1089,1089,-0.2798869439518895,-0.3,1.0,0.0,389.0,778.0,0.0,0,273.0,1
1090,1090,0.1205672190052337,0.1,1.0,1.0,318.0,705.0,1.0,1,357.0,1
1091,1091,0.5155026018239762,0.5,1.0,1.0,483.0,554.0,1.0,1,113.0,1
1092,1092,-0.0012413539913901372,-0.0,0.0,1.0,311.0,963.0,0.0,1,666.0,0
1093,1093,-0.5085324855052895,-0.5,0.0,1.0,377.0,724.0,1.0,0,389.0,1
1094,1094,-0.434415525769503,-0.4,1.0,0.0,342.0,944.0,0.0,0,214.0,1
1095,1095,-0.21318001034226453,-0.2,0.0,1.0,458.0,913.0,1.0,0,999.0,1
1096,1096,0.42468065074466244,0.4,1.0,1.0,250.0,559.0,1.0,1,251.0,1
1097,1097,-0.8225398369741967,-0.8,0.0,1.0,494.0,624.0,1.0,0,242.0,1
1098,1098,0.6448787744525871,0.6,1.0,1.0,402.0,848.0,1.0,1,170.0,1
1099,1099,-0.08382125239661442,-0.1,1.0,0.0,472.0,532.0,0.0,0,1376.0,1
1100,1100,-0.6244146088635687,-0.6,1.0,0.0,278.0,542.0,0.0,0,120.0,1
1101,1101,0.8904632683394681,0.9,0.0,0.0,373.0,596.0,0.0,1,101.0,1
1102,1102,0.6069231388669408,0.6,1.0,1.0,325.0,636.0,1.0,1,259.0,1
1103,1103,-0.3037430908209722,-0.3,0.0,1.0,473.0,851.0,1.0,0,656.0,1
1104,1104,-0.7151687571386971,-0.7,0.0,1.0,452.0,697.0,1.0,0,191.0,1
1105,1105,0.050910610337915,0.1,1.0,1.0,496.0,813.0,1.0,1,431.0,1
1106,1106,0.676208383574736,0.7,0.0,0.0,483.0,725.0,0.0,1,92.0,1
1107,1107,0.11782869570629162,0.1,0.0,0.0,276.0,919.0,0.0,1,525.0,1
1108,1108,-0.4026345457742758,-0.4,0.0,1.0,447.0,625.0,1.0,0,1928.0,1
1109,1109,0.6405419232892126,0.6,1.0,1.0,482.0,992.0,1.0,1,206.0,1
1110,1110,-0.4706689919518943,-0.5,0.0,1.0,291.0,920.0,1.0,0,539.0,1
1111,1111,-0.21376899726257192,-0.2,0.0,1.0,427.0,563.0,1.0,0,360.0,1
1112,1112,-0.42016876682481946,-0.4,0.0,1.0,381.0,724.0,1.0,0,435.0,1
1113,1113,0.870138245162743,0.9,0.0,0.0,393.0,830.0,0.0,1,157.0,1
1114,1114,0.09410026337956967,0.1,1.0,1.0,288.0,741.0,1.0,1,1071.0,1
1115,1115,-0.4232927945397765,-0.4,0.0,1.0,311.0,747.0,1.0,0,252.0,1
1116,1116,0.5744352038222306,0.6,1.0,1.0,386.0,718.0,1.0,1,126.0,1
1117,1117,-0.18499179273153254,-0.2,0.0,1.0,292.0,584.0,1.0,0,2124.0,1
1118,1118,0.7284862722137014,0.7,0.0,0.0,404.0,864.0,0.0,1,82.0,1
1119,1119,0.18834141937006954,0.2,1.0,1.0,331.0,765.0,1.0,1,504.0,1
1120,1120,-0.20881930634083978,-0.2,1.0,0.0,388.0,643.0,0.0,0,309.0,1
1121,1121,-0.11427411995719139,-0.1,1.0,0.0,276.0,559.0,0.0,0,545.0,1
1122,1122,-0.6087435285133902,-0.6,1.0,0.0,369.0,785.0,0.0,0,186.0,1
1123,1123,0.7044061849419275,0.7,1.0,1.0,371.0,501.0,1.0,1,158.0,1
1124,1124,-0.49341874454596074,-0.5,0.0,1.0,264.0,739.0,1.0,0,407.0,1
1125,1125,0.5137924442706795,0.5,1.0,1.0,468.0,930.0,0.0,0,-418.0,0
1126,1126,0.14684323693008905,0.1,1.0,1.0,492.0,746.0,1.0,1,152.0,1
1127,1127,-0.7524256599450994,-0.8,1.0,0.0,381.0,843.0,0.0,0,86.0,1
1128,1128,0.052809948079481805,0.1,1.0,1.0,274.0,507.0,1.0,1,1539.0,1
1129,1129,-0.8848345785197733,-0.9,0.0,1.0,405.0,968.0,1.0,0,177.0,1
1130,1130,0.7788046951769155,0.8,0.0,0.0,427.0,745.0,0.0,1,128.0,1
1131,1131,-0.4759661805909385,-0.5,1.0,0.0,371.0,969.0,0.0,0,330.0,1
1132,1132,0.6146277081860253,0.6,1.0,1.0,257.0,630.0,1.0,1,193.0,1
1133,1133,-0.3137329585914802,-0.3,0.0,1.0,450.0,682.0,1.0,0,158.0,1
1134,1134,0.7307050507997391,0.7,1.0,1.0,320.0,869.0,1.0,1,151.0,1
1135,1135,-0.6156989812890266,-0.6,1.0,0.0,356.0,892.0,0.0,0,132.0,1
1136,1136,-0.2774808503225614,-0.3,0.0,1.0,345.0,796.0,1.0,0,359.0,1
1137,1137,0.23727422404803,0.2,1.0,1.0,266.0,825.0,1.0,1,229.0,1
1138,1138,0.09266700092346292,0.1,0.0,0.0,403.0,912.0,0.0,1,1685.0,1
1139,1139,-0.674566324195522,-0.7,1.0,0.0,272.0,743.0,0.0,0,225.0,1
1140,1140,0.135008506877779,0.1,1.0,1.0,423.0,906.0,1.0,1,411.0,1
1141,1141,0.03578386639324671,0.0,1.0,1.0,318.0,652.0,1.0,1,2030.0,1
1142,1142,-0.17783795222055898,-0.2,1.0,0.0,356.0,717.0,0.0,0,317.0,1
1143,1143,0.11494166930345828,0.1,0.0,0.0,346.0,779.0,0.0,1,375.0,1
1144,1144,0.36170749695130644,0.4,1.0,1.0,368.0,814.0,1.0,1,148.0,1
1145,1145,0.1913460397263148,0.2,1.0,1.0,287.0,763.0,1.0,1,1420.0,1
1146,1146,-0.11672984199943315,-0.1,1.0,0.0,288.0,508.0,0.0,0,584.0,1
1147,1147,0.34983372634897714,0.3,1.0,1.0,259.0,989.0,1.0,1,212.0,1
1148,1148,0.383120434487101,0.4,1.0,1.0,432.0,806.0,1.0,1,112.0,1
1149,1149,-0.4184508472250047,-0.4,1.0,0.0,444.0,737.0,0.0,0,299.0,1
1150,1150,0.6226210699203557,0.6,0.0,0.0,344.0,957.0,0.0,1,139.0,1
1151,1151,-0.09144005861682036,-0.1,0.0,1.0,393.0,692.0,1.0,0,1915.0,1
1152,1152,0.12188664759176115,0.1,0.0,0.0,262.0,670.0,0.0,1,188.0,1
1153,1153,-0.21709418555543936,-0.2,0.0,1.0,487.0,513.0,1.0,0,180.0,1
1154,1154,0.8775635931834042,0.9,0.0,0.0,496.0,526.0,0.0,1,138.0,1
1155,1155,-0.7451277175298425,-0.7,1.0,0.0,436.0,880.0,0.0,0,84.0,1
1156,1156,0.6756567529772836,0.7,0.0,0.0,372.0,810.0,0.0,1,158.0,1
1157,1157,-0.8699525863400099,-0.9,0.0,1.0,417.0,840.0,1.0,0,333.0,1
1158,1158,-0.06209327595291425,-0.1,0.0,1.0,308.0,848.0,1.0,0,1844.0,1
1159,1159,-0.5874965970476169,-0.6,0.0,1.0,489.0,671.0,1.0,0,200.0,1
1160,1160,-0.7813345099807146,-0.8,1.0,0.0,313.0,807.0,0.0,0,290.0,1
1161,1161,0.02512413020167914,0.0,0.0,0.0,361.0,702.0,0.0,1,547.0,1
1162,1162,-0.7458081091672719,-0.7,0.0,1.0,261.0,691.0,1.0,0,158.0,1
1163,1163,-0.2881297294660209,-0.3,1.0,0.0,496.0,813.0,0.0,0,441.0,1
1164,1164,0.4157027076175607,0.4,0.0,0.0,437.0,891.0,0.0,1,182.0,1
1165,1165,0.3472786338872592,0.3,0.0,0.0,253.0,577.0,0.0,1,210.0,1
1166,1166,-0.14407495650582192,-0.1,0.0,1.0,350.0,682.0,1.0,0,338.0,1
1167,1167,0.33402763374280864,0.3,1.0,1.0,333.0,942.0,1.0,1,185.0,1
1168,1168,-0.19259001825433375,-0.2,1.0,0.0,324.0,804.0,0.0,0,202.0,1
1169,1169,-0.8397053927087057,-0.8,1.0,0.0,289.0,779.0,0.0,0,82.0,1
1170,1170,0.14609006209339015,0.1,1.0,1.0,296.0,937.0,1.0,1,747.0,1
1171,1171,0.8106750092129423,0.8,1.0,1.0,458.0,724.0,1.0,1,618.0,1
1172,1172,-0.35806121798626167,-0.4,0.0,1.0,418.0,934.0,1.0,0,438.0,1
1173,1173,0.25816607364355637,0.3,0.0,0.0,384.0,569.0,0.0,1,257.0,1
1174,1174,-0.012551725867608554,-0.0,0.0,1.0,287.0,855.0,1.0,0,1858.0,1
1175,1175,0.7284995117336671,0.7,0.0,0.0,426.0,922.0,0.0,1,22.0,1
1176,1176,-0.3295712155625612,-0.3,1.0,0.0,252.0,784.0,0.0,0,354.0,1
1177,1177,-0.7428815989810185,-0.7,1.0,0.0,446.0,518.0,0.0,0,136.0,1
1178,1178,0.12321565473301377,0.1,0.0,0.0,357.0,861.0,0.0,1,312.0,1
1179,1179,0.7821736947556533,0.8,1.0,1.0,354.0,598.0,1.0,1,118.0,1
1180,1180,-0.30615203464120555,-0.3,1.0,0.0,276.0,900.0,0.0,0,374.0,1
1181,1181,-0.23101741251113372,-0.2,1.0,0.0,298.0,645.0,0.0,0,567.0,1
1182,1182,0.6116958515540282,0.6,0.0,0.0,302.0,712.0,0.0,1,186.0,1
1183,1183,-0.2819373823677258,-0.3,0.0,1.0,275.0,725.0,1.0,0,420.0,1
1184,1184,-0.7988385830159025,-0.8,0.0,1.0,451.0,961.0,1.0,0,1588.0,1
1185,1185,-0.6444242994563043,-0.6,1.0,0.0,481.0,818.0,0.0,0,121.0,1
1186,1186,-0.028515243305080484,-0.0,1.0,0.0,300.0,699.0,1.0,1,2001.0,0
1187,1187,0.40552191684477845,0.4,1.0,1.0,297.0,757.0,1.0,1,256.0,1
1188,1188,-0.5490224093059253,-0.5,1.0,0.0,457.0,519.0,0.0,0,244.0,1
1189,1189,0.7514194261886685,0.8,0.0,0.0,254.0,681.0,0.0,1,155.0,1
1190,1190,-0.25423979100249317,-0.3,0.0,1.0,279.0,819.0,1.0,0,292.0,1
1191,1191,-0.2261774010259192,-0.2,0.0,1.0,379.0,971.0,0.0,1,-220.0,0
1192,1192,-0.6880384415072393,-0.7,0.0,1.0,278.0,816.0,1.0,0,86.0,1
1193,1193,0.1475447483347595,0.1,1.0,1.0,471.0,801.0,1.0,1,628.0,1
1194,1194,0.7452660033344364,0.7,0.0,0.0,472.0,869.0,0.0,1,169.0,1
1195,1195,0.3470173383552727,0.3,1.0,1.0,382.0,805.0,1.0,1,383.0,1
1196,1196,-0.49867717259602246,-0.5,1.0,0.0,312.0,598.0,0.0,0,210.0,1
1197,1197,-0.829029548505101,-0.8,1.0,0.0,367.0,844.0,0.0,0,79.0,1
1198,1198,-0.00619080722055354,-0.0,0.0,1.0,409.0,515.0,1.0,0,2076.0,1
1199,1199,-0.1166500318476329,-0.1,1.0,0.0,319.0,681.0,0.0,0,440.0,1
1200,1200,-0.5826924756093605,-0.6,0.0,1.0,443.0,576.0,1.0,0,181.0,1
1201,1201,0.14562115718265722,0.1,1.0,1.0,299.0,869.0,1.0,1,672.0,1
1202,1202,0.4650291983328484,0.5,0.0,0.0,287.0,833.0,0.0,1,250.0,1
1203,1203,-0.8057872865692443,-0.8,1.0,0.0,352.0,605.0,0.0,0,133.0,1
1204,1204,0.036450036443585354,0.0,0.0,0.0,359.0,653.0,0.0,1,928.0,1
1205,1205,-0.011628029929520278,-0.0,0.0,1.0,493.0,550.0,0.0,1,1957.0,0
1206,1206,-0.6067136614131325,-0.6,1.0,0.0,255.0,700.0,0.0,0,205.0,1
1207,1207,-0.09830800136723872,-0.1,0.0,1.0,491.0,554.0,1.0,0,645.0,1
1208,1208,0.1548148866271143,0.2,0.0,0.0,441.0,824.0,0.0,1,645.0,1
1209,1209,0.7594724519662456,0.8,0.0,0.0,301.0,637.0,0.0,1,172.0,1
1210,1210,-0.22131232955280544,-0.2,1.0,0.0,439.0,724.0,0.0,0,337.0,1
1211,1211,0.3463537029944944,0.3,1.0,1.0,455.0,694.0,1.0,1,401.0,1
1212,1212,-0.08395230758238259,-0.1,1.0,0.0,267.0,756.0,0.0,0,757.0,1
1213,1213,0.6865692442023311,0.7,1.0,1.0,293.0,874.0,1.0,1,123.0,1
1214,1214,0.7654363418470086,0.8,0.0,0.0,273.0,549.0,0.0,1,88.0,1
1215,1215,-0.20383528898282866,-0.2,0.0,1.0,290.0,567.0,1.0,0,1343.0,1
1216,1216,-0.4490383245482464,-0.4,0.0,1.0,303.0,674.0,1.0,0,123.0,1
1217,1217,-0.7052269709895541,-0.7,1.0,0.0,436.0,838.0,0.0,0,196.0,1
1218,1218,0.7015075421756406,0.7,0.0,0.0,389.0,727.0,0.0,1,124.0,1
1219,1219,0.7041676536220668,0.7,0.0,0.0,489.0,937.0,0.0,1,204.0,1
1220,1220,-0.5783826899105877,-0.6,0.0,1.0,355.0,910.0,1.0,0,575.0,1
1221,1221,-0.6857904692610308,-0.7,0.0,1.0,408.0,639.0,1.0,0,213.0,1
1222,1222,0.12677193423590116,0.1,1.0,1.0,343.0,518.0,1.0,1,339.0,1
1223,1223,0.7212964965976277,0.7,1.0,1.0,306.0,797.0,1.0,1,117.0,1
1224,1224,-0.22856842171508063,-0.2,1.0,0.0,270.0,871.0,0.0,0,209.0,1
1225,1225,-0.7825636754456868,-0.8,0.0,1.0,334.0,745.0,1.0,0,221.0,1
1226,1226,-0.30049752741114033,-0.3,0.0,1.0,454.0,899.0,1.0,0,157.0,1
1227,1227,-0.8211391933749637,-0.8,1.0,0.0,323.0,987.0,0.0,0,80.0,1
1228,1228,-0.02864374965776506,-0.0,1.0,0.0,389.0,596.0,0.0,0,305.0,1
1229,1229,0.21858815118538233,0.2,1.0,1.0,489.0,752.0,1.0,1,729.0,1
1230,1230,-0.4494124726099052,-0.4,0.0,1.0,417.0,804.0,1.0,0,569.0,1
1231,1231,-0.5183419562738072,-0.5,1.0,0.0,457.0,947.0,0.0,0,106.0,1
1232,1232,-0.31698281603669287,-0.3,0.0,1.0,307.0,832.0,1.0,0,981.0,1
1233,1233,0.2943207362970016,0.3,0.0,0.0,330.0,820.0,0.0,1,360.0,1
1234,1234,0.8297288539476032,0.8,0.0,0.0,310.0,686.0,0.0,1,124.0,1
1235,1235,-0.8540561482211335,-0.9,0.0,1.0,430.0,551.0,1.0,0,269.0,1
1236,1236,0.8487708253226859,0.8,1.0,1.0,411.0,959.0,1.0,1,140.0,1
1237,1237,0.0395053571637608,0.0,0.0,0.0,302.0,876.0,0.0,1,632.0,1
1238,1238,0.40589304040595986,0.4,0.0,0.0,439.0,805.0,0.0,1,176.0,1
1239,1239,0.24500366643997673,0.2,0.0,0.0,392.0,993.0,0.0,1,145.0,1
1240,1240,0.5045058372378396,0.5,0.0,0.0,460.0,723.0,0.0,1,177.0,1
1241,1241,0.11778511964546434,0.1,1.0,1.0,365.0,900.0,1.0,1,255.0,1
1242,1242,0.4768517428804683,0.5,1.0,1.0,350.0,957.0,1.0,1,163.0,1
1243,1243,0.5667083624048409,0.6,1.0,1.0,416.0,895.0,1.0,1,199.0,1
1244,1244,0.253658246055786,0.3,1.0,1.0,391.0,667.0,1.0,1,152.0,1
1245,1245,-0.6693982688177643,-0.7,0.0,1.0,390.0,774.0,1.0,0,286.0,1
1246,1246,-0.21343603587448312,-0.2,1.0,0.0,279.0,775.0,0.0,0,456.0,1
1247,1247,0.14336310204969693,0.1,0.0,0.0,498.0,930.0,0.0,1,512.0,1
1248,1248,0.4997429903493428,0.5,0.0,0.0,255.0,937.0,0.0,1,78.0,1
1249,1249,0.3301721647575805,0.3,0.0,0.0,272.0,568.0,0.0,1,230.0,1
1250,1250,0.26380109501586213,0.3,0.0,0.0,261.0,897.0,0.0,1,172.0,1
1251,1251,-0.763974146559651,-0.8,1.0,0.0,331.0,690.0,0.0,0,179.0,1
1252,1252,0.2793368990792823,0.3,1.0,1.0,361.0,519.0,1.0,1,330.0,1
1253,1253,-0.6977088916715037,-0.7,0.0,1.0,396.0,979.0,1.0,0,175.0,1
1254,1254,-0.38458751256132606,-0.4,0.0,1.0,252.0,700.0,1.0,0,478.0,1
1255,1255,-0.5358324022459482,-0.5,0.0,1.0,414.0,852.0,1.0,0,164.0,1
1256,1256,-0.7912477512435102,-0.8,0.0,1.0,391.0,518.0,1.0,0,181.0,1
1257,1257,-0.4080214253712378,-0.4,0.0,1.0,411.0,596.0,1.0,0,723.0,1
1258,1258,-0.1375569838753894,-0.1,0.0,1.0,418.0,695.0,1.0,0,527.0,1
1259,1259,0.2624645731581191,0.3,1.0,1.0,314.0,801.0,1.0,1,305.0,1
1260,1260,-0.5395007178464182,-0.5,1.0,0.0,384.0,832.0,0.0,0,114.0,1
1261,1261,0.7248870072763219,0.7,1.0,1.0,388.0,979.0,1.0,1,113.0,1
1262,1262,-0.7410831488586407,-0.7,0.0,1.0,388.0,600.0,1.0,0,182.0,1
1263,1263,-0.7763284542182328,-0.8,0.0,1.0,264.0,750.0,1.0,0,196.0,1
1264,1264,-0.13066542727981367,-0.1,1.0,0.0,387.0,898.0,0.0,0,535.0,1
1265,1265,-0.024583537666981292,-0.0,1.0,0.0,466.0,930.0,1.0,1,1604.0,0
1266,1266,-0.6116819934942346,-0.6,1.0,0.0,298.0,914.0,0.0,0,228.0,1
1267,1267,-0.240789031900434,-0.2,1.0,0.0,497.0,546.0,0.0,0,257.0,1
1268,1268,0.36626531465585244,0.4,1.0,1.0,271.0,738.0,1.0,1,201.0,1
1269,1269,0.3076019620953384,0.3,1.0,1.0,343.0,685.0,1.0,1,312.0,1
1270,1270,-0.12818822275660857,-0.1,0.0,1.0,325.0,593.0,1.0,0,862.0,1
1271,1271,-0.4602723007800838,-0.5,1.0,0.0,442.0,939.0,0.0,0,139.0,1
1272,1272,-0.36550949416404954,-0.4,0.0,1.0,484.0,500.0,1.0,0,936.0,1
1273,1273,-0.5432642834622887,-0.5,1.0,0.0,259.0,850.0,0.0,0,151.0,1
1274,1274,-0.11180989523306051,-0.1,1.0,0.0,352.0,806.0,0.0,0,422.0,1
1275,1275,0.11183337816184358,0.1,0.0,0.0,457.0,920.0,0.0,1,-307.0,1
1276,1276,-0.054861119699782024,-0.1,1.0,0.0,375.0,803.0,0.0,0,162.0,1
1277,1277,0.5267729459645732,0.5,0.0,0.0,357.0,818.0,0.0,1,285.0,1
1278,1278,-0.39075561201141507,-0.4,0.0,1.0,484.0,957.0,1.0,0,389.0,1
1279,1279,-0.09190459276346208,-0.1,0.0,1.0,292.0,838.0,1.0,0,1870.0,1
1280,1280,0.794514614744645,0.8,1.0,1.0,342.0,986.0,1.0,1,72.0,1
1281,1281,-0.8516180949164565,-0.9,1.0,0.0,488.0,539.0,0.0,0,193.0,1
1282,1282,0.7538642607933476,0.8,1.0,1.0,342.0,961.0,0.0,0,-123.0,0
1283,1283,0.638961637781042,0.6,1.0,1.0,358.0,553.0,1.0,1,119.0,1
1284,1284,0.2695201815467988,0.3,0.0,0.0,439.0,555.0,0.0,1,296.0,1
1285,1285,0.6841858299559559,0.7,1.0,1.0,434.0,845.0,1.0,1,121.0,1
1286,1286,0.17930655368440596,0.2,1.0,1.0,387.0,960.0,1.0,1,323.0,1
1287,1287,0.7041497826953723,0.7,1.0,1.0,499.0,927.0,1.0,1,224.0,1
1288,1288,-0.02870562575197899,-0.0,1.0,0.0,271.0,727.0,0.0,0,792.0,1
1289,1289,0.8644536821017562,0.9,1.0,1.0,271.0,569.0,1.0,1,220.0,1
1290,1290,-0.08089822567591198,-0.1,1.0,0.0,423.0,705.0,0.0,0,1872.0,1
1291,1291,0.09556511383987265,0.1,1.0,1.0,447.0,767.0,1.0,1,986.0,1
1292,1292,0.09726396947824734,0.1,0.0,0.0,263.0,861.0,0.0,1,456.0,1
1293,1293,-0.01750838077548278,-0.0,0.0,1.0,329.0,564.0,1.0,0,-113.0,1
1294,1294,-0.7990902645351484,-0.8,1.0,0.0,444.0,841.0,0.0,0,135.0,1
1295,1295,0.887521080300589,0.9,0.0,0.0,401.0,704.0,0.0,1,205.0,1
1296,1296,0.0748134511682359,0.1,1.0,1.0,358.0,527.0,1.0,1,525.0,1
1297,1297,-0.46520156972863136,-0.5,1.0,0.0,340.0,909.0,0.0,0,281.0,1
1298,1298,0.07764535888058588,0.1,1.0,1.0,473.0,953.0,1.0,1,494.0,1
1299,1299,-0.060792992043704586,-0.1,0.0,1.0,480.0,920.0,1.0,0,1310.0,1
1300,1300,0.541144667939265,0.5,1.0,1.0,468.0,833.0,1.0,1,169.0,1
1301,1301,0.3949993432650415,0.4,1.0,1.0,399.0,777.0,1.0,1,264.0,1
1302,1302,0.4007993076591466,0.4,1.0,1.0,297.0,984.0,1.0,1,179.0,1
1303,1303,0.00010274033407708938,0.0,1.0,1.0,274.0,647.0,0.0,0,2079.0,0
1304,1304,0.23033317322311408,0.2,0.0,0.0,312.0,693.0,0.0,1,275.0,1
1305,1305,-0.3248146261906192,-0.3,0.0,1.0,482.0,748.0,1.0,0,310.0,1
1306,1306,0.8137250451545678,0.8,1.0,1.0,250.0,827.0,1.0,1,163.0,1
1307,1307,0.36177068569058435,0.4,0.0,0.0,332.0,649.0,0.0,1,359.0,1
1308,1308,0.2639164151733585,0.3,1.0,1.0,348.0,693.0,1.0,1,269.0,1
1309,1309,-0.85265165513638,-0.9,0.0,1.0,268.0,796.0,1.0,0,86.0,1
1310,1310,0.4698362168027158,0.5,1.0,1.0,319.0,552.0,1.0,1,239.0,1
1311,1311,0.025265627038764116,0.0,1.0,1.0,461.0,926.0,0.0,0,1613.0,0
1312,1312,0.5680051336250541,0.6,0.0,0.0,457.0,698.0,0.0,1,235.0,1
1313,1313,0.3301877975404174,0.3,0.0,0.0,490.0,598.0,0.0,1,242.0,1
1314,1314,-0.5802201036300245,-0.6,0.0,1.0,255.0,840.0,1.0,0,355.0,1
1315,1315,0.39924911024405796,0.4,0.0,0.0,437.0,508.0,0.0,1,5.0,1
1316,1316,0.8799666798697344,0.9,1.0,1.0,283.0,650.0,1.0,1,187.0,1
1317,1317,0.3176660131700585,0.3,1.0,1.0,436.0,686.0,1.0,1,808.0,1
1318,1318,-0.42093191511059275,-0.4,0.0,1.0,264.0,761.0,1.0,0,275.0,1
1319,1319,0.17154217286614581,0.2,0.0,0.0,349.0,974.0,0.0,1,437.0,1
1320,1320,-0.28669922476657506,-0.3,0.0,1.0,340.0,840.0,1.0,0,440.0,1
1321,1321,0.12852189047687046,0.1,1.0,1.0,484.0,514.0,1.0,1,432.0,1
1322,1322,0.5491337035475002,0.5,0.0,0.0,381.0,506.0,0.0,1,243.0,1
1323,1323,-0.5661953570208587,-0.6,1.0,0.0,379.0,645.0,0.0,0,106.0,1
1324,1324,-0.8291960631946669,-0.8,1.0,0.0,410.0,878.0,0.0,0,82.0,1
1325,1325,-0.35285192134849297,-0.4,1.0,0.0,328.0,574.0,0.0,0,338.0,1
1326,1326,-0.7304422255802991,-0.7,1.0,0.0,336.0,540.0,0.0,0,284.0,1
1327,1327,0.417352456056716,0.4,0.0,0.0,347.0,943.0,0.0,1,190.0,1
1328,1328,-0.25379395732721044,-0.3,1.0,0.0,473.0,755.0,0.0,0,262.0,1
1329,1329,0.5653463305564269,0.6,0.0,0.0,388.0,645.0,0.0,1,117.0,1
1330,1330,-0.28137981867789974,-0.3,1.0,0.0,397.0,716.0,0.0,0,217.0,1
1331,1331,-0.39019019545810496,-0.4,0.0,1.0,306.0,824.0,1.0,0,510.0,1
1332,1332,0.2101132050373128,0.2,1.0,1.0,489.0,724.0,1.0,1,417.0,1
1333,1333,0.8145221223093212,0.8,0.0,0.0,468.0,525.0,0.0,1,247.0,1
1334,1334,0.5338417554000249,0.5,1.0,1.0,455.0,830.0,1.0,1,325.0,1
1335,1335,0.2960434499997927,0.3,1.0,1.0,373.0,676.0,1.0,1,241.0,1
1336,1336,-0.1078730649841545,-0.1,1.0,0.0,369.0,699.0,0.0,0,882.0,1
1337,1337,0.7464962532101763,0.7,0.0,0.0,313.0,532.0,0.0,1,185.0,1
1338,1338,-0.8324744004768669,-0.8,1.0,0.0,313.0,939.0,0.0,0,88.0,1
1339,1339,-0.8017222487957892,-0.8,0.0,1.0,387.0,916.0,1.0,0,277.0,1
1340,1340,0.5214235130798158,0.5,0.0,0.0,455.0,604.0,0.0,1,51.0,1
1341,1341,0.37462902764432615,0.4,0.0,0.0,298.0,605.0,0.0,1,267.0,1
1342,1342,-0.7325655462636336,-0.7,0.0,1.0,293.0,765.0,1.0,0,1942.0,1
1343,1343,0.6992715083532278,0.7,1.0,1.0,369.0,513.0,1.0,1,298.0,1
1344,1344,0.5227506083089929,0.5,1.0,1.0,313.0,957.0,1.0,1,130.0,1
1345,1345,0.023891881736633147,0.0,0.0,0.0,467.0,760.0,0.0,1,1773.0,1
1346,1346,-0.5663366168452044,-0.6,1.0,0.0,364.0,830.0,0.0,0,236.0,1
1347,1347,-0.24556171187783848,-0.2,1.0,0.0,454.0,545.0,0.0,0,81.0,1
1348,1348,-0.5676272109828314,-0.6,0.0,1.0,394.0,628.0,1.0,0,358.0,1
1349,1349,0.6431271735048908,0.6,1.0,1.0,438.0,546.0,1.0,1,246.0,1
1350,1350,-0.24368512659748864,-0.2,1.0,0.0,380.0,718.0,0.0,0,532.0,1
1351,1351,0.15532216095749696,0.2,0.0,0.0,332.0,895.0,0.0,1,313.0,1
1352,1352,-0.11429314557130921,-0.1,1.0,0.0,276.0,846.0,0.0,0,128.0,1
1353,1353,0.1264566226095415,0.1,1.0,1.0,389.0,838.0,1.0,1,423.0,1
1354,1354,0.3958660029263489,0.4,0.0,0.0,271.0,526.0,0.0,1,283.0,1
1355,1355,0.24909362501596266,0.2,0.0,0.0,388.0,818.0,0.0,1,324.0,1
1356,1356,0.08285836738214314,0.1,1.0,1.0,319.0,830.0,1.0,1,231.0,1
1357,1357,-0.17172812308730645,-0.2,1.0,0.0,353.0,965.0,0.0,0,1062.0,1
1358,1358,0.7166536148864412,0.7,1.0,1.0,254.0,634.0,1.0,1,192.0,1
1359,1359,-0.07790809038502788,-0.1,1.0,0.0,489.0,952.0,0.0,0,519.0,1
1360,1360,0.54786993902584,0.5,1.0,1.0,395.0,516.0,1.0,1,549.0,1
1361,1361,-0.7301085050145949,-0.7,0.0,1.0,297.0,719.0,1.0,0,234.0,1
1362,1362,0.8858739626848428,0.9,1.0,1.0,322.0,950.0,1.0,1,188.0,1
1363,1363,0.6936504732056467,0.7,1.0,1.0,483.0,969.0,1.0,1,158.0,1
1364,1364,-0.44509544275570073,-0.4,1.0,0.0,495.0,709.0,0.0,0,186.0,1
1365,1365,0.17524104027341514,0.2,1.0,1.0,352.0,853.0,1.0,1,395.0,1
1366,1366,0.7167849494687092,0.7,1.0,1.0,387.0,522.0,1.0,1,381.0,1
1367,1367,-0.3911498436565538,-0.4,0.0,1.0,448.0,656.0,1.0,0,376.0,1
1368,1368,0.40861115056788655,0.4,1.0,1.0,446.0,552.0,1.0,1,292.0,1
1369,1369,0.7220655549027494,0.7,1.0,1.0,294.0,839.0,1.0,1,167.0,1
1370,1370,-0.591171473946266,-0.6,1.0,0.0,437.0,842.0,0.0,0,201.0,1
1371,1371,-0.7661025911131937,-0.8,1.0,0.0,494.0,550.0,0.0,0,176.0,1
1372,1372,0.017653293120001967,0.0,1.0,1.0,354.0,554.0,1.0,1,292.0,1
1373,1373,0.6863603871486524,0.7,0.0,0.0,295.0,689.0,0.0,1,176.0,1
1374,1374,0.6059290778993437,0.6,0.0,0.0,370.0,637.0,0.0,1,273.0,1
1375,1375,0.242375114433388,0.2,0.0,0.0,382.0,678.0,0.0,1,370.0,1
1376,1376,0.43971952309530093,0.4,1.0,1.0,487.0,766.0,1.0,1,217.0,1
1377,1377,0.4202433163799163,0.4,0.0,0.0,464.0,652.0,0.0,1,194.0,1
1378,1378,0.07535973095832493,0.1,0.0,0.0,430.0,695.0,0.0,1,1345.0,1
1379,1379,-0.40455160573536547,-0.4,1.0,0.0,270.0,933.0,0.0,0,-313.0,1
1380,1380,-0.5810698947418702,-0.6,0.0,1.0,368.0,649.0,1.0,0,473.0,1
1381,1381,-0.879875211557988,-0.9,0.0,1.0,394.0,791.0,0.0,1,1815.0,0
1382,1382,0.29529650102831384,0.3,1.0,1.0,491.0,840.0,1.0,1,179.0,1
1383,1383,0.31879437731204197,0.3,1.0,1.0,355.0,753.0,0.0,0,-148.0,0
1384,1384,-0.009713881899794718,-0.0,1.0,0.0,393.0,959.0,1.0,1,1328.0,0
1385,1385,-0.7084277275351243,-0.7,0.0,1.0,428.0,929.0,1.0,0,253.0,1
1386,1386,-0.510239354297298,-0.5,1.0,0.0,310.0,924.0,0.0,0,206.0,1
1387,1387,0.2704990838693645,0.3,0.0,0.0,399.0,815.0,0.0,1,196.0,1
1388,1388,0.3543097837635504,0.4,0.0,0.0,389.0,944.0,0.0,1,157.0,1
1389,1389,0.7790356769957495,0.8,1.0,1.0,365.0,575.0,1.0,1,200.0,1
1390,1390,-0.5652163361504245,-0.6,1.0,0.0,457.0,753.0,0.0,0,200.0,1
1391,1391,0.682757396677444,0.7,0.0,0.0,415.0,663.0,0.0,1,122.0,1
1392,1392,0.6027328446008459,0.6,1.0,1.0,388.0,532.0,1.0,1,190.0,1
1393,1393,-0.00469192160742915,-0.0,0.0,1.0,429.0,913.0,1.0,0,1658.0,1
1394,1394,0.7015788413796499,0.7,1.0,1.0,341.0,718.0,1.0,1,161.0,1
1395,1395,-0.7740921777804339,-0.8,1.0,0.0,262.0,738.0,0.0,0,170.0,1
1396,1396,-0.12676083237659852,-0.1,1.0,0.0,397.0,811.0,0.0,0,872.0,1
1397,1397,0.43708034143015817,0.4,1.0,1.0,315.0,964.0,1.0,1,301.0,1
1398,1398,0.1356908978246164,0.1,0.0,0.0,346.0,835.0,0.0,1,379.0,1
1399,1399,0.6079315109757383,0.6,0.0,0.0,265.0,563.0,0.0,1,72.0,1
1400,1400,-0.2755781971832054,-0.3,1.0,0.0,349.0,720.0,0.0,0,461.0,1
1401,1401,0.5513811968482395,0.6,0.0,0.0,423.0,645.0,0.0,1,142.0,1
1402,1402,0.47870572317694704,0.5,1.0,1.0,376.0,611.0,1.0,1,403.0,1
1403,1403,0.29101916030327935,0.3,1.0,1.0,334.0,534.0,1.0,1,402.0,1
1404,1404,-0.07497696761242201,-0.1,0.0,1.0,450.0,821.0,1.0,0,1729.0,1
1405,1405,0.7835656391533069,0.8,1.0,1.0,467.0,818.0,1.0,1,105.0,1
1406,1406,0.45095178677779957,0.5,1.0,1.0,461.0,510.0,1.0,1,229.0,1
1407,1407,-0.6863140624049799,-0.7,1.0,0.0,474.0,665.0,0.0,0,81.0,1
1408,1408,-0.6128878908765298,-0.6,1.0,0.0,388.0,506.0,0.0,0,216.0,1
1409,1409,-0.7284641434561638,-0.7,1.0,0.0,255.0,927.0,0.0,0,118.0,1
1410,1410,-0.25895521006794464,-0.3,1.0,0.0,298.0,981.0,0.0,0,511.0,1
1411,1411,-0.6113735303521837,-0.6,0.0,1.0,376.0,530.0,1.0,0,304.0,1
1412,1412,0.7238756161228662,0.7,0.0,0.0,456.0,532.0,0.0,1,152.0,1
1413,1413,0.6143588426389494,0.6,0.0,0.0,304.0,541.0,0.0,1,185.0,1
1414,1414,-0.5350968410137198,-0.5,1.0,0.0,297.0,822.0,0.0,0,301.0,1
1415,1415,0.5945145781012059,0.6,0.0,0.0,483.0,973.0,0.0,1,114.0,1
1416,1416,0.20389773362135155,0.2,0.0,0.0,375.0,687.0,0.0,1,338.0,1
1417,1417,-0.14272008631743216,-0.1,1.0,0.0,393.0,614.0,0.0,0,443.0,1
1418,1418,-0.42909991090384114,-0.4,0.0,1.0,291.0,683.0,1.0,0,376.0,1
1419,1419,0.8479511107897283,0.8,0.0,0.0,394.0,689.0,0.0,1,147.0,1
1420,1420,0.6840996619864522,0.7,0.0,0.0,432.0,864.0,0.0,1,94.0,1
1421,1421,0.10937025205073991,0.1,1.0,1.0,417.0,938.0,1.0,1,645.0,1
1422,1422,0.7176466793144355,0.7,0.0,0.0,286.0,515.0,0.0,1,199.0,1
1423,1423,-0.013840752903721332,-0.0,1.0,0.0,266.0,847.0,1.0,1,1887.0,0
1424,1424,-0.8470949294049426,-0.8,1.0,0.0,256.0,637.0,0.0,0,67.0,1
1425,1425,0.05725141744081963,0.1,0.0,0.0,283.0,809.0,0.0,1,988.0,1
1426,1426,-0.7374632372124599,-0.7,0.0,1.0,420.0,845.0,1.0,0,435.0,1
1427,1427,-0.7008145184960074,-0.7,1.0,0.0,304.0,908.0,0.0,0,138.0,1
1428,1428,-0.1760792949445359,-0.2,1.0,0.0,414.0,725.0,0.0,0,211.0,1
1429,1429,-0.8018327716320852,-0.8,0.0,1.0,430.0,711.0,1.0,0,59.0,1
1430,1430,0.3513591411950908,0.4,1.0,1.0,304.0,571.0,1.0,1,415.0,1
1431,1431,-0.10427726865060849,-0.1,1.0,0.0,416.0,853.0,0.0,0,441.0,1
1432,1432,-0.13957534302593477,-0.1,0.0,1.0,273.0,535.0,1.0,0,492.0,1
1433,1433,-0.594210887618015,-0.6,1.0,0.0,377.0,658.0,0.0,0,155.0,1
1434,1434,-0.6808151441130724,-0.7,1.0,0.0,359.0,903.0,0.0,0,128.0,1
1435,1435,-0.2662163233779221,-0.3,1.0,0.0,486.0,506.0,0.0,0,298.0,1
1436,1436,0.40151380695452,0.4,0.0,0.0,285.0,857.0,0.0,1,228.0,1
1437,1437,-0.5393762838752315,-0.5,1.0,0.0,284.0,723.0,0.0,0,253.0,1
1438,1438,0.5460167662093948,0.5,1.0,1.0,323.0,920.0,1.0,1,157.0,1
1439,1439,-0.3738882159385676,-0.4,1.0,0.0,437.0,504.0,0.0,0,309.0,1
1440,1440,-0.5539473185628079,-0.6,0.0,1.0,408.0,943.0,1.0,0,209.0,1
1441,1441,0.21855963386089783,0.2,0.0,0.0,365.0,816.0,0.0,1,759.0,1
1442,1442,0.4994088471625787,0.5,0.0,0.0,261.0,614.0,0.0,1,185.0,1
1443,1443,0.4507094401088737,0.5,1.0,1.0,449.0,663.0,1.0,1,108.0,1
1444,1444,0.038460299827704825,0.0,0.0,0.0,462.0,599.0,0.0,1,1939.0,1
1445,1445,-0.1254351810444193,-0.1,1.0,0.0,457.0,786.0,0.0,0,577.0,1
1446,1446,0.19855761764840418,0.2,1.0,1.0,341.0,569.0,1.0,1,490.0,1
1447,1447,-0.1056453031676784,-0.1,0.0,1.0,400.0,799.0,1.0,0,851.0,1
1448,1448,-0.5260788786885435,-0.5,1.0,0.0,412.0,922.0,0.0,0,466.0,1
1449,1449,0.8437718797560542,0.8,0.0,0.0,355.0,735.0,0.0,1,110.0,1
1450,1450,0.12143979379124004,0.1,0.0,0.0,454.0,720.0,0.0,1,686.0,1
1451,1451,-0.7514929157478418,-0.8,1.0,0.0,439.0,722.0,0.0,0,249.0,1
1452,1452,-0.6420411809307736,-0.6,1.0,0.0,441.0,821.0,0.0,0,138.0,1
1453,1453,0.8291609573095228,0.8,0.0,0.0,333.0,811.0,0.0,1,6.0,1
1454,1454,-0.1754776460351697,-0.2,0.0,1.0,367.0,982.0,1.0,0,861.0,1
1455,1455,-0.3699341224855961,-0.4,0.0,1.0,281.0,935.0,1.0,0,304.0,1
1456,1456,0.4227153165609451,0.4,1.0,1.0,436.0,727.0,1.0,1,257.0,1
1457,1457,0.3384553840193131,0.3,1.0,1.0,447.0,522.0,1.0,1,391.0,1
1458,1458,0.21317714682760835,0.2,0.0,0.0,448.0,575.0,0.0,1,257.0,1
1459,1459,0.2919565537525962,0.3,1.0,1.0,333.0,980.0,1.0,1,207.0,1
1460,1460,0.6451808302241225,0.6,1.0,1.0,409.0,688.0,1.0,1,163.0,1
1461,1461,0.10881806948039918,0.1,1.0,1.0,410.0,571.0,1.0,1,1129.0,1
1462,1462,-0.4048442812211229,-0.4,1.0,0.0,468.0,572.0,0.0,0,320.0,1
1463,1463,-0.011980405513658754,-0.0,0.0,1.0,456.0,603.0,1.0,0,1401.0,1
1464,1464,0.39502153328178624,0.4,1.0,1.0,414.0,964.0,1.0,1,262.0,1
1465,1465,-0.6892022619262625,-0.7,0.0,1.0,362.0,703.0,1.0,0,215.0,1
1466,1466,-0.35520948928678964,-0.4,0.0,1.0,309.0,736.0,1.0,0,395.0,1
1467,1467,0.6906212249905334,0.7,1.0,1.0,350.0,889.0,1.0,1,171.0,1
1468,1468,-0.5182480194793742,-0.5,1.0,0.0,425.0,675.0,0.0,0,180.0,1
1469,1469,0.6974519552151345,0.7,0.0,0.0,309.0,815.0,1.0,0,-264.0,0
1470,1470,-0.6071923410067445,-0.6,0.0,1.0,427.0,606.0,1.0,0,377.0,1
1471,1471,0.09750681869991196,0.1,0.0,0.0,429.0,808.0,0.0,1,613.0,1
1472,1472,-0.5416162334805132,-0.5,1.0,0.0,486.0,778.0,0.0,0,106.0,1
1473,1473,-0.7672551090950432,-0.8,1.0,0.0,437.0,675.0,0.0,0,168.0,1
1474,1474,-0.03895727946737049,-0.0,0.0,1.0,317.0,580.0,0.0,1,933.0,0
1475,1475,0.41418647423872257,0.4,0.0,0.0,332.0,799.0,0.0,1,209.0,1
1476,1476,0.341652096075456,0.3,1.0,1.0,294.0,715.0,1.0,1,321.0,1
1477,1477,-0.848526289940098,-0.8,1.0,0.0,383.0,914.0,0.0,0,73.0,1
1478,1478,0.6773273935348832,0.7,1.0,1.0,261.0,517.0,1.0,1,232.0,1
1479,1479,0.002781724326811341,0.0,1.0,1.0,438.0,693.0,1.0,1,1869.0,1
1480,1480,0.274426143541762,0.3,1.0,1.0,421.0,652.0,1.0,1,447.0,1
1481,1481,0.022817836489729904,0.0,1.0,1.0,294.0,933.0,1.0,1,1773.0,1
1482,1482,0.674057430504233,0.7,0.0,0.0,453.0,679.0,0.0,1,98.0,1
1483,1483,0.8238902509413683,0.8,1.0,1.0,342.0,548.0,1.0,1,310.0,1
1484,1484,0.3220371416593101,0.3,1.0,1.0,396.0,980.0,1.0,1,204.0,1
1485,1485,-0.6495143106691391,-0.6,0.0,1.0,409.0,904.0,0.0,1,-213.0,0
1486,1486,-0.10895628839079996,-0.1,1.0,0.0,306.0,667.0,0.0,0,987.0,1
1487,1487,-0.43203255418231223,-0.4,0.0,1.0,261.0,893.0,1.0,0,276.0,1
1488,1488,0.6208678295966524,0.6,0.0,0.0,263.0,598.0,0.0,1,269.0,1
1489,1489,-0.6377436186126508,-0.6,0.0,1.0,283.0,582.0,1.0,0,275.0,1
1490,1490,-0.8488334261686818,-0.8,0.0,1.0,406.0,801.0,1.0,0,113.0,1
1491,1491,-0.2921500037824363,-0.3,0.0,1.0,461.0,835.0,1.0,0,354.0,1
1492,1492,-0.8253857262306352,-0.8,1.0,0.0,427.0,785.0,0.0,0,108.0,1
