,trial,coherence,coherence_bin,green_side,correct_side,target_onset,checker_onset,decision,green_decision,decision_time,correct_decision
0,0,0.3661904672295543,0.4,0.0,0.0,287.0,868.0,0.0,1,305.0,1
1,1,0.8067989462992232,0.8,0.0,0.0,265.0,959.0,0.0,1,226.0,1
2,2,0.06294014493278222,0.1,1.0,1.0,316.0,871.0,1.0,1,1093.0,1
3,3,-0.7660984780397865,-0.8,0.0,1.0,258.0,610.0,1.0,0,202.0,1
4,4,0.06659978859101134,0.1,0.0,0.0,406.0,763.0,1.0,0,1831.0,0
5,5,-0.28550575593465255,-0.3,0.0,1.0,251.0,534.0,1.0,0,305.0,1
6,6,-0.7621232833786905,-0.8,0.0,1.0,276.0,902.0,1.0,0,-8.0,1
7,7,-0.29572599062563565,-0.3,0.0,1.0,391.0,730.0,1.0,0,559.0,1
8,8,0.808726161881791,0.8,0.0,0.0,258.0,621.0,1.0,0,-179.0,0
9,9,-0.17042770900592452,-0.2,0.0,1.0,343.0,724.0,1.0,0,543.0,1
10,10,0.19322282703099247,0.2,0.0,0.0,320.0,953.0,0.0,1,297.0,1
11,11,-0.7624090631627719,-0.8,0.0,1.0,478.0,726.0,1.0,0,136.0,1
12,12,-0.5380461487561365,-0.5,1.0,0.0,486.0,552.0,0.0,0,262.0,1
13,13,-0.38452567350031586,-0.4,0.0,1.0,271.0,816.0,1.0,0,243.0,1
14,14,-0.30924770404907875,-0.3,0.0,1.0,458.0,747.0,1.0,0,255.0,1
15,15,-0.8750212114910492,-0.9,0.0,1.0,275.0,531.0,1.0,0,244.0,1
16,16,-0.15316862724602176,-0.2,1.0,0.0,466.0,717.0,0.0,0,817.0,1
17,17,0.22035121761211884,0.2,0.0,0.0,399.0,661.0,0.0,1,130.0,1
18,18,0.17344521986995354,0.2,1.0,1.0,422.0,721.0,1.0,1,117.0,1
19,19,-0.06359798490244295,-0.1,1.0,0.0,441.0,687.0,0.0,0,562.0,1
20,20,0.7414440633135221,0.7,1.0,1.0,447.0,812.0,1.0,1,261.0,1
21,21,0.19690085464231888,0.2,1.0,1.0,400.0,786.0,1.0,1,484.0,1
22,22,-0.04714118464778971,-0.0,0.0,1.0,409.0,891.0,1.0,0,710.0,1
23,23,-0.6715098654953805,-0.7,0.0,1.0,370.0,831.0,1.0,0,229.0,1
24,24,-0.025335022822851272,-0.0,0.0,1.0,369.0,519.0,1.0,0,732.0,1
25,25,-0.44619526441837265,-0.4,1.0,0.0,313.0,571.0,0.0,0,226.0,1
26,26,0.8991251478667056,0.9,1.0,1.0,281.0,542.0,1.0,1,197.0,1
27,27,0.8507486084300567,0.9,0.0,0.0,375.0,809.0,0.0,1,166.0,1
28,28,0.7455958000189863,0.7,1.0,1.0,412.0,811.0,1.0,1,197.0,1
29,29,0.1649544276864473,0.2,0.0,0.0,287.0,679.0,0.0,1,674.0,1
30,30,-0.1622753076576111,-0.2,0.0,1.0,414.0,627.0,1.0,0,529.0,1
31,31,-0.5984709893443535,-0.6,0.0,1.0,343.0,627.0,1.0,0,220.0,1
32,32,-0.4679534737315631,-0.5,1.0,0.0,313.0,882.0,0.0,0,-315.0,1
33,33,-0.39065478721437497,-0.4,1.0,0.0,298.0,819.0,0.0,0,373.0,1
34,34,-0.11669818875678728,-0.1,0.0,1.0,344.0,922.0,1.0,0,1474.0,1
35,35,0.4961999902258768,0.5,1.0,1.0,400.0,511.0,1.0,1,269.0,1
36,36,-0.07689725570204253,-0.1,0.0,1.0,252.0,500.0,1.0,0,1598.0,1
37,37,0.8378346175449195,0.8,1.0,1.0,476.0,576.0,1.0,1,168.0,1
38,38,0.03205886098330524,0.0,1.0,1.0,398.0,770.0,0.0,0,892.0,0
39,39,0.3773370449476253,0.4,0.0,0.0,441.0,809.0,0.0,1,380.0,1
40,40,-0.7257093576362859,-0.7,1.0,0.0,319.0,727.0,0.0,0,114.0,1
41,41,0.7429738639680198,0.7,0.0,0.0,345.0,614.0,0.0,1,201.0,1
42,42,0.40369927111866655,0.4,1.0,1.0,426.0,515.0,1.0,1,629.0,1
43,43,0.8434302255737073,0.8,0.0,0.0,401.0,935.0,0.0,1,134.0,1
44,44,-0.5266401531950528,-0.5,1.0,0.0,492.0,838.0,0.0,0,150.0,1
45,45,-0.7161792509673705,-0.7,0.0,1.0,423.0,888.0,1.0,0,149.0,1
46,46,0.26282889023972966,0.3,1.0,1.0,294.0,765.0,1.0,1,671.0,1
47,47,0.679583809415227,0.7,1.0,1.0,474.0,793.0,1.0,1,213.0,1
48,48,0.5600607135486239,0.6,0.0,0.0,486.0,682.0,0.0,1,62.0,1
49,49,-0.039493507796276806,-0.0,1.0,0.0,438.0,583.0,0.0,0,259.0,1
50,50,0.8422692811725497,0.8,0.0,0.0,482.0,701.0,0.0,1,157.0,1
51,51,-0.32000826159002316,-0.3,0.0,1.0,349.0,786.0,1.0,0,245.0,1
52,52,-0.22179670588983802,-0.2,0.0,1.0,423.0,765.0,1.0,0,42.0,1
53,53,-0.22874052324004823,-0.2,1.0,0.0,402.0,721.0,0.0,0,477.0,1
54,54,0.21492947973966758,0.2,0.0,0.0,458.0,930.0,0.0,1,852.0,1
55,55,0.8427020675399602,0.8,0.0,0.0,497.0,997.0,0.0,1,76.0,1
56,56,-0.11136097948800061,-0.1,0.0,1.0,463.0,690.0,1.0,0,1427.0,1
57,57,0.7567986814861279,0.8,1.0,1.0,454.0,667.0,1.0,1,449.0,1
58,58,0.014382391860517374,0.0,1.0,1.0,370.0,776.0,1.0,1,1094.0,1
59,59,0.11645037261521429,0.1,1.0,1.0,430.0,719.0,1.0,1,1081.0,1
60,60,-0.8946525544354729,-0.9,1.0,0.0,341.0,916.0,0.0,0,183.0,1
61,61,-0.3894808040421335,-0.4,1.0,0.0,371.0,996.0,0.0,0,303.0,1
62,62,-0.18771218469687012,-0.2,0.0,1.0,351.0,784.0,1.0,0,375.0,1
63,63,-0.4012846500313318,-0.4,0.0,1.0,468.0,638.0,1.0,0,374.0,1
64,64,-0.353053006747453,-0.4,1.0,0.0,447.0,542.0,0.0,0,91.0,1
65,65,0.14724340656841417,0.1,0.0,0.0,250.0,666.0,0.0,1,854.0,1
66,66,-0.8493542411158267,-0.8,0.0,1.0,271.0,966.0,0.0,1,-247.0,0
67,67,0.5091784441058381,0.5,1.0,1.0,322.0,568.0,1.0,1,230.0,1
68,68,-0.7707370308262549,-0.8,1.0,0.0,435.0,601.0,0.0,0,84.0,1
69,69,0.8601745662139345,0.9,0.0,0.0,462.0,602.0,0.0,1,216.0,1
70,70,-0.6417261936541702,-0.6,0.0,1.0,466.0,924.0,1.0,0,240.0,1
71,71,0.63481389372161,0.6,0.0,0.0,343.0,678.0,0.0,1,119.0,1
72,72,0.7079609696067574,0.7,0.0,0.0,359.0,518.0,0.0,1,153.0,1
73,73,-0.8881694289500701,-0.9,1.0,0.0,418.0,716.0,0.0,0,76.0,1
74,74,-0.24243771187918217,-0.2,0.0,1.0,334.0,989.0,1.0,0,137.0,1
75,75,-0.6628504439473883,-0.7,1.0,0.0,265.0,907.0,0.0,0,38.0,1
76,76,-0.03493636604364381,-0.0,0.0,1.0,457.0,610.0,1.0,0,873.0,1
77,77,0.4537566678866035,0.5,0.0,0.0,419.0,668.0,0.0,1,83.0,1
78,78,-0.6054697666720952,-0.6,1.0,0.0,419.0,717.0,0.0,0,234.0,1
79,79,-0.47299685907961225,-0.5,0.0,1.0,281.0,673.0,1.0,0,546.0,1
80,80,0.316347225119309,0.3,1.0,1.0,450.0,877.0,1.0,1,223.0,1
81,81,-0.37964371925731244,-0.4,0.0,1.0,338.0,525.0,1.0,0,507.0,1
82,82,-0.8643598303702736,-0.9,1.0,0.0,399.0,693.0,0.0,0,138.0,1
83,83,-0.6186691887683886,-0.6,1.0,0.0,261.0,804.0,0.0,0,245.0,1
84,84,0.762688985025647,0.8,0.0,0.0,323.0,644.0,0.0,1,93.0,1
85,85,-0.69736557624963,-0.7,1.0,0.0,378.0,790.0,0.0,0,92.0,1
86,86,-0.24810165624020009,-0.2,0.0,1.0,341.0,995.0,1.0,0,184.0,1
87,87,-0.3400212715970775,-0.3,1.0,0.0,255.0,502.0,0.0,0,223.0,1
88,88,0.7768732658789842,0.8,1.0,1.0,403.0,966.0,1.0,1,181.0,1
89,89,-0.36942681518366205,-0.4,1.0,0.0,330.0,529.0,0.0,0,251.0,1
90,90,-0.20494876492087977,-0.2,0.0,1.0,343.0,725.0,1.0,0,302.0,1
91,91,-0.4673661594754405,-0.5,0.0,1.0,493.0,624.0,1.0,0,283.0,1
92,92,-0.023804228045516185,-0.0,0.0,1.0,266.0,663.0,1.0,0,2071.0,1
93,93,0.3399929811369765,0.3,0.0,0.0,329.0,957.0,1.0,0,-106.0,0
94,94,-0.6017159921549645,-0.6,0.0,1.0,398.0,724.0,1.0,0,198.0,1
95,95,0.8461714740753316,0.8,0.0,0.0,333.0,555.0,0.0,1,232.0,1
96,96,0.1296979337593559,0.1,0.0,0.0,270.0,746.0,0.0,1,434.0,1
97,97,0.5272959518341246,0.5,1.0,1.0,423.0,651.0,1.0,1,336.0,1
98,98,0.06022789739030676,0.1,0.0,0.0,395.0,695.0,1.0,0,1910.0,0
99,99,-0.29721853984367963,-0.3,1.0,0.0,409.0,852.0,0.0,0,29.0,1
100,100,-0.7723524628672258,-0.8,0.0,1.0,308.0,838.0,1.0,0,94.0,1
101,101,-0.04833434701721406,-0.0,1.0,0.0,270.0,656.0,1.0,1,1914.0,0
102,102,-0.42550365557454367,-0.4,0.0,1.0,391.0,678.0,1.0,0,141.0,1
103,103,-0.42152981249007976,-0.4,1.0,0.0,384.0,836.0,0.0,0,270.0,1
104,104,-0.866139875278149,-0.9,1.0,0.0,441.0,565.0,0.0,0,94.0,1
105,105,-0.7280042366919024,-0.7,0.0,1.0,483.0,962.0,1.0,0,125.0,1
106,106,-0.22647748820790603,-0.2,0.0,1.0,488.0,521.0,1.0,0,691.0,1
107,107,-0.5871505553072034,-0.6,0.0,1.0,261.0,844.0,1.0,0,235.0,1
108,108,0.10706463346714512,0.1,1.0,1.0,475.0,670.0,1.0,1,585.0,1
109,109,0.7157151384668793,0.7,0.0,0.0,410.0,593.0,0.0,1,187.0,1
110,110,0.3247570681597495,0.3,0.0,0.0,461.0,694.0,0.0,1,325.0,1
111,111,0.6020521164177545,0.6,0.0,0.0,421.0,721.0,0.0,1,118.0,1
112,112,-0.6756170187383396,-0.7,0.0,1.0,388.0,668.0,1.0,0,154.0,1
113,113,-0.48388414907705946,-0.5,0.0,1.0,306.0,806.0,1.0,0,108.0,1
114,114,0.8349544087649498,0.8,0.0,0.0,491.0,980.0,0.0,1,199.0,1
115,115,0.843100827226447,0.8,1.0,1.0,484.0,942.0,1.0,1,4.0,1
116,116,-0.2541174249663424,-0.3,1.0,0.0,427.0,927.0,0.0,0,1086.0,1
117,117,0.2613680267713846,0.3,1.0,1.0,290.0,552.0,1.0,1,348.0,1
118,118,0.23052416147633858,0.2,0.0,0.0,339.0,765.0,0.0,1,346.0,1
119,119,0.5950347672679971,0.6,0.0,0.0,278.0,771.0,0.0,1,101.0,1
120,120,-0.487232033843123,-0.5,1.0,0.0,295.0,782.0,0.0,0,433.0,1
121,121,0.18061915267689532,0.2,1.0,1.0,476.0,861.0,1.0,1,253.0,1
122,122,-0.6819250938630299,-0.7,0.0,1.0,318.0,861.0,0.0,1,-109.0,0
123,123,-0.4673538565121008,-0.5,0.0,1.0,410.0,624.0,1.0,0,306.0,1
124,124,0.45746382350271564,0.5,0.0,0.0,420.0,813.0,0.0,1,287.0,1
125,125,-0.6846198236188707,-0.7,1.0,0.0,444.0,947.0,0.0,0,169.0,1
126,126,0.6840837164642121,0.7,1.0,1.0,390.0,793.0,1.0,1,177.0,1
127,127,-0.6752517431429462,-0.7,0.0,1.0,305.0,669.0,1.0,0,126.0,1
128,128,0.4214627603865332,0.4,0.0,0.0,303.0,546.0,0.0,1,221.0,1
129,129,0.28825758105905186,0.3,1.0,1.0,437.0,949.0,0.0,0,-106.0,0
130,130,0.008656593475921182,0.0,0.0,0.0,464.0,645.0,1.0,0,431.0,0
131,131,-0.29357916320020383,-0.3,1.0,0.0,315.0,839.0,0.0,0,716.0,1
132,132,0.4604870406918934,0.5,1.0,1.0,292.0,689.0,1.0,1,339.0,1
133,133,0.7215516867328601,0.7,0.0,0.0,358.0,549.0,0.0,1,193.0,1
134,134,-0.8667666127112954,-0.9,0.0,1.0,320.0,952.0,0.0,1,-102.0,0
135,135,0.008999101039087298,0.0,1.0,1.0,344.0,992.0,1.0,1,-176.0,1
136,136,0.41473527486304274,0.4,0.0,0.0,320.0,979.0,0.0,1,231.0,1
137,137,-0.6972350491862027,-0.7,1.0,0.0,368.0,591.0,0.0,0,91.0,1
138,138,0.2656836511070487,0.3,0.0,0.0,374.0,633.0,0.0,1,263.0,1
139,139,0.7974344153480847,0.8,0.0,0.0,469.0,557.0,0.0,1,214.0,1
140,140,-0.7256975213994448,-0.7,1.0,0.0,363.0,593.0,0.0,0,164.0,1
141,141,-0.1789468573247487,-0.2,0.0,1.0,294.0,928.0,1.0,0,258.0,1
142,142,-0.8476448224164107,-0.8,0.0,1.0,271.0,862.0,1.0,0,107.0,1
143,143,-0.4150763079637421,-0.4,0.0,1.0,371.0,874.0,1.0,0,35.0,1
144,144,-0.41005451043041624,-0.4,0.0,1.0,443.0,550.0,1.0,0,397.0,1
145,145,-0.6572623458231398,-0.7,0.0,1.0,414.0,956.0,1.0,0,30.0,1
146,146,-0.2907551367703568,-0.3,1.0,0.0,398.0,740.0,0.0,0,282.0,1
147,147,0.5755304833687466,0.6,1.0,1.0,304.0,706.0,1.0,1,340.0,1
148,148,-0.3277401920424817,-0.3,0.0,1.0,306.0,736.0,1.0,0,198.0,1
149,149,0.5544238862731844,0.6,0.0,0.0,406.0,694.0,0.0,1,190.0,1
150,150,-0.09821023939149953,-0.1,0.0,1.0,329.0,863.0,1.0,0,978.0,1
151,151,0.7255451463509773,0.7,0.0,0.0,348.0,642.0,0.0,1,150.0,1
152,152,-0.46395399662059256,-0.5,0.0,1.0,274.0,996.0,1.0,0,110.0,1
153,153,-0.05200482630856851,-0.1,0.0,1.0,296.0,839.0,1.0,0,345.0,1
154,154,0.2273272578395814,0.2,1.0,1.0,445.0,851.0,1.0,1,-56.0,1
155,155,-0.10865280439991087,-0.1,1.0,0.0,331.0,715.0,0.0,0,34.0,1
156,156,-0.007914855705578705,-0.0,0.0,1.0,439.0,948.0,1.0,0,1063.0,1
157,157,0.818918449288769,0.8,0.0,0.0,250.0,503.0,0.0,1,277.0,1
158,158,-0.3866756839066603,-0.4,0.0,1.0,289.0,800.0,1.0,0,61.0,1
159,159,-0.0308261979651816,-0.0,0.0,1.0,407.0,630.0,1.0,0,513.0,1
160,160,0.44166066100030144,0.4,1.0,1.0,345.0,617.0,1.0,1,448.0,1
161,161,0.6185623670390344,0.6,1.0,1.0,378.0,541.0,1.0,1,81.0,1
162,162,0.3006506191735131,0.3,1.0,1.0,277.0,565.0,1.0,1,318.0,1
163,163,0.737905546175878,0.7,0.0,0.0,372.0,527.0,0.0,1,231.0,1
164,164,0.8645192995662393,0.9,1.0,1.0,449.0,903.0,1.0,1,18.0,1
165,165,-0.014463847128877827,-0.0,1.0,0.0,460.0,607.0,1.0,1,1623.0,0
166,166,0.4731881527971279,0.5,0.0,0.0,402.0,625.0,0.0,1,313.0,1
167,167,-0.2747402754641606,-0.3,1.0,0.0,385.0,503.0,0.0,0,202.0,1
168,168,-0.4745256919278832,-0.5,0.0,1.0,484.0,927.0,1.0,0,149.0,1
169,169,-0.08434341104808718,-0.1,0.0,1.0,429.0,670.0,1.0,0,561.0,1
170,170,0.87162158369143,0.9,0.0,0.0,299.0,875.0,0.0,1,146.0,1
171,171,0.3173876665031078,0.3,0.0,0.0,263.0,742.0,0.0,1,595.0,1
172,172,-0.23274491621510196,-0.2,0.0,1.0,314.0,756.0,1.0,0,420.0,1
173,173,0.1250679409803951,0.1,0.0,0.0,262.0,889.0,0.0,1,589.0,1
174,174,-0.8952132187603153,-0.9,1.0,0.0,382.0,890.0,0.0,0,138.0,1
175,175,0.3032422758224135,0.3,1.0,1.0,373.0,579.0,1.0,1,558.0,1
176,176,-0.3969799846973726,-0.4,1.0,0.0,295.0,903.0,0.0,0,72.0,1
177,177,0.5540578021176789,0.6,1.0,1.0,284.0,665.0,1.0,1,261.0,1
178,178,0.742004745517891,0.7,0.0,0.0,258.0,755.0,1.0,0,-73.0,0
179,179,-0.654992384288779,-0.7,1.0,0.0,330.0,880.0,0.0,0,90.0,1
180,180,0.16321466378822957,0.2,0.0,0.0,337.0,744.0,0.0,1,479.0,1
181,181,0.803111124205825,0.8,1.0,1.0,390.0,939.0,1.0,1,141.0,1
182,182,0.6772865454436737,0.7,1.0,1.0,440.0,594.0,1.0,1,216.0,1
183,183,-0.7316652639813047,-0.7,0.0,1.0,280.0,711.0,1.0,0,169.0,1
184,184,-0.21937609419584048,-0.2,1.0,0.0,481.0,658.0,0.0,0,311.0,1
185,185,-0.8998106070880326,-0.9,1.0,0.0,409.0,821.0,0.0,0,120.0,1
186,186,-0.34302613199493737,-0.3,0.0,1.0,427.0,511.0,1.0,0,162.0,1
187,187,0.7686986265755945,0.8,1.0,1.0,459.0,564.0,1.0,1,187.0,1
188,188,0.2332260838951009,0.2,0.0,0.0,491.0,505.0,0.0,1,294.0,1
189,189,-0.35282806168685477,-0.4,0.0,1.0,373.0,675.0,1.0,0,302.0,1
190,190,0.43732317400856957,0.4,0.0,0.0,471.0,785.0,0.0,1,504.0,1
191,191,-0.4102297969367788,-0.4,1.0,0.0,395.0,654.0,0.0,0,141.0,1
192,192,0.3856913827227496,0.4,0.0,0.0,327.0,639.0,0.0,1,244.0,1
193,193,0.10766436789679024,0.1,0.0,0.0,484.0,738.0,1.0,0,1778.0,0
194,194,-0.03092004849869401,-0.0,1.0,0.0,429.0,724.0,1.0,1,487.0,0
195,195,0.8470048003194065,0.8,0.0,0.0,449.0,646.0,0.0,1,185.0,1
196,196,-0.6846311241463102,-0.7,0.0,1.0,447.0,579.0,1.0,0,204.0,1
197,197,-0.0012945895370750637,-0.0,1.0,0.0,405.0,687.0,1.0,1,808.0,0
198,198,-0.6414625227194181,-0.6,1.0,0.0,283.0,671.0,0.0,0,236.0,1
199,199,0.880442073128538,0.9,0.0,0.0,415.0,792.0,0.0,1,-47.0,1
200,200,0.27551118983782985,0.3,1.0,1.0,373.0,528.0,1.0,1,149.0,1
201,201,-0.11309246350353164,-0.1,0.0,1.0,460.0,619.0,1.0,0,1421.0,1
202,202,0.8104064363528297,0.8,1.0,1.0,341.0,906.0,1.0,1,303.0,1
203,203,-0.22104965379782515,-0.2,1.0,0.0,355.0,781.0,0.0,0,274.0,1
204,204,0.0534500484930458,0.1,0.0,0.0,334.0,720.0,1.0,0,1946.0,0
205,205,0.3498246993405757,0.3,0.0,0.0,265.0,649.0,0.0,1,146.0,1
206,206,0.17740964834135953,0.2,1.0,1.0,381.0,601.0,1.0,1,158.0,1
207,207,-0.5463265986851571,-0.5,0.0,1.0,284.0,916.0,1.0,0,120.0,1
208,208,-0.36261223183269553,-0.4,1.0,0.0,278.0,571.0,0.0,0,121.0,1
209,209,0.7824437182013099,0.8,1.0,1.0,406.0,660.0,1.0,1,144.0,1
210,210,0.28078040459076614,0.3,1.0,1.0,461.0,539.0,1.0,1,110.0,1
211,211,-0.05956247780886881,-0.1,1.0,0.0,271.0,779.0,1.0,1,730.0,0
212,212,0.8099685378431011,0.8,0.0,0.0,340.0,505.0,0.0,1,185.0,1
213,213,0.341997644457828,0.3,1.0,1.0,322.0,984.0,1.0,1,324.0,1
214,214,0.8184961668254035,0.8,0.0,0.0,384.0,615.0,0.0,1,-19.0,1
215,215,0.017749377052910242,0.0,1.0,1.0,355.0,799.0,0.0,0,36.0,0
216,216,-0.4491789919497721,-0.4,0.0,1.0,315.0,884.0,1.0,0,381.0,1
217,217,-0.18040432930045391,-0.2,1.0,0.0,340.0,911.0,0.0,0,159.0,1
218,218,-0.451094072366695,-0.5,0.0,1.0,393.0,511.0,1.0,0,476.0,1
219,219,-0.3270248017564755,-0.3,0.0,1.0,365.0,606.0,1.0,0,459.0,1
220,220,-0.8075550164196951,-0.8,0.0,1.0,423.0,801.0,1.0,0,156.0,1
221,221,0.31589914538435504,0.3,1.0,1.0,366.0,731.0,1.0,1,193.0,1
222,222,0.6158364553409018,0.6,0.0,0.0,308.0,610.0,0.0,1,252.0,1
223,223,-0.28192817554149174,-0.3,0.0,1.0,430.0,512.0,1.0,0,648.0,1
224,224,0.8366525929656706,0.8,1.0,1.0,479.0,929.0,1.0,1,122.0,1
225,225,0.5830881853821542,0.6,1.0,1.0,406.0,514.0,1.0,1,210.0,1
226,226,-0.6142559892217154,-0.6,1.0,0.0,295.0,670.0,0.0,0,285.0,1
227,227,0.5642678057387936,0.6,1.0,1.0,256.0,707.0,1.0,1,97.0,1
228,228,0.7580086204554873,0.8,0.0,0.0,487.0,880.0,0.0,1,213.0,1
229,229,-0.201605080272394,-0.2,0.0,1.0,355.0,776.0,1.0,0,349.0,1
230,230,0.7233121009148805,0.7,0.0,0.0,294.0,719.0,0.0,1,107.0,1
231,231,-0.18636554659374438,-0.2,1.0,0.0,405.0,834.0,0.0,0,571.0,1
232,232,-0.6503276179909131,-0.7,0.0,1.0,479.0,799.0,1.0,0,262.0,1
233,233,-0.6590716446104272,-0.7,1.0,0.0,305.0,746.0,0.0,0,259.0,1
234,234,0.30287581277498254,0.3,1.0,1.0,349.0,697.0,0.0,0,-126.0,0
235,235,-0.670806325663819,-0.7,1.0,0.0,493.0,985.0,0.0,0,142.0,1
236,236,-0.7891365656395106,-0.8,1.0,0.0,307.0,942.0,0.0,0,201.0,1
237,237,0.7026415465664232,0.7,1.0,1.0,384.0,818.0,1.0,1,168.0,1
238,238,-0.7897870105321376,-0.8,1.0,0.0,288.0,782.0,0.0,0,150.0,1
239,239,-0.8120715963438156,-0.8,1.0,0.0,398.0,516.0,0.0,0,236.0,1
240,240,-0.3014494026404376,-0.3,0.0,1.0,397.0,866.0,1.0,0,57.0,1
241,241,-0.30878600438061443,-0.3,1.0,0.0,305.0,705.0,0.0,0,120.0,1
242,242,0.015316768754569776,0.0,0.0,0.0,323.0,756.0,0.0,1,341.0,1
243,243,0.8892114102886622,0.9,1.0,1.0,388.0,510.0,1.0,1,302.0,1
244,244,-0.36229497669906796,-0.4,1.0,0.0,263.0,546.0,0.0,0,91.0,1
245,245,0.7310951081883704,0.7,0.0,0.0,455.0,854.0,0.0,1,31.0,1
246,246,0.2645169882737569,0.3,0.0,0.0,336.0,576.0,0.0,1,608.0,1
247,247,0.7496855773837935,0.7,1.0,1.0,422.0,873.0,1.0,1,255.0,1
248,248,0.4800291216656686,0.5,0.0,0.0,359.0,890.0,0.0,1,111.0,1
249,249,0.07403743465469226,0.1,1.0,1.0,453.0,939.0,1.0,1,598.0,1
250,250,-0.847760310827273,-0.8,0.0,1.0,452.0,517.0,1.0,0,191.0,1
251,251,0.21036607613400526,0.2,1.0,1.0,290.0,831.0,1.0,1,469.0,1
252,252,-0.5595586448185326,-0.6,0.0,1.0,396.0,516.0,1.0,0,318.0,1
253,253,-0.7345946899841278,-0.7,1.0,0.0,317.0,888.0,0.0,0,165.0,1
254,254,-0.48380369713115745,-0.5,1.0,0.0,273.0,755.0,0.0,0,302.0,1
255,255,-0.6454191470627608,-0.6,1.0,0.0,402.0,756.0,0.0,0,182.0,1
256,256,-0.8170643576112545,-0.8,1.0,0.0,311.0,655.0,0.0,0,34.0,1
257,257,0.5038608365717118,0.5,0.0,0.0,308.0,520.0,0.0,1,232.0,1
258,258,0.12398110273184948,0.1,0.0,0.0,307.0,569.0,0.0,1,1724.0,1
259,259,0.6870508807779959,0.7,0.0,0.0,484.0,811.0,0.0,1,125.0,1
260,260,0.26545008316254914,0.3,0.0,0.0,302.0,521.0,0.0,1,537.0,1
261,261,0.1969624911115867,0.2,0.0,0.0,313.0,502.0,0.0,1,635.0,1
262,262,-0.2395749318590703,-0.2,1.0,0.0,339.0,809.0,0.0,0,542.0,1
263,263,-0.8368639565461183,-0.8,0.0,1.0,339.0,866.0,1.0,0,105.0,1
264,264,0.8481148112662141,0.8,0.0,0.0,302.0,843.0,0.0,1,45.0,1
265,265,-0.6465115601292538,-0.6,1.0,0.0,272.0,742.0,0.0,0,156.0,1
266,266,0.7815764937741351,0.8,1.0,1.0,300.0,544.0,1.0,1,166.0,1
267,267,0.4709393394456244,0.5,1.0,1.0,358.0,834.0,1.0,1,308.0,1
268,268,-0.19627558909585274,-0.2,1.0,0.0,312.0,956.0,0.0,0,542.0,1
269,269,0.6056265420259742,0.6,0.0,0.0,301.0,533.0,0.0,1,186.0,1
270,270,-0.673831060183419,-0.7,0.0,1.0,290.0,752.0,1.0,0,128.0,1
271,271,0.23325811608871627,0.2,0.0,0.0,283.0,784.0,0.0,1,333.0,1
272,272,-0.30906109024923945,-0.3,0.0,1.0,388.0,559.0,1.0,0,233.0,1
273,273,-0.35604110121082166,-0.4,1.0,0.0,332.0,878.0,0.0,0,300.0,1
274,274,-0.31725489115578165,-0.3,0.0,1.0,481.0,677.0,1.0,0,352.0,1
275,275,0.8643277257612606,0.9,1.0,1.0,322.0,526.0,1.0,1,92.0,1
276,276,-0.21443378827474802,-0.2,1.0,0.0,405.0,627.0,0.0,0,568.0,1
277,277,0.4764647301324113,0.5,1.0,1.0,424.0,710.0,1.0,1,166.0,1
278,278,0.6444155168777951,0.6,0.0,0.0,301.0,837.0,0.0,1,82.0,1
279,279,-0.8007288432656124,-0.8,0.0,1.0,264.0,509.0,1.0,0,217.0,1
280,280,0.318242460178105,0.3,1.0,1.0,266.0,917.0,1.0,1,527.0,1
281,281,0.8032646144800554,0.8,0.0,0.0,364.0,958.0,0.0,1,198.0,1
282,282,-0.6045355558626719,-0.6,0.0,1.0,288.0,823.0,1.0,0,129.0,1
283,283,-0.13274103672152016,-0.1,0.0,1.0,298.0,777.0,1.0,0,1175.0,1
284,284,-0.853090251415569,-0.9,1.0,0.0,294.0,902.0,0.0,0,84.0,1
285,285,0.23938901891611375,0.2,1.0,1.0,445.0,697.0,1.0,1,118.0,1
286,286,0.22329971913765478,0.2,0.0,0.0,251.0,924.0,0.0,1,385.0,1
287,287,0.6076520438961898,0.6,1.0,1.0,490.0,882.0,1.0,1,238.0,1
288,288,-0.5585163840354899,-0.6,0.0,1.0,418.0,795.0,1.0,0,257.0,1
289,289,0.833005390019046,0.8,0.0,0.0,474.0,757.0,0.0,1,189.0,1
290,290,0.7497701314120392,0.7,1.0,1.0,487.0,592.0,1.0,1,71.0,1
291,291,-0.30667047865185526,-0.3,0.0,1.0,480.0,706.0,1.0,0,304.0,1
292,292,0.38863321217018576,0.4,0.0,0.0,286.0,646.0,0.0,1,138.0,1
293,293,-0.2657056395504609,-0.3,1.0,0.0,369.0,644.0,0.0,0,807.0,1
294,294,-0.17427971425414446,-0.2,1.0,0.0,273.0,511.0,0.0,0,276.0,1
295,295,0.17067149724565678,0.2,1.0,1.0,357.0,708.0,1.0,1,285.0,1
296,296,0.3539151928758818,0.4,0.0,0.0,375.0,554.0,0.0,1,411.0,1
297,297,-0.8443300071134581,-0.8,1.0,0.0,455.0,715.0,0.0,0,70.0,1
298,298,-0.47918722871497094,-0.5,0.0,1.0,292.0,953.0,1.0,0,145.0,1
299,299,-0.0926426044850488,-0.1,1.0,0.0,282.0,752.0,0.0,0,316.0,1
300,300,0.49546484665859347,0.5,0.0,0.0,273.0,759.0,0.0,1,68.0,1
301,301,-0.5428452383743607,-0.5,0.0,1.0,358.0,806.0,1.0,0,-204.0,1
302,302,-0.14166442757339814,-0.1,1.0,0.0,313.0,520.0,0.0,0,517.0,1
303,303,-0.49916720261986663,-0.5,0.0,1.0,338.0,930.0,1.0,0,-58.0,1
304,304,-0.6632721524855527,-0.7,1.0,0.0,260.0,642.0,0.0,0,228.0,1
305,305,0.7828214723178814,0.8,0.0,0.0,428.0,532.0,0.0,1,140.0,1
306,306,0.24998280900890057,0.2,0.0,0.0,337.0,935.0,0.0,1,768.0,1
307,307,0.6054704502440506,0.6,1.0,1.0,446.0,841.0,1.0,1,113.0,1
308,308,-0.6770604552622537,-0.7,0.0,1.0,257.0,549.0,1.0,0,254.0,1
309,309,0.7779460290269758,0.8,0.0,0.0,330.0,689.0,0.0,1,141.0,1
310,310,-0.7595394181251112,-0.8,0.0,1.0,488.0,535.0,1.0,0,497.0,1
311,311,0.3178884470604183,0.3,1.0,1.0,274.0,823.0,1.0,1,323.0,1
312,312,-0.893218162441213,-0.9,0.0,1.0,479.0,817.0,0.0,1,674.0,0
313,313,0.031037599223018297,0.0,0.0,0.0,309.0,712.0,1.0,0,1089.0,0
314,314,-0.8420122359442038,-0.8,1.0,0.0,385.0,594.0,0.0,0,111.0,1
315,315,0.8904859910540511,0.9,1.0,1.0,483.0,815.0,1.0,1,162.0,1
316,316,0.07755993348463674,0.1,1.0,1.0,431.0,607.0,1.0,1,792.0,1
317,317,-0.025844584419224437,-0.0,0.0,1.0,250.0,841.0,1.0,0,549.0,1
318,318,-0.7455772591362612,-0.7,1.0,0.0,310.0,989.0,1.0,1,-89.0,0
319,319,0.4535536301029933,0.5,0.0,0.0,383.0,535.0,0.0,1,322.0,1
320,320,-0.26753725844185305,-0.3,1.0,0.0,461.0,733.0,0.0,0,306.0,1
321,321,0.6739187861839288,0.7,1.0,1.0,420.0,518.0,1.0,1,292.0,1
322,322,0.5716277617931286,0.6,0.0,0.0,313.0,980.0,0.0,1,237.0,1
323,323,-0.6215340819335298,-0.6,0.0,1.0,266.0,799.0,1.0,0,275.0,1
324,324,-0.025935700249758664,-0.0,1.0,0.0,312.0,842.0,0.0,0,376.0,1
325,325,0.35028908001106374,0.4,0.0,0.0,351.0,570.0,0.0,1,389.0,1
326,326,-0.6786724194864321,-0.7,0.0,1.0,471.0,678.0,1.0,0,171.0,1
327,327,0.48054110949385864,0.5,0.0,0.0,422.0,769.0,1.0,0,-211.0,0
328,328,0.0989117200722206,0.1,1.0,1.0,408.0,723.0,1.0,1,609.0,1
329,329,0.43720948851066954,0.4,1.0,1.0,494.0,741.0,1.0,1,185.0,1
330,330,-0.20899409488375587,-0.2,0.0,1.0,366.0,601.0,1.0,0,563.0,1
331,331,-0.7537212017645911,-0.8,1.0,0.0,499.0,732.0,0.0,0,179.0,1
332,332,-0.2763577920323207,-0.3,0.0,1.0,263.0,881.0,1.0,0,-64.0,1
333,333,-0.389312534193626,-0.4,0.0,1.0,427.0,750.0,1.0,0,183.0,1
334,334,-0.7260849860528923,-0.7,0.0,1.0,325.0,920.0,1.0,0,305.0,1
335,335,-0.4179243307235542,-0.4,1.0,0.0,374.0,888.0,1.0,1,8.0,0
336,336,-0.4126982581826281,-0.4,0.0,1.0,325.0,871.0,1.0,0,154.0,1
337,337,-0.2927297982028465,-0.3,1.0,0.0,265.0,925.0,0.0,0,-260.0,1
338,338,0.27911829560580925,0.3,0.0,0.0,289.0,884.0,0.0,1,-183.0,1
339,339,-0.024952167769619393,-0.0,0.0,1.0,341.0,700.0,1.0,0,779.0,1
340,340,-0.5106666105296103,-0.5,1.0,0.0,272.0,895.0,0.0,0,233.0,1
341,341,-0.5953713510714634,-0.6,1.0,0.0,277.0,549.0,0.0,0,84.0,1
342,342,-0.46555867729755707,-0.5,1.0,0.0,338.0,820.0,0.0,0,352.0,1
343,343,0.06818664036734678,0.1,1.0,1.0,412.0,996.0,0.0,0,-68.0,0
344,344,-0.20385355636640812,-0.2,1.0,0.0,427.0,860.0,0.0,0,223.0,1
345,345,-0.6442443806491203,-0.6,1.0,0.0,343.0,936.0,0.0,0,121.0,1
346,346,-0.23075776153515526,-0.2,1.0,0.0,387.0,560.0,0.0,0,623.0,1
347,347,-0.17204724206843613,-0.2,1.0,0.0,406.0,675.0,0.0,0,69.0,1
348,348,0.45880443448842134,0.5,0.0,0.0,358.0,769.0,0.0,1,123.0,1
349,349,-0.8221885375731198,-0.8,0.0,1.0,384.0,641.0,1.0,0,275.0,1
350,350,0.569718426635058,0.6,0.0,0.0,298.0,749.0,0.0,1,343.0,1
351,351,-0.6186147739804162,-0.6,0.0,1.0,399.0,977.0,1.0,0,74.0,1
352,352,-0.1700012105562574,-0.2,1.0,0.0,290.0,617.0,0.0,0,223.0,1
353,353,-0.312076546824545,-0.3,0.0,1.0,314.0,815.0,1.0,0,391.0,1
354,354,0.7924856970116559,0.8,1.0,1.0,455.0,908.0,1.0,1,-23.0,1
355,355,-0.8637891138070316,-0.9,1.0,0.0,402.0,588.0,0.0,0,160.0,1
356,356,-0.08998742041064167,-0.1,1.0,0.0,322.0,746.0,0.0,0,352.0,1
357,357,-0.39535150071599534,-0.4,0.0,1.0,384.0,945.0,1.0,0,371.0,1
358,358,0.39480933330546286,0.4,0.0,0.0,278.0,691.0,0.0,1,31.0,1
359,359,0.3226085150276189,0.3,1.0,1.0,250.0,748.0,1.0,1,302.0,1
360,360,0.20567268866775967,0.2,1.0,1.0,311.0,582.0,1.0,1,287.0,1
361,361,-0.42499904636847796,-0.4,1.0,0.0,252.0,806.0,0.0,0,242.0,1
362,362,0.14696282330886834,0.1,0.0,0.0,378.0,514.0,0.0,1,1608.0,1
363,363,0.730127483215906,0.7,0.0,0.0,360.0,713.0,0.0,1,117.0,1
364,364,0.7425631849811279,0.7,0.0,0.0,391.0,600.0,0.0,1,229.0,1
365,365,0.22229499581712886,0.2,1.0,1.0,263.0,689.0,1.0,1,498.0,1
366,366,-0.11809227193516703,-0.1,0.0,1.0,417.0,863.0,1.0,0,620.0,1
367,367,-0.6567725284407424,-0.7,1.0,0.0,421.0,941.0,0.0,0,148.0,1
368,368,-0.1554909291914035,-0.2,1.0,0.0,324.0,629.0,0.0,0,787.0,1
369,369,-0.17266638571326598,-0.2,1.0,0.0,307.0,584.0,0.0,0,549.0,1
370,370,-0.8313834600742828,-0.8,0.0,1.0,451.0,905.0,1.0,0,184.0,1
371,371,-0.5686107409914698,-0.6,0.0,1.0,282.0,744.0,1.0,0,74.0,1
372,372,0.6576101498827401,0.7,0.0,0.0,399.0,974.0,0.0,1,107.0,1
373,373,0.8917691014766792,0.9,0.0,0.0,333.0,760.0,0.0,1,247.0,1
374,374,0.12134339095565994,0.1,1.0,1.0,487.0,595.0,1.0,1,1038.0,1
375,375,0.2458973355753794,0.2,0.0,0.0,338.0,728.0,0.0,1,254.0,1
376,376,-0.6660318995790501,-0.7,0.0,1.0,292.0,642.0,1.0,0,76.0,1
377,377,-0.12481984664622625,-0.1,0.0,1.0,254.0,681.0,1.0,0,195.0,1
378,378,-0.6816999987491186,-0.7,1.0,0.0,349.0,905.0,0.0,0,316.0,1
379,379,0.4313589778238637,0.4,0.0,0.0,432.0,663.0,0.0,1,155.0,1
380,380,-0.03115426515326225,-0.0,0.0,1.0,470.0,972.0,1.0,0,1558.0,1
381,381,-0.7857843034920149,-0.8,1.0,0.0,412.0,772.0,0.0,0,46.0,1
382,382,0.04533897214626159,0.0,0.0,0.0,478.0,800.0,1.0,0,1022.0,0
383,383,0.6100973149660446,0.6,1.0,1.0,309.0,813.0,1.0,1,258.0,1
384,384,-0.26093054916107583,-0.3,0.0,1.0,315.0,982.0,1.0,0,193.0,1
385,385,-0.2289346503631775,-0.2,1.0,0.0,325.0,854.0,0.0,0,131.0,1
386,386,-0.23124531101515433,-0.2,1.0,0.0,430.0,571.0,0.0,0,569.0,1
387,387,-0.8437555715295457,-0.8,0.0,1.0,301.0,723.0,1.0,0,106.0,1
388,388,-0.10453244405401108,-0.1,1.0,0.0,269.0,513.0,0.0,0,2218.0,1
389,389,-0.4133750129386163,-0.4,0.0,1.0,462.0,986.0,1.0,0,42.0,1
390,390,0.6498698481148465,0.6,0.0,0.0,251.0,735.0,0.0,1,174.0,1
391,391,-0.8378925830739693,-0.8,0.0,1.0,275.0,542.0,1.0,0,123.0,1
392,392,0.23904619251767956,0.2,0.0,0.0,325.0,809.0,0.0,1,-194.0,1
393,393,-0.5044586302779461,-0.5,0.0,1.0,453.0,783.0,1.0,0,214.0,1
394,394,0.4282850073114596,0.4,1.0,1.0,358.0,915.0,1.0,1,97.0,1
395,395,0.16483592052312857,0.2,1.0,1.0,267.0,867.0,1.0,1,196.0,1
396,396,-0.5847745877668457,-0.6,1.0,0.0,454.0,653.0,0.0,0,113.0,1
397,397,-0.20388241786263428,-0.2,0.0,1.0,337.0,658.0,1.0,0,385.0,1
398,398,0.15377364464733423,0.2,0.0,0.0,275.0,760.0,0.0,1,575.0,1
399,399,0.7393194201998862,0.7,1.0,1.0,447.0,525.0,1.0,1,288.0,1
400,400,-0.028801280675349594,-0.0,0.0,1.0,439.0,781.0,0.0,1,180.0,0
401,401,0.3539618170570996,0.4,0.0,0.0,345.0,870.0,0.0,1,255.0,1
402,402,0.32714021578146835,0.3,0.0,0.0,285.0,617.0,0.0,1,108.0,1
403,403,-0.41207322022551435,-0.4,0.0,1.0,334.0,851.0,0.0,1,-285.0,0
404,404,-0.3560581627485703,-0.4,0.0,1.0,395.0,929.0,1.0,0,146.0,1
405,405,-0.6743455724506748,-0.7,0.0,1.0,401.0,530.0,1.0,0,379.0,1
406,406,-0.7542837431760971,-0.8,0.0,1.0,499.0,589.0,1.0,0,182.0,1
407,407,-0.7307925371374611,-0.7,1.0,0.0,370.0,558.0,0.0,0,172.0,1
408,408,-0.18305381578507685,-0.2,1.0,0.0,329.0,791.0,0.0,0,790.0,1
409,409,-0.6016907286006821,-0.6,0.0,1.0,390.0,674.0,1.0,0,126.0,1
410,410,-0.5368349616000105,-0.5,0.0,1.0,252.0,851.0,1.0,0,197.0,1
411,411,-0.028209761536712397,-0.0,0.0,1.0,268.0,909.0,1.0,0,113.0,1
412,412,0.7373506812443252,0.7,0.0,0.0,387.0,861.0,0.0,1,342.0,1
413,413,-0.7037136218622108,-0.7,1.0,0.0,453.0,605.0,0.0,0,192.0,1
414,414,0.17412541397046566,0.2,1.0,1.0,482.0,745.0,1.0,1,933.0,1
415,415,0.3652424462171998,0.4,0.0,0.0,376.0,701.0,0.0,1,63.0,1
416,416,-0.58991493221888,-0.6,0.0,1.0,389.0,801.0,1.0,0,270.0,1
417,417,-0.49946939125396256,-0.5,0.0,1.0,454.0,823.0,1.0,0,163.0,1
418,418,0.4878897373163599,0.5,1.0,1.0,421.0,935.0,1.0,1,74.0,1
419,419,0.19903267110215872,0.2,0.0,0.0,277.0,735.0,0.0,1,478.0,1
420,420,-0.21018398553512574,-0.2,1.0,0.0,441.0,640.0,0.0,0,629.0,1
421,421,0.6531231454248804,0.7,0.0,0.0,324.0,882.0,0.0,1,204.0,1
422,422,-0.06396025561214724,-0.1,1.0,0.0,399.0,770.0,0.0,0,-269.0,1
423,423,-0.7740683970588713,-0.8,1.0,0.0,293.0,852.0,0.0,0,205.0,1
424,424,-0.023564447604275895,-0.0,0.0,1.0,390.0,719.0,1.0,0,1831.0,1
425,425,-0.39122911653083625,-0.4,1.0,0.0,251.0,877.0,0.0,0,212.0,1
426,426,0.5165405249083043,0.5,0.0,0.0,333.0,618.0,0.0,1,169.0,1
427,427,-0.24924620412078968,-0.2,0.0,1.0,259.0,932.0,1.0,0,249.0,1
428,428,-0.6428975584602583,-0.6,0.0,1.0,452.0,512.0,1.0,0,636.0,1
429,429,0.8092368987141799,0.8,1.0,1.0,426.0,756.0,1.0,1,188.0,1
430,430,0.29313930417209433,0.3,1.0,1.0,406.0,583.0,1.0,1,561.0,1
431,431,0.18205118383951657,0.2,0.0,0.0,497.0,761.0,0.0,1,222.0,1
432,432,-0.8578093107795741,-0.9,0.0,1.0,347.0,901.0,1.0,0,152.0,1
433,433,0.6210970715500429,0.6,0.0,0.0,342.0,812.0,0.0,1,116.0,1
434,434,0.7613412513885937,0.8,0.0,0.0,479.0,840.0,0.0,1,271.0,1
435,435,-0.2491150504449411,-0.2,0.0,1.0,268.0,917.0,1.0,0,-45.0,1
436,436,-0.7656856578799659,-0.8,1.0,0.0,312.0,838.0,0.0,0,170.0,1
437,437,0.8700982664592415,0.9,1.0,1.0,454.0,668.0,1.0,1,208.0,1
438,438,0.0627590857003909,0.1,1.0,1.0,295.0,619.0,1.0,1,626.0,1
439,439,0.4812340391941633,0.5,0.0,0.0,428.0,647.0,0.0,1,145.0,1
440,440,-0.6688625973519906,-0.7,1.0,0.0,347.0,600.0,0.0,0,153.0,1
441,441,0.1069036084194609,0.1,1.0,1.0,484.0,921.0,1.0,1,905.0,1
442,442,0.19429759263396396,0.2,0.0,0.0,462.0,533.0,0.0,1,595.0,1
443,443,-0.32085616776874015,-0.3,1.0,0.0,291.0,730.0,0.0,0,139.0,1
444,444,-0.7477383715028169,-0.7,0.0,1.0,315.0,961.0,1.0,0,84.0,1
445,445,-0.7404520939758601,-0.7,1.0,0.0,467.0,685.0,0.0,0,108.0,1
446,446,-0.7901294321087369,-0.8,0.0,1.0,461.0,832.0,0.0,1,-73.0,0
447,447,-0.031045597125805346,-0.0,0.0,1.0,385.0,855.0,1.0,0,670.0,1
448,448,-0.7912236311471034,-0.8,1.0,0.0,351.0,585.0,0.0,0,-136.0,1
449,449,0.12812862250939394,0.1,1.0,1.0,267.0,550.0,1.0,1,543.0,1
450,450,0.5264064644384622,0.5,1.0,1.0,482.0,664.0,1.0,1,154.0,1
451,451,0.8066118723206556,0.8,0.0,0.0,292.0,919.0,0.0,1,179.0,1
452,452,-0.47795797761476144,-0.5,0.0,1.0,489.0,716.0,1.0,0,325.0,1
453,453,-0.34933194101040177,-0.3,1.0,0.0,388.0,901.0,0.0,0,411.0,1
454,454,0.8129320708201618,0.8,1.0,1.0,421.0,997.0,1.0,1,202.0,1
455,455,-0.3728265911687686,-0.4,1.0,0.0,493.0,972.0,0.0,0,295.0,1
456,456,0.12400050981489563,0.1,1.0,1.0,388.0,922.0,1.0,1,-200.0,1
457,457,0.8836442545924806,0.9,0.0,0.0,428.0,710.0,0.0,1,142.0,1
458,458,0.17910790413354827,0.2,0.0,0.0,455.0,654.0,0.0,1,551.0,1
459,459,-0.8005741331215973,-0.8,0.0,1.0,435.0,556.0,1.0,0,139.0,1
460,460,-0.629865117107397,-0.6,0.0,1.0,312.0,604.0,1.0,0,254.0,1
461,461,-0.4454284580417747,-0.4,0.0,1.0,403.0,530.0,1.0,0,457.0,1
462,462,-0.5043112999620061,-0.5,0.0,1.0,345.0,607.0,1.0,0,298.0,1
463,463,0.1459457437379187,0.1,0.0,0.0,260.0,730.0,1.0,0,1020.0,0
464,464,-0.3729194225190168,-0.4,1.0,0.0,403.0,739.0,0.0,0,98.0,1
465,465,0.20297644152982042,0.2,0.0,0.0,275.0,732.0,0.0,1,393.0,1
466,466,-0.2356278730946305,-0.2,0.0,1.0,461.0,838.0,0.0,1,-249.0,0
467,467,-0.39280619746508605,-0.4,1.0,0.0,370.0,934.0,0.0,0,196.0,1
468,468,0.8714261070274193,0.9,1.0,1.0,308.0,992.0,0.0,0,-410.0,0
469,469,-0.3342087734114281,-0.3,1.0,0.0,416.0,743.0,0.0,0,271.0,1
470,470,-0.1992099518803948,-0.2,1.0,0.0,267.0,734.0,0.0,0,729.0,1
471,471,0.3216196312529428,0.3,1.0,1.0,477.0,986.0,1.0,1,327.0,1
472,472,0.012870396364840553,0.0,0.0,0.0,394.0,608.0,1.0,0,1068.0,0
473,473,-0.029007625893880506,-0.0,1.0,0.0,335.0,708.0,1.0,1,1607.0,0
474,474,0.6881863763361192,0.7,0.0,0.0,286.0,958.0,0.0,1,266.0,1
475,475,-0.20108738750900146,-0.2,1.0,0.0,471.0,852.0,0.0,0,627.0,1
476,476,-0.7046487594775614,-0.7,0.0,1.0,258.0,552.0,1.0,0,220.0,1
477,477,0.8527668052897651,0.9,0.0,0.0,370.0,733.0,0.0,1,7.0,1
478,478,0.5148337022462511,0.5,0.0,0.0,277.0,765.0,0.0,1,178.0,1
479,479,0.17527501140259505,0.2,0.0,0.0,297.0,501.0,0.0,1,392.0,1
480,480,-0.05007415351364031,-0.1,0.0,1.0,389.0,542.0,1.0,0,1339.0,1
481,481,-0.1875826363883789,-0.2,0.0,1.0,485.0,632.0,1.0,0,193.0,1
482,482,-0.5626378371939017,-0.6,0.0,1.0,495.0,762.0,1.0,0,283.0,1
483,483,-0.8463960002915847,-0.8,0.0,1.0,373.0,669.0,1.0,0,258.0,1
484,484,0.15430056433937944,0.2,0.0,0.0,273.0,998.0,0.0,1,1249.0,1
485,485,-0.38806013961983654,-0.4,1.0,0.0,387.0,899.0,0.0,0,554.0,1
486,486,-0.6970913670029067,-0.7,0.0,1.0,497.0,868.0,1.0,0,775.0,1
487,487,-0.7103886808190499,-0.7,1.0,0.0,264.0,562.0,0.0,0,194.0,1
488,488,-0.1463184363154465,-0.1,0.0,1.0,384.0,891.0,0.0,1,15.0,0
489,489,0.2480369887117425,0.2,1.0,1.0,279.0,982.0,1.0,1,719.0,1
490,490,0.803661952159359,0.8,1.0,1.0,266.0,927.0,1.0,1,87.0,1
491,491,-0.6988941639034447,-0.7,1.0,0.0,286.0,550.0,0.0,0,124.0,1
492,492,-0.8806972398459532,-0.9,0.0,1.0,298.0,690.0,1.0,0,182.0,1
493,493,0.7294509668391295,0.7,0.0,0.0,366.0,896.0,0.0,1,58.0,1
494,494,0.16447095518711852,0.2,0.0,0.0,334.0,560.0,0.0,1,386.0,1
495,495,-0.3679253808981773,-0.4,1.0,0.0,437.0,944.0,0.0,0,259.0,1
496,496,0.4608529388776378,0.5,0.0,0.0,476.0,915.0,0.0,1,139.0,1
497,497,0.3280876752863039,0.3,0.0,0.0,287.0,661.0,0.0,1,242.0,1
498,498,0.2806954513909009,0.3,0.0,0.0,257.0,822.0,0.0,1,181.0,1
499,499,-0.7127488429180686,-0.7,1.0,0.0,423.0,592.0,0.0,0,125.0,1
500,500,-0.3166732610371953,-0.3,0.0,1.0,385.0,962.0,1.0,0,243.0,1
501,501,0.6268094350594772,0.6,1.0,1.0,474.0,695.0,1.0,1,151.0,1
502,502,-0.7684426046238768,-0.8,0.0,1.0,269.0,671.0,1.0,0,140.0,1
503,503,0.8650018376620879,0.9,0.0,0.0,340.0,509.0,0.0,1,151.0,1
504,504,0.38176069224080467,0.4,1.0,1.0,379.0,870.0,1.0,1,571.0,1
505,505,-0.11067117959773587,-0.1,1.0,0.0,281.0,952.0,0.0,0,1267.0,1
506,506,0.26654942841428964,0.3,1.0,1.0,260.0,659.0,1.0,1,401.0,1
507,507,0.2680500038940107,0.3,0.0,0.0,254.0,576.0,0.0,1,240.0,1
508,508,0.16471360532887303,0.2,1.0,1.0,376.0,797.0,1.0,1,517.0,1
509,509,0.6276039141730206,0.6,0.0,0.0,449.0,525.0,0.0,1,176.0,1
510,510,0.7031237953060473,0.7,0.0,0.0,389.0,890.0,0.0,1,-279.0,1
511,511,0.7041018122827684,0.7,1.0,1.0,360.0,963.0,1.0,1,77.0,1
512,512,-0.6138354895792297,-0.6,0.0,1.0,396.0,504.0,1.0,0,270.0,1
513,513,0.6731864460685507,0.7,1.0,1.0,366.0,939.0,1.0,1,275.0,1
514,514,-0.14739333090628537,-0.1,0.0,1.0,303.0,845.0,1.0,0,902.0,1
515,515,0.1793476828878876,0.2,1.0,1.0,488.0,915.0,0.0,0,-233.0,0
516,516,0.5199244439093217,0.5,1.0,1.0,255.0,850.0,1.0,1,225.0,1
517,517,-0.2580347701530138,-0.3,1.0,0.0,349.0,853.0,0.0,0,158.0,1
518,518,0.02763338209557975,0.0,1.0,1.0,451.0,955.0,1.0,1,-6.0,1
519,519,-0.6446715782535448,-0.6,0.0,1.0,331.0,619.0,1.0,0,190.0,1
520,520,-0.7608646895711426,-0.8,0.0,1.0,251.0,975.0,1.0,0,-156.0,1
521,521,-0.6980731584170048,-0.7,1.0,0.0,347.0,720.0,0.0,0,253.0,1
522,522,0.2866280518375034,0.3,0.0,0.0,300.0,814.0,0.0,1,516.0,1
523,523,0.5787875456327004,0.6,0.0,0.0,275.0,647.0,0.0,1,178.0,1
524,524,-0.5370226773526823,-0.5,0.0,1.0,313.0,714.0,1.0,0,183.0,1
525,525,-0.6897574082852967,-0.7,1.0,0.0,369.0,887.0,0.0,0,34.0,1
526,526,-0.16164497542190104,-0.2,0.0,1.0,277.0,592.0,1.0,0,741.0,1
527,527,0.869314900818173,0.9,1.0,1.0,368.0,786.0,1.0,1,126.0,1
528,528,0.15925986960117344,0.2,1.0,1.0,415.0,963.0,1.0,1,582.0,1
529,529,0.7661317992316549,0.8,1.0,1.0,318.0,579.0,1.0,1,243.0,1
530,530,0.10902552338509064,0.1,0.0,0.0,289.0,709.0,0.0,1,42.0,1
531,531,-0.4496002231485358,-0.4,1.0,0.0,376.0,739.0,0.0,0,195.0,1
532,532,-0.5783734533734908,-0.6,1.0,0.0,470.0,736.0,0.0,0,154.0,1
533,533,-0.02839656777148658,-0.0,0.0,1.0,383.0,669.0,1.0,0,898.0,1
534,534,-0.0022978289930056794,-0.0,1.0,0.0,346.0,886.0,0.0,0,798.0,1
535,535,-0.11392739684645503,-0.1,1.0,0.0,329.0,688.0,0.0,0,263.0,1
536,536,-0.020198568256608596,-0.0,1.0,0.0,491.0,692.0,1.0,1,1737.0,0
537,537,-0.5575508811240659,-0.6,0.0,1.0,411.0,941.0,1.0,0,178.0,1
538,538,0.4001173992492234,0.4,0.0,0.0,340.0,857.0,0.0,1,253.0,1
539,539,-0.5839783873932585,-0.6,0.0,1.0,309.0,632.0,1.0,0,319.0,1
540,540,-0.5888122668228317,-0.6,1.0,0.0,406.0,793.0,0.0,0,151.0,1
541,541,0.02980653286159185,0.0,0.0,0.0,318.0,827.0,0.0,1,-45.0,1
542,542,0.18201843597730794,0.2,1.0,1.0,334.0,503.0,1.0,1,883.0,1
543,543,0.6041980011608766,0.6,0.0,0.0,435.0,750.0,0.0,1,165.0,1
544,544,-0.44627153127512303,-0.4,0.0,1.0,308.0,771.0,1.0,0,201.0,1
545,545,-0.08512397329429089,-0.1,0.0,1.0,437.0,550.0,1.0,0,1363.0,1
546,546,-0.6463941427684843,-0.6,1.0,0.0,356.0,552.0,0.0,0,162.0,1
547,547,0.36664684839821715,0.4,1.0,1.0,498.0,782.0,1.0,1,250.0,1
548,548,-0.13190012367166548,-0.1,0.0,1.0,313.0,729.0,1.0,0,478.0,1
549,549,0.7280438689319099,0.7,1.0,1.0,467.0,642.0,1.0,1,251.0,1
550,550,0.6272500724998947,0.6,0.0,0.0,275.0,695.0,0.0,1,170.0,1
551,551,-0.7255770687633496,-0.7,1.0,0.0,273.0,990.0,0.0,0,147.0,1
552,552,0.44104744849999833,0.4,0.0,0.0,423.0,626.0,0.0,1,311.0,1
553,553,0.249584763163459,0.2,0.0,0.0,372.0,844.0,0.0,1,394.0,1
554,554,-0.09575046989664038,-0.1,1.0,0.0,326.0,570.0,1.0,1,2104.0,0
555,555,-0.6296216918307622,-0.6,1.0,0.0,336.0,604.0,0.0,0,160.0,1
556,556,-0.09969093529971085,-0.1,0.0,1.0,452.0,673.0,1.0,0,735.0,1
557,557,0.2640222859477316,0.3,1.0,1.0,487.0,646.0,1.0,1,517.0,1
558,558,0.3790702047882478,0.4,1.0,1.0,276.0,667.0,1.0,1,357.0,1
559,559,0.4281706122758139,0.4,1.0,1.0,418.0,620.0,1.0,1,22.0,1
560,560,0.4446185980438381,0.4,0.0,0.0,279.0,750.0,0.0,1,211.0,1
561,561,-0.48549748574964424,-0.5,0.0,1.0,263.0,802.0,1.0,0,185.0,1
562,562,0.6670567668707198,0.7,0.0,0.0,452.0,764.0,0.0,1,84.0,1
563,563,-0.1715689176969335,-0.2,1.0,0.0,490.0,846.0,0.0,0,254.0,1
564,564,0.27625062388101507,0.3,0.0,0.0,258.0,849.0,0.0,1,363.0,1
565,565,0.7762865868375327,0.8,1.0,1.0,499.0,598.0,1.0,1,143.0,1
566,566,0.5119438247623741,0.5,0.0,0.0,389.0,582.0,0.0,1,209.0,1
567,567,-0.6834725157672796,-0.7,0.0,1.0,451.0,967.0,1.0,0,142.0,1
568,568,-0.7519130328388819,-0.8,0.0,1.0,289.0,822.0,1.0,0,209.0,1
569,569,0.8935466375060833,0.9,0.0,0.0,288.0,786.0,0.0,1,126.0,1
570,570,0.6186089439376986,0.6,1.0,1.0,458.0,847.0,1.0,1,325.0,1
571,571,-0.6719434656674663,-0.7,0.0,1.0,269.0,688.0,1.0,0,123.0,1
572,572,0.37563114321209434,0.4,0.0,0.0,303.0,786.0,0.0,1,121.0,1
573,573,-0.15297437560693095,-0.2,1.0,0.0,409.0,612.0,0.0,0,519.0,1
574,574,0.05871852136441058,0.1,0.0,0.0,359.0,800.0,1.0,0,71.0,0
575,575,-0.7064928387774132,-0.7,0.0,1.0,444.0,982.0,1.0,0,154.0,1
576,576,0.7664803435622224,0.8,0.0,0.0,381.0,785.0,0.0,1,144.0,1
577,577,0.4963283883040889,0.5,0.0,0.0,393.0,579.0,0.0,1,348.0,1
578,578,0.08964500263792663,0.1,1.0,1.0,285.0,581.0,1.0,1,494.0,1
579,579,-0.3313151067051525,-0.3,0.0,1.0,298.0,561.0,1.0,0,201.0,1
580,580,-0.3500910726656349,-0.4,1.0,0.0,290.0,878.0,0.0,0,-68.0,1
581,581,-0.7451724358460857,-0.7,0.0,1.0,330.0,759.0,1.0,0,181.0,1
582,582,0.20273769506974604,0.2,1.0,1.0,359.0,608.0,1.0,1,533.0,1
583,583,0.35803094009168823,0.4,0.0,0.0,327.0,631.0,0.0,1,312.0,1
584,584,0.6373922995168285,0.6,1.0,1.0,327.0,787.0,1.0,1,266.0,1
585,585,-0.19285067620472407,-0.2,1.0,0.0,275.0,620.0,0.0,0,525.0,1
586,586,-0.5906327994985303,-0.6,0.0,1.0,400.0,960.0,1.0,0,30.0,1
587,587,-0.1625542110509719,-0.2,0.0,1.0,449.0,841.0,1.0,0,610.0,1
588,588,0.7883820649691519,0.8,0.0,0.0,398.0,765.0,0.0,1,147.0,1
589,589,0.8073502654568195,0.8,1.0,1.0,470.0,986.0,1.0,1,114.0,1
590,590,-0.6429404543369761,-0.6,1.0,0.0,261.0,618.0,0.0,0,121.0,1
591,591,0.5986257642616942,0.6,1.0,1.0,454.0,531.0,1.0,1,245.0,1
592,592,-0.22514495513941313,-0.2,1.0,0.0,319.0,661.0,0.0,0,340.0,1
593,593,0.8230567707705215,0.8,0.0,0.0,364.0,821.0,1.0,0,-125.0,0
594,594,0.04405025564048315,0.0,1.0,1.0,434.0,693.0,1.0,1,793.0,1
595,595,0.12033845931577714,0.1,0.0,0.0,386.0,555.0,0.0,1,459.0,1
596,596,-0.48372149627916067,-0.5,0.0,1.0,430.0,741.0,1.0,0,229.0,1
597,597,-0.10036325800428958,-0.1,1.0,0.0,365.0,502.0,0.0,0,813.0,1
598,598,-0.10649350101370159,-0.1,1.0,0.0,339.0,501.0,0.0,0,1220.0,1
599,599,0.6190182397157861,0.6,0.0,0.0,442.0,990.0,0.0,1,-22.0,1
600,600,0.1264292704590363,0.1,1.0,1.0,268.0,900.0,1.0,1,-28.0,1
601,601,-0.08330885651102748,-0.1,1.0,0.0,361.0,982.0,0.0,0,57.0,1
602,602,-0.6968144470994238,-0.7,1.0,0.0,303.0,808.0,0.0,0,109.0,1
603,603,0.7551092421403581,0.8,1.0,1.0,254.0,833.0,1.0,1,63.0,1
604,604,0.6572003483143233,0.7,1.0,1.0,350.0,743.0,1.0,1,207.0,1
605,605,-0.25440358129447316,-0.3,0.0,1.0,394.0,541.0,1.0,0,365.0,1
606,606,0.23863237679201743,0.2,1.0,1.0,301.0,789.0,1.0,1,1380.0,1
607,607,0.19398419107904596,0.2,1.0,1.0,341.0,607.0,1.0,1,432.0,1
608,608,0.7130918037638999,0.7,0.0,0.0,318.0,986.0,0.0,1,466.0,1
609,609,0.30855213307568896,0.3,0.0,0.0,450.0,718.0,0.0,1,412.0,1
610,610,-0.8823171764651172,-0.9,1.0,0.0,275.0,840.0,0.0,0,175.0,1
611,611,0.5651991733961247,0.6,0.0,0.0,281.0,995.0,0.0,1,144.0,1
612,612,-0.7978466015153051,-0.8,0.0,1.0,470.0,878.0,1.0,0,412.0,1
613,613,0.47988362037515964,0.5,0.0,0.0,376.0,688.0,0.0,1,196.0,1
614,614,-0.2308699786181322,-0.2,0.0,1.0,447.0,606.0,1.0,0,527.0,1
615,615,0.6263253409340986,0.6,1.0,1.0,337.0,642.0,1.0,1,111.0,1
616,616,-0.2143556905190498,-0.2,1.0,0.0,257.0,835.0,0.0,0,448.0,1
617,617,0.07476516766624564,0.1,0.0,0.0,337.0,696.0,0.0,1,627.0,1
618,618,-0.7447255575894268,-0.7,0.0,1.0,258.0,619.0,1.0,0,423.0,1
619,619,-0.6706724282775872,-0.7,0.0,1.0,392.0,966.0,1.0,0,382.0,1
620,620,-0.11781481113735848,-0.1,0.0,1.0,386.0,798.0,1.0,0,976.0,1
621,621,0.8123383631373199,0.8,1.0,1.0,286.0,625.0,1.0,1,189.0,1
622,622,-0.24028350474808036,-0.2,1.0,0.0,454.0,551.0,0.0,0,385.0,1
623,623,0.604240091096944,0.6,0.0,0.0,386.0,802.0,0.0,1,272.0,1
624,624,0.7975229177161133,0.8,0.0,0.0,357.0,726.0,0.0,1,197.0,1
625,625,-0.6249911452410282,-0.6,1.0,0.0,299.0,651.0,0.0,0,180.0,1
626,626,0.5627067956995037,0.6,0.0,0.0,331.0,861.0,0.0,1,108.0,1
627,627,-0.09617270672766975,-0.1,0.0,1.0,279.0,927.0,1.0,0,84.0,1
628,628,0.6557168320555921,0.7,1.0,1.0,264.0,535.0,1.0,1,161.0,1
629,629,-0.6273872584688418,-0.6,0.0,1.0,454.0,878.0,1.0,0,278.0,1
630,630,0.8521539455255166,0.9,1.0,1.0,275.0,627.0,1.0,1,138.0,1
631,631,-0.5937978088770999,-0.6,0.0,1.0,376.0,681.0,1.0,0,283.0,1
632,632,-0.47274826770167777,-0.5,1.0,0.0,307.0,565.0,0.0,0,168.0,1
633,633,0.07073275003488555,0.1,0.0,0.0,271.0,732.0,0.0,1,797.0,1
634,634,0.7826575487966504,0.8,0.0,0.0,446.0,986.0,0.0,1,158.0,1
635,635,0.09279782528003211,0.1,1.0,1.0,284.0,649.0,1.0,1,1007.0,1
636,636,-0.34228674208016285,-0.3,0.0,1.0,389.0,556.0,1.0,0,565.0,1
637,637,-0.020286154358841735,-0.0,0.0,1.0,481.0,852.0,1.0,0,1667.0,1
638,638,0.6752657433204224,0.7,1.0,1.0,379.0,609.0,1.0,1,252.0,1
639,639,-0.8895837918865652,-0.9,1.0,0.0,381.0,858.0,0.0,0,31.0,1
640,640,-0.7878553032387001,-0.8,1.0,0.0,310.0,599.0,0.0,0,231.0,1
641,641,-0.42524409023366966,-0.4,0.0,1.0,366.0,973.0,1.0,0,91.0,1
642,642,0.8297123615864269,0.8,0.0,0.0,351.0,916.0,0.0,1,113.0,1
643,643,0.2347956796208538,0.2,1.0,1.0,338.0,811.0,1.0,1,421.0,1
644,644,-0.7038237879336036,-0.7,0.0,1.0,458.0,988.0,1.0,0,74.0,1
645,645,0.36171789833596557,0.4,1.0,1.0,366.0,947.0,0.0,0,-203.0,0
646,646,-0.1295640162213645,-0.1,0.0,1.0,430.0,870.0,1.0,0,530.0,1
647,647,-0.4913604950771948,-0.5,1.0,0.0,277.0,908.0,0.0,0,135.0,1
648,648,0.5379735080394529,0.5,0.0,0.0,480.0,540.0,0.0,1,210.0,1
649,649,0.30836040094740336,0.3,1.0,1.0,313.0,519.0,1.0,1,288.0,1
650,650,-0.6438441713332381,-0.6,1.0,0.0,286.0,653.0,0.0,0,191.0,1
651,651,0.4929445642562903,0.5,1.0,1.0,497.0,651.0,1.0,1,262.0,1
652,652,0.6116544065769517,0.6,0.0,0.0,318.0,938.0,1.0,0,-246.0,0
653,653,-0.6581329475936529,-0.7,0.0,1.0,271.0,704.0,1.0,0,255.0,1
654,654,0.405225944995684,0.4,1.0,1.0,382.0,925.0,1.0,1,163.0,1
655,655,0.43022202123929365,0.4,1.0,1.0,401.0,903.0,1.0,1,126.0,1
656,656,-0.3348340135923298,-0.3,1.0,0.0,340.0,605.0,0.0,0,325.0,1
657,657,0.35478215512904343,0.4,0.0,0.0,467.0,673.0,0.0,1,220.0,1
658,658,-0.2708405942277412,-0.3,1.0,0.0,280.0,851.0,0.0,0,479.0,1
659,659,-0.2387000646920302,-0.2,0.0,1.0,463.0,874.0,1.0,0,243.0,1
660,660,0.8567989909011869,0.9,0.0,0.0,445.0,605.0,0.0,1,210.0,1
661,661,-0.8350685706538776,-0.8,0.0,1.0,355.0,984.0,0.0,1,-179.0,0
662,662,-0.5390979914564706,-0.5,0.0,1.0,259.0,609.0,1.0,0,572.0,1
663,663,0.2784238440016372,0.3,1.0,1.0,285.0,728.0,1.0,1,357.0,1
664,664,-0.4572195852621593,-0.5,0.0,1.0,457.0,846.0,0.0,1,-103.0,0
665,665,-0.4961887917842282,-0.5,0.0,1.0,262.0,767.0,1.0,0,181.0,1
666,666,0.776062202110818,0.8,0.0,0.0,294.0,775.0,0.0,1,181.0,1
667,667,0.3244984979676876,0.3,1.0,1.0,250.0,587.0,1.0,1,213.0,1
668,668,0.6833724072613777,0.7,0.0,0.0,329.0,955.0,0.0,1,46.0,1
669,669,-0.40139336389795327,-0.4,1.0,0.0,462.0,971.0,0.0,0,487.0,1
670,670,-0.22914167012754838,-0.2,1.0,0.0,274.0,583.0,0.0,0,243.0,1
671,671,-0.22528073877113153,-0.2,1.0,0.0,389.0,948.0,0.0,0,563.0,1
672,672,0.004807787893854831,0.0,0.0,0.0,374.0,628.0,1.0,0,698.0,0
673,673,0.3361750345058464,0.3,0.0,0.0,268.0,998.0,0.0,1,274.0,1
674,674,0.7592071710769531,0.8,0.0,0.0,274.0,711.0,0.0,1,155.0,1
675,675,0.44910216252571467,0.4,1.0,1.0,429.0,573.0,1.0,1,88.0,1
676,676,-0.3245785524776901,-0.3,0.0,1.0,317.0,916.0,1.0,0,367.0,1
677,677,0.5059131747466127,0.5,0.0,0.0,430.0,853.0,0.0,1,227.0,1
678,678,-0.29605689225015586,-0.3,0.0,1.0,267.0,745.0,1.0,0,578.0,1
679,679,-0.29894617184994754,-0.3,0.0,1.0,366.0,744.0,1.0,0,140.0,1
680,680,-0.290456052297859,-0.3,1.0,0.0,326.0,867.0,0.0,0,277.0,1
681,681,-0.8859588886773415,-0.9,1.0,0.0,351.0,969.0,0.0,0,-150.0,1
682,682,0.32371447828570854,0.3,0.0,0.0,273.0,791.0,0.0,1,506.0,1
683,683,0.40127249008269816,0.4,0.0,0.0,324.0,780.0,0.0,1,156.0,1
684,684,-0.530690345752851,-0.5,1.0,0.0,394.0,736.0,0.0,0,190.0,1
685,685,-0.8538760734014198,-0.9,1.0,0.0,255.0,898.0,0.0,0,47.0,1
686,686,0.8640855169675675,0.9,0.0,0.0,447.0,787.0,0.0,1,96.0,1
687,687,-0.2702005019902767,-0.3,0.0,1.0,317.0,806.0,1.0,0,477.0,1
688,688,-0.6295208790230766,-0.6,0.0,1.0,426.0,838.0,1.0,0,116.0,1
689,689,0.6244719649147944,0.6,0.0,0.0,453.0,960.0,0.0,1,367.0,1
690,690,-0.22840206458159495,-0.2,1.0,0.0,436.0,897.0,0.0,0,627.0,1
691,691,-0.5111232042518608,-0.5,1.0,0.0,378.0,659.0,0.0,0,153.0,1
692,692,0.005212305006646156,0.0,1.0,1.0,276.0,912.0,0.0,0,1812.0,0
693,693,-0.3210000177229285,-0.3,0.0,1.0,442.0,787.0,1.0,0,621.0,1
694,694,-0.7961200275742624,-0.8,1.0,0.0,314.0,536.0,0.0,0,160.0,1
695,695,-0.3815683753352962,-0.4,1.0,0.0,388.0,575.0,0.0,0,377.0,1
696,696,0.5974736853206807,0.6,1.0,1.0,348.0,621.0,1.0,1,211.0,1
697,697,-0.3046960878709496,-0.3,1.0,0.0,468.0,915.0,0.0,0,87.0,1
698,698,-0.19926561972355994,-0.2,0.0,1.0,497.0,940.0,1.0,0,823.0,1
699,699,-0.8608065123839246,-0.9,1.0,0.0,286.0,865.0,0.0,0,-71.0,1
700,700,-0.4877783081308911,-0.5,1.0,0.0,328.0,734.0,0.0,0,-112.0,1
701,701,0.306432243650011,0.3,0.0,0.0,422.0,602.0,0.0,1,236.0,1
702,702,0.7816094207813559,0.8,1.0,1.0,433.0,553.0,1.0,1,204.0,1
703,703,-0.05546176623442012,-0.1,0.0,1.0,455.0,876.0,1.0,0,489.0,1
704,704,-0.45959994560201584,-0.5,0.0,1.0,345.0,964.0,1.0,0,-119.0,1
705,705,-0.4053334996239378,-0.4,0.0,1.0,287.0,702.0,1.0,0,261.0,1
706,706,-0.3826821381961609,-0.4,1.0,0.0,427.0,868.0,0.0,0,475.0,1
707,707,-0.8637474840279559,-0.9,1.0,0.0,472.0,563.0,0.0,0,95.0,1
708,708,-0.015378973014535946,-0.0,0.0,1.0,348.0,907.0,0.0,1,1745.0,0
709,709,0.055405780559845796,0.1,1.0,1.0,398.0,819.0,1.0,1,793.0,1
710,710,0.2730596943531366,0.3,1.0,1.0,428.0,665.0,1.0,1,157.0,1
711,711,-0.42505522915299904,-0.4,0.0,1.0,411.0,695.0,1.0,0,374.0,1
712,712,0.6379104324952679,0.6,1.0,1.0,387.0,656.0,1.0,1,277.0,1
713,713,0.8033167676740346,0.8,1.0,1.0,363.0,562.0,1.0,1,185.0,1
714,714,-0.5832258470513982,-0.6,0.0,1.0,408.0,552.0,1.0,0,230.0,1
715,715,0.16765643055514923,0.2,0.0,0.0,450.0,963.0,0.0,1,367.0,1
716,716,-0.4256312134092593,-0.4,1.0,0.0,453.0,628.0,1.0,1,-11.0,0
717,717,0.41616750863996865,0.4,1.0,1.0,494.0,774.0,1.0,1,-108.0,1
718,718,0.4244909728573899,0.4,0.0,0.0,261.0,687.0,0.0,1,122.0,1
719,719,-0.09976926570710787,-0.1,1.0,0.0,474.0,556.0,0.0,0,510.0,1
720,720,0.4713786722915042,0.5,1.0,1.0,416.0,912.0,0.0,0,-478.0,0
721,721,-0.3273803427769708,-0.3,0.0,1.0,308.0,650.0,1.0,0,462.0,1
722,722,0.863379715831507,0.9,1.0,1.0,390.0,591.0,1.0,1,69.0,1
723,723,0.46702400731003413,0.5,1.0,1.0,253.0,631.0,1.0,1,276.0,1
724,724,0.8763215370418026,0.9,0.0,0.0,393.0,636.0,0.0,1,-419.0,1
725,725,-0.06045440717174688,-0.1,0.0,1.0,414.0,553.0,0.0,1,253.0,0
726,726,0.8445482747623966,0.8,1.0,1.0,471.0,500.0,1.0,1,219.0,1
727,727,0.8470849553094876,0.8,0.0,0.0,252.0,954.0,0.0,1,94.0,1
728,728,-0.0983652491815431,-0.1,1.0,0.0,483.0,878.0,1.0,1,929.0,0
729,729,-0.7164878044171569,-0.7,0.0,1.0,417.0,883.0,1.0,0,240.0,1
730,730,0.08350906625938392,0.1,1.0,1.0,440.0,876.0,1.0,1,1684.0,1
731,731,0.15168173419040187,0.2,0.0,0.0,442.0,748.0,0.0,1,1000.0,1
732,732,0.42766950331397935,0.4,0.0,0.0,333.0,776.0,0.0,1,361.0,1
733,733,-0.8752450873148386,-0.9,0.0,1.0,382.0,976.0,0.0,1,-538.0,0
734,734,-0.8079887413604924,-0.8,1.0,0.0,279.0,837.0,0.0,0,304.0,1
735,735,-0.2288582286821893,-0.2,0.0,1.0,491.0,824.0,1.0,0,195.0,1
736,736,0.48690210440403814,0.5,0.0,0.0,301.0,589.0,0.0,1,480.0,1
737,737,-0.41328429127244687,-0.4,1.0,0.0,339.0,549.0,0.0,0,112.0,1
738,738,0.6351089447483046,0.6,1.0,1.0,337.0,658.0,1.0,1,295.0,1
739,739,0.7579110616482688,0.8,0.0,0.0,287.0,917.0,1.0,0,-204.0,0
740,740,-0.054834220506282505,-0.1,1.0,0.0,297.0,554.0,0.0,0,2149.0,1
741,741,-0.2979555637946153,-0.3,0.0,1.0,363.0,784.0,1.0,0,573.0,1
742,742,-0.14956657707218945,-0.1,1.0,0.0,391.0,758.0,1.0,1,671.0,0
743,743,-0.7187136339007372,-0.7,0.0,1.0,308.0,726.0,1.0,0,196.0,1
744,744,0.16167965856024413,0.2,0.0,0.0,479.0,743.0,0.0,1,598.0,1
745,745,-0.6327396925972182,-0.6,0.0,1.0,390.0,798.0,1.0,0,142.0,1
746,746,-0.0026996894429004437,-0.0,0.0,1.0,437.0,815.0,1.0,0,1108.0,1
747,747,0.618113319934466,0.6,0.0,0.0,473.0,735.0,0.0,1,202.0,1
748,748,-0.7588198240242974,-0.8,0.0,1.0,264.0,753.0,1.0,0,263.0,1
749,749,0.6727312057830442,0.7,0.0,0.0,382.0,509.0,0.0,1,209.0,1
750,750,-0.48407528144913303,-0.5,1.0,0.0,454.0,812.0,0.0,0,334.0,1
751,751,0.6314787387521595,0.6,0.0,0.0,302.0,878.0,0.0,1,270.0,1
752,752,-0.4776526302129917,-0.5,1.0,0.0,319.0,956.0,0.0,0,-635.0,1
753,753,-0.013710710293268646,-0.0,1.0,0.0,479.0,573.0,1.0,1,608.0,0
754,754,0.5519478330701374,0.6,1.0,1.0,294.0,575.0,1.0,1,171.0,1
755,755,-0.7009671702761241,-0.7,1.0,0.0,395.0,612.0,0.0,0,13.0,1
756,756,-0.21658950636283814,-0.2,0.0,1.0,409.0,687.0,1.0,0,264.0,1
757,757,-0.015549721642569292,-0.0,1.0,0.0,456.0,684.0,0.0,0,10.0,1
758,758,0.027064148574952984,0.0,1.0,1.0,342.0,623.0,1.0,1,2005.0,1
759,759,0.6834669537174097,0.7,0.0,0.0,341.0,518.0,0.0,1,221.0,1
760,760,0.6922476548104836,0.7,0.0,0.0,486.0,794.0,0.0,1,230.0,1
761,761,-0.6694861936467476,-0.7,1.0,0.0,261.0,633.0,0.0,0,316.0,1
762,762,0.8097594235862818,0.8,0.0,0.0,367.0,573.0,0.0,1,110.0,1
763,763,-0.6692399475382695,-0.7,0.0,1.0,250.0,604.0,1.0,0,186.0,1
764,764,-0.4807947062818743,-0.5,0.0,1.0,478.0,996.0,1.0,0,296.0,1
765,765,-0.5986364062527314,-0.6,0.0,1.0,350.0,634.0,1.0,0,316.0,1
766,766,-0.38894949772981713,-0.4,0.0,1.0,341.0,706.0,1.0,0,273.0,1
767,767,0.30739834134577826,0.3,1.0,1.0,490.0,835.0,1.0,1,615.0,1
768,768,-0.6998346117332139,-0.7,1.0,0.0,433.0,553.0,0.0,0,54.0,1
769,769,-0.15381140124611659,-0.2,1.0,0.0,392.0,797.0,0.0,0,631.0,1
770,770,-0.7091086870223333,-0.7,1.0,0.0,471.0,928.0,0.0,0,111.0,1
771,771,0.7743191603808043,0.8,1.0,1.0,272.0,734.0,1.0,1,214.0,1
772,772,-0.7360408471149364,-0.7,1.0,0.0,442.0,569.0,0.0,0,99.0,1
773,773,-0.14580367992282017,-0.1,0.0,1.0,397.0,912.0,1.0,0,671.0,1
774,774,-0.10574081775048261,-0.1,0.0,1.0,496.0,732.0,1.0,0,792.0,1
775,775,-0.20765690712259488,-0.2,0.0,1.0,355.0,885.0,1.0,0,730.0,1
776,776,-0.7011424755102346,-0.7,0.0,1.0,381.0,658.0,1.0,0,111.0,1
777,777,0.503217980457677,0.5,0.0,0.0,388.0,906.0,0.0,1,406.0,1
778,778,-0.7728851332934332,-0.8,0.0,1.0,384.0,668.0,1.0,0,218.0,1
779,779,-0.512722734678076,-0.5,1.0,0.0,269.0,873.0,0.0,0,388.0,1
780,780,0.8778754038546829,0.9,0.0,0.0,402.0,668.0,0.0,1,140.0,1
781,781,0.4005997837788834,0.4,0.0,0.0,393.0,936.0,1.0,0,-539.0,0
782,782,-0.14914248126972496,-0.1,1.0,0.0,425.0,862.0,0.0,0,1713.0,1
783,783,0.03727292680593397,0.0,0.0,0.0,411.0,939.0,0.0,1,1650.0,1
784,784,0.8560900731287467,0.9,0.0,0.0,395.0,783.0,0.0,1,82.0,1
785,785,0.3526148230352911,0.4,1.0,1.0,309.0,937.0,1.0,1,194.0,1
786,786,0.24410370951238824,0.2,0.0,0.0,444.0,827.0,0.0,1,559.0,1
787,787,0.5976254382701919,0.6,0.0,0.0,390.0,689.0,0.0,1,181.0,1
788,788,-0.1209606090277987,-0.1,0.0,1.0,305.0,812.0,1.0,0,503.0,1
789,789,0.3028868028195425,0.3,0.0,0.0,427.0,925.0,0.0,1,278.0,1
790,790,-0.2708202429330041,-0.3,1.0,0.0,481.0,766.0,0.0,0,73.0,1
791,791,-0.25531575529308603,-0.3,1.0,0.0,427.0,518.0,0.0,0,125.0,1
792,792,0.2803896492073127,0.3,0.0,0.0,380.0,783.0,0.0,1,267.0,1
793,793,0.3760962324753029,0.4,1.0,1.0,429.0,903.0,1.0,1,238.0,1
794,794,0.6148946244938954,0.6,0.0,0.0,409.0,621.0,0.0,1,140.0,1
795,795,0.5411697799146472,0.5,0.0,0.0,325.0,629.0,0.0,1,246.0,1
796,796,0.6559326908533963,0.7,0.0,0.0,493.0,819.0,0.0,1,138.0,1
797,797,-0.8508837504826466,-0.9,1.0,0.0,277.0,659.0,0.0,0,74.0,1
798,798,-0.645974229509954,-0.6,0.0,1.0,379.0,979.0,1.0,0,2.0,1
799,799,-0.47543250932156567,-0.5,1.0,0.0,369.0,873.0,0.0,0,128.0,1
800,800,-0.5236040374562105,-0.5,0.0,1.0,388.0,559.0,1.0,0,103.0,1
801,801,-0.7787974771242988,-0.8,0.0,1.0,410.0,934.0,0.0,1,-34.0,0
802,802,0.6399208659868508,0.6,0.0,0.0,295.0,886.0,0.0,1,109.0,1
803,803,0.7218973027612411,0.7,0.0,0.0,258.0,621.0,0.0,1,291.0,1
804,804,0.8537119352818153,0.9,0.0,0.0,282.0,544.0,1.0,0,-116.0,0
805,805,-0.763980714750478,-0.8,1.0,0.0,325.0,685.0,0.0,0,90.0,1
806,806,-0.6034904610167935,-0.6,1.0,0.0,330.0,807.0,0.0,0,153.0,1
807,807,0.0026887767714249833,0.0,1.0,1.0,463.0,898.0,1.0,1,119.0,1
808,808,-0.3245646984892686,-0.3,1.0,0.0,475.0,569.0,0.0,0,46.0,1
809,809,0.6581362250779329,0.7,0.0,0.0,478.0,755.0,0.0,1,67.0,1
810,810,-0.02607393686998638,-0.0,0.0,1.0,387.0,525.0,1.0,0,2088.0,1
811,811,-0.5458013193883873,-0.5,1.0,0.0,475.0,503.0,0.0,0,142.0,1
812,812,0.7451109354161701,0.7,1.0,1.0,468.0,678.0,1.0,1,64.0,1
813,813,0.868068052440376,0.9,1.0,1.0,358.0,974.0,1.0,1,208.0,1
814,814,0.39504478151624756,0.4,1.0,1.0,294.0,515.0,1.0,1,211.0,1
815,815,0.46998684163919513,0.5,1.0,1.0,331.0,561.0,1.0,1,228.0,1
816,816,0.7634365513475411,0.8,1.0,1.0,498.0,522.0,1.0,1,170.0,1
817,817,0.519070324394093,0.5,0.0,0.0,422.0,924.0,0.0,1,214.0,1
818,818,-0.0007718562889198477,-0.0,1.0,0.0,430.0,750.0,1.0,1,1820.0,0
819,819,0.7275484865881318,0.7,0.0,0.0,478.0,689.0,0.0,1,43.0,1
820,820,0.8914184576312211,0.9,1.0,1.0,430.0,650.0,1.0,1,60.0,1
821,821,0.24287373591385564,0.2,0.0,0.0,257.0,762.0,0.0,1,461.0,1
822,822,0.04519687918787563,0.0,0.0,0.0,443.0,679.0,1.0,0,968.0,0
823,823,0.2081145266176202,0.2,1.0,1.0,377.0,566.0,1.0,1,547.0,1
824,824,0.6425262374137622,0.6,1.0,1.0,288.0,595.0,1.0,1,207.0,1
825,825,0.7952504413162979,0.8,0.0,0.0,297.0,867.0,0.0,1,96.0,1
826,826,-0.24481769418399202,-0.2,1.0,0.0,486.0,581.0,0.0,0,463.0,1
827,827,-0.8622592234762873,-0.9,0.0,1.0,357.0,945.0,1.0,0,178.0,1
828,828,-0.8874244003160743,-0.9,0.0,1.0,314.0,882.0,1.0,0,274.0,1
829,829,-0.12967018243435324,-0.1,0.0,1.0,395.0,886.0,1.0,0,709.0,1
830,830,-0.1723085779260447,-0.2,0.0,1.0,403.0,845.0,1.0,0,562.0,1
831,831,-0.5584603725640567,-0.6,0.0,1.0,300.0,954.0,1.0,0,286.0,1
832,832,-0.4623695698424815,-0.5,1.0,0.0,496.0,992.0,0.0,0,412.0,1
833,833,0.35099944748731715,0.4,1.0,1.0,472.0,873.0,1.0,1,265.0,1
834,834,-0.2264184518881478,-0.2,0.0,1.0,359.0,717.0,1.0,0,294.0,1
835,835,0.6647193371278973,0.7,0.0,0.0,398.0,646.0,0.0,1,256.0,1
836,836,0.11301555018171705,0.1,0.0,0.0,327.0,514.0,0.0,1,249.0,1
837,837,0.43293391062928255,0.4,0.0,0.0,401.0,528.0,0.0,1,381.0,1
838,838,0.12590995632859714,0.1,0.0,0.0,427.0,922.0,0.0,1,1651.0,1
839,839,0.52235754924807,0.5,0.0,0.0,290.0,996.0,0.0,1,94.0,1
840,840,0.48359244799882795,0.5,0.0,0.0,447.0,991.0,1.0,0,-28.0,0
841,841,-0.5431067933403341,-0.5,0.0,1.0,325.0,628.0,1.0,0,297.0,1
842,842,0.5686244379762829,0.6,1.0,1.0,340.0,740.0,1.0,1,270.0,1
843,843,-0.21593866739066636,-0.2,1.0,0.0,497.0,886.0,0.0,0,587.0,1
844,844,0.05063498500302688,0.1,0.0,0.0,320.0,672.0,1.0,0,2008.0,0
845,845,-0.4550100767338941,-0.5,0.0,1.0,468.0,949.0,1.0,0,203.0,1
846,846,0.41864020186260176,0.4,0.0,0.0,438.0,760.0,0.0,1,152.0,1
847,847,-0.7521167317646898,-0.8,1.0,0.0,471.0,535.0,0.0,0,124.0,1
848,848,-0.47633211830751465,-0.5,1.0,0.0,427.0,978.0,0.0,0,-135.0,1
849,849,-0.8797285606683325,-0.9,1.0,0.0,408.0,895.0,0.0,0,67.0,1
850,850,0.7429194676985048,0.7,0.0,0.0,367.0,943.0,0.0,1,110.0,1
851,851,0.19815603808257165,0.2,1.0,1.0,484.0,658.0,1.0,1,388.0,1
852,852,0.6870702048742235,0.7,1.0,1.0,335.0,820.0,1.0,1,175.0,1
853,853,-0.01630169349793853,-0.0,1.0,0.0,348.0,883.0,1.0,1,549.0,0
854,854,0.5252619189121984,0.5,0.0,0.0,322.0,597.0,0.0,1,201.0,1
855,855,-0.40757269328175244,-0.4,0.0,1.0,303.0,960.0,1.0,0,207.0,1
856,856,-0.651009110450187,-0.7,0.0,1.0,493.0,919.0,1.0,0,328.0,1
857,857,-0.48364521093738694,-0.5,1.0,0.0,355.0,959.0,0.0,0,156.0,1
858,858,-0.3460637394018916,-0.3,0.0,1.0,428.0,519.0,1.0,0,333.0,1
859,859,0.882291589262915,0.9,1.0,1.0,356.0,779.0,1.0,1,175.0,1
860,860,-0.46709604792941734,-0.5,0.0,1.0,273.0,563.0,1.0,0,314.0,1
861,861,-0.607540097188002,-0.6,0.0,1.0,346.0,911.0,1.0,0,113.0,1
862,862,0.7655054004600942,0.8,0.0,0.0,380.0,663.0,0.0,1,107.0,1
863,863,-0.5363685721952025,-0.5,0.0,1.0,473.0,806.0,1.0,0,321.0,1
864,864,0.1742729169762064,0.2,0.0,0.0,277.0,585.0,0.0,1,668.0,1
865,865,-0.14194864761497672,-0.1,1.0,0.0,486.0,972.0,0.0,0,452.0,1
866,866,-0.4138642368014044,-0.4,1.0,0.0,383.0,926.0,0.0,0,361.0,1
867,867,-0.08770848229545658,-0.1,1.0,0.0,391.0,611.0,0.0,0,258.0,1
868,868,0.8044738045620795,0.8,1.0,1.0,461.0,902.0,1.0,1,127.0,1
869,869,-0.6513382436370662,-0.7,0.0,1.0,310.0,748.0,0.0,1,-68.0,0
870,870,0.21415098716373226,0.2,0.0,0.0,313.0,852.0,0.0,1,825.0,1
871,871,-0.8066171645701413,-0.8,0.0,1.0,496.0,893.0,1.0,0,161.0,1
872,872,0.30907403169433423,0.3,1.0,1.0,338.0,968.0,1.0,1,284.0,1
873,873,-0.5473553589926705,-0.5,1.0,0.0,301.0,880.0,0.0,0,99.0,1
874,874,-0.779627102441176,-0.8,0.0,1.0,252.0,970.0,0.0,1,-92.0,0
875,875,-0.10920590671870167,-0.1,1.0,0.0,413.0,984.0,0.0,0,143.0,1
876,876,-0.4896742030221954,-0.5,0.0,1.0,402.0,983.0,1.0,0,95.0,1
877,877,0.5764488166403389,0.6,0.0,0.0,323.0,717.0,0.0,1,230.0,1
878,878,-0.6165014210814919,-0.6,0.0,1.0,346.0,950.0,1.0,0,174.0,1
879,879,-0.19965290653310575,-0.2,1.0,0.0,317.0,986.0,1.0,1,-143.0,0
880,880,0.5471848706419568,0.5,1.0,1.0,273.0,797.0,1.0,1,150.0,1
881,881,0.17601362406685073,0.2,0.0,0.0,298.0,551.0,0.0,1,411.0,1
882,882,-0.8816634175549996,-0.9,0.0,1.0,292.0,682.0,1.0,0,136.0,1
883,883,-0.24479301456567581,-0.2,0.0,1.0,470.0,943.0,1.0,0,737.0,1
884,884,0.039524820855578624,0.0,0.0,0.0,361.0,910.0,1.0,0,229.0,0
885,885,-0.7563645621793149,-0.8,0.0,1.0,425.0,515.0,1.0,0,180.0,1
886,886,-0.8348177598867426,-0.8,1.0,0.0,393.0,842.0,0.0,0,125.0,1
887,887,0.5008973384883401,0.5,1.0,1.0,292.0,940.0,1.0,1,188.0,1
888,888,0.4164986470634445,0.4,1.0,1.0,356.0,921.0,1.0,1,173.0,1
889,889,-0.213483971087557,-0.2,1.0,0.0,268.0,913.0,0.0,0,209.0,1
890,890,0.33830299205375736,0.3,0.0,0.0,478.0,842.0,0.0,1,100.0,1
891,891,0.4572595611264926,0.5,0.0,0.0,332.0,907.0,0.0,1,101.0,1
892,892,-0.8526485197558998,-0.9,0.0,1.0,390.0,957.0,1.0,0,273.0,1
893,893,0.7606857645390531,0.8,1.0,1.0,263.0,624.0,1.0,1,243.0,1
894,894,-0.37814396456953614,-0.4,0.0,1.0,427.0,932.0,1.0,0,241.0,1
895,895,-0.022687608830162853,-0.0,0.0,1.0,251.0,640.0,1.0,0,2109.0,1
896,896,0.7450517065922603,0.7,0.0,0.0,483.0,705.0,0.0,1,82.0,1
897,897,0.5475527869663258,0.5,0.0,0.0,433.0,763.0,0.0,1,174.0,1
898,898,-0.10652819509299016,-0.1,1.0,0.0,276.0,830.0,0.0,0,234.0,1
899,899,0.8897939803595011,0.9,1.0,1.0,389.0,735.0,1.0,1,176.0,1
900,900,0.39360113062989843,0.4,0.0,0.0,295.0,810.0,0.0,1,405.0,1
901,901,-0.6849275916489324,-0.7,1.0,0.0,447.0,552.0,0.0,0,211.0,1
902,902,0.45499126741411533,0.5,1.0,1.0,397.0,500.0,1.0,1,93.0,1
903,903,-0.06303760991571883,-0.1,0.0,1.0,436.0,738.0,1.0,0,1826.0,1
904,904,-0.2775002150360988,-0.3,0.0,1.0,337.0,703.0,1.0,0,970.0,1
905,905,0.5628726288417681,0.6,1.0,1.0,285.0,877.0,1.0,1,198.0,1
906,906,0.2367660819059373,0.2,0.0,0.0,299.0,689.0,0.0,1,342.0,1
907,907,-0.016968365708525113,-0.0,0.0,1.0,403.0,526.0,1.0,0,381.0,1
908,908,-0.5914730688389569,-0.6,0.0,1.0,415.0,760.0,1.0,0,255.0,1
909,909,-0.3859208203338039,-0.4,1.0,0.0,263.0,846.0,0.0,0,131.0,1
910,910,-0.5413475669667535,-0.5,0.0,1.0,356.0,929.0,1.0,0,285.0,1
911,911,0.7228543398088775,0.7,0.0,0.0,364.0,880.0,0.0,1,176.0,1
912,912,0.25840597310385494,0.3,0.0,0.0,299.0,520.0,0.0,1,401.0,1
913,913,-0.7268809906468339,-0.7,1.0,0.0,368.0,931.0,0.0,0,111.0,1
914,914,0.5700769189121343,0.6,1.0,1.0,276.0,707.0,1.0,1,217.0,1
915,915,-0.38778027296610973,-0.4,0.0,1.0,485.0,733.0,1.0,0,422.0,1
916,916,0.10513656938691962,0.1,1.0,1.0,337.0,985.0,1.0,1,248.0,1
917,917,-0.1555533915701336,-0.2,1.0,0.0,395.0,676.0,0.0,0,939.0,1
918,918,-0.11952746026432848,-0.1,0.0,1.0,323.0,941.0,1.0,0,666.0,1
919,919,0.4089787721627419,0.4,0.0,0.0,274.0,767.0,0.0,1,79.0,1
920,920,0.729832841496935,0.7,1.0,1.0,339.0,918.0,1.0,1,3.0,1
921,921,-0.08799933124364445,-0.1,1.0,0.0,385.0,796.0,0.0,0,999.0,1
922,922,-0.8425823549718435,-0.8,1.0,0.0,419.0,660.0,0.0,0,-69.0,1
923,923,-0.5479453772002711,-0.5,0.0,1.0,453.0,653.0,1.0,0,304.0,1
924,924,-0.21242705543657614,-0.2,0.0,1.0,450.0,873.0,1.0,0,617.0,1
925,925,0.21301811983685315,0.2,0.0,0.0,404.0,794.0,0.0,1,322.0,1
926,926,-0.2376442118835922,-0.2,1.0,0.0,468.0,615.0,0.0,0,47.0,1
927,927,0.5135798925745524,0.5,1.0,1.0,479.0,539.0,1.0,1,282.0,1
928,928,0.3212880959831649,0.3,1.0,1.0,480.0,629.0,1.0,1,251.0,1
929,929,0.33381062986409293,0.3,1.0,1.0,452.0,958.0,1.0,1,230.0,1
930,930,-0.5304946790128688,-0.5,1.0,0.0,274.0,657.0,0.0,0,189.0,1
931,931,-0.6812968275890074,-0.7,1.0,0.0,252.0,810.0,0.0,0,178.0,1
932,932,-0.2502161950966162,-0.3,0.0,1.0,412.0,863.0,1.0,0,475.0,1
933,933,0.599154204748123,0.6,1.0,1.0,275.0,935.0,1.0,1,220.0,1
934,934,-0.5172055251311338,-0.5,0.0,1.0,410.0,559.0,1.0,0,281.0,1
935,935,-0.3640976460807859,-0.4,0.0,1.0,363.0,979.0,1.0,0,228.0,1
936,936,-0.10791518683062529,-0.1,1.0,0.0,476.0,658.0,0.0,0,1026.0,1
937,937,0.026481715338520062,0.0,0.0,0.0,457.0,577.0,1.0,0,1806.0,0
938,938,0.35157775847552164,0.4,0.0,0.0,350.0,581.0,0.0,1,419.0,1
939,939,-0.24610379785114433,-0.2,1.0,0.0,389.0,769.0,0.0,0,312.0,1
940,940,0.046464275852597825,0.0,0.0,0.0,372.0,933.0,0.0,1,-135.0,1
941,941,-0.17221438717883553,-0.2,0.0,1.0,447.0,959.0,1.0,0,1034.0,1
942,942,-0.06549946953496211,-0.1,1.0,0.0,398.0,789.0,0.0,0,123.0,1
943,943,-0.7147390944469804,-0.7,1.0,0.0,441.0,707.0,0.0,0,102.0,1
944,944,-0.7504530688815662,-0.8,1.0,0.0,445.0,856.0,0.0,0,219.0,1
945,945,0.5818169183011589,0.6,1.0,1.0,422.0,520.0,1.0,1,238.0,1
946,946,0.12645426854635156,0.1,1.0,1.0,367.0,633.0,1.0,1,500.0,1
947,947,0.6481623643448439,0.6,1.0,1.0,367.0,726.0,1.0,1,147.0,1
948,948,-0.8767710615436934,-0.9,0.0,1.0,277.0,954.0,1.0,0,149.0,1
949,949,-0.2864564366139657,-0.3,0.0,1.0,331.0,806.0,1.0,0,13.0,1
950,950,-0.6960504719823976,-0.7,1.0,0.0,415.0,530.0,0.0,0,135.0,1
951,951,-0.8620450891928291,-0.9,0.0,1.0,250.0,796.0,1.0,0,184.0,1
952,952,0.447556852566417,0.4,0.0,0.0,474.0,852.0,0.0,1,404.0,1
953,953,-0.7657491758726532,-0.8,1.0,0.0,270.0,649.0,0.0,0,-409.0,1
954,954,-0.1698373611374615,-0.2,0.0,1.0,258.0,983.0,1.0,0,779.0,1
955,955,0.03845032793234615,0.0,0.0,0.0,393.0,601.0,1.0,0,836.0,0
956,956,-0.5100617586528188,-0.5,1.0,0.0,289.0,782.0,1.0,1,-411.0,0
957,957,0.11772065779739316,0.1,0.0,0.0,448.0,558.0,0.0,1,1994.0,1
958,958,-0.3232469164040742,-0.3,0.0,1.0,451.0,648.0,1.0,0,271.0,1
959,959,-0.5950755114759876,-0.6,0.0,1.0,356.0,558.0,1.0,0,526.0,1
960,960,-0.4612854165804641,-0.5,0.0,1.0,332.0,657.0,1.0,0,211.0,1
961,961,0.04904107161627469,0.0,1.0,1.0,292.0,983.0,1.0,1,1725.0,1
962,962,-0.48230779835276155,-0.5,0.0,1.0,333.0,951.0,0.0,1,-134.0,0
963,963,-0.2689463596174012,-0.3,1.0,0.0,388.0,570.0,0.0,0,42.0,1
964,964,0.2560952621823195,0.3,1.0,1.0,296.0,914.0,1.0,1,370.0,1
965,965,-0.5466674613999447,-0.5,0.0,1.0,259.0,578.0,0.0,1,-47.0,0
966,966,0.7778471148309106,0.8,1.0,1.0,457.0,570.0,1.0,1,193.0,1
967,967,0.5962548929592261,0.6,1.0,1.0,302.0,500.0,1.0,1,338.0,1
968,968,-0.0019250317798493732,-0.0,1.0,0.0,404.0,888.0,1.0,1,108.0,0
969,969,0.7586782834595142,0.8,1.0,1.0,446.0,826.0,1.0,1,268.0,1
970,970,-0.5865423564280453,-0.6,1.0,0.0,360.0,970.0,1.0,1,-320.0,0
971,971,-0.3021441969154871,-0.3,1.0,0.0,387.0,888.0,0.0,0,475.0,1
972,972,0.7571572098045195,0.8,0.0,0.0,341.0,599.0,0.0,1,140.0,1
973,973,0.8093309856513599,0.8,1.0,1.0,465.0,605.0,1.0,1,120.0,1
974,974,-0.004331755236919199,-0.0,1.0,0.0,415.0,755.0,1.0,1,1830.0,0
975,975,0.2803463491869863,0.3,1.0,1.0,320.0,841.0,1.0,1,689.0,1
976,976,0.6912794711777493,0.7,0.0,0.0,493.0,760.0,0.0,1,247.0,1
977,977,-0.8026430682119238,-0.8,0.0,1.0,399.0,834.0,1.0,0,97.0,1
978,978,-0.2912426796377816,-0.3,1.0,0.0,418.0,525.0,0.0,0,307.0,1
979,979,-0.2794064921194297,-0.3,0.0,1.0,411.0,951.0,1.0,0,318.0,1
980,980,-0.828744805313957,-0.8,1.0,0.0,298.0,552.0,0.0,0,160.0,1
981,981,-0.6438712271253678,-0.6,1.0,0.0,470.0,891.0,0.0,0,109.0,1
982,982,-0.21655091486913247,-0.2,1.0,0.0,412.0,686.0,0.0,0,-258.0,1
983,983,-0.29293865558486387,-0.3,0.0,1.0,458.0,848.0,1.0,0,84.0,1
984,984,0.6792498681166251,0.7,0.0,0.0,491.0,627.0,0.0,1,122.0,1
985,985,0.8881429142560157,0.9,1.0,1.0,323.0,887.0,1.0,1,110.0,1
986,986,-0.7049453131120802,-0.7,1.0,0.0,357.0,691.0,0.0,0,102.0,1
987,987,0.06526657517367784,0.1,1.0,1.0,394.0,855.0,1.0,1,461.0,1
988,988,0.5376353288307559,0.5,0.0,0.0,258.0,694.0,0.0,1,128.0,1
989,989,-0.7996327671133936,-0.8,0.0,1.0,396.0,652.0,1.0,0,182.0,1
990,990,0.0425462553192103,0.0,1.0,1.0,496.0,855.0,1.0,1,259.0,1
991,991,-0.25594010353277963,-0.3,0.0,1.0,327.0,604.0,1.0,0,239.0,1
992,992,-0.27869501331008983,-0.3,1.0,0.0,384.0,527.0,0.0,0,339.0,1
993,993,-0.5477322769308199,-0.5,1.0,0.0,493.0,713.0,0.0,0,204.0,1
994,994,0.8897900423751314,0.9,0.0,0.0,353.0,803.0,0.0,1,164.0,1
995,995,-0.5758777900118199,-0.6,0.0,1.0,467.0,549.0,1.0,0,404.0,1
996,996,0.6212286198651346,0.6,0.0,0.0,353.0,601.0,0.0,1,116.0,1
997,997,0.7697132979425844,0.8,1.0,1.0,386.0,708.0,1.0,1,156.0,1
998,998,0.8489260526657291,0.8,1.0,1.0,392.0,665.0,1.0,1,153.0,1
999,999,0.2417995272863337,0.2,0.0,0.0,310.0,778.0,0.0,1,752.0,1
1000,1000,0.782320437849724,0.8,0.0,0.0,329.0,982.0,0.0,1,149.0,1
1001,1001,0.4669275588689531,0.5,0.0,0.0,451.0,778.0,0.0,1,71.0,1
1002,1002,-0.15154292111909717,-0.2,0.0,1.0,251.0,993.0,1.0,0,326.0,1
1003,1003,-0.4427254321972091,-0.4,1.0,0.0,394.0,754.0,0.0,0,142.0,1
1004,1004,-0.7029077314651816,-0.7,0.0,1.0,442.0,519.0,1.0,0,299.0,1
1005,1005,0.6775496833278166,0.7,0.0,0.0,327.0,747.0,0.0,1,216.0,1
1006,1006,0.28532893507421864,0.3,1.0,1.0,499.0,834.0,0.0,0,-103.0,0
1007,1007,0.8026323120679356,0.8,1.0,1.0,395.0,575.0,1.0,1,260.0,1
1008,1008,0.021655298801085632,0.0,0.0,0.0,447.0,501.0,0.0,1,252.0,1
1009,1009,-0.027298519917376085,-0.0,0.0,1.0,302.0,669.0,1.0,0,2029.0,1
1010,1010,-0.8329550919849606,-0.8,1.0,0.0,380.0,971.0,0.0,0,109.0,1
1011,1011,-0.12616783871590675,-0.1,1.0,0.0,466.0,966.0,0.0,0,1048.0,1
1012,1012,-0.2307106523235566,-0.2,0.0,1.0,268.0,865.0,1.0,0,-73.0,1
1013,1013,0.3239341074043395,0.3,0.0,0.0,381.0,567.0,0.0,1,402.0,1
1014,1014,0.03128230308325097,0.0,1.0,1.0,378.0,723.0,1.0,1,1519.0,1
1015,1015,-0.6491095190586709,-0.6,1.0,0.0,397.0,505.0,0.0,0,188.0,1
1016,1016,0.4401759917960494,0.4,1.0,1.0,444.0,710.0,1.0,1,286.0,1
1017,1017,0.8190438529080984,0.8,1.0,1.0,294.0,539.0,1.0,1,287.0,1
1018,1018,0.08191611136960397,0.1,0.0,0.0,405.0,961.0,0.0,1,574.0,1
1019,1019,-0.12567085760385066,-0.1,0.0,1.0,409.0,993.0,1.0,0,218.0,1
1020,1020,-0.5199536628376962,-0.5,0.0,1.0,268.0,542.0,1.0,0,270.0,1
1021,1021,0.8662851822575947,0.9,0.0,0.0,495.0,504.0,0.0,1,221.0,1
1022,1022,-0.1356255385834788,-0.1,1.0,0.0,278.0,994.0,0.0,0,1308.0,1
1023,1023,0.13061997377000834,0.1,1.0,1.0,279.0,927.0,1.0,1,44.0,1
1024,1024,0.6730535643777219,0.7,0.0,0.0,452.0,921.0,0.0,1,57.0,1
1025,1025,0.20065821316338706,0.2,0.0,0.0,432.0,810.0,0.0,1,638.0,1
1026,1026,-0.5713627275316606,-0.6,1.0,0.0,426.0,924.0,0.0,0,200.0,1
1027,1027,0.6379757437808954,0.6,1.0,1.0,418.0,844.0,1.0,1,8.0,1
1028,1028,-0.38685718628111476,-0.4,1.0,0.0,383.0,789.0,0.0,0,128.0,1
1029,1029,0.24965756389381333,0.2,1.0,1.0,288.0,718.0,1.0,1,384.0,1
1030,1030,-0.14454367931038958,-0.1,1.0,0.0,289.0,775.0,0.0,0,576.0,1
1031,1031,-0.7491458603941699,-0.7,1.0,0.0,334.0,659.0,0.0,0,87.0,1
1032,1032,0.7909481640461965,0.8,1.0,1.0,434.0,861.0,1.0,1,25.0,1
1033,1033,0.04563306247403176,0.0,0.0,0.0,304.0,655.0,0.0,1,1141.0,1
1034,1034,0.13323268417418965,0.1,1.0,1.0,338.0,914.0,1.0,1,78.0,1
1035,1035,-0.6068728863786759,-0.6,1.0,0.0,464.0,514.0,0.0,0,32.0,1
1036,1036,-0.5653406507076799,-0.6,1.0,0.0,388.0,780.0,0.0,0,92.0,1
1037,1037,0.3064322981201889,0.3,1.0,1.0,288.0,626.0,1.0,1,456.0,1
1038,1038,-0.49133568112658355,-0.5,1.0,0.0,375.0,785.0,0.0,0,110.0,1
1039,1039,0.19938446526725084,0.2,0.0,0.0,272.0,935.0,0.0,1,393.0,1
1040,1040,0.20004057003265518,0.2,0.0,0.0,436.0,771.0,0.0,1,353.0,1
1041,1041,-0.046490160267143144,-0.0,1.0,0.0,435.0,642.0,1.0,1,1683.0,0
1042,1042,0.27172094948054604,0.3,0.0,0.0,272.0,894.0,0.0,1,144.0,1
1043,1043,-0.4369299500218969,-0.4,1.0,0.0,484.0,688.0,0.0,0,328.0,1
1044,1044,-0.27308250857858074,-0.3,0.0,1.0,323.0,902.0,1.0,0,5.0,1
1045,1045,-0.32243119284676736,-0.3,0.0,1.0,419.0,736.0,1.0,0,-45.0,1
1046,1046,-0.5600101950821479,-0.6,0.0,1.0,490.0,757.0,1.0,0,233.0,1
1047,1047,0.8420990369048363,0.8,0.0,0.0,322.0,532.0,0.0,1,116.0,1
1048,1048,0.865391453275452,0.9,1.0,1.0,255.0,518.0,1.0,1,227.0,1
1049,1049,0.5212757868784016,0.5,1.0,1.0,391.0,540.0,1.0,1,249.0,1
1050,1050,-0.3701825821699454,-0.4,1.0,0.0,433.0,552.0,0.0,0,485.0,1
1051,1051,0.6966546178810206,0.7,0.0,0.0,469.0,691.0,0.0,1,220.0,1
1052,1052,-0.5855116102227087,-0.6,0.0,1.0,497.0,560.0,1.0,0,263.0,1
1053,1053,0.3724031738332997,0.4,1.0,1.0,297.0,682.0,1.0,1,241.0,1
1054,1054,0.4994755302362358,0.5,0.0,0.0,383.0,801.0,1.0,0,-94.0,0
1055,1055,-0.482535493710522,-0.5,1.0,0.0,470.0,916.0,0.0,0,124.0,1
1056,1056,0.15186564658640356,0.2,1.0,1.0,327.0,981.0,1.0,1,372.0,1
1057,1057,0.5606576079669275,0.6,1.0,1.0,455.0,549.0,1.0,1,986.0,1
1058,1058,0.5341444474474676,0.5,0.0,0.0,494.0,686.0,0.0,1,250.0,1
1059,1059,0.5012353411734701,0.5,1.0,1.0,454.0,963.0,1.0,1,123.0,1
1060,1060,0.7939144425818484,0.8,1.0,1.0,319.0,665.0,1.0,1,216.0,1
1061,1061,0.6945620803850349,0.7,0.0,0.0,294.0,630.0,0.0,1,116.0,1
1062,1062,-0.012807255100322879,-0.0,1.0,0.0,279.0,767.0,0.0,0,314.0,1
1063,1063,-0.46680353066967656,-0.5,1.0,0.0,418.0,688.0,0.0,0,234.0,1
1064,1064,0.7647095830927705,0.8,0.0,0.0,302.0,650.0,0.0,1,148.0,1
1065,1065,-0.6614866107036432,-0.7,1.0,0.0,269.0,544.0,0.0,0,-113.0,1
1066,1066,0.10433762167567073,0.1,1.0,1.0,450.0,927.0,1.0,1,643.0,1
1067,1067,0.4177284089491454,0.4,0.0,0.0,277.0,543.0,0.0,1,230.0,1
1068,1068,-0.38185559845266925,-0.4,0.0,1.0,252.0,924.0,1.0,0,304.0,1
1069,1069,0.6241959460691245,0.6,0.0,0.0,467.0,746.0,0.0,1,147.0,1
1070,1070,-0.12447001537218216,-0.1,0.0,1.0,259.0,664.0,1.0,0,187.0,1
1071,1071,-0.07690344311564401,-0.1,1.0,0.0,287.0,819.0,1.0,1,384.0,0
1072,1072,0.23672398208414858,0.2,1.0,1.0,487.0,515.0,1.0,1,988.0,1
1073,1073,0.687199231635602,0.7,0.0,0.0,373.0,592.0,0.0,1,245.0,1
1074,1074,-0.3330571612090949,-0.3,0.0,1.0,467.0,819.0,1.0,0,604.0,1
1075,1075,0.15663953054178192,0.2,0.0,0.0,312.0,935.0,0.0,1,403.0,1
1076,1076,0.683756319506147,0.7,0.0,0.0,432.0,957.0,0.0,1,1.0,1
1077,1077,-0.10804410549518473,-0.1,1.0,0.0,355.0,784.0,0.0,0,431.0,1
1078,1078,-0.16390338286387662,-0.2,1.0,0.0,320.0,522.0,0.0,0,678.0,1
1079,1079,0.4833939590354993,0.5,1.0,1.0,381.0,885.0,1.0,1,134.0,1
1080,1080,-0.8957133660962259,-0.9,1.0,0.0,453.0,825.0,0.0,0,152.0,1
1081,1081,0.026263088490476094,0.0,0.0,0.0,250.0,554.0,0.0,1,1496.0,1
1082,1082,-0.7740459050918435,-0.8,1.0,0.0,279.0,730.0,0.0,0,91.0,1
1083,1083,0.09991355601352625,0.1,1.0,1.0,259.0,584.0,1.0,1,587.0,1
1084,1084,-0.5873282009444947,-0.6,0.0,1.0,348.0,801.0,1.0,0,341.0,1
1085,1085,-0.10310994050355526,-0.1,0.0,1.0,252.0,549.0,1.0,0,389.0,1
1086,1086,-0.8978998538675786,-0.9,0.0,1.0,448.0,690.0,1.0,0,262.0,1
1087,1087,0.8232159579855501,0.8,0.0,0.0,388.0,618.0,0.0,1,284.0,1
1088,1088,-0.1517636464655463,-0.2,1.0,0.0,281.0,697.0,0.0,0,612.0,1
1089,1089,-0.06169642968553768,-0.1,0.0,1.0,321.0,563.0,1.0,0,456.0,1
1090,1090,-0.08565010411598994,-0.1,1.0,0.0,426.0,528.0,0.0,0,146.0,1
1091,1091,0.3807302973562684,0.4,1.0,1.0,451.0,665.0,0.0,0,64.0,0
1092,1092,0.040229414940228914,0.0,0.0,0.0,392.0,852.0,1.0,0,1756.0,0
1093,1093,-0.38153778863098187,-0.4,1.0,0.0,446.0,773.0,0.0,0,21.0,1
1094,1094,-0.09425624896415286,-0.1,0.0,1.0,368.0,705.0,1.0,0,387.0,1
1095,1095,0.5243927348482512,0.5,0.0,0.0,274.0,843.0,0.0,1,133.0,1
1096,1096,-0.6922819292381284,-0.7,1.0,0.0,311.0,738.0,0.0,0,71.0,1
1097,1097,-0.6173872151872548,-0.6,0.0,1.0,492.0,818.0,1.0,0,110.0,1
1098,1098,-0.6003958724018135,-0.6,0.0,1.0,474.0,907.0,1.0,0,99.0,1
1099,1099,-0.8455541562358315,-0.8,1.0,0.0,279.0,954.0,0.0,0,107.0,1
1100,1100,0.1632220758850934,0.2,0.0,0.0,294.0,733.0,0.0,1,213.0,1
1101,1101,-0.023883991228312196,-0.0,0.0,1.0,264.0,737.0,1.0,0,619.0,1
1102,1102,-0.6854563639997907,-0.7,0.0,1.0,280.0,854.0,1.0,0,236.0,1
1103,1103,-0.22079271313026283,-0.2,1.0,0.0,433.0,524.0,0.0,0,333.0,1
1104,1104,0.8929948017619261,0.9,1.0,1.0,485.0,525.0,1.0,1,280.0,1
1105,1105,0.0012033865631527751,0.0,0.0,0.0,487.0,551.0,1.0,0,942.0,0
1106,1106,0.36401042787549354,0.4,0.0,0.0,439.0,801.0,0.0,1,240.0,1
1107,1107,0.5754643918001184,0.6,1.0,1.0,316.0,783.0,1.0,1,181.0,1
1108,1108,0.3452454686700782,0.3,1.0,1.0,292.0,536.0,1.0,1,362.0,1
1109,1109,-0.4231347241610202,-0.4,1.0,0.0,421.0,643.0,0.0,0,176.0,1
1110,1110,0.4612456445932446,0.5,1.0,1.0,445.0,928.0,1.0,1,-213.0,1
1111,1111,-0.07226653422367713,-0.1,1.0,0.0,457.0,694.0,0.0,0,1849.0,1
1112,1112,-0.2587544480643551,-0.3,0.0,1.0,267.0,705.0,1.0,0,558.0,1
1113,1113,0.4496284655537709,0.4,0.0,0.0,340.0,580.0,0.0,1,200.0,1
1114,1114,-0.07584292611958732,-0.1,1.0,0.0,490.0,600.0,0.0,0,340.0,1
1115,1115,0.19684633560663778,0.2,0.0,0.0,272.0,865.0,0.0,1,843.0,1
1116,1116,0.5955616519146799,0.6,1.0,1.0,360.0,747.0,1.0,1,273.0,1
1117,1117,0.6115884878410099,0.6,0.0,0.0,251.0,897.0,0.0,1,202.0,1
1118,1118,0.6985833355639973,0.7,0.0,0.0,423.0,797.0,0.0,1,-260.0,1
1119,1119,-0.5744196450862551,-0.6,0.0,1.0,496.0,553.0,1.0,0,91.0,1
1120,1120,0.4446406223533782,0.4,1.0,1.0,393.0,550.0,1.0,1,187.0,1
1121,1121,0.7090934884060277,0.7,0.0,0.0,290.0,738.0,0.0,1,122.0,1
1122,1122,0.32927015712343877,0.3,0.0,0.0,256.0,757.0,0.0,1,167.0,1
1123,1123,-0.4389644689229351,-0.4,1.0,0.0,273.0,943.0,0.0,0,164.0,1
1124,1124,0.09745565117843913,0.1,0.0,0.0,396.0,942.0,1.0,0,1662.0,0
1125,1125,0.684674388155233,0.7,1.0,1.0,301.0,621.0,0.0,0,-142.0,0
1126,1126,0.363085365498406,0.4,0.0,0.0,454.0,514.0,0.0,1,412.0,1
1127,1127,-0.5756920432963442,-0.6,0.0,1.0,497.0,620.0,1.0,0,213.0,1
1128,1128,0.7348831627000413,0.7,1.0,1.0,316.0,910.0,1.0,1,284.0,1
1129,1129,-0.3053529236149851,-0.3,0.0,1.0,317.0,567.0,1.0,0,446.0,1
1130,1130,-0.18612911926335574,-0.2,0.0,1.0,367.0,815.0,1.0,0,8.0,1
1131,1131,-0.7530345571778405,-0.8,0.0,1.0,307.0,793.0,1.0,0,150.0,1
1132,1132,0.15480731550341142,0.2,1.0,1.0,402.0,580.0,1.0,1,708.0,1
1133,1133,-0.5220304458452252,-0.5,1.0,0.0,449.0,672.0,0.0,0,269.0,1
1134,1134,-0.5768905177536707,-0.6,0.0,1.0,261.0,548.0,1.0,0,241.0,1
1135,1135,-0.4681512316252648,-0.5,0.0,1.0,267.0,694.0,1.0,0,199.0,1
1136,1136,-0.3723886018649888,-0.4,0.0,1.0,403.0,513.0,1.0,0,324.0,1
1137,1137,-0.3998121043108104,-0.4,1.0,0.0,369.0,875.0,0.0,0,216.0,1
1138,1138,0.8219603456359333,0.8,1.0,1.0,374.0,788.0,1.0,1,188.0,1
1139,1139,0.2818836993724546,0.3,1.0,1.0,489.0,642.0,1.0,1,249.0,1
1140,1140,-0.07019930807811048,-0.1,1.0,0.0,256.0,532.0,0.0,0,572.0,1
1141,1141,-0.4410023086953795,-0.4,1.0,0.0,412.0,598.0,0.0,0,170.0,1
1142,1142,-0.024748744384154975,-0.0,0.0,1.0,475.0,821.0,1.0,0,144.0,1
1143,1143,0.21890924653534805,0.2,0.0,0.0,462.0,820.0,0.0,1,-302.0,1
1144,1144,0.34083903532184123,0.3,1.0,1.0,482.0,986.0,1.0,1,232.0,1
1145,1145,0.23673235361562195,0.2,1.0,1.0,360.0,524.0,1.0,1,366.0,1
1146,1146,-0.8530112841604361,-0.9,1.0,0.0,286.0,727.0,0.0,0,167.0,1
1147,1147,-0.8395054024255888,-0.8,1.0,0.0,385.0,905.0,0.0,0,130.0,1
1148,1148,-0.6468616233311273,-0.6,0.0,1.0,260.0,917.0,1.0,0,273.0,1
1149,1149,-0.23539877006045073,-0.2,1.0,0.0,344.0,661.0,0.0,0,485.0,1
1150,1150,0.8621783370125674,0.9,1.0,1.0,456.0,608.0,1.0,1,146.0,1
1151,1151,-0.37770154535049916,-0.4,0.0,1.0,458.0,724.0,1.0,0,1168.0,1
1152,1152,-0.8405535842746925,-0.8,0.0,1.0,486.0,810.0,0.0,1,-96.0,0
1153,1153,0.8772802025077316,0.9,0.0,0.0,361.0,872.0,0.0,1,217.0,1
1154,1154,-0.11347319776819376,-0.1,1.0,0.0,408.0,964.0,0.0,0,-302.0,1
1155,1155,0.3643535200017326,0.4,0.0,0.0,449.0,991.0,1.0,0,10.0,0
1156,1156,0.5400223539647194,0.5,0.0,0.0,374.0,833.0,0.0,1,133.0,1
1157,1157,0.7627847667585507,0.8,1.0,1.0,274.0,803.0,1.0,1,113.0,1
1158,1158,0.5218673227905205,0.5,0.0,0.0,309.0,706.0,0.0,1,75.0,1
1159,1159,-0.023013128924592285,-0.0,1.0,0.0,302.0,615.0,1.0,1,2083.0,0
1160,1160,-0.2284997056574788,-0.2,0.0,1.0,401.0,897.0,1.0,0,232.0,1
1161,1161,-0.12108385900262375,-0.1,1.0,0.0,349.0,716.0,0.0,0,575.0,1
1162,1162,0.07254382345472221,0.1,0.0,0.0,395.0,627.0,0.0,1,1068.0,1
1163,1163,0.3540645898532363,0.4,1.0,1.0,487.0,620.0,1.0,1,143.0,1
1164,1164,0.1705934176506364,0.2,0.0,0.0,356.0,560.0,0.0,1,814.0,1
1165,1165,0.0558425391041536,0.1,0.0,0.0,413.0,733.0,0.0,1,-116.0,1
1166,1166,0.2032486322420891,0.2,0.0,0.0,438.0,949.0,0.0,1,233.0,1
1167,1167,0.7646101309328533,0.8,1.0,1.0,318.0,553.0,1.0,1,269.0,1
1168,1168,-0.4867963915320181,-0.5,0.0,1.0,442.0,577.0,1.0,0,121.0,1
1169,1169,0.08657553702050114,0.1,1.0,1.0,313.0,686.0,1.0,1,771.0,1
1170,1170,-0.7081150798883944,-0.7,1.0,0.0,360.0,967.0,0.0,0,153.0,1
1171,1171,-0.04885644546013446,-0.0,1.0,0.0,305.0,768.0,0.0,0,457.0,1
1172,1172,-0.3884205809207434,-0.4,1.0,0.0,321.0,697.0,0.0,0,582.0,1
1173,1173,0.40905940387312933,0.4,0.0,0.0,471.0,892.0,0.0,1,27.0,1
1174,1174,0.00013825605860817713,0.0,1.0,1.0,320.0,893.0,1.0,1,1517.0,1
1175,1175,-0.3850009564749495,-0.4,1.0,0.0,361.0,698.0,0.0,0,171.0,1
1176,1176,-0.3708837915540302,-0.4,1.0,0.0,416.0,566.0,0.0,0,178.0,1
1177,1177,0.4654192769520321,0.5,0.0,0.0,390.0,701.0,0.0,1,129.0,1
1178,1178,-0.04511715904893099,-0.0,1.0,0.0,334.0,569.0,0.0,0,1447.0,1
1179,1179,-0.6334124551510281,-0.6,1.0,0.0,289.0,554.0,0.0,0,87.0,1
1180,1180,0.7942766601840189,0.8,0.0,0.0,493.0,968.0,0.0,1,129.0,1
1181,1181,0.10827753137828833,0.1,1.0,1.0,348.0,940.0,1.0,1,362.0,1
1182,1182,-0.5506978023907216,-0.6,0.0,1.0,337.0,916.0,1.0,0,197.0,1
1183,1183,-0.7473400511896718,-0.7,1.0,0.0,273.0,973.0,1.0,1,-126.0,0
1184,1184,-0.5672207130257706,-0.6,1.0,0.0,480.0,749.0,0.0,0,231.0,1
1185,1185,0.5052511694028049,0.5,0.0,0.0,367.0,835.0,0.0,1,128.0,1
1186,1186,0.6771513815631794,0.7,0.0,0.0,447.0,663.0,0.0,1,190.0,1
1187,1187,0.6418855426943683,0.6,0.0,0.0,452.0,562.0,0.0,1,316.0,1
1188,1188,-0.32232294059133615,-0.3,0.0,1.0,366.0,984.0,0.0,1,-310.0,0
1189,1189,-0.6900673054782859,-0.7,1.0,0.0,485.0,875.0,0.0,0,190.0,1
1190,1190,0.0015931029198746893,0.0,1.0,1.0,369.0,895.0,0.0,0,126.0,0
1191,1191,0.4425192554894849,0.4,1.0,1.0,285.0,623.0,1.0,1,272.0,1
1192,1192,0.1405793621394208,0.1,1.0,1.0,324.0,512.0,1.0,1,184.0,1
1193,1193,-0.46779630997839344,-0.5,0.0,1.0,413.0,513.0,1.0,0,164.0,1
1194,1194,-0.19918213719314037,-0.2,1.0,0.0,369.0,787.0,0.0,0,834.0,1
1195,1195,-0.31692122508090803,-0.3,1.0,0.0,469.0,698.0,0.0,0,203.0,1
1196,1196,0.2827300497392561,0.3,0.0,0.0,496.0,685.0,0.0,1,559.0,1
1197,1197,0.486169651242795,0.5,1.0,1.0,323.0,897.0,1.0,1,220.0,1
1198,1198,0.5654180943569244,0.6,1.0,1.0,469.0,781.0,1.0,1,240.0,1
1199,1199,0.6183655276989709,0.6,1.0,1.0,489.0,874.0,1.0,1,177.0,1
1200,1200,0.6578140483009655,0.7,1.0,1.0,326.0,795.0,1.0,1,219.0,1
1201,1201,-0.11446722220465022,-0.1,0.0,1.0,427.0,726.0,1.0,0,657.0,1
1202,1202,-0.29498991010487197,-0.3,0.0,1.0,428.0,875.0,1.0,0,207.0,1
1203,1203,0.10895586503802968,0.1,1.0,1.0,284.0,977.0,0.0,0,-441.0,0
1204,1204,-0.060487057241637054,-0.1,0.0,1.0,362.0,694.0,1.0,0,1194.0,1
1205,1205,-0.6837132943768678,-0.7,0.0,1.0,325.0,580.0,1.0,0,295.0,1
1206,1206,0.12048016671039441,0.1,1.0,1.0,435.0,969.0,1.0,1,76.0,1
1207,1207,-0.7773197057766665,-0.8,1.0,0.0,399.0,803.0,0.0,0,-132.0,1
1208,1208,-0.8027477008836739,-0.8,1.0,0.0,266.0,725.0,1.0,1,-1.0,0
1209,1209,0.5695912914641844,0.6,0.0,0.0,327.0,566.0,0.0,1,257.0,1
1210,1210,-0.6526360119114731,-0.7,1.0,0.0,428.0,587.0,0.0,0,315.0,1
1211,1211,0.14594384874474986,0.1,1.0,1.0,320.0,877.0,1.0,1,1023.0,1
1212,1212,-0.8832019700180721,-0.9,1.0,0.0,365.0,737.0,0.0,0,148.0,1
1213,1213,0.7324444259475001,0.7,0.0,0.0,388.0,634.0,0.0,1,228.0,1
1214,1214,0.7855538016877651,0.8,0.0,0.0,377.0,911.0,1.0,0,2.0,0
1215,1215,0.3022740910954985,0.3,1.0,1.0,289.0,740.0,1.0,1,1201.0,1
1216,1216,-0.4093580255293528,-0.4,0.0,1.0,252.0,547.0,1.0,0,161.0,1
1217,1217,0.6281361377163496,0.6,1.0,1.0,297.0,580.0,1.0,1,93.0,1
1218,1218,-0.2692411803950602,-0.3,0.0,1.0,364.0,894.0,1.0,0,842.0,1
1219,1219,0.7356757310997036,0.7,1.0,1.0,499.0,663.0,1.0,1,148.0,1
1220,1220,0.8351257160080504,0.8,1.0,1.0,355.0,643.0,1.0,1,192.0,1
1221,1221,-0.5141145915664288,-0.5,0.0,1.0,446.0,658.0,1.0,0,136.0,1
1222,1222,-0.24462105497387654,-0.2,0.0,1.0,484.0,565.0,1.0,0,791.0,1
1223,1223,-0.21113939214408295,-0.2,0.0,1.0,363.0,650.0,1.0,0,387.0,1
1224,1224,-0.7836925496906288,-0.8,0.0,1.0,392.0,993.0,1.0,0,145.0,1
1225,1225,-0.07675224434428662,-0.1,1.0,0.0,381.0,637.0,0.0,0,1092.0,1
1226,1226,0.6225566850081695,0.6,1.0,1.0,442.0,606.0,1.0,1,92.0,1
1227,1227,-0.48269992211611384,-0.5,0.0,1.0,469.0,660.0,1.0,0,251.0,1
1228,1228,-0.7661231800783052,-0.8,1.0,0.0,337.0,588.0,0.0,0,175.0,1
1229,1229,0.025628946302704625,0.0,0.0,0.0,412.0,742.0,1.0,0,546.0,0
1230,1230,-0.296555639647908,-0.3,1.0,0.0,276.0,862.0,0.0,0,252.0,1
1231,1231,-0.25851086535722223,-0.3,0.0,1.0,417.0,965.0,1.0,0,388.0,1
1232,1232,0.3223618557333082,0.3,1.0,1.0,456.0,554.0,1.0,1,270.0,1
1233,1233,0.4760287853433359,0.5,0.0,0.0,266.0,838.0,0.0,1,296.0,1
1234,1234,0.7702889233696674,0.8,0.0,0.0,415.0,523.0,0.0,1,152.0,1
1235,1235,-0.027379173544852642,-0.0,1.0,0.0,404.0,870.0,1.0,1,246.0,0
1236,1236,0.675605403608395,0.7,0.0,0.0,303.0,872.0,0.0,1,155.0,1
1237,1237,-0.8013709675567289,-0.8,0.0,1.0,269.0,901.0,1.0,0,240.0,1
1238,1238,0.33075840543032087,0.3,0.0,0.0,449.0,565.0,0.0,1,446.0,1
1239,1239,0.8149859984404754,0.8,0.0,0.0,325.0,506.0,0.0,1,199.0,1
1240,1240,-0.37632955242927146,-0.4,0.0,1.0,336.0,737.0,1.0,0,277.0,1
1241,1241,-0.41798565513574415,-0.4,1.0,0.0,396.0,914.0,0.0,0,110.0,1
1242,1242,-0.03437030689323872,-0.0,1.0,0.0,380.0,740.0,0.0,0,300.0,1
1243,1243,-0.0512637327837866,-0.1,0.0,1.0,251.0,645.0,1.0,0,494.0,1
1244,1244,-0.40241214662962643,-0.4,0.0,1.0,475.0,973.0,1.0,0,132.0,1
1245,1245,0.600775418164936,0.6,1.0,1.0,316.0,675.0,1.0,1,359.0,1
1246,1246,-0.37921168061398924,-0.4,0.0,1.0,366.0,692.0,1.0,0,252.0,1
1247,1247,0.2081997112886237,0.2,1.0,1.0,288.0,833.0,1.0,1,139.0,1
1248,1248,0.6470875002534723,0.6,0.0,0.0,322.0,590.0,0.0,1,188.0,1
1249,1249,-0.4861386095449235,-0.5,1.0,0.0,427.0,885.0,0.0,0,168.0,1
1250,1250,0.45617111349834183,0.5,1.0,1.0,287.0,614.0,1.0,1,279.0,1
1251,1251,-0.7444352649880678,-0.7,1.0,0.0,460.0,738.0,0.0,0,172.0,1
1252,1252,0.819974539325809,0.8,1.0,1.0,489.0,951.0,1.0,1,100.0,1
1253,1253,0.862868259749923,0.9,0.0,0.0,315.0,782.0,0.0,1,193.0,1
1254,1254,0.1732345050752938,0.2,0.0,0.0,300.0,609.0,0.0,1,751.0,1
1255,1255,-0.6869186440972109,-0.7,0.0,1.0,420.0,948.0,1.0,0,112.0,1
1256,1256,0.6548723763271888,0.7,0.0,0.0,383.0,635.0,0.0,1,272.0,1
1257,1257,-0.6362136552292212,-0.6,1.0,0.0,443.0,988.0,0.0,0,269.0,1
1258,1258,-0.8025050150415136,-0.8,0.0,1.0,274.0,880.0,1.0,0,96.0,1
1259,1259,-0.10013403470032778,-0.1,1.0,0.0,469.0,906.0,0.0,0,1625.0,1
1260,1260,-0.4084059325077461,-0.4,1.0,0.0,387.0,735.0,0.0,0,428.0,1
1261,1261,-0.322468971357907,-0.3,0.0,1.0,448.0,782.0,1.0,0,200.0,1
1262,1262,-0.5849311221250142,-0.6,1.0,0.0,402.0,773.0,0.0,0,105.0,1
1263,1263,-0.8587464194994051,-0.9,0.0,1.0,339.0,553.0,1.0,0,188.0,1
1264,1264,0.05757004722698578,0.1,0.0,0.0,393.0,871.0,1.0,0,376.0,0
1265,1265,-0.07348908500830242,-0.1,1.0,0.0,428.0,822.0,0.0,0,1750.0,1
1266,1266,0.8359571738415766,0.8,0.0,0.0,395.0,609.0,0.0,1,246.0,1
1267,1267,0.1874925918114888,0.2,0.0,0.0,314.0,823.0,0.0,1,-87.0,1
1268,1268,-0.4228975440516153,-0.4,0.0,1.0,462.0,600.0,1.0,0,158.0,1
1269,1269,-0.38518251457932096,-0.4,0.0,1.0,287.0,674.0,1.0,0,169.0,1
1270,1270,0.6532168344929113,0.7,0.0,0.0,287.0,701.0,0.0,1,312.0,1
1271,1271,-0.16095903597185646,-0.2,0.0,1.0,303.0,696.0,1.0,0,541.0,1
1272,1272,0.1321363483778638,0.1,0.0,0.0,490.0,816.0,0.0,1,1284.0,1
1273,1273,-0.08951534678444306,-0.1,0.0,1.0,355.0,538.0,1.0,0,527.0,1
1274,1274,-0.893030144849486,-0.9,1.0,0.0,433.0,624.0,0.0,0,123.0,1
1275,1275,-0.7234696471284932,-0.7,1.0,0.0,359.0,569.0,0.0,0,112.0,1
1276,1276,-0.5184293013166155,-0.5,0.0,1.0,283.0,584.0,1.0,0,363.0,1
1277,1277,-0.5822977918505428,-0.6,0.0,1.0,267.0,923.0,1.0,0,220.0,1
1278,1278,0.5605860607812453,0.6,0.0,0.0,494.0,823.0,0.0,1,323.0,1
1279,1279,-0.8594123490362838,-0.9,0.0,1.0,348.0,569.0,1.0,0,393.0,1
1280,1280,-0.4714444525217443,-0.5,0.0,1.0,456.0,819.0,1.0,0,545.0,1
1281,1281,-0.8969283292147625,-0.9,1.0,0.0,271.0,501.0,0.0,0,158.0,1
1282,1282,0.4593453758284157,0.5,0.0,0.0,351.0,807.0,0.0,1,122.0,1
1283,1283,0.7892192529460539,0.8,0.0,0.0,366.0,698.0,0.0,1,286.0,1
1284,1284,0.347781231997324,0.3,1.0,1.0,351.0,700.0,1.0,1,219.0,1
1285,1285,-0.17838557029811453,-0.2,1.0,0.0,416.0,665.0,0.0,0,159.0,1
1286,1286,0.836182398932665,0.8,0.0,0.0,471.0,976.0,0.0,1,113.0,1
1287,1287,-0.3016155831068239,-0.3,1.0,0.0,256.0,793.0,0.0,0,291.0,1
1288,1288,-0.74966630109913,-0.7,0.0,1.0,430.0,817.0,1.0,0,143.0,1
1289,1289,0.8974736961326618,0.9,0.0,0.0,299.0,530.0,0.0,1,71.0,1
1290,1290,-0.3525334266753156,-0.4,0.0,1.0,322.0,674.0,0.0,1,-156.0,0
1291,1291,0.39417380118752166,0.4,1.0,1.0,486.0,851.0,1.0,1,293.0,1
1292,1292,0.06975934252627913,0.1,0.0,0.0,395.0,783.0,1.0,0,1822.0,0
1293,1293,0.20499850859285018,0.2,1.0,1.0,292.0,669.0,1.0,1,969.0,1
1294,1294,-0.11722631471120026,-0.1,1.0,0.0,471.0,882.0,0.0,0,217.0,1
1295,1295,-0.19375593014295722,-0.2,1.0,0.0,458.0,505.0,0.0,0,287.0,1
1296,1296,-0.13185605547638024,-0.1,0.0,1.0,305.0,960.0,1.0,0,165.0,1
1297,1297,-0.14792916335575956,-0.1,0.0,1.0,341.0,979.0,1.0,0,1210.0,1
1298,1298,-0.47034915714725944,-0.5,0.0,1.0,273.0,714.0,1.0,0,43.0,1
1299,1299,0.43864599501656343,0.4,1.0,1.0,334.0,579.0,1.0,1,227.0,1
1300,1300,-0.5026181977455981,-0.5,1.0,0.0,430.0,963.0,0.0,0,307.0,1
1301,1301,0.8617146127064347,0.9,0.0,0.0,372.0,621.0,0.0,1,97.0,1
1302,1302,0.5493992629679002,0.5,0.0,0.0,499.0,531.0,0.0,1,210.0,1
1303,1303,0.019413595320201038,0.0,0.0,0.0,484.0,874.0,1.0,0,1512.0,0
1304,1304,-0.20815081485802756,-0.2,0.0,1.0,336.0,676.0,1.0,0,398.0,1
1305,1305,-0.6613779104738702,-0.7,1.0,0.0,471.0,798.0,0.0,0,81.0,1
1306,1306,0.46734883352581524,0.5,0.0,0.0,351.0,676.0,0.0,1,193.0,1
1307,1307,-0.2001874054395515,-0.2,1.0,0.0,363.0,713.0,0.0,0,534.0,1
1308,1308,0.32016519958427747,0.3,0.0,0.0,403.0,634.0,0.0,1,173.0,1
1309,1309,-0.49766770673798405,-0.5,0.0,1.0,257.0,990.0,1.0,0,63.0,1
1310,1310,0.7039601773695335,0.7,0.0,0.0,446.0,734.0,0.0,1,250.0,1
1311,1311,-0.09614967967186516,-0.1,1.0,0.0,404.0,508.0,0.0,0,988.0,1
1312,1312,-0.11488265249493135,-0.1,1.0,0.0,446.0,622.0,0.0,0,422.0,1
1313,1313,0.7164950765285084,0.7,0.0,0.0,330.0,511.0,0.0,1,269.0,1
1314,1314,0.859951848190018,0.9,0.0,0.0,422.0,877.0,0.0,1,121.0,1
1315,1315,0.7945557124509354,0.8,0.0,0.0,452.0,556.0,0.0,1,82.0,1
1316,1316,-0.3563567198999571,-0.4,1.0,0.0,312.0,556.0,0.0,0,422.0,1
1317,1317,0.15428326779713253,0.2,1.0,1.0,403.0,827.0,1.0,1,430.0,1
1318,1318,-0.6714345003030494,-0.7,1.0,0.0,384.0,774.0,0.0,0,192.0,1
1319,1319,0.33481973428722533,0.3,0.0,0.0,420.0,809.0,0.0,1,291.0,1
1320,1320,0.6155628750876391,0.6,0.0,0.0,445.0,969.0,0.0,1,96.0,1
1321,1321,-0.1114028173414563,-0.1,1.0,0.0,496.0,748.0,0.0,0,186.0,1
1322,1322,0.2543368918032082,0.3,0.0,0.0,327.0,951.0,0.0,1,92.0,1
1323,1323,-0.6831231768001118,-0.7,0.0,1.0,487.0,997.0,1.0,0,336.0,1
1324,1324,0.8439025805641817,0.8,0.0,0.0,409.0,802.0,0.0,1,149.0,1
1325,1325,-0.0307851319845327,-0.0,1.0,0.0,307.0,664.0,1.0,1,709.0,0
1326,1326,0.36433180644874474,0.4,0.0,0.0,305.0,592.0,0.0,1,303.0,1
1327,1327,-0.4747129102368761,-0.5,0.0,1.0,270.0,808.0,1.0,0,172.0,1
1328,1328,0.6253882116726778,0.6,0.0,0.0,408.0,827.0,0.0,1,25.0,1
1329,1329,0.5778505255355674,0.6,1.0,1.0,447.0,923.0,1.0,1,300.0,1
1330,1330,-0.8461640227601742,-0.8,0.0,1.0,254.0,730.0,1.0,0,216.0,1
1331,1331,-0.1865256925152745,-0.2,0.0,1.0,381.0,818.0,1.0,0,141.0,1
1332,1332,0.7540236727570725,0.8,0.0,0.0,285.0,779.0,0.0,1,116.0,1
1333,1333,-0.22708507388384047,-0.2,0.0,1.0,463.0,758.0,1.0,0,139.0,1
1334,1334,-0.7275101266288015,-0.7,1.0,0.0,270.0,861.0,0.0,0,139.0,1
1335,1335,-0.1407353580468509,-0.1,0.0,1.0,425.0,979.0,1.0,0,206.0,1
1336,1336,-0.5304528487308926,-0.5,1.0,0.0,451.0,589.0,0.0,0,160.0,1
1337,1337,-0.8955063643140321,-0.9,0.0,1.0,340.0,596.0,1.0,0,274.0,1
1338,1338,0.6296375370548176,0.6,0.0,0.0,364.0,882.0,0.0,1,244.0,1
1339,1339,0.3818933254983913,0.4,1.0,1.0,444.0,665.0,1.0,1,291.0,1
1340,1340,-0.2539974654057616,-0.3,0.0,1.0,448.0,699.0,1.0,0,203.0,1
1341,1341,-0.2611919297667793,-0.3,0.0,1.0,469.0,686.0,1.0,0,645.0,1
1342,1342,-0.6472487599288432,-0.6,1.0,0.0,301.0,631.0,0.0,0,338.0,1
1343,1343,-0.4977944995649576,-0.5,0.0,1.0,463.0,507.0,1.0,0,770.0,1
1344,1344,0.6943174150939614,0.7,1.0,1.0,310.0,991.0,1.0,1,289.0,1
1345,1345,0.17767802489471884,0.2,0.0,0.0,470.0,798.0,0.0,1,612.0,1
1346,1346,0.10216713500237551,0.1,1.0,1.0,357.0,671.0,1.0,1,282.0,1
1347,1347,-0.4145432076725299,-0.4,1.0,0.0,439.0,678.0,0.0,0,263.0,1
1348,1348,0.8081929245823732,0.8,0.0,0.0,369.0,764.0,0.0,1,167.0,1
1349,1349,-0.43990634726639566,-0.4,0.0,1.0,389.0,915.0,1.0,0,136.0,1
1350,1350,0.4124000173281711,0.4,1.0,1.0,361.0,920.0,1.0,1,129.0,1
1351,1351,0.5720196911192245,0.6,1.0,1.0,462.0,600.0,1.0,1,378.0,1
1352,1352,-0.7383569303075506,-0.7,0.0,1.0,463.0,951.0,1.0,0,136.0,1
1353,1353,-0.7222269235751578,-0.7,0.0,1.0,351.0,572.0,1.0,0,97.0,1
1354,1354,0.6790970909657511,0.7,1.0,1.0,495.0,987.0,1.0,1,68.0,1
1355,1355,0.23211014833858823,0.2,0.0,0.0,284.0,766.0,0.0,1,300.0,1
1356,1356,0.397374679244792,0.4,1.0,1.0,392.0,628.0,1.0,1,170.0,1
1357,1357,0.36149968014256195,0.4,0.0,0.0,267.0,903.0,0.0,1,260.0,1
1358,1358,-0.19000596020682237,-0.2,1.0,0.0,303.0,753.0,0.0,0,14.0,1
1359,1359,0.4192162758339971,0.4,0.0,0.0,445.0,516.0,0.0,1,469.0,1
1360,1360,-0.2825421440561725,-0.3,1.0,0.0,352.0,935.0,0.0,0,683.0,1
1361,1361,-0.15022126869606056,-0.2,1.0,0.0,447.0,566.0,0.0,0,577.0,1
1362,1362,-0.047692060142266235,-0.0,1.0,0.0,416.0,949.0,1.0,1,-45.0,0
1363,1363,0.30276015489013897,0.3,1.0,1.0,409.0,839.0,1.0,1,392.0,1
1364,1364,0.597086281553758,0.6,1.0,1.0,300.0,726.0,1.0,1,154.0,1
1365,1365,-0.010927536061537957,-0.0,1.0,0.0,480.0,720.0,0.0,0,100.0,1
1366,1366,0.8383355081037304,0.8,0.0,0.0,470.0,502.0,0.0,1,148.0,1
1367,1367,0.14670920886759797,0.1,1.0,1.0,391.0,738.0,1.0,1,391.0,1
1368,1368,0.5533286125393629,0.6,0.0,0.0,485.0,859.0,0.0,1,216.0,1
1369,1369,0.061246390763724734,0.1,0.0,0.0,299.0,784.0,0.0,1,1707.0,1
1370,1370,0.8880450593218722,0.9,0.0,0.0,292.0,920.0,0.0,1,198.0,1
1371,1371,-0.7145085376304984,-0.7,0.0,1.0,410.0,690.0,1.0,0,90.0,1
1372,1372,-0.8917680645586546,-0.9,0.0,1.0,408.0,778.0,1.0,0,144.0,1
1373,1373,-0.2611302783355809,-0.3,0.0,1.0,310.0,965.0,1.0,0,245.0,1
1374,1374,0.2788305970011239,0.3,1.0,1.0,445.0,854.0,1.0,1,181.0,1
1375,1375,-0.868978811134537,-0.9,0.0,1.0,393.0,505.0,1.0,0,992.0,1
1376,1376,-0.3483799336979021,-0.3,1.0,0.0,287.0,992.0,0.0,0,311.0,1
1377,1377,0.8069117346794347,0.8,0.0,0.0,324.0,639.0,0.0,1,77.0,1
1378,1378,0.7076240437041291,0.7,1.0,1.0,336.0,529.0,1.0,1,75.0,1
1379,1379,0.17162366375202753,0.2,0.0,0.0,362.0,511.0,0.0,1,837.0,1
1380,1380,-0.6078155637280483,-0.6,0.0,1.0,320.0,560.0,1.0,0,130.0,1
1381,1381,0.6741283584917531,0.7,0.0,0.0,447.0,772.0,0.0,1,121.0,1
1382,1382,0.1833540672783761,0.2,1.0,1.0,312.0,851.0,1.0,1,237.0,1
1383,1383,0.05431598980560337,0.1,0.0,0.0,497.0,586.0,0.0,1,867.0,1
1384,1384,0.7217120569601373,0.7,1.0,1.0,408.0,937.0,1.0,1,45.0,1
1385,1385,-0.2367813207487398,-0.2,1.0,0.0,362.0,868.0,0.0,0,270.0,1
1386,1386,0.13760022637322,0.1,1.0,1.0,436.0,853.0,1.0,1,781.0,1
1387,1387,-0.22930306597088657,-0.2,0.0,1.0,487.0,866.0,1.0,0,147.0,1
1388,1388,-0.48911234794631303,-0.5,0.0,1.0,439.0,928.0,1.0,0,793.0,1
1389,1389,0.6307733111462054,0.6,1.0,1.0,450.0,710.0,1.0,1,280.0,1
1390,1390,-0.17736540761518627,-0.2,1.0,0.0,466.0,948.0,0.0,0,1366.0,1
1391,1391,-0.19955217576756623,-0.2,0.0,1.0,445.0,671.0,0.0,1,14.0,0
1392,1392,0.2945670928952496,0.3,0.0,0.0,436.0,656.0,0.0,1,288.0,1
1393,1393,0.23529346720029565,0.2,1.0,1.0,433.0,501.0,1.0,1,496.0,1
1394,1394,0.45326406672720754,0.5,0.0,0.0,418.0,636.0,0.0,1,116.0,1
1395,1395,0.21016822548135228,0.2,0.0,0.0,295.0,643.0,0.0,1,452.0,1
1396,1396,-0.5495884918479481,-0.5,1.0,0.0,296.0,535.0,0.0,0,149.0,1
1397,1397,-0.7005882699079827,-0.7,0.0,1.0,384.0,760.0,1.0,0,246.0,1
1398,1398,-0.8300748237779009,-0.8,1.0,0.0,497.0,912.0,0.0,0,171.0,1
1399,1399,0.26275956846812176,0.3,0.0,0.0,251.0,959.0,0.0,1,490.0,1
1400,1400,0.8149381454010599,0.8,0.0,0.0,374.0,805.0,0.0,1,-49.0,1
1401,1401,-0.6205084049912926,-0.6,1.0,0.0,381.0,593.0,0.0,0,266.0,1
1402,1402,0.681508272698273,0.7,0.0,0.0,271.0,851.0,0.0,1,138.0,1
1403,1403,-0.0003452571298021567,-0.0,0.0,1.0,406.0,732.0,0.0,1,-248.0,0
1404,1404,0.8743134821220794,0.9,1.0,1.0,330.0,724.0,1.0,1,466.0,1
1405,1405,-0.5597100514516125,-0.6,1.0,0.0,297.0,574.0,0.0,0,259.0,1
1406,1406,-0.6133899263507347,-0.6,0.0,1.0,427.0,908.0,1.0,0,215.0,1
1407,1407,-0.376744690741176,-0.4,0.0,1.0,431.0,861.0,0.0,1,-162.0,0
1408,1408,0.24713853716535017,0.2,0.0,0.0,358.0,738.0,0.0,1,384.0,1
1409,1409,0.4414261048884368,0.4,1.0,1.0,283.0,823.0,1.0,1,294.0,1
1410,1410,-0.04831303561547018,-0.0,1.0,0.0,435.0,561.0,0.0,0,844.0,1
1411,1411,0.21928685984450424,0.2,0.0,0.0,273.0,816.0,0.0,1,621.0,1
1412,1412,-0.5312520450192497,-0.5,1.0,0.0,395.0,680.0,0.0,0,85.0,1
1413,1413,-0.6660283190929119,-0.7,0.0,1.0,267.0,551.0,1.0,0,132.0,1
1414,1414,-0.42323181375807883,-0.4,1.0,0.0,408.0,742.0,0.0,0,170.0,1
1415,1415,-0.8360786109755944,-0.8,1.0,0.0,497.0,851.0,0.0,0,162.0,1
1416,1416,0.41937104356344956,0.4,1.0,1.0,464.0,988.0,0.0,0,-492.0,0
1417,1417,-0.4080029095278259,-0.4,0.0,1.0,378.0,989.0,1.0,0,413.0,1
1418,1418,-0.11575561893260089,-0.1,1.0,0.0,480.0,991.0,0.0,0,299.0,1
1419,1419,-0.5515975307070888,-0.6,0.0,1.0,351.0,937.0,0.0,1,-108.0,0
1420,1420,0.09138342709085123,0.1,1.0,1.0,388.0,992.0,1.0,1,880.0,1
1421,1421,0.774290786984189,0.8,1.0,1.0,429.0,874.0,1.0,1,207.0,1
1422,1422,-0.7603703530695785,-0.8,1.0,0.0,379.0,823.0,1.0,1,-12.0,0
1423,1423,-0.8101420274662176,-0.8,0.0,1.0,428.0,878.0,1.0,0,124.0,1
1424,1424,-0.03152043193167031,-0.0,1.0,0.0,279.0,815.0,0.0,0,256.0,1
1425,1425,0.2382232446067668,0.2,1.0,1.0,267.0,819.0,1.0,1,214.0,1
1426,1426,-0.8870074462520863,-0.9,0.0,1.0,432.0,718.0,1.0,0,220.0,1
1427,1427,-0.4759094817659688,-0.5,0.0,1.0,273.0,800.0,1.0,0,997.0,1
1428,1428,-0.6186034829808325,-0.6,0.0,1.0,262.0,602.0,1.0,0,176.0,1
1429,1429,-0.7204025832600278,-0.7,1.0,0.0,314.0,750.0,0.0,0,156.0,1
1430,1430,0.49990418117493174,0.5,0.0,0.0,321.0,857.0,0.0,1,172.0,1
1431,1431,-0.528685352523981,-0.5,0.0,1.0,389.0,589.0,1.0,0,142.0,1
1432,1432,-0.303487676965017,-0.3,1.0,0.0,396.0,592.0,0.0,0,142.0,1
1433,1433,-0.17593401481141901,-0.2,1.0,0.0,319.0,557.0,0.0,0,184.0,1
1434,1434,0.5792942656989292,0.6,1.0,1.0,442.0,623.0,1.0,1,285.0,1
1435,1435,-0.7503077954956358,-0.8,1.0,0.0,400.0,696.0,0.0,0,174.0,1
1436,1436,-0.0651311078154444,-0.1,1.0,0.0,318.0,992.0,0.0,0,710.0,1
1437,1437,0.45389094739867886,0.5,1.0,1.0,426.0,718.0,1.0,1,186.0,1
1438,1438,0.4361357624325327,0.4,1.0,1.0,449.0,773.0,0.0,0,-52.0,0
1439,1439,0.7320183761782436,0.7,0.0,0.0,381.0,847.0,0.0,1,-18.0,1
1440,1440,-0.2914337576154773,-0.3,0.0,1.0,449.0,853.0,1.0,0,388.0,1
1441,1441,0.23049731936319995,0.2,0.0,0.0,449.0,777.0,0.0,1,304.0,1
1442,1442,-0.28098382101746566,-0.3,0.0,1.0,343.0,654.0,1.0,0,563.0,1
1443,1443,0.23443887242126504,0.2,0.0,0.0,328.0,929.0,0.0,1,613.0,1
1444,1444,-0.6390748471296623,-0.6,1.0,0.0,343.0,552.0,0.0,0,85.0,1
1445,1445,0.22422568877279125,0.2,1.0,1.0,314.0,961.0,1.0,1,165.0,1
1446,1446,0.46108919197411413,0.5,1.0,1.0,492.0,936.0,1.0,1,232.0,1
1447,1447,0.48996677496202234,0.5,1.0,1.0,482.0,565.0,1.0,1,133.0,1
1448,1448,-0.43205249462135303,-0.4,1.0,0.0,492.0,837.0,0.0,0,251.0,1
1449,1449,-0.6300322993025721,-0.6,1.0,0.0,274.0,874.0,0.0,0,192.0,1
1450,1450,-0.8413252988599669,-0.8,1.0,0.0,460.0,612.0,0.0,0,58.0,1
1451,1451,0.5519897251990481,0.6,1.0,1.0,321.0,984.0,1.0,1,85.0,1
1452,1452,0.3458946702106237,0.3,0.0,0.0,429.0,765.0,0.0,1,-254.0,1
1453,1453,0.04792695932853319,0.0,1.0,1.0,449.0,646.0,1.0,1,1625.0,1
1454,1454,-0.0515208081902333,-0.1,0.0,1.0,290.0,625.0,1.0,0,2085.0,1
1455,1455,0.3355824303991811,0.3,0.0,0.0,279.0,635.0,0.0,1,326.0,1
1456,1456,-0.33582614690707513,-0.3,0.0,1.0,293.0,560.0,1.0,0,187.0,1
1457,1457,0.05820104371522605,0.1,0.0,0.0,373.0,811.0,0.0,1,206.0,1
1458,1458,0.7070029923444162,0.7,1.0,1.0,328.0,797.0,1.0,1,365.0,1
1459,1459,-0.8807685444026501,-0.9,1.0,0.0,440.0,576.0,0.0,0,124.0,1
1460,1460,0.5975289106066136,0.6,1.0,1.0,322.0,617.0,1.0,1,331.0,1
1461,1461,-0.5395791394681132,-0.5,0.0,1.0,408.0,608.0,1.0,0,174.0,1
1462,1462,-0.8208990581008373,-0.8,1.0,0.0,470.0,907.0,0.0,0,153.0,1
1463,1463,-0.5168491652689267,-0.5,0.0,1.0,293.0,906.0,1.0,0,211.0,1
1464,1464,0.2823854107779574,0.3,1.0,1.0,343.0,625.0,1.0,1,572.0,1
1465,1465,0.10174813949520523,0.1,0.0,0.0,262.0,848.0,1.0,0,850.0,0
1466,1466,0.2894472419164954,0.3,0.0,0.0,336.0,920.0,0.0,1,464.0,1
1467,1467,-0.7705073740151015,-0.8,0.0,1.0,311.0,519.0,1.0,0,300.0,1
1468,1468,0.5274563591446991,0.5,1.0,1.0,262.0,582.0,1.0,1,296.0,1
1469,1469,-0.41363057649940654,-0.4,0.0,1.0,260.0,911.0,1.0,0,239.0,1
1470,1470,-0.3129898014587946,-0.3,1.0,0.0,321.0,695.0,0.0,0,254.0,1
1471,1471,-0.38167875741093427,-0.4,0.0,1.0,365.0,682.0,1.0,0,103.0,1
1472,1472,0.3530795532476122,0.4,0.0,0.0,418.0,546.0,0.0,1,-124.0,1
1473,1473,-0.36387629302809354,-0.4,1.0,0.0,373.0,738.0,0.0,0,149.0,1
1474,1474,0.25974415392979766,0.3,1.0,1.0,358.0,660.0,1.0,1,312.0,1
1475,1475,-0.8433811822102257,-0.8,1.0,0.0,344.0,662.0,0.0,0,164.0,1
1476,1476,-0.5605865399639007,-0.6,0.0,1.0,275.0,736.0,1.0,0,369.0,1
1477,1477,0.09926155590052466,0.1,1.0,1.0,450.0,695.0,1.0,1,1165.0,1
1478,1478,-0.5589162206505647,-0.6,0.0,1.0,322.0,767.0,1.0,0,191.0,1
1479,1479,-0.18703748859782632,-0.2,0.0,1.0,263.0,718.0,1.0,0,529.0,1
1480,1480,-0.3479137386851525,-0.3,1.0,0.0,430.0,743.0,0.0,0,97.0,1
1481,1481,0.3339679135063648,0.3,0.0,0.0,410.0,786.0,1.0,0,-26.0,0
1482,1482,0.285728347295615,0.3,0.0,0.0,265.0,947.0,0.0,1,728.0,1
1483,1483,-0.835369388814916,-0.8,1.0,0.0,302.0,673.0,0.0,0,55.0,1
1484,1484,0.4182418211893121,0.4,1.0,1.0,256.0,945.0,1.0,1,-1.0,1
1485,1485,0.8401754225225481,0.8,0.0,0.0,461.0,533.0,0.0,1,136.0,1
1486,1486,0.1526127841945314,0.2,1.0,1.0,311.0,547.0,1.0,1,1092.0,1
1487,1487,0.19450640189717705,0.2,0.0,0.0,305.0,801.0,0.0,1,504.0,1
1488,1488,-0.4550243254622707,-0.5,0.0,1.0,371.0,675.0,1.0,0,284.0,1
1489,1489,-0.8762692297349277,-0.9,1.0,0.0,342.0,528.0,0.0,0,80.0,1
1490,1490,-0.1652122218626636,-0.2,0.0,1.0,472.0,687.0,1.0,0,171.0,1
1491,1491,-0.24001365502966432,-0.2,1.0,0.0,394.0,831.0,0.0,0,465.0,1
