,trial,coherence,coherence_bin,green_side,correct_side,target_onset,checker_onset,decision,green_decision,decision_time,correct_decision
0,0,-0.6015876333267316,-0.6,1.0,0.0,269.0,822.0,0.0,0,1909.0,1
1,1,-0.1345436537972996,-0.1,0.0,1.0,407.0,996.0,0.0,1,1597.0,0
2,2,0.7009332124816697,0.7,0.0,0.0,429.0,711.0,0.0,1,1860.0,1
3,3,-0.804929015414678,-0.8,0.0,1.0,295.0,543.0,0.0,1,-828.0,0
4,4,0.069330274262279,0.1,1.0,1.0,296.0,975.0,0.0,0,1729.0,0
5,5,-0.31300037159980254,-0.3,0.0,1.0,418.0,778.0,0.0,1,1804.0,0
6,6,0.5185356737541252,0.5,0.0,0.0,265.0,980.0,0.0,1,1755.0,1
7,7,-0.7549521541764672,-0.8,0.0,1.0,261.0,552.0,0.0,1,2187.0,0
8,8,-0.4870835776081411,-0.5,0.0,1.0,455.0,880.0,0.0,1,1665.0,0
9,9,-0.5002050487136993,-0.5,0.0,1.0,262.0,615.0,0.0,1,2123.0,0
10,10,-0.31099709520884,-0.3,1.0,0.0,320.0,827.0,0.0,0,1853.0,1
11,11,-0.07726641034238646,-0.1,1.0,0.0,453.0,963.0,0.0,0,1584.0,1
12,12,0.3273189637916344,0.3,1.0,1.0,349.0,547.0,0.0,0,2104.0,0
13,13,-0.44136531984703387,-0.4,1.0,0.0,341.0,780.0,0.0,0,1879.0,1
14,14,-0.02486021756862189,-0.0,1.0,0.0,269.0,966.0,0.0,0,1765.0,1
15,15,-0.2792412105943224,-0.3,0.0,1.0,363.0,811.0,1.0,0,-1034.0,1
16,16,-0.48223157568634933,-0.5,1.0,0.0,288.0,763.0,0.0,0,1949.0,1
17,17,-0.33075631726621013,-0.3,1.0,0.0,278.0,852.0,0.0,0,1870.0,1
18,18,0.4327794335860765,0.4,1.0,1.0,421.0,635.0,0.0,0,1944.0,0
19,19,0.7594820763305298,0.8,1.0,1.0,417.0,693.0,0.0,0,1890.0,0
20,20,-0.7252871729303405,-0.7,0.0,1.0,454.0,990.0,0.0,1,1556.0,0
21,21,0.8366441445058505,0.8,1.0,1.0,414.0,740.0,0.0,0,1846.0,0
22,22,-0.3242941641476903,-0.3,1.0,0.0,359.0,733.0,0.0,0,1908.0,1
23,23,0.3271261477064765,0.3,1.0,1.0,432.0,970.0,1.0,1,-1052.0,1
24,24,-0.3278881754836058,-0.3,1.0,0.0,489.0,681.0,0.0,0,1830.0,1
25,25,-0.6134390203312161,-0.6,1.0,0.0,342.0,766.0,0.0,0,1892.0,1
26,26,0.045313842402121995,0.0,1.0,1.0,348.0,599.0,0.0,0,2053.0,0
27,27,0.4268565857514609,0.4,1.0,1.0,311.0,580.0,0.0,0,2109.0,0
28,28,-0.5659143338598993,-0.6,1.0,0.0,448.0,919.0,0.0,0,1633.0,1
29,29,0.5271277526092814,0.5,0.0,0.0,257.0,802.0,0.0,1,1941.0,1
30,30,-0.1403778285644558,-0.1,1.0,0.0,326.0,855.0,0.0,0,1819.0,1
31,31,-0.1694547328727889,-0.2,0.0,1.0,419.0,510.0,0.0,1,2071.0,0
32,32,-0.17435047325138464,-0.2,0.0,1.0,333.0,627.0,0.0,1,2040.0,0
33,33,-0.48030812884181234,-0.5,0.0,1.0,397.0,818.0,0.0,1,1785.0,0
34,34,-0.27087614810308114,-0.3,1.0,0.0,400.0,740.0,0.0,0,1860.0,1
35,35,0.6859185504421935,0.7,1.0,1.0,260.0,543.0,0.0,0,2197.0,0
36,36,0.6960195676151592,0.7,0.0,0.0,324.0,578.0,0.0,1,2098.0,1
37,37,-0.7183657841536747,-0.7,1.0,0.0,468.0,625.0,0.0,0,1907.0,1
38,38,-0.4884531229048854,-0.5,1.0,0.0,463.0,967.0,0.0,0,1570.0,1
39,39,-0.04179029332718076,-0.0,0.0,1.0,438.0,755.0,0.0,1,1807.0,0
40,40,-0.34415108105696657,-0.3,1.0,0.0,314.0,857.0,0.0,0,-1131.0,1
41,41,-0.8408826020140404,-0.8,0.0,1.0,258.0,681.0,0.0,1,2061.0,0
42,42,-0.8632682833133783,-0.9,0.0,1.0,295.0,514.0,0.0,1,2191.0,0
43,43,0.7612413659766591,0.8,0.0,0.0,369.0,514.0,0.0,1,2117.0,1
44,44,0.10713192344254419,0.1,0.0,0.0,251.0,613.0,0.0,1,2136.0,1
45,45,-0.5452591196182597,-0.5,0.0,1.0,400.0,596.0,0.0,1,2004.0,0
46,46,0.011912701665233172,0.0,1.0,1.0,318.0,536.0,0.0,0,2146.0,0
47,47,0.598802696821542,0.6,0.0,0.0,489.0,813.0,0.0,1,1698.0,1
48,48,0.566259883351166,0.6,0.0,0.0,394.0,822.0,0.0,1,1784.0,1
49,49,-0.5781927279267214,-0.6,0.0,1.0,407.0,873.0,0.0,1,1720.0,0
50,50,-0.7866330237087017,-0.8,1.0,0.0,345.0,589.0,0.0,0,2066.0,1
51,51,0.8953932064324063,0.9,1.0,1.0,390.0,537.0,0.0,0,2073.0,0
52,52,-0.5048234899501336,-0.5,0.0,1.0,486.0,540.0,0.0,1,1974.0,0
53,53,0.38521696391960847,0.4,0.0,0.0,264.0,984.0,0.0,1,1752.0,1
54,54,-0.13646272249821134,-0.1,1.0,0.0,436.0,607.0,0.0,0,1957.0,1
55,55,0.22542171936192779,0.2,0.0,0.0,311.0,873.0,0.0,1,1816.0,1
56,56,0.11900104202884021,0.1,0.0,0.0,346.0,678.0,0.0,1,1976.0,1
57,57,-0.6643234192644858,-0.7,0.0,1.0,376.0,665.0,0.0,1,1959.0,0
58,58,0.16510841569389811,0.2,1.0,1.0,499.0,654.0,0.0,0,1847.0,0
59,59,-0.6229456084776686,-0.6,0.0,1.0,447.0,687.0,0.0,1,1866.0,0
60,60,-0.30691968332164055,-0.3,1.0,0.0,349.0,919.0,0.0,0,1732.0,1
61,61,-0.16685920341641647,-0.2,1.0,0.0,421.0,538.0,0.0,0,2041.0,1
62,62,0.13614778161154228,0.1,0.0,0.0,470.0,935.0,0.0,1,1595.0,1
63,63,-0.8543467113208587,-0.9,0.0,1.0,292.0,918.0,0.0,1,1790.0,0
64,64,0.8116981668944064,0.8,1.0,1.0,310.0,724.0,0.0,0,1966.0,0
65,65,-0.24986012529734547,-0.2,0.0,1.0,492.0,840.0,0.0,1,1668.0,0
66,66,-0.3054324806588091,-0.3,1.0,0.0,353.0,924.0,0.0,0,1723.0,1
67,67,-0.014508657952926662,-0.0,1.0,0.0,447.0,665.0,0.0,0,1888.0,1
68,68,-0.686424217598895,-0.7,0.0,1.0,276.0,703.0,0.0,1,2021.0,0
69,69,0.23683166208674267,0.2,0.0,0.0,424.0,863.0,0.0,1,1713.0,1
70,70,0.4204104748609868,0.4,0.0,0.0,271.0,955.0,0.0,1,1774.0,1
71,71,-0.10422749186083002,-0.1,0.0,1.0,441.0,860.0,0.0,1,1699.0,0
72,72,-0.6837817108100923,-0.7,0.0,1.0,369.0,535.0,0.0,1,2096.0,0
73,73,-0.8377455455265113,-0.8,0.0,1.0,400.0,530.0,0.0,1,2070.0,0
74,74,0.4244644656134585,0.4,1.0,1.0,471.0,880.0,0.0,0,1649.0,0
75,75,0.4351036951965229,0.4,1.0,1.0,378.0,961.0,0.0,0,1661.0,0
76,76,0.6234131532964974,0.6,1.0,1.0,397.0,810.0,0.0,0,1793.0,0
77,77,0.04170854934406709,0.0,0.0,0.0,277.0,524.0,0.0,1,2199.0,1
78,78,-0.18691599751969856,-0.2,1.0,0.0,394.0,634.0,0.0,0,1972.0,1
79,79,-0.10640348212031192,-0.1,0.0,1.0,363.0,913.0,0.0,1,1724.0,0
80,80,-0.34871939231557414,-0.3,0.0,1.0,302.0,870.0,0.0,1,1828.0,0
81,81,0.5403321389381509,0.5,1.0,1.0,441.0,991.0,0.0,0,1568.0,0
82,82,-0.6934556622566364,-0.7,1.0,0.0,310.0,666.0,0.0,0,2024.0,1
83,83,0.05090085138892031,0.1,1.0,1.0,415.0,505.0,0.0,0,2080.0,0
84,84,0.4310665596074358,0.4,1.0,1.0,368.0,574.0,0.0,0,2058.0,0
85,85,-0.221420256995707,-0.2,1.0,0.0,326.0,934.0,0.0,0,1740.0,1
86,86,-0.7366647051972649,-0.7,0.0,1.0,384.0,652.0,0.0,1,1964.0,0
87,87,0.05483329225291478,0.1,1.0,1.0,486.0,702.0,0.0,0,1812.0,0
88,88,0.6791056039423661,0.7,0.0,0.0,375.0,626.0,0.0,1,1999.0,1
89,89,0.7717772981241714,0.8,0.0,0.0,385.0,846.0,0.0,1,1769.0,1
90,90,-0.5166689982311536,-0.5,0.0,1.0,296.0,742.0,0.0,1,1962.0,0
91,91,-0.1794230839085199,-0.2,1.0,0.0,281.0,736.0,0.0,0,1983.0,1
92,92,0.6461794240899877,0.6,1.0,1.0,301.0,760.0,0.0,0,1939.0,0
93,93,0.1480553102371408,0.1,1.0,1.0,452.0,981.0,0.0,0,1567.0,0
94,94,-0.5108471744244791,-0.5,1.0,0.0,407.0,656.0,0.0,0,1937.0,1
95,95,0.5826105889743248,0.6,0.0,0.0,299.0,522.0,0.0,1,2179.0,1
96,96,-0.6218056382858834,-0.6,0.0,1.0,431.0,929.0,0.0,1,1640.0,0
97,97,-0.5870167000715056,-0.6,0.0,1.0,308.0,651.0,0.0,1,2041.0,0
98,98,-0.7557407221824622,-0.8,0.0,1.0,373.0,783.0,0.0,1,1844.0,0
99,99,0.09400257733666317,0.1,1.0,1.0,471.0,698.0,0.0,0,1831.0,0
100,100,-0.7429165084654354,-0.7,0.0,1.0,360.0,711.0,0.0,1,1929.0,0
101,101,0.3825967777648577,0.4,1.0,1.0,293.0,676.0,0.0,0,2031.0,0
102,102,0.21344498267419387,0.2,0.0,0.0,269.0,732.0,0.0,1,1999.0,1
103,103,0.5845581118756548,0.6,0.0,0.0,482.0,894.0,0.0,1,1624.0,1
104,104,-0.3524410218341163,-0.4,1.0,0.0,361.0,979.0,0.0,0,1660.0,1
105,105,0.8632424640836037,0.9,1.0,1.0,454.0,802.0,0.0,0,1744.0,0
106,106,-0.40734102774733916,-0.4,0.0,1.0,452.0,771.0,0.0,1,1777.0,0
107,107,0.1970744581163636,0.2,0.0,0.0,274.0,703.0,0.0,1,2023.0,1
108,108,-0.4035092376454501,-0.4,1.0,0.0,435.0,982.0,0.0,0,1583.0,1
109,109,-0.6590484076787934,-0.7,1.0,0.0,468.0,699.0,0.0,0,1833.0,1
110,110,0.24177669227893295,0.2,0.0,0.0,466.0,745.0,0.0,1,1789.0,1
111,111,-0.2149708561481608,-0.2,0.0,1.0,393.0,506.0,0.0,1,-779.0,0
112,112,-0.4389076227911735,-0.4,1.0,0.0,381.0,754.0,0.0,0,1865.0,1
113,113,-0.23386726135306168,-0.2,0.0,1.0,347.0,634.0,0.0,1,2019.0,0
114,114,-0.42696806757890465,-0.4,0.0,1.0,412.0,686.0,0.0,1,1902.0,0
115,115,0.41584814990821994,0.4,0.0,0.0,362.0,788.0,0.0,1,1850.0,1
116,116,-0.426893167414264,-0.4,0.0,1.0,385.0,731.0,0.0,1,1884.0,0
117,117,0.23342787804759058,0.2,1.0,1.0,296.0,950.0,0.0,0,1754.0,0
118,118,0.8044382442683159,0.8,1.0,1.0,431.0,887.0,0.0,0,1682.0,0
119,119,-0.12496853279759823,-0.1,0.0,1.0,287.0,526.0,0.0,1,2187.0,0
120,120,-0.32341774322526895,-0.3,1.0,0.0,424.0,829.0,0.0,0,1747.0,1
121,121,0.46980098464461617,0.5,1.0,1.0,374.0,640.0,0.0,0,1986.0,0
122,122,0.514970078160902,0.5,0.0,0.0,481.0,871.0,0.0,1,1648.0,1
123,123,0.3064285503783605,0.3,1.0,1.0,364.0,569.0,0.0,0,2067.0,0
124,124,-0.6096549515259774,-0.6,1.0,0.0,371.0,832.0,0.0,0,1797.0,1
125,125,0.6254687327953504,0.6,1.0,1.0,480.0,790.0,0.0,0,1730.0,0
126,126,-0.02420131532550418,-0.0,0.0,1.0,362.0,600.0,0.0,1,2038.0,0
127,127,0.6234244912394721,0.6,0.0,0.0,255.0,538.0,0.0,1,2207.0,1
128,128,0.20830609334489092,0.2,1.0,1.0,274.0,828.0,0.0,0,-1022.0,0
129,129,0.6142234617197401,0.6,1.0,1.0,418.0,913.0,0.0,0,1669.0,0
130,130,0.5291957398726438,0.5,0.0,0.0,350.0,894.0,0.0,1,1756.0,1
131,131,0.8464691494555531,0.8,0.0,0.0,441.0,628.0,0.0,1,1931.0,1
132,132,-0.15779852229409952,-0.2,1.0,0.0,260.0,774.0,0.0,0,1966.0,1
133,133,-0.4839878321971664,-0.5,1.0,0.0,441.0,709.0,0.0,0,1850.0,1
134,134,-0.38274619426936884,-0.4,0.0,1.0,434.0,842.0,0.0,1,1724.0,0
135,135,-0.17689045765198586,-0.2,0.0,1.0,355.0,855.0,0.0,1,1790.0,0
136,136,-0.8392305631382316,-0.8,0.0,1.0,490.0,506.0,0.0,1,2004.0,0
137,137,0.3862520956085752,0.4,0.0,0.0,485.0,527.0,0.0,1,1988.0,1
138,138,-0.14812212743803932,-0.1,0.0,1.0,309.0,992.0,0.0,1,-1181.0,0
139,139,0.33984595729809175,0.3,1.0,1.0,348.0,546.0,0.0,0,2106.0,0
140,140,-0.5809830881120439,-0.6,1.0,0.0,427.0,863.0,0.0,0,1710.0,1
141,141,-0.36759627948294826,-0.4,0.0,1.0,340.0,626.0,0.0,1,2034.0,0
142,142,0.8865531827469647,0.9,1.0,1.0,400.0,737.0,0.0,0,1863.0,0
143,143,0.7421945082877394,0.7,0.0,0.0,390.0,955.0,0.0,1,1655.0,1
144,144,0.4943153802391088,0.5,0.0,0.0,389.0,571.0,0.0,1,2040.0,1
145,145,0.6579277352138743,0.7,0.0,0.0,495.0,607.0,0.0,1,1898.0,1
146,146,-0.35045149195165615,-0.4,1.0,0.0,403.0,897.0,0.0,0,1700.0,1
147,147,0.5656789943888837,0.6,0.0,0.0,368.0,843.0,0.0,1,1789.0,1
148,148,-0.5090591622736091,-0.5,0.0,1.0,493.0,679.0,0.0,1,1828.0,0
149,149,-0.3299134496217865,-0.3,0.0,1.0,269.0,960.0,0.0,1,1771.0,0
150,150,0.2704700399911236,0.3,1.0,1.0,420.0,962.0,0.0,0,1618.0,0
151,151,0.28614685703594545,0.3,1.0,1.0,463.0,686.0,0.0,0,1851.0,0
152,152,-0.7064392284274034,-0.7,0.0,1.0,497.0,529.0,0.0,1,-996.0,0
153,153,-0.8990815032315395,-0.9,0.0,1.0,281.0,888.0,0.0,1,1831.0,0
154,154,-0.11380816929756776,-0.1,1.0,0.0,357.0,916.0,0.0,0,1727.0,1
155,155,-0.3278926690949394,-0.3,0.0,1.0,272.0,633.0,0.0,1,2095.0,0
156,156,0.26689796961280343,0.3,1.0,1.0,318.0,964.0,0.0,0,1718.0,0
157,157,0.20452473954159822,0.2,0.0,0.0,399.0,528.0,0.0,1,2073.0,1
158,158,-0.2631966765459631,-0.3,0.0,1.0,275.0,988.0,0.0,1,1737.0,0
159,159,-0.8149460076056337,-0.8,0.0,1.0,396.0,599.0,0.0,1,2005.0,0
160,160,0.672877391794826,0.7,0.0,0.0,438.0,762.0,0.0,1,1800.0,1
161,161,0.2949883418558591,0.3,0.0,0.0,438.0,672.0,0.0,1,1890.0,1
162,162,0.6341206329781776,0.6,0.0,0.0,345.0,793.0,0.0,1,1862.0,1
163,163,0.26112253372981276,0.3,1.0,1.0,357.0,593.0,0.0,0,2050.0,0
164,164,-0.0809777340694503,-0.1,1.0,0.0,461.0,790.0,0.0,0,1749.0,1
165,165,0.4291962499103582,0.4,1.0,1.0,293.0,770.0,0.0,0,1937.0,0
166,166,-0.6316420028767051,-0.6,1.0,0.0,296.0,880.0,0.0,0,1824.0,1
167,167,-0.4880844875219457,-0.5,0.0,1.0,452.0,757.0,0.0,1,1791.0,0
168,168,-0.00010976185599920196,-0.0,0.0,1.0,364.0,798.0,0.0,1,-1142.0,0
169,169,0.38258410582163715,0.4,1.0,1.0,389.0,695.0,0.0,0,1916.0,0
170,170,0.21328008795887998,0.2,0.0,0.0,482.0,582.0,0.0,1,1936.0,1
171,171,-0.4253443705181679,-0.4,1.0,0.0,495.0,800.0,0.0,0,1705.0,1
172,172,0.19512505668094315,0.2,0.0,0.0,373.0,722.0,0.0,1,1905.0,1
173,173,0.7135392436045612,0.7,0.0,0.0,445.0,622.0,0.0,1,-927.0,1
174,174,-0.7193575539545632,-0.7,0.0,1.0,406.0,610.0,0.0,1,1984.0,0
175,175,-0.7781806448668435,-0.8,0.0,1.0,350.0,704.0,0.0,1,1946.0,0
176,176,-0.028089605712454113,-0.0,0.0,1.0,379.0,656.0,0.0,1,1965.0,0
177,177,-0.16335759339735534,-0.2,1.0,0.0,460.0,826.0,0.0,0,-1196.0,1
178,178,0.7334445762628553,0.7,0.0,0.0,298.0,862.0,0.0,1,1840.0,1
179,179,-0.3017517032788338,-0.3,1.0,0.0,328.0,878.0,0.0,0,1794.0,1
180,180,0.3434141310848805,0.3,0.0,0.0,450.0,863.0,0.0,1,1687.0,1
181,181,0.7200973304747654,0.7,0.0,0.0,386.0,530.0,0.0,1,2084.0,1
182,182,-0.4236338535787772,-0.4,0.0,1.0,267.0,531.0,0.0,1,2202.0,0
183,183,-0.11071093772072216,-0.1,1.0,0.0,302.0,625.0,0.0,0,2073.0,1
184,184,0.2544368779832945,0.3,1.0,1.0,301.0,608.0,0.0,0,2091.0,0
185,185,-0.6099546176947583,-0.6,1.0,0.0,444.0,877.0,0.0,0,1679.0,1
186,186,-0.5782569207521946,-0.6,0.0,1.0,396.0,671.0,0.0,1,1933.0,0
187,187,0.4732391735444975,0.5,0.0,0.0,355.0,907.0,0.0,1,-1262.0,1
188,188,-0.09983036558232239,-0.1,1.0,0.0,490.0,899.0,0.0,0,1611.0,1
189,189,-0.4455896260674338,-0.4,0.0,1.0,262.0,709.0,0.0,1,2029.0,0
190,190,0.6869452730773308,0.7,1.0,1.0,485.0,881.0,0.0,0,1634.0,0
191,191,0.06703632940282278,0.1,0.0,0.0,456.0,803.0,0.0,1,1741.0,1
192,192,-0.4582322008386239,-0.5,0.0,1.0,499.0,712.0,0.0,1,1789.0,0
193,193,0.26861419354088134,0.3,1.0,1.0,407.0,683.0,0.0,0,-1040.0,0
194,194,0.8787354171700706,0.9,1.0,1.0,310.0,870.0,0.0,0,1820.0,0
195,195,-0.49645931896995005,-0.5,0.0,1.0,364.0,707.0,0.0,1,1929.0,0
196,196,-0.33412876146406345,-0.3,1.0,0.0,487.0,578.0,0.0,0,1935.0,1
197,197,0.09303474166060755,0.1,1.0,1.0,350.0,742.0,0.0,0,1908.0,0
198,198,-0.040184284611418875,-0.0,1.0,0.0,447.0,933.0,0.0,0,1620.0,1
199,199,-0.10253556700138267,-0.1,0.0,1.0,331.0,751.0,0.0,1,1918.0,0
200,200,0.07209104499229535,0.1,1.0,1.0,297.0,612.0,0.0,0,2091.0,0
201,201,0.5586104616016657,0.6,0.0,0.0,450.0,693.0,0.0,1,1857.0,1
202,202,-0.6565038633767281,-0.7,1.0,0.0,477.0,654.0,0.0,0,1869.0,1
203,203,-0.1262543879518736,-0.1,1.0,0.0,304.0,803.0,0.0,0,1893.0,1
204,204,0.33061032756870545,0.3,0.0,0.0,499.0,750.0,0.0,1,1751.0,1
205,205,-0.4402576801870568,-0.4,1.0,0.0,406.0,549.0,0.0,0,2045.0,1
206,206,-0.11212731969387935,-0.1,0.0,1.0,391.0,960.0,0.0,1,1649.0,0
207,207,0.38404987281882585,0.4,1.0,1.0,280.0,959.0,0.0,0,1761.0,0
208,208,-0.8720102605262526,-0.9,0.0,1.0,263.0,971.0,0.0,1,1766.0,0
209,209,0.15521681879520244,0.2,1.0,1.0,378.0,694.0,0.0,0,1928.0,0
210,210,-0.6737954146066854,-0.7,0.0,1.0,387.0,766.0,0.0,1,-1133.0,0
211,211,-0.17400140313715307,-0.2,1.0,0.0,341.0,970.0,0.0,0,1689.0,1
212,212,-0.33064032172427427,-0.3,0.0,1.0,424.0,723.0,0.0,1,1853.0,0
213,213,-0.8311036077620012,-0.8,1.0,0.0,387.0,730.0,0.0,0,1883.0,1
214,214,0.8521693188746103,0.9,1.0,1.0,268.0,606.0,0.0,0,2126.0,0
215,215,-0.8141585717174552,-0.8,0.0,1.0,401.0,537.0,0.0,1,2062.0,0
216,216,-0.4533194122923782,-0.5,1.0,0.0,325.0,777.0,0.0,0,1898.0,1
217,217,-0.3189790414171141,-0.3,0.0,1.0,364.0,975.0,0.0,1,1661.0,0
218,218,-0.6797983134798358,-0.7,0.0,1.0,410.0,615.0,0.0,1,1975.0,0
219,219,0.26768973707965904,0.3,0.0,0.0,386.0,524.0,0.0,1,2090.0,1
220,220,-0.6527139872803963,-0.7,1.0,0.0,280.0,535.0,0.0,0,2185.0,1
221,221,-0.593441042758004,-0.6,0.0,1.0,482.0,770.0,0.0,1,-1252.0,0
222,222,-0.6097842209028441,-0.6,0.0,1.0,251.0,532.0,0.0,1,2217.0,0
223,223,0.1239785259182663,0.1,0.0,0.0,451.0,505.0,0.0,1,2044.0,1
224,224,0.29158527243594723,0.3,1.0,1.0,411.0,839.0,0.0,0,-1230.0,0
225,225,0.5326577142250829,0.5,1.0,1.0,441.0,634.0,1.0,1,-835.0,1
226,226,-0.25008424579133437,-0.3,1.0,0.0,298.0,754.0,0.0,0,1948.0,1
227,227,-0.11568588852594652,-0.1,0.0,1.0,425.0,831.0,0.0,1,1744.0,0
228,228,0.08913953108369921,0.1,1.0,1.0,259.0,899.0,0.0,0,1842.0,0
229,229,0.45248294908404707,0.5,0.0,0.0,258.0,512.0,0.0,1,-750.0,1
230,230,-0.7222227990374372,-0.7,1.0,0.0,264.0,727.0,0.0,0,2009.0,1
231,231,0.297829910432417,0.3,0.0,0.0,383.0,584.0,0.0,1,-927.0,1
232,232,-0.10789815239580225,-0.1,0.0,1.0,465.0,962.0,0.0,1,1573.0,0
233,233,-0.5429155027658475,-0.5,1.0,0.0,479.0,933.0,1.0,1,-1212.0,0
234,234,0.44530974214471775,0.4,0.0,0.0,329.0,795.0,0.0,1,1876.0,1
235,235,-0.6594618646926438,-0.7,1.0,0.0,352.0,541.0,0.0,0,2107.0,1
236,236,-0.5769763848628959,-0.6,0.0,1.0,396.0,646.0,0.0,1,1958.0,0
237,237,-0.8470542007753069,-0.8,0.0,1.0,352.0,992.0,0.0,1,1656.0,0
238,238,-0.5048914482788109,-0.5,1.0,0.0,270.0,502.0,0.0,0,2228.0,1
239,239,0.8597874556343584,0.9,1.0,1.0,315.0,563.0,0.0,0,2122.0,0
240,240,-0.6206951671426131,-0.6,0.0,1.0,449.0,944.0,0.0,1,1607.0,0
241,241,-0.5132032976715138,-0.5,1.0,0.0,466.0,944.0,0.0,0,1590.0,1
242,242,-0.13119442190513275,-0.1,0.0,1.0,286.0,634.0,0.0,1,2080.0,0
243,243,0.07514615898673183,0.1,0.0,0.0,267.0,986.0,0.0,1,1747.0,1
244,244,0.310255859997815,0.3,0.0,0.0,339.0,540.0,0.0,1,2121.0,1
245,245,0.1298104920392832,0.1,0.0,0.0,390.0,770.0,0.0,1,1840.0,1
246,246,-0.23247627281211813,-0.2,1.0,0.0,366.0,707.0,0.0,0,1927.0,1
247,247,0.24849776684063796,0.2,1.0,1.0,284.0,898.0,0.0,0,1818.0,0
248,248,-0.20185110260560668,-0.2,0.0,1.0,469.0,570.0,0.0,1,1961.0,0
249,249,-0.6759292188445708,-0.7,0.0,1.0,250.0,838.0,0.0,1,1912.0,0
250,250,-0.3626839974943129,-0.4,0.0,1.0,300.0,708.0,0.0,1,1992.0,0
251,251,0.3416268887428856,0.3,1.0,1.0,396.0,578.0,0.0,0,2026.0,0
252,252,-0.5086906562233219,-0.5,1.0,0.0,348.0,631.0,0.0,0,-969.0,1
253,253,-0.692921130342712,-0.7,1.0,0.0,411.0,813.0,0.0,0,1776.0,1
254,254,-0.704787851294701,-0.7,1.0,0.0,335.0,818.0,0.0,0,1847.0,1
255,255,-0.3345305659293919,-0.3,1.0,0.0,374.0,947.0,0.0,0,1679.0,1
256,256,0.5543558644163072,0.6,0.0,0.0,329.0,523.0,0.0,1,2148.0,1
257,257,-0.1814911465322009,-0.2,1.0,0.0,460.0,979.0,0.0,0,1561.0,1
258,258,0.2498718487914332,0.2,1.0,1.0,351.0,758.0,0.0,0,1891.0,0
259,259,-0.5922112239535979,-0.6,1.0,0.0,329.0,930.0,0.0,0,1741.0,1
260,260,-0.6085949365809906,-0.6,1.0,0.0,252.0,812.0,0.0,0,1936.0,1
261,261,-0.6549471528371607,-0.7,1.0,0.0,305.0,811.0,0.0,0,1884.0,1
262,262,-0.26349755780956496,-0.3,0.0,1.0,421.0,656.0,0.0,1,-1067.0,0
263,263,0.02126307223563173,0.0,1.0,1.0,331.0,754.0,0.0,0,1915.0,0
264,264,0.29236275181739646,0.3,0.0,0.0,468.0,951.0,0.0,1,1581.0,1
265,265,0.4782674750453345,0.5,0.0,0.0,336.0,820.0,0.0,1,1844.0,1
266,266,0.7965205415921256,0.8,1.0,1.0,494.0,577.0,0.0,0,-1021.0,0
267,267,-0.8871092835246319,-0.9,0.0,1.0,454.0,535.0,0.0,1,2011.0,0
268,268,0.12580894900281037,0.1,1.0,1.0,370.0,776.0,0.0,0,1854.0,0
269,269,0.24368044501395636,0.2,0.0,0.0,313.0,964.0,0.0,1,1723.0,1
270,270,-0.2960751565399794,-0.3,0.0,1.0,263.0,501.0,0.0,1,2236.0,0
271,271,0.797543664720385,0.8,0.0,0.0,379.0,543.0,0.0,1,2078.0,1
272,272,-0.021477266620721913,-0.0,1.0,0.0,377.0,660.0,0.0,0,1963.0,1
273,273,0.64696306508601,0.6,0.0,0.0,446.0,995.0,0.0,1,1559.0,1
274,274,-0.37628462481308433,-0.4,0.0,1.0,476.0,592.0,0.0,1,1932.0,0
275,275,0.8751477149727346,0.9,1.0,1.0,382.0,530.0,0.0,0,2088.0,0
276,276,-0.6946985525374539,-0.7,1.0,0.0,289.0,802.0,0.0,0,1909.0,1
277,277,0.03779074390622539,0.0,0.0,0.0,275.0,839.0,0.0,1,1886.0,1
278,278,0.43906662860087364,0.4,0.0,0.0,260.0,640.0,0.0,1,2100.0,1
279,279,0.6883167440211605,0.7,1.0,1.0,467.0,976.0,0.0,0,1557.0,0
280,280,-0.654561436804796,-0.7,0.0,1.0,384.0,563.0,0.0,1,-877.0,0
281,281,-0.6867572446297765,-0.7,0.0,1.0,270.0,904.0,0.0,1,1826.0,0
282,282,0.7502114202297737,0.8,0.0,0.0,337.0,800.0,0.0,1,1863.0,1
283,283,-0.2530326247777739,-0.3,0.0,1.0,408.0,877.0,0.0,1,1715.0,0
284,284,0.5887251160618002,0.6,1.0,1.0,410.0,652.0,0.0,0,1938.0,0
285,285,-0.26812422053059315,-0.3,1.0,0.0,251.0,533.0,0.0,0,2216.0,1
286,286,-0.02798463803405471,-0.0,1.0,0.0,303.0,792.0,1.0,1,-865.0,0
287,287,0.49500486678569733,0.5,0.0,0.0,408.0,677.0,0.0,1,1915.0,1
288,288,-0.19598622943836252,-0.2,0.0,1.0,284.0,718.0,0.0,1,-862.0,0
289,289,0.7000086238305699,0.7,0.0,0.0,289.0,820.0,0.0,1,1891.0,1
290,290,0.8085638459276713,0.8,0.0,0.0,457.0,604.0,0.0,1,1939.0,1
291,291,0.0012604419829900237,0.0,0.0,0.0,372.0,952.0,0.0,1,1676.0,1
292,292,0.8618925014075635,0.9,0.0,0.0,327.0,907.0,0.0,1,1766.0,1
293,293,-0.7010069347879314,-0.7,0.0,1.0,458.0,592.0,0.0,1,1950.0,0
294,294,-0.3307110096250634,-0.3,0.0,1.0,374.0,765.0,0.0,1,1861.0,0
295,295,0.1681520658101664,0.2,0.0,0.0,432.0,595.0,0.0,1,1973.0,1
296,296,0.49754129603101716,0.5,0.0,0.0,323.0,596.0,0.0,1,2081.0,1
297,297,-0.8403121234078307,-0.8,1.0,0.0,355.0,803.0,0.0,0,-1068.0,1
298,298,0.43403599789946357,0.4,1.0,1.0,436.0,974.0,0.0,0,1590.0,0
299,299,0.17035767262828083,0.2,1.0,1.0,474.0,550.0,0.0,0,1976.0,0
300,300,0.7414712435028964,0.7,1.0,1.0,454.0,783.0,0.0,0,1763.0,0
301,301,0.21735578876222605,0.2,1.0,1.0,269.0,778.0,0.0,0,1953.0,0
302,302,-0.37657920114183996,-0.4,1.0,0.0,473.0,583.0,0.0,0,-936.0,1
303,303,-0.3749015813428547,-0.4,0.0,1.0,261.0,978.0,0.0,1,1761.0,0
304,304,-0.3171711769690677,-0.3,0.0,1.0,347.0,514.0,0.0,1,2139.0,0
305,305,-0.4234112583642115,-0.4,1.0,0.0,425.0,868.0,0.0,0,1707.0,1
306,306,0.35283495743761695,0.4,1.0,1.0,276.0,602.0,0.0,0,2122.0,0
307,307,0.8199830834123857,0.8,0.0,0.0,338.0,797.0,0.0,1,-1025.0,1
308,308,-0.614395378189837,-0.6,1.0,0.0,276.0,974.0,0.0,0,1750.0,1
309,309,0.1917396950935356,0.2,0.0,0.0,458.0,951.0,0.0,1,1591.0,1
310,310,0.4496277748086691,0.4,0.0,0.0,392.0,918.0,0.0,1,1690.0,1
311,311,-0.07858017177366394,-0.1,0.0,1.0,406.0,521.0,0.0,1,2073.0,0
312,312,-0.4592382398126999,-0.5,1.0,0.0,342.0,959.0,0.0,0,1699.0,1
313,313,-0.22562167518321985,-0.2,0.0,1.0,310.0,697.0,0.0,1,1993.0,0
314,314,-0.8973144931083852,-0.9,0.0,1.0,477.0,748.0,0.0,1,1775.0,0
315,315,-0.16293337898874727,-0.2,0.0,1.0,407.0,854.0,0.0,1,1739.0,0
316,316,0.14827828045261982,0.1,0.0,0.0,464.0,899.0,0.0,1,1637.0,1
317,317,0.3136025864142996,0.3,0.0,0.0,489.0,947.0,0.0,1,1564.0,1
318,318,-0.8742879013886877,-0.9,0.0,1.0,468.0,698.0,0.0,1,1834.0,0
319,319,0.023813798855382595,0.0,0.0,0.0,403.0,985.0,1.0,0,-1138.0,0
320,320,0.5177202706163998,0.5,0.0,0.0,397.0,681.0,0.0,1,1922.0,1
321,321,0.5868687051061999,0.6,0.0,0.0,422.0,906.0,0.0,1,1672.0,1
322,322,0.32959396593802504,0.3,0.0,0.0,455.0,549.0,0.0,1,-984.0,1
323,323,0.8450587053318205,0.8,1.0,1.0,316.0,999.0,0.0,0,1685.0,0
324,324,-0.34051960978342055,-0.3,1.0,0.0,468.0,548.0,0.0,0,1984.0,1
325,325,0.8595834510745651,0.9,1.0,1.0,385.0,657.0,0.0,0,1958.0,0
326,326,0.6641999549743379,0.7,1.0,1.0,302.0,703.0,0.0,0,1995.0,0
327,327,-0.394646199116638,-0.4,1.0,0.0,487.0,543.0,0.0,0,1970.0,1
328,328,-0.0966887319823061,-0.1,0.0,1.0,312.0,823.0,0.0,1,1865.0,0
329,329,0.8954344055426645,0.9,1.0,1.0,465.0,715.0,0.0,0,1820.0,0
330,330,-0.3911694150154621,-0.4,1.0,0.0,411.0,929.0,0.0,0,1660.0,1
331,331,0.6850811627359134,0.7,0.0,0.0,292.0,567.0,0.0,1,2141.0,1
332,332,0.04491058337847753,0.0,1.0,1.0,306.0,821.0,0.0,0,1873.0,0
333,333,0.6039892672738142,0.6,1.0,1.0,460.0,574.0,0.0,0,1966.0,0
334,334,-0.38752823445031115,-0.4,0.0,1.0,318.0,922.0,0.0,1,1760.0,0
335,335,-0.1562753053228414,-0.2,1.0,0.0,381.0,650.0,0.0,0,1969.0,1
336,336,0.8341126220856906,0.8,0.0,0.0,427.0,676.0,0.0,1,1897.0,1
337,337,-0.20062048629093843,-0.2,0.0,1.0,471.0,714.0,0.0,1,1815.0,0
338,338,-0.35330353146000104,-0.4,0.0,1.0,455.0,805.0,0.0,1,1740.0,0
339,339,0.473055904668762,0.5,1.0,1.0,475.0,596.0,0.0,0,1929.0,0
340,340,-0.7371218357016354,-0.7,1.0,0.0,464.0,557.0,0.0,0,1979.0,1
341,341,-0.4377057364655985,-0.4,1.0,0.0,470.0,817.0,0.0,0,1713.0,1
342,342,0.19900965131714565,0.2,1.0,1.0,346.0,669.0,0.0,0,1985.0,0
343,343,0.1993359887305316,0.2,1.0,1.0,379.0,728.0,0.0,0,1893.0,0
344,344,-0.37130335812436055,-0.4,0.0,1.0,423.0,607.0,0.0,1,1970.0,0
345,345,-0.29493287945762503,-0.3,1.0,0.0,333.0,916.0,0.0,0,1751.0,1
346,346,-0.7369258625170584,-0.7,1.0,0.0,390.0,971.0,0.0,0,1639.0,1
347,347,0.6887209510947686,0.7,1.0,1.0,429.0,946.0,0.0,0,1625.0,0
348,348,0.658351587910026,0.7,1.0,1.0,346.0,561.0,0.0,0,2093.0,0
349,349,-0.8607903756350634,-0.9,0.0,1.0,279.0,697.0,0.0,1,-956.0,0
350,350,-0.4356022468151821,-0.4,1.0,0.0,474.0,794.0,0.0,0,1732.0,1
351,351,-0.3026363645543413,-0.3,0.0,1.0,491.0,902.0,0.0,1,1607.0,0
352,352,-0.2703674052360605,-0.3,1.0,0.0,268.0,979.0,0.0,0,1753.0,1
353,353,0.5343697290444794,0.5,1.0,1.0,256.0,780.0,0.0,0,1964.0,0
354,354,-0.7673000441607774,-0.8,1.0,0.0,282.0,717.0,0.0,0,2001.0,1
355,355,-0.8874706909601969,-0.9,0.0,1.0,292.0,766.0,0.0,1,1942.0,0
356,356,-0.6745569805203184,-0.7,1.0,0.0,380.0,584.0,0.0,0,2036.0,1
357,357,0.30121916935401194,0.3,1.0,1.0,366.0,878.0,0.0,0,1756.0,0
358,358,-0.04865710355349884,-0.0,0.0,1.0,455.0,863.0,0.0,1,1682.0,0
359,359,0.7632744340405052,0.8,0.0,0.0,394.0,709.0,0.0,1,1897.0,1
360,360,-0.34951818621312314,-0.3,0.0,1.0,396.0,813.0,0.0,1,1791.0,0
361,361,0.39587582421228074,0.4,1.0,1.0,486.0,817.0,0.0,0,1697.0,0
362,362,0.7506841867569364,0.8,0.0,0.0,463.0,596.0,0.0,1,1941.0,1
363,363,-0.6114965723899508,-0.6,0.0,1.0,267.0,716.0,0.0,1,2017.0,0
364,364,-0.662558800070859,-0.7,0.0,1.0,330.0,824.0,0.0,1,1846.0,0
365,365,-0.7579066408094223,-0.8,0.0,1.0,436.0,599.0,0.0,1,1965.0,0
366,366,-0.03536524053837953,-0.0,1.0,0.0,350.0,894.0,0.0,0,1756.0,1
367,367,0.8218991695147918,0.8,1.0,1.0,315.0,652.0,0.0,0,2033.0,0
368,368,0.5968131019723141,0.6,0.0,0.0,400.0,776.0,0.0,1,1824.0,1
369,369,-0.17179087082530842,-0.2,1.0,0.0,481.0,824.0,0.0,0,1695.0,1
370,370,0.7893013996611246,0.8,1.0,1.0,363.0,798.0,0.0,0,1839.0,0
371,371,-0.32688337971183756,-0.3,1.0,0.0,469.0,969.0,0.0,0,1562.0,1
372,372,0.6652028724371158,0.7,0.0,0.0,392.0,794.0,0.0,1,1814.0,1
373,373,-0.7526069943887352,-0.8,0.0,1.0,358.0,823.0,0.0,1,1819.0,0
374,374,-0.8303962826389573,-0.8,1.0,0.0,400.0,565.0,0.0,0,2035.0,1
375,375,0.13417333165405443,0.1,0.0,0.0,303.0,764.0,0.0,1,1933.0,1
376,376,-0.6380551974233466,-0.6,1.0,0.0,334.0,930.0,0.0,0,-1224.0,1
377,377,0.186092945323309,0.2,0.0,0.0,442.0,656.0,0.0,1,1902.0,1
378,378,0.12390209326683854,0.1,1.0,1.0,391.0,543.0,0.0,0,2066.0,0
379,379,0.5147353951621222,0.5,0.0,0.0,295.0,556.0,0.0,1,2149.0,1
380,380,-0.22450608741838884,-0.2,0.0,1.0,387.0,700.0,0.0,1,1913.0,0
381,381,-0.34078005888345164,-0.3,1.0,0.0,429.0,516.0,0.0,0,2055.0,1
382,382,-0.4314697550200256,-0.4,1.0,0.0,374.0,614.0,0.0,0,2012.0,1
383,383,-0.6026157775075925,-0.6,0.0,1.0,322.0,946.0,0.0,1,1732.0,0
384,384,-0.41997704929526986,-0.4,1.0,0.0,287.0,897.0,0.0,0,1816.0,1
385,385,0.7365806776738452,0.7,0.0,0.0,484.0,854.0,0.0,1,1662.0,1
386,386,-0.33544294369630157,-0.3,1.0,0.0,275.0,658.0,0.0,0,2067.0,1
387,387,0.035212420228033836,0.0,1.0,1.0,255.0,983.0,0.0,0,1762.0,0
388,388,0.6547241674880978,0.7,1.0,1.0,430.0,677.0,0.0,0,1893.0,0
389,389,-0.5542692221057303,-0.6,1.0,0.0,481.0,839.0,0.0,0,1680.0,1
390,390,-0.8338808911411448,-0.8,0.0,1.0,396.0,530.0,0.0,1,2074.0,0
391,391,0.6928711771079966,0.7,1.0,1.0,395.0,886.0,0.0,0,1719.0,0
392,392,0.8961599609281662,0.9,0.0,0.0,479.0,708.0,0.0,1,1813.0,1
393,393,-0.16190045249917506,-0.2,1.0,0.0,318.0,696.0,0.0,0,1986.0,1
394,394,-0.8483398171555135,-0.8,1.0,0.0,361.0,710.0,0.0,0,1929.0,1
395,395,-0.5608535088552226,-0.6,1.0,0.0,277.0,761.0,0.0,0,1962.0,1
396,396,-0.49967643617182794,-0.5,0.0,1.0,375.0,817.0,0.0,1,1808.0,0
397,397,0.7729653431904425,0.8,0.0,0.0,382.0,973.0,0.0,1,1645.0,1
398,398,0.4082955640964069,0.4,1.0,1.0,463.0,921.0,0.0,0,1616.0,0
399,399,-0.0008954774289622325,-0.0,0.0,1.0,430.0,765.0,0.0,1,1805.0,0
400,400,0.2797527213589831,0.3,0.0,0.0,461.0,654.0,0.0,1,1885.0,1
401,401,-0.7353030260168878,-0.7,1.0,0.0,272.0,757.0,0.0,0,1971.0,1
402,402,-0.7620188404620087,-0.8,1.0,0.0,462.0,861.0,0.0,0,1677.0,1
403,403,-0.7392226949647798,-0.7,1.0,0.0,311.0,884.0,0.0,0,1805.0,1
404,404,-0.4081417256861983,-0.4,0.0,1.0,309.0,768.0,0.0,1,1923.0,0
405,405,0.031068065435809422,0.0,0.0,0.0,463.0,591.0,0.0,1,1946.0,1
406,406,-0.7208006064542707,-0.7,1.0,0.0,341.0,702.0,0.0,0,1957.0,1
407,407,0.5768617568131472,0.6,0.0,0.0,400.0,870.0,0.0,1,1730.0,1
408,408,0.8269136249956838,0.8,0.0,0.0,421.0,759.0,0.0,1,1820.0,1
409,409,0.8059921890003733,0.8,0.0,0.0,433.0,975.0,0.0,1,1592.0,1
410,410,-0.003001553420196701,-0.0,0.0,1.0,380.0,856.0,0.0,1,1764.0,0
411,411,-0.7547054722804519,-0.8,0.0,1.0,473.0,728.0,0.0,1,1799.0,0
412,412,-0.38147355938623606,-0.4,0.0,1.0,454.0,887.0,0.0,1,-1341.0,0
413,413,-0.3429298427887859,-0.3,1.0,0.0,423.0,758.0,0.0,0,-1141.0,1
414,414,-0.5008934133997305,-0.5,0.0,1.0,295.0,613.0,0.0,1,2092.0,0
415,415,-0.6843897926923388,-0.7,1.0,0.0,424.0,750.0,0.0,0,1826.0,1
416,416,-0.10306096857856906,-0.1,0.0,1.0,392.0,546.0,0.0,1,2062.0,0
417,417,-0.44069952444978705,-0.4,0.0,1.0,395.0,895.0,0.0,1,-1230.0,0
418,418,-0.10133783492026771,-0.1,1.0,0.0,381.0,954.0,0.0,0,1665.0,1
419,419,0.3849419718594874,0.4,1.0,1.0,321.0,831.0,0.0,0,1848.0,0
420,420,0.44930158119195907,0.4,0.0,0.0,283.0,701.0,0.0,1,2016.0,1
421,421,0.7988982733480622,0.8,1.0,1.0,430.0,866.0,0.0,0,1704.0,0
422,422,0.7351781098617095,0.7,0.0,0.0,442.0,939.0,0.0,1,1619.0,1
423,423,-0.7270656105434018,-0.7,0.0,1.0,467.0,766.0,0.0,1,1767.0,0
424,424,0.6351924996477306,0.6,0.0,0.0,345.0,619.0,0.0,1,2036.0,1
425,425,0.42592505566647365,0.4,1.0,1.0,343.0,828.0,0.0,0,1829.0,0
426,426,-0.057626946245608046,-0.1,0.0,1.0,435.0,859.0,0.0,1,-1144.0,0
427,427,0.5941936897632357,0.6,0.0,0.0,371.0,574.0,0.0,1,2055.0,1
428,428,0.021504122727388664,0.0,1.0,1.0,309.0,949.0,0.0,0,1742.0,0
429,429,0.5863361798656056,0.6,0.0,0.0,400.0,679.0,0.0,1,-979.0,1
430,430,0.6975927564269461,0.7,0.0,0.0,453.0,662.0,0.0,1,1885.0,1
431,431,-0.6520631743443945,-0.7,0.0,1.0,291.0,981.0,0.0,1,1728.0,0
432,432,0.37340605352043943,0.4,0.0,0.0,274.0,930.0,0.0,1,1796.0,1
433,433,0.12920196932729044,0.1,0.0,0.0,362.0,584.0,0.0,1,2054.0,1
434,434,-0.5229820035193196,-0.5,0.0,1.0,337.0,647.0,0.0,1,2016.0,0
435,435,-0.35478693430678143,-0.4,1.0,0.0,301.0,624.0,0.0,0,2075.0,1
436,436,0.8967149836898681,0.9,0.0,0.0,344.0,969.0,0.0,1,1687.0,1
437,437,-0.14437808767566274,-0.1,0.0,1.0,291.0,618.0,0.0,1,2091.0,0
438,438,-0.2040674417830235,-0.2,1.0,0.0,493.0,619.0,0.0,0,1888.0,1
439,439,0.8417268128331882,0.8,0.0,0.0,404.0,631.0,0.0,1,1965.0,1
440,440,0.5207668668617559,0.5,0.0,0.0,394.0,965.0,0.0,1,1641.0,1
441,441,-0.7577210069030154,-0.8,1.0,0.0,380.0,744.0,0.0,0,1876.0,1
442,442,0.8751073081234154,0.9,0.0,0.0,425.0,541.0,0.0,1,2034.0,1
443,443,-0.6135238172845425,-0.6,1.0,0.0,428.0,602.0,0.0,0,1970.0,1
444,444,0.48534718307284674,0.5,0.0,0.0,336.0,777.0,0.0,1,1887.0,1
445,445,0.43972008021330244,0.4,1.0,1.0,257.0,642.0,0.0,0,2101.0,0
446,446,-0.16606673004840689,-0.2,1.0,0.0,253.0,504.0,0.0,0,2243.0,1
447,447,-0.8769985364641285,-0.9,0.0,1.0,391.0,578.0,0.0,1,2031.0,0
448,448,0.8540510469995842,0.9,1.0,1.0,462.0,715.0,0.0,0,1823.0,0
449,449,0.3132652598937299,0.3,0.0,0.0,264.0,780.0,0.0,1,1956.0,1
450,450,0.47464236779086544,0.5,0.0,0.0,260.0,976.0,0.0,1,1764.0,1
451,451,-0.3214199919481482,-0.3,0.0,1.0,309.0,966.0,1.0,0,-1025.0,1
452,452,-0.017584158269797978,-0.0,1.0,0.0,355.0,692.0,0.0,0,1953.0,1
453,453,-0.7511009130490477,-0.8,0.0,1.0,341.0,671.0,0.0,1,1988.0,0
454,454,-0.19356776670055753,-0.2,0.0,1.0,354.0,643.0,0.0,1,2003.0,0
455,455,0.19064223763440136,0.2,1.0,1.0,369.0,725.0,0.0,0,1906.0,0
456,456,-0.06059732750686431,-0.1,1.0,0.0,420.0,538.0,0.0,0,2042.0,1
457,457,-0.01012514105857476,-0.0,1.0,0.0,316.0,525.0,0.0,0,2159.0,1
458,458,0.3984292214462658,0.4,0.0,0.0,359.0,540.0,0.0,1,2101.0,1
459,459,0.4089186541903901,0.4,1.0,1.0,368.0,759.0,0.0,0,1873.0,0
460,460,0.6653885232787381,0.7,1.0,1.0,457.0,904.0,0.0,0,1639.0,0
461,461,-0.4639336121400242,-0.5,0.0,1.0,384.0,809.0,0.0,1,1807.0,0
462,462,0.7870435178612006,0.8,1.0,1.0,454.0,602.0,0.0,0,1944.0,0
463,463,0.8971137326624278,0.9,1.0,1.0,429.0,946.0,0.0,0,1625.0,0
464,464,-0.35013416859559277,-0.4,1.0,0.0,437.0,957.0,0.0,0,1606.0,1
465,465,0.01762401598315977,0.0,1.0,1.0,318.0,849.0,0.0,0,1833.0,0
466,466,-0.28234071429246854,-0.3,1.0,0.0,461.0,819.0,0.0,0,1720.0,1
467,467,0.8087683907159614,0.8,0.0,0.0,305.0,617.0,0.0,1,2078.0,1
468,468,0.4424384810105516,0.4,1.0,1.0,487.0,779.0,0.0,0,1734.0,0
469,469,0.603784555864158,0.6,0.0,0.0,300.0,686.0,0.0,1,2014.0,1
470,470,0.8297764942093754,0.8,1.0,1.0,348.0,505.0,0.0,0,2147.0,0
471,471,-0.10696320604413645,-0.1,1.0,0.0,406.0,543.0,0.0,0,2051.0,1
472,472,0.09554860178018709,0.1,1.0,1.0,363.0,580.0,0.0,0,2057.0,0
473,473,-0.05881966790284665,-0.1,0.0,1.0,485.0,656.0,0.0,1,1859.0,0
474,474,-0.5604025105041675,-0.6,1.0,0.0,291.0,624.0,0.0,0,2085.0,1
475,475,-0.15570577884011383,-0.2,0.0,1.0,401.0,955.0,0.0,1,-1316.0,0
476,476,0.6460843853673693,0.6,0.0,0.0,413.0,781.0,0.0,1,1806.0,1
477,477,-0.29948821817044424,-0.3,1.0,0.0,401.0,689.0,0.0,0,1910.0,1
478,478,0.5500894293916104,0.6,0.0,0.0,299.0,563.0,0.0,1,2138.0,1
479,479,-0.3740550443250197,-0.4,0.0,1.0,303.0,604.0,0.0,1,2093.0,0
480,480,0.06870113004331391,0.1,0.0,0.0,296.0,596.0,0.0,1,2108.0,1
481,481,0.8286492274627834,0.8,1.0,1.0,291.0,894.0,0.0,0,1815.0,0
482,482,-0.3604501945168017,-0.4,0.0,1.0,272.0,855.0,0.0,1,1873.0,0
483,483,-0.45104800554441143,-0.5,0.0,1.0,339.0,659.0,1.0,0,-868.0,1
484,484,-0.764007405996483,-0.8,1.0,0.0,372.0,835.0,0.0,0,-1187.0,1
485,485,-0.6378523544459411,-0.6,0.0,1.0,447.0,581.0,0.0,1,1972.0,0
486,486,0.13327338636257224,0.1,1.0,1.0,285.0,509.0,0.0,0,2206.0,0
487,487,-0.038977859053771824,-0.0,1.0,0.0,465.0,760.0,0.0,0,1775.0,1
488,488,0.2501478505682443,0.3,0.0,0.0,313.0,856.0,0.0,1,1831.0,1
489,489,0.6058655918850772,0.6,0.0,0.0,447.0,955.0,0.0,1,1598.0,1
490,490,0.2526737240399056,0.3,0.0,0.0,383.0,913.0,1.0,0,-1116.0,0
491,491,0.7741089372601827,0.8,0.0,0.0,302.0,630.0,0.0,1,2068.0,1
492,492,-0.6933944917876654,-0.7,1.0,0.0,306.0,874.0,0.0,0,1820.0,1
493,493,0.37380802040065786,0.4,1.0,1.0,455.0,970.0,0.0,0,1575.0,0
494,494,0.6555830738184097,0.7,0.0,0.0,413.0,844.0,0.0,1,1743.0,1
495,495,0.5496203269995402,0.5,0.0,0.0,366.0,685.0,0.0,1,1949.0,1
496,496,0.8985654593281566,0.9,0.0,0.0,421.0,505.0,0.0,1,2074.0,1
497,497,0.784250469673864,0.8,0.0,0.0,411.0,519.0,0.0,1,2070.0,1
498,498,0.41506083752136014,0.4,1.0,1.0,361.0,673.0,0.0,0,1966.0,0
499,499,0.29636646072779993,0.3,1.0,1.0,380.0,641.0,0.0,0,1979.0,0
500,500,-0.2837622265396601,-0.3,1.0,0.0,493.0,602.0,0.0,0,1905.0,1
501,501,0.1481301314944291,0.1,0.0,0.0,260.0,916.0,0.0,1,1824.0,1
502,502,-0.5161403419737444,-0.5,1.0,0.0,290.0,832.0,1.0,1,-862.0,0
503,503,-0.8183838596754247,-0.8,0.0,1.0,457.0,820.0,0.0,1,1723.0,0
504,504,0.05787669464617062,0.1,0.0,0.0,497.0,755.0,0.0,1,1748.0,1
505,505,-0.121775506227354,-0.1,1.0,0.0,481.0,699.0,0.0,0,1820.0,1
506,506,-0.6367428610132777,-0.6,1.0,0.0,324.0,905.0,0.0,0,-1229.0,1
507,507,0.853654294439521,0.9,1.0,1.0,296.0,849.0,0.0,0,1855.0,0
508,508,-0.18758943441844889,-0.2,1.0,0.0,337.0,994.0,0.0,0,1669.0,1
509,509,0.2387229646917738,0.2,0.0,0.0,370.0,859.0,0.0,1,-1229.0,1
510,510,0.6461579581575762,0.6,0.0,0.0,431.0,673.0,0.0,1,1896.0,1
511,511,-0.33664519907795576,-0.3,0.0,1.0,450.0,890.0,0.0,1,-1230.0,0
512,512,-0.03594009762018879,-0.0,1.0,0.0,266.0,509.0,0.0,0,2225.0,1
513,513,0.11030773624382395,0.1,0.0,0.0,460.0,944.0,0.0,1,1596.0,1
514,514,0.137765724340856,0.1,0.0,0.0,265.0,678.0,0.0,1,2057.0,1
515,515,0.8254359818274543,0.8,1.0,1.0,321.0,745.0,0.0,0,1934.0,0
516,516,0.4327239463458191,0.4,1.0,1.0,398.0,775.0,0.0,0,1827.0,0
517,517,-0.7146873797329982,-0.7,1.0,0.0,294.0,669.0,0.0,0,2037.0,1
518,518,-0.6012083588717643,-0.6,0.0,1.0,359.0,687.0,1.0,0,-786.0,1
519,519,0.42761177784606075,0.4,1.0,1.0,326.0,802.0,0.0,0,1872.0,0
520,520,-0.027933144324412962,-0.0,1.0,0.0,388.0,875.0,0.0,0,-1193.0,1
521,521,0.3950721824638851,0.4,1.0,1.0,251.0,675.0,0.0,0,2074.0,0
522,522,0.6411420374535742,0.6,0.0,0.0,342.0,914.0,0.0,1,1744.0,1
523,523,-0.4987062971643269,-0.5,0.0,1.0,392.0,526.0,0.0,1,2082.0,0
524,524,0.11856180356948764,0.1,1.0,1.0,400.0,511.0,0.0,0,2089.0,0
525,525,0.6478505497168453,0.6,1.0,1.0,339.0,551.0,0.0,0,2110.0,0
526,526,-0.39928142488695484,-0.4,1.0,0.0,488.0,879.0,0.0,0,1633.0,1
527,527,-0.5046599191138494,-0.5,1.0,0.0,394.0,903.0,0.0,0,1703.0,1
528,528,-0.6069950313738333,-0.6,0.0,1.0,334.0,794.0,0.0,1,1872.0,0
529,529,-0.3214774217516344,-0.3,1.0,0.0,414.0,687.0,0.0,0,1899.0,1
530,530,-0.13995315050514134,-0.1,1.0,0.0,456.0,673.0,0.0,0,1871.0,1
531,531,-0.4223700061988719,-0.4,0.0,1.0,409.0,766.0,0.0,1,1825.0,0
532,532,-0.0793234137312232,-0.1,0.0,1.0,367.0,505.0,0.0,1,2128.0,0
533,533,-0.8045631893813691,-0.8,1.0,0.0,423.0,814.0,0.0,0,1763.0,1
534,534,-0.498058178504854,-0.5,1.0,0.0,266.0,788.0,0.0,0,1946.0,1
535,535,-0.7130931284193217,-0.7,0.0,1.0,282.0,898.0,0.0,1,1820.0,0
536,536,-0.7961265475140633,-0.8,1.0,0.0,347.0,566.0,0.0,0,2087.0,1
537,537,-0.29604891178681925,-0.3,1.0,0.0,256.0,925.0,1.0,1,-1051.0,0
538,538,0.15413298658357666,0.2,1.0,1.0,407.0,866.0,1.0,1,-1183.0,1
539,539,-0.5503149312637384,-0.6,0.0,1.0,351.0,805.0,0.0,1,1844.0,0
540,540,0.6786062504600899,0.7,1.0,1.0,460.0,625.0,0.0,0,1915.0,0
541,541,0.2796723789369294,0.3,1.0,1.0,339.0,802.0,0.0,0,1859.0,0
542,542,-0.06400771324370114,-0.1,1.0,0.0,455.0,765.0,0.0,0,1780.0,1
543,543,-0.7472992104658424,-0.7,1.0,0.0,315.0,928.0,0.0,0,1757.0,1
544,544,0.014581119535392761,0.0,0.0,0.0,428.0,741.0,0.0,1,1831.0,1
545,545,-0.309889881739722,-0.3,0.0,1.0,456.0,718.0,0.0,1,1826.0,0
546,546,-0.6523505816981919,-0.7,1.0,0.0,420.0,757.0,0.0,0,1823.0,1
547,547,0.43384275915423254,0.4,1.0,1.0,371.0,504.0,0.0,0,2125.0,0
548,548,0.7874451716013241,0.8,0.0,0.0,461.0,923.0,0.0,1,1616.0,1
549,549,-0.6016947215630615,-0.6,1.0,0.0,437.0,668.0,0.0,0,1895.0,1
550,550,0.2206339074301501,0.2,1.0,1.0,316.0,917.0,0.0,0,1767.0,0
551,551,0.659514494019081,0.7,0.0,0.0,316.0,691.0,0.0,1,1993.0,1
552,552,-0.053738911306256965,-0.1,1.0,0.0,452.0,769.0,0.0,0,1779.0,1
553,553,-0.5165032742338662,-0.5,1.0,0.0,258.0,811.0,0.0,0,-1009.0,1
554,554,-0.5748780340433866,-0.6,1.0,0.0,426.0,745.0,0.0,0,1829.0,1
555,555,-0.22733746499115548,-0.2,0.0,1.0,359.0,786.0,0.0,1,1855.0,0
556,556,-0.4662519952980827,-0.5,0.0,1.0,296.0,553.0,0.0,1,2151.0,0
557,557,-0.606090612749985,-0.6,1.0,0.0,308.0,616.0,0.0,0,2076.0,1
558,558,0.30745889967834616,0.3,1.0,1.0,474.0,711.0,0.0,0,1815.0,0
559,559,-0.5651488727093359,-0.6,0.0,1.0,303.0,856.0,0.0,1,1841.0,0
560,560,0.5168662895713428,0.5,1.0,1.0,439.0,564.0,0.0,0,1997.0,0
561,561,-0.1831870340506172,-0.2,0.0,1.0,257.0,502.0,0.0,1,2241.0,0
562,562,-0.14979554766155545,-0.1,0.0,1.0,475.0,843.0,0.0,1,1682.0,0
563,563,-0.07849844528865502,-0.1,0.0,1.0,455.0,656.0,0.0,1,1889.0,0
564,564,-0.8398597169473759,-0.8,0.0,1.0,338.0,684.0,1.0,0,-792.0,1
565,565,0.3981890631946162,0.4,1.0,1.0,468.0,532.0,0.0,0,2000.0,0
566,566,0.14868394227431125,0.1,1.0,1.0,301.0,789.0,0.0,0,1910.0,0
567,567,0.5686642973246335,0.6,0.0,0.0,390.0,576.0,0.0,1,2034.0,1
568,568,0.22330827876464798,0.2,1.0,1.0,342.0,838.0,0.0,0,1820.0,0
569,569,-0.8341249555854838,-0.8,1.0,0.0,317.0,773.0,0.0,0,1910.0,1
570,570,0.009391397405447699,0.0,1.0,1.0,275.0,759.0,0.0,0,1966.0,0
571,571,0.31269021459651125,0.3,0.0,0.0,470.0,560.0,0.0,1,1970.0,1
572,572,-0.36558358635467236,-0.4,1.0,0.0,414.0,946.0,0.0,0,1640.0,1
573,573,0.6574837832342396,0.7,0.0,0.0,495.0,700.0,0.0,1,1805.0,1
574,574,-0.5519996635380129,-0.6,1.0,0.0,466.0,645.0,0.0,0,1889.0,1
575,575,0.04545727488138851,0.0,1.0,1.0,490.0,697.0,0.0,0,1813.0,0
576,576,0.4573433882546508,0.5,1.0,1.0,481.0,671.0,0.0,0,1848.0,0
577,577,0.06842404625282283,0.1,0.0,0.0,429.0,535.0,0.0,1,2036.0,1
578,578,0.1707513617439903,0.2,0.0,0.0,346.0,825.0,0.0,1,1829.0,1
579,579,0.13410296167784963,0.1,1.0,1.0,431.0,774.0,0.0,0,1795.0,0
580,580,-0.6358676425275704,-0.6,1.0,0.0,441.0,758.0,0.0,0,1801.0,1
581,581,-0.040476802933006706,-0.0,0.0,1.0,265.0,514.0,0.0,1,2221.0,0
582,582,0.05880165447947594,0.1,0.0,0.0,313.0,564.0,0.0,1,2123.0,1
583,583,-0.29628170399348885,-0.3,0.0,1.0,364.0,709.0,0.0,1,1927.0,0
584,584,0.3595550125601993,0.4,0.0,0.0,327.0,890.0,0.0,1,1783.0,1
585,585,-0.8550641331669221,-0.9,0.0,1.0,362.0,598.0,0.0,1,2040.0,0
586,586,0.4914665395482295,0.5,0.0,0.0,299.0,580.0,0.0,1,2121.0,1
587,587,0.025243890595136986,0.0,1.0,1.0,411.0,514.0,0.0,0,2075.0,0
588,588,-0.38314957786574,-0.4,1.0,0.0,456.0,698.0,0.0,0,1846.0,1
589,589,-0.10313411835574737,-0.1,0.0,1.0,385.0,768.0,0.0,1,1847.0,0
590,590,0.38554325626409225,0.4,1.0,1.0,331.0,874.0,0.0,0,1795.0,0
591,591,0.21282759298739384,0.2,1.0,1.0,292.0,891.0,0.0,0,1817.0,0
592,592,-0.607142348906755,-0.6,1.0,0.0,437.0,602.0,0.0,0,-1029.0,1
593,593,0.11030905383775946,0.1,0.0,0.0,288.0,911.0,0.0,1,1801.0,1
594,594,-0.3672754993541141,-0.4,1.0,0.0,483.0,504.0,0.0,0,2013.0,1
595,595,0.31623278627234874,0.3,1.0,1.0,403.0,839.0,0.0,0,1758.0,0
596,596,-0.3329949883917105,-0.3,0.0,1.0,344.0,767.0,0.0,1,1889.0,0
597,597,-0.22942470013009286,-0.2,0.0,1.0,378.0,826.0,0.0,1,1796.0,0
598,598,-0.7149981724651022,-0.7,0.0,1.0,400.0,901.0,0.0,1,1699.0,0
599,599,0.45599064141168755,0.5,1.0,1.0,485.0,689.0,0.0,0,1826.0,0
600,600,-0.5640069041509326,-0.6,0.0,1.0,321.0,903.0,0.0,1,1776.0,0
601,601,-0.7353159495967175,-0.7,1.0,0.0,390.0,546.0,0.0,0,2064.0,1
602,602,-0.19396194048700055,-0.2,0.0,1.0,271.0,701.0,0.0,1,2028.0,0
603,603,0.6390196752285989,0.6,0.0,0.0,290.0,543.0,0.0,1,2167.0,1
604,604,-0.18670896137548254,-0.2,0.0,1.0,313.0,762.0,0.0,1,1925.0,0
605,605,0.21500004555797692,0.2,0.0,0.0,255.0,568.0,0.0,1,-813.0,1
606,606,0.1524081682275925,0.2,1.0,1.0,300.0,542.0,0.0,0,2158.0,0
607,607,-0.5421054171307832,-0.5,1.0,0.0,312.0,872.0,0.0,0,1816.0,1
608,608,-0.04272283703010493,-0.0,1.0,0.0,329.0,646.0,0.0,0,2025.0,1
609,609,-0.04402394050449454,-0.0,0.0,1.0,292.0,613.0,0.0,1,2095.0,0
610,610,-0.11107597400898728,-0.1,0.0,1.0,260.0,722.0,0.0,1,2018.0,0
611,611,0.39274870335279977,0.4,1.0,1.0,427.0,913.0,0.0,0,1660.0,0
612,612,-0.64399232093866,-0.6,0.0,1.0,493.0,880.0,0.0,1,1627.0,0
613,613,-0.8813119682516264,-0.9,1.0,0.0,468.0,563.0,0.0,0,1969.0,1
614,614,0.8430364333594443,0.8,0.0,0.0,378.0,624.0,0.0,1,1998.0,1
615,615,-0.4297728428596367,-0.4,1.0,0.0,257.0,812.0,0.0,0,1931.0,1
616,616,0.7547009885007606,0.8,0.0,0.0,392.0,555.0,0.0,1,2053.0,1
617,617,-0.2302617255085413,-0.2,1.0,0.0,257.0,978.0,0.0,0,1765.0,1
618,618,-0.3984360788553064,-0.4,0.0,1.0,466.0,990.0,0.0,1,1544.0,0
619,619,0.7640516121075863,0.8,0.0,0.0,271.0,814.0,0.0,1,1915.0,1
620,620,0.49977593562653355,0.5,1.0,1.0,492.0,749.0,0.0,0,1759.0,0
621,621,0.515659464700685,0.5,1.0,1.0,462.0,669.0,0.0,0,1869.0,0
622,622,0.8454195128248051,0.8,0.0,0.0,267.0,834.0,0.0,1,1899.0,1
623,623,-0.4218837473857881,-0.4,1.0,0.0,483.0,778.0,0.0,0,1739.0,1
624,624,0.25440539434755916,0.3,0.0,0.0,316.0,778.0,0.0,1,1906.0,1
625,625,-0.3786117446470877,-0.4,0.0,1.0,319.0,968.0,0.0,1,1713.0,0
626,626,0.8130151300893479,0.8,0.0,0.0,406.0,759.0,0.0,1,1835.0,1
627,627,-0.6172372375258708,-0.6,0.0,1.0,261.0,589.0,0.0,1,-710.0,0
628,628,0.33173605262492545,0.3,0.0,0.0,277.0,528.0,0.0,1,2195.0,1
629,629,-0.8323839114703279,-0.8,1.0,0.0,488.0,820.0,0.0,0,1692.0,1
630,630,-0.43614249085368967,-0.4,0.0,1.0,278.0,799.0,0.0,1,1923.0,0
631,631,0.6454162525040897,0.6,0.0,0.0,290.0,605.0,0.0,1,-715.0,1
632,632,-0.5420148450226357,-0.5,1.0,0.0,409.0,619.0,0.0,0,1972.0,1
633,633,0.7117790032719439,0.7,1.0,1.0,437.0,647.0,0.0,0,1916.0,0
634,634,-0.04524334862012036,-0.0,1.0,0.0,439.0,742.0,0.0,0,1819.0,1
635,635,-0.4404077002590053,-0.4,0.0,1.0,280.0,974.0,0.0,1,-1224.0,0
636,636,0.4696465248747298,0.5,1.0,1.0,472.0,593.0,0.0,0,1935.0,0
637,637,-0.1988756741349682,-0.2,0.0,1.0,341.0,994.0,0.0,1,1665.0,0
638,638,0.6588205080928261,0.7,1.0,1.0,301.0,649.0,0.0,0,2050.0,0
639,639,0.06082912585886158,0.1,1.0,1.0,370.0,842.0,1.0,1,-972.0,1
640,640,-0.6382252713061767,-0.6,0.0,1.0,251.0,849.0,0.0,1,1900.0,0
641,641,-0.5689270226247736,-0.6,0.0,1.0,325.0,829.0,0.0,1,1846.0,0
642,642,0.8664200875019713,0.9,0.0,0.0,481.0,618.0,0.0,1,1901.0,1
643,643,0.8450109878258302,0.8,0.0,0.0,336.0,595.0,0.0,1,2069.0,1
644,644,-0.5605415099500826,-0.6,1.0,0.0,272.0,762.0,0.0,0,1966.0,1
645,645,0.7227830858457619,0.7,1.0,1.0,404.0,856.0,1.0,1,-1070.0,1
646,646,0.1562622301249771,0.2,0.0,0.0,286.0,609.0,0.0,1,2105.0,1
647,647,0.8506351602320427,0.9,1.0,1.0,441.0,543.0,0.0,0,-914.0,0
648,648,0.79707065902329,0.8,0.0,0.0,378.0,578.0,0.0,1,2044.0,1
649,649,0.8949712948906187,0.9,1.0,1.0,411.0,609.0,0.0,0,1980.0,0
650,650,-0.7565755681520051,-0.8,0.0,1.0,430.0,519.0,0.0,1,2051.0,0
651,651,0.8695788863845116,0.9,0.0,0.0,303.0,810.0,0.0,1,1887.0,1
652,652,0.36454687395653795,0.4,1.0,1.0,493.0,822.0,0.0,0,1685.0,0
653,653,0.2801450625946035,0.3,0.0,0.0,341.0,909.0,0.0,1,1750.0,1
654,654,0.8133220240296025,0.8,0.0,0.0,354.0,526.0,0.0,1,2120.0,1
655,655,-0.34741053571318414,-0.3,0.0,1.0,253.0,730.0,0.0,1,2017.0,0
656,656,0.34728915417381157,0.3,1.0,1.0,331.0,673.0,0.0,0,1996.0,0
657,657,-0.3984606916283173,-0.4,1.0,0.0,307.0,823.0,0.0,0,1870.0,1
658,658,-0.7303334824309614,-0.7,1.0,0.0,370.0,886.0,0.0,0,1744.0,1
659,659,-0.6377644100514617,-0.6,0.0,1.0,433.0,535.0,0.0,1,2032.0,0
660,660,0.32233588241471633,0.3,1.0,1.0,255.0,712.0,0.0,0,2033.0,0
661,661,0.6792883039324727,0.7,0.0,0.0,467.0,515.0,0.0,1,2018.0,1
662,662,-0.5670918528070048,-0.6,0.0,1.0,288.0,688.0,0.0,1,2024.0,0
663,663,0.2260561422747952,0.2,1.0,1.0,302.0,709.0,0.0,0,1989.0,0
664,664,0.6080400319476073,0.6,1.0,1.0,354.0,541.0,1.0,1,-675.0,1
665,665,-0.26448020969594044,-0.3,1.0,0.0,365.0,657.0,0.0,0,1978.0,1
666,666,-0.01906798096330964,-0.0,1.0,0.0,401.0,539.0,0.0,0,2060.0,1
667,667,0.295237531302479,0.3,1.0,1.0,346.0,540.0,0.0,0,2114.0,0
668,668,-0.5240068643445633,-0.5,1.0,0.0,314.0,695.0,0.0,0,1991.0,1
669,669,0.6766151235384003,0.7,0.0,0.0,436.0,628.0,0.0,1,1936.0,1
670,670,0.5868312645048231,0.6,1.0,1.0,470.0,637.0,0.0,0,1893.0,0
671,671,-0.2277484752244744,-0.2,1.0,0.0,338.0,842.0,0.0,0,1820.0,1
672,672,0.6862635087415417,0.7,1.0,1.0,266.0,602.0,0.0,0,2132.0,0
673,673,0.5781735160481899,0.6,1.0,1.0,337.0,940.0,0.0,0,-1267.0,0
674,674,-0.6334152708570915,-0.6,0.0,1.0,351.0,779.0,0.0,1,1870.0,0
675,675,-0.1611511002467111,-0.2,1.0,0.0,348.0,851.0,0.0,0,1801.0,1
676,676,-0.8198700300973327,-0.8,0.0,1.0,482.0,709.0,0.0,1,1809.0,0
677,677,-0.5173594953848133,-0.5,0.0,1.0,302.0,738.0,0.0,1,1960.0,0
678,678,-0.4087156661323654,-0.4,0.0,1.0,276.0,891.0,0.0,1,1833.0,0
679,679,-0.6880923074554937,-0.7,1.0,0.0,325.0,999.0,0.0,0,1676.0,1
680,680,-0.8012488422407968,-0.8,1.0,0.0,271.0,934.0,0.0,0,1795.0,1
681,681,-0.42121094142021265,-0.4,1.0,0.0,374.0,728.0,0.0,0,1898.0,1
682,682,0.8530393757258755,0.9,1.0,1.0,294.0,635.0,0.0,0,2071.0,0
683,683,-0.7911880774294389,-0.8,0.0,1.0,496.0,989.0,0.0,1,1515.0,0
684,684,-0.29031510385936754,-0.3,0.0,1.0,365.0,767.0,0.0,1,1868.0,0
685,685,-0.23661167758381163,-0.2,1.0,0.0,418.0,731.0,0.0,0,1851.0,1
686,686,-0.3277958321130622,-0.3,0.0,1.0,412.0,670.0,0.0,1,1918.0,0
687,687,0.8584346961318635,0.9,1.0,1.0,267.0,528.0,0.0,0,2205.0,0
688,688,0.6143812569100283,0.6,1.0,1.0,327.0,973.0,0.0,0,1700.0,0
689,689,-0.6469858536967898,-0.6,0.0,1.0,272.0,858.0,0.0,1,1870.0,0
690,690,-0.2551776760330544,-0.3,0.0,1.0,433.0,588.0,0.0,1,1979.0,0
691,691,0.03690871474069346,0.0,1.0,1.0,276.0,610.0,0.0,0,2114.0,0
692,692,-0.01887028737659302,-0.0,0.0,1.0,277.0,634.0,0.0,1,-891.0,0
693,693,0.7395200315280529,0.7,0.0,0.0,376.0,582.0,0.0,1,2042.0,1
694,694,-0.3628539298729848,-0.4,1.0,0.0,472.0,811.0,0.0,0,1717.0,1
695,695,0.6132000161230321,0.6,1.0,1.0,393.0,911.0,0.0,0,1696.0,0
696,696,0.25631416135253915,0.3,0.0,0.0,479.0,552.0,0.0,1,1969.0,1
697,697,0.3396707613616635,0.3,0.0,0.0,419.0,508.0,0.0,1,2073.0,1
698,698,0.7268280299581266,0.7,0.0,0.0,278.0,989.0,0.0,1,1733.0,1
699,699,0.28681815334359684,0.3,0.0,0.0,289.0,872.0,0.0,1,1839.0,1
700,700,0.6595382252296834,0.7,1.0,1.0,413.0,528.0,0.0,0,2059.0,0
701,701,0.10160687845388872,0.1,0.0,0.0,435.0,995.0,0.0,1,1570.0,1
702,702,-0.3674419597862739,-0.4,1.0,0.0,255.0,975.0,0.0,0,-1230.0,1
703,703,-0.18790137671656548,-0.2,1.0,0.0,415.0,768.0,0.0,0,1817.0,1
704,704,0.03115103263504948,0.0,0.0,0.0,251.0,916.0,1.0,0,-937.0,0
705,705,-0.6159302838004007,-0.6,0.0,1.0,341.0,917.0,0.0,1,1742.0,0
706,706,-0.6221437648410795,-0.6,0.0,1.0,430.0,556.0,0.0,1,2014.0,0
707,707,0.7150281428939108,0.7,1.0,1.0,299.0,744.0,0.0,0,1957.0,0
708,708,-0.04384089859419171,-0.0,0.0,1.0,310.0,669.0,0.0,1,2021.0,0
709,709,0.3603848340425778,0.4,0.0,0.0,495.0,844.0,0.0,1,1661.0,1
710,710,0.67302159530942,0.7,0.0,0.0,466.0,836.0,0.0,1,1698.0,1
711,711,-0.6649793364997894,-0.7,0.0,1.0,347.0,545.0,0.0,1,2108.0,0
712,712,-0.36632053492947303,-0.4,1.0,0.0,431.0,865.0,0.0,0,1704.0,1
713,713,-0.3758219767085573,-0.4,0.0,1.0,260.0,927.0,0.0,1,1813.0,0
714,714,-0.06758711917885607,-0.1,0.0,1.0,331.0,741.0,0.0,1,1928.0,0
715,715,0.8442289928841699,0.8,0.0,0.0,347.0,692.0,0.0,1,1961.0,1
716,716,0.5015611644470624,0.5,1.0,1.0,424.0,557.0,0.0,0,2019.0,0
717,717,0.7010954970316364,0.7,0.0,0.0,385.0,639.0,0.0,1,-934.0,1
718,718,0.25977073356952507,0.3,1.0,1.0,395.0,764.0,0.0,0,1841.0,0
719,719,-0.34086938138178424,-0.3,1.0,0.0,342.0,903.0,1.0,1,-985.0,0
720,720,0.4155179708213511,0.4,0.0,0.0,415.0,972.0,0.0,1,1613.0,1
721,721,0.22074900332091552,0.2,0.0,0.0,477.0,699.0,0.0,1,1824.0,1
722,722,-0.5253768318662866,-0.5,0.0,1.0,260.0,710.0,0.0,1,2030.0,0
723,723,0.7984673996824555,0.8,0.0,0.0,261.0,739.0,0.0,1,2000.0,1
724,724,-0.18829141779892433,-0.2,1.0,0.0,277.0,656.0,0.0,0,2067.0,1
725,725,0.3087351456171409,0.3,1.0,1.0,379.0,940.0,0.0,0,1681.0,0
726,726,-0.05393143762411179,-0.1,1.0,0.0,488.0,713.0,0.0,0,1799.0,1
727,727,0.7260833157871008,0.7,1.0,1.0,317.0,983.0,0.0,0,1700.0,0
728,728,0.8069580622730316,0.8,0.0,0.0,382.0,899.0,0.0,1,1719.0,1
729,729,-0.22509642297144694,-0.2,1.0,0.0,307.0,652.0,0.0,0,-889.0,1
730,730,0.47417837998307155,0.5,1.0,1.0,465.0,598.0,0.0,0,1937.0,0
731,731,-0.08142887690595868,-0.1,1.0,0.0,265.0,804.0,0.0,0,1931.0,1
732,732,0.35724852073127356,0.4,0.0,0.0,363.0,952.0,0.0,1,1685.0,1
733,733,0.3799822881217322,0.4,0.0,0.0,356.0,896.0,0.0,1,1748.0,1
734,734,-0.12000802606567307,-0.1,0.0,1.0,447.0,528.0,0.0,1,2025.0,0
735,735,0.578513010484652,0.6,0.0,0.0,273.0,660.0,0.0,1,2067.0,1
736,736,0.08542580259522692,0.1,0.0,0.0,402.0,796.0,0.0,1,-1188.0,1
737,737,-0.5546927657241569,-0.6,0.0,1.0,400.0,840.0,0.0,1,1760.0,0
738,738,-0.6017153127048878,-0.6,0.0,1.0,421.0,761.0,0.0,1,1818.0,0
739,739,-0.13262306577329053,-0.1,1.0,0.0,253.0,508.0,0.0,0,2239.0,1
740,740,-0.256861486132946,-0.3,1.0,0.0,475.0,869.0,0.0,0,1656.0,1
741,741,-0.5663433656371251,-0.6,0.0,1.0,303.0,857.0,0.0,1,1840.0,0
742,742,0.20809149698248042,0.2,1.0,1.0,312.0,858.0,0.0,0,1830.0,0
743,743,-0.6166503637587224,-0.6,1.0,0.0,370.0,556.0,0.0,0,2074.0,1
744,744,0.11067774034608402,0.1,0.0,0.0,303.0,928.0,0.0,1,1769.0,1
745,745,-0.2576656373965781,-0.3,0.0,1.0,265.0,563.0,0.0,1,2172.0,0
746,746,0.5486369607993781,0.5,1.0,1.0,486.0,854.0,0.0,0,1660.0,0
747,747,-0.22461096262596003,-0.2,1.0,0.0,452.0,662.0,0.0,0,1886.0,1
748,748,-0.5743467300448373,-0.6,1.0,0.0,274.0,712.0,0.0,0,2014.0,1
749,749,0.6600150789951448,0.7,1.0,1.0,394.0,738.0,0.0,0,1868.0,0
750,750,-0.3718474771552377,-0.4,0.0,1.0,330.0,842.0,0.0,1,1828.0,0
751,751,-0.7666409527494322,-0.8,0.0,1.0,378.0,517.0,0.0,1,2105.0,0
752,752,0.35673874687835083,0.4,0.0,0.0,309.0,811.0,0.0,1,-1110.0,1
753,753,0.17295459076034414,0.2,1.0,1.0,351.0,703.0,0.0,0,1946.0,0
754,754,0.23036841698553678,0.2,0.0,0.0,493.0,579.0,0.0,1,1928.0,1
755,755,-0.5617265640295708,-0.6,1.0,0.0,252.0,626.0,0.0,0,2122.0,1
756,756,-0.33303177556822294,-0.3,1.0,0.0,361.0,882.0,0.0,0,1757.0,1
757,757,-0.8285901444100467,-0.8,1.0,0.0,336.0,899.0,0.0,0,1765.0,1
758,758,-0.05757073753720221,-0.1,1.0,0.0,290.0,728.0,0.0,0,1982.0,1
759,759,-0.01451819184864478,-0.0,1.0,0.0,257.0,870.0,0.0,0,1873.0,1
760,760,0.7925644169487659,0.8,0.0,0.0,453.0,695.0,0.0,1,1852.0,1
761,761,-0.5801731636418354,-0.6,0.0,1.0,335.0,753.0,0.0,1,1912.0,0
762,762,-0.17057665087992235,-0.2,0.0,1.0,338.0,844.0,0.0,1,1818.0,0
763,763,0.843857815638667,0.8,1.0,1.0,279.0,681.0,0.0,0,2040.0,0
764,764,-0.4838468920957014,-0.5,1.0,0.0,282.0,541.0,0.0,0,2177.0,1
765,765,0.4780509659954614,0.5,0.0,0.0,267.0,964.0,0.0,1,1769.0,1
766,766,-0.3960547077120009,-0.4,0.0,1.0,378.0,532.0,0.0,1,-860.0,0
767,767,0.7602897887785293,0.8,1.0,1.0,306.0,823.0,0.0,0,1871.0,0
768,768,0.36894972183688723,0.4,0.0,0.0,288.0,744.0,0.0,1,1968.0,1
769,769,0.7021142140841702,0.7,0.0,0.0,495.0,530.0,0.0,1,1975.0,1
770,770,0.008731314061931728,0.0,1.0,1.0,299.0,706.0,0.0,0,1995.0,0
771,771,0.7902533231867505,0.8,0.0,0.0,297.0,714.0,0.0,1,1989.0,1
772,772,0.087950390545259,0.1,1.0,1.0,428.0,793.0,0.0,0,1779.0,0
773,773,0.17003623863007256,0.2,1.0,1.0,476.0,857.0,0.0,0,1667.0,0
774,774,0.6931094577364038,0.7,1.0,1.0,305.0,836.0,0.0,0,1859.0,0
775,775,-0.6861459465678452,-0.7,1.0,0.0,307.0,545.0,0.0,0,2148.0,1
776,776,0.569882869926457,0.6,1.0,1.0,428.0,506.0,0.0,0,2066.0,0
777,777,0.8406478420825972,0.8,1.0,1.0,325.0,970.0,0.0,0,1705.0,0
778,778,-0.5461842409765278,-0.5,0.0,1.0,479.0,785.0,0.0,1,1736.0,0
779,779,0.38988763327536147,0.4,0.0,0.0,308.0,589.0,0.0,1,2103.0,1
780,780,-0.6911926193359674,-0.7,1.0,0.0,393.0,544.0,0.0,0,2063.0,1
781,781,0.8933221792956084,0.9,0.0,0.0,283.0,770.0,0.0,1,1947.0,1
782,782,0.26994055554877694,0.3,0.0,0.0,488.0,789.0,0.0,1,1723.0,1
783,783,0.1722483428979783,0.2,0.0,0.0,280.0,959.0,0.0,1,1761.0,1
784,784,0.44481803590119295,0.4,0.0,0.0,444.0,697.0,1.0,0,-911.0,0
785,785,0.8041271573223899,0.8,1.0,1.0,289.0,703.0,0.0,0,2008.0,0
786,786,-0.14216524228590965,-0.1,1.0,0.0,362.0,983.0,0.0,0,1655.0,1
787,787,-0.7939298641007503,-0.8,1.0,0.0,431.0,560.0,0.0,0,2009.0,1
788,788,0.4914478899586424,0.5,1.0,1.0,461.0,562.0,0.0,0,1977.0,0
789,789,0.5012381593828817,0.5,1.0,1.0,338.0,874.0,0.0,0,1788.0,0
790,790,-0.8801142260384892,-0.9,0.0,1.0,402.0,840.0,0.0,1,1758.0,0
791,791,0.7370925481982161,0.7,1.0,1.0,346.0,619.0,0.0,0,2035.0,0
792,792,-0.0235644389858386,-0.0,1.0,0.0,352.0,933.0,0.0,0,1715.0,1
793,793,0.04623755524625395,0.0,0.0,0.0,486.0,656.0,0.0,1,1858.0,1
794,794,-0.04294806426272235,-0.0,1.0,0.0,250.0,753.0,0.0,0,1997.0,1
795,795,-0.09533605540158696,-0.1,0.0,1.0,351.0,805.0,0.0,1,1844.0,0
796,796,-0.14101453250729445,-0.1,0.0,1.0,496.0,631.0,0.0,1,1873.0,0
797,797,0.3436823740652116,0.3,1.0,1.0,368.0,880.0,0.0,0,1752.0,0
798,798,-0.40888392029597886,-0.4,0.0,1.0,265.0,996.0,0.0,1,1739.0,0
799,799,0.32490939525670715,0.3,1.0,1.0,479.0,857.0,0.0,0,1664.0,0
800,800,-0.5396272364403819,-0.5,1.0,0.0,429.0,925.0,0.0,0,1646.0,1
801,801,-0.01175607988658467,-0.0,1.0,0.0,324.0,891.0,0.0,0,1785.0,1
802,802,-0.6665334379455705,-0.7,0.0,1.0,298.0,513.0,0.0,1,2189.0,0
803,803,0.8275779431440972,0.8,0.0,0.0,452.0,887.0,0.0,1,1661.0,1
804,804,0.768235767762301,0.8,0.0,0.0,269.0,578.0,0.0,1,2153.0,1
805,805,0.38098303317408855,0.4,0.0,0.0,425.0,796.0,0.0,1,1779.0,1
806,806,0.36862186856271706,0.4,0.0,0.0,330.0,580.0,0.0,1,2090.0,1
807,807,-0.4843869718841077,-0.5,1.0,0.0,321.0,742.0,0.0,0,1937.0,1
808,808,-0.4472319958844753,-0.4,1.0,0.0,356.0,999.0,0.0,0,1645.0,1
809,809,0.04054971691759779,0.0,0.0,0.0,454.0,868.0,0.0,1,1678.0,1
810,810,-0.8342753106377826,-0.8,1.0,0.0,274.0,514.0,0.0,0,2212.0,1
811,811,0.5401837007597433,0.5,0.0,0.0,337.0,954.0,0.0,1,1709.0,1
812,812,-0.35025833504028636,-0.4,1.0,0.0,360.0,763.0,0.0,0,-943.0,1
813,813,-0.8940959769197059,-0.9,1.0,0.0,297.0,793.0,0.0,0,1910.0,1
814,814,-0.6029828743580754,-0.6,1.0,0.0,269.0,984.0,0.0,0,1747.0,1
815,815,-0.16542107285284113,-0.2,0.0,1.0,386.0,705.0,0.0,1,1909.0,0
816,816,-0.1363156982956535,-0.1,0.0,1.0,347.0,648.0,0.0,1,2005.0,0
817,817,0.5045855725918668,0.5,0.0,0.0,478.0,717.0,0.0,1,1805.0,1
818,818,0.28242004579856583,0.3,1.0,1.0,314.0,941.0,1.0,1,-825.0,1
819,819,-0.294869306822921,-0.3,0.0,1.0,363.0,814.0,0.0,1,1823.0,0
820,820,-0.6203949922603479,-0.6,1.0,0.0,472.0,993.0,0.0,0,1535.0,1
821,821,0.7748112226604617,0.8,1.0,1.0,330.0,757.0,0.0,0,1913.0,0
822,822,-0.35296109411780296,-0.4,1.0,0.0,425.0,909.0,0.0,0,1666.0,1
823,823,0.628028273550629,0.6,1.0,1.0,315.0,781.0,0.0,0,1904.0,0
824,824,0.7482434428210675,0.7,1.0,1.0,307.0,909.0,0.0,0,1784.0,0
825,825,0.2359140399199432,0.2,0.0,0.0,301.0,506.0,0.0,1,2193.0,1
826,826,0.47212500666094537,0.5,1.0,1.0,498.0,827.0,0.0,0,-1325.0,0
827,827,-0.6587459880302671,-0.7,1.0,0.0,469.0,739.0,0.0,0,1792.0,1
828,828,0.7164633589434956,0.7,0.0,0.0,287.0,769.0,0.0,1,1944.0,1
829,829,-0.5555590099468113,-0.6,0.0,1.0,319.0,915.0,0.0,1,1766.0,0
830,830,0.5963778470486077,0.6,0.0,0.0,400.0,923.0,0.0,1,1677.0,1
831,831,0.6091837754240216,0.6,1.0,1.0,257.0,563.0,1.0,1,-540.0,1
832,832,-0.16411129849772488,-0.2,1.0,0.0,271.0,757.0,0.0,0,1972.0,1
833,833,0.6560844919480792,0.7,1.0,1.0,301.0,750.0,0.0,0,1949.0,0
834,834,0.465274914587991,0.5,1.0,1.0,360.0,512.0,0.0,0,2128.0,0
835,835,-0.49959661750343676,-0.5,0.0,1.0,275.0,692.0,0.0,1,2033.0,0
836,836,-0.21450957931761627,-0.2,1.0,0.0,467.0,912.0,1.0,1,-1129.0,0
837,837,0.8227387767001239,0.8,0.0,0.0,372.0,740.0,0.0,1,1888.0,1
838,838,0.09502215768476541,0.1,0.0,0.0,256.0,602.0,0.0,1,2142.0,1
839,839,0.02872655158817128,0.0,0.0,0.0,344.0,661.0,0.0,1,1995.0,1
840,840,-0.8512388076911834,-0.9,0.0,1.0,318.0,722.0,0.0,1,1960.0,0
841,841,0.4954592749668255,0.5,1.0,1.0,375.0,920.0,0.0,0,1705.0,0
842,842,0.43914086392361396,0.4,1.0,1.0,418.0,610.0,0.0,0,1972.0,0
843,843,-0.7985083144668386,-0.8,1.0,0.0,295.0,735.0,0.0,0,1970.0,1
844,844,0.07581694803106753,0.1,1.0,1.0,321.0,878.0,0.0,0,1801.0,0
845,845,0.5981730648220204,0.6,1.0,1.0,253.0,520.0,0.0,0,2227.0,0
846,846,0.3100479940546158,0.3,0.0,0.0,288.0,856.0,0.0,1,1856.0,1
847,847,0.6807241227436706,0.7,1.0,1.0,324.0,867.0,0.0,0,1809.0,0
848,848,-0.612294055210092,-0.6,0.0,1.0,344.0,995.0,0.0,1,1661.0,0
849,849,-0.42392929513161903,-0.4,0.0,1.0,404.0,556.0,0.0,1,-930.0,0
850,850,-0.22267279561840614,-0.2,1.0,0.0,400.0,962.0,0.0,0,1638.0,1
851,851,-0.41993562018886477,-0.4,1.0,0.0,372.0,857.0,0.0,0,1771.0,1
852,852,0.01663029651393988,0.0,0.0,0.0,322.0,978.0,0.0,1,1700.0,1
853,853,-0.2209717395021501,-0.2,0.0,1.0,429.0,688.0,0.0,1,1883.0,0
854,854,0.4437262158289289,0.4,0.0,0.0,411.0,597.0,0.0,1,1992.0,1
855,855,0.27109030271499657,0.3,1.0,1.0,429.0,796.0,0.0,0,1775.0,0
856,856,0.21826840372018597,0.2,0.0,0.0,331.0,516.0,0.0,1,-757.0,1
857,857,0.850387010462674,0.9,0.0,0.0,308.0,514.0,0.0,1,2178.0,1
858,858,-2.6249746031270504e-06,-0.0,0.0,1.0,303.0,701.0,0.0,1,1996.0,0
859,859,0.7274109283409945,0.7,0.0,0.0,286.0,947.0,0.0,1,1767.0,1
860,860,0.011968943573422042,0.0,0.0,0.0,353.0,660.0,0.0,1,1987.0,1
861,861,-0.6535105559917593,-0.7,0.0,1.0,413.0,793.0,0.0,1,1794.0,0
862,862,-0.10278638334440149,-0.1,0.0,1.0,259.0,552.0,0.0,1,2189.0,0
863,863,-0.8893040199612823,-0.9,1.0,0.0,316.0,895.0,1.0,1,-881.0,0
864,864,-0.010671426187785382,-0.0,0.0,1.0,251.0,695.0,0.0,1,2054.0,0
865,865,0.6769920185688448,0.7,1.0,1.0,423.0,784.0,0.0,0,1793.0,0
866,866,0.40795052882986915,0.4,1.0,1.0,273.0,569.0,0.0,0,2158.0,0
867,867,-0.7445647308285234,-0.7,1.0,0.0,330.0,729.0,0.0,0,1941.0,1
868,868,0.7039274242957195,0.7,0.0,0.0,468.0,918.0,0.0,1,1614.0,1
869,869,0.4556429039600359,0.5,1.0,1.0,480.0,629.0,0.0,0,1891.0,0
870,870,0.15039506150713333,0.2,0.0,0.0,298.0,647.0,0.0,1,2055.0,1
871,871,0.4134743154161765,0.4,1.0,1.0,395.0,984.0,0.0,0,1621.0,0
872,872,0.38546332418356,0.4,1.0,1.0,367.0,721.0,0.0,0,1912.0,0
873,873,-0.10330990432990328,-0.1,0.0,1.0,403.0,960.0,0.0,1,1637.0,0
874,874,-0.5055080297478163,-0.5,0.0,1.0,361.0,906.0,0.0,1,1733.0,0
875,875,-0.14385592617014276,-0.1,0.0,1.0,406.0,665.0,0.0,1,1929.0,0
876,876,0.43870310456666417,0.4,1.0,1.0,373.0,926.0,0.0,0,1701.0,0
877,877,-0.6148366713097215,-0.6,1.0,0.0,380.0,854.0,0.0,0,1766.0,1
878,878,0.42534784233914646,0.4,1.0,1.0,394.0,866.0,0.0,0,1740.0,0
879,879,0.6329827967215426,0.6,0.0,0.0,251.0,931.0,0.0,1,1818.0,1
880,880,-0.2026964449505102,-0.2,0.0,1.0,344.0,688.0,0.0,1,1968.0,0
881,881,-0.6860674907463961,-0.7,1.0,0.0,270.0,540.0,0.0,0,2190.0,1
882,882,0.5618495421865838,0.6,0.0,0.0,400.0,636.0,0.0,1,1964.0,1
883,883,0.5361452536814114,0.5,1.0,1.0,326.0,882.0,0.0,0,1792.0,0
884,884,-0.5186847475916911,-0.5,0.0,1.0,403.0,702.0,0.0,1,1895.0,0
885,885,-0.47092614927851956,-0.5,1.0,0.0,264.0,846.0,0.0,0,1890.0,1
886,886,0.39444208858868846,0.4,0.0,0.0,482.0,745.0,0.0,1,1773.0,1
887,887,-0.5978301200074049,-0.6,0.0,1.0,337.0,609.0,0.0,1,2054.0,0
888,888,0.30068108774087643,0.3,0.0,0.0,422.0,796.0,0.0,1,1782.0,1
889,889,0.0014913001787686397,0.0,1.0,1.0,414.0,874.0,0.0,0,1712.0,0
890,890,-0.0484960891993631,-0.0,1.0,0.0,450.0,602.0,0.0,0,1948.0,1
891,891,0.29051492083072905,0.3,0.0,0.0,304.0,679.0,0.0,1,2017.0,1
892,892,-0.1760821321197984,-0.2,1.0,0.0,431.0,812.0,0.0,0,1757.0,1
893,893,-0.6979718901455139,-0.7,1.0,0.0,463.0,514.0,0.0,0,2023.0,1
894,894,-0.3375157081042671,-0.3,1.0,0.0,490.0,527.0,0.0,0,1983.0,1
895,895,-0.6956415742196643,-0.7,0.0,1.0,390.0,810.0,0.0,1,1800.0,0
896,896,-0.7482997650151442,-0.7,1.0,0.0,440.0,541.0,0.0,0,2019.0,1
897,897,0.491496613073514,0.5,1.0,1.0,427.0,890.0,0.0,0,1683.0,0
898,898,0.12345754325435776,0.1,0.0,0.0,341.0,718.0,0.0,1,1941.0,1
899,899,-0.15232984233623992,-0.2,1.0,0.0,481.0,578.0,0.0,0,1941.0,1
900,900,-0.4307088162427823,-0.4,0.0,1.0,394.0,763.0,0.0,1,1843.0,0
901,901,-0.8035071529820634,-0.8,0.0,1.0,376.0,932.0,0.0,1,1692.0,0
902,902,-0.5132980022989202,-0.5,0.0,1.0,477.0,647.0,0.0,1,1876.0,0
903,903,0.3836040099587318,0.4,1.0,1.0,460.0,541.0,0.0,0,1999.0,0
904,904,0.8015041103879771,0.8,1.0,1.0,403.0,610.0,0.0,0,-903.0,0
905,905,-0.26682345101208627,-0.3,1.0,0.0,346.0,674.0,0.0,0,1980.0,1
906,906,-0.23647746724894436,-0.2,1.0,0.0,397.0,895.0,0.0,0,1708.0,1
907,907,0.611791263389326,0.6,1.0,1.0,322.0,588.0,0.0,0,2090.0,0
908,908,0.14005296142063284,0.1,0.0,0.0,403.0,534.0,0.0,1,2063.0,1
909,909,0.751287625447847,0.8,0.0,0.0,397.0,839.0,0.0,1,1764.0,1
910,910,0.2973088830928724,0.3,0.0,0.0,483.0,500.0,0.0,1,2017.0,1
911,911,-0.4247490576969359,-0.4,0.0,1.0,388.0,893.0,0.0,1,1719.0,0
912,912,-0.07966570596965983,-0.1,1.0,0.0,345.0,741.0,0.0,0,1914.0,1
913,913,0.7334544554187509,0.7,1.0,1.0,370.0,601.0,0.0,0,2029.0,0
914,914,-0.8134859358694929,-0.8,1.0,0.0,435.0,587.0,0.0,0,1978.0,1
915,915,-0.09977130015508218,-0.1,0.0,1.0,289.0,880.0,0.0,1,1831.0,0
916,916,-0.05758776355915951,-0.1,0.0,1.0,369.0,624.0,0.0,1,2007.0,0
917,917,-0.16344068647828724,-0.2,1.0,0.0,310.0,752.0,0.0,0,1938.0,1
918,918,-0.14942095098285335,-0.1,1.0,0.0,423.0,547.0,0.0,0,2030.0,1
919,919,-0.04074216526010832,-0.0,0.0,1.0,376.0,713.0,0.0,1,1911.0,0
920,920,0.019334869607844696,0.0,1.0,1.0,373.0,612.0,0.0,0,-915.0,0
921,921,-0.4494797528486754,-0.4,1.0,0.0,417.0,772.0,0.0,0,1811.0,1
922,922,-0.22343367580337203,-0.2,1.0,0.0,404.0,792.0,0.0,0,1804.0,1
923,923,0.5047804245714439,0.5,1.0,1.0,312.0,542.0,0.0,0,2146.0,0
924,924,0.027424353151507486,0.0,0.0,0.0,429.0,543.0,0.0,1,2028.0,1
925,925,0.7691626058679847,0.8,1.0,1.0,257.0,888.0,0.0,0,1855.0,0
926,926,-0.8774839798202557,-0.9,1.0,0.0,328.0,519.0,0.0,0,2153.0,1
927,927,-0.2822482254893527,-0.3,0.0,1.0,496.0,735.0,0.0,1,1769.0,0
928,928,0.17193287778788557,0.2,0.0,0.0,318.0,655.0,0.0,1,2027.0,1
929,929,-0.40645777842231473,-0.4,1.0,0.0,350.0,951.0,0.0,0,1699.0,1
930,930,-0.14080280701652093,-0.1,1.0,0.0,476.0,687.0,0.0,0,1837.0,1
931,931,0.09864277380405373,0.1,0.0,0.0,311.0,662.0,0.0,1,2027.0,1
932,932,0.657229672235682,0.7,1.0,1.0,392.0,638.0,0.0,0,1970.0,0
933,933,0.8446850182879687,0.8,0.0,0.0,331.0,728.0,0.0,1,1941.0,1
934,934,-0.422417804873285,-0.4,1.0,0.0,377.0,644.0,0.0,0,1979.0,1
935,935,-0.05959768498366458,-0.1,0.0,1.0,275.0,891.0,0.0,1,1834.0,0
936,936,0.4603096490616537,0.5,1.0,1.0,490.0,527.0,0.0,0,1983.0,0
937,937,-0.11827599800682509,-0.1,1.0,0.0,328.0,825.0,0.0,0,-1123.0,1
938,938,-0.5632432179963631,-0.6,1.0,0.0,449.0,759.0,0.0,0,1792.0,1
939,939,-0.012380152001551736,-0.0,0.0,1.0,353.0,526.0,0.0,1,2121.0,0
940,940,-0.20550424145718826,-0.2,1.0,0.0,283.0,586.0,0.0,0,2131.0,1
941,941,0.5842080563208821,0.6,1.0,1.0,371.0,874.0,0.0,0,1755.0,0
942,942,-0.12683584686090754,-0.1,1.0,0.0,468.0,669.0,0.0,0,1863.0,1
943,943,0.27188520141423955,0.3,0.0,0.0,339.0,538.0,0.0,1,2123.0,1
944,944,-0.08250721173622211,-0.1,1.0,0.0,438.0,676.0,0.0,0,1886.0,1
945,945,0.4718216706113193,0.5,0.0,0.0,320.0,586.0,0.0,1,2094.0,1
946,946,0.8534128070276373,0.9,0.0,0.0,345.0,549.0,0.0,1,2106.0,1
947,947,-0.06490618703233475,-0.1,0.0,1.0,445.0,780.0,0.0,1,1775.0,0
948,948,0.17929987783386403,0.2,1.0,1.0,337.0,602.0,0.0,0,2061.0,0
949,949,-0.7260368695952233,-0.7,0.0,1.0,411.0,835.0,0.0,1,1754.0,0
950,950,-0.22444129008453495,-0.2,0.0,1.0,400.0,969.0,0.0,1,1631.0,0
951,951,0.8533710905224562,0.9,0.0,0.0,319.0,614.0,0.0,1,2067.0,1
952,952,0.654420423934328,0.7,0.0,0.0,303.0,847.0,0.0,1,1850.0,1
953,953,0.8240905535453514,0.8,1.0,1.0,286.0,561.0,0.0,0,2153.0,0
954,954,-0.3142329853689253,-0.3,1.0,0.0,318.0,611.0,0.0,0,2071.0,1
955,955,-0.19635547932662256,-0.2,1.0,0.0,450.0,959.0,0.0,0,1591.0,1
956,956,0.24930010396549485,0.2,0.0,0.0,308.0,649.0,0.0,1,2043.0,1
957,957,-0.2139962704471201,-0.2,0.0,1.0,269.0,594.0,0.0,1,2137.0,0
958,958,-0.6075096616067649,-0.6,0.0,1.0,366.0,556.0,0.0,1,-882.0,0
959,959,0.7510657345457677,0.8,0.0,0.0,309.0,790.0,0.0,1,1901.0,1
960,960,0.028846084593095678,0.0,1.0,1.0,256.0,715.0,0.0,0,2029.0,0
961,961,-0.2402590335621403,-0.2,1.0,0.0,446.0,557.0,0.0,0,1997.0,1
962,962,-0.5035818628633992,-0.5,1.0,0.0,450.0,749.0,0.0,0,1801.0,1
963,963,-0.833973734355739,-0.8,1.0,0.0,294.0,914.0,0.0,0,1792.0,1
964,964,0.26768652016866057,0.3,0.0,0.0,393.0,520.0,0.0,1,2087.0,1
965,965,-0.5796955060871865,-0.6,1.0,0.0,492.0,578.0,0.0,0,1930.0,1
966,966,0.8614589762892474,0.9,0.0,0.0,387.0,702.0,0.0,1,1911.0,1
967,967,0.19753093151540335,0.2,0.0,0.0,348.0,518.0,0.0,1,2134.0,1
968,968,-0.41524382004234794,-0.4,0.0,1.0,286.0,525.0,0.0,1,2189.0,0
969,969,-0.561736204649633,-0.6,1.0,0.0,409.0,622.0,0.0,0,1969.0,1
970,970,0.26216548763128344,0.3,0.0,0.0,467.0,736.0,1.0,0,-1153.0,0
971,971,-0.6523458453623184,-0.7,0.0,1.0,322.0,537.0,0.0,1,2141.0,0
972,972,-0.6006088036131895,-0.6,1.0,0.0,391.0,527.0,0.0,0,2082.0,1
973,973,0.22660764322606342,0.2,1.0,1.0,468.0,945.0,0.0,0,1587.0,0
974,974,0.865377100475114,0.9,1.0,1.0,302.0,903.0,0.0,0,1795.0,0
975,975,-0.711208891561743,-0.7,0.0,1.0,303.0,778.0,0.0,1,1919.0,0
976,976,-0.874452450263599,-0.9,0.0,1.0,489.0,788.0,0.0,1,1723.0,0
977,977,0.427021547596128,0.4,0.0,0.0,491.0,750.0,0.0,1,1759.0,1
978,978,0.619373513438202,0.6,1.0,1.0,359.0,555.0,0.0,0,2086.0,0
979,979,-0.23033147107960006,-0.2,0.0,1.0,388.0,716.0,0.0,1,1896.0,0
980,980,0.747456513553964,0.7,0.0,0.0,325.0,925.0,0.0,1,1750.0,1
981,981,0.7086957392763559,0.7,1.0,1.0,359.0,558.0,0.0,0,2083.0,0
982,982,-0.27563223903665945,-0.3,0.0,1.0,310.0,727.0,0.0,1,-1027.0,0
983,983,-0.8900717844197721,-0.9,0.0,1.0,430.0,961.0,0.0,1,1609.0,0
984,984,0.7952484783667407,0.8,1.0,1.0,442.0,836.0,1.0,1,-1248.0,1
985,985,-0.21628166315736086,-0.2,1.0,0.0,320.0,644.0,0.0,0,2036.0,1
986,986,0.8733192519551377,0.9,0.0,0.0,310.0,596.0,0.0,1,2094.0,1
987,987,-0.8927465137219652,-0.9,0.0,1.0,360.0,526.0,0.0,1,2114.0,0
988,988,0.7605846291025368,0.8,1.0,1.0,492.0,810.0,0.0,0,1698.0,0
989,989,0.17692780328451685,0.2,0.0,0.0,403.0,711.0,0.0,1,1886.0,1
990,990,0.51981583008125,0.5,1.0,1.0,428.0,721.0,0.0,0,1851.0,0
991,991,-0.7435865863944598,-0.7,1.0,0.0,329.0,730.0,0.0,0,1941.0,1
992,992,0.4626097596821851,0.5,0.0,0.0,342.0,821.0,0.0,1,1837.0,1
993,993,-0.6164438310975697,-0.6,1.0,0.0,416.0,685.0,0.0,0,1899.0,1
994,994,0.03129222431115741,0.0,0.0,0.0,322.0,877.0,0.0,1,1801.0,1
995,995,0.8180387023305505,0.8,0.0,0.0,453.0,824.0,0.0,1,1723.0,1
996,996,0.06530225558599856,0.1,1.0,1.0,269.0,611.0,0.0,0,2120.0,0
997,997,-0.43525413507183325,-0.4,0.0,1.0,256.0,534.0,0.0,1,2210.0,0
998,998,0.8527425712368254,0.9,1.0,1.0,328.0,751.0,0.0,0,1921.0,0
999,999,-0.39499555563174393,-0.4,1.0,0.0,437.0,521.0,0.0,0,2042.0,1
1000,1000,-0.39192405912290895,-0.4,0.0,1.0,338.0,648.0,0.0,1,2014.0,0
1001,1001,0.7217551916192572,0.7,0.0,0.0,381.0,549.0,0.0,1,2070.0,1
1002,1002,-0.006348170929963759,-0.0,0.0,1.0,302.0,549.0,0.0,1,2149.0,0
1003,1003,0.330902782162274,0.3,1.0,1.0,261.0,730.0,0.0,0,2009.0,0
1004,1004,-0.27176915590225637,-0.3,0.0,1.0,286.0,557.0,0.0,1,2157.0,0
1005,1005,-0.5218274745976993,-0.5,0.0,1.0,420.0,868.0,0.0,1,1712.0,0
1006,1006,-0.42152919798884025,-0.4,0.0,1.0,306.0,587.0,0.0,1,2107.0,0
1007,1007,0.33780513667769496,0.3,1.0,1.0,446.0,734.0,0.0,0,1820.0,0
1008,1008,0.25044159816720557,0.3,0.0,0.0,261.0,986.0,0.0,1,1753.0,1
1009,1009,0.7036331588705221,0.7,0.0,0.0,258.0,547.0,0.0,1,2195.0,1
1010,1010,0.8129914110961517,0.8,1.0,1.0,301.0,821.0,0.0,0,1878.0,0
1011,1011,-0.04935903867464808,-0.0,1.0,0.0,360.0,686.0,0.0,0,1954.0,1
1012,1012,0.7434164470598738,0.7,0.0,0.0,484.0,735.0,0.0,1,1781.0,1
1013,1013,-0.17049024019138603,-0.2,0.0,1.0,388.0,510.0,0.0,1,2102.0,0
1014,1014,0.04118398548648661,0.0,0.0,0.0,471.0,745.0,1.0,0,-996.0,0
1015,1015,0.18870607313766363,0.2,1.0,1.0,393.0,905.0,0.0,0,1702.0,0
1016,1016,-0.8948250826480451,-0.9,1.0,0.0,429.0,689.0,0.0,0,1882.0,1
1017,1017,-0.8481358229015241,-0.8,1.0,0.0,359.0,760.0,0.0,0,1881.0,1
1018,1018,-0.5979483635264415,-0.6,1.0,0.0,490.0,809.0,0.0,0,1701.0,1
1019,1019,-0.8273017473452374,-0.8,0.0,1.0,355.0,981.0,0.0,1,1664.0,0
1020,1020,-0.32220899872861,-0.3,1.0,0.0,341.0,760.0,0.0,0,1899.0,1
1021,1021,-0.4457421569140105,-0.4,1.0,0.0,403.0,797.0,0.0,0,1800.0,1
1022,1022,-0.8953866931837945,-0.9,0.0,1.0,370.0,546.0,0.0,1,2084.0,0
1023,1023,-0.6247660433817465,-0.6,0.0,1.0,379.0,688.0,0.0,1,1933.0,0
1024,1024,0.18997378698436018,0.2,0.0,0.0,325.0,827.0,0.0,1,-1112.0,1
1025,1025,-0.862946892544079,-0.9,1.0,0.0,490.0,613.0,0.0,0,1897.0,1
1026,1026,-0.5978631569557117,-0.6,0.0,1.0,356.0,759.0,0.0,1,1885.0,0
1027,1027,-0.38366396169954964,-0.4,1.0,0.0,397.0,726.0,0.0,0,1877.0,1
1028,1028,0.23554251167147922,0.2,1.0,1.0,316.0,957.0,0.0,0,1727.0,0
1029,1029,-0.6807215255441289,-0.7,0.0,1.0,469.0,884.0,0.0,1,1647.0,0
1030,1030,-0.31665448264105844,-0.3,1.0,0.0,459.0,910.0,0.0,0,1631.0,1
1031,1031,0.3151504426162014,0.3,0.0,0.0,491.0,687.0,0.0,1,1822.0,1
1032,1032,0.07215794341774762,0.1,0.0,0.0,431.0,584.0,0.0,1,1985.0,1
1033,1033,-0.5465202173980901,-0.5,0.0,1.0,268.0,502.0,0.0,1,2230.0,0
1034,1034,0.17588874224461593,0.2,1.0,1.0,437.0,747.0,0.0,0,1816.0,0
1035,1035,0.356970889575554,0.4,0.0,0.0,326.0,838.0,0.0,1,1836.0,1
1036,1036,-0.09605394646397458,-0.1,1.0,0.0,264.0,597.0,0.0,0,2139.0,1
1037,1037,0.6337699089392365,0.6,0.0,0.0,418.0,507.0,0.0,1,2075.0,1
1038,1038,-0.2797937428441236,-0.3,1.0,0.0,379.0,620.0,0.0,0,2001.0,1
1039,1039,0.8667117389955047,0.9,0.0,0.0,463.0,912.0,0.0,1,1625.0,1
1040,1040,-0.3610123515845235,-0.4,1.0,0.0,278.0,612.0,1.0,1,-760.0,0
1041,1041,-0.44943957027777415,-0.4,1.0,0.0,440.0,988.0,0.0,0,1572.0,1
1042,1042,0.2831845987731386,0.3,1.0,1.0,425.0,779.0,0.0,0,1796.0,0
1043,1043,0.5422274612527099,0.5,1.0,1.0,462.0,926.0,0.0,0,1612.0,0
1044,1044,0.6262776565409832,0.6,0.0,0.0,315.0,763.0,0.0,1,1922.0,1
1045,1045,0.16121009919176232,0.2,1.0,1.0,327.0,798.0,0.0,0,1875.0,0
1046,1046,0.7191584545000526,0.7,1.0,1.0,482.0,566.0,0.0,0,1952.0,0
1047,1047,-0.8803808575282348,-0.9,0.0,1.0,270.0,524.0,0.0,1,2206.0,0
1048,1048,0.7268040978290055,0.7,1.0,1.0,356.0,849.0,0.0,0,1795.0,0
1049,1049,-0.12695938154737174,-0.1,1.0,0.0,455.0,922.0,0.0,0,1623.0,1
1050,1050,-0.765306409320823,-0.8,0.0,1.0,255.0,860.0,0.0,1,1885.0,0
1051,1051,0.4522607736040011,0.5,1.0,1.0,396.0,965.0,0.0,0,1639.0,0
1052,1052,-0.6700722339606333,-0.7,0.0,1.0,256.0,729.0,0.0,1,2015.0,0
1053,1053,-0.2698339097390694,-0.3,1.0,0.0,418.0,644.0,0.0,0,1938.0,1
1054,1054,-0.6631760634282448,-0.7,0.0,1.0,492.0,592.0,1.0,0,-934.0,1
1055,1055,0.7686068916572412,0.8,0.0,0.0,340.0,979.0,0.0,1,1681.0,1
1056,1056,0.7271715050911255,0.7,1.0,1.0,323.0,681.0,0.0,0,1996.0,0
1057,1057,0.5083203470393051,0.5,1.0,1.0,328.0,607.0,0.0,0,2065.0,0
1058,1058,0.3568172443689347,0.4,0.0,0.0,386.0,721.0,0.0,1,1893.0,1
1059,1059,0.7533884673212917,0.8,1.0,1.0,389.0,570.0,0.0,0,2041.0,0
1060,1060,0.8326023823450294,0.8,0.0,0.0,256.0,820.0,0.0,1,1924.0,1
1061,1061,-0.08841278039197553,-0.1,0.0,1.0,416.0,601.0,0.0,1,1983.0,0
1062,1062,0.003935805785678426,0.0,1.0,1.0,497.0,560.0,0.0,0,1943.0,0
1063,1063,0.8623212258476024,0.9,1.0,1.0,372.0,867.0,0.0,0,1761.0,0
1064,1064,-0.2302484196525597,-0.2,1.0,0.0,465.0,530.0,0.0,0,2005.0,1
1065,1065,-0.09119121100775496,-0.1,0.0,1.0,408.0,894.0,0.0,1,1698.0,0
1066,1066,-0.6108092709992062,-0.6,0.0,1.0,330.0,590.0,0.0,1,2080.0,0
1067,1067,0.194220240879874,0.2,1.0,1.0,314.0,926.0,0.0,0,1760.0,0
1068,1068,-0.6464418812810497,-0.6,0.0,1.0,371.0,817.0,0.0,1,1812.0,0
1069,1069,-0.3099170353113109,-0.3,1.0,0.0,374.0,906.0,0.0,0,1720.0,1
1070,1070,-0.7260486089733934,-0.7,1.0,0.0,302.0,802.0,0.0,0,1896.0,1
1071,1071,-0.729422884113968,-0.7,1.0,0.0,423.0,695.0,0.0,0,-1078.0,1
1072,1072,0.12163407264549908,0.1,0.0,0.0,322.0,972.0,0.0,1,1706.0,1
1073,1073,0.8235817718317117,0.8,0.0,0.0,442.0,630.0,0.0,1,1928.0,1
1074,1074,0.4399660704518097,0.4,0.0,0.0,324.0,974.0,0.0,1,1702.0,1
1075,1075,-0.10255551746714109,-0.1,1.0,0.0,465.0,640.0,0.0,0,1895.0,1
1076,1076,0.3123212428682379,0.3,0.0,0.0,490.0,968.0,0.0,1,-1308.0,1
1077,1077,0.7003787096055688,0.7,1.0,1.0,498.0,796.0,0.0,0,-1244.0,0
1078,1078,0.8187968725182727,0.8,1.0,1.0,401.0,545.0,0.0,0,2054.0,0
1079,1079,0.3259736742363687,0.3,1.0,1.0,354.0,766.0,0.0,0,1880.0,0
1080,1080,0.23747851328254466,0.2,0.0,0.0,460.0,940.0,0.0,1,1600.0,1
1081,1081,0.7744407950121269,0.8,1.0,1.0,287.0,642.0,0.0,0,2071.0,0
1082,1082,-0.5580030653789108,-0.6,1.0,0.0,330.0,776.0,0.0,0,1894.0,1
1083,1083,-0.6422536998934083,-0.6,0.0,1.0,496.0,579.0,0.0,1,1925.0,0
1084,1084,0.8203117078278276,0.8,1.0,1.0,293.0,766.0,0.0,0,1941.0,0
1085,1085,0.41376850751011396,0.4,1.0,1.0,292.0,780.0,0.0,0,1928.0,0
1086,1086,-0.7297199970093853,-0.7,0.0,1.0,335.0,806.0,0.0,1,1859.0,0
1087,1087,-0.21968664370783242,-0.2,0.0,1.0,450.0,832.0,0.0,1,1718.0,0
1088,1088,0.16620418272999105,0.2,1.0,1.0,306.0,657.0,0.0,0,2037.0,0
1089,1089,-0.0954085342309674,-0.1,0.0,1.0,398.0,925.0,0.0,1,1677.0,0
1090,1090,0.0675752598999656,0.1,0.0,0.0,484.0,555.0,0.0,1,1961.0,1
1091,1091,-0.8606426584565683,-0.9,1.0,0.0,435.0,669.0,0.0,0,1896.0,1
1092,1092,0.5108534486721393,0.5,1.0,1.0,444.0,815.0,0.0,0,1741.0,0
1093,1093,0.5629048855536757,0.6,0.0,0.0,307.0,582.0,0.0,1,2111.0,1
1094,1094,-0.6342882049292926,-0.6,1.0,0.0,304.0,935.0,0.0,0,1761.0,1
1095,1095,-0.5994221266059906,-0.6,0.0,1.0,376.0,558.0,0.0,1,2066.0,0
1096,1096,-0.586271421266759,-0.6,0.0,1.0,348.0,539.0,0.0,1,2113.0,0
1097,1097,0.12389054929646737,0.1,1.0,1.0,402.0,625.0,0.0,0,1973.0,0
1098,1098,-0.1823187131165378,-0.2,1.0,0.0,323.0,613.0,0.0,0,2064.0,1
1099,1099,-0.2850249357568635,-0.3,0.0,1.0,260.0,870.0,0.0,1,1870.0,0
1100,1100,-0.0859421857595476,-0.1,0.0,1.0,309.0,946.0,0.0,1,1745.0,0
1101,1101,-0.07921852610057967,-0.1,0.0,1.0,304.0,827.0,0.0,1,1869.0,0
1102,1102,0.5155712587151694,0.5,0.0,0.0,327.0,771.0,0.0,1,1902.0,1
1103,1103,-0.43478422155372404,-0.4,0.0,1.0,336.0,973.0,0.0,1,1691.0,0
1104,1104,0.35395303759253716,0.4,1.0,1.0,321.0,791.0,0.0,0,1888.0,0
1105,1105,0.36171770560398386,0.4,0.0,0.0,356.0,922.0,0.0,1,1722.0,1
1106,1106,0.4502461563422212,0.5,1.0,1.0,452.0,921.0,0.0,0,1627.0,0
1107,1107,-0.37570903513135057,-0.4,0.0,1.0,297.0,871.0,0.0,1,1832.0,0
1108,1108,0.22523841426981972,0.2,0.0,0.0,353.0,557.0,0.0,1,2090.0,1
1109,1109,-0.7888161368379214,-0.8,0.0,1.0,264.0,641.0,0.0,1,2095.0,0
1110,1110,0.14200101099687468,0.1,0.0,0.0,484.0,846.0,0.0,1,1670.0,1
1111,1111,0.8973580431024727,0.9,1.0,1.0,432.0,868.0,0.0,0,1700.0,0
1112,1112,0.6876030137963195,0.7,1.0,1.0,496.0,991.0,0.0,0,1513.0,0
1113,1113,0.4161494256259103,0.4,1.0,1.0,292.0,576.0,0.0,0,2132.0,0
1114,1114,0.10931663517628365,0.1,1.0,1.0,495.0,978.0,0.0,0,1527.0,0
1115,1115,0.131262022133653,0.1,0.0,0.0,305.0,790.0,0.0,1,1905.0,1
1116,1116,-0.20791644801580045,-0.2,0.0,1.0,294.0,785.0,0.0,1,1921.0,0
1117,1117,-0.2221417643831266,-0.2,0.0,1.0,458.0,617.0,0.0,1,1925.0,0
1118,1118,0.6391879519299778,0.6,1.0,1.0,281.0,550.0,0.0,0,-681.0,0
1119,1119,-0.026801543034194353,-0.0,1.0,0.0,358.0,592.0,0.0,0,2050.0,1
1120,1120,0.8369086302418053,0.8,1.0,1.0,344.0,512.0,0.0,0,-816.0,0
1121,1121,0.09559630918871076,0.1,0.0,0.0,336.0,544.0,0.0,1,2120.0,1
1122,1122,-0.8188392239445638,-0.8,1.0,0.0,341.0,532.0,0.0,0,2127.0,1
1123,1123,0.11218169692076752,0.1,1.0,1.0,458.0,678.0,0.0,0,1864.0,0
1124,1124,0.5704942573544377,0.6,1.0,1.0,268.0,855.0,0.0,0,1877.0,0
1125,1125,0.08814773517070706,0.1,1.0,1.0,306.0,612.0,0.0,0,2082.0,0
1126,1126,0.06653253606958598,0.1,0.0,0.0,376.0,673.0,0.0,1,1951.0,1
1127,1127,-0.5125976550888949,-0.5,1.0,0.0,261.0,774.0,0.0,0,-915.0,1
1128,1128,-0.2749655812774525,-0.3,0.0,1.0,401.0,671.0,0.0,1,1928.0,0
1129,1129,-0.23831518482458935,-0.2,1.0,0.0,285.0,764.0,0.0,0,1951.0,1
1130,1130,-0.7182853810425986,-0.7,1.0,0.0,386.0,917.0,0.0,0,1697.0,1
1131,1131,0.7122956444337715,0.7,1.0,1.0,311.0,885.0,0.0,0,1804.0,0
1132,1132,-0.7721866419154771,-0.8,0.0,1.0,402.0,649.0,0.0,1,1949.0,0
1133,1133,-0.29226872216696165,-0.3,0.0,1.0,413.0,695.0,0.0,1,1892.0,0
1134,1134,0.6034846232604355,0.6,0.0,0.0,282.0,669.0,0.0,1,2049.0,1
1135,1135,-0.5150469477143067,-0.5,1.0,0.0,390.0,865.0,0.0,0,1745.0,1
1136,1136,-0.33882466051020765,-0.3,1.0,0.0,330.0,643.0,0.0,0,2027.0,1
1137,1137,-0.22751459752840264,-0.2,0.0,1.0,425.0,657.0,0.0,1,1918.0,0
1138,1138,0.2605790835827436,0.3,0.0,0.0,262.0,984.0,0.0,1,1754.0,1
1139,1139,0.5379951970986842,0.5,0.0,0.0,288.0,749.0,1.0,0,-977.0,0
1140,1140,-0.4480841804240541,-0.4,0.0,1.0,469.0,718.0,0.0,1,1813.0,0
1141,1141,0.7409462823391991,0.7,0.0,0.0,499.0,742.0,0.0,1,1759.0,1
1142,1142,0.6657228798282847,0.7,0.0,0.0,421.0,643.0,0.0,1,1936.0,1
1143,1143,-0.33975003287022454,-0.3,0.0,1.0,497.0,526.0,0.0,1,1977.0,0
1144,1144,-0.5906582655886576,-0.6,0.0,1.0,388.0,778.0,0.0,1,1834.0,0
1145,1145,0.1892419073550614,0.2,0.0,0.0,483.0,805.0,0.0,1,1712.0,1
1146,1146,-0.7397530260197214,-0.7,1.0,0.0,494.0,852.0,0.0,0,1654.0,1
1147,1147,0.3173621274190229,0.3,0.0,0.0,312.0,669.0,0.0,1,2019.0,1
1148,1148,0.3928777859988638,0.4,1.0,1.0,355.0,946.0,0.0,0,1699.0,0
1149,1149,-0.1699241960874166,-0.2,0.0,1.0,467.0,962.0,0.0,1,1571.0,0
1150,1150,0.7575366598734296,0.8,0.0,0.0,430.0,701.0,0.0,1,1869.0,1
1151,1151,0.5273717573400919,0.5,0.0,0.0,347.0,656.0,0.0,1,1997.0,1
1152,1152,0.6729200974140349,0.7,0.0,0.0,384.0,836.0,0.0,1,1780.0,1
1153,1153,0.7985720952359135,0.8,1.0,1.0,360.0,832.0,1.0,1,-802.0,1
1154,1154,-0.35951603659355813,-0.4,0.0,1.0,358.0,753.0,0.0,1,1889.0,0
1155,1155,0.6751565510670473,0.7,1.0,1.0,372.0,839.0,0.0,0,1789.0,0
1156,1156,0.5054832922248068,0.5,0.0,0.0,483.0,511.0,0.0,1,2006.0,1
1157,1157,0.6117276979228831,0.6,0.0,0.0,321.0,916.0,0.0,1,1763.0,1
1158,1158,0.3165432653160295,0.3,0.0,0.0,387.0,962.0,0.0,1,1651.0,1
1159,1159,-0.6947661358669931,-0.7,1.0,0.0,259.0,514.0,0.0,0,2227.0,1
1160,1160,0.5579965446586107,0.6,1.0,1.0,282.0,933.0,0.0,0,1785.0,0
1161,1161,0.6038394336969807,0.6,0.0,0.0,391.0,544.0,0.0,1,2065.0,1
1162,1162,-0.12641527502775596,-0.1,0.0,1.0,431.0,948.0,0.0,1,1621.0,0
1163,1163,0.228286452893684,0.2,0.0,0.0,462.0,515.0,0.0,1,2023.0,1
1164,1164,-0.8389083426653168,-0.8,1.0,0.0,316.0,675.0,0.0,0,2009.0,1
1165,1165,0.42038158178876206,0.4,1.0,1.0,270.0,798.0,0.0,0,1932.0,0
1166,1166,-0.19751076947282742,-0.2,1.0,0.0,360.0,666.0,0.0,0,1974.0,1
1167,1167,0.7924056502691729,0.8,1.0,1.0,357.0,954.0,0.0,0,1689.0,0
1168,1168,-0.7151611737188898,-0.7,1.0,0.0,418.0,817.0,0.0,0,1765.0,1
1169,1169,0.8639519170371112,0.9,0.0,0.0,366.0,795.0,0.0,1,1839.0,1
1170,1170,0.10877505664345077,0.1,1.0,1.0,344.0,985.0,0.0,0,1671.0,0
1171,1171,-0.009585665718819136,-0.0,0.0,1.0,489.0,977.0,0.0,1,1534.0,0
1172,1172,-0.45328579552411274,-0.5,1.0,0.0,438.0,846.0,0.0,0,1716.0,1
1173,1173,0.7132163718866887,0.7,1.0,1.0,361.0,552.0,0.0,0,2087.0,0
1174,1174,-0.7902731492747264,-0.8,0.0,1.0,309.0,872.0,0.0,1,1819.0,0
1175,1175,-0.3598289164872567,-0.4,0.0,1.0,256.0,949.0,0.0,1,1795.0,0
1176,1176,-0.17364053055584128,-0.2,1.0,0.0,256.0,516.0,0.0,0,2228.0,1
1177,1177,0.716293844434336,0.7,1.0,1.0,373.0,550.0,1.0,1,-683.0,1
1178,1178,0.2867106314951523,0.3,0.0,0.0,251.0,629.0,0.0,1,2120.0,1
1179,1179,0.8767972008605548,0.9,0.0,0.0,425.0,561.0,0.0,1,2014.0,1
1180,1180,-0.06381502337257428,-0.1,1.0,0.0,275.0,959.0,0.0,0,1766.0,1
1181,1181,0.26602292469078315,0.3,0.0,0.0,400.0,812.0,0.0,1,1788.0,1
1182,1182,0.8669297655343823,0.9,1.0,1.0,438.0,713.0,0.0,0,1849.0,0
1183,1183,-0.7681497567956375,-0.8,0.0,1.0,369.0,552.0,0.0,1,2079.0,0
1184,1184,-0.2533550506617789,-0.3,1.0,0.0,349.0,629.0,0.0,0,2022.0,1
1185,1185,0.5209627536946134,0.5,1.0,1.0,435.0,847.0,0.0,0,1718.0,0
1186,1186,0.3645770363598996,0.4,1.0,1.0,357.0,957.0,0.0,0,1686.0,0
1187,1187,-0.7133917469338441,-0.7,0.0,1.0,265.0,823.0,0.0,1,1912.0,0
1188,1188,0.3282470982062654,0.3,1.0,1.0,367.0,590.0,0.0,0,2043.0,0
1189,1189,0.02818844662771547,0.0,0.0,0.0,288.0,975.0,0.0,1,1737.0,1
1190,1190,-0.42661674246195563,-0.4,0.0,1.0,292.0,686.0,0.0,1,2022.0,0
1191,1191,-0.010634594911852702,-0.0,0.0,1.0,491.0,774.0,0.0,1,1735.0,0
1192,1192,0.06182164500454845,0.1,1.0,1.0,269.0,638.0,0.0,0,2093.0,0
1193,1193,0.24217777825688247,0.2,0.0,0.0,407.0,501.0,0.0,1,2092.0,1
1194,1194,0.6857787560927883,0.7,1.0,1.0,438.0,511.0,0.0,0,2051.0,0
1195,1195,-0.8740885761290228,-0.9,0.0,1.0,261.0,864.0,0.0,1,1875.0,0
1196,1196,-0.132211316196019,-0.1,0.0,1.0,300.0,504.0,0.0,1,2196.0,0
1197,1197,0.6161237273373662,0.6,1.0,1.0,348.0,567.0,0.0,0,2085.0,0
1198,1198,-0.26146668857790256,-0.3,0.0,1.0,451.0,647.0,0.0,1,1902.0,0
1199,1199,-0.051315696587365234,-0.1,1.0,0.0,435.0,591.0,0.0,0,1974.0,1
1200,1200,-0.03972292191149196,-0.0,1.0,0.0,271.0,981.0,0.0,0,1748.0,1
1201,1201,0.6108270452036771,0.6,0.0,0.0,260.0,743.0,0.0,1,1997.0,1
1202,1202,-0.34240868186849005,-0.3,0.0,1.0,255.0,892.0,0.0,1,1853.0,0
1203,1203,-0.25460041334653427,-0.3,1.0,0.0,485.0,779.0,0.0,0,1736.0,1
1204,1204,-0.42035217851866047,-0.4,1.0,0.0,499.0,830.0,0.0,0,1671.0,1
1205,1205,0.6239798673870885,0.6,1.0,1.0,425.0,570.0,0.0,0,2005.0,0
1206,1206,-0.10560794403769147,-0.1,0.0,1.0,321.0,940.0,0.0,1,1739.0,0
1207,1207,-0.7512949436209824,-0.8,1.0,0.0,340.0,741.0,0.0,0,1919.0,1
1208,1208,-0.011944280787301698,-0.0,0.0,1.0,376.0,870.0,0.0,1,1754.0,0
1209,1209,0.2397954566420265,0.2,0.0,0.0,329.0,506.0,0.0,1,2165.0,1
1210,1210,-0.6473118870817749,-0.6,0.0,1.0,392.0,921.0,0.0,1,1687.0,0
1211,1211,0.19537974732895547,0.2,0.0,0.0,477.0,514.0,0.0,1,2009.0,1
1212,1212,-0.010784322135048097,-0.0,1.0,0.0,255.0,964.0,0.0,0,1781.0,1
1213,1213,0.33513304647627307,0.3,1.0,1.0,399.0,805.0,0.0,0,1796.0,0
1214,1214,-0.4280752936239348,-0.4,0.0,1.0,483.0,681.0,0.0,1,1836.0,0
1215,1215,0.3866878612595669,0.4,0.0,0.0,281.0,649.0,0.0,1,2070.0,1
1216,1216,-0.4582361581500005,-0.5,1.0,0.0,418.0,921.0,0.0,0,1661.0,1
1217,1217,-0.3049763729440934,-0.3,1.0,0.0,394.0,920.0,0.0,0,1686.0,1
1218,1218,0.2523779999918051,0.3,1.0,1.0,291.0,663.0,0.0,0,2046.0,0
1219,1219,0.7989965584187332,0.8,1.0,1.0,398.0,731.0,0.0,0,1871.0,0
1220,1220,0.2764039416706149,0.3,0.0,0.0,365.0,796.0,0.0,1,1839.0,1
1221,1221,-0.58147798473674,-0.6,1.0,0.0,431.0,854.0,0.0,0,1715.0,1
1222,1222,0.07338554440180922,0.1,0.0,0.0,319.0,685.0,0.0,1,1996.0,1
1223,1223,-0.5552966893630872,-0.6,0.0,1.0,469.0,547.0,0.0,1,1984.0,0
1224,1224,0.3159331702148821,0.3,0.0,0.0,373.0,531.0,0.0,1,2096.0,1
1225,1225,-0.6090516361184979,-0.6,0.0,1.0,266.0,582.0,0.0,1,2152.0,0
1226,1226,0.8328156199099191,0.8,1.0,1.0,446.0,887.0,0.0,0,1667.0,0
1227,1227,0.8189818142140829,0.8,1.0,1.0,341.0,815.0,0.0,0,1844.0,0
1228,1228,-0.6966364062408864,-0.7,0.0,1.0,300.0,628.0,0.0,1,2072.0,0
1229,1229,0.4101207088093489,0.4,0.0,0.0,286.0,931.0,0.0,1,1783.0,1
1230,1230,-0.2311386174444654,-0.2,0.0,1.0,473.0,834.0,0.0,1,1693.0,0
1231,1231,-0.5800649469300547,-0.6,0.0,1.0,305.0,643.0,0.0,1,2052.0,0
1232,1232,-0.0457220862443245,-0.0,0.0,1.0,299.0,762.0,0.0,1,1939.0,0
1233,1233,-0.5274161768667193,-0.5,1.0,0.0,475.0,931.0,0.0,0,1594.0,1
1234,1234,-0.13161618415287124,-0.1,0.0,1.0,300.0,939.0,0.0,1,1761.0,0
1235,1235,0.6572795007064794,0.7,1.0,1.0,268.0,710.0,0.0,0,2022.0,0
1236,1236,0.2847951818058919,0.3,1.0,1.0,255.0,655.0,0.0,0,2090.0,0
1237,1237,-0.241030162827504,-0.2,0.0,1.0,266.0,980.0,0.0,1,1754.0,0
1238,1238,-0.614649452357722,-0.6,0.0,1.0,322.0,505.0,0.0,1,2173.0,0
1239,1239,0.4689242416241882,0.5,1.0,1.0,397.0,844.0,0.0,0,1759.0,0
1240,1240,-0.7338576506192163,-0.7,0.0,1.0,451.0,779.0,0.0,1,1770.0,0
1241,1241,-0.08245734186056886,-0.1,0.0,1.0,425.0,943.0,0.0,1,1632.0,0
1242,1242,-0.7700025406022355,-0.8,0.0,1.0,381.0,783.0,0.0,1,1836.0,0
1243,1243,0.13444757247203987,0.1,1.0,1.0,400.0,837.0,0.0,0,1763.0,0
1244,1244,-0.16344578716935187,-0.2,1.0,0.0,359.0,686.0,0.0,0,1955.0,1
1245,1245,0.7369942650271782,0.7,1.0,1.0,445.0,546.0,0.0,0,2009.0,0
1246,1246,-0.039009557845643195,-0.0,1.0,0.0,469.0,715.0,0.0,0,1816.0,1
1247,1247,0.8145636926054872,0.8,0.0,0.0,392.0,924.0,0.0,1,1684.0,1
1248,1248,-0.17839669654901968,-0.2,1.0,0.0,419.0,789.0,0.0,0,1792.0,1
1249,1249,0.8137698416990532,0.8,1.0,1.0,329.0,908.0,0.0,0,1763.0,0
1250,1250,0.29095725630509517,0.3,0.0,0.0,332.0,631.0,0.0,1,2037.0,1
1251,1251,0.6617487909728074,0.7,1.0,1.0,361.0,755.0,0.0,0,1884.0,0
1252,1252,0.5122873232590744,0.5,0.0,0.0,370.0,904.0,0.0,1,1726.0,1
1253,1253,-0.4718992445845382,-0.5,0.0,1.0,256.0,783.0,0.0,1,1961.0,0
1254,1254,0.5281475042093561,0.5,0.0,0.0,289.0,716.0,0.0,1,1995.0,1
1255,1255,-0.6040278031049073,-0.6,0.0,1.0,264.0,511.0,0.0,1,2225.0,0
1256,1256,0.4577410018982361,0.5,1.0,1.0,358.0,859.0,0.0,0,1783.0,0
1257,1257,-0.3408898108431401,-0.3,1.0,0.0,289.0,687.0,0.0,0,2024.0,1
1258,1258,-0.4285226814386449,-0.4,1.0,0.0,426.0,569.0,0.0,0,2005.0,1
1259,1259,0.42553796981759395,0.4,0.0,0.0,451.0,763.0,0.0,1,1786.0,1
1260,1260,-0.6719208582542525,-0.7,1.0,0.0,410.0,824.0,0.0,0,1766.0,1
1261,1261,0.6168021870787149,0.6,0.0,0.0,273.0,619.0,0.0,1,2108.0,1
1262,1262,0.13836101813894908,0.1,0.0,0.0,348.0,507.0,0.0,1,2145.0,1
1263,1263,0.728864936302854,0.7,1.0,1.0,404.0,514.0,0.0,0,2082.0,0
1264,1264,-0.5285406719279596,-0.5,0.0,1.0,438.0,997.0,0.0,1,1565.0,0
1265,1265,0.30656137026191355,0.3,1.0,1.0,252.0,789.0,0.0,0,1959.0,0
1266,1266,0.4348185925374194,0.4,1.0,1.0,423.0,514.0,0.0,0,2063.0,0
1267,1267,0.00032057683779140866,0.0,0.0,0.0,390.0,769.0,0.0,1,1841.0,1
1268,1268,-0.3322472352840986,-0.3,1.0,0.0,437.0,968.0,0.0,0,1595.0,1
1269,1269,-0.41114320719754455,-0.4,0.0,1.0,486.0,530.0,0.0,1,1984.0,0
1270,1270,-0.5785125688886845,-0.6,1.0,0.0,333.0,660.0,0.0,0,2007.0,1
1271,1271,-0.7764066155955728,-0.8,1.0,0.0,469.0,517.0,0.0,0,2014.0,1
1272,1272,-0.05446117700277753,-0.1,0.0,1.0,292.0,728.0,0.0,1,1980.0,0
1273,1273,-0.4583572507121081,-0.5,0.0,1.0,440.0,886.0,0.0,1,1674.0,0
1274,1274,0.4092363586367157,0.4,1.0,1.0,251.0,633.0,0.0,0,2116.0,0
1275,1275,0.3738003661043018,0.4,1.0,1.0,311.0,516.0,0.0,0,2173.0,0
1276,1276,0.32076184802820695,0.3,1.0,1.0,341.0,771.0,0.0,0,1888.0,0
1277,1277,0.30160208988573156,0.3,1.0,1.0,265.0,682.0,0.0,0,-917.0,0
1278,1278,0.8955475033431662,0.9,0.0,0.0,357.0,758.0,0.0,1,1885.0,1
1279,1279,0.3852472801720709,0.4,1.0,1.0,431.0,677.0,0.0,0,-1058.0,0
1280,1280,-0.44724389202794085,-0.4,1.0,0.0,479.0,724.0,0.0,0,1797.0,1
1281,1281,-0.4312719217927997,-0.4,1.0,0.0,262.0,508.0,0.0,0,2230.0,1
1282,1282,-0.3200115192880735,-0.3,1.0,0.0,268.0,622.0,0.0,0,2110.0,1
1283,1283,0.6076357530534081,0.6,0.0,0.0,420.0,797.0,0.0,1,1783.0,1
1284,1284,0.10399030493683903,0.1,1.0,1.0,428.0,653.0,0.0,0,1919.0,0
1285,1285,-0.6765998901237544,-0.7,0.0,1.0,417.0,544.0,0.0,1,2039.0,0
1286,1286,0.2408269378709006,0.2,1.0,1.0,345.0,674.0,0.0,0,1981.0,0
1287,1287,0.29676810032460954,0.3,1.0,1.0,401.0,529.0,0.0,0,-870.0,0
1288,1288,-0.3469994719701175,-0.3,1.0,0.0,370.0,639.0,0.0,0,1991.0,1
1289,1289,0.2067445053517193,0.2,1.0,1.0,433.0,865.0,0.0,0,-1248.0,0
1290,1290,0.5775851815222625,0.6,0.0,0.0,272.0,978.0,0.0,1,1750.0,1
1291,1291,-0.655806474043068,-0.7,1.0,0.0,330.0,851.0,0.0,0,1819.0,1
1292,1292,-0.5496884717110839,-0.5,0.0,1.0,269.0,624.0,0.0,1,2107.0,0
1293,1293,-0.3118341120187246,-0.3,1.0,0.0,325.0,554.0,0.0,0,-779.0,1
1294,1294,-0.024275109046470456,-0.0,0.0,1.0,285.0,859.0,0.0,1,1856.0,0
1295,1295,0.2816358244286109,0.3,0.0,0.0,452.0,676.0,0.0,1,1872.0,1
1296,1296,-0.34102183705650024,-0.3,1.0,0.0,376.0,701.0,0.0,0,1923.0,1
1297,1297,0.1909272007321482,0.2,1.0,1.0,355.0,662.0,0.0,0,1983.0,0
1298,1298,0.18628457260417253,0.2,0.0,0.0,370.0,780.0,0.0,1,1850.0,1
1299,1299,0.8088094598205026,0.8,1.0,1.0,356.0,789.0,0.0,0,1855.0,0
1300,1300,-0.3002537294571799,-0.3,1.0,0.0,399.0,959.0,0.0,0,1642.0,1
1301,1301,0.6897039450774857,0.7,0.0,0.0,386.0,621.0,0.0,1,1993.0,1
1302,1302,0.14270882812669738,0.1,0.0,0.0,304.0,558.0,0.0,1,2138.0,1
1303,1303,0.6674525150544931,0.7,0.0,0.0,303.0,945.0,0.0,1,1752.0,1
1304,1304,0.4146720563418852,0.4,1.0,1.0,329.0,551.0,0.0,0,2120.0,0
1305,1305,-0.33918277703597244,-0.3,1.0,0.0,496.0,817.0,0.0,0,1687.0,1
1306,1306,-0.12287710263700191,-0.1,1.0,0.0,462.0,730.0,0.0,0,1808.0,1
1307,1307,0.23429109667223613,0.2,0.0,0.0,496.0,828.0,0.0,1,1676.0,1
1308,1308,0.0521985375495021,0.1,1.0,1.0,466.0,750.0,0.0,0,1784.0,0
1309,1309,-0.35416742315785266,-0.4,0.0,1.0,332.0,954.0,0.0,1,1714.0,0
1310,1310,0.3214153082629766,0.3,1.0,1.0,257.0,886.0,0.0,0,1857.0,0
1311,1311,-0.6657897411232659,-0.7,1.0,0.0,362.0,738.0,0.0,0,1900.0,1
1312,1312,-0.46539910625378356,-0.5,0.0,1.0,361.0,747.0,1.0,0,-838.0,1
1313,1313,0.6794998379999161,0.7,0.0,0.0,364.0,537.0,0.0,1,2099.0,1
1314,1314,-0.27039529309414656,-0.3,1.0,0.0,441.0,580.0,0.0,0,1979.0,1
1315,1315,0.1362361264125408,0.1,0.0,0.0,427.0,922.0,0.0,1,-1249.0,1
1316,1316,-0.3505970729555906,-0.4,0.0,1.0,387.0,599.0,0.0,1,2014.0,0
1317,1317,0.36750063302575897,0.4,0.0,0.0,436.0,825.0,0.0,1,1739.0,1
1318,1318,-0.21287631671075236,-0.2,1.0,0.0,336.0,542.0,0.0,0,2122.0,1
1319,1319,-0.2712753273644197,-0.3,0.0,1.0,311.0,632.0,0.0,1,2057.0,0
1320,1320,-0.7555300255471772,-0.8,0.0,1.0,281.0,553.0,0.0,1,2166.0,0
1321,1321,-0.48174146419414704,-0.5,0.0,1.0,370.0,659.0,0.0,1,1971.0,0
1322,1322,-0.41588844533347047,-0.4,0.0,1.0,258.0,628.0,0.0,1,2114.0,0
1323,1323,0.07829048190528975,0.1,0.0,0.0,403.0,830.0,0.0,1,1767.0,1
1324,1324,-0.4863767452025232,-0.5,1.0,0.0,451.0,852.0,0.0,0,1697.0,1
1325,1325,-0.3806160727098217,-0.4,1.0,0.0,353.0,775.0,0.0,0,1872.0,1
1326,1326,0.41622633036691903,0.4,0.0,0.0,473.0,821.0,0.0,1,1706.0,1
1327,1327,-0.7524040149362168,-0.8,0.0,1.0,342.0,528.0,0.0,1,2130.0,0
1328,1328,-0.23201193779861018,-0.2,1.0,0.0,491.0,930.0,0.0,0,1579.0,1
1329,1329,-0.18096146382709444,-0.2,1.0,0.0,483.0,768.0,0.0,0,1749.0,1
1330,1330,-0.6798913276965258,-0.7,0.0,1.0,436.0,550.0,0.0,1,2014.0,0
1331,1331,-0.7335689981521913,-0.7,0.0,1.0,353.0,978.0,0.0,1,1669.0,0
1332,1332,0.7496083400491472,0.7,0.0,0.0,442.0,822.0,0.0,1,1736.0,1
1333,1333,-0.03599573787405186,-0.0,0.0,1.0,363.0,784.0,0.0,1,1853.0,0
1334,1334,-0.7417615500902907,-0.7,1.0,0.0,356.0,788.0,0.0,0,1856.0,1
1335,1335,-0.37906846296457264,-0.4,0.0,1.0,278.0,979.0,0.0,1,1743.0,0
1336,1336,0.18434297322709792,0.2,1.0,1.0,268.0,948.0,0.0,0,1784.0,0
1337,1337,0.25979494013521365,0.3,0.0,0.0,270.0,601.0,0.0,1,2129.0,1
1338,1338,0.1777149120593805,0.2,0.0,0.0,443.0,611.0,0.0,1,1946.0,1
1339,1339,0.6467177901200792,0.6,1.0,1.0,296.0,817.0,0.0,0,1887.0,0
1340,1340,-0.6370209460574243,-0.6,0.0,1.0,314.0,730.0,0.0,1,1956.0,0
1341,1341,0.27503344891133363,0.3,0.0,0.0,294.0,927.0,0.0,1,1779.0,1
1342,1342,-0.5443520254332479,-0.5,1.0,0.0,355.0,611.0,0.0,0,2034.0,1
1343,1343,0.43999404275713483,0.4,1.0,1.0,305.0,707.0,0.0,0,1988.0,0
1344,1344,-0.12953873721836284,-0.1,0.0,1.0,497.0,895.0,0.0,1,-1352.0,0
1345,1345,0.25482860532849083,0.3,1.0,1.0,484.0,987.0,0.0,0,1529.0,0
1346,1346,-0.7808073900308485,-0.8,1.0,0.0,366.0,691.0,0.0,0,-1057.0,1
1347,1347,-0.5612044170058937,-0.6,1.0,0.0,352.0,793.0,0.0,0,1855.0,1
1348,1348,-0.8539875484074314,-0.9,0.0,1.0,444.0,829.0,0.0,1,1727.0,0
1349,1349,-0.587412804890425,-0.6,1.0,0.0,326.0,703.0,0.0,0,1971.0,1
1350,1350,0.3677186094207264,0.4,0.0,0.0,286.0,916.0,0.0,1,-1102.0,1
1351,1351,0.39091350129144675,0.4,1.0,1.0,250.0,989.0,0.0,0,1761.0,0
1352,1352,-0.7788536314938578,-0.8,0.0,1.0,454.0,894.0,0.0,1,1652.0,0
1353,1353,0.38824122953211926,0.4,0.0,0.0,401.0,745.0,0.0,1,1854.0,1
1354,1354,0.023272615085801696,0.0,0.0,0.0,338.0,717.0,0.0,1,1945.0,1
1355,1355,0.18778896212491636,0.2,0.0,0.0,495.0,709.0,0.0,1,1796.0,1
1356,1356,0.802437475939998,0.8,1.0,1.0,492.0,638.0,0.0,0,1870.0,0
1357,1357,-0.3375376483630671,-0.3,0.0,1.0,368.0,904.0,0.0,1,1728.0,0
1358,1358,0.8739940752696008,0.9,1.0,1.0,407.0,952.0,0.0,0,1641.0,0
1359,1359,0.46391966426265385,0.5,1.0,1.0,317.0,718.0,0.0,0,1965.0,0
1360,1360,-0.3048360832190271,-0.3,0.0,1.0,260.0,851.0,0.0,1,1889.0,0
1361,1361,-0.5896351090015989,-0.6,1.0,0.0,323.0,687.0,0.0,0,1990.0,1
1362,1362,0.5902614600787853,0.6,0.0,0.0,299.0,884.0,0.0,1,1817.0,1
1363,1363,-0.04310919800343971,-0.0,1.0,0.0,494.0,877.0,0.0,0,1629.0,1
1364,1364,-0.856958061369633,-0.9,1.0,0.0,496.0,752.0,0.0,0,-1238.0,1
1365,1365,0.526298882134041,0.5,1.0,1.0,343.0,550.0,0.0,0,2107.0,0
1366,1366,-0.799781825633325,-0.8,0.0,1.0,388.0,798.0,0.0,1,1814.0,0
1367,1367,0.5109274370775098,0.5,0.0,0.0,442.0,819.0,0.0,1,1739.0,1
1368,1368,-0.4310385102329822,-0.4,0.0,1.0,314.0,640.0,0.0,1,2046.0,0
1369,1369,-0.43249061181056503,-0.4,1.0,0.0,475.0,607.0,0.0,0,1918.0,1
1370,1370,0.37314028531082155,0.4,1.0,1.0,404.0,735.0,0.0,0,1861.0,0
1371,1371,-0.17860015424775277,-0.2,1.0,0.0,385.0,576.0,0.0,0,2039.0,1
1372,1372,0.7888521061829291,0.8,0.0,0.0,387.0,893.0,0.0,1,1720.0,1
1373,1373,0.6258878767570945,0.6,0.0,0.0,470.0,987.0,0.0,1,1543.0,1
1374,1374,-0.37746324624490624,-0.4,1.0,0.0,398.0,822.0,0.0,0,1780.0,1
1375,1375,0.47494251264556564,0.5,1.0,1.0,341.0,581.0,0.0,0,2078.0,0
1376,1376,-0.3732627369599465,-0.4,1.0,0.0,426.0,658.0,0.0,0,1916.0,1
1377,1377,0.8735978346073726,0.9,1.0,1.0,333.0,569.0,1.0,1,-692.0,1
1378,1378,-0.6223487604834104,-0.6,0.0,1.0,476.0,721.0,0.0,1,-1127.0,0
1379,1379,-0.7966137871757457,-0.8,0.0,1.0,456.0,664.0,0.0,1,1880.0,0
1380,1380,0.3576460673278744,0.4,0.0,0.0,359.0,510.0,0.0,1,2131.0,1
1381,1381,0.07428494721723133,0.1,1.0,1.0,429.0,833.0,0.0,0,1738.0,0
1382,1382,0.5262344063028114,0.5,1.0,1.0,309.0,850.0,0.0,0,1841.0,0
1383,1383,0.43784341084399003,0.4,1.0,1.0,253.0,788.0,0.0,0,1959.0,0
1384,1384,-0.5714943612309136,-0.6,0.0,1.0,470.0,607.0,0.0,1,1923.0,0
1385,1385,-0.02449725096362587,-0.0,1.0,0.0,311.0,824.0,0.0,0,1865.0,1
1386,1386,-0.4584809259557303,-0.5,1.0,0.0,259.0,968.0,0.0,0,1773.0,1
1387,1387,-0.4244809457567896,-0.4,1.0,0.0,346.0,603.0,0.0,0,2051.0,1
1388,1388,-0.5465179792808526,-0.5,1.0,0.0,311.0,961.0,0.0,0,1728.0,1
1389,1389,0.0013679022418165987,0.0,0.0,0.0,466.0,842.0,0.0,1,1692.0,1
1390,1390,0.29353398639039197,0.3,1.0,1.0,298.0,528.0,0.0,0,2174.0,0
1391,1391,0.2781601740194345,0.3,1.0,1.0,440.0,697.0,0.0,0,1863.0,0
1392,1392,0.3712683823425803,0.4,1.0,1.0,277.0,767.0,0.0,0,1956.0,0
1393,1393,-0.5546459610379464,-0.6,0.0,1.0,384.0,502.0,0.0,1,2114.0,0
1394,1394,-0.6478108040457027,-0.6,0.0,1.0,297.0,948.0,0.0,1,1755.0,0
1395,1395,-0.029979318235824226,-0.0,1.0,0.0,267.0,546.0,0.0,0,2187.0,1
1396,1396,0.46654330189242954,0.5,1.0,1.0,435.0,984.0,0.0,0,1581.0,0
1397,1397,-0.8356333875642263,-0.8,1.0,0.0,486.0,583.0,0.0,0,1931.0,1
1398,1398,-0.5286096261089623,-0.5,1.0,0.0,348.0,756.0,0.0,0,1896.0,1
1399,1399,-0.04181591351963232,-0.0,0.0,1.0,279.0,704.0,0.0,1,2017.0,0
1400,1400,0.04862801209489376,0.0,1.0,1.0,486.0,827.0,0.0,0,1687.0,0
1401,1401,-0.4915704848632269,-0.5,0.0,1.0,373.0,880.0,0.0,1,1747.0,0
1402,1402,0.2446960889689379,0.2,0.0,0.0,261.0,814.0,0.0,1,1925.0,1
1403,1403,0.7094384029657431,0.7,1.0,1.0,298.0,883.0,0.0,0,-1111.0,0
1404,1404,-0.17512075163173202,-0.2,1.0,0.0,279.0,766.0,0.0,0,-905.0,1
1405,1405,-0.11196901986287267,-0.1,0.0,1.0,347.0,816.0,0.0,1,1837.0,0
1406,1406,-0.37599651632427655,-0.4,0.0,1.0,427.0,769.0,0.0,1,1804.0,0
1407,1407,0.28671181260432455,0.3,0.0,0.0,425.0,983.0,0.0,1,1592.0,1
1408,1408,0.4859147806971248,0.5,1.0,1.0,498.0,580.0,0.0,0,1922.0,0
1409,1409,0.43184842702970594,0.4,1.0,1.0,434.0,955.0,0.0,0,1611.0,0
1410,1410,0.8236037406299569,0.8,0.0,0.0,458.0,522.0,0.0,1,2020.0,1
1411,1411,0.0511736534442061,0.1,0.0,0.0,343.0,873.0,0.0,1,1784.0,1
1412,1412,0.019148409579233694,0.0,1.0,1.0,459.0,644.0,0.0,0,1897.0,0
1413,1413,0.16091892369159477,0.2,0.0,0.0,356.0,594.0,1.0,0,-740.0,0
1414,1414,-0.17501758198110562,-0.2,0.0,1.0,483.0,980.0,0.0,1,1537.0,0
1415,1415,-0.0890557723736145,-0.1,1.0,0.0,330.0,948.0,0.0,0,1722.0,1
1416,1416,-0.11625689127696104,-0.1,1.0,0.0,323.0,646.0,0.0,0,2031.0,1
1417,1417,0.6510231994360284,0.7,0.0,0.0,274.0,646.0,0.0,1,2080.0,1
1418,1418,-0.5031253944509129,-0.5,0.0,1.0,383.0,677.0,0.0,1,1940.0,0
1419,1419,-0.20808971238631968,-0.2,0.0,1.0,417.0,796.0,0.0,1,-1203.0,0
1420,1420,0.2211158883627352,0.2,0.0,0.0,276.0,734.0,0.0,1,1990.0,1
1421,1421,0.7392373930763144,0.7,1.0,1.0,413.0,873.0,0.0,0,1714.0,0
1422,1422,0.24324503317441348,0.2,1.0,1.0,475.0,642.0,0.0,0,1883.0,0
1423,1423,-0.8247838565357608,-0.8,0.0,1.0,413.0,502.0,0.0,1,2085.0,0
1424,1424,0.06438099226528604,0.1,1.0,1.0,281.0,603.0,0.0,0,2116.0,0
1425,1425,-0.4857456495670985,-0.5,0.0,1.0,392.0,551.0,1.0,0,-573.0,1
1426,1426,0.2642888800384514,0.3,0.0,0.0,286.0,969.0,0.0,1,1745.0,1
1427,1427,-0.40002041315071496,-0.4,0.0,1.0,307.0,977.0,0.0,1,1716.0,0
1428,1428,0.10758731211086003,0.1,1.0,1.0,391.0,576.0,0.0,0,2033.0,0
1429,1429,0.007393634360641443,0.0,1.0,1.0,287.0,962.0,0.0,0,1751.0,0
1430,1430,0.7636806790782077,0.8,1.0,1.0,443.0,954.0,0.0,0,1603.0,0
1431,1431,-0.16834151998364766,-0.2,0.0,1.0,339.0,655.0,0.0,1,2006.0,0
1432,1432,-0.16155439646391367,-0.2,1.0,0.0,421.0,864.0,0.0,0,1715.0,1
1433,1433,0.05019216914796354,0.1,0.0,0.0,254.0,910.0,0.0,1,1836.0,1
1434,1434,-0.23421326472810888,-0.2,1.0,0.0,353.0,734.0,0.0,0,1913.0,1
1435,1435,-0.7397781584015648,-0.7,1.0,0.0,440.0,940.0,0.0,0,1620.0,1
1436,1436,0.23625826331800892,0.2,1.0,1.0,466.0,533.0,0.0,0,-779.0,0
1437,1437,-0.4551663307284825,-0.5,0.0,1.0,441.0,884.0,0.0,1,1675.0,0
1438,1438,0.6015530058197452,0.6,0.0,0.0,302.0,938.0,0.0,1,1760.0,1
1439,1439,0.8239271228665933,0.8,1.0,1.0,492.0,635.0,0.0,0,1873.0,0
1440,1440,-0.6168294496048157,-0.6,0.0,1.0,358.0,978.0,0.0,1,1664.0,0
1441,1441,-0.7983458475055019,-0.8,1.0,0.0,487.0,987.0,0.0,0,1526.0,1
1442,1442,0.47460046490397534,0.5,0.0,0.0,495.0,606.0,0.0,1,1899.0,1
1443,1443,0.5298690124412476,0.5,1.0,1.0,317.0,624.0,0.0,0,2059.0,0
1444,1444,-0.2552727666273369,-0.3,0.0,1.0,443.0,879.0,0.0,1,1678.0,0
1445,1445,-0.3489489574422452,-0.3,1.0,0.0,374.0,839.0,0.0,0,1787.0,1
1446,1446,-0.42724991609983265,-0.4,0.0,1.0,442.0,508.0,0.0,1,2050.0,0
1447,1447,0.25695217499168976,0.3,0.0,0.0,300.0,813.0,0.0,1,1887.0,1
1448,1448,0.6487193506596892,0.6,1.0,1.0,393.0,944.0,0.0,0,1663.0,0
1449,1449,-0.43934955707456547,-0.4,0.0,1.0,266.0,797.0,0.0,1,1937.0,0
1450,1450,-0.5566291245340065,-0.6,1.0,0.0,415.0,951.0,0.0,0,1634.0,1
1451,1451,-0.08993171189964189,-0.1,1.0,0.0,447.0,507.0,0.0,0,2046.0,1
1452,1452,0.28128240144249117,0.3,0.0,0.0,330.0,799.0,1.0,0,-989.0,0
1453,1453,-0.5850154953921505,-0.6,0.0,1.0,479.0,870.0,0.0,1,1651.0,0
1454,1454,0.8638213483735916,0.9,1.0,1.0,296.0,789.0,0.0,0,1915.0,0
1455,1455,-0.6643799062306679,-0.7,1.0,0.0,413.0,664.0,0.0,0,1923.0,1
1456,1456,0.0717760713003982,0.1,0.0,0.0,406.0,523.0,0.0,1,2071.0,1
1457,1457,-0.03460668611194295,-0.0,1.0,0.0,401.0,890.0,0.0,0,1709.0,1
1458,1458,-0.1516796729627844,-0.2,0.0,1.0,441.0,606.0,0.0,1,1953.0,0
1459,1459,0.22379348877885497,0.2,0.0,0.0,458.0,784.0,0.0,1,1758.0,1
1460,1460,-0.277322043865334,-0.3,0.0,1.0,337.0,890.0,0.0,1,1773.0,0
1461,1461,0.3111742243390384,0.3,1.0,1.0,446.0,640.0,0.0,0,1914.0,0
1462,1462,0.5949356663353736,0.6,1.0,1.0,495.0,876.0,0.0,0,1629.0,0
1463,1463,0.07586045756385618,0.1,1.0,1.0,357.0,912.0,0.0,0,1731.0,0
1464,1464,-0.016091722188019908,-0.0,1.0,0.0,296.0,824.0,0.0,0,1880.0,1
1465,1465,0.11043036803529482,0.1,0.0,0.0,371.0,862.0,0.0,1,1767.0,1
1466,1466,-0.05432712209964463,-0.1,1.0,0.0,480.0,862.0,0.0,0,1658.0,1
1467,1467,-0.5214538018781292,-0.5,0.0,1.0,364.0,641.0,0.0,1,1995.0,0
1468,1468,-0.8999455688212598,-0.9,1.0,0.0,269.0,511.0,0.0,0,2220.0,1
1469,1469,-0.6740191827115997,-0.7,1.0,0.0,421.0,592.0,0.0,0,1987.0,1
