,trial,coherence,coherence_bin,green_side,correct_side,target_onset,checker_onset,decision,green_decision,decision_time,correct_decision
0,0,0.05488191617647986,0.1,1.0,1.0,445.0,909.0,1.0,1,756.0,1
1,1,-0.4827476047429922,-0.5,1.0,0.0,415.0,565.0,0.0,0,420.0,1
2,2,-0.2559787025512523,-0.3,1.0,0.0,326.0,904.0,0.0,0,880.0,1
3,3,0.6393951554463061,0.6,1.0,1.0,349.0,538.0,1.0,1,413.0,1
4,4,-0.3671436120154744,-0.4,0.0,1.0,280.0,830.0,1.0,0,390.0,1
5,5,0.7349069548240833,0.7,1.0,1.0,484.0,543.0,1.0,1,353.0,1
6,6,0.6170204531676892,0.6,0.0,0.0,361.0,653.0,0.0,1,246.0,1
7,7,0.24112724588374645,0.2,0.0,0.0,334.0,843.0,0.0,1,453.0,1
8,8,0.7912906512195476,0.8,0.0,0.0,316.0,520.0,0.0,1,214.0,1
9,9,-0.4726182748683132,-0.5,1.0,0.0,449.0,512.0,0.0,0,749.0,1
10,10,0.3654790462604781,0.4,0.0,0.0,291.0,553.0,0.0,1,576.0,1
11,11,-0.7232862231059989,-0.7,1.0,0.0,458.0,833.0,0.0,0,149.0,1
12,12,0.2961761376885227,0.3,1.0,1.0,348.0,917.0,0.0,0,25.0,0
13,13,-0.26152790766933653,-0.3,0.0,1.0,274.0,605.0,1.0,0,601.0,1
14,14,0.4477833963633543,0.4,1.0,1.0,475.0,535.0,1.0,1,550.0,1
15,15,0.49396413082818225,0.5,1.0,1.0,274.0,721.0,1.0,1,505.0,1
16,16,-0.6138732032449967,-0.6,1.0,0.0,262.0,782.0,0.0,0,246.0,1
17,17,-0.25645233658913635,-0.3,0.0,1.0,440.0,773.0,1.0,0,307.0,1
18,18,0.8917028784846447,0.9,1.0,1.0,325.0,816.0,1.0,1,409.0,1
19,19,0.3874182662296176,0.4,1.0,1.0,258.0,556.0,1.0,1,316.0,1
20,20,-0.30078127355653206,-0.3,1.0,0.0,251.0,744.0,0.0,0,975.0,1
21,21,-0.7877990988849676,-0.8,0.0,1.0,308.0,777.0,1.0,0,205.0,1
22,22,-0.3355954191031515,-0.3,0.0,1.0,301.0,967.0,1.0,0,332.0,1
23,23,0.3423067136631254,0.3,1.0,1.0,420.0,605.0,1.0,1,435.0,1
24,24,0.09277255648019023,0.1,1.0,1.0,275.0,708.0,1.0,1,3607.0,1
25,25,0.4086788119198802,0.4,0.0,0.0,297.0,573.0,0.0,1,270.0,1
26,26,0.894919729040177,0.9,1.0,1.0,478.0,663.0,1.0,1,439.0,1
27,27,-0.4912010405837495,-0.5,1.0,0.0,385.0,645.0,0.0,0,270.0,1
28,28,0.6954029260875939,0.7,1.0,1.0,285.0,837.0,1.0,1,158.0,1
29,29,0.4666057493398902,0.5,0.0,0.0,328.0,767.0,0.0,1,525.0,1
30,30,-0.19339340691320372,-0.2,1.0,0.0,257.0,627.0,0.0,0,1066.0,1
31,31,-0.2090098945483504,-0.2,1.0,0.0,427.0,774.0,0.0,0,779.0,1
32,32,-0.54765589966706,-0.5,1.0,0.0,344.0,686.0,0.0,0,630.0,1
33,33,0.5640587868027095,0.6,0.0,0.0,367.0,690.0,0.0,1,273.0,1
34,34,-0.0007497391404355236,-0.0,0.0,1.0,310.0,801.0,1.0,0,3889.0,1
35,35,0.16719938354606934,0.2,0.0,0.0,486.0,868.0,0.0,1,3296.0,1
36,36,0.44889500784409175,0.4,1.0,1.0,459.0,513.0,1.0,1,1038.0,1
37,37,0.2104115833255461,0.2,1.0,1.0,311.0,983.0,1.0,1,2666.0,1
38,38,0.6072579910134935,0.6,1.0,1.0,263.0,845.0,1.0,1,-68.0,1
39,39,-0.7837886005114286,-0.8,1.0,0.0,258.0,591.0,0.0,0,231.0,1
40,40,0.8632039692825374,0.9,1.0,1.0,300.0,700.0,1.0,1,390.0,1
41,41,-0.49712690613420707,-0.5,1.0,0.0,332.0,578.0,0.0,0,270.0,1
42,42,0.25448749013620786,0.3,0.0,0.0,401.0,705.0,0.0,1,1444.0,1
43,43,-0.09669433554685392,-0.1,1.0,0.0,343.0,994.0,0.0,0,3663.0,1
44,44,-0.27614029866441947,-0.3,1.0,0.0,413.0,536.0,0.0,0,1971.0,1
45,45,-0.8234290794363754,-0.8,1.0,0.0,328.0,865.0,0.0,0,167.0,1
46,46,0.5950009043926928,0.6,0.0,0.0,436.0,635.0,0.0,1,249.0,1
47,47,0.7267247713295942,0.7,0.0,0.0,341.0,930.0,0.0,1,419.0,1
48,48,0.10158222508031989,0.1,0.0,0.0,423.0,674.0,0.0,1,1403.0,1
49,49,-0.5284028517747104,-0.5,0.0,1.0,372.0,873.0,1.0,0,305.0,1
50,50,0.3871635759012021,0.4,0.0,0.0,299.0,616.0,0.0,1,435.0,1
51,51,-0.2210927566349149,-0.2,1.0,0.0,386.0,916.0,0.0,0,518.0,1
52,52,0.30533841386509,0.3,0.0,0.0,333.0,785.0,0.0,1,922.0,1
53,53,-0.4650167893031479,-0.5,0.0,1.0,364.0,756.0,1.0,0,630.0,1
54,54,-0.21727034713376603,-0.2,1.0,0.0,422.0,583.0,0.0,0,635.0,1
55,55,-0.1180603820723286,-0.1,0.0,1.0,447.0,764.0,1.0,0,999.0,1
56,56,0.4570143867146389,0.5,1.0,1.0,281.0,576.0,1.0,1,233.0,1
57,57,0.3608484463224547,0.4,1.0,1.0,372.0,920.0,1.0,1,618.0,1
58,58,0.28638165877135446,0.3,1.0,1.0,315.0,523.0,1.0,1,332.0,1
59,59,-0.5399374882228525,-0.5,1.0,0.0,476.0,648.0,0.0,0,126.0,1
60,60,0.6386927820448994,0.6,1.0,1.0,358.0,834.0,1.0,1,278.0,1
61,61,-0.006670757041188913,-0.0,1.0,0.0,404.0,529.0,0.0,0,4067.0,1
62,62,0.2955120728994062,0.3,0.0,0.0,348.0,829.0,0.0,1,373.0,1
63,63,0.5596101747366903,0.6,0.0,0.0,406.0,681.0,0.0,1,183.0,1
64,64,0.6458245021093291,0.6,0.0,0.0,458.0,643.0,0.0,1,319.0,1
65,65,-0.7418679723071776,-0.7,1.0,0.0,428.0,639.0,0.0,0,793.0,1
66,66,0.4625107558187548,0.5,1.0,1.0,445.0,589.0,1.0,1,236.0,1
67,67,-0.41414647618003914,-0.4,1.0,0.0,380.0,919.0,0.0,0,191.0,1
68,68,0.41408177707928073,0.4,0.0,0.0,494.0,927.0,0.0,1,369.0,1
69,69,-0.6255222226709675,-0.6,1.0,0.0,449.0,614.0,0.0,0,137.0,1
70,70,0.7327850215388226,0.7,1.0,1.0,485.0,535.0,1.0,1,370.0,1
71,71,0.07197932024281162,0.1,0.0,0.0,257.0,552.0,0.0,1,4191.0,1
72,72,0.792608108273133,0.8,0.0,0.0,386.0,585.0,0.0,1,299.0,1
73,73,-0.29719102315792467,-0.3,1.0,0.0,370.0,776.0,0.0,0,394.0,1
74,74,0.026378459941141075,0.0,0.0,0.0,317.0,629.0,0.0,1,2364.0,1
75,75,-0.04478606596436163,-0.0,0.0,1.0,282.0,985.0,1.0,0,3733.0,1
76,76,0.5748954367034712,0.6,0.0,0.0,485.0,695.0,0.0,1,490.0,1
77,77,0.22999927769667428,0.2,1.0,1.0,440.0,924.0,1.0,1,566.0,1
78,78,-0.5149361485711168,-0.5,0.0,1.0,405.0,994.0,1.0,0,161.0,1
79,79,-0.31405924711069577,-0.3,1.0,0.0,397.0,955.0,0.0,0,548.0,1
80,80,-0.3281349855481869,-0.3,0.0,1.0,335.0,782.0,1.0,0,743.0,1
81,81,-0.10342067753721818,-0.1,1.0,0.0,269.0,837.0,0.0,0,2494.0,1
82,82,0.09580051359587172,0.1,0.0,0.0,268.0,955.0,0.0,1,1537.0,1
83,83,0.43010905652640463,0.4,0.0,0.0,312.0,786.0,0.0,1,572.0,1
84,84,0.40022620734619985,0.4,0.0,0.0,456.0,817.0,0.0,1,887.0,1
85,85,-0.07930337778073226,-0.1,1.0,0.0,329.0,889.0,0.0,0,1852.0,1
86,86,-0.7584189809645292,-0.8,0.0,1.0,385.0,968.0,1.0,0,87.0,1
87,87,-0.670002607416874,-0.7,0.0,1.0,358.0,561.0,1.0,0,231.0,1
88,88,0.3292007005524785,0.3,1.0,1.0,310.0,771.0,1.0,1,509.0,1
89,89,0.4098436359035681,0.4,0.0,0.0,254.0,599.0,0.0,1,747.0,1
90,90,-0.5112323904473868,-0.5,1.0,0.0,414.0,758.0,0.0,0,348.0,1
91,91,-0.22635423217928607,-0.2,0.0,1.0,387.0,959.0,1.0,0,404.0,1
92,92,-0.5551502706505118,-0.6,0.0,1.0,348.0,687.0,1.0,0,535.0,1
93,93,-0.5039447495793308,-0.5,1.0,0.0,286.0,777.0,0.0,0,277.0,1
94,94,0.13555832133168255,0.1,1.0,1.0,400.0,888.0,1.0,1,2012.0,1
95,95,-0.332214617993164,-0.3,1.0,0.0,457.0,701.0,0.0,0,1002.0,1
96,96,-0.08757263833668527,-0.1,0.0,1.0,341.0,991.0,1.0,0,3438.0,1
97,97,0.41049038480642197,0.4,1.0,1.0,474.0,603.0,1.0,1,553.0,1
98,98,0.2663383351138132,0.3,0.0,0.0,354.0,618.0,0.0,1,518.0,1
99,99,0.22291596688575643,0.2,0.0,0.0,320.0,881.0,0.0,1,1189.0,1
100,100,-0.8432690369513475,-0.8,0.0,1.0,492.0,505.0,1.0,0,293.0,1
101,101,0.4390966874303649,0.4,1.0,1.0,364.0,894.0,1.0,1,102.0,1
102,102,-0.09829215238044031,-0.1,1.0,0.0,490.0,626.0,0.0,0,2924.0,1
103,103,0.45833236727792326,0.5,1.0,1.0,483.0,669.0,1.0,1,248.0,1
104,104,0.34362446812575664,0.3,0.0,0.0,318.0,878.0,0.0,1,1854.0,1
105,105,0.2949981593853438,0.3,1.0,1.0,476.0,671.0,1.0,1,893.0,1
106,106,0.3392224377067391,0.3,0.0,0.0,444.0,680.0,0.0,1,476.0,1
107,107,-0.06568358255677431,-0.1,1.0,0.0,468.0,855.0,0.0,0,2327.0,1
108,108,-0.5029526479098412,-0.5,0.0,1.0,309.0,603.0,1.0,0,188.0,1
109,109,-0.8790466753012913,-0.9,1.0,0.0,346.0,700.0,0.0,0,124.0,1
110,110,-0.696988803785863,-0.7,1.0,0.0,285.0,800.0,0.0,0,165.0,1
111,111,-0.6304402114120142,-0.6,0.0,1.0,342.0,515.0,1.0,0,173.0,1
112,112,0.7198820178240967,0.7,1.0,1.0,291.0,746.0,1.0,1,283.0,1
113,113,0.770701718822285,0.8,0.0,0.0,341.0,635.0,0.0,1,504.0,1
114,114,0.1250442866459277,0.1,1.0,1.0,487.0,964.0,1.0,1,1639.0,1
115,115,0.8709365356712021,0.9,0.0,0.0,342.0,869.0,0.0,1,409.0,1
116,116,0.5084502752823526,0.5,0.0,0.0,460.0,717.0,0.0,1,403.0,1
117,117,-0.7185596498392686,-0.7,0.0,1.0,348.0,714.0,1.0,0,258.0,1
118,118,-0.006817360434159259,-0.0,1.0,0.0,321.0,540.0,1.0,1,4139.0,0
119,119,-0.22427815526122374,-0.2,0.0,1.0,359.0,657.0,1.0,0,1024.0,1
120,120,-0.645015394488313,-0.6,1.0,0.0,359.0,735.0,0.0,0,1316.0,1
121,121,-0.5842025819592359,-0.6,0.0,1.0,441.0,593.0,1.0,0,406.0,1
122,122,-0.7258591344366828,-0.7,0.0,1.0,444.0,974.0,1.0,0,252.0,1
123,123,0.11048764970356328,0.1,0.0,0.0,340.0,975.0,0.0,1,1935.0,1
124,124,0.5549185975216863,0.6,0.0,0.0,484.0,836.0,0.0,1,300.0,1
125,125,0.49933106006670924,0.5,0.0,0.0,287.0,549.0,0.0,1,354.0,1
126,126,0.14820547618871205,0.1,1.0,1.0,272.0,807.0,1.0,1,361.0,1
127,127,0.5537440089150002,0.6,1.0,1.0,313.0,919.0,1.0,1,268.0,1
128,128,0.3345083215430452,0.3,0.0,0.0,308.0,973.0,0.0,1,519.0,1
129,129,0.27064796745921005,0.3,1.0,1.0,363.0,604.0,1.0,1,903.0,1
130,130,0.5268589401656499,0.5,0.0,0.0,294.0,795.0,0.0,1,211.0,1
131,131,0.7149377835853078,0.7,0.0,0.0,430.0,543.0,0.0,1,427.0,1
132,132,0.8237107267864693,0.8,0.0,0.0,278.0,537.0,0.0,1,565.0,1
133,133,-0.6564354182940295,-0.7,1.0,0.0,477.0,991.0,0.0,0,162.0,1
134,134,-0.7319952776284263,-0.7,1.0,0.0,394.0,671.0,0.0,0,135.0,1
135,135,-0.7352038527735807,-0.7,0.0,1.0,340.0,657.0,1.0,0,243.0,1
136,136,0.7007005405284791,0.7,0.0,0.0,323.0,628.0,0.0,1,269.0,1
137,137,-0.09994691892238472,-0.1,1.0,0.0,397.0,897.0,0.0,0,846.0,1
138,138,0.1348040881356075,0.1,0.0,0.0,308.0,870.0,0.0,1,3822.0,1
139,139,0.8068587485178366,0.8,1.0,1.0,354.0,683.0,1.0,1,153.0,1
140,140,0.07933007224163724,0.1,1.0,1.0,278.0,916.0,1.0,1,3776.0,1
141,141,0.5562969480867584,0.6,1.0,1.0,422.0,855.0,1.0,1,383.0,1
142,142,-0.11485495665173162,-0.1,1.0,0.0,370.0,661.0,0.0,0,249.0,1
143,143,-0.33526790702110276,-0.3,1.0,0.0,498.0,601.0,0.0,0,1291.0,1
144,144,0.6426240664278019,0.6,1.0,1.0,423.0,759.0,1.0,1,268.0,1
145,145,-0.8687614919862323,-0.9,1.0,0.0,398.0,914.0,0.0,0,108.0,1
146,146,-0.10541317059717314,-0.1,0.0,1.0,437.0,686.0,1.0,0,1497.0,1
147,147,-0.717051419648533,-0.7,0.0,1.0,362.0,502.0,1.0,0,186.0,1
148,148,-0.039495240050010816,-0.0,0.0,1.0,360.0,549.0,1.0,0,4091.0,1
149,149,0.5534815780015191,0.6,0.0,0.0,462.0,736.0,0.0,1,232.0,1
150,150,0.2002550915413105,0.2,1.0,1.0,273.0,720.0,1.0,1,1047.0,1
151,151,0.3622477777775025,0.4,1.0,1.0,323.0,506.0,1.0,1,731.0,1
152,152,0.47217295291201766,0.5,0.0,0.0,311.0,938.0,0.0,1,361.0,1
153,153,-0.5604571568248009,-0.6,0.0,1.0,335.0,628.0,1.0,0,427.0,1
154,154,-0.7430298161322896,-0.7,1.0,0.0,347.0,847.0,0.0,0,186.0,1
155,155,-0.24917243943845946,-0.2,0.0,1.0,345.0,610.0,1.0,0,605.0,1
156,156,0.453385830372078,0.5,1.0,1.0,395.0,789.0,1.0,1,956.0,1
157,157,-0.83122470169992,-0.8,1.0,0.0,445.0,575.0,0.0,0,260.0,1
158,158,0.36078068181863066,0.4,0.0,0.0,312.0,610.0,0.0,1,548.0,1
159,159,0.7231927161320205,0.7,1.0,1.0,400.0,518.0,1.0,1,322.0,1
160,160,-0.8373133612659831,-0.8,0.0,1.0,415.0,903.0,1.0,0,212.0,1
161,161,0.7574251311914563,0.8,0.0,0.0,325.0,947.0,0.0,1,468.0,1
162,162,0.7727162971079414,0.8,1.0,1.0,459.0,796.0,1.0,1,235.0,1
163,163,0.17403852664925468,0.2,1.0,1.0,484.0,532.0,1.0,1,244.0,1
164,164,0.27555995482295936,0.3,1.0,1.0,365.0,825.0,1.0,1,490.0,1
165,165,0.5422197767521845,0.5,0.0,0.0,301.0,608.0,0.0,1,191.0,1
166,166,-0.18709628535139922,-0.2,0.0,1.0,372.0,857.0,1.0,0,1441.0,1
167,167,0.0030998258233886355,0.0,0.0,0.0,283.0,634.0,0.0,1,2263.0,1
168,168,0.06855481238184324,0.1,0.0,0.0,399.0,808.0,0.0,1,3793.0,1
169,169,-0.33729344255785443,-0.3,0.0,1.0,345.0,500.0,1.0,0,495.0,1
170,170,0.09148035536410393,0.1,1.0,1.0,305.0,778.0,0.0,0,3917.0,0
171,171,0.8472921671626431,0.8,0.0,0.0,353.0,502.0,0.0,1,235.0,1
172,172,-0.3086262240066445,-0.3,0.0,1.0,399.0,886.0,1.0,0,405.0,1
173,173,0.7280609848895502,0.7,0.0,0.0,331.0,558.0,0.0,1,251.0,1
174,174,0.1397413359398808,0.1,0.0,0.0,253.0,843.0,0.0,1,1304.0,1
175,175,-0.19747134446281733,-0.2,1.0,0.0,292.0,530.0,0.0,0,638.0,1
176,176,-0.74225801393574,-0.7,0.0,1.0,271.0,913.0,1.0,0,236.0,1
177,177,-0.8175654253107186,-0.8,0.0,1.0,254.0,974.0,1.0,0,302.0,1
178,178,-0.6993134375093831,-0.7,1.0,0.0,439.0,819.0,0.0,0,362.0,1
179,179,0.23747395003147853,0.2,1.0,1.0,298.0,521.0,1.0,1,651.0,1
180,180,0.4436512189497036,0.4,1.0,1.0,327.0,851.0,1.0,1,732.0,1
181,181,-0.5686152241992108,-0.6,0.0,1.0,435.0,819.0,1.0,0,266.0,1
182,182,-0.5300747515670692,-0.5,1.0,0.0,402.0,597.0,0.0,0,411.0,1
183,183,-0.7879227902500002,-0.8,1.0,0.0,272.0,810.0,0.0,0,158.0,1
184,184,0.38353912172587046,0.4,1.0,1.0,483.0,507.0,1.0,1,640.0,1
185,185,0.49331929363188587,0.5,1.0,1.0,406.0,878.0,1.0,1,206.0,1
186,186,-0.5032556244768915,-0.5,0.0,1.0,390.0,901.0,1.0,0,349.0,1
187,187,0.04263997392186236,0.0,1.0,1.0,271.0,724.0,1.0,1,2665.0,1
188,188,0.2386714363389527,0.2,0.0,0.0,470.0,763.0,0.0,1,737.0,1
189,189,-0.4328859315826644,-0.4,0.0,1.0,351.0,683.0,1.0,0,226.0,1
190,190,0.24353196444564806,0.2,1.0,1.0,472.0,708.0,1.0,1,800.0,1
191,191,-0.7983468763141761,-0.8,1.0,0.0,285.0,774.0,0.0,0,151.0,1
192,192,-0.8489033717354793,-0.8,0.0,1.0,474.0,842.0,1.0,0,294.0,1
193,193,-0.626313609642287,-0.6,0.0,1.0,408.0,651.0,1.0,0,421.0,1
194,194,-0.345699792742289,-0.3,1.0,0.0,365.0,772.0,0.0,0,613.0,1
195,195,-0.7695446997007133,-0.8,0.0,1.0,363.0,703.0,1.0,0,244.0,1
196,196,-0.8817730114409049,-0.9,1.0,0.0,407.0,598.0,0.0,0,235.0,1
197,197,0.3178223993152053,0.3,0.0,0.0,450.0,953.0,0.0,1,-293.0,1
198,198,0.33427449591942515,0.3,1.0,1.0,484.0,943.0,1.0,1,443.0,1
199,199,0.39383996628169926,0.4,1.0,1.0,261.0,740.0,1.0,1,929.0,1
200,200,-0.22847653105269783,-0.2,1.0,0.0,280.0,912.0,0.0,0,988.0,1
201,201,0.8138833917521556,0.8,1.0,1.0,453.0,701.0,1.0,1,336.0,1
202,202,-0.0898275206979019,-0.1,1.0,0.0,289.0,958.0,0.0,0,3753.0,1
203,203,-0.5883303071077679,-0.6,1.0,0.0,279.0,965.0,0.0,0,206.0,1
204,204,0.7937850584347562,0.8,0.0,0.0,287.0,809.0,0.0,1,134.0,1
205,205,0.695105722085375,0.7,0.0,0.0,398.0,800.0,0.0,1,282.0,1
206,206,-0.7506348040896388,-0.8,0.0,1.0,418.0,926.0,1.0,0,216.0,1
207,207,-0.3284580009078145,-0.3,0.0,1.0,439.0,532.0,1.0,0,949.0,1
208,208,0.5725433728629662,0.6,1.0,1.0,431.0,970.0,1.0,1,389.0,1
209,209,0.28908725900686194,0.3,1.0,1.0,483.0,943.0,1.0,1,564.0,1
210,210,-0.5770327066194928,-0.6,0.0,1.0,469.0,815.0,1.0,0,376.0,1
211,211,0.2046110363690169,0.2,0.0,0.0,368.0,656.0,0.0,1,1696.0,1
212,212,-0.5572826085654217,-0.6,1.0,0.0,259.0,928.0,0.0,0,273.0,1
213,213,-0.7997828845719822,-0.8,1.0,0.0,396.0,619.0,0.0,0,1355.0,1
214,214,0.40415505446792255,0.4,0.0,0.0,400.0,868.0,0.0,1,432.0,1
215,215,0.27855895792781726,0.3,1.0,1.0,261.0,925.0,1.0,1,244.0,1
216,216,-0.27639275905148863,-0.3,1.0,0.0,418.0,784.0,0.0,0,1058.0,1
217,217,0.3784546140824666,0.4,0.0,0.0,476.0,871.0,0.0,1,463.0,1
218,218,-0.36010294835758205,-0.4,1.0,0.0,309.0,686.0,0.0,0,305.0,1
219,219,0.19277423842248942,0.2,0.0,0.0,383.0,885.0,0.0,1,2162.0,1
220,220,0.37119328817759156,0.4,1.0,1.0,319.0,648.0,1.0,1,593.0,1
221,221,0.11143045553172637,0.1,0.0,0.0,289.0,683.0,0.0,1,3238.0,1
222,222,-0.2312679137998327,-0.2,0.0,1.0,451.0,618.0,1.0,0,781.0,1
223,223,-0.8451224975147894,-0.8,0.0,1.0,379.0,967.0,1.0,0,204.0,1
224,224,0.25012517048651184,0.3,1.0,1.0,385.0,570.0,1.0,1,945.0,1
225,225,-0.46942502779203443,-0.5,0.0,1.0,309.0,561.0,1.0,0,170.0,1
226,226,0.5578285444872751,0.6,1.0,1.0,459.0,810.0,1.0,1,431.0,1
227,227,-0.08572376837237594,-0.1,0.0,1.0,352.0,682.0,1.0,0,336.0,1
228,228,0.8015903654711042,0.8,1.0,1.0,387.0,732.0,1.0,1,311.0,1
229,229,0.5624639653347344,0.6,1.0,1.0,286.0,704.0,1.0,1,340.0,1
230,230,0.7242568154893695,0.7,1.0,1.0,489.0,772.0,1.0,1,209.0,1
231,231,0.8968586079351989,0.9,0.0,0.0,347.0,655.0,0.0,1,198.0,1
232,232,-0.5057116575795293,-0.5,1.0,0.0,292.0,717.0,0.0,0,181.0,1
233,233,-0.7559003275545051,-0.8,1.0,0.0,308.0,692.0,0.0,0,170.0,1
234,234,0.24396135142170772,0.2,0.0,0.0,469.0,970.0,0.0,1,211.0,1
235,235,-0.16100313395039523,-0.2,1.0,0.0,277.0,700.0,0.0,0,393.0,1
236,236,-0.4410464123616941,-0.4,1.0,0.0,278.0,625.0,0.0,0,377.0,1
237,237,-0.018339185523150725,-0.0,1.0,0.0,414.0,923.0,0.0,0,2823.0,1
238,238,0.8964085902306497,0.9,0.0,0.0,459.0,600.0,0.0,1,461.0,1
239,239,-0.4772938240606173,-0.5,1.0,0.0,271.0,869.0,1.0,1,-10.0,0
240,240,0.8479875178599307,0.8,1.0,1.0,487.0,911.0,1.0,1,282.0,1
241,241,-0.5476013646990905,-0.5,1.0,0.0,314.0,507.0,0.0,0,369.0,1
242,242,0.23881436663564581,0.2,1.0,1.0,423.0,518.0,1.0,1,369.0,1
243,243,0.8483406369765346,0.8,1.0,1.0,272.0,963.0,1.0,1,135.0,1
244,244,0.45714533365877597,0.5,1.0,1.0,360.0,877.0,1.0,1,693.0,1
245,245,0.7704292263674254,0.8,0.0,0.0,282.0,622.0,0.0,1,216.0,1
246,246,-0.41838362912908816,-0.4,0.0,1.0,381.0,569.0,1.0,0,460.0,1
247,247,-0.6978169641766999,-0.7,1.0,0.0,365.0,659.0,0.0,0,176.0,1
248,248,0.013479860545719702,0.0,1.0,1.0,427.0,636.0,0.0,0,3937.0,0
249,249,-0.15000241257195224,-0.2,1.0,0.0,304.0,598.0,0.0,0,1168.0,1
250,250,-0.18364695038032752,-0.2,1.0,0.0,321.0,817.0,0.0,0,1172.0,1
251,251,-0.48967957557208375,-0.5,1.0,0.0,448.0,642.0,0.0,0,130.0,1
252,252,0.29459465969072485,0.3,0.0,0.0,298.0,506.0,0.0,1,1236.0,1
253,253,-0.09534424612789894,-0.1,0.0,1.0,425.0,803.0,0.0,1,3772.0,0
254,254,-0.17900127774745123,-0.2,1.0,0.0,438.0,760.0,0.0,0,1552.0,1
255,255,0.8935355872811807,0.9,1.0,1.0,422.0,950.0,1.0,1,78.0,1
256,256,0.3492404987783978,0.3,0.0,0.0,484.0,731.0,0.0,1,415.0,1
257,257,0.6583719555247803,0.7,1.0,1.0,313.0,814.0,1.0,1,573.0,1
258,258,0.7478358248903095,0.7,1.0,1.0,398.0,693.0,1.0,1,239.0,1
259,259,-0.33605974085206947,-0.3,1.0,0.0,419.0,506.0,0.0,0,455.0,1
260,260,-0.10959460401199217,-0.1,0.0,1.0,322.0,977.0,1.0,0,581.0,1
261,261,0.10224263225633001,0.1,0.0,0.0,401.0,541.0,0.0,1,1518.0,1
262,262,-0.24449987467383683,-0.2,1.0,0.0,333.0,817.0,0.0,0,310.0,1
263,263,0.7306223305788663,0.7,0.0,0.0,473.0,914.0,0.0,1,343.0,1
264,264,0.3907478718716243,0.4,0.0,0.0,286.0,832.0,0.0,1,852.0,1
265,265,0.6671813658784506,0.7,0.0,0.0,396.0,529.0,0.0,1,265.0,1
266,266,0.22259830564832928,0.2,0.0,0.0,480.0,770.0,0.0,1,1120.0,1
267,267,-0.5702117135260846,-0.6,0.0,1.0,289.0,902.0,1.0,0,209.0,1
268,268,-0.46606783875206415,-0.5,0.0,1.0,403.0,741.0,1.0,0,376.0,1
269,269,0.5950276284858648,0.6,0.0,0.0,298.0,845.0,0.0,1,497.0,1
270,270,-0.6833317691424305,-0.7,1.0,0.0,321.0,885.0,0.0,0,294.0,1
271,271,0.8068103496350018,0.8,0.0,0.0,498.0,798.0,0.0,1,254.0,1
272,272,-0.04657496526133442,-0.0,0.0,1.0,329.0,609.0,1.0,0,4062.0,1
273,273,-0.41765921311718246,-0.4,1.0,0.0,386.0,979.0,0.0,0,175.0,1
274,274,0.6720015848281701,0.7,1.0,1.0,385.0,806.0,1.0,1,669.0,1
275,275,-0.4537745518127291,-0.5,0.0,1.0,499.0,776.0,1.0,0,375.0,1
276,276,0.5893398332849876,0.6,1.0,1.0,287.0,869.0,1.0,1,304.0,1
277,277,0.824227798348368,0.8,0.0,0.0,278.0,573.0,0.0,1,239.0,1
278,278,-0.5984317273527422,-0.6,0.0,1.0,383.0,873.0,1.0,0,304.0,1
279,279,0.07235398974592344,0.1,0.0,0.0,289.0,824.0,0.0,1,627.0,1
280,280,-0.7701703220012917,-0.8,0.0,1.0,265.0,728.0,1.0,0,327.0,1
281,281,0.15701372040422024,0.2,1.0,1.0,390.0,828.0,1.0,1,1112.0,1
282,282,0.20685672588619186,0.2,1.0,1.0,370.0,701.0,1.0,1,559.0,1
283,283,-0.49486402693193443,-0.5,1.0,0.0,429.0,991.0,0.0,0,460.0,1
284,284,0.2825816948038985,0.3,0.0,0.0,472.0,941.0,0.0,1,807.0,1
285,285,-0.7719412037910904,-0.8,0.0,1.0,437.0,835.0,1.0,0,258.0,1
286,286,-0.009264757645015664,-0.0,1.0,0.0,361.0,838.0,1.0,1,3801.0,0
287,287,-0.2640362149305199,-0.3,0.0,1.0,494.0,593.0,1.0,0,803.0,1
288,288,0.6992918037758545,0.7,0.0,0.0,361.0,890.0,0.0,1,269.0,1
289,289,-0.46924192365228184,-0.5,0.0,1.0,267.0,844.0,1.0,0,399.0,1
290,290,0.7119005741628769,0.7,0.0,0.0,326.0,663.0,0.0,1,451.0,1
291,291,-0.5936226753316729,-0.6,0.0,1.0,490.0,907.0,1.0,0,223.0,1
292,292,-0.7313375537344946,-0.7,1.0,0.0,263.0,613.0,0.0,0,124.0,1
293,293,0.29932284877638626,0.3,0.0,0.0,279.0,972.0,0.0,1,639.0,1
294,294,-0.4639482260172394,-0.5,0.0,1.0,273.0,559.0,1.0,0,428.0,1
295,295,-0.5948676947329482,-0.6,0.0,1.0,496.0,762.0,1.0,0,342.0,1
296,296,0.14114089034674981,0.1,1.0,1.0,289.0,948.0,1.0,1,863.0,1
297,297,-0.46202905525464233,-0.5,1.0,0.0,317.0,686.0,0.0,0,127.0,1
298,298,0.7668840079173588,0.8,1.0,1.0,283.0,918.0,1.0,1,279.0,1
299,299,0.6923316696896359,0.7,0.0,0.0,291.0,830.0,0.0,1,139.0,1
300,300,0.27247790399815497,0.3,1.0,1.0,444.0,625.0,1.0,1,771.0,1
301,301,-0.15566718881410735,-0.2,0.0,1.0,286.0,818.0,1.0,0,796.0,1
302,302,0.844869633146654,0.8,1.0,1.0,379.0,844.0,1.0,1,267.0,1
303,303,-0.09415300607540944,-0.1,1.0,0.0,346.0,558.0,0.0,0,2376.0,1
304,304,-0.24211472688824243,-0.2,1.0,0.0,269.0,519.0,0.0,0,972.0,1
305,305,-0.7321824852060472,-0.7,0.0,1.0,484.0,814.0,1.0,0,282.0,1
306,306,-0.33395487173730987,-0.3,0.0,1.0,447.0,825.0,1.0,0,528.0,1
307,307,-0.6125666934183893,-0.6,0.0,1.0,420.0,682.0,1.0,0,388.0,1
308,308,-0.8402947904649497,-0.8,1.0,0.0,329.0,689.0,0.0,0,982.0,1
309,309,0.5067192551678367,0.5,1.0,1.0,471.0,845.0,1.0,1,304.0,1
310,310,-0.6767906368305331,-0.7,1.0,0.0,436.0,921.0,0.0,0,293.0,1
311,311,0.20364644325943548,0.2,0.0,0.0,363.0,969.0,0.0,1,668.0,1
312,312,-0.3882739755462663,-0.4,0.0,1.0,462.0,609.0,1.0,0,479.0,1
313,313,-0.44588658381700436,-0.4,0.0,1.0,369.0,834.0,1.0,0,827.0,1
314,314,-0.23252310332255122,-0.2,1.0,0.0,304.0,785.0,0.0,0,981.0,1
315,315,0.19030362962851488,0.2,0.0,0.0,379.0,945.0,0.0,1,306.0,1
316,316,-0.4428353074311176,-0.4,1.0,0.0,262.0,833.0,0.0,0,365.0,1
317,317,-0.6082026327765366,-0.6,1.0,0.0,442.0,655.0,0.0,0,313.0,1
318,318,-0.1623399105821235,-0.2,1.0,0.0,399.0,681.0,0.0,0,3920.0,1
319,319,-0.767381862859951,-0.8,0.0,1.0,410.0,674.0,1.0,0,106.0,1
320,320,-0.6408300701340791,-0.6,0.0,1.0,286.0,607.0,1.0,0,387.0,1
321,321,0.45696125146850697,0.5,0.0,0.0,454.0,977.0,0.0,1,449.0,1
322,322,0.6826079367937531,0.7,0.0,0.0,401.0,531.0,0.0,1,248.0,1
323,323,0.6944818139831134,0.7,1.0,1.0,355.0,724.0,1.0,1,391.0,1
324,324,0.5716333396637393,0.6,0.0,0.0,458.0,866.0,0.0,1,626.0,1
325,325,0.3166922367827151,0.3,1.0,1.0,338.0,657.0,1.0,1,835.0,1
326,326,-0.5159596044119263,-0.5,1.0,0.0,261.0,719.0,0.0,0,380.0,1
327,327,-0.033700538696443405,-0.0,0.0,1.0,401.0,919.0,1.0,0,1540.0,1
328,328,-0.8166314046719382,-0.8,0.0,1.0,459.0,513.0,1.0,0,318.0,1
329,329,0.6650289579556773,0.7,0.0,0.0,329.0,866.0,0.0,1,415.0,1
330,330,0.8780894859714888,0.9,0.0,0.0,420.0,755.0,0.0,1,165.0,1
331,331,-0.5205956142413662,-0.5,1.0,0.0,401.0,769.0,0.0,0,280.0,1
332,332,-0.8587169524168735,-0.9,1.0,0.0,453.0,501.0,0.0,0,236.0,1
333,333,0.19947546789689763,0.2,1.0,1.0,387.0,505.0,1.0,1,1688.0,1
334,334,-0.39289903485333966,-0.4,0.0,1.0,329.0,959.0,1.0,0,662.0,1
335,335,-0.6346977803214594,-0.6,1.0,0.0,375.0,905.0,0.0,0,210.0,1
336,336,-0.08989829237611713,-0.1,0.0,1.0,390.0,987.0,1.0,0,793.0,1
337,337,0.6786213914961762,0.7,0.0,0.0,475.0,570.0,0.0,1,255.0,1
338,338,0.11251978301389431,0.1,1.0,1.0,351.0,947.0,1.0,1,1482.0,1
339,339,0.24651228217340881,0.2,0.0,0.0,357.0,997.0,0.0,1,1246.0,1
340,340,-0.0696450611511732,-0.1,0.0,1.0,308.0,655.0,1.0,0,3107.0,1
341,341,-0.09768624556498162,-0.1,1.0,0.0,463.0,682.0,0.0,0,3855.0,1
342,342,0.34717474768325085,0.3,1.0,1.0,392.0,554.0,1.0,1,694.0,1
343,343,0.5187774941681925,0.5,0.0,0.0,284.0,806.0,0.0,1,390.0,1
344,344,0.6040339266028844,0.6,0.0,0.0,319.0,738.0,0.0,1,213.0,1
345,345,0.2636140903733234,0.3,1.0,1.0,291.0,563.0,1.0,1,496.0,1
346,346,-0.1909623309181221,-0.2,0.0,1.0,398.0,556.0,1.0,0,626.0,1
347,347,0.5199998943900374,0.5,0.0,0.0,379.0,983.0,0.0,1,368.0,1
348,348,0.130672170798234,0.1,0.0,0.0,337.0,629.0,0.0,1,1594.0,1
349,349,-0.12596153537720045,-0.1,1.0,0.0,359.0,607.0,0.0,0,1144.0,1
350,350,-0.1843991167611534,-0.2,0.0,1.0,409.0,636.0,1.0,0,705.0,1
351,351,0.3399897543303668,0.3,0.0,0.0,355.0,781.0,0.0,1,674.0,1
352,352,-0.6989618347048054,-0.7,0.0,1.0,258.0,609.0,1.0,0,303.0,1
353,353,-0.14463827134719642,-0.1,1.0,0.0,473.0,799.0,0.0,0,1498.0,1
354,354,0.5653500796075673,0.6,0.0,0.0,315.0,880.0,0.0,1,145.0,1
355,355,0.7218525617706314,0.7,1.0,1.0,460.0,554.0,1.0,1,346.0,1
356,356,-0.05849547021580159,-0.1,0.0,1.0,413.0,977.0,1.0,0,1760.0,1
357,357,-0.5025598008939312,-0.5,1.0,0.0,483.0,721.0,0.0,0,186.0,1
358,358,0.8572987483206059,0.9,0.0,0.0,472.0,533.0,0.0,1,135.0,1
359,359,0.07276537255288684,0.1,1.0,1.0,478.0,843.0,0.0,0,3679.0,0
360,360,-0.612166680935873,-0.6,1.0,0.0,467.0,776.0,0.0,0,227.0,1
361,361,-0.6952262944618354,-0.7,1.0,0.0,274.0,579.0,0.0,0,287.0,1
362,362,0.5435972298874531,0.5,1.0,1.0,372.0,743.0,1.0,1,235.0,1
363,363,0.6376759785248401,0.6,1.0,1.0,307.0,699.0,1.0,1,-266.0,1
364,364,0.8031523981299201,0.8,0.0,0.0,326.0,572.0,0.0,1,202.0,1
365,365,-0.6853149155668645,-0.7,0.0,1.0,306.0,745.0,1.0,0,359.0,1
366,366,-0.7178422739453845,-0.7,1.0,0.0,343.0,894.0,0.0,0,213.0,1
367,367,-0.5678903925219787,-0.6,0.0,1.0,498.0,822.0,1.0,0,530.0,1
368,368,-0.888004290932711,-0.9,1.0,0.0,300.0,725.0,0.0,0,375.0,1
369,369,-0.29644951464599645,-0.3,1.0,0.0,259.0,932.0,0.0,0,329.0,1
370,370,-0.6783468228500751,-0.7,1.0,0.0,269.0,775.0,0.0,0,216.0,1
371,371,0.018649806384269052,0.0,1.0,1.0,314.0,612.0,0.0,0,4074.0,0
372,372,-0.896370575035781,-0.9,0.0,1.0,370.0,724.0,1.0,0,346.0,1
373,373,0.6477490935750633,0.6,0.0,0.0,450.0,834.0,0.0,1,386.0,1
374,374,-0.20899865252174255,-0.2,1.0,0.0,440.0,648.0,0.0,0,1602.0,1
375,375,-0.10350733729312989,-0.1,0.0,1.0,497.0,982.0,1.0,0,2901.0,1
376,376,-0.7518628009230648,-0.8,1.0,0.0,483.0,943.0,1.0,1,-376.0,0
377,377,-0.844962775075213,-0.8,0.0,1.0,422.0,682.0,1.0,0,186.0,1
378,378,0.09550417298862257,0.1,0.0,0.0,322.0,887.0,0.0,1,3791.0,1
379,379,0.5232539923034799,0.5,0.0,0.0,329.0,944.0,0.0,1,527.0,1
380,380,-0.541125770327824,-0.5,1.0,0.0,279.0,700.0,0.0,0,-89.0,1
381,381,-0.6972867995597327,-0.7,0.0,1.0,325.0,695.0,1.0,0,150.0,1
382,382,-0.587076590391025,-0.6,0.0,1.0,422.0,713.0,1.0,0,265.0,1
383,383,0.2821510787439402,0.3,0.0,0.0,321.0,782.0,0.0,1,827.0,1
384,384,-0.08712396304097558,-0.1,1.0,0.0,443.0,679.0,0.0,0,3878.0,1
385,385,0.5460608987903081,0.5,1.0,1.0,493.0,822.0,1.0,1,315.0,1
386,386,0.5795870025873798,0.6,0.0,0.0,412.0,714.0,0.0,1,174.0,1
387,387,0.19985926230477558,0.2,0.0,0.0,459.0,570.0,0.0,1,1001.0,1
388,388,-0.336963149038797,-0.3,1.0,0.0,267.0,825.0,0.0,0,398.0,1
389,389,-0.4774854800402122,-0.5,0.0,1.0,296.0,847.0,1.0,0,367.0,1
390,390,0.606986950772645,0.6,0.0,0.0,283.0,555.0,0.0,1,252.0,1
391,391,0.4415088489198814,0.4,1.0,1.0,460.0,905.0,1.0,1,635.0,1
392,392,-0.2600828833782729,-0.3,1.0,0.0,346.0,896.0,0.0,0,218.0,1
393,393,-0.6165880437754576,-0.6,1.0,0.0,317.0,821.0,0.0,0,242.0,1
394,394,0.061157680781328105,0.1,0.0,0.0,477.0,957.0,0.0,1,3566.0,1
395,395,-0.0656904637301775,-0.1,1.0,0.0,294.0,715.0,0.0,0,3081.0,1
396,396,-0.34870850351691063,-0.3,1.0,0.0,299.0,657.0,0.0,0,434.0,1
397,397,-0.1951527610289382,-0.2,1.0,0.0,423.0,535.0,0.0,0,1892.0,1
398,398,-0.6200943793571617,-0.6,1.0,0.0,396.0,589.0,0.0,0,355.0,1
399,399,0.1500671321505097,0.2,0.0,0.0,429.0,970.0,0.0,1,2481.0,1
400,400,0.2597706545294475,0.3,0.0,0.0,379.0,881.0,0.0,1,480.0,1
401,401,0.37196177365667504,0.4,0.0,0.0,473.0,677.0,0.0,1,460.0,1
402,402,-0.4560848847041273,-0.5,0.0,1.0,460.0,714.0,1.0,0,326.0,1
403,403,-0.1079975420357735,-0.1,0.0,1.0,430.0,771.0,1.0,0,2509.0,1
404,404,-0.8760805355987373,-0.9,1.0,0.0,282.0,920.0,0.0,0,258.0,1
405,405,0.6080737250032943,0.6,0.0,0.0,396.0,515.0,0.0,1,169.0,1
406,406,-0.33046992336356995,-0.3,1.0,0.0,392.0,863.0,0.0,0,275.0,1
407,407,0.32605563859673936,0.3,1.0,1.0,267.0,668.0,1.0,1,665.0,1
408,408,-0.7253888410017818,-0.7,1.0,0.0,311.0,583.0,0.0,0,276.0,1
409,409,-0.7369601452054525,-0.7,1.0,0.0,390.0,506.0,0.0,0,234.0,1
410,410,-0.28466109892917946,-0.3,0.0,1.0,403.0,989.0,1.0,0,328.0,1
411,411,-0.7213797218978554,-0.7,0.0,1.0,377.0,851.0,1.0,0,382.0,1
412,412,-0.20944755942810944,-0.2,0.0,1.0,312.0,722.0,1.0,0,876.0,1
413,413,-0.39687763157087774,-0.4,0.0,1.0,468.0,882.0,1.0,0,260.0,1
414,414,-0.48516530572207683,-0.5,1.0,0.0,400.0,716.0,0.0,0,484.0,1
415,415,0.6995970359469011,0.7,0.0,0.0,321.0,757.0,0.0,1,252.0,1
416,416,0.15830262868009048,0.2,1.0,1.0,295.0,957.0,1.0,1,478.0,1
417,417,0.2831313208073679,0.3,1.0,1.0,352.0,710.0,1.0,1,738.0,1
418,418,0.5232019940708171,0.5,0.0,0.0,318.0,543.0,0.0,1,469.0,1
419,419,0.323357661814356,0.3,0.0,0.0,467.0,570.0,0.0,1,483.0,1
420,420,0.7152359501486313,0.7,1.0,1.0,417.0,894.0,1.0,1,189.0,1
421,421,0.8671730972679438,0.9,0.0,0.0,431.0,806.0,0.0,1,143.0,1
422,422,0.6690283769643689,0.7,1.0,1.0,290.0,679.0,1.0,1,341.0,1
423,423,-0.7830266359045649,-0.8,1.0,0.0,436.0,926.0,0.0,0,218.0,1
424,424,0.47262203312650153,0.5,0.0,0.0,382.0,947.0,0.0,1,461.0,1
425,425,-0.5061398192253035,-0.5,1.0,0.0,498.0,992.0,0.0,0,430.0,1
426,426,0.21312988378631592,0.2,1.0,1.0,392.0,686.0,1.0,1,1232.0,1
427,427,0.6964723817595472,0.7,1.0,1.0,329.0,795.0,1.0,1,216.0,1
428,428,-0.06912042524391582,-0.1,1.0,0.0,340.0,544.0,0.0,0,1816.0,1
429,429,0.8048780130089167,0.8,0.0,0.0,322.0,564.0,0.0,1,144.0,1
430,430,-0.7221324310102611,-0.7,0.0,1.0,474.0,510.0,1.0,0,476.0,1
431,431,-0.19360476779920477,-0.2,0.0,1.0,263.0,787.0,1.0,0,1280.0,1
432,432,-0.26595612853746065,-0.3,1.0,0.0,346.0,568.0,0.0,0,436.0,1
433,433,0.2547096323504413,0.3,0.0,0.0,298.0,845.0,0.0,1,487.0,1
434,434,-0.8985320563050244,-0.9,1.0,0.0,378.0,996.0,0.0,0,46.0,1
435,435,0.4119498046989801,0.4,0.0,0.0,331.0,859.0,0.0,1,330.0,1
436,436,-0.6225734881561411,-0.6,0.0,1.0,316.0,865.0,1.0,0,249.0,1
437,437,0.09763698064148751,0.1,0.0,0.0,305.0,829.0,0.0,1,2696.0,1
438,438,-0.6407031628238685,-0.6,1.0,0.0,258.0,514.0,0.0,0,658.0,1
439,439,0.23252677511009268,0.2,1.0,1.0,268.0,974.0,1.0,1,258.0,1
440,440,-0.44616931672874993,-0.4,1.0,0.0,375.0,518.0,0.0,0,257.0,1
441,441,0.6724520701797653,0.7,1.0,1.0,375.0,763.0,1.0,1,472.0,1
442,442,-0.8356855101173765,-0.8,1.0,0.0,444.0,786.0,0.0,0,230.0,1
443,443,-0.5521619585835108,-0.6,0.0,1.0,430.0,897.0,1.0,0,393.0,1
444,444,-0.8978459696860925,-0.9,0.0,1.0,495.0,530.0,1.0,0,355.0,1
445,445,-0.6744854429586554,-0.7,0.0,1.0,349.0,848.0,1.0,0,333.0,1
446,446,-0.03226248119480257,-0.0,0.0,1.0,397.0,792.0,1.0,0,1261.0,1
447,447,0.25557249172371443,0.3,1.0,1.0,388.0,709.0,1.0,1,463.0,1
448,448,-0.32069787544993333,-0.3,1.0,0.0,386.0,564.0,0.0,0,660.0,1
449,449,0.33775038165287075,0.3,1.0,1.0,499.0,653.0,1.0,1,898.0,1
450,450,0.7141624287659717,0.7,0.0,0.0,326.0,550.0,0.0,1,234.0,1
451,451,-0.5251371602636979,-0.5,1.0,0.0,465.0,591.0,0.0,0,254.0,1
452,452,-0.39413049147840007,-0.4,1.0,0.0,438.0,947.0,0.0,0,255.0,1
453,453,-0.692579958049815,-0.7,1.0,0.0,458.0,979.0,0.0,0,343.0,1
454,454,0.7488945666624424,0.7,0.0,0.0,301.0,773.0,0.0,1,276.0,1
455,455,0.8337821060298091,0.8,0.0,0.0,297.0,904.0,0.0,1,239.0,1
456,456,0.7875355668894312,0.8,1.0,1.0,369.0,968.0,1.0,1,633.0,1
457,457,-0.2882926125317433,-0.3,0.0,1.0,405.0,923.0,1.0,0,282.0,1
458,458,0.6803848387219852,0.7,0.0,0.0,286.0,515.0,0.0,1,239.0,1
459,459,-0.8163000840628297,-0.8,1.0,0.0,493.0,614.0,0.0,0,373.0,1
460,460,0.2346307994495932,0.2,1.0,1.0,385.0,904.0,1.0,1,981.0,1
461,461,0.5690354285258142,0.6,0.0,0.0,345.0,984.0,0.0,1,391.0,1
462,462,-0.8947560465436244,-0.9,1.0,0.0,426.0,906.0,0.0,0,418.0,1
463,463,0.45439756422824307,0.5,1.0,1.0,292.0,931.0,1.0,1,247.0,1
464,464,-0.01632653380253679,-0.0,0.0,1.0,470.0,766.0,0.0,1,3764.0,0
465,465,0.15508048434109611,0.2,1.0,1.0,277.0,755.0,1.0,1,718.0,1
466,466,0.6264104940272087,0.6,1.0,1.0,376.0,656.0,1.0,1,448.0,1
467,467,0.2983973102052878,0.3,0.0,0.0,379.0,604.0,0.0,1,867.0,1
468,468,-0.7417588902229548,-0.7,1.0,0.0,335.0,609.0,0.0,0,586.0,1
469,469,-0.30608428553941813,-0.3,0.0,1.0,420.0,791.0,1.0,0,819.0,1
470,470,-0.8921078811858127,-0.9,0.0,1.0,400.0,812.0,1.0,0,258.0,1
471,471,0.6492718946764792,0.6,0.0,0.0,355.0,533.0,0.0,1,492.0,1
472,472,-0.1611207803646415,-0.2,0.0,1.0,298.0,559.0,1.0,0,553.0,1
473,473,-0.5576165275464791,-0.6,1.0,0.0,352.0,570.0,0.0,0,158.0,1
474,474,0.2893560280969013,0.3,1.0,1.0,348.0,962.0,1.0,1,1300.0,1
475,475,-0.19012580460983575,-0.2,0.0,1.0,260.0,554.0,1.0,0,866.0,1
476,476,-0.020691471464938993,-0.0,0.0,1.0,409.0,804.0,0.0,1,3787.0,0
477,477,0.8984190126206008,0.9,0.0,0.0,453.0,813.0,0.0,1,64.0,1
478,478,0.8646308899053635,0.9,0.0,0.0,461.0,571.0,0.0,1,278.0,1
479,479,-0.4554393384167153,-0.5,1.0,0.0,331.0,645.0,0.0,0,574.0,1
480,480,-0.7001079292421105,-0.7,0.0,1.0,329.0,925.0,1.0,0,216.0,1
481,481,0.015381630854718109,0.0,1.0,1.0,497.0,787.0,0.0,0,3716.0,0
482,482,0.6740362191287407,0.7,0.0,0.0,324.0,565.0,0.0,1,1821.0,1
483,483,-0.3579308158062938,-0.4,0.0,1.0,398.0,830.0,1.0,0,942.0,1
484,484,0.8152782548937517,0.8,1.0,1.0,466.0,543.0,1.0,1,391.0,1
485,485,0.6981225841136224,0.7,0.0,0.0,434.0,613.0,0.0,1,163.0,1
486,486,-0.23078748794233084,-0.2,0.0,1.0,492.0,575.0,1.0,0,233.0,1
487,487,-0.6546360063276293,-0.7,0.0,1.0,496.0,548.0,1.0,0,116.0,1
488,488,-0.00852853496227024,-0.0,1.0,0.0,359.0,772.0,0.0,0,3869.0,1
489,489,0.8082283471439383,0.8,1.0,1.0,389.0,684.0,1.0,1,267.0,1
490,490,-0.44028688497620544,-0.4,0.0,1.0,401.0,507.0,1.0,0,462.0,1
491,491,0.8566221886371553,0.9,1.0,1.0,460.0,503.0,1.0,1,237.0,1
492,492,-0.17309514805252513,-0.2,1.0,0.0,370.0,762.0,0.0,0,838.0,1
493,493,-0.28063324249250043,-0.3,0.0,1.0,359.0,531.0,1.0,0,350.0,1
494,494,-0.012405523088956483,-0.0,0.0,1.0,318.0,550.0,1.0,0,4132.0,1
495,495,0.25830877855201695,0.3,1.0,1.0,269.0,622.0,1.0,1,889.0,1
496,496,0.7573005470047115,0.8,0.0,0.0,300.0,706.0,0.0,1,2554.0,1
497,497,-0.30372149556737704,-0.3,0.0,1.0,425.0,755.0,1.0,0,710.0,1
498,498,-0.8899359309591703,-0.9,0.0,1.0,348.0,501.0,1.0,0,201.0,1
499,499,-0.11628487648448582,-0.1,0.0,1.0,321.0,563.0,1.0,0,2966.0,1
500,500,-0.44354060945984985,-0.4,0.0,1.0,484.0,669.0,1.0,0,477.0,1
501,501,-0.12239753926461683,-0.1,1.0,0.0,302.0,932.0,0.0,0,3026.0,1
502,502,0.22715625226422465,0.2,0.0,0.0,434.0,615.0,0.0,1,311.0,1
503,503,-0.7703416984781475,-0.8,1.0,0.0,497.0,552.0,0.0,0,511.0,1
504,504,0.0640353718889013,0.1,0.0,0.0,277.0,964.0,0.0,1,2239.0,1
505,505,-0.7041376536057873,-0.7,0.0,1.0,285.0,626.0,1.0,0,309.0,1
506,506,-0.4911967503735532,-0.5,0.0,1.0,493.0,897.0,1.0,0,190.0,1
507,507,-0.5919287927094984,-0.6,1.0,0.0,340.0,665.0,0.0,0,235.0,1
508,508,0.5688109638922337,0.6,1.0,1.0,357.0,948.0,1.0,1,315.0,1
509,509,-0.0008243780072291207,-0.0,0.0,1.0,410.0,968.0,0.0,1,2542.0,0
510,510,0.19744273520392797,0.2,0.0,0.0,406.0,937.0,0.0,1,537.0,1
511,511,-0.44412382587607563,-0.4,1.0,0.0,353.0,778.0,0.0,0,159.0,1
512,512,0.33645537452615304,0.3,1.0,1.0,251.0,852.0,1.0,1,1217.0,1
513,513,-0.701825301379021,-0.7,1.0,0.0,384.0,764.0,0.0,0,332.0,1
514,514,-0.21197098195078168,-0.2,0.0,1.0,439.0,614.0,1.0,0,1527.0,1
515,515,-0.13775648247085803,-0.1,0.0,1.0,271.0,528.0,1.0,0,2201.0,1
516,516,-0.08235685905271317,-0.1,0.0,1.0,386.0,502.0,1.0,0,1602.0,1
517,517,-0.5264893129011441,-0.5,0.0,1.0,436.0,909.0,1.0,0,395.0,1
518,518,-0.6253712981904982,-0.6,0.0,1.0,393.0,531.0,1.0,0,296.0,1
519,519,-0.25709625271828473,-0.3,1.0,0.0,498.0,998.0,0.0,0,794.0,1
520,520,-0.44846649630164015,-0.4,1.0,0.0,485.0,563.0,0.0,0,422.0,1
521,521,0.3107444485520817,0.3,1.0,1.0,466.0,859.0,1.0,1,915.0,1
522,522,-0.6031555773791443,-0.6,1.0,0.0,344.0,520.0,0.0,0,466.0,1
523,523,0.6338941868710471,0.6,0.0,0.0,338.0,831.0,0.0,1,591.0,1
524,524,0.37190157406613433,0.4,0.0,0.0,280.0,907.0,0.0,1,753.0,1
525,525,-0.21521047797091342,-0.2,1.0,0.0,336.0,687.0,0.0,0,797.0,1
526,526,0.45965109497701084,0.5,1.0,1.0,372.0,544.0,1.0,1,-236.0,1
527,527,0.028620960164272513,0.0,0.0,0.0,499.0,790.0,0.0,1,3711.0,1
528,528,-0.209714129354875,-0.2,1.0,0.0,359.0,937.0,0.0,0,534.0,1
529,529,-0.5502361543990899,-0.6,0.0,1.0,267.0,877.0,1.0,0,436.0,1
530,530,0.19656728159747183,0.2,0.0,0.0,279.0,786.0,0.0,1,1395.0,1
531,531,-0.46995316170341567,-0.5,0.0,1.0,327.0,759.0,1.0,0,114.0,1
532,532,-0.17417327619211032,-0.2,1.0,0.0,291.0,909.0,0.0,0,550.0,1
533,533,0.12091270790984343,0.1,1.0,1.0,390.0,953.0,1.0,1,437.0,1
534,534,0.8879291217651607,0.9,1.0,1.0,462.0,954.0,1.0,1,244.0,1
535,535,0.04648947380781321,0.0,0.0,0.0,485.0,540.0,1.0,0,3975.0,0
536,536,-0.841314043323863,-0.8,1.0,0.0,252.0,643.0,0.0,0,185.0,1
537,537,-0.5298748674500641,-0.5,0.0,1.0,435.0,785.0,1.0,0,300.0,1
538,538,-0.5269968628168205,-0.5,0.0,1.0,268.0,707.0,1.0,0,365.0,1
539,539,-0.8196116654775862,-0.8,1.0,0.0,363.0,520.0,0.0,0,557.0,1
540,540,-0.14130711765952197,-0.1,0.0,1.0,254.0,877.0,1.0,0,729.0,1
541,541,-0.3950945122962862,-0.4,0.0,1.0,320.0,869.0,1.0,0,551.0,1
542,542,-0.14762043048722817,-0.1,1.0,0.0,365.0,953.0,0.0,0,462.0,1
543,543,-0.25240846436510767,-0.3,1.0,0.0,398.0,905.0,0.0,0,387.0,1
544,544,-0.4143241988521644,-0.4,1.0,0.0,365.0,859.0,0.0,0,-514.0,1
545,545,0.049812103589962575,0.0,1.0,1.0,371.0,692.0,0.0,0,3937.0,0
546,546,-0.15753321078628213,-0.2,0.0,1.0,256.0,655.0,1.0,0,1279.0,1
547,547,0.8613560572573383,0.9,0.0,0.0,296.0,658.0,0.0,1,246.0,1
548,548,0.759206929507351,0.8,0.0,0.0,255.0,720.0,0.0,1,295.0,1
549,549,0.3772557628932164,0.4,0.0,0.0,334.0,655.0,0.0,1,571.0,1
550,550,0.7436753597715203,0.7,0.0,0.0,453.0,765.0,0.0,1,92.0,1
551,551,0.7067262823528236,0.7,1.0,1.0,284.0,575.0,1.0,1,231.0,1
552,552,-0.7319210705379023,-0.7,1.0,0.0,316.0,671.0,0.0,0,123.0,1
553,553,0.8671953641190563,0.9,0.0,0.0,391.0,549.0,0.0,1,220.0,1
554,554,-0.475379582717026,-0.5,1.0,0.0,366.0,832.0,0.0,0,102.0,1
555,555,-0.8769481457592218,-0.9,1.0,0.0,329.0,594.0,0.0,0,277.0,1
556,556,0.23708539493706515,0.2,1.0,1.0,464.0,885.0,1.0,1,601.0,1
557,557,-0.8806244961839054,-0.9,1.0,0.0,360.0,602.0,0.0,0,958.0,1
558,558,-0.19181434787993445,-0.2,0.0,1.0,491.0,927.0,1.0,0,1492.0,1
559,559,-0.16663233256755305,-0.2,0.0,1.0,266.0,746.0,1.0,0,3028.0,1
560,560,0.16748415711354558,0.2,0.0,0.0,498.0,799.0,0.0,1,1383.0,1
561,561,-0.18375345661208176,-0.2,0.0,1.0,419.0,575.0,1.0,0,1206.0,1
562,562,-0.19964313302166625,-0.2,0.0,1.0,440.0,643.0,1.0,0,1127.0,1
563,563,0.5646652278733112,0.6,0.0,0.0,301.0,934.0,0.0,1,275.0,1
564,564,0.30567149149556083,0.3,1.0,1.0,474.0,976.0,1.0,1,250.0,1
565,565,-0.7086191529687487,-0.7,1.0,0.0,469.0,582.0,0.0,0,349.0,1
566,566,0.8768753120390148,0.9,1.0,1.0,387.0,610.0,1.0,1,233.0,1
567,567,-0.06465559974497637,-0.1,0.0,1.0,284.0,796.0,1.0,0,3920.0,1
568,568,-0.0008089319484069213,-0.0,0.0,1.0,466.0,944.0,1.0,0,3590.0,1
569,569,0.41505743762649183,0.4,0.0,0.0,393.0,549.0,0.0,1,518.0,1
570,570,0.508093764376108,0.5,0.0,0.0,313.0,584.0,0.0,1,293.0,1
571,571,0.6276562314634465,0.6,0.0,0.0,406.0,880.0,0.0,1,364.0,1
572,572,-0.26408983898686045,-0.3,1.0,0.0,498.0,894.0,0.0,0,1018.0,1
573,573,0.37462425909805985,0.4,1.0,1.0,427.0,921.0,1.0,1,912.0,1
574,574,0.489658289566698,0.5,0.0,0.0,426.0,888.0,0.0,1,1176.0,1
575,575,-0.13140433503996551,-0.1,0.0,1.0,336.0,813.0,1.0,0,3291.0,1
576,576,0.04194148974365486,0.0,0.0,0.0,483.0,789.0,0.0,1,3728.0,1
577,577,0.06363119180295573,0.1,0.0,0.0,382.0,810.0,0.0,1,1288.0,1
578,578,0.7053040392774862,0.7,0.0,0.0,275.0,527.0,0.0,1,358.0,1
579,579,-0.3869727263106454,-0.4,1.0,0.0,376.0,830.0,0.0,0,694.0,1
580,580,0.34851133019321956,0.3,0.0,0.0,328.0,948.0,0.0,1,384.0,1
581,581,0.5814622514349511,0.6,0.0,0.0,423.0,998.0,0.0,1,299.0,1
582,582,0.14323576722322018,0.1,0.0,0.0,464.0,832.0,0.0,1,884.0,1
583,583,0.011750389485889023,0.0,1.0,1.0,486.0,861.0,0.0,0,3653.0,0
584,584,0.8820803489608305,0.9,0.0,0.0,491.0,598.0,0.0,1,131.0,1
585,585,0.6372498374715846,0.6,1.0,1.0,407.0,530.0,1.0,1,323.0,1
586,586,-0.5653771146661323,-0.6,0.0,1.0,305.0,924.0,1.0,0,211.0,1
587,587,0.8684160915710265,0.9,0.0,0.0,339.0,615.0,0.0,1,156.0,1
588,588,0.7462542831650362,0.7,1.0,1.0,266.0,952.0,1.0,1,222.0,1
589,589,0.21562366493717888,0.2,0.0,0.0,291.0,679.0,0.0,1,4030.0,1
590,590,-0.23123543068101815,-0.2,1.0,0.0,276.0,905.0,0.0,0,1719.0,1
591,591,-0.7478010091208898,-0.7,0.0,1.0,286.0,537.0,1.0,0,47.0,1
592,592,0.6996942310223587,0.7,1.0,1.0,410.0,537.0,1.0,1,403.0,1
593,593,0.8174394085362416,0.8,1.0,1.0,268.0,791.0,1.0,1,311.0,1
594,594,-0.24073928871386518,-0.2,0.0,1.0,335.0,903.0,1.0,0,542.0,1
595,595,0.5095961267386101,0.5,0.0,0.0,302.0,828.0,0.0,1,500.0,1
596,596,0.6060038905948845,0.6,1.0,1.0,264.0,530.0,1.0,1,266.0,1
597,597,-0.01463193413990771,-0.0,0.0,1.0,450.0,524.0,1.0,0,4026.0,1
598,598,-0.08533350783361748,-0.1,1.0,0.0,492.0,932.0,0.0,0,1656.0,1
599,599,0.3170396968586834,0.3,1.0,1.0,471.0,753.0,1.0,1,216.0,1
600,600,-0.11068511392527591,-0.1,1.0,0.0,289.0,614.0,0.0,0,687.0,1
601,601,0.2652438904375648,0.3,0.0,0.0,300.0,898.0,0.0,1,482.0,1
602,602,0.48058564633414613,0.5,0.0,0.0,456.0,824.0,0.0,1,540.0,1
603,603,-0.01807444003993941,-0.0,1.0,0.0,435.0,503.0,1.0,1,1322.0,0
604,604,-0.5202356654457769,-0.5,1.0,0.0,300.0,697.0,0.0,0,263.0,1
605,605,0.14573435406296553,0.1,0.0,0.0,323.0,663.0,0.0,1,994.0,1
606,606,0.7856445993506892,0.8,1.0,1.0,455.0,616.0,1.0,1,169.0,1
607,607,0.3071882177181805,0.3,0.0,0.0,328.0,582.0,0.0,1,460.0,1
608,608,-0.08285400942521748,-0.1,0.0,1.0,370.0,986.0,1.0,0,834.0,1
609,609,-0.7858155132218169,-0.8,0.0,1.0,376.0,991.0,1.0,0,193.0,1
610,610,-0.7118514394192108,-0.7,0.0,1.0,310.0,711.0,1.0,0,229.0,1
611,611,0.5226282305070445,0.5,0.0,0.0,339.0,895.0,0.0,1,436.0,1
612,612,0.20229035758016167,0.2,0.0,0.0,340.0,568.0,0.0,1,1622.0,1
613,613,-0.83790058411431,-0.8,1.0,0.0,333.0,819.0,0.0,0,158.0,1
614,614,-0.37665094259230114,-0.4,0.0,1.0,369.0,792.0,1.0,0,739.0,1
615,615,-0.3282844354183829,-0.3,1.0,0.0,296.0,965.0,0.0,0,299.0,1
616,616,0.12696995698920344,0.1,1.0,1.0,415.0,781.0,1.0,1,1854.0,1
617,617,0.8866647113615126,0.9,0.0,0.0,418.0,573.0,0.0,1,239.0,1
618,618,0.0017378335826396807,0.0,1.0,1.0,409.0,944.0,0.0,0,3647.0,0
619,619,0.1870805575828426,0.2,1.0,1.0,293.0,554.0,1.0,1,373.0,1
620,620,-0.07628349780019261,-0.1,0.0,1.0,342.0,568.0,1.0,0,2850.0,1
621,621,0.7314351038736465,0.7,1.0,1.0,410.0,670.0,1.0,1,300.0,1
622,622,-0.12592047539919138,-0.1,0.0,1.0,319.0,944.0,1.0,0,3737.0,1
623,623,-0.4782831961427037,-0.5,0.0,1.0,278.0,512.0,1.0,0,250.0,1
624,624,-0.18574180951437969,-0.2,0.0,1.0,255.0,627.0,1.0,0,388.0,1
625,625,0.8825673598798541,0.9,0.0,0.0,313.0,730.0,0.0,1,337.0,1
626,626,0.05450596360074411,0.1,1.0,1.0,343.0,940.0,1.0,1,2077.0,1
627,627,0.07725097343667353,0.1,1.0,1.0,376.0,749.0,1.0,1,1985.0,1
628,628,0.8114547271907625,0.8,0.0,0.0,275.0,659.0,0.0,1,186.0,1
629,629,-0.33782510184849035,-0.3,1.0,0.0,378.0,654.0,0.0,0,508.0,1
630,630,0.7032123020660731,0.7,0.0,0.0,270.0,992.0,0.0,1,248.0,1
631,631,-0.15819310944360554,-0.2,0.0,1.0,265.0,678.0,1.0,0,1037.0,1
632,632,-0.17866605518495982,-0.2,0.0,1.0,323.0,880.0,1.0,0,3097.0,1
633,633,-0.6291470354924984,-0.6,1.0,0.0,298.0,943.0,0.0,0,219.0,1
634,634,-0.5980957716890982,-0.6,1.0,0.0,441.0,736.0,0.0,0,203.0,1
635,635,-0.7225032044265569,-0.7,1.0,0.0,254.0,936.0,0.0,0,200.0,1
636,636,0.06828782018115453,0.1,0.0,0.0,398.0,701.0,0.0,1,3901.0,1
637,637,-0.5899916366296047,-0.6,0.0,1.0,494.0,522.0,1.0,0,264.0,1
638,638,0.5472774142483031,0.5,0.0,0.0,428.0,703.0,0.0,1,209.0,1
639,639,-0.2184498906172524,-0.2,1.0,0.0,464.0,644.0,0.0,0,462.0,1
640,640,0.3559300286973571,0.4,1.0,1.0,356.0,715.0,1.0,1,429.0,1
641,641,0.052477660799489345,0.1,0.0,0.0,362.0,927.0,1.0,0,3711.0,0
642,642,-0.39881272175734583,-0.4,1.0,0.0,261.0,717.0,0.0,0,262.0,1
643,643,0.3387814339989773,0.3,0.0,0.0,394.0,838.0,0.0,1,478.0,1
644,644,0.24529649757266137,0.2,1.0,1.0,310.0,879.0,1.0,1,1191.0,1
645,645,0.3949105636441047,0.4,0.0,0.0,270.0,727.0,0.0,1,303.0,1
646,646,-0.3673225690867571,-0.4,1.0,0.0,266.0,916.0,0.0,0,288.0,1
647,647,-0.2470794544466257,-0.2,0.0,1.0,363.0,828.0,1.0,0,979.0,1
648,648,0.1837807322000583,0.2,1.0,1.0,400.0,689.0,1.0,1,251.0,1
649,649,-0.07367515777613942,-0.1,0.0,1.0,270.0,960.0,1.0,0,3770.0,1
650,650,0.02395895103951684,0.0,0.0,0.0,311.0,792.0,0.0,1,3897.0,1
651,651,-0.7269433160000577,-0.7,0.0,1.0,391.0,837.0,1.0,0,262.0,1
652,652,-0.38198656619876337,-0.4,0.0,1.0,393.0,603.0,1.0,0,544.0,1
653,653,-0.845232092748815,-0.8,1.0,0.0,289.0,720.0,0.0,0,521.0,1
654,654,-0.4179441473504491,-0.4,0.0,1.0,374.0,586.0,1.0,0,560.0,1
655,655,-0.2202280450489904,-0.2,0.0,1.0,257.0,505.0,1.0,0,828.0,1
656,656,-0.5402958076127903,-0.5,0.0,1.0,275.0,731.0,1.0,0,314.0,1
657,657,0.4827140858255473,0.5,0.0,0.0,351.0,790.0,0.0,1,299.0,1
658,658,-0.05273018288596931,-0.1,0.0,1.0,497.0,834.0,1.0,0,1939.0,1
659,659,-0.3013626295302604,-0.3,0.0,1.0,388.0,725.0,1.0,0,467.0,1
660,660,0.4136912000762988,0.4,0.0,0.0,427.0,659.0,0.0,1,184.0,1
661,661,-0.8075307338582691,-0.8,0.0,1.0,424.0,673.0,1.0,0,353.0,1
662,662,0.6579090857193876,0.7,1.0,1.0,432.0,958.0,1.0,1,200.0,1
663,663,-0.7280337421118589,-0.7,1.0,0.0,444.0,711.0,0.0,0,675.0,1
664,664,-0.05879422592765371,-0.1,1.0,0.0,431.0,848.0,0.0,0,3721.0,1
665,665,0.057999924580429685,0.1,1.0,1.0,492.0,935.0,1.0,1,3573.0,1
666,666,-0.06392668869142037,-0.1,1.0,0.0,296.0,644.0,0.0,0,1190.0,1
667,667,-0.10231393583381643,-0.1,0.0,1.0,331.0,502.0,1.0,0,2417.0,1
668,668,-0.7992767487677542,-0.8,0.0,1.0,390.0,555.0,1.0,0,185.0,1
669,669,-0.5163383194703719,-0.5,1.0,0.0,359.0,643.0,0.0,0,428.0,1
670,670,0.6930121171311229,0.7,0.0,0.0,330.0,806.0,0.0,1,304.0,1
671,671,0.16476649385777697,0.2,1.0,1.0,376.0,809.0,1.0,1,2685.0,1
672,672,-0.7721569003519032,-0.8,1.0,0.0,304.0,704.0,0.0,0,252.0,1
673,673,0.2818739543131962,0.3,1.0,1.0,270.0,794.0,1.0,1,1196.0,1
674,674,-0.4450317073418749,-0.4,1.0,0.0,334.0,706.0,0.0,0,250.0,1
675,675,0.4613112682742141,0.5,0.0,0.0,315.0,685.0,0.0,1,370.0,1
676,676,-0.7050724297549646,-0.7,1.0,0.0,353.0,847.0,0.0,0,180.0,1
677,677,-0.8533266548096795,-0.9,1.0,0.0,370.0,708.0,0.0,0,192.0,1
678,678,-0.8862554363478166,-0.9,0.0,1.0,296.0,924.0,1.0,0,190.0,1
679,679,-0.44685438056241217,-0.4,0.0,1.0,287.0,774.0,1.0,0,729.0,1
680,680,-0.3121695516606475,-0.3,1.0,0.0,400.0,779.0,0.0,0,611.0,1
681,681,-0.6958736361982885,-0.7,0.0,1.0,419.0,848.0,1.0,0,213.0,1
682,682,-0.047324122226612864,-0.0,0.0,1.0,346.0,516.0,1.0,0,1488.0,1
683,683,-0.212449072716124,-0.2,1.0,0.0,288.0,784.0,0.0,0,158.0,1
684,684,-0.04430055541414368,-0.0,0.0,1.0,443.0,657.0,1.0,0,3900.0,1
685,685,-0.21093266057459015,-0.2,1.0,0.0,270.0,563.0,0.0,0,367.0,1
686,686,0.875391442706715,0.9,1.0,1.0,495.0,650.0,1.0,1,215.0,1
687,687,0.3156040911106156,0.3,1.0,1.0,420.0,551.0,1.0,1,669.0,1
688,688,0.8829748898692072,0.9,1.0,1.0,270.0,987.0,1.0,1,233.0,1
689,689,0.6419168265679104,0.6,0.0,0.0,429.0,677.0,0.0,1,174.0,1
690,690,-0.3161070519487612,-0.3,1.0,0.0,358.0,595.0,0.0,0,387.0,1
691,691,0.23083774168760274,0.2,1.0,1.0,380.0,538.0,1.0,1,1002.0,1
692,692,0.6911386448327407,0.7,1.0,1.0,493.0,870.0,1.0,1,397.0,1
693,693,0.7438514865933094,0.7,1.0,1.0,355.0,738.0,1.0,1,577.0,1
694,694,0.2296810321578956,0.2,0.0,0.0,354.0,729.0,0.0,1,1167.0,1
695,695,-0.09169467331222936,-0.1,0.0,1.0,305.0,712.0,1.0,0,3983.0,1
696,696,0.00039393342160953804,0.0,0.0,0.0,380.0,694.0,0.0,1,3206.0,1
697,697,0.4359832889606744,0.4,1.0,1.0,375.0,681.0,1.0,1,464.0,1
698,698,0.535613361398963,0.5,1.0,1.0,373.0,583.0,1.0,1,154.0,1
699,699,-0.16046667353780364,-0.2,1.0,0.0,426.0,994.0,0.0,0,550.0,1
700,700,0.33509942907496815,0.3,0.0,0.0,388.0,717.0,0.0,1,-225.0,1
701,701,0.6176877461462605,0.6,0.0,0.0,360.0,513.0,0.0,1,167.0,1
702,702,-0.7602748440701714,-0.8,0.0,1.0,330.0,818.0,1.0,0,452.0,1
703,703,-0.7643423479764486,-0.8,1.0,0.0,415.0,903.0,0.0,0,272.0,1
704,704,0.4105661923923619,0.4,1.0,1.0,376.0,748.0,1.0,1,676.0,1
705,705,0.5990221475543981,0.6,0.0,0.0,324.0,817.0,0.0,1,319.0,1
706,706,-0.12919748060627323,-0.1,0.0,1.0,309.0,752.0,1.0,0,1419.0,1
707,707,-0.8488179168563806,-0.8,0.0,1.0,439.0,988.0,1.0,0,443.0,1
708,708,0.8616198097076441,0.9,0.0,0.0,336.0,989.0,0.0,1,755.0,1
709,709,-0.8797938795870877,-0.9,0.0,1.0,423.0,557.0,1.0,0,240.0,1
710,710,-0.5000450105562859,-0.5,0.0,1.0,459.0,607.0,1.0,0,384.0,1
711,711,0.48940552229697787,0.5,1.0,1.0,472.0,640.0,1.0,1,508.0,1
712,712,0.051833406987349284,0.1,1.0,1.0,409.0,734.0,1.0,1,2177.0,1
713,713,0.09503860714629297,0.1,0.0,0.0,314.0,629.0,0.0,1,2507.0,1
714,714,-0.5290985143782259,-0.5,0.0,1.0,426.0,749.0,1.0,0,615.0,1
715,715,-0.5144621262843305,-0.5,1.0,0.0,456.0,969.0,0.0,0,415.0,1
716,716,-0.08181176341924457,-0.1,1.0,0.0,446.0,754.0,0.0,0,710.0,1
717,717,0.1525614415190929,0.2,0.0,0.0,300.0,511.0,0.0,1,2989.0,1
718,718,-0.7047206163789294,-0.7,1.0,0.0,359.0,590.0,0.0,0,321.0,1
719,719,-0.6165163165376557,-0.6,1.0,0.0,485.0,865.0,0.0,0,280.0,1
720,720,-0.051769156561188856,-0.1,0.0,1.0,411.0,836.0,1.0,0,3753.0,1
721,721,0.7789844614132534,0.8,1.0,1.0,257.0,754.0,1.0,1,329.0,1
722,722,-0.16656558974182945,-0.2,0.0,1.0,398.0,593.0,1.0,0,1239.0,1
723,723,0.709064690955134,0.7,1.0,1.0,402.0,847.0,1.0,1,411.0,1
724,724,-0.0018125115028317929,-0.0,0.0,1.0,367.0,851.0,1.0,0,3362.0,1
725,725,0.11319667113694887,0.1,1.0,1.0,483.0,979.0,1.0,1,1768.0,1
726,726,0.055372888756756056,0.1,0.0,0.0,317.0,555.0,0.0,1,4128.0,1
727,727,0.5342324456770217,0.5,0.0,0.0,400.0,642.0,0.0,1,448.0,1
728,728,0.705401534556379,0.7,1.0,1.0,389.0,792.0,1.0,1,229.0,1
729,729,0.29862837498014516,0.3,1.0,1.0,419.0,769.0,1.0,1,522.0,1
730,730,-0.08726431066901785,-0.1,0.0,1.0,437.0,642.0,1.0,0,2951.0,1
731,731,-0.7935518216113079,-0.8,0.0,1.0,311.0,589.0,1.0,0,280.0,1
732,732,0.28061680443436765,0.3,0.0,0.0,262.0,652.0,0.0,1,606.0,1
733,733,-0.6864031256242877,-0.7,0.0,1.0,437.0,920.0,1.0,0,243.0,1
734,734,0.18459325814822025,0.2,0.0,0.0,383.0,801.0,0.0,1,3816.0,1
735,735,0.4212253860297369,0.4,0.0,0.0,424.0,694.0,0.0,1,682.0,1
736,736,-0.4165824378830833,-0.4,1.0,0.0,497.0,858.0,0.0,0,555.0,1
737,737,-0.5143636315473661,-0.5,1.0,0.0,272.0,979.0,0.0,0,79.0,1
738,738,-0.348130933299156,-0.3,0.0,1.0,295.0,994.0,1.0,0,241.0,1
739,739,-0.6776181649154931,-0.7,0.0,1.0,330.0,801.0,1.0,0,329.0,1
740,740,-0.1174619792714523,-0.1,0.0,1.0,347.0,844.0,1.0,0,1759.0,1
741,741,-0.5144181101517379,-0.5,0.0,1.0,320.0,743.0,1.0,0,337.0,1
742,742,-0.625465229084655,-0.6,0.0,1.0,434.0,543.0,1.0,0,103.0,1
743,743,-0.0993970574755838,-0.1,0.0,1.0,474.0,869.0,1.0,0,1097.0,1
744,744,0.11168640600164104,0.1,0.0,0.0,283.0,864.0,0.0,1,1473.0,1
745,745,0.12312554327189928,0.1,0.0,0.0,471.0,978.0,0.0,1,601.0,1
746,746,0.36509812767682426,0.4,0.0,0.0,346.0,827.0,0.0,1,717.0,1
747,747,0.5716008993141045,0.6,0.0,0.0,374.0,554.0,0.0,1,272.0,1
748,748,-0.8100283456396689,-0.8,1.0,0.0,475.0,747.0,0.0,0,258.0,1
749,749,-0.6242807201821082,-0.6,1.0,0.0,446.0,871.0,0.0,0,243.0,1
750,750,-0.18878032661397215,-0.2,0.0,1.0,497.0,987.0,1.0,0,616.0,1
751,751,0.8282284582416012,0.8,1.0,1.0,347.0,886.0,1.0,1,247.0,1
752,752,0.6641042250228758,0.7,0.0,0.0,439.0,848.0,0.0,1,303.0,1
753,753,0.5561581808501602,0.6,0.0,0.0,462.0,856.0,0.0,1,302.0,1
754,754,-0.03141324982358473,-0.0,1.0,0.0,253.0,743.0,0.0,0,4004.0,1
755,755,-0.3449238052743071,-0.3,1.0,0.0,278.0,618.0,0.0,0,524.0,1
756,756,-0.7664554055087485,-0.8,0.0,1.0,464.0,570.0,1.0,0,616.0,1
757,757,0.1820040960309769,0.2,1.0,1.0,460.0,887.0,1.0,1,383.0,1
758,758,-0.560023013618136,-0.6,1.0,0.0,426.0,714.0,0.0,0,130.0,1
759,759,0.08500173817582879,0.1,1.0,1.0,401.0,922.0,1.0,1,967.0,1
760,760,0.6122899841039685,0.6,1.0,1.0,267.0,891.0,1.0,1,192.0,1
761,761,-0.5896148996630743,-0.6,1.0,0.0,422.0,686.0,0.0,0,262.0,1
762,762,0.7845463274050918,0.8,0.0,0.0,356.0,932.0,0.0,1,192.0,1
763,763,0.33599967683153553,0.3,1.0,1.0,329.0,906.0,1.0,1,615.0,1
764,764,-0.3595288510426835,-0.4,1.0,0.0,291.0,632.0,0.0,0,367.0,1
765,765,0.6483752565250734,0.6,0.0,0.0,346.0,896.0,0.0,1,198.0,1
766,766,0.6769013126904612,0.7,1.0,1.0,483.0,765.0,1.0,1,142.0,1
767,767,-0.6018522010867151,-0.6,0.0,1.0,459.0,812.0,1.0,0,249.0,1
768,768,0.04844768065067462,0.0,1.0,1.0,341.0,609.0,1.0,1,3610.0,1
769,769,-0.7965381752108439,-0.8,0.0,1.0,453.0,633.0,1.0,0,184.0,1
770,770,0.8231826282229929,0.8,1.0,1.0,341.0,543.0,1.0,1,226.0,1
771,771,-0.19799268659039349,-0.2,1.0,0.0,404.0,877.0,0.0,0,579.0,1
772,772,0.1428466223786008,0.1,1.0,1.0,342.0,540.0,1.0,1,1618.0,1
773,773,-0.46177975511425856,-0.5,0.0,1.0,422.0,732.0,1.0,0,336.0,1
774,774,-0.7541403375315802,-0.8,0.0,1.0,277.0,666.0,1.0,0,257.0,1
775,775,-0.7038741290440665,-0.7,0.0,1.0,412.0,782.0,1.0,0,486.0,1
776,776,-0.12728841077649833,-0.1,0.0,1.0,263.0,653.0,1.0,0,1574.0,1
777,777,0.5029071078936299,0.5,1.0,1.0,401.0,887.0,1.0,1,332.0,1
778,778,-0.7122444508503992,-0.7,0.0,1.0,478.0,924.0,1.0,0,618.0,1
779,779,-0.5747100680200914,-0.6,1.0,0.0,254.0,656.0,0.0,0,260.0,1
780,780,-0.10597309526711596,-0.1,0.0,1.0,364.0,552.0,1.0,0,4084.0,1
781,781,-0.5106916404507588,-0.5,0.0,1.0,478.0,533.0,1.0,0,389.0,1
782,782,0.6371272987894413,0.6,1.0,1.0,286.0,715.0,1.0,1,269.0,1
783,783,-0.8675549244419263,-0.9,0.0,1.0,276.0,745.0,1.0,0,199.0,1
784,784,-0.3515491015032687,-0.4,0.0,1.0,355.0,911.0,1.0,0,354.0,1
785,785,-0.7908472323731089,-0.8,1.0,0.0,276.0,696.0,0.0,0,168.0,1
786,786,0.13582677340336569,0.1,0.0,0.0,452.0,788.0,0.0,1,520.0,1
787,787,0.840418352336522,0.8,1.0,1.0,426.0,826.0,1.0,1,198.0,1
788,788,-0.2576568424921012,-0.3,1.0,0.0,447.0,994.0,0.0,0,369.0,1
789,789,-0.022646765961642168,-0.0,0.0,1.0,312.0,992.0,1.0,0,3696.0,1
790,790,0.5449593058822418,0.5,0.0,0.0,367.0,504.0,0.0,1,239.0,1
791,791,-0.45334848061879335,-0.5,0.0,1.0,266.0,765.0,1.0,0,279.0,1
792,792,0.8934673340740581,0.9,1.0,1.0,305.0,948.0,1.0,1,467.0,1
793,793,0.7160736950857359,0.7,1.0,1.0,387.0,828.0,1.0,1,115.0,1
794,794,-0.8559461561372609,-0.9,1.0,0.0,401.0,714.0,0.0,0,145.0,1
795,795,0.6693289434995134,0.7,1.0,1.0,291.0,842.0,1.0,1,197.0,1
796,796,0.4687458490713833,0.5,1.0,1.0,455.0,526.0,1.0,1,229.0,1
797,797,0.31024656271739437,0.3,1.0,1.0,499.0,906.0,1.0,1,205.0,1
798,798,0.29548674655980445,0.3,1.0,1.0,414.0,652.0,1.0,1,844.0,1
799,799,0.6886334708960843,0.7,0.0,0.0,486.0,781.0,0.0,1,1033.0,1
800,800,0.7657566323264174,0.8,0.0,0.0,271.0,538.0,0.0,1,261.0,1
801,801,0.0011869783729167027,0.0,0.0,0.0,427.0,684.0,1.0,0,3889.0,0
802,802,-0.8482088053442624,-0.8,1.0,0.0,273.0,547.0,0.0,0,200.0,1
803,803,-0.24049364897585568,-0.2,1.0,0.0,393.0,680.0,0.0,0,527.0,1
804,804,0.6657141832963401,0.7,1.0,1.0,337.0,738.0,1.0,1,295.0,1
805,805,0.7770874714018466,0.8,0.0,0.0,257.0,853.0,0.0,1,430.0,1
806,806,-0.4610546333878361,-0.5,0.0,1.0,472.0,774.0,1.0,0,-86.0,1
807,807,-0.8741629106079585,-0.9,0.0,1.0,379.0,782.0,1.0,0,219.0,1
808,808,-0.652570069233638,-0.7,1.0,0.0,323.0,866.0,0.0,0,151.0,1
809,809,0.8584538919625294,0.9,0.0,0.0,362.0,654.0,0.0,1,154.0,1
810,810,-0.17419403499742647,-0.2,1.0,0.0,496.0,842.0,0.0,0,2152.0,1
811,811,0.5581957299440582,0.6,0.0,0.0,395.0,870.0,0.0,1,235.0,1
812,812,-0.30098657310263677,-0.3,0.0,1.0,449.0,897.0,1.0,0,974.0,1
813,813,0.006936373753991254,0.0,1.0,1.0,407.0,791.0,1.0,1,2662.0,1
814,814,0.33365867822897066,0.3,0.0,0.0,363.0,936.0,0.0,1,361.0,1
815,815,0.7154287967799015,0.7,1.0,1.0,418.0,798.0,1.0,1,374.0,1
816,816,0.05975390997666774,0.1,1.0,1.0,407.0,576.0,0.0,0,4017.0,0
817,817,0.6524329398192518,0.7,1.0,1.0,362.0,547.0,1.0,1,291.0,1
818,818,-0.8258560855222098,-0.8,0.0,1.0,346.0,861.0,1.0,0,413.0,1
819,819,-0.10874585731258735,-0.1,1.0,0.0,453.0,795.0,0.0,0,402.0,1
820,820,-0.5096399400012983,-0.5,0.0,1.0,326.0,888.0,1.0,0,116.0,1
821,821,-0.6896226538589628,-0.7,0.0,1.0,357.0,823.0,1.0,0,260.0,1
822,822,0.44829773612685353,0.4,0.0,0.0,419.0,973.0,0.0,1,538.0,1
823,823,-0.15447251254368466,-0.2,0.0,1.0,473.0,742.0,1.0,0,2045.0,1
824,824,0.11180685548968794,0.1,1.0,1.0,309.0,648.0,1.0,1,1163.0,1
825,825,0.02245564394170141,0.0,0.0,0.0,476.0,971.0,0.0,1,3163.0,1
826,826,0.6457161398512331,0.6,1.0,1.0,479.0,889.0,1.0,1,282.0,1
827,827,0.21288063606891383,0.2,0.0,0.0,432.0,784.0,0.0,1,804.0,1
828,828,-0.08391387439383191,-0.1,1.0,0.0,337.0,726.0,0.0,0,3937.0,1
829,829,0.5560648429263889,0.6,0.0,0.0,310.0,825.0,0.0,1,385.0,1
830,830,0.036026472991676384,0.0,1.0,1.0,442.0,515.0,1.0,1,623.0,1
831,831,-0.3862521974134746,-0.4,0.0,1.0,441.0,901.0,1.0,0,528.0,1
832,832,-0.20397350505657308,-0.2,0.0,1.0,284.0,778.0,1.0,0,1608.0,1
833,833,-0.1776562326951575,-0.2,0.0,1.0,479.0,950.0,1.0,0,561.0,1
834,834,0.08407237821339197,0.1,1.0,1.0,342.0,731.0,1.0,1,867.0,1
835,835,-0.8668310881358002,-0.9,0.0,1.0,473.0,822.0,1.0,0,225.0,1
836,836,0.19675962922636037,0.2,0.0,0.0,487.0,564.0,0.0,1,749.0,1
837,837,-0.7977019926799364,-0.8,0.0,1.0,355.0,664.0,1.0,0,171.0,1
838,838,0.39983932139443634,0.4,1.0,1.0,425.0,693.0,1.0,1,542.0,1
839,839,-0.5577411998789945,-0.6,1.0,0.0,434.0,906.0,0.0,0,210.0,1
840,840,0.21023560964660104,0.2,0.0,0.0,394.0,784.0,0.0,1,502.0,1
841,841,-0.6846261313760675,-0.7,0.0,1.0,272.0,916.0,1.0,0,322.0,1
842,842,0.6942486140068843,0.7,1.0,1.0,499.0,781.0,1.0,1,340.0,1
843,843,0.09528705069140186,0.1,0.0,0.0,303.0,937.0,0.0,1,3760.0,1
844,844,0.063534232346238,0.1,1.0,1.0,263.0,649.0,0.0,0,4088.0,0
845,845,0.38210747187633365,0.4,0.0,0.0,405.0,732.0,0.0,1,573.0,1
846,846,-0.5349930634650499,-0.5,0.0,1.0,365.0,968.0,1.0,0,167.0,1
847,847,0.253694797687151,0.3,0.0,0.0,258.0,543.0,0.0,1,549.0,1
848,848,0.11455542388938189,0.1,0.0,0.0,463.0,919.0,0.0,1,3618.0,1
849,849,0.8877211360863034,0.9,0.0,0.0,421.0,754.0,0.0,1,445.0,1
850,850,0.42294543461835665,0.4,1.0,1.0,274.0,890.0,1.0,1,566.0,1
851,851,0.66431362381853,0.7,0.0,0.0,429.0,706.0,0.0,1,485.0,1
852,852,-0.6516378068430851,-0.7,1.0,0.0,303.0,775.0,0.0,0,202.0,1
853,853,-0.3427134438527971,-0.3,0.0,1.0,352.0,590.0,1.0,0,598.0,1
854,854,-0.36421837903520904,-0.4,1.0,0.0,268.0,574.0,0.0,0,308.0,1
855,855,-0.3099947989582592,-0.3,1.0,0.0,402.0,971.0,0.0,0,377.0,1
856,856,-0.7037773368079868,-0.7,0.0,1.0,264.0,954.0,1.0,0,282.0,1
857,857,0.22674074148611212,0.2,1.0,1.0,290.0,953.0,1.0,1,157.0,1
858,858,-0.3096112252452724,-0.3,0.0,1.0,279.0,894.0,1.0,0,557.0,1
859,859,-0.5326928257351142,-0.5,1.0,0.0,327.0,600.0,0.0,0,243.0,1
860,860,-0.7131697838536568,-0.7,0.0,1.0,456.0,986.0,1.0,0,228.0,1
861,861,-0.5324109645029782,-0.5,1.0,0.0,358.0,965.0,0.0,0,167.0,1
862,862,0.445856688544337,0.4,0.0,0.0,411.0,835.0,0.0,1,924.0,1
863,863,-0.4879463626017954,-0.5,1.0,0.0,491.0,618.0,0.0,0,381.0,1
864,864,0.46952333123871826,0.5,1.0,1.0,313.0,518.0,1.0,1,289.0,1
865,865,0.8242228100508878,0.8,1.0,1.0,422.0,858.0,1.0,1,410.0,1
866,866,0.7674292419437599,0.8,1.0,1.0,414.0,931.0,1.0,1,415.0,1
867,867,0.3658342227706871,0.4,1.0,1.0,431.0,787.0,1.0,1,762.0,1
868,868,0.4051183406846671,0.4,1.0,1.0,412.0,740.0,1.0,1,598.0,1
869,869,-0.3622615946945078,-0.4,1.0,0.0,362.0,948.0,0.0,0,660.0,1
870,870,0.8836967301048414,0.9,1.0,1.0,310.0,568.0,1.0,1,242.0,1
871,871,0.16676764094614016,0.2,0.0,0.0,377.0,667.0,0.0,1,956.0,1
872,872,-0.4062737235007374,-0.4,1.0,0.0,265.0,970.0,0.0,0,735.0,1
873,873,0.037479700643579306,0.0,0.0,0.0,423.0,859.0,0.0,1,3718.0,1
874,874,-0.44470468088623066,-0.4,0.0,1.0,450.0,906.0,1.0,0,604.0,1
875,875,-0.19515873276124307,-0.2,0.0,1.0,403.0,789.0,1.0,0,538.0,1
876,876,0.7800140545978863,0.8,0.0,0.0,432.0,774.0,0.0,1,1574.0,1
877,877,-0.21080501697740062,-0.2,0.0,1.0,347.0,766.0,1.0,0,727.0,1
878,878,0.7838801984673459,0.8,1.0,1.0,446.0,699.0,1.0,1,165.0,1
879,879,-0.33830837809239067,-0.3,0.0,1.0,371.0,545.0,1.0,0,724.0,1
880,880,0.6450745963809431,0.6,1.0,1.0,353.0,599.0,1.0,1,278.0,1
881,881,0.8806732526393647,0.9,1.0,1.0,281.0,670.0,1.0,1,219.0,1
882,882,-0.1494819451296704,-0.1,0.0,1.0,346.0,875.0,1.0,0,779.0,1
883,883,-0.36240749387426596,-0.4,1.0,0.0,350.0,993.0,0.0,0,607.0,1
884,884,-0.42864637456124305,-0.4,0.0,1.0,397.0,991.0,1.0,0,212.0,1
885,885,-0.7132396571021522,-0.7,0.0,1.0,491.0,772.0,1.0,0,177.0,1
886,886,0.05672761466082499,0.1,0.0,0.0,315.0,954.0,0.0,1,3731.0,1
887,887,0.605554463893815,0.6,1.0,1.0,468.0,939.0,1.0,1,-327.0,1
888,888,0.1723046642477878,0.2,1.0,1.0,359.0,702.0,1.0,1,1189.0,1
889,889,0.7135985102936285,0.7,0.0,0.0,394.0,986.0,0.0,1,250.0,1
890,890,0.48104250452147934,0.5,0.0,0.0,254.0,894.0,0.0,1,512.0,1
891,891,-0.01042071186957605,-0.0,0.0,1.0,341.0,650.0,0.0,1,2499.0,0
892,892,-0.7417549354805065,-0.7,1.0,0.0,318.0,617.0,0.0,0,255.0,1
893,893,0.602289624798129,0.6,1.0,1.0,389.0,832.0,1.0,1,389.0,1
894,894,0.09884128947115567,0.1,0.0,0.0,324.0,846.0,0.0,1,1970.0,1
895,895,0.869777533870877,0.9,0.0,0.0,338.0,583.0,0.0,1,3029.0,1
896,896,0.2227519646388122,0.2,0.0,0.0,291.0,600.0,0.0,1,3289.0,1
897,897,-0.024120819493376855,-0.0,1.0,0.0,263.0,557.0,0.0,0,3350.0,1
898,898,0.0779190242254919,0.1,1.0,1.0,303.0,917.0,1.0,1,3780.0,1
899,899,0.13667833940937701,0.1,1.0,1.0,268.0,876.0,1.0,1,1246.0,1
900,900,0.612294341228142,0.6,0.0,0.0,452.0,611.0,0.0,1,257.0,1
901,901,0.23352992142392492,0.2,1.0,1.0,402.0,805.0,1.0,1,713.0,1
902,902,0.7000019747681346,0.7,1.0,1.0,253.0,717.0,1.0,1,620.0,1
903,903,0.061521531242774485,0.1,1.0,1.0,271.0,714.0,1.0,1,3145.0,1
904,904,-0.49587557884804606,-0.5,0.0,1.0,475.0,630.0,1.0,0,335.0,1
905,905,0.3966683949807409,0.4,1.0,1.0,254.0,667.0,1.0,1,459.0,1
906,906,-0.6879749427336737,-0.7,0.0,1.0,262.0,778.0,1.0,0,150.0,1
907,907,0.8774181866216709,0.9,1.0,1.0,457.0,677.0,1.0,1,276.0,1
908,908,0.8562790550726097,0.9,1.0,1.0,370.0,640.0,1.0,1,250.0,1
909,909,0.3840314309672884,0.4,1.0,1.0,437.0,690.0,1.0,1,573.0,1
910,910,-0.894336473119554,-0.9,1.0,0.0,322.0,532.0,0.0,0,86.0,1
911,911,0.5675486231472079,0.6,0.0,0.0,348.0,984.0,0.0,1,238.0,1
912,912,-0.08858916998087119,-0.1,0.0,1.0,307.0,829.0,1.0,0,3864.0,1
913,913,0.029409948898994842,0.0,1.0,1.0,350.0,824.0,1.0,1,2306.0,1
914,914,0.464612559887044,0.5,0.0,0.0,348.0,512.0,0.0,1,270.0,1
915,915,-0.5610564961194595,-0.6,0.0,1.0,376.0,666.0,1.0,0,288.0,1
916,916,-0.3216717006652101,-0.3,0.0,1.0,332.0,810.0,1.0,0,828.0,1
917,917,0.8248371656659427,0.8,0.0,0.0,491.0,719.0,0.0,1,140.0,1
918,918,-0.7495891646705017,-0.7,1.0,0.0,430.0,950.0,0.0,0,120.0,1
919,919,0.7007516856211006,0.7,1.0,1.0,447.0,959.0,1.0,1,364.0,1
920,920,-0.15974432289585117,-0.2,1.0,0.0,314.0,629.0,0.0,0,4057.0,1
921,921,0.8815585226511463,0.9,0.0,0.0,460.0,887.0,0.0,1,253.0,1
922,922,0.5735260438509199,0.6,1.0,1.0,453.0,717.0,1.0,1,260.0,1
923,923,-0.8995856770095382,-0.9,0.0,1.0,389.0,834.0,1.0,0,107.0,1
924,924,-0.794013385277334,-0.8,1.0,0.0,258.0,860.0,0.0,0,252.0,1
925,925,0.01521985757311528,0.0,1.0,1.0,391.0,592.0,0.0,0,4017.0,0
926,926,-0.12511316241941983,-0.1,1.0,0.0,295.0,598.0,0.0,0,447.0,1
927,927,-0.6678907327782728,-0.7,0.0,1.0,326.0,618.0,1.0,0,146.0,1
928,928,0.024987605935279378,0.0,0.0,0.0,411.0,620.0,0.0,1,3239.0,1
929,929,0.5122026061312465,0.5,0.0,0.0,420.0,949.0,0.0,1,121.0,1
930,930,0.8271893330549301,0.8,1.0,1.0,477.0,658.0,1.0,1,225.0,1
931,931,-0.13650556604804087,-0.1,1.0,0.0,451.0,661.0,0.0,0,1138.0,1
932,932,0.7263615189008469,0.7,0.0,0.0,411.0,604.0,0.0,1,495.0,1
933,933,0.3922674273695662,0.4,0.0,0.0,254.0,679.0,0.0,1,327.0,1
934,934,0.8195752984493329,0.8,1.0,1.0,494.0,733.0,1.0,1,333.0,1
935,935,-0.3470966453290847,-0.3,0.0,1.0,266.0,898.0,1.0,0,306.0,1
936,936,0.34005209400711467,0.3,0.0,0.0,447.0,628.0,0.0,1,995.0,1
937,937,0.2702915684402799,0.3,0.0,0.0,454.0,576.0,0.0,1,670.0,1
938,938,-0.17194790861370868,-0.2,0.0,1.0,370.0,631.0,1.0,0,929.0,1
939,939,0.22300650255815324,0.2,1.0,1.0,255.0,562.0,1.0,1,883.0,1
940,940,-0.27076327179013226,-0.3,0.0,1.0,344.0,682.0,1.0,0,554.0,1
941,941,0.24878511716538976,0.2,1.0,1.0,399.0,944.0,1.0,1,517.0,1
942,942,-0.5342464153637252,-0.5,1.0,0.0,261.0,795.0,0.0,0,484.0,1
943,943,-0.17384078718123774,-0.2,0.0,1.0,259.0,664.0,1.0,0,987.0,1
944,944,0.2787355780191655,0.3,1.0,1.0,447.0,915.0,1.0,1,758.0,1
945,945,-0.5439753369640145,-0.5,0.0,1.0,355.0,564.0,1.0,0,401.0,1
946,946,0.05149074309724877,0.1,1.0,1.0,476.0,958.0,0.0,0,1846.0,0
947,947,0.3876843935499522,0.4,1.0,1.0,318.0,625.0,1.0,1,577.0,1
948,948,0.7273891545514563,0.7,1.0,1.0,354.0,840.0,1.0,1,246.0,1
949,949,0.44262615759744894,0.4,0.0,0.0,472.0,711.0,0.0,1,447.0,1
950,950,0.024019782456677352,0.0,0.0,0.0,422.0,823.0,0.0,1,3755.0,1
951,951,0.5393764733562109,0.5,1.0,1.0,499.0,792.0,1.0,1,259.0,1
952,952,0.6761671668299422,0.7,0.0,0.0,486.0,684.0,0.0,1,460.0,1
953,953,0.5669910460495665,0.6,1.0,1.0,413.0,933.0,1.0,1,394.0,1
954,954,0.5710126489927451,0.6,1.0,1.0,390.0,849.0,1.0,1,251.0,1
955,955,0.4976507259418902,0.5,0.0,0.0,318.0,742.0,0.0,1,350.0,1
956,956,0.5553886719108169,0.6,0.0,0.0,408.0,914.0,0.0,1,388.0,1
957,957,0.24655899516635194,0.2,1.0,1.0,306.0,521.0,1.0,1,673.0,1
958,958,-0.07696360532270552,-0.1,1.0,0.0,473.0,825.0,0.0,0,3132.0,1
959,959,0.32059874735190264,0.3,1.0,1.0,333.0,823.0,1.0,1,514.0,1
960,960,0.14512800516671442,0.1,0.0,0.0,467.0,509.0,0.0,1,864.0,1
961,961,-0.18709762658702733,-0.2,1.0,0.0,445.0,940.0,0.0,0,375.0,1
962,962,0.37398246753687714,0.4,1.0,1.0,318.0,682.0,1.0,1,170.0,1
963,963,0.1956127126805246,0.2,1.0,1.0,364.0,700.0,1.0,1,586.0,1
964,964,0.426678962434376,0.4,1.0,1.0,325.0,905.0,1.0,1,780.0,1
965,965,0.7845267341465888,0.8,1.0,1.0,337.0,929.0,1.0,1,284.0,1
966,966,-0.43226829411268614,-0.4,0.0,1.0,495.0,977.0,1.0,0,358.0,1
967,967,0.7296466931899322,0.7,0.0,0.0,429.0,754.0,0.0,1,277.0,1
968,968,-0.5490124280906188,-0.5,1.0,0.0,483.0,769.0,0.0,0,428.0,1
969,969,-0.04786896035908894,-0.0,0.0,1.0,410.0,560.0,1.0,0,4030.0,1
970,970,0.35316091941100314,0.4,1.0,1.0,497.0,624.0,1.0,1,549.0,1
971,971,-0.3717421931333956,-0.4,0.0,1.0,425.0,774.0,1.0,0,381.0,1
972,972,-0.043316693578245635,-0.0,1.0,0.0,341.0,503.0,0.0,0,2026.0,1
973,973,0.4742799586429155,0.5,1.0,1.0,263.0,808.0,1.0,1,749.0,1
974,974,-0.4741686892492328,-0.5,0.0,1.0,472.0,566.0,1.0,0,342.0,1
975,975,-0.587716170903113,-0.6,0.0,1.0,277.0,625.0,1.0,0,118.0,1
976,976,-0.23408736541044906,-0.2,0.0,1.0,454.0,821.0,1.0,0,315.0,1
977,977,0.23896637902317142,0.2,1.0,1.0,488.0,813.0,1.0,1,1339.0,1
978,978,-0.24676361311790695,-0.2,1.0,0.0,380.0,777.0,0.0,0,303.0,1
979,979,0.3775417759084233,0.4,1.0,1.0,359.0,898.0,1.0,1,83.0,1
980,980,0.7911449648990051,0.8,1.0,1.0,281.0,752.0,1.0,1,447.0,1
981,981,-0.2348053786947808,-0.2,0.0,1.0,283.0,985.0,1.0,0,462.0,1
982,982,-0.6803216311946912,-0.7,1.0,0.0,481.0,955.0,0.0,0,134.0,1
983,983,-0.35172465893303695,-0.4,0.0,1.0,343.0,597.0,1.0,0,380.0,1
984,984,0.49023736912314864,0.5,0.0,0.0,334.0,846.0,0.0,1,370.0,1
985,985,-0.5341900511448929,-0.5,0.0,1.0,498.0,695.0,1.0,0,477.0,1
986,986,-0.8785076536177564,-0.9,1.0,0.0,407.0,667.0,0.0,0,216.0,1
987,987,-0.2253495288159425,-0.2,0.0,1.0,417.0,782.0,1.0,0,1341.0,1
988,988,-0.09627914559119977,-0.1,1.0,0.0,330.0,980.0,0.0,0,-90.0,1
989,989,0.07099750736426891,0.1,0.0,0.0,407.0,976.0,0.0,1,3617.0,1
990,990,0.23825998350498623,0.2,1.0,1.0,464.0,793.0,1.0,1,1233.0,1
991,991,-0.36785009562269455,-0.4,1.0,0.0,404.0,643.0,0.0,0,203.0,1
992,992,0.7549848729819547,0.8,1.0,1.0,428.0,729.0,1.0,1,463.0,1
993,993,0.825071855557426,0.8,0.0,0.0,498.0,902.0,0.0,1,2410.0,1
994,994,0.5618196206841829,0.6,1.0,1.0,359.0,643.0,1.0,1,388.0,1
995,995,-0.1709345830671959,-0.2,1.0,0.0,335.0,803.0,0.0,0,3722.0,1
996,996,0.3968837262038497,0.4,1.0,1.0,370.0,537.0,1.0,1,333.0,1
997,997,0.5260150915240777,0.5,0.0,0.0,262.0,570.0,0.0,1,538.0,1
998,998,0.20589881867709103,0.2,1.0,1.0,295.0,851.0,1.0,1,1054.0,1
999,999,0.2925615683539239,0.3,0.0,0.0,265.0,830.0,0.0,1,635.0,1
1000,1000,-0.08209381042764663,-0.1,0.0,1.0,328.0,773.0,1.0,0,1139.0,1
1001,1001,0.11472333491502484,0.1,1.0,1.0,273.0,944.0,1.0,1,2183.0,1
1002,1002,-0.5250014122942921,-0.5,0.0,1.0,407.0,957.0,1.0,0,386.0,1
1003,1003,0.3012823590258643,0.3,1.0,1.0,426.0,599.0,1.0,1,425.0,1
1004,1004,0.6026974099080208,0.6,1.0,1.0,490.0,852.0,1.0,1,248.0,1
1005,1005,-0.0659101907351698,-0.1,0.0,1.0,369.0,790.0,1.0,0,921.0,1
1006,1006,0.8475592250155305,0.8,1.0,1.0,270.0,736.0,1.0,1,244.0,1
1007,1007,-0.34087315658655626,-0.3,1.0,0.0,254.0,760.0,0.0,0,466.0,1
1008,1008,-0.5017629110557524,-0.5,0.0,1.0,282.0,645.0,1.0,0,503.0,1
1009,1009,-0.6355718047436814,-0.6,1.0,0.0,458.0,768.0,0.0,0,944.0,1
1010,1010,-0.05649848891423537,-0.1,1.0,0.0,423.0,870.0,0.0,0,2287.0,1
1011,1011,-0.4941589887428853,-0.5,1.0,0.0,444.0,623.0,0.0,0,353.0,1
1012,1012,0.7834993209009639,0.8,0.0,0.0,359.0,837.0,0.0,1,504.0,1
1013,1013,0.4490294566831,0.4,1.0,1.0,401.0,760.0,1.0,1,259.0,1
1014,1014,0.44622344994016305,0.4,0.0,0.0,379.0,547.0,0.0,1,504.0,1
1015,1015,-0.12121389838584129,-0.1,0.0,1.0,351.0,513.0,1.0,0,896.0,1
1016,1016,-0.316666687988738,-0.3,0.0,1.0,397.0,890.0,1.0,0,583.0,1
1017,1017,-0.15003750493666335,-0.2,1.0,0.0,297.0,566.0,0.0,0,547.0,1
1018,1018,0.2221585143893482,0.2,1.0,1.0,341.0,910.0,1.0,1,459.0,1
1019,1019,-0.6788779624571701,-0.7,1.0,0.0,406.0,790.0,0.0,0,324.0,1
1020,1020,-0.641183066022071,-0.6,0.0,1.0,440.0,957.0,1.0,0,173.0,1
1021,1021,0.42285320747149535,0.4,1.0,1.0,407.0,574.0,1.0,1,389.0,1
1022,1022,-0.2568173252305269,-0.3,1.0,0.0,417.0,549.0,0.0,0,964.0,1
1023,1023,-0.6815792802733617,-0.7,1.0,0.0,294.0,568.0,0.0,0,788.0,1
1024,1024,0.19534267472361477,0.2,1.0,1.0,292.0,508.0,1.0,1,530.0,1
1025,1025,-0.7327250316484927,-0.7,1.0,0.0,288.0,821.0,0.0,0,301.0,1
1026,1026,0.4114467360424755,0.4,1.0,1.0,328.0,565.0,1.0,1,327.0,1
1027,1027,0.4185009789909703,0.4,1.0,1.0,371.0,524.0,1.0,1,505.0,1
1028,1028,0.842464039613427,0.8,1.0,1.0,386.0,994.0,1.0,1,540.0,1
1029,1029,-0.12672377213846941,-0.1,1.0,0.0,329.0,747.0,0.0,0,964.0,1
1030,1030,-0.8670859350081649,-0.9,0.0,1.0,360.0,741.0,1.0,0,379.0,1
1031,1031,-0.3103317522602078,-0.3,0.0,1.0,365.0,820.0,1.0,0,795.0,1
1032,1032,0.14727097955346558,0.1,0.0,0.0,265.0,695.0,0.0,1,4040.0,1
1033,1033,0.7833302289506671,0.8,1.0,1.0,292.0,646.0,1.0,1,82.0,1
1034,1034,-0.3287893770677637,-0.3,0.0,1.0,336.0,795.0,1.0,0,499.0,1
1035,1035,0.1413288913380205,0.1,0.0,0.0,297.0,870.0,0.0,1,1803.0,1
1036,1036,-0.1242024820936084,-0.1,1.0,0.0,424.0,810.0,0.0,0,1586.0,1
1037,1037,-0.6437716267316093,-0.6,1.0,0.0,475.0,564.0,0.0,0,731.0,1
1038,1038,0.2487564383419535,0.2,1.0,1.0,319.0,741.0,1.0,1,210.0,1
1039,1039,0.28071782828110237,0.3,1.0,1.0,265.0,945.0,1.0,1,360.0,1
1040,1040,-0.5881866492484826,-0.6,1.0,0.0,455.0,685.0,0.0,0,200.0,1
1041,1041,-0.2416252862369801,-0.2,0.0,1.0,486.0,733.0,1.0,0,601.0,1
1042,1042,-0.794119956714571,-0.8,0.0,1.0,338.0,828.0,1.0,0,194.0,1
1043,1043,-0.2549950221379945,-0.3,1.0,0.0,499.0,731.0,0.0,0,590.0,1
1044,1044,0.6411016327855797,0.6,0.0,0.0,393.0,951.0,0.0,1,326.0,1
1045,1045,0.7734221175886132,0.8,0.0,0.0,259.0,561.0,0.0,1,200.0,1
1046,1046,-0.14710723619869615,-0.1,0.0,1.0,488.0,506.0,1.0,0,986.0,1
1047,1047,0.27081788681871777,0.3,0.0,0.0,454.0,940.0,0.0,1,436.0,1
1048,1048,0.22261345103476116,0.2,1.0,1.0,378.0,991.0,1.0,1,1201.0,1
1049,1049,0.17281722580734848,0.2,1.0,1.0,386.0,602.0,1.0,1,512.0,1
1050,1050,0.5887268167341487,0.6,1.0,1.0,281.0,667.0,1.0,1,322.0,1
1051,1051,-0.42412109064960457,-0.4,0.0,1.0,416.0,691.0,1.0,0,343.0,1
1052,1052,0.24955850549244862,0.2,1.0,1.0,309.0,840.0,1.0,1,351.0,1
1053,1053,0.3893478130173932,0.4,1.0,1.0,398.0,655.0,1.0,1,367.0,1
1054,1054,0.4814544066302665,0.5,0.0,0.0,325.0,682.0,0.0,1,263.0,1
1055,1055,-0.2616420401505207,-0.3,0.0,1.0,260.0,918.0,1.0,0,662.0,1
1056,1056,0.13136386610095252,0.1,1.0,1.0,252.0,715.0,1.0,1,1363.0,1
1057,1057,0.794914766940927,0.8,0.0,0.0,420.0,956.0,1.0,0,-36.0,0
1058,1058,-0.27029077528983747,-0.3,0.0,1.0,432.0,855.0,1.0,0,653.0,1
1059,1059,0.3866028198409762,0.4,1.0,1.0,372.0,962.0,1.0,1,806.0,1
1060,1060,-0.7472879040453545,-0.7,0.0,1.0,412.0,831.0,1.0,0,377.0,1
1061,1061,-0.030494077787798557,-0.0,0.0,1.0,431.0,861.0,1.0,0,-72.0,1
1062,1062,-0.7261969978282261,-0.7,0.0,1.0,383.0,849.0,1.0,0,288.0,1
1063,1063,-0.24949489780002787,-0.2,1.0,0.0,314.0,658.0,0.0,0,1178.0,1
1064,1064,-0.14949659078274968,-0.1,1.0,0.0,298.0,636.0,0.0,0,266.0,1
1065,1065,-0.022282874281827847,-0.0,0.0,1.0,317.0,657.0,1.0,0,2186.0,1
1066,1066,0.23790802264673505,0.2,1.0,1.0,474.0,844.0,1.0,1,622.0,1
1067,1067,-0.1908768307989095,-0.2,1.0,0.0,480.0,566.0,0.0,0,944.0,1
1068,1068,-0.31804121198904056,-0.3,0.0,1.0,352.0,997.0,1.0,0,-29.0,1
1069,1069,-0.06586889873457946,-0.1,1.0,0.0,373.0,860.0,0.0,0,647.0,1
1070,1070,0.47512350763487643,0.5,0.0,0.0,339.0,853.0,0.0,1,288.0,1
1071,1071,-0.3431278371692392,-0.3,1.0,0.0,292.0,670.0,0.0,0,838.0,1
1072,1072,0.5568213279543252,0.6,1.0,1.0,363.0,622.0,1.0,1,365.0,1
1073,1073,-0.051661630894285104,-0.1,1.0,0.0,433.0,866.0,0.0,0,3701.0,1
1074,1074,-0.6306886185616246,-0.6,1.0,0.0,491.0,764.0,0.0,0,255.0,1
1075,1075,-0.3601724970095723,-0.4,0.0,1.0,310.0,850.0,1.0,0,410.0,1
1076,1076,-0.5016006380655031,-0.5,1.0,0.0,377.0,724.0,0.0,0,89.0,1
1077,1077,0.41567303842803727,0.4,0.0,0.0,258.0,604.0,0.0,1,538.0,1
1078,1078,0.24317559849596748,0.2,0.0,0.0,495.0,768.0,0.0,1,277.0,1
1079,1079,0.07763613704037164,0.1,0.0,0.0,314.0,926.0,0.0,1,3760.0,1
1080,1080,-0.6292923926498508,-0.6,1.0,0.0,480.0,956.0,0.0,0,284.0,1
1081,1081,-0.047489960454295654,-0.0,1.0,0.0,446.0,755.0,0.0,0,1379.0,1
1082,1082,0.34940210079849765,0.3,0.0,0.0,432.0,704.0,0.0,1,634.0,1
1083,1083,0.18921855866951975,0.2,1.0,1.0,265.0,993.0,1.0,1,512.0,1
1084,1084,-0.7197516268803716,-0.7,1.0,0.0,473.0,522.0,0.0,0,285.0,1
1085,1085,0.35647107719694315,0.4,0.0,0.0,389.0,705.0,0.0,1,426.0,1
1086,1086,-0.12567047290116495,-0.1,1.0,0.0,370.0,989.0,0.0,0,3641.0,1
1087,1087,-0.8663295230120177,-0.9,0.0,1.0,264.0,803.0,1.0,0,473.0,1
1088,1088,-0.586467661265678,-0.6,1.0,0.0,331.0,649.0,0.0,0,220.0,1
1089,1089,0.7729544053709213,0.8,0.0,0.0,347.0,758.0,0.0,1,135.0,1
1090,1090,0.3224300361714477,0.3,1.0,1.0,491.0,709.0,1.0,1,770.0,1
1091,1091,-0.42801235506775687,-0.4,0.0,1.0,425.0,527.0,1.0,0,508.0,1
1092,1092,0.44804687307560254,0.4,1.0,1.0,304.0,853.0,1.0,1,213.0,1
1093,1093,0.24467258589428564,0.2,1.0,1.0,483.0,888.0,0.0,0,-141.0,0
1094,1094,0.8342271279823598,0.8,0.0,0.0,450.0,564.0,0.0,1,166.0,1
1095,1095,0.7345522052022041,0.7,1.0,1.0,412.0,532.0,1.0,1,236.0,1
1096,1096,-0.15323543362027392,-0.2,0.0,1.0,486.0,986.0,1.0,0,1558.0,1
1097,1097,0.4390638934878762,0.4,0.0,0.0,289.0,706.0,0.0,1,385.0,1
1098,1098,-0.471788215326633,-0.5,0.0,1.0,453.0,795.0,1.0,0,212.0,1
1099,1099,0.13919011501924683,0.1,1.0,1.0,294.0,724.0,1.0,1,2362.0,1
1100,1100,-0.14851033213116027,-0.1,1.0,0.0,345.0,800.0,0.0,0,2685.0,1
1101,1101,-0.1968497801692215,-0.2,1.0,0.0,370.0,676.0,0.0,0,1974.0,1
1102,1102,-0.3826495453241421,-0.4,0.0,1.0,458.0,826.0,1.0,0,586.0,1
1103,1103,0.26857063755785016,0.3,0.0,0.0,254.0,614.0,0.0,1,522.0,1
1104,1104,0.8640754745430791,0.9,1.0,1.0,315.0,962.0,1.0,1,233.0,1
1105,1105,0.142545798823566,0.1,1.0,1.0,290.0,616.0,1.0,1,394.0,1
1106,1106,-0.7145869068401939,-0.7,0.0,1.0,495.0,575.0,1.0,0,190.0,1
1107,1107,0.2240579028394244,0.2,1.0,1.0,496.0,881.0,1.0,1,973.0,1
1108,1108,-0.11589179743869471,-0.1,1.0,0.0,285.0,639.0,0.0,0,1866.0,1
1109,1109,-0.01489185486360911,-0.0,0.0,1.0,398.0,688.0,0.0,1,3914.0,0
1110,1110,-0.8125934766268621,-0.8,0.0,1.0,436.0,508.0,1.0,0,106.0,1
1111,1111,-0.12348629349228235,-0.1,1.0,0.0,423.0,801.0,0.0,0,496.0,1
1112,1112,-0.8105592207975806,-0.8,0.0,1.0,269.0,628.0,1.0,0,153.0,1
1113,1113,0.8472515158221349,0.8,0.0,0.0,484.0,629.0,0.0,1,307.0,1
1114,1114,-0.16003589060387768,-0.2,1.0,0.0,295.0,859.0,0.0,0,626.0,1
1115,1115,-0.7995707239550345,-0.8,0.0,1.0,420.0,512.0,1.0,0,388.0,1
1116,1116,-0.773406203382835,-0.8,0.0,1.0,443.0,565.0,1.0,0,132.0,1
1117,1117,0.8370121145085389,0.8,1.0,1.0,400.0,691.0,1.0,1,529.0,1
1118,1118,0.28993896730366864,0.3,0.0,0.0,298.0,810.0,0.0,1,272.0,1
1119,1119,0.4051043321568032,0.4,0.0,0.0,272.0,715.0,0.0,1,433.0,1
1120,1120,-0.18903613458980006,-0.2,1.0,0.0,353.0,864.0,0.0,0,563.0,1
1121,1121,-0.1234188706175724,-0.1,1.0,0.0,462.0,505.0,0.0,0,3023.0,1
1122,1122,0.16056974718053263,0.2,1.0,1.0,326.0,798.0,1.0,1,676.0,1
1123,1123,0.149094682742409,0.1,0.0,0.0,453.0,840.0,0.0,1,3217.0,1
1124,1124,0.7147732143296345,0.7,1.0,1.0,423.0,993.0,1.0,1,234.0,1
1125,1125,0.20669936812832923,0.2,1.0,1.0,463.0,722.0,1.0,1,625.0,1
1126,1126,-0.5334897509994686,-0.5,1.0,0.0,350.0,725.0,0.0,0,75.0,1
1127,1127,0.8711477837416696,0.9,0.0,0.0,338.0,614.0,0.0,1,1198.0,1
1128,1128,-0.5292505124086987,-0.5,1.0,0.0,486.0,808.0,0.0,0,386.0,1
1129,1129,0.7277956463820253,0.7,1.0,1.0,340.0,836.0,1.0,1,84.0,1
1130,1130,-0.8872485809476632,-0.9,0.0,1.0,439.0,726.0,1.0,0,245.0,1
1131,1131,-0.3420113804762994,-0.3,1.0,0.0,264.0,852.0,0.0,0,284.0,1
1132,1132,0.7107640721494325,0.7,1.0,1.0,397.0,553.0,1.0,1,500.0,1
1133,1133,0.5321625558422164,0.5,1.0,1.0,455.0,959.0,1.0,1,586.0,1
1134,1134,-0.016256891345605484,-0.0,1.0,0.0,454.0,835.0,0.0,0,3711.0,1
1135,1135,0.4501964543131979,0.5,0.0,0.0,369.0,885.0,0.0,1,116.0,1
1136,1136,-0.4949367652513541,-0.5,0.0,1.0,479.0,511.0,1.0,0,260.0,1
1137,1137,0.8745284967776722,0.9,1.0,1.0,277.0,546.0,1.0,1,467.0,1
1138,1138,0.8946414280596641,0.9,0.0,0.0,417.0,908.0,0.0,1,185.0,1
1139,1139,0.0963220889985894,0.1,0.0,0.0,267.0,699.0,0.0,1,1294.0,1
1140,1140,-0.71244055794558,-0.7,1.0,0.0,338.0,999.0,0.0,0,213.0,1
1141,1141,-0.41551046360626787,-0.4,0.0,1.0,335.0,520.0,1.0,0,765.0,1
1142,1142,0.45808973806779585,0.5,1.0,1.0,487.0,718.0,1.0,1,355.0,1
1143,1143,-0.6492998513725897,-0.6,1.0,0.0,395.0,692.0,0.0,0,113.0,1
1144,1144,0.43640949806820484,0.4,1.0,1.0,415.0,979.0,1.0,1,426.0,1
1145,1145,-0.28573872598599237,-0.3,1.0,0.0,473.0,831.0,0.0,0,2176.0,1
1146,1146,0.20631745162210524,0.2,1.0,1.0,404.0,737.0,1.0,1,609.0,1
1147,1147,-0.8705091869555481,-0.9,0.0,1.0,252.0,826.0,1.0,0,132.0,1
1148,1148,0.611847503916093,0.6,1.0,1.0,364.0,505.0,1.0,1,431.0,1
1149,1149,-0.577261645435249,-0.6,0.0,1.0,339.0,959.0,1.0,0,432.0,1
1150,1150,0.79571884576705,0.8,1.0,1.0,281.0,902.0,1.0,1,397.0,1
1151,1151,0.7715098863937314,0.8,0.0,0.0,291.0,591.0,0.0,1,488.0,1
1152,1152,0.24870066196011587,0.2,0.0,0.0,405.0,968.0,0.0,1,497.0,1
1153,1153,-0.4404554408741752,-0.4,1.0,0.0,490.0,520.0,0.0,0,250.0,1
1154,1154,-0.16109326935099755,-0.2,1.0,0.0,368.0,879.0,0.0,0,3423.0,1
1155,1155,0.5121232734457463,0.5,1.0,1.0,280.0,959.0,1.0,1,341.0,1
1156,1156,0.5579304364557117,0.6,1.0,1.0,477.0,575.0,1.0,1,398.0,1
1157,1157,0.5431930758861477,0.5,1.0,1.0,348.0,930.0,1.0,1,262.0,1
1158,1158,0.3510557469389476,0.4,1.0,1.0,468.0,636.0,1.0,1,736.0,1
1159,1159,0.23330953519273712,0.2,1.0,1.0,475.0,715.0,1.0,1,630.0,1
1160,1160,0.24215694497240203,0.2,0.0,0.0,430.0,714.0,0.0,1,1426.0,1
1161,1161,0.5237420847820912,0.5,1.0,1.0,430.0,692.0,1.0,1,368.0,1
1162,1162,-0.3478183418624826,-0.3,0.0,1.0,272.0,575.0,1.0,0,333.0,1
1163,1163,-0.8918561673106336,-0.9,1.0,0.0,442.0,949.0,0.0,0,169.0,1
1164,1164,0.08744855168496202,0.1,1.0,1.0,289.0,756.0,0.0,0,3955.0,0
1165,1165,0.24672170165423346,0.2,1.0,1.0,282.0,603.0,1.0,1,475.0,1
1166,1166,-0.2787357348620485,-0.3,0.0,1.0,498.0,916.0,1.0,0,566.0,1
1167,1167,0.4126614633808786,0.4,1.0,1.0,487.0,631.0,1.0,1,382.0,1
1168,1168,-0.4768317401539139,-0.5,1.0,0.0,380.0,611.0,0.0,0,709.0,1
1169,1169,0.1996634904907667,0.2,0.0,0.0,459.0,888.0,0.0,1,1463.0,1
1170,1170,-0.45893678018309153,-0.5,1.0,0.0,333.0,548.0,0.0,0,189.0,1
1171,1171,0.5266261512939433,0.5,0.0,0.0,382.0,815.0,0.0,1,473.0,1
1172,1172,0.10691880371837048,0.1,1.0,1.0,376.0,560.0,1.0,1,1004.0,1
1173,1173,-0.05471002666980407,-0.1,0.0,1.0,328.0,798.0,1.0,0,3844.0,1
1174,1174,-0.2511378010265185,-0.3,1.0,0.0,311.0,723.0,0.0,0,1216.0,1
1175,1175,0.7073352411421311,0.7,0.0,0.0,454.0,851.0,0.0,1,125.0,1
1176,1176,-0.748797309540627,-0.7,1.0,0.0,467.0,532.0,0.0,0,331.0,1
1177,1177,0.20077106254855626,0.2,1.0,1.0,260.0,669.0,1.0,1,941.0,1
1178,1178,-0.27921066935765193,-0.3,1.0,0.0,462.0,762.0,0.0,0,366.0,1
1179,1179,0.61754084548759,0.6,1.0,1.0,335.0,907.0,1.0,1,198.0,1
1180,1180,0.8749535189015957,0.9,0.0,0.0,412.0,684.0,0.0,1,174.0,1
1181,1181,0.41367130103816685,0.4,1.0,1.0,366.0,600.0,1.0,1,604.0,1
1182,1182,0.5255910809939671,0.5,1.0,1.0,370.0,574.0,1.0,1,366.0,1
1183,1183,-0.20359125042855897,-0.2,0.0,1.0,252.0,584.0,1.0,0,634.0,1
1184,1184,-0.2462738726410919,-0.2,1.0,0.0,254.0,559.0,0.0,0,447.0,1
1185,1185,0.5510660980965717,0.6,0.0,0.0,280.0,782.0,0.0,1,418.0,1
1186,1186,-0.31184011028362235,-0.3,0.0,1.0,422.0,503.0,1.0,0,405.0,1
1187,1187,-0.5893454945123486,-0.6,1.0,0.0,429.0,591.0,0.0,0,450.0,1
1188,1188,0.24802022245674726,0.2,0.0,0.0,255.0,860.0,0.0,1,1415.0,1
1189,1189,0.3612958759295236,0.4,0.0,0.0,334.0,500.0,0.0,1,1766.0,1
1190,1190,0.47782004697048397,0.5,1.0,1.0,397.0,545.0,1.0,1,208.0,1
1191,1191,0.5992506314375557,0.6,1.0,1.0,390.0,945.0,1.0,1,315.0,1
1192,1192,-0.11142882946600507,-0.1,0.0,1.0,387.0,671.0,1.0,0,462.0,1
1193,1193,-0.6134032918393086,-0.6,1.0,0.0,341.0,731.0,0.0,0,68.0,1
1194,1194,0.8979256801107262,0.9,0.0,0.0,497.0,564.0,0.0,1,229.0,1
1195,1195,0.5597242982147294,0.6,0.0,0.0,349.0,691.0,0.0,1,290.0,1
1196,1196,0.24216984903125416,0.2,1.0,1.0,432.0,663.0,1.0,1,355.0,1
1197,1197,0.5051728224778437,0.5,0.0,0.0,361.0,906.0,0.0,1,243.0,1
1198,1198,0.11419849062873844,0.1,0.0,0.0,411.0,696.0,0.0,1,3793.0,1
1199,1199,0.02170582292535317,0.0,0.0,0.0,257.0,722.0,1.0,0,4021.0,0
1200,1200,0.7049472744660438,0.7,0.0,0.0,302.0,875.0,0.0,1,193.0,1
1201,1201,-0.07131915109245479,-0.1,0.0,1.0,261.0,711.0,1.0,0,3358.0,1
1202,1202,0.6104763879588505,0.6,1.0,1.0,335.0,815.0,1.0,1,120.0,1
1203,1203,-0.758472065481666,-0.8,1.0,0.0,430.0,860.0,0.0,0,130.0,1
1204,1204,-0.2729753689653892,-0.3,0.0,1.0,479.0,619.0,1.0,0,712.0,1
1205,1205,-0.4073876831951171,-0.4,1.0,0.0,325.0,838.0,0.0,0,387.0,1
1206,1206,0.21075966870717433,0.2,0.0,0.0,426.0,634.0,0.0,1,460.0,1
1207,1207,0.46034774975364445,0.5,0.0,0.0,270.0,910.0,0.0,1,200.0,1
1208,1208,-0.8657983980923077,-0.9,1.0,0.0,347.0,512.0,0.0,0,221.0,1
1209,1209,-0.6253409147586948,-0.6,0.0,1.0,419.0,638.0,1.0,0,463.0,1
1210,1210,-0.34043593257324123,-0.3,0.0,1.0,357.0,763.0,1.0,0,360.0,1
1211,1211,0.39539526718257456,0.4,1.0,1.0,375.0,996.0,1.0,1,619.0,1
1212,1212,-0.07609879068320602,-0.1,0.0,1.0,442.0,914.0,1.0,0,2484.0,1
1213,1213,-0.20626233857294984,-0.2,0.0,1.0,295.0,513.0,1.0,0,502.0,1
1214,1214,-0.674085268578196,-0.7,1.0,0.0,436.0,656.0,0.0,0,278.0,1
1215,1215,-0.4384563345159055,-0.4,1.0,0.0,408.0,740.0,0.0,0,582.0,1
1216,1216,0.25757608358458517,0.3,1.0,1.0,488.0,522.0,1.0,1,410.0,1
1217,1217,0.7042183993359835,0.7,1.0,1.0,253.0,927.0,1.0,1,390.0,1
1218,1218,-0.28361657597792467,-0.3,0.0,1.0,335.0,899.0,1.0,0,526.0,1
1219,1219,-0.3568489030374399,-0.4,1.0,0.0,464.0,972.0,0.0,0,744.0,1
1220,1220,0.7056729687895725,0.7,0.0,0.0,339.0,855.0,0.0,1,346.0,1
1221,1221,-0.30346482580687417,-0.3,1.0,0.0,298.0,994.0,0.0,0,258.0,1
1222,1222,0.2275699119478024,0.2,1.0,1.0,374.0,639.0,1.0,1,867.0,1
1223,1223,0.26727015345967653,0.3,1.0,1.0,322.0,825.0,1.0,1,533.0,1
1224,1224,0.7503315488972081,0.8,0.0,0.0,364.0,774.0,0.0,1,252.0,1
1225,1225,-0.48889775755793163,-0.5,0.0,1.0,302.0,574.0,1.0,0,384.0,1
1226,1226,-0.7691623684361896,-0.8,0.0,1.0,254.0,713.0,1.0,0,113.0,1
1227,1227,-0.6667253852486553,-0.7,1.0,0.0,302.0,918.0,0.0,0,200.0,1
1228,1228,0.014373529640755445,0.0,1.0,1.0,256.0,897.0,0.0,0,3847.0,0
1229,1229,0.48117429271160506,0.5,0.0,0.0,384.0,583.0,0.0,1,213.0,1
1230,1230,-0.8119425882600352,-0.8,0.0,1.0,461.0,853.0,1.0,0,176.0,1
1231,1231,0.4260696969441372,0.4,1.0,1.0,365.0,880.0,1.0,1,155.0,1
1232,1232,0.5822906729979508,0.6,0.0,0.0,304.0,763.0,0.0,1,153.0,1
1233,1233,0.1912943412161544,0.2,1.0,1.0,309.0,692.0,1.0,1,679.0,1
1234,1234,-0.5277985880457436,-0.5,1.0,0.0,423.0,888.0,0.0,0,219.0,1
1235,1235,-0.3552983406330924,-0.4,1.0,0.0,478.0,990.0,0.0,0,382.0,1
1236,1236,-0.06929457141632,-0.1,0.0,1.0,252.0,969.0,1.0,0,2699.0,1
1237,1237,-0.5075831144180112,-0.5,0.0,1.0,399.0,717.0,1.0,0,284.0,1
1238,1238,0.1856936019173815,0.2,0.0,0.0,470.0,631.0,0.0,1,1689.0,1
1239,1239,0.8851367802220375,0.9,0.0,0.0,407.0,827.0,0.0,1,436.0,1
1240,1240,-0.47330381332434207,-0.5,0.0,1.0,484.0,807.0,1.0,0,219.0,1
1241,1241,-0.6574521830111482,-0.7,0.0,1.0,344.0,608.0,1.0,0,338.0,1
1242,1242,-0.7549486428719026,-0.8,0.0,1.0,398.0,714.0,1.0,0,548.0,1
1243,1243,-0.40160050049939583,-0.4,1.0,0.0,318.0,836.0,0.0,0,616.0,1
1244,1244,0.8095604458530324,0.8,1.0,1.0,360.0,959.0,1.0,1,191.0,1
1245,1245,0.30755896564548213,0.3,1.0,1.0,289.0,579.0,1.0,1,462.0,1
1246,1246,-0.15505845002674112,-0.2,1.0,0.0,483.0,561.0,0.0,0,2056.0,1
1247,1247,-0.42729235358840467,-0.4,0.0,1.0,443.0,975.0,1.0,0,562.0,1
1248,1248,0.6603464528653326,0.7,0.0,0.0,457.0,826.0,0.0,1,157.0,1
1249,1249,-0.37426478501595006,-0.4,1.0,0.0,311.0,758.0,0.0,0,211.0,1
1250,1250,-0.5632065044816531,-0.6,1.0,0.0,413.0,534.0,0.0,0,233.0,1
1251,1251,-0.3255281265444946,-0.3,1.0,0.0,382.0,645.0,0.0,0,193.0,1
1252,1252,-0.3409551768591078,-0.3,0.0,1.0,372.0,931.0,1.0,0,127.0,1
1253,1253,-0.15995795132330526,-0.2,0.0,1.0,287.0,503.0,1.0,0,940.0,1
1254,1254,-0.5289422399884416,-0.5,1.0,0.0,322.0,531.0,0.0,0,187.0,1
1255,1255,-0.07534424190499345,-0.1,0.0,1.0,262.0,810.0,1.0,0,938.0,1
1256,1256,-0.10484995769124195,-0.1,0.0,1.0,434.0,991.0,1.0,0,2665.0,1
1257,1257,0.681947069034888,0.7,0.0,0.0,346.0,628.0,0.0,1,416.0,1
1258,1258,0.264324831019373,0.3,0.0,0.0,425.0,762.0,0.0,1,533.0,1
1259,1259,0.3022427236359492,0.3,0.0,0.0,271.0,963.0,0.0,1,436.0,1
1260,1260,0.15474281562402548,0.2,1.0,1.0,300.0,628.0,1.0,1,752.0,1
1261,1261,-0.309817120191751,-0.3,0.0,1.0,401.0,966.0,1.0,0,313.0,1
1262,1262,0.43803432158008915,0.4,0.0,0.0,398.0,574.0,0.0,1,348.0,1
1263,1263,-0.7040013732673378,-0.7,0.0,1.0,378.0,731.0,1.0,0,211.0,1
1264,1264,-0.6699191879122419,-0.7,0.0,1.0,321.0,567.0,1.0,0,302.0,1
1265,1265,-0.32301514181275837,-0.3,1.0,0.0,280.0,629.0,0.0,0,521.0,1
1266,1266,-0.24049065614193255,-0.2,1.0,0.0,424.0,539.0,0.0,0,357.0,1
1267,1267,-0.24398246965606551,-0.2,0.0,1.0,489.0,513.0,1.0,0,528.0,1
1268,1268,-0.6400010643895944,-0.6,1.0,0.0,318.0,836.0,0.0,0,256.0,1
1269,1269,0.7600847503752902,0.8,0.0,0.0,270.0,760.0,0.0,1,170.0,1
1270,1270,0.582092269451501,0.6,0.0,0.0,431.0,811.0,0.0,1,408.0,1
1271,1271,-0.11208933523920328,-0.1,1.0,0.0,383.0,789.0,0.0,0,1528.0,1
1272,1272,0.5454889883664374,0.5,1.0,1.0,480.0,608.0,1.0,1,382.0,1
1273,1273,0.4502808493932381,0.5,1.0,1.0,298.0,809.0,1.0,1,443.0,1
1274,1274,-0.7285092956400085,-0.7,0.0,1.0,314.0,976.0,1.0,0,320.0,1
1275,1275,0.5315128992821166,0.5,1.0,1.0,285.0,744.0,1.0,1,371.0,1
1276,1276,0.8531704885268557,0.9,1.0,1.0,457.0,527.0,1.0,1,276.0,1
1277,1277,-0.22769957349240866,-0.2,0.0,1.0,257.0,576.0,1.0,0,507.0,1
1278,1278,0.4172857012361971,0.4,0.0,0.0,290.0,677.0,0.0,1,653.0,1
1279,1279,0.5314592503770067,0.5,1.0,1.0,403.0,761.0,1.0,1,256.0,1
1280,1280,-0.28339056683471175,-0.3,0.0,1.0,452.0,947.0,1.0,0,571.0,1
1281,1281,-0.25915847172544304,-0.3,1.0,0.0,357.0,576.0,0.0,0,1547.0,1
1282,1282,-0.011421942184621003,-0.0,0.0,1.0,478.0,743.0,1.0,0,3779.0,1
1283,1283,-0.6580906642299812,-0.7,1.0,0.0,354.0,647.0,0.0,0,369.0,1
1284,1284,0.3294314289793968,0.3,0.0,0.0,411.0,535.0,0.0,1,384.0,1
1285,1285,0.25504888473195464,0.3,1.0,1.0,357.0,542.0,1.0,1,781.0,1
1286,1286,-0.31373245906261094,-0.3,0.0,1.0,286.0,932.0,1.0,0,1442.0,1
1287,1287,-0.07330682995591364,-0.1,1.0,0.0,307.0,886.0,0.0,0,1097.0,1
1288,1288,0.3599861214420025,0.4,0.0,0.0,360.0,830.0,0.0,1,640.0,1
1289,1289,-0.19640638801910437,-0.2,0.0,1.0,301.0,866.0,1.0,0,923.0,1
1290,1290,0.743543080898084,0.7,1.0,1.0,253.0,937.0,1.0,1,300.0,1
1291,1291,-0.3069808329842548,-0.3,1.0,0.0,446.0,802.0,0.0,0,-398.0,1
1292,1292,-0.8147993557270207,-0.8,1.0,0.0,490.0,965.0,0.0,0,145.0,1
1293,1293,0.6117630278544971,0.6,0.0,0.0,457.0,855.0,0.0,1,298.0,1
1294,1294,0.5130401694089598,0.5,1.0,1.0,390.0,645.0,1.0,1,465.0,1
1295,1295,0.526365859406046,0.5,1.0,1.0,352.0,869.0,1.0,1,249.0,1
1296,1296,0.1798974326655639,0.2,1.0,1.0,349.0,830.0,1.0,1,211.0,1
1297,1297,-0.18500542628970507,-0.2,1.0,0.0,496.0,798.0,0.0,0,526.0,1
1298,1298,-0.4654037653507492,-0.5,1.0,0.0,416.0,601.0,0.0,0,253.0,1
1299,1299,0.4154499124352765,0.4,0.0,0.0,359.0,700.0,0.0,1,411.0,1
1300,1300,0.5980022491930231,0.6,0.0,0.0,261.0,615.0,0.0,1,164.0,1
1301,1301,0.4647514707306678,0.5,1.0,1.0,444.0,502.0,1.0,1,404.0,1
1302,1302,-0.2942840616399698,-0.3,1.0,0.0,265.0,756.0,0.0,0,889.0,1
1303,1303,0.5801995155429246,0.6,1.0,1.0,326.0,812.0,0.0,0,-58.0,0
1304,1304,0.8529528094302162,0.9,0.0,0.0,419.0,501.0,0.0,1,210.0,1
1305,1305,-0.32005335978864424,-0.3,1.0,0.0,316.0,798.0,0.0,0,166.0,1
1306,1306,0.3512301399991068,0.4,0.0,0.0,387.0,550.0,0.0,1,613.0,1
1307,1307,0.46465396610371645,0.5,1.0,1.0,318.0,878.0,1.0,1,454.0,1
1308,1308,0.25107795938297583,0.3,0.0,0.0,482.0,792.0,0.0,1,926.0,1
1309,1309,-0.13512501986560388,-0.1,0.0,1.0,389.0,588.0,1.0,0,1403.0,1
1310,1310,0.4187138285036923,0.4,0.0,0.0,322.0,696.0,0.0,1,342.0,1
1311,1311,0.4996376977343838,0.5,0.0,0.0,389.0,849.0,0.0,1,282.0,1
1312,1312,-0.04707083716872451,-0.0,0.0,1.0,481.0,952.0,1.0,0,3277.0,1
1313,1313,0.6839328911743375,0.7,0.0,0.0,457.0,844.0,0.0,1,659.0,1
1314,1314,-0.7672277406398238,-0.8,0.0,1.0,383.0,510.0,1.0,0,177.0,1
1315,1315,-0.668200751489351,-0.7,0.0,1.0,447.0,964.0,1.0,0,349.0,1
1316,1316,0.7175627746704089,0.7,1.0,1.0,411.0,515.0,1.0,1,284.0,1
1317,1317,-0.6148440223770579,-0.6,0.0,1.0,287.0,751.0,1.0,0,452.0,1
1318,1318,-0.4766662449490117,-0.5,0.0,1.0,478.0,576.0,1.0,0,476.0,1
1319,1319,0.0338719912015053,0.0,1.0,1.0,374.0,626.0,1.0,1,3470.0,1
1320,1320,-0.08953937456216876,-0.1,1.0,0.0,296.0,944.0,0.0,0,3760.0,1
1321,1321,0.18939635857324666,0.2,1.0,1.0,298.0,622.0,1.0,1,330.0,1
1322,1322,-0.22291944280862508,-0.2,0.0,1.0,379.0,665.0,1.0,0,416.0,1
1323,1323,-0.378463792016685,-0.4,1.0,0.0,429.0,551.0,0.0,0,400.0,1
1324,1324,-0.6143399478248381,-0.6,1.0,0.0,409.0,525.0,0.0,0,236.0,1
1325,1325,-0.1964695620241078,-0.2,0.0,1.0,340.0,859.0,1.0,0,771.0,1
1326,1326,-0.7942061930022511,-0.8,0.0,1.0,474.0,684.0,1.0,0,132.0,1
1327,1327,-0.6967163259164938,-0.7,1.0,0.0,340.0,990.0,0.0,0,890.0,1
1328,1328,0.21014649098431792,0.2,1.0,1.0,488.0,994.0,1.0,1,2048.0,1
1329,1329,-0.10856902416096104,-0.1,1.0,0.0,456.0,905.0,0.0,0,1989.0,1
1330,1330,0.06715023481149374,0.1,0.0,0.0,448.0,607.0,0.0,1,3945.0,1
1331,1331,0.5633639576138209,0.6,1.0,1.0,395.0,730.0,1.0,1,395.0,1
1332,1332,-0.21348836749850553,-0.2,0.0,1.0,284.0,662.0,1.0,0,1064.0,1
1333,1333,0.31661402685149154,0.3,1.0,1.0,278.0,996.0,1.0,1,386.0,1
1334,1334,0.08887725322791395,0.1,0.0,0.0,491.0,900.0,0.0,1,859.0,1
1335,1335,0.11876354996115956,0.1,0.0,0.0,454.0,610.0,0.0,1,1496.0,1
1336,1336,-0.4211628588279173,-0.4,1.0,0.0,382.0,958.0,0.0,0,410.0,1
1337,1337,0.07806245585614868,0.1,0.0,0.0,375.0,874.0,0.0,1,1191.0,1
1338,1338,0.41100249069855377,0.4,0.0,0.0,373.0,527.0,0.0,1,810.0,1
1339,1339,-0.4307641212473415,-0.4,1.0,0.0,398.0,648.0,0.0,0,404.0,1
1340,1340,0.8891155401446235,0.9,0.0,0.0,396.0,882.0,0.0,1,472.0,1
1341,1341,0.010826169975600375,0.0,1.0,1.0,457.0,799.0,0.0,0,3274.0,0
1342,1342,-0.40539106685655285,-0.4,1.0,0.0,335.0,659.0,0.0,0,346.0,1
1343,1343,-0.26762115793649033,-0.3,0.0,1.0,293.0,740.0,1.0,0,137.0,1
1344,1344,0.7013723446751611,0.7,0.0,0.0,416.0,800.0,0.0,1,204.0,1
1345,1345,0.12111862127093664,0.1,0.0,0.0,279.0,948.0,0.0,1,1363.0,1
1346,1346,-0.807059576667058,-0.8,0.0,1.0,481.0,989.0,1.0,0,240.0,1
1347,1347,-0.4623423932085017,-0.5,1.0,0.0,335.0,803.0,0.0,0,302.0,1
1348,1348,0.17477716684876998,0.2,0.0,0.0,272.0,665.0,0.0,1,1303.0,1
1349,1349,-0.10697150623469387,-0.1,0.0,1.0,349.0,729.0,1.0,0,1782.0,1
1350,1350,-0.8011085999978914,-0.8,0.0,1.0,421.0,529.0,1.0,0,270.0,1
1351,1351,-0.5286174400997827,-0.5,1.0,0.0,339.0,896.0,0.0,0,525.0,1
1352,1352,0.5463290331848168,0.5,1.0,1.0,367.0,588.0,1.0,1,305.0,1
1353,1353,-0.43403422916368434,-0.4,0.0,1.0,312.0,888.0,1.0,0,270.0,1
1354,1354,0.09917944380321764,0.1,0.0,0.0,463.0,887.0,0.0,1,1920.0,1
1355,1355,-0.8080043313132115,-0.8,0.0,1.0,270.0,833.0,1.0,0,237.0,1
1356,1356,-0.3322627536101673,-0.3,0.0,1.0,337.0,949.0,1.0,0,564.0,1
1357,1357,-0.02048382583545172,-0.0,1.0,0.0,433.0,858.0,0.0,0,3709.0,1
1358,1358,0.03152063378250758,0.0,0.0,0.0,325.0,901.0,0.0,1,3224.0,1
1359,1359,-0.7034725552691627,-0.7,1.0,0.0,380.0,817.0,0.0,0,423.0,1
1360,1360,-0.2885282999673836,-0.3,1.0,0.0,311.0,823.0,0.0,0,396.0,1
1361,1361,0.23829060584796224,0.2,0.0,0.0,446.0,955.0,0.0,1,849.0,1
1362,1362,-0.15611648853097648,-0.2,0.0,1.0,284.0,695.0,1.0,0,541.0,1
1363,1363,-0.14153764870946273,-0.1,1.0,0.0,277.0,587.0,0.0,0,3256.0,1
1364,1364,0.8630250460237593,0.9,1.0,1.0,298.0,615.0,1.0,1,307.0,1
1365,1365,0.08853626795155367,0.1,0.0,0.0,353.0,866.0,0.0,1,1901.0,1
1366,1366,-0.7188909799012531,-0.7,1.0,0.0,343.0,754.0,0.0,0,253.0,1
1367,1367,-0.8846666913437925,-0.9,1.0,0.0,348.0,873.0,0.0,0,149.0,1
1368,1368,-0.793008756307971,-0.8,1.0,0.0,283.0,904.0,0.0,0,143.0,1
1369,1369,0.5932308175469224,0.6,0.0,0.0,349.0,857.0,0.0,1,364.0,1
1370,1370,-0.8146067040648659,-0.8,0.0,1.0,442.0,602.0,1.0,0,186.0,1
1371,1371,0.033429356281857614,0.0,1.0,1.0,303.0,777.0,1.0,1,3920.0,1
1372,1372,0.5928927348593659,0.6,1.0,1.0,359.0,625.0,1.0,1,286.0,1
1373,1373,-0.7619422183919805,-0.8,0.0,1.0,328.0,830.0,1.0,0,392.0,1
1374,1374,-0.10965599037833151,-0.1,0.0,1.0,338.0,772.0,1.0,0,1260.0,1
1375,1375,-0.6557976032271737,-0.7,1.0,0.0,394.0,874.0,0.0,0,982.0,1
1376,1376,0.34247384854472773,0.3,1.0,1.0,373.0,717.0,1.0,1,650.0,1
1377,1377,-0.6585342887277352,-0.7,1.0,0.0,448.0,746.0,0.0,0,326.0,1
1378,1378,-0.39322262856246426,-0.4,1.0,0.0,470.0,938.0,0.0,0,252.0,1
1379,1379,-0.8393167715958577,-0.8,1.0,0.0,407.0,808.0,0.0,0,165.0,1
1380,1380,-0.4214992458084713,-0.4,1.0,0.0,486.0,998.0,0.0,0,116.0,1
1381,1381,0.8286297431699142,0.8,1.0,1.0,474.0,719.0,1.0,1,227.0,1
1382,1382,-0.776810129460692,-0.8,1.0,0.0,424.0,551.0,0.0,0,395.0,1
1383,1383,0.8289794573887675,0.8,1.0,1.0,459.0,874.0,1.0,1,157.0,1
1384,1384,-0.29214065299789416,-0.3,0.0,1.0,346.0,781.0,1.0,0,353.0,1
1385,1385,0.3881234249278419,0.4,1.0,1.0,316.0,651.0,1.0,1,873.0,1
1386,1386,0.631047663922997,0.6,1.0,1.0,278.0,849.0,1.0,1,213.0,1
1387,1387,0.7788340225425524,0.8,0.0,0.0,345.0,869.0,0.0,1,176.0,1
1388,1388,0.49002629628255023,0.5,1.0,1.0,275.0,754.0,1.0,1,211.0,1
1389,1389,0.7622907188062765,0.8,1.0,1.0,316.0,657.0,1.0,1,327.0,1
1390,1390,0.487971354813057,0.5,1.0,1.0,304.0,997.0,1.0,1,309.0,1
1391,1391,0.28050636891975345,0.3,0.0,0.0,403.0,860.0,0.0,1,887.0,1
1392,1392,0.25489129838229896,0.3,0.0,0.0,347.0,990.0,0.0,1,1873.0,1
1393,1393,0.022054206724332226,0.0,0.0,0.0,461.0,802.0,1.0,0,3737.0,0
1394,1394,-0.5358177173477918,-0.5,0.0,1.0,424.0,557.0,1.0,0,349.0,1
1395,1395,0.060799475622733246,0.1,0.0,0.0,269.0,716.0,0.0,1,4015.0,1
1396,1396,-0.00564577460181126,-0.0,1.0,0.0,428.0,682.0,0.0,0,3890.0,1
1397,1397,-0.21725880426016275,-0.2,0.0,1.0,491.0,627.0,1.0,0,1042.0,1
1398,1398,-0.60530465101376,-0.6,0.0,1.0,470.0,738.0,1.0,0,402.0,1
1399,1399,0.4371765724572053,0.4,0.0,0.0,313.0,627.0,0.0,1,340.0,1
1400,1400,0.7823650571492456,0.8,1.0,1.0,432.0,772.0,1.0,1,176.0,1
1401,1401,-0.2994407814689982,-0.3,1.0,0.0,351.0,956.0,0.0,0,573.0,1
1402,1402,-0.6954028041799714,-0.7,0.0,1.0,337.0,958.0,1.0,0,375.0,1
1403,1403,-0.5782974745897627,-0.6,1.0,0.0,420.0,956.0,0.0,0,394.0,1
1404,1404,-0.5176328628306294,-0.5,0.0,1.0,341.0,541.0,1.0,0,478.0,1
1405,1405,-0.2421015354141679,-0.2,1.0,0.0,285.0,510.0,0.0,0,1225.0,1
1406,1406,0.7177810786002347,0.7,1.0,1.0,497.0,686.0,1.0,1,177.0,1
1407,1407,-0.15035012157478123,-0.2,0.0,1.0,445.0,705.0,1.0,0,1110.0,1
1408,1408,-0.1897400812541582,-0.2,1.0,0.0,421.0,856.0,0.0,0,993.0,1
1409,1409,0.5229964999623203,0.5,1.0,1.0,478.0,715.0,1.0,1,337.0,1
1410,1410,0.1606048345631893,0.2,0.0,0.0,250.0,924.0,0.0,1,1026.0,1
1411,1411,-0.49247903566368695,-0.5,1.0,0.0,268.0,738.0,0.0,0,504.0,1
1412,1412,0.730311769129813,0.7,1.0,1.0,439.0,812.0,1.0,1,419.0,1
1413,1413,0.36598134284918504,0.4,1.0,1.0,386.0,968.0,1.0,1,686.0,1
1414,1414,0.889561495288007,0.9,1.0,1.0,343.0,738.0,1.0,1,89.0,1
1415,1415,-0.5479784769422589,-0.5,0.0,1.0,445.0,671.0,1.0,0,214.0,1
1416,1416,-0.4397185785177435,-0.4,1.0,0.0,466.0,623.0,0.0,0,171.0,1
1417,1417,-0.7470507281566745,-0.7,1.0,0.0,497.0,731.0,0.0,0,72.0,1
1418,1418,-0.08584606717157794,-0.1,1.0,0.0,272.0,586.0,0.0,0,3962.0,1
1419,1419,-0.68121427909612,-0.7,1.0,0.0,337.0,902.0,0.0,0,271.0,1
1420,1420,0.7191722009934028,0.7,0.0,0.0,266.0,947.0,0.0,1,207.0,1
1421,1421,0.280508560060858,0.3,1.0,1.0,365.0,895.0,1.0,1,340.0,1
1422,1422,-0.6634697733223182,-0.7,1.0,0.0,355.0,668.0,0.0,0,507.0,1
1423,1423,-0.658242449137239,-0.7,1.0,0.0,389.0,711.0,0.0,0,430.0,1
1424,1424,-0.610195911226466,-0.6,1.0,0.0,346.0,510.0,0.0,0,464.0,1
1425,1425,0.1778577789079404,0.2,1.0,1.0,266.0,766.0,1.0,1,1758.0,1
1426,1426,-0.638897838925249,-0.6,1.0,0.0,388.0,617.0,0.0,0,335.0,1
1427,1427,-0.6317339004293001,-0.6,0.0,1.0,399.0,548.0,1.0,0,373.0,1
1428,1428,-0.7147106735556185,-0.7,1.0,0.0,436.0,762.0,0.0,0,72.0,1
1429,1429,-0.2592330294964039,-0.3,0.0,1.0,317.0,674.0,1.0,0,1669.0,1
1430,1430,-0.5694937456046356,-0.6,0.0,1.0,433.0,711.0,1.0,0,406.0,1
1431,1431,-0.654774234674758,-0.7,1.0,0.0,460.0,716.0,0.0,0,124.0,1
1432,1432,-0.7302001174967299,-0.7,0.0,1.0,383.0,895.0,1.0,0,132.0,1
1433,1433,0.08435885328051895,0.1,0.0,0.0,352.0,966.0,0.0,1,2222.0,1
1434,1434,0.7836401005080668,0.8,1.0,1.0,412.0,817.0,1.0,1,301.0,1
1435,1435,0.49183599721738547,0.5,0.0,0.0,266.0,582.0,0.0,1,372.0,1
1436,1436,-0.3329816659771516,-0.3,1.0,0.0,476.0,641.0,0.0,0,433.0,1
1437,1437,-0.33045271733600656,-0.3,0.0,1.0,434.0,887.0,1.0,0,469.0,1
1438,1438,0.3789825384335447,0.4,0.0,0.0,295.0,753.0,0.0,1,612.0,1
1439,1439,-0.15571437815466793,-0.2,0.0,1.0,450.0,533.0,1.0,0,237.0,1
1440,1440,0.7892244136677372,0.8,0.0,0.0,440.0,823.0,0.0,1,187.0,1
1441,1441,0.38361088635751284,0.4,0.0,0.0,476.0,885.0,0.0,1,389.0,1
1442,1442,-0.5141679693156747,-0.5,1.0,0.0,378.0,547.0,0.0,0,335.0,1
1443,1443,-0.7646250287640319,-0.8,0.0,1.0,486.0,750.0,1.0,0,174.0,1
1444,1444,-0.7643820916661543,-0.8,0.0,1.0,403.0,675.0,1.0,0,272.0,1
1445,1445,-0.028802386615065956,-0.0,0.0,1.0,343.0,511.0,1.0,0,4146.0,1
1446,1446,0.39378888549209246,0.4,0.0,0.0,421.0,621.0,0.0,1,198.0,1
1447,1447,-0.4324841550298727,-0.4,0.0,1.0,360.0,505.0,1.0,0,535.0,1
1448,1448,-0.35672350596404867,-0.4,1.0,0.0,382.0,658.0,0.0,0,580.0,1
1449,1449,-0.19043158476437483,-0.2,0.0,1.0,304.0,869.0,1.0,0,2107.0,1
1450,1450,0.2919692821630825,0.3,1.0,1.0,381.0,575.0,1.0,1,704.0,1
1451,1451,-0.746485644180491,-0.7,1.0,0.0,307.0,989.0,0.0,0,154.0,1
1452,1452,-0.5852354317192292,-0.6,0.0,1.0,465.0,903.0,1.0,0,142.0,1
1453,1453,0.558231378121251,0.6,0.0,0.0,414.0,539.0,0.0,1,367.0,1
1454,1454,-0.791363375528102,-0.8,0.0,1.0,257.0,991.0,1.0,0,82.0,1
1455,1455,0.11045612033643748,0.1,0.0,0.0,282.0,804.0,0.0,1,1294.0,1
1456,1456,0.18667639314499718,0.2,1.0,1.0,479.0,970.0,1.0,1,1021.0,1
1457,1457,0.8798046831371235,0.9,1.0,1.0,371.0,756.0,1.0,1,433.0,1
1458,1458,-0.48652748421784614,-0.5,0.0,1.0,399.0,999.0,1.0,0,242.0,1
1459,1459,0.8255545162968553,0.8,0.0,0.0,452.0,743.0,0.0,1,135.0,1
1460,1460,-0.5997887627393033,-0.6,1.0,0.0,330.0,564.0,0.0,0,456.0,1
1461,1461,0.8274715924434294,0.8,0.0,0.0,484.0,751.0,0.0,1,195.0,1
1462,1462,-0.7941446523932578,-0.8,0.0,1.0,492.0,559.0,1.0,0,269.0,1
1463,1463,-0.8156867045198729,-0.8,1.0,0.0,426.0,868.0,0.0,0,106.0,1
1464,1464,0.2754000177140189,0.3,1.0,1.0,449.0,511.0,1.0,1,510.0,1
1465,1465,0.4352260030539191,0.4,1.0,1.0,463.0,536.0,1.0,1,311.0,1
1466,1466,-0.3176632417039762,-0.3,1.0,0.0,307.0,806.0,0.0,0,757.0,1
1467,1467,-0.09427605440454123,-0.1,0.0,1.0,259.0,643.0,1.0,0,3278.0,1
1468,1468,0.2941931126763223,0.3,0.0,0.0,384.0,616.0,0.0,1,330.0,1
1469,1469,-0.39374386790385774,-0.4,0.0,1.0,315.0,925.0,1.0,0,280.0,1
1470,1470,-0.13235822703384592,-0.1,1.0,0.0,486.0,910.0,0.0,0,194.0,1
1471,1471,0.812377624298451,0.8,1.0,1.0,488.0,856.0,1.0,1,146.0,1
1472,1472,0.5273158390069287,0.5,0.0,0.0,292.0,810.0,0.0,1,328.0,1
1473,1473,0.4662830853180483,0.5,0.0,0.0,353.0,652.0,0.0,1,685.0,1
1474,1474,-0.7435735213673279,-0.7,1.0,0.0,291.0,934.0,0.0,0,375.0,1
1475,1475,0.17573016041429013,0.2,0.0,0.0,471.0,786.0,0.0,1,1543.0,1
1476,1476,0.2869862884789237,0.3,0.0,0.0,250.0,683.0,0.0,1,607.0,1
1477,1477,0.33742700518848345,0.3,1.0,1.0,443.0,757.0,1.0,1,730.0,1
1478,1478,0.5562301658841892,0.6,0.0,0.0,487.0,845.0,0.0,1,1348.0,1
1479,1479,-0.6126414837119143,-0.6,1.0,0.0,466.0,714.0,0.0,0,170.0,1
1480,1480,0.584757772258718,0.6,0.0,0.0,412.0,844.0,0.0,1,374.0,1
1481,1481,-0.3213125940611503,-0.3,0.0,1.0,401.0,684.0,1.0,0,1125.0,1
1482,1482,0.02228035221507918,0.0,0.0,0.0,278.0,678.0,1.0,0,4044.0,0
1483,1483,-0.8779153104964847,-0.9,1.0,0.0,440.0,841.0,0.0,0,329.0,1
1484,1484,-0.881983032113101,-0.9,0.0,1.0,288.0,953.0,1.0,0,329.0,1
1485,1485,-0.787427055144928,-0.8,0.0,1.0,285.0,625.0,1.0,0,330.0,1
1486,1486,-0.2258308352333096,-0.2,0.0,1.0,484.0,676.0,1.0,0,980.0,1
1487,1487,0.7004944476534419,0.7,0.0,0.0,379.0,730.0,0.0,1,161.0,1
1488,1488,-0.4224305501021159,-0.4,1.0,0.0,368.0,593.0,0.0,0,429.0,1
