,trial,coherence,coherence_bin,green_side,correct_side,target_onset,checker_onset,decision,green_decision,decision_time,correct_decision
0,0,-0.599267044394162,-0.6,1.0,0.0,362.0,958.0,0.0,0,1680.0,1
1,1,0.13443981737696975,0.1,0.0,0.0,427.0,751.0,0.0,1,1822.0,1
2,2,0.8384719206843189,0.8,1.0,1.0,352.0,852.0,0.0,0,1796.0,0
3,3,0.21726388149824738,0.2,1.0,1.0,325.0,557.0,0.0,0,2118.0,0
4,4,-0.13051463115322604,-0.1,1.0,0.0,445.0,839.0,0.0,0,1716.0,1
5,5,-0.8088072853571396,-0.8,0.0,1.0,431.0,999.0,0.0,1,1570.0,0
6,6,-0.390656136704322,-0.4,1.0,0.0,376.0,703.0,0.0,0,1921.0,1
7,7,0.2741053102501868,0.3,0.0,0.0,360.0,820.0,0.0,1,1820.0,1
8,8,0.8791049137717236,0.9,1.0,1.0,251.0,851.0,0.0,0,1898.0,0
9,9,-0.24306609160002324,-0.2,1.0,0.0,286.0,628.0,0.0,0,2086.0,1
10,10,-0.4902861436194609,-0.5,0.0,1.0,348.0,666.0,0.0,1,1986.0,0
11,11,0.24211246244541973,0.2,1.0,1.0,363.0,694.0,0.0,0,1943.0,0
12,12,-0.6204840647069079,-0.6,0.0,1.0,485.0,793.0,0.0,1,1722.0,0
13,13,-0.0641827855621645,-0.1,0.0,1.0,409.0,796.0,0.0,1,1795.0,0
14,14,0.702478658753431,0.7,1.0,1.0,459.0,749.0,0.0,0,1792.0,0
15,15,0.5165530648604469,0.5,1.0,1.0,330.0,804.0,0.0,0,1866.0,0
16,16,0.6322374096812861,0.6,0.0,0.0,317.0,578.0,0.0,1,2105.0,1
17,17,0.22301768259862886,0.2,0.0,0.0,431.0,844.0,0.0,1,1725.0,1
18,18,-0.45515834816098427,-0.5,1.0,0.0,326.0,862.0,1.0,1,-1108.0,0
19,19,0.21751674284280387,0.2,0.0,0.0,392.0,534.0,0.0,1,2074.0,1
20,20,-0.11436228949442839,-0.1,0.0,1.0,255.0,953.0,0.0,1,1792.0,0
21,21,-0.8551152508913427,-0.9,1.0,0.0,368.0,771.0,0.0,0,1861.0,1
22,22,-0.8730845771820601,-0.9,0.0,1.0,366.0,815.0,0.0,1,1819.0,0
23,23,-0.05485205949144478,-0.1,1.0,0.0,415.0,733.0,0.0,0,1852.0,1
24,24,0.7015544967991997,0.7,1.0,1.0,303.0,979.0,0.0,0,1718.0,0
25,25,0.708812747941853,0.7,1.0,1.0,425.0,523.0,0.0,0,2052.0,0
26,26,-0.8581545766469643,-0.9,1.0,0.0,492.0,524.0,0.0,0,1984.0,1
27,27,0.467849002024617,0.5,1.0,1.0,447.0,875.0,0.0,0,1678.0,0
28,28,-0.7381123666437519,-0.7,0.0,1.0,381.0,596.0,0.0,1,-857.0,0
29,29,-0.015060114137485425,-0.0,1.0,0.0,254.0,673.0,0.0,0,2073.0,1
30,30,-0.1858157269184395,-0.2,1.0,0.0,256.0,910.0,0.0,0,1834.0,1
31,31,-0.635847246048145,-0.6,1.0,0.0,337.0,897.0,0.0,0,1766.0,1
32,32,-0.17650434810041316,-0.2,0.0,1.0,424.0,881.0,0.0,1,1695.0,0
33,33,0.5856631770824187,0.6,1.0,1.0,469.0,538.0,1.0,1,-937.0,1
34,34,0.8513219504341271,0.9,1.0,1.0,370.0,807.0,0.0,0,1823.0,0
35,35,0.4725195708312183,0.5,1.0,1.0,442.0,524.0,0.0,0,2034.0,0
36,36,0.45643954462927316,0.5,0.0,0.0,342.0,628.0,0.0,1,2030.0,1
37,37,-0.33410237920567754,-0.3,1.0,0.0,252.0,841.0,0.0,0,-1083.0,1
38,38,-0.08795311600816835,-0.1,0.0,1.0,362.0,998.0,0.0,1,1640.0,0
39,39,-0.7415083744514954,-0.7,0.0,1.0,276.0,858.0,0.0,1,1866.0,0
40,40,0.39883591187249656,0.4,0.0,0.0,359.0,931.0,0.0,1,1710.0,1
41,41,-0.30979148554264857,-0.3,1.0,0.0,375.0,777.0,0.0,0,1848.0,1
42,42,0.20427780554916863,0.2,0.0,0.0,268.0,510.0,0.0,1,2222.0,1
43,43,0.8080556154796915,0.8,0.0,0.0,365.0,930.0,0.0,1,1705.0,1
44,44,0.22635792057881232,0.2,1.0,1.0,252.0,929.0,0.0,0,1819.0,0
45,45,-0.45950349751734304,-0.5,1.0,0.0,298.0,781.0,0.0,0,1921.0,1
46,46,0.3008780030560875,0.3,0.0,0.0,469.0,781.0,0.0,1,1750.0,1
47,47,0.5140198541789492,0.5,1.0,1.0,314.0,911.0,0.0,0,1775.0,0
48,48,0.5676187568713883,0.6,1.0,1.0,475.0,865.0,0.0,0,1660.0,0
49,49,0.2675045623998783,0.3,1.0,1.0,255.0,605.0,0.0,0,2140.0,0
50,50,0.6540137326811893,0.7,0.0,0.0,361.0,954.0,0.0,1,1685.0,1
51,51,-0.24050948795152027,-0.2,0.0,1.0,266.0,591.0,0.0,1,2143.0,0
52,52,0.14087980509217768,0.1,0.0,0.0,278.0,942.0,0.0,1,1780.0,1
53,53,-0.8908730862799316,-0.9,0.0,1.0,491.0,706.0,0.0,1,1803.0,0
54,54,-0.6011228068158019,-0.6,0.0,1.0,461.0,729.0,0.0,1,1810.0,0
55,55,-0.1653692296396787,-0.2,0.0,1.0,343.0,885.0,0.0,1,1772.0,0
56,56,0.5615396590297322,0.6,0.0,0.0,375.0,689.0,0.0,1,1936.0,1
57,57,0.1444085149558797,0.1,0.0,0.0,457.0,740.0,0.0,1,1803.0,1
58,58,0.34327634919305916,0.3,0.0,0.0,427.0,772.0,0.0,1,1801.0,1
59,59,0.6049262346229821,0.6,1.0,1.0,320.0,593.0,0.0,0,2087.0,0
60,60,0.18959721475524038,0.2,1.0,1.0,462.0,799.0,0.0,0,1739.0,0
61,61,0.768446472560539,0.8,1.0,1.0,303.0,712.0,0.0,0,1985.0,0
62,62,0.49038811234300905,0.5,0.0,0.0,333.0,580.0,0.0,1,2087.0,1
63,63,0.6107359823997626,0.6,1.0,1.0,449.0,888.0,0.0,0,1663.0,0
64,64,0.8634263428246419,0.9,0.0,0.0,346.0,765.0,0.0,1,1889.0,1
65,65,-0.34642655252783805,-0.3,1.0,0.0,416.0,667.0,0.0,0,1917.0,1
66,66,0.26082108874701315,0.3,0.0,0.0,423.0,905.0,0.0,1,1672.0,1
67,67,-0.44957189935737535,-0.4,0.0,1.0,320.0,711.0,0.0,1,1969.0,0
68,68,0.8443061592499245,0.8,0.0,0.0,469.0,951.0,0.0,1,1580.0,1
69,69,-0.21319717108901837,-0.2,1.0,0.0,478.0,721.0,0.0,0,1801.0,1
70,70,-0.30165521261095185,-0.3,1.0,0.0,427.0,871.0,0.0,0,1702.0,1
71,71,-0.5624842888750285,-0.6,0.0,1.0,413.0,913.0,0.0,1,1674.0,0
72,72,0.7574419964219322,0.8,0.0,0.0,319.0,614.0,0.0,1,2067.0,1
73,73,-0.5358353045811307,-0.5,1.0,0.0,429.0,609.0,0.0,0,1962.0,1
74,74,0.023230841964466453,0.0,0.0,0.0,496.0,860.0,0.0,1,1644.0,1
75,75,-0.3059816920175402,-0.3,1.0,0.0,476.0,873.0,0.0,0,1651.0,1
76,76,-0.20788546258832963,-0.2,1.0,0.0,286.0,958.0,0.0,0,1756.0,1
77,77,-0.3051057020763759,-0.3,0.0,1.0,282.0,931.0,0.0,1,1787.0,0
78,78,-0.5885309059006065,-0.6,0.0,1.0,427.0,634.0,0.0,1,1939.0,0
79,79,0.3740127127021372,0.4,0.0,0.0,285.0,952.0,0.0,1,-1237.0,1
80,80,-0.647978679351383,-0.6,1.0,0.0,347.0,929.0,0.0,0,1724.0,1
81,81,0.13756631133599673,0.1,1.0,1.0,440.0,819.0,0.0,0,1741.0,0
82,82,0.11621009616842526,0.1,0.0,0.0,342.0,906.0,0.0,1,1752.0,1
83,83,0.2642176253974876,0.3,0.0,0.0,313.0,770.0,0.0,1,1917.0,1
84,84,0.7123017494525156,0.7,0.0,0.0,406.0,531.0,0.0,1,2063.0,1
85,85,-0.541886312584655,-0.5,1.0,0.0,466.0,645.0,0.0,0,1889.0,1
86,86,0.01174940110935474,0.0,0.0,0.0,353.0,923.0,1.0,0,-1086.0,0
87,87,-0.6360792941512694,-0.6,0.0,1.0,301.0,560.0,0.0,1,2139.0,0
88,88,-0.4389702042791559,-0.4,0.0,1.0,469.0,678.0,0.0,1,1853.0,0
89,89,-0.21412811733510295,-0.2,0.0,1.0,462.0,977.0,0.0,1,1561.0,0
90,90,-0.5124504548589324,-0.5,1.0,0.0,476.0,906.0,1.0,1,-1062.0,0
91,91,-0.24281011474284742,-0.2,0.0,1.0,268.0,827.0,0.0,1,1905.0,0
92,92,0.3541790905251069,0.4,0.0,0.0,293.0,749.0,0.0,1,1958.0,1
93,93,0.22976948725566826,0.2,1.0,1.0,420.0,587.0,0.0,0,1993.0,0
94,94,0.5972197209118834,0.6,1.0,1.0,492.0,819.0,0.0,0,1689.0,0
95,95,-0.8229724569928537,-0.8,0.0,1.0,469.0,582.0,0.0,1,1949.0,0
96,96,-0.8889901799747274,-0.9,1.0,0.0,338.0,504.0,0.0,0,2158.0,1
97,97,0.3431040392118422,0.3,1.0,1.0,326.0,780.0,0.0,0,1894.0,0
98,98,-0.28239516280597576,-0.3,1.0,0.0,317.0,662.0,0.0,0,2021.0,1
99,99,0.6349156714530418,0.6,1.0,1.0,444.0,870.0,0.0,0,1686.0,0
100,100,0.48822900635942756,0.5,0.0,0.0,489.0,726.0,0.0,1,1785.0,1
101,101,-0.3407560904681297,-0.3,1.0,0.0,274.0,714.0,0.0,0,2012.0,1
102,102,0.5614231449917425,0.6,1.0,1.0,437.0,602.0,0.0,0,1961.0,0
103,103,-0.8128855563143349,-0.8,0.0,1.0,457.0,585.0,0.0,1,1958.0,0
104,104,0.4953171693764461,0.5,1.0,1.0,282.0,662.0,0.0,0,2056.0,0
105,105,0.7864685235497831,0.8,0.0,0.0,312.0,692.0,0.0,1,1996.0,1
106,106,0.2848957729612419,0.3,0.0,0.0,484.0,787.0,0.0,1,-1201.0,1
107,107,0.8126070732126992,0.8,0.0,0.0,498.0,523.0,0.0,1,1979.0,1
108,108,0.7558950353739019,0.8,0.0,0.0,279.0,840.0,0.0,1,1881.0,1
109,109,-0.46656052641348417,-0.5,1.0,0.0,438.0,505.0,0.0,0,2057.0,1
110,110,-0.5676543392954811,-0.6,1.0,0.0,301.0,536.0,0.0,0,2163.0,1
111,111,-0.8083950087862369,-0.8,1.0,0.0,270.0,911.0,0.0,0,1819.0,1
112,112,-0.3964551730105358,-0.4,1.0,0.0,424.0,849.0,0.0,0,1727.0,1
113,113,0.8320481541492836,0.8,0.0,0.0,494.0,856.0,0.0,1,1650.0,1
114,114,0.7815082982050384,0.8,0.0,0.0,390.0,521.0,0.0,1,2089.0,1
115,115,-0.803927056855767,-0.8,0.0,1.0,486.0,621.0,0.0,1,1893.0,0
116,116,-0.28410632739003483,-0.3,0.0,1.0,297.0,806.0,0.0,1,1897.0,0
117,117,0.08755107488282654,0.1,1.0,1.0,447.0,868.0,0.0,0,1685.0,0
118,118,-0.3438825697359019,-0.3,1.0,0.0,460.0,569.0,0.0,0,1971.0,1
119,119,0.8202279600465473,0.8,0.0,0.0,264.0,563.0,0.0,1,2173.0,1
120,120,0.28155356132901865,0.3,0.0,0.0,266.0,910.0,0.0,1,1824.0,1
121,121,-0.8739489991527611,-0.9,1.0,0.0,268.0,649.0,0.0,0,-837.0,1
122,122,-0.8788177110374978,-0.9,1.0,0.0,480.0,722.0,0.0,0,1798.0,1
123,123,-0.5639909209619894,-0.6,0.0,1.0,333.0,672.0,0.0,1,1995.0,0
124,124,-0.5828784117281256,-0.6,1.0,0.0,467.0,531.0,0.0,0,2002.0,1
125,125,0.38073922734903165,0.4,1.0,1.0,406.0,935.0,0.0,0,1659.0,0
126,126,0.7020463838193599,0.7,0.0,0.0,373.0,681.0,0.0,1,1946.0,1
127,127,-0.8179780062988683,-0.8,0.0,1.0,286.0,685.0,0.0,1,2029.0,0
128,128,0.7861853833413494,0.8,1.0,1.0,458.0,505.0,0.0,0,2037.0,0
129,129,0.2525114900945772,0.3,1.0,1.0,314.0,572.0,0.0,0,-876.0,0
130,130,-0.8180086230079553,-0.8,1.0,0.0,259.0,661.0,0.0,0,2080.0,1
131,131,-0.41593246407554524,-0.4,0.0,1.0,357.0,876.0,0.0,1,1767.0,0
132,132,-0.350971475974868,-0.4,0.0,1.0,498.0,596.0,1.0,0,-994.0,1
133,133,0.665831381384138,0.7,1.0,1.0,427.0,654.0,0.0,0,1919.0,0
134,134,0.7384778844424787,0.7,1.0,1.0,440.0,527.0,0.0,0,2033.0,0
135,135,-0.023386878817028833,-0.0,0.0,1.0,361.0,752.0,0.0,1,1887.0,0
136,136,-0.8417540754824402,-0.8,0.0,1.0,315.0,678.0,0.0,1,2007.0,0
137,137,-0.7035675335726066,-0.7,0.0,1.0,479.0,823.0,0.0,1,1698.0,0
138,138,-0.03940873003058731,-0.0,1.0,0.0,415.0,841.0,0.0,0,1744.0,1
139,139,0.6944241452973595,0.7,1.0,1.0,368.0,686.0,0.0,0,1946.0,0
140,140,0.27689496090638477,0.3,0.0,0.0,367.0,860.0,0.0,1,1773.0,1
141,141,-0.23890784017051292,-0.2,0.0,1.0,324.0,727.0,0.0,1,1949.0,0
142,142,-0.12160057350220876,-0.1,0.0,1.0,439.0,938.0,0.0,1,1623.0,0
143,143,0.5269275400143737,0.5,1.0,1.0,286.0,801.0,0.0,0,1913.0,0
144,144,-0.5864672234465453,-0.6,0.0,1.0,442.0,906.0,0.0,1,1652.0,0
145,145,0.14533958013139847,0.1,0.0,0.0,470.0,780.0,0.0,1,1750.0,1
146,146,0.26094778213378345,0.3,1.0,1.0,396.0,579.0,0.0,0,2025.0,0
147,147,-0.052903385145504966,-0.1,1.0,0.0,296.0,978.0,0.0,0,1726.0,1
148,148,0.26835199126316434,0.3,1.0,1.0,456.0,754.0,0.0,0,1790.0,0
149,149,-0.7863849333984319,-0.8,1.0,0.0,317.0,799.0,0.0,0,1884.0,1
150,150,0.638456662668954,0.6,1.0,1.0,349.0,746.0,0.0,0,1905.0,0
151,151,0.8843219509287913,0.9,1.0,1.0,430.0,525.0,0.0,0,2045.0,0
152,152,-0.12651273484549075,-0.1,1.0,0.0,475.0,689.0,0.0,0,1836.0,1
153,153,-0.7764334441181879,-0.8,1.0,0.0,453.0,871.0,0.0,0,1676.0,1
154,154,0.2128578969956766,0.2,1.0,1.0,481.0,703.0,0.0,0,1816.0,0
155,155,0.2560756513388017,0.3,0.0,0.0,442.0,980.0,0.0,1,1578.0,1
156,156,0.8480755340945679,0.8,1.0,1.0,397.0,676.0,0.0,0,1927.0,0
157,157,0.3200700607284409,0.3,1.0,1.0,466.0,785.0,0.0,0,1749.0,0
158,158,-0.7757344798924143,-0.8,1.0,0.0,480.0,840.0,0.0,0,1680.0,1
159,159,-0.5523679579075547,-0.6,1.0,0.0,451.0,870.0,0.0,0,1679.0,1
160,160,-0.43292607823852214,-0.4,1.0,0.0,445.0,825.0,0.0,0,1730.0,1
161,161,-0.634943820282837,-0.6,0.0,1.0,372.0,851.0,0.0,1,1777.0,0
162,162,0.054469597049133234,0.1,1.0,1.0,314.0,768.0,0.0,0,1918.0,0
163,163,-0.22701908831729056,-0.2,1.0,0.0,452.0,524.0,0.0,0,2024.0,1
164,164,0.41177604396390166,0.4,1.0,1.0,356.0,759.0,0.0,0,1885.0,0
165,165,-0.43017049689299813,-0.4,0.0,1.0,337.0,931.0,0.0,1,1732.0,0
166,166,0.8053510736315806,0.8,1.0,1.0,317.0,828.0,1.0,1,-1135.0,1
167,167,-0.4440334540885103,-0.4,1.0,0.0,482.0,991.0,0.0,0,1527.0,1
168,168,0.11475083563751476,0.1,0.0,0.0,422.0,677.0,0.0,1,1901.0,1
169,169,-0.6135965105905689,-0.6,1.0,0.0,412.0,942.0,1.0,1,-1154.0,0
170,170,0.8051245991606554,0.8,1.0,1.0,300.0,534.0,0.0,0,2166.0,0
171,171,-0.7543185541865671,-0.8,0.0,1.0,416.0,902.0,0.0,1,-1278.0,0
172,172,0.8527559003381512,0.9,1.0,1.0,253.0,764.0,0.0,0,1983.0,0
173,173,0.2176105566318799,0.2,1.0,1.0,410.0,555.0,0.0,0,2035.0,0
174,174,-0.810353698329945,-0.8,0.0,1.0,257.0,673.0,0.0,1,2070.0,0
175,175,0.07106595368387258,0.1,1.0,1.0,354.0,554.0,0.0,0,-848.0,0
176,176,0.7182521188041776,0.7,1.0,1.0,261.0,546.0,0.0,0,2193.0,0
177,177,-0.3672217180035151,-0.4,1.0,0.0,269.0,697.0,0.0,0,2034.0,1
178,178,-0.840424040614744,-0.8,1.0,0.0,414.0,527.0,0.0,0,2059.0,1
179,179,0.33439905223626354,0.3,0.0,0.0,435.0,737.0,0.0,1,1828.0,1
180,180,-0.5702042599033319,-0.6,0.0,1.0,461.0,953.0,0.0,1,1586.0,0
181,181,0.007117647812270533,0.0,0.0,0.0,487.0,517.0,0.0,1,1996.0,1
182,182,-0.5842878966323155,-0.6,0.0,1.0,348.0,852.0,0.0,1,1800.0,0
183,183,-0.756672303900139,-0.8,0.0,1.0,493.0,676.0,0.0,1,1831.0,0
184,184,-0.6273859986303405,-0.6,0.0,1.0,438.0,680.0,0.0,1,1882.0,0
185,185,0.571601569621892,0.6,0.0,0.0,399.0,580.0,0.0,1,2021.0,1
186,186,-0.6852689709682419,-0.7,1.0,0.0,259.0,841.0,0.0,0,1900.0,1
187,187,-0.8165142031951386,-0.8,0.0,1.0,469.0,941.0,0.0,1,1590.0,0
188,188,0.8041923247301531,0.8,0.0,0.0,381.0,500.0,0.0,1,2119.0,1
189,189,0.35755195666302353,0.4,1.0,1.0,357.0,846.0,0.0,0,1797.0,0
190,190,-0.1536045556808966,-0.2,1.0,0.0,433.0,764.0,0.0,0,1803.0,1
191,191,-0.011309117410093772,-0.0,0.0,1.0,322.0,815.0,0.0,1,1863.0,0
192,192,0.8848582061157438,0.9,0.0,0.0,344.0,772.0,0.0,1,1884.0,1
193,193,0.5811567936866343,0.6,0.0,0.0,403.0,873.0,0.0,1,1724.0,1
194,194,0.740721897593892,0.7,1.0,1.0,443.0,587.0,0.0,0,1970.0,0
195,195,0.15699775978544672,0.2,1.0,1.0,445.0,747.0,0.0,0,1808.0,0
196,196,0.3747966971924731,0.4,1.0,1.0,456.0,781.0,0.0,0,1763.0,0
197,197,0.12419000242918277,0.1,1.0,1.0,316.0,961.0,0.0,0,1723.0,0
198,198,-0.03826824986253896,-0.0,0.0,1.0,274.0,530.0,0.0,1,-734.0,0
199,199,0.03715678283472601,0.0,0.0,0.0,378.0,594.0,0.0,1,2028.0,1
200,200,-0.8561881328477654,-0.9,0.0,1.0,337.0,631.0,0.0,1,-958.0,0
201,201,0.18165262436094365,0.2,1.0,1.0,461.0,673.0,0.0,0,1866.0,0
202,202,-0.8305813350806057,-0.8,1.0,0.0,485.0,571.0,0.0,0,1944.0,1
203,203,-0.4689451586051015,-0.5,0.0,1.0,351.0,604.0,0.0,1,2045.0,0
204,204,-0.6660853478063701,-0.7,1.0,0.0,368.0,831.0,0.0,0,1801.0,1
205,205,0.3220913749861122,0.3,0.0,0.0,472.0,625.0,0.0,1,1903.0,1
206,206,0.37587490344871666,0.4,1.0,1.0,357.0,955.0,0.0,0,1688.0,0
207,207,0.19747340812025904,0.2,0.0,0.0,334.0,635.0,0.0,1,2031.0,1
208,208,-0.01978551984327115,-0.0,1.0,0.0,273.0,801.0,0.0,0,1926.0,1
209,209,-0.7016344833865757,-0.7,0.0,1.0,393.0,719.0,0.0,1,1888.0,0
210,210,0.8118686186219749,0.8,0.0,0.0,348.0,604.0,0.0,1,2048.0,1
211,211,0.40122128089111253,0.4,0.0,0.0,371.0,502.0,0.0,1,2127.0,1
212,212,-0.42607455347801537,-0.4,0.0,1.0,411.0,553.0,0.0,1,2036.0,0
213,213,-0.24904425698893573,-0.2,0.0,1.0,344.0,565.0,0.0,1,2091.0,0
214,214,0.14358433034357942,0.1,0.0,0.0,320.0,680.0,0.0,1,2000.0,1
215,215,0.1563965403366404,0.2,1.0,1.0,317.0,512.0,0.0,0,2171.0,0
216,216,0.8650924078598786,0.9,0.0,0.0,490.0,734.0,0.0,1,1776.0,1
217,217,0.6471912627433493,0.6,1.0,1.0,336.0,736.0,0.0,0,1928.0,0
218,218,0.4335226414858421,0.4,1.0,1.0,341.0,964.0,0.0,0,1695.0,0
219,219,-0.8964115947883077,-0.9,1.0,0.0,333.0,767.0,0.0,0,1900.0,1
220,220,-0.5661318255266761,-0.6,0.0,1.0,383.0,514.0,0.0,1,2103.0,0
221,221,0.5139817187237193,0.5,1.0,1.0,370.0,859.0,0.0,0,1771.0,0
222,222,0.8158773904025897,0.8,0.0,0.0,335.0,602.0,0.0,1,2063.0,1
223,223,0.06467336567231341,0.1,0.0,0.0,420.0,703.0,0.0,1,1877.0,1
224,224,0.7118172262519581,0.7,1.0,1.0,275.0,876.0,0.0,0,1849.0,0
225,225,0.3211144507059195,0.3,1.0,1.0,397.0,759.0,0.0,0,1844.0,0
226,226,0.3643551182341901,0.4,1.0,1.0,366.0,937.0,1.0,1,-1203.0,1
227,227,0.397500818390227,0.4,0.0,0.0,395.0,869.0,0.0,1,1736.0,1
228,228,-0.7843602754200176,-0.8,0.0,1.0,315.0,870.0,0.0,1,1815.0,0
229,229,-0.6291828831185843,-0.6,0.0,1.0,324.0,524.0,0.0,1,2152.0,0
230,230,-0.3950103411508582,-0.4,0.0,1.0,455.0,840.0,0.0,1,1705.0,0
231,231,-0.07678356490827554,-0.1,0.0,1.0,326.0,512.0,0.0,1,2162.0,0
232,232,0.5710354828069469,0.6,0.0,0.0,392.0,937.0,0.0,1,1671.0,1
233,233,0.25960590526830096,0.3,0.0,0.0,392.0,860.0,0.0,1,1748.0,1
234,234,0.717052327322122,0.7,1.0,1.0,383.0,623.0,0.0,0,1994.0,0
235,235,-0.32150753451090863,-0.3,1.0,0.0,258.0,767.0,0.0,0,1975.0,1
236,236,0.7996686786989026,0.8,1.0,1.0,315.0,770.0,0.0,0,1915.0,0
237,237,-0.18237443624006044,-0.2,0.0,1.0,279.0,980.0,0.0,1,1741.0,0
238,238,0.8062531715606797,0.8,0.0,0.0,350.0,967.0,0.0,1,1683.0,1
239,239,0.7009416784981816,0.7,1.0,1.0,486.0,675.0,0.0,0,1839.0,0
240,240,-0.19745303868374764,-0.2,0.0,1.0,495.0,825.0,0.0,1,1680.0,0
241,241,-0.020640391392079294,-0.0,0.0,1.0,309.0,651.0,0.0,1,2040.0,0
242,242,0.057796694494585577,0.1,1.0,1.0,269.0,729.0,1.0,1,-978.0,1
243,243,-0.4914022665265229,-0.5,1.0,0.0,308.0,610.0,0.0,0,2082.0,1
244,244,-0.4012571314307905,-0.4,1.0,0.0,420.0,666.0,0.0,0,1914.0,1
245,245,-0.029495365543363405,-0.0,0.0,1.0,460.0,767.0,0.0,1,1773.0,0
246,246,-0.5971669829486018,-0.6,1.0,0.0,409.0,596.0,0.0,0,1995.0,1
247,247,0.6937530236077561,0.7,1.0,1.0,259.0,986.0,0.0,0,1755.0,0
248,248,0.18518046991166692,0.2,1.0,1.0,471.0,787.0,0.0,0,1742.0,0
249,249,0.30033232926430264,0.3,1.0,1.0,363.0,971.0,0.0,0,1666.0,0
250,250,0.3466107743063679,0.3,0.0,0.0,295.0,724.0,0.0,1,1981.0,1
251,251,0.5407867787763075,0.5,1.0,1.0,451.0,754.0,0.0,0,1795.0,0
252,252,0.5373462746938297,0.5,1.0,1.0,327.0,626.0,0.0,0,2047.0,0
253,253,0.8690838421873625,0.9,1.0,1.0,485.0,629.0,0.0,0,1886.0,0
254,254,-0.025519747068909027,-0.0,1.0,0.0,358.0,745.0,0.0,0,1897.0,1
255,255,0.11889407528593321,0.1,1.0,1.0,393.0,954.0,0.0,0,1653.0,0
256,256,-0.6731886050982069,-0.7,1.0,0.0,486.0,892.0,0.0,0,1622.0,1
257,257,0.6082261308113824,0.6,0.0,0.0,349.0,704.0,0.0,1,1947.0,1
258,258,0.6976662522531843,0.7,1.0,1.0,254.0,954.0,0.0,0,1792.0,0
259,259,-0.0033434549239482747,-0.0,1.0,0.0,340.0,664.0,0.0,0,1996.0,1
260,260,0.4350591385225794,0.4,0.0,0.0,262.0,548.0,0.0,1,2190.0,1
261,261,-0.45144314372828337,-0.5,1.0,0.0,389.0,977.0,0.0,0,1634.0,1
262,262,0.17468219885307812,0.2,1.0,1.0,273.0,727.0,0.0,0,2000.0,0
263,263,-0.49514854552455856,-0.5,0.0,1.0,358.0,614.0,0.0,1,2028.0,0
264,264,0.025045120721353675,0.0,0.0,0.0,306.0,570.0,0.0,1,2124.0,1
265,265,0.24458489175483955,0.2,1.0,1.0,283.0,723.0,0.0,0,-946.0,0
266,266,0.13954508479033645,0.1,0.0,0.0,285.0,613.0,0.0,1,2102.0,1
267,267,-0.7219067464410234,-0.7,1.0,0.0,396.0,966.0,0.0,0,1638.0,1
268,268,0.7881266518983926,0.8,0.0,0.0,425.0,693.0,0.0,1,1882.0,1
269,269,-0.07753415601712299,-0.1,1.0,0.0,472.0,851.0,0.0,0,1677.0,1
270,270,0.5763659316779602,0.6,1.0,1.0,333.0,891.0,0.0,0,1776.0,0
271,271,-0.25539829970379613,-0.3,0.0,1.0,381.0,651.0,0.0,1,1968.0,0
272,272,-0.516488211185075,-0.5,0.0,1.0,469.0,609.0,0.0,1,1922.0,0
273,273,0.3004473757696108,0.3,1.0,1.0,448.0,891.0,0.0,0,1661.0,0
274,274,-0.2544488081224876,-0.3,0.0,1.0,282.0,716.0,0.0,1,2002.0,0
275,275,0.4754208951066027,0.5,0.0,0.0,366.0,533.0,0.0,1,2101.0,1
276,276,0.595894325487878,0.6,0.0,0.0,387.0,946.0,0.0,1,1667.0,1
277,277,0.8782546798765544,0.9,1.0,1.0,269.0,784.0,0.0,0,1947.0,0
278,278,-0.10059677659290756,-0.1,0.0,1.0,298.0,920.0,0.0,1,1782.0,0
279,279,-0.6386236316812253,-0.6,1.0,0.0,278.0,989.0,0.0,0,1733.0,1
280,280,0.28080239111365535,0.3,1.0,1.0,328.0,642.0,0.0,0,2030.0,0
281,281,0.20955271226365835,0.2,0.0,0.0,339.0,784.0,0.0,1,1877.0,1
282,282,0.01636622547623734,0.0,1.0,1.0,265.0,768.0,0.0,0,1967.0,0
283,283,0.6078245235872363,0.6,0.0,0.0,257.0,640.0,0.0,1,2103.0,1
284,284,0.18663090957245465,0.2,1.0,1.0,438.0,960.0,0.0,0,1602.0,0
285,285,-0.8437618621781058,-0.8,0.0,1.0,315.0,694.0,0.0,1,1991.0,0
286,286,0.37591981411981956,0.4,1.0,1.0,389.0,743.0,0.0,0,1868.0,0
287,287,-0.007093881477811093,-0.0,1.0,0.0,350.0,865.0,0.0,0,1785.0,1
288,288,-0.4503002370132174,-0.5,1.0,0.0,280.0,569.0,0.0,0,2151.0,1
289,289,0.5517931811360152,0.6,0.0,0.0,295.0,608.0,0.0,1,2097.0,1
290,290,-0.29883596292747283,-0.3,0.0,1.0,487.0,676.0,0.0,1,1837.0,0
291,291,0.24674355494497957,0.2,1.0,1.0,291.0,878.0,0.0,0,1831.0,0
292,292,0.021176526345738078,0.0,0.0,0.0,454.0,698.0,0.0,1,1848.0,1
293,293,0.2644353426161997,0.3,0.0,0.0,413.0,703.0,0.0,1,1884.0,1
294,294,-0.3842232653046862,-0.4,0.0,1.0,320.0,564.0,0.0,1,-854.0,0
295,295,0.7088556836526522,0.7,1.0,1.0,290.0,508.0,0.0,0,2202.0,0
296,296,-0.7393422905746044,-0.7,0.0,1.0,335.0,603.0,0.0,1,-888.0,0
297,297,-0.5439133464704793,-0.5,1.0,0.0,374.0,535.0,1.0,1,-869.0,0
298,298,-0.3911089940107898,-0.4,0.0,1.0,343.0,739.0,0.0,1,1918.0,0
299,299,-0.3778145349817238,-0.4,1.0,0.0,471.0,785.0,0.0,0,1744.0,1
300,300,-0.02476345883447062,-0.0,0.0,1.0,263.0,939.0,0.0,1,1798.0,0
301,301,0.38232231497085845,0.4,0.0,0.0,426.0,965.0,1.0,0,-1271.0,0
302,302,0.31818318937003964,0.3,0.0,0.0,396.0,682.0,0.0,1,1922.0,1
303,303,-0.7898468697794635,-0.8,0.0,1.0,325.0,944.0,0.0,1,1731.0,0
304,304,0.6870024390356676,0.7,1.0,1.0,332.0,676.0,0.0,0,-938.0,0
305,305,0.046662262365479434,0.0,0.0,0.0,380.0,765.0,0.0,1,1855.0,1
306,306,0.5820984531794277,0.6,0.0,0.0,439.0,840.0,0.0,1,1721.0,1
307,307,-0.275618909476658,-0.3,1.0,0.0,275.0,732.0,0.0,0,1993.0,1
308,308,0.0534536868247405,0.1,0.0,0.0,330.0,704.0,0.0,1,1966.0,1
309,309,-0.40553663133822876,-0.4,0.0,1.0,359.0,607.0,0.0,1,2034.0,0
310,310,0.8597996624480088,0.9,0.0,0.0,398.0,728.0,0.0,1,1874.0,1
311,311,0.580085188146057,0.6,0.0,0.0,445.0,669.0,0.0,1,1886.0,1
312,312,-0.7854321439915909,-0.8,0.0,1.0,372.0,616.0,0.0,1,2012.0,0
313,313,-0.3925985808707264,-0.4,0.0,1.0,464.0,968.0,0.0,1,1568.0,0
314,314,-0.12885294712583117,-0.1,1.0,0.0,277.0,850.0,0.0,0,1873.0,1
315,315,-0.49388377714741394,-0.5,0.0,1.0,491.0,686.0,0.0,1,1823.0,0
316,316,-0.33901286647259676,-0.3,0.0,1.0,430.0,971.0,0.0,1,1599.0,0
317,317,0.07573122301560276,0.1,0.0,0.0,426.0,754.0,0.0,1,1820.0,1
318,318,-0.8600878229284721,-0.9,1.0,0.0,486.0,702.0,0.0,0,1812.0,1
319,319,0.6000070035797141,0.6,1.0,1.0,391.0,881.0,0.0,0,1728.0,0
320,320,0.13126713308467564,0.1,1.0,1.0,431.0,929.0,0.0,0,1640.0,0
321,321,-0.12440076781356213,-0.1,0.0,1.0,489.0,837.0,0.0,1,1674.0,0
322,322,-0.8854612731776,-0.9,1.0,0.0,461.0,669.0,0.0,0,-1120.0,1
323,323,0.7417632804480264,0.7,1.0,1.0,275.0,740.0,0.0,0,1985.0,0
324,324,0.8761969162353841,0.9,0.0,0.0,366.0,756.0,0.0,1,1878.0,1
325,325,0.013997776407589368,0.0,0.0,0.0,477.0,899.0,1.0,0,-1376.0,0
326,326,0.6742506027843954,0.7,1.0,1.0,422.0,825.0,1.0,1,-1217.0,1
327,327,0.7182853129880048,0.7,0.0,0.0,302.0,806.0,0.0,1,1892.0,1
328,328,0.6781766072274494,0.7,0.0,0.0,439.0,766.0,0.0,1,1795.0,1
329,329,0.38432231312860565,0.4,0.0,0.0,288.0,789.0,0.0,1,1923.0,1
330,330,0.38013600562302774,0.4,1.0,1.0,341.0,919.0,0.0,0,1740.0,0
331,331,-0.3873247187451676,-0.4,0.0,1.0,431.0,971.0,0.0,1,1598.0,0
332,332,-0.3849614993657977,-0.4,1.0,0.0,432.0,731.0,0.0,0,1837.0,1
333,333,0.33622128362359394,0.3,0.0,0.0,375.0,999.0,0.0,1,1626.0,1
334,334,0.07365715164409936,0.1,0.0,0.0,375.0,967.0,0.0,1,1658.0,1
335,335,0.31295053434771003,0.3,1.0,1.0,278.0,560.0,0.0,0,2162.0,0
336,336,-0.40040705673222976,-0.4,0.0,1.0,308.0,717.0,0.0,1,1975.0,0
337,337,0.2859030980588052,0.3,1.0,1.0,261.0,788.0,0.0,0,1951.0,0
338,338,-0.7124799665882912,-0.7,1.0,0.0,444.0,516.0,0.0,0,2040.0,1
339,339,0.6492379779732499,0.6,1.0,1.0,439.0,863.0,0.0,0,1698.0,0
340,340,-0.8434705320219659,-0.8,0.0,1.0,407.0,855.0,0.0,1,-1192.0,0
341,341,-0.6399462855057181,-0.6,0.0,1.0,278.0,696.0,0.0,1,2026.0,0
342,342,0.5586683235667546,0.6,1.0,1.0,391.0,620.0,0.0,0,1989.0,0
343,343,-0.734389169072493,-0.7,0.0,1.0,415.0,820.0,0.0,1,1765.0,0
344,344,-0.5380150608105319,-0.5,0.0,1.0,445.0,566.0,0.0,1,1989.0,0
345,345,-0.1679063433534569,-0.2,1.0,0.0,369.0,600.0,0.0,0,2031.0,1
346,346,0.7528519977121698,0.8,0.0,0.0,304.0,735.0,0.0,1,1961.0,1
347,347,-0.5344310366497458,-0.5,1.0,0.0,497.0,875.0,0.0,0,1628.0,1
348,348,0.3623569639673715,0.4,0.0,0.0,386.0,787.0,0.0,1,1827.0,1
349,349,0.6548681552755654,0.7,0.0,0.0,374.0,729.0,0.0,1,1897.0,1
350,350,0.12194233125825271,0.1,1.0,1.0,308.0,786.0,0.0,0,1906.0,0
351,351,-0.4327075602441561,-0.4,0.0,1.0,408.0,646.0,0.0,1,1946.0,0
352,352,0.7441129064878568,0.7,1.0,1.0,360.0,511.0,0.0,0,2129.0,0
353,353,0.09094391291145987,0.1,0.0,0.0,486.0,609.0,0.0,1,1905.0,1
354,354,0.278875923673637,0.3,0.0,0.0,285.0,977.0,0.0,1,1738.0,1
355,355,-0.20722340238704895,-0.2,0.0,1.0,289.0,740.0,0.0,1,1971.0,0
356,356,-0.8809562829621285,-0.9,0.0,1.0,445.0,992.0,0.0,1,1563.0,0
357,357,-0.5040034125759218,-0.5,0.0,1.0,382.0,576.0,0.0,1,2042.0,0
358,358,-0.2557599916140537,-0.3,1.0,0.0,283.0,668.0,0.0,0,2049.0,1
359,359,0.2983680780243666,0.3,0.0,0.0,331.0,918.0,0.0,1,1751.0,1
360,360,-0.032048105854503905,-0.0,0.0,1.0,294.0,613.0,0.0,1,2093.0,0
361,361,0.6657281883215437,0.7,0.0,0.0,357.0,675.0,0.0,1,1968.0,1
362,362,-0.8932724280794819,-0.9,1.0,0.0,416.0,842.0,0.0,0,1742.0,1
363,363,0.0013978764471351823,0.0,1.0,1.0,262.0,958.0,0.0,0,1780.0,0
364,364,-0.424067784222369,-0.4,1.0,0.0,409.0,867.0,0.0,0,1724.0,1
365,365,-0.05423013687162881,-0.1,1.0,0.0,418.0,978.0,0.0,0,1604.0,1
366,366,0.2991853418462084,0.3,1.0,1.0,453.0,723.0,0.0,0,1824.0,0
367,367,-0.8355109661735589,-0.8,0.0,1.0,452.0,542.0,0.0,1,2006.0,0
368,368,0.03545153191711836,0.0,0.0,0.0,479.0,853.0,0.0,1,1668.0,1
369,369,0.4446805766211851,0.4,0.0,0.0,339.0,919.0,0.0,1,1742.0,1
370,370,-0.24828080789658147,-0.2,0.0,1.0,259.0,567.0,0.0,1,2174.0,0
371,371,0.5951056303086081,0.6,0.0,0.0,262.0,667.0,0.0,1,2071.0,1
372,372,-0.3422752293928204,-0.3,0.0,1.0,412.0,776.0,0.0,1,1812.0,0
373,373,-0.7959050006965929,-0.8,0.0,1.0,436.0,589.0,0.0,1,1975.0,0
374,374,0.10048104419021897,0.1,1.0,1.0,313.0,569.0,0.0,0,2118.0,0
375,375,-0.29757712584398566,-0.3,1.0,0.0,362.0,569.0,0.0,0,2069.0,1
376,376,0.21439921990578392,0.2,1.0,1.0,254.0,725.0,0.0,0,2021.0,0
377,377,0.6486522545172809,0.6,1.0,1.0,411.0,889.0,0.0,0,1700.0,0
378,378,-0.1745980683143853,-0.2,0.0,1.0,430.0,627.0,0.0,1,1943.0,0
379,379,0.7371146035195043,0.7,0.0,0.0,362.0,683.0,0.0,1,-1045.0,1
380,380,-0.5176978149541749,-0.5,1.0,0.0,267.0,571.0,0.0,0,2162.0,1
381,381,0.6939504122907095,0.7,0.0,0.0,406.0,699.0,0.0,1,1895.0,1
382,382,0.5701682838675953,0.6,0.0,0.0,372.0,783.0,0.0,1,1845.0,1
383,383,-0.783570009877144,-0.8,0.0,1.0,260.0,590.0,0.0,1,2150.0,0
384,384,-0.712084484127497,-0.7,1.0,0.0,484.0,856.0,0.0,0,1660.0,1
385,385,0.8486267438393812,0.8,1.0,1.0,319.0,947.0,0.0,0,1734.0,0
386,386,0.22261194460018785,0.2,1.0,1.0,269.0,690.0,0.0,0,2041.0,0
387,387,-0.24549682474730605,-0.2,1.0,0.0,325.0,748.0,0.0,0,1927.0,1
388,388,0.20596569565328526,0.2,0.0,0.0,377.0,916.0,0.0,1,1707.0,1
389,389,0.5725839171295098,0.6,0.0,0.0,362.0,818.0,0.0,1,1820.0,1
390,390,-0.6049196378645987,-0.6,0.0,1.0,252.0,777.0,0.0,1,1971.0,0
391,391,0.7232807071657857,0.7,1.0,1.0,397.0,845.0,0.0,0,1758.0,0
392,392,-0.7769254979641658,-0.8,0.0,1.0,266.0,592.0,0.0,1,2142.0,0
393,393,-0.6916374254934852,-0.7,1.0,0.0,443.0,781.0,0.0,0,1776.0,1
394,394,0.45147156682999456,0.5,1.0,1.0,428.0,811.0,0.0,0,1761.0,0
395,395,-0.06925633057666591,-0.1,1.0,0.0,429.0,821.0,0.0,0,1750.0,1
396,396,0.24189256686159533,0.2,1.0,1.0,411.0,622.0,1.0,1,-1033.0,1
397,397,-0.3030169125924156,-0.3,0.0,1.0,429.0,573.0,0.0,1,1998.0,0
398,398,-0.3208420067726411,-0.3,1.0,0.0,353.0,699.0,0.0,0,1948.0,1
399,399,-0.11026192317850736,-0.1,0.0,1.0,277.0,612.0,0.0,1,2111.0,0
400,400,0.7984323339456799,0.8,0.0,0.0,498.0,775.0,0.0,1,1727.0,1
401,401,-0.42606646634483164,-0.4,0.0,1.0,346.0,977.0,0.0,1,1677.0,0
402,402,0.026703975674284286,0.0,1.0,1.0,406.0,599.0,0.0,0,1995.0,0
403,403,0.15594505304299455,0.2,0.0,0.0,448.0,751.0,0.0,1,1801.0,1
404,404,-0.7490855836967433,-0.7,1.0,0.0,436.0,997.0,0.0,0,1567.0,1
405,405,-0.789687033752462,-0.8,1.0,0.0,465.0,766.0,1.0,1,-1101.0,0
406,406,-0.1529933282049325,-0.2,1.0,0.0,349.0,633.0,0.0,0,2018.0,1
407,407,-0.6699976747106575,-0.7,0.0,1.0,284.0,996.0,0.0,1,1720.0,0
408,408,0.020177509232382596,0.0,1.0,1.0,286.0,797.0,0.0,0,1917.0,0
409,409,-0.46638830551778854,-0.5,1.0,0.0,371.0,855.0,0.0,0,1774.0,1
410,410,-0.16425419698992627,-0.2,0.0,1.0,279.0,713.0,0.0,1,2008.0,0
411,411,-0.786999144509386,-0.8,1.0,0.0,347.0,709.0,0.0,0,1944.0,1
412,412,-0.04547647731715998,-0.0,0.0,1.0,418.0,627.0,0.0,1,1955.0,0
413,413,0.03711688979947281,0.0,0.0,0.0,251.0,720.0,0.0,1,2029.0,1
414,414,0.06031523149579454,0.1,0.0,0.0,472.0,939.0,1.0,0,-1301.0,0
415,415,-0.07344148675081574,-0.1,1.0,0.0,342.0,868.0,0.0,0,1790.0,1
416,416,0.2614961716457792,0.3,0.0,0.0,429.0,880.0,0.0,1,1691.0,1
417,417,0.5053688016394163,0.5,0.0,0.0,291.0,879.0,0.0,1,1830.0,1
418,418,-0.33620133586851764,-0.3,0.0,1.0,404.0,930.0,0.0,1,1666.0,0
419,419,-0.710168685165334,-0.7,1.0,0.0,290.0,985.0,0.0,0,1725.0,1
420,420,0.43493558232410734,0.4,1.0,1.0,305.0,940.0,0.0,0,-1205.0,0
421,421,0.007854136429754188,0.0,1.0,1.0,387.0,629.0,0.0,0,1984.0,0
422,422,-0.14688600624740045,-0.1,1.0,0.0,307.0,634.0,0.0,0,2059.0,1
423,423,-0.017826494695907913,-0.0,0.0,1.0,261.0,839.0,0.0,1,1900.0,0
424,424,-0.7432463817696178,-0.7,0.0,1.0,289.0,580.0,0.0,1,2131.0,0
425,425,0.0925751433316665,0.1,1.0,1.0,497.0,631.0,0.0,0,1872.0,0
426,426,0.6020558437098152,0.6,0.0,0.0,261.0,715.0,0.0,1,2024.0,1
427,427,-0.5066167990943649,-0.5,0.0,1.0,289.0,919.0,0.0,1,1792.0,0
428,428,0.8917192181711687,0.9,1.0,1.0,284.0,520.0,0.0,0,2196.0,0
429,429,0.7624797300593741,0.8,1.0,1.0,378.0,967.0,0.0,0,1655.0,0
430,430,0.14102012502793582,0.1,0.0,0.0,443.0,680.0,0.0,1,1877.0,1
431,431,0.6807761319343683,0.7,1.0,1.0,448.0,927.0,0.0,0,1625.0,0
432,432,0.7424079409146697,0.7,0.0,0.0,491.0,659.0,0.0,1,1850.0,1
433,433,-0.8396182828559836,-0.8,1.0,0.0,339.0,712.0,0.0,0,1949.0,1
434,434,-0.881716321215921,-0.9,1.0,0.0,329.0,931.0,0.0,0,1740.0,1
435,435,-0.6396970873339358,-0.6,1.0,0.0,495.0,711.0,0.0,0,1794.0,1
436,436,0.1870362380950975,0.2,0.0,0.0,404.0,678.0,0.0,1,1918.0,1
437,437,-0.46790540260715163,-0.5,0.0,1.0,277.0,860.0,0.0,1,1863.0,0
438,438,0.008743653170560806,0.0,1.0,1.0,380.0,985.0,0.0,0,1635.0,0
439,439,-0.6513710704645836,-0.7,0.0,1.0,487.0,932.0,0.0,1,1581.0,0
440,440,-0.15849726377562057,-0.2,0.0,1.0,273.0,765.0,0.0,1,1962.0,0
441,441,-0.4987748599329085,-0.5,1.0,0.0,389.0,918.0,0.0,0,1693.0,1
442,442,0.045494265908811005,0.0,0.0,0.0,401.0,591.0,0.0,1,2008.0,1
443,443,-0.41148693904043093,-0.4,1.0,0.0,394.0,830.0,0.0,0,1776.0,1
444,444,-0.8506619428394004,-0.9,1.0,0.0,497.0,541.0,0.0,0,-938.0,1
445,445,-0.5227189619057726,-0.5,0.0,1.0,449.0,712.0,0.0,1,1839.0,0
446,446,-0.6033358138676417,-0.6,0.0,1.0,341.0,780.0,0.0,1,1879.0,0
447,447,0.38083608695852444,0.4,0.0,0.0,465.0,710.0,0.0,1,1825.0,1
448,448,0.034790684376163616,0.0,0.0,0.0,383.0,984.0,1.0,0,-1217.0,0
449,449,-0.8953522755276568,-0.9,1.0,0.0,405.0,826.0,0.0,0,1769.0,1
450,450,0.15933463447721896,0.2,1.0,1.0,358.0,554.0,0.0,0,-712.0,0
451,451,-0.11245929897532403,-0.1,1.0,0.0,434.0,754.0,0.0,0,1812.0,1
452,452,0.7645218150485552,0.8,1.0,1.0,441.0,503.0,0.0,0,2056.0,0
453,453,0.7966880099087875,0.8,0.0,0.0,358.0,582.0,1.0,0,-910.0,0
454,454,-0.5650641108707388,-0.6,1.0,0.0,305.0,716.0,0.0,0,1979.0,1
455,455,0.27627655466134604,0.3,1.0,1.0,327.0,795.0,0.0,0,1878.0,0
456,456,0.8263621846381678,0.8,1.0,1.0,346.0,772.0,1.0,1,-938.0,1
457,457,-0.7740628866621544,-0.8,1.0,0.0,278.0,656.0,0.0,0,2066.0,1
458,458,0.6736674022533476,0.7,1.0,1.0,293.0,742.0,0.0,0,1965.0,0
459,459,0.41588755778513475,0.4,1.0,1.0,327.0,670.0,1.0,1,-827.0,1
460,460,-0.16396829331966079,-0.2,1.0,0.0,310.0,988.0,0.0,0,1702.0,1
461,461,-0.5726160394471171,-0.6,1.0,0.0,469.0,908.0,0.0,0,1623.0,1
462,462,-0.5030091052065924,-0.5,0.0,1.0,252.0,614.0,0.0,1,-796.0,0
463,463,-0.825182112460739,-0.8,1.0,0.0,459.0,762.0,0.0,0,1779.0,1
464,464,-0.6002199550008045,-0.6,1.0,0.0,446.0,929.0,0.0,0,1625.0,1
465,465,-0.2347359912444913,-0.2,0.0,1.0,361.0,635.0,0.0,1,2004.0,0
466,466,0.5886358038779641,0.6,0.0,0.0,268.0,774.0,0.0,1,1958.0,1
467,467,0.7361341939644744,0.7,0.0,0.0,424.0,713.0,0.0,1,1863.0,1
468,468,-0.5770349214245564,-0.6,0.0,1.0,287.0,954.0,0.0,1,1759.0,0
469,469,-0.8439473774110083,-0.8,0.0,1.0,325.0,844.0,0.0,1,1831.0,0
470,470,-0.2942507939317631,-0.3,1.0,0.0,324.0,696.0,0.0,0,-1020.0,1
471,471,-0.10344968074165228,-0.1,0.0,1.0,352.0,563.0,0.0,1,2085.0,0
472,472,-0.8309549694889814,-0.8,0.0,1.0,404.0,603.0,0.0,1,1993.0,0
473,473,-0.17436256004181228,-0.2,1.0,0.0,279.0,534.0,0.0,0,2187.0,1
474,474,0.3533353781720382,0.4,1.0,1.0,258.0,692.0,0.0,0,2050.0,0
475,475,0.2907629188876818,0.3,0.0,0.0,261.0,715.0,0.0,1,2024.0,1
476,476,-0.7582817182188363,-0.8,0.0,1.0,289.0,532.0,0.0,1,2179.0,0
477,477,0.29918164714148265,0.3,0.0,0.0,487.0,858.0,0.0,1,1655.0,1
478,478,-0.7016923508775648,-0.7,1.0,0.0,419.0,671.0,0.0,0,1910.0,1
479,479,-0.5510164457138134,-0.6,1.0,0.0,258.0,747.0,0.0,0,1995.0,1
480,480,-0.044957921033021764,-0.0,0.0,1.0,285.0,735.0,0.0,1,1980.0,0
481,481,-0.0625164404686307,-0.1,1.0,0.0,399.0,710.0,0.0,0,1891.0,1
482,482,-0.5784779138151783,-0.6,1.0,0.0,315.0,735.0,0.0,0,1950.0,1
483,483,0.7769825454926006,0.8,1.0,1.0,251.0,624.0,0.0,0,2125.0,0
484,484,-0.8418471458824952,-0.8,1.0,0.0,385.0,738.0,0.0,0,1877.0,1
485,485,-0.5516984943056138,-0.6,1.0,0.0,461.0,937.0,0.0,0,1602.0,1
486,486,0.040928059720908516,0.0,0.0,0.0,443.0,671.0,0.0,1,1886.0,1
487,487,-0.6478255363057666,-0.6,0.0,1.0,438.0,522.0,0.0,1,2040.0,0
488,488,-0.5380021231871744,-0.5,1.0,0.0,485.0,930.0,0.0,0,1585.0,1
489,489,-0.899980887435197,-0.9,0.0,1.0,457.0,952.0,0.0,1,1591.0,0
490,490,-0.6394804658918545,-0.6,1.0,0.0,450.0,916.0,0.0,0,1634.0,1
491,491,0.8693339648481809,0.9,0.0,0.0,489.0,866.0,0.0,1,1645.0,1
492,492,-0.684948886185407,-0.7,0.0,1.0,412.0,932.0,0.0,1,1656.0,0
493,493,0.7161018009936947,0.7,1.0,1.0,426.0,741.0,1.0,1,-1147.0,1
494,494,0.8683137925146215,0.9,1.0,1.0,498.0,544.0,0.0,0,1958.0,0
495,495,0.8780611811656261,0.9,1.0,1.0,316.0,549.0,0.0,0,2135.0,0
496,496,-0.778370151467356,-0.8,0.0,1.0,315.0,773.0,0.0,1,1912.0,0
497,497,0.8414825502857955,0.8,0.0,0.0,418.0,839.0,0.0,1,1743.0,1
498,498,0.12167318679132422,0.1,1.0,1.0,493.0,502.0,0.0,0,2005.0,0
499,499,0.4371785584352269,0.4,0.0,0.0,422.0,558.0,0.0,1,2020.0,1
500,500,0.25340371973646836,0.3,1.0,1.0,487.0,926.0,0.0,0,1587.0,0
501,501,-0.7582388605353078,-0.8,0.0,1.0,348.0,906.0,0.0,1,1746.0,0
502,502,-0.3908295233103771,-0.4,0.0,1.0,355.0,859.0,0.0,1,1786.0,0
503,503,0.840080620473063,0.8,0.0,0.0,416.0,771.0,0.0,1,1813.0,1
504,504,-0.20348123366865034,-0.2,1.0,0.0,327.0,585.0,0.0,0,2088.0,1
505,505,0.22699795759989694,0.2,0.0,0.0,470.0,803.0,0.0,1,1727.0,1
506,506,-0.6510156209856205,-0.7,1.0,0.0,498.0,644.0,0.0,0,1858.0,1
507,507,0.8851316228974425,0.9,0.0,0.0,449.0,608.0,0.0,1,1943.0,1
508,508,0.10213009803627549,0.1,0.0,0.0,361.0,656.0,0.0,1,1983.0,1
509,509,-0.8106504828544191,-0.8,0.0,1.0,259.0,603.0,0.0,1,2138.0,0
510,510,-0.6070740207121924,-0.6,0.0,1.0,349.0,629.0,0.0,1,-928.0,0
511,511,0.7702352111580612,0.8,0.0,0.0,435.0,629.0,0.0,1,-1064.0,1
512,512,-0.8340064249049504,-0.8,0.0,1.0,420.0,767.0,0.0,1,1813.0,0
513,513,0.01043549596854143,0.0,1.0,1.0,460.0,695.0,0.0,0,1845.0,0
514,514,0.08684738723589136,0.1,0.0,0.0,323.0,610.0,0.0,1,2067.0,1
515,515,-0.12850120074679205,-0.1,1.0,0.0,355.0,990.0,0.0,0,1655.0,1
516,516,-0.27598184310897267,-0.3,0.0,1.0,454.0,539.0,0.0,1,2007.0,0
517,517,0.8529770966545086,0.9,1.0,1.0,312.0,887.0,0.0,0,1801.0,0
518,518,-0.5440209233679565,-0.5,0.0,1.0,347.0,689.0,0.0,1,1964.0,0
519,519,-0.44040724207239185,-0.4,1.0,0.0,368.0,664.0,0.0,0,1968.0,1
520,520,-0.18506718434702785,-0.2,0.0,1.0,279.0,552.0,1.0,0,-771.0,1
521,521,0.387115365761166,0.4,0.0,0.0,319.0,771.0,0.0,1,1910.0,1
522,522,-0.3024310468426836,-0.3,1.0,0.0,266.0,571.0,0.0,0,2163.0,1
523,523,-0.8782520848600972,-0.9,0.0,1.0,414.0,801.0,0.0,1,1785.0,0
524,524,0.4643696322083396,0.5,1.0,1.0,486.0,652.0,1.0,1,-1088.0,1
525,525,0.6800168711845528,0.7,0.0,0.0,369.0,941.0,0.0,1,1690.0,1
526,526,0.8359874896861731,0.8,0.0,0.0,314.0,858.0,0.0,1,1828.0,1
527,527,-0.4585298123302864,-0.5,1.0,0.0,317.0,526.0,0.0,0,2157.0,1
528,528,-0.4145616389098043,-0.4,1.0,0.0,385.0,824.0,0.0,0,-1159.0,1
529,529,-0.13231401550820399,-0.1,1.0,0.0,261.0,579.0,0.0,0,2160.0,1
530,530,-0.789641903457031,-0.8,0.0,1.0,387.0,566.0,0.0,1,2047.0,0
531,531,-0.22045546380701864,-0.2,0.0,1.0,369.0,597.0,0.0,1,2034.0,0
532,532,0.647675029992049,0.6,0.0,0.0,269.0,686.0,0.0,1,2045.0,1
533,533,0.15414850469185593,0.2,0.0,0.0,311.0,536.0,0.0,1,2153.0,1
534,534,0.6149184313408526,0.6,0.0,0.0,462.0,651.0,0.0,1,1887.0,1
535,535,-0.31187343776735454,-0.3,0.0,1.0,293.0,754.0,0.0,1,1953.0,0
536,536,0.05115651554435818,0.1,0.0,0.0,472.0,570.0,0.0,1,1958.0,1
537,537,0.5733038220608596,0.6,1.0,1.0,442.0,694.0,1.0,1,-1046.0,1
538,538,0.14770091768298255,0.1,0.0,0.0,453.0,938.0,0.0,1,1609.0,1
539,539,-0.5236509099779116,-0.5,0.0,1.0,471.0,878.0,0.0,1,1651.0,0
540,540,-0.6157003268164101,-0.6,0.0,1.0,383.0,795.0,1.0,0,-1098.0,1
541,541,-0.38395229709819345,-0.4,1.0,0.0,346.0,645.0,0.0,0,2009.0,1
542,542,0.30840980222317216,0.3,1.0,1.0,367.0,520.0,0.0,0,2113.0,0
543,543,0.8977785173285068,0.9,0.0,0.0,465.0,552.0,0.0,1,1983.0,1
544,544,-0.8883862161725138,-0.9,1.0,0.0,382.0,936.0,0.0,0,1682.0,1
545,545,0.7538618233047799,0.8,1.0,1.0,455.0,531.0,0.0,0,2014.0,0
546,546,-0.11102006036546053,-0.1,0.0,1.0,455.0,564.0,0.0,1,1981.0,0
547,547,0.20017272361790772,0.2,1.0,1.0,458.0,952.0,0.0,0,1590.0,0
548,548,-0.3502360067191601,-0.4,1.0,0.0,312.0,760.0,0.0,0,1928.0,1
549,549,0.0039298190610679296,0.0,0.0,0.0,457.0,719.0,0.0,1,1824.0,1
550,550,0.15908667779258823,0.2,1.0,1.0,442.0,702.0,0.0,0,1856.0,0
551,551,-0.16015992078898733,-0.2,0.0,1.0,373.0,625.0,0.0,1,2002.0,0
552,552,-0.8964015000576308,-0.9,1.0,0.0,329.0,527.0,0.0,0,-846.0,1
553,553,-0.3123177879312605,-0.3,1.0,0.0,361.0,568.0,0.0,0,2071.0,1
554,554,-0.3147510525320327,-0.3,0.0,1.0,419.0,903.0,0.0,1,1678.0,0
555,555,-0.4836822300178422,-0.5,0.0,1.0,398.0,811.0,0.0,1,1791.0,0
556,556,0.028100536560195066,0.0,1.0,1.0,339.0,996.0,0.0,0,1665.0,0
557,557,0.24443525839343627,0.2,0.0,0.0,496.0,764.0,0.0,1,1740.0,1
558,558,-0.16889031816210098,-0.2,1.0,0.0,464.0,619.0,0.0,0,1917.0,1
559,559,0.6081111667742235,0.6,1.0,1.0,422.0,760.0,0.0,0,1818.0,0
560,560,-0.017528204942107384,-0.0,0.0,1.0,301.0,750.0,0.0,1,1949.0,0
561,561,0.5502395449667848,0.6,0.0,0.0,327.0,684.0,0.0,1,1989.0,1
562,562,-0.668704596082945,-0.7,1.0,0.0,357.0,526.0,0.0,0,2117.0,1
563,563,-0.2959281040226651,-0.3,0.0,1.0,372.0,749.0,0.0,1,1879.0,0
564,564,0.27460672957888554,0.3,0.0,0.0,302.0,521.0,0.0,1,2177.0,1
565,565,0.8046322817498995,0.8,1.0,1.0,472.0,543.0,0.0,0,1985.0,0
566,566,-0.2559684083608552,-0.3,0.0,1.0,442.0,601.0,0.0,1,1957.0,0
567,567,0.037134199940445645,0.0,0.0,0.0,260.0,882.0,0.0,1,1858.0,1
568,568,-0.7987220367899299,-0.8,0.0,1.0,337.0,643.0,0.0,1,2020.0,0
569,569,-0.27689054122787116,-0.3,0.0,1.0,428.0,879.0,0.0,1,1693.0,0
570,570,-0.6520263338942268,-0.7,0.0,1.0,279.0,992.0,0.0,1,1729.0,0
571,571,-0.005049505123988385,-0.0,0.0,1.0,379.0,657.0,0.0,1,1964.0,0
572,572,-0.7182971963580459,-0.7,0.0,1.0,480.0,657.0,0.0,1,1863.0,0
573,573,0.28078246441031574,0.3,0.0,0.0,339.0,574.0,0.0,1,2087.0,1
574,574,-0.14056441972140366,-0.1,0.0,1.0,476.0,690.0,0.0,1,1834.0,0
575,575,-0.8119546741639144,-0.8,1.0,0.0,315.0,975.0,0.0,0,1710.0,1
576,576,0.6896552373248707,0.7,1.0,1.0,418.0,725.0,0.0,0,1857.0,0
577,577,0.5132131822888409,0.5,1.0,1.0,462.0,884.0,0.0,0,1654.0,0
578,578,-0.3114849015304647,-0.3,1.0,0.0,373.0,804.0,0.0,0,1823.0,1
579,579,0.3335568400548904,0.3,1.0,1.0,306.0,580.0,0.0,0,2114.0,0
580,580,-0.26431244010548605,-0.3,0.0,1.0,484.0,585.0,0.0,1,1931.0,0
581,581,0.05777914024865893,0.1,1.0,1.0,379.0,709.0,0.0,0,1912.0,0
582,582,-0.6460253711228654,-0.6,1.0,0.0,250.0,544.0,0.0,0,2206.0,1
583,583,0.7717342612574699,0.8,0.0,0.0,427.0,911.0,0.0,1,1662.0,1
584,584,0.8366973353946335,0.8,0.0,0.0,281.0,513.0,0.0,1,2206.0,1
585,585,-0.3160160049054658,-0.3,0.0,1.0,286.0,905.0,0.0,1,1809.0,0
586,586,-0.22337259825923605,-0.2,1.0,0.0,415.0,960.0,0.0,0,1625.0,1
587,587,-0.8180005162994534,-0.8,1.0,0.0,391.0,926.0,0.0,0,1683.0,1
588,588,-0.3296969129615316,-0.3,1.0,0.0,321.0,615.0,0.0,0,2064.0,1
589,589,0.8478823246159898,0.8,0.0,0.0,382.0,885.0,0.0,1,1733.0,1
590,590,-0.8179969203351167,-0.8,1.0,0.0,325.0,717.0,0.0,0,1958.0,1
591,591,0.07998446933460357,0.1,1.0,1.0,300.0,800.0,0.0,0,1900.0,0
592,592,0.7252471996167972,0.7,0.0,0.0,321.0,548.0,0.0,1,2131.0,1
593,593,0.6911086998699817,0.7,1.0,1.0,333.0,598.0,0.0,0,2069.0,0
594,594,0.7678989192330395,0.8,0.0,0.0,277.0,959.0,0.0,1,1764.0,1
595,595,0.4300324785228108,0.4,1.0,1.0,471.0,807.0,0.0,0,1722.0,0
596,596,-0.1664099575141862,-0.2,1.0,0.0,477.0,873.0,1.0,1,-1280.0,0
597,597,0.7390059615977768,0.7,1.0,1.0,481.0,555.0,0.0,0,1964.0,0
598,598,-0.2466888308196309,-0.2,1.0,0.0,356.0,662.0,0.0,0,1982.0,1
599,599,-0.02157387212644213,-0.0,1.0,0.0,255.0,941.0,0.0,0,1804.0,1
600,600,-0.05748980302939788,-0.1,1.0,0.0,432.0,640.0,0.0,0,1928.0,1
601,601,0.02747795903931749,0.0,1.0,1.0,386.0,751.0,0.0,0,1863.0,0
602,602,0.8734820382653042,0.9,0.0,0.0,432.0,972.0,0.0,1,1596.0,1
603,603,0.6325032472261457,0.6,1.0,1.0,343.0,537.0,0.0,0,2120.0,0
604,604,-0.5086437407390316,-0.5,1.0,0.0,392.0,966.0,0.0,0,1642.0,1
605,605,0.6453113471676738,0.6,1.0,1.0,353.0,525.0,0.0,0,2122.0,0
606,606,-0.7096647172143764,-0.7,0.0,1.0,354.0,608.0,0.0,1,2038.0,0
607,607,0.42586377236246065,0.4,1.0,1.0,498.0,991.0,0.0,0,1511.0,0
608,608,-0.8604715695203078,-0.9,0.0,1.0,358.0,950.0,0.0,1,1692.0,0
609,609,0.08264160084553251,0.1,0.0,0.0,471.0,606.0,0.0,1,1923.0,1
610,610,0.8187391048215981,0.8,1.0,1.0,492.0,736.0,0.0,0,1772.0,0
611,611,-0.5381714738608496,-0.5,1.0,0.0,287.0,719.0,0.0,0,1994.0,1
612,612,0.044139582321694903,0.0,0.0,0.0,325.0,631.0,0.0,1,2044.0,1
613,613,0.5050425970844569,0.5,0.0,0.0,495.0,917.0,0.0,1,1588.0,1
614,614,0.4455339271810631,0.4,1.0,1.0,330.0,983.0,0.0,0,1687.0,0
615,615,-0.7546480958985983,-0.8,0.0,1.0,399.0,954.0,1.0,0,-1353.0,1
616,616,0.6361574837141234,0.6,1.0,1.0,290.0,684.0,0.0,0,2026.0,0
617,617,-0.43217685971658365,-0.4,0.0,1.0,271.0,537.0,0.0,1,2192.0,0
618,618,-0.40560110997420584,-0.4,0.0,1.0,381.0,978.0,0.0,1,1641.0,0
619,619,0.6606444933652097,0.7,0.0,0.0,354.0,564.0,0.0,1,2082.0,1
620,620,-0.16945407501528276,-0.2,1.0,0.0,355.0,680.0,0.0,0,1965.0,1
621,621,0.07598170974448992,0.1,0.0,0.0,411.0,780.0,0.0,1,1809.0,1
622,622,-0.5773361048858453,-0.6,0.0,1.0,370.0,876.0,0.0,1,1754.0,0
623,623,0.8655753259843987,0.9,1.0,1.0,498.0,784.0,0.0,0,1718.0,0
624,624,-0.7131480757092957,-0.7,1.0,0.0,330.0,819.0,0.0,0,1851.0,1
625,625,0.2819022205323686,0.3,0.0,0.0,376.0,932.0,0.0,1,1692.0,1
626,626,0.2992843224099776,0.3,1.0,1.0,334.0,690.0,0.0,0,1976.0,0
627,627,0.45102631778375624,0.5,0.0,0.0,452.0,726.0,0.0,1,1822.0,1
628,628,-0.4028831478600127,-0.4,1.0,0.0,448.0,548.0,0.0,0,2004.0,1
629,629,0.6193827381903937,0.6,0.0,0.0,357.0,607.0,0.0,1,2036.0,1
630,630,0.5155612224390577,0.5,1.0,1.0,436.0,949.0,0.0,0,1615.0,0
631,631,0.44077537711244397,0.4,1.0,1.0,417.0,690.0,0.0,0,1893.0,0
632,632,-0.05521167691805762,-0.1,1.0,0.0,391.0,862.0,0.0,0,1747.0,1
633,633,0.8545151936035255,0.9,0.0,0.0,475.0,779.0,1.0,0,-1134.0,0
634,634,0.7268082110359383,0.7,1.0,1.0,447.0,675.0,0.0,0,1878.0,0
635,635,-0.5307663515621671,-0.5,1.0,0.0,292.0,519.0,0.0,0,2189.0,1
636,636,0.5868250843135693,0.6,0.0,0.0,447.0,568.0,0.0,1,1985.0,1
637,637,-0.41659996283676276,-0.4,0.0,1.0,404.0,650.0,0.0,1,1946.0,0
638,638,-0.8250568231324529,-0.8,1.0,0.0,272.0,583.0,0.0,0,2145.0,1
639,639,0.8742226108688379,0.9,0.0,0.0,470.0,549.0,1.0,0,-999.0,0
640,640,0.6908752858903652,0.7,0.0,0.0,278.0,505.0,0.0,1,-303.0,1
641,641,-0.01656382883662255,-0.0,1.0,0.0,392.0,806.0,0.0,0,1802.0,1
642,642,-0.8335426122508185,-0.8,1.0,0.0,352.0,562.0,0.0,0,2086.0,1
643,643,0.7389232284645649,0.7,0.0,0.0,291.0,621.0,0.0,1,2088.0,1
644,644,0.31674529871637425,0.3,1.0,1.0,493.0,904.0,0.0,0,1603.0,0
645,645,0.3988834831867317,0.4,0.0,0.0,414.0,844.0,0.0,1,1742.0,1
646,646,-0.7546364204706013,-0.8,0.0,1.0,363.0,774.0,0.0,1,1863.0,0
647,647,0.605940173665349,0.6,0.0,0.0,268.0,588.0,0.0,1,2144.0,1
648,648,0.18767300889154803,0.2,1.0,1.0,480.0,519.0,0.0,0,2001.0,0
649,649,0.5340690435670868,0.5,0.0,0.0,306.0,822.0,0.0,1,1872.0,1
650,650,-0.6611304072720394,-0.7,0.0,1.0,318.0,738.0,0.0,1,-1026.0,0
651,651,-0.6327452122109536,-0.6,1.0,0.0,413.0,766.0,0.0,0,1821.0,1
652,652,-0.08000683722626911,-0.1,0.0,1.0,327.0,885.0,0.0,1,1788.0,0
653,653,0.21056520327234163,0.2,1.0,1.0,343.0,904.0,0.0,0,1753.0,0
654,654,-0.5000266603902497,-0.5,1.0,0.0,347.0,711.0,0.0,0,1942.0,1
655,655,0.7220068702610108,0.7,1.0,1.0,252.0,827.0,0.0,0,1921.0,0
656,656,-0.2670110893784635,-0.3,1.0,0.0,470.0,564.0,0.0,0,1966.0,1
657,657,-0.33177162144555206,-0.3,0.0,1.0,311.0,944.0,1.0,0,-1215.0,1
658,658,-0.6890958020119039,-0.7,0.0,1.0,390.0,600.0,1.0,0,-990.0,1
659,659,0.7313276781108448,0.7,1.0,1.0,347.0,858.0,0.0,0,1795.0,0
660,660,-0.8502920717832249,-0.9,0.0,1.0,355.0,788.0,0.0,1,1857.0,0
661,661,0.8104135352949223,0.8,1.0,1.0,486.0,710.0,0.0,0,1804.0,0
662,662,-0.24123725197164936,-0.2,1.0,0.0,386.0,592.0,0.0,0,2022.0,1
663,663,0.7005627167830374,0.7,1.0,1.0,303.0,844.0,0.0,0,1853.0,0
664,664,0.6661586070511097,0.7,0.0,0.0,292.0,853.0,0.0,1,1855.0,1
665,665,0.6288853061725107,0.6,0.0,0.0,402.0,729.0,0.0,1,1869.0,1
666,666,0.5246461046753325,0.5,0.0,0.0,266.0,520.0,0.0,1,2214.0,1
667,667,-0.7744104985465816,-0.8,1.0,0.0,255.0,672.0,0.0,0,2073.0,1
668,668,-0.8898830376273943,-0.9,1.0,0.0,484.0,997.0,0.0,0,1519.0,1
669,669,0.5266139903327195,0.5,1.0,1.0,323.0,840.0,0.0,0,1837.0,0
670,670,-0.28903386740605497,-0.3,1.0,0.0,283.0,756.0,0.0,0,1961.0,1
671,671,-0.4623207501291668,-0.5,0.0,1.0,264.0,829.0,0.0,1,1907.0,0
672,672,0.5926859911918979,0.6,0.0,0.0,486.0,996.0,0.0,1,1518.0,1
673,673,0.7446988175324983,0.7,1.0,1.0,415.0,532.0,0.0,0,-927.0,0
674,674,-0.44054552713560097,-0.4,1.0,0.0,366.0,859.0,0.0,0,1775.0,1
675,675,0.8785238687713074,0.9,0.0,0.0,458.0,771.0,0.0,1,1771.0,1
676,676,0.14602318506820777,0.1,1.0,1.0,436.0,537.0,0.0,0,2027.0,0
677,677,0.3860247984203372,0.4,1.0,1.0,346.0,579.0,0.0,0,2075.0,0
678,678,-0.04858036388227904,-0.0,0.0,1.0,396.0,713.0,0.0,1,1891.0,0
679,679,0.13589064305896048,0.1,1.0,1.0,454.0,982.0,0.0,0,1564.0,0
680,680,0.4726521066024195,0.5,0.0,0.0,265.0,845.0,0.0,1,1890.0,1
681,681,0.47507668333135566,0.5,0.0,0.0,286.0,945.0,0.0,1,1769.0,1
682,682,0.30708279588745524,0.3,1.0,1.0,412.0,883.0,0.0,0,-1165.0,0
683,683,-0.2911138662746915,-0.3,0.0,1.0,378.0,770.0,0.0,1,1852.0,0
684,684,-0.585449462978692,-0.6,0.0,1.0,417.0,877.0,0.0,1,1706.0,0
685,685,-0.5416873025594375,-0.5,1.0,0.0,371.0,633.0,0.0,0,1996.0,1
686,686,-0.36022920324351826,-0.4,1.0,0.0,329.0,765.0,0.0,0,-1024.0,1
687,687,0.07022832891482078,0.1,0.0,0.0,322.0,702.0,0.0,1,1976.0,1
688,688,-0.14560970081685765,-0.1,0.0,1.0,262.0,520.0,0.0,1,2218.0,0
689,689,-0.6976787929724214,-0.7,1.0,0.0,327.0,528.0,0.0,0,2145.0,1
690,690,-0.03208355258078388,-0.0,0.0,1.0,277.0,923.0,0.0,1,-1180.0,0
691,691,-0.46113257745946884,-0.5,1.0,0.0,316.0,542.0,0.0,0,2142.0,1
692,692,0.6956762865703,0.7,1.0,1.0,293.0,973.0,0.0,0,1734.0,0
693,693,0.10381613960775427,0.1,1.0,1.0,264.0,807.0,0.0,0,1929.0,0
694,694,0.6874604412986504,0.7,0.0,0.0,448.0,844.0,0.0,1,1708.0,1
695,695,-0.29074143882398773,-0.3,1.0,0.0,358.0,504.0,0.0,0,2138.0,1
696,696,-0.47646533651757833,-0.5,0.0,1.0,257.0,676.0,0.0,1,2067.0,0
697,697,-0.4695072462387451,-0.5,0.0,1.0,295.0,922.0,0.0,1,-1217.0,0
698,698,-0.24694444474354105,-0.2,0.0,1.0,460.0,510.0,0.0,1,2030.0,0
699,699,-0.6706946232796697,-0.7,1.0,0.0,412.0,500.0,0.0,0,2088.0,1
700,700,0.883949474438808,0.9,1.0,1.0,313.0,752.0,0.0,0,1935.0,0
701,701,-0.3564001361243795,-0.4,0.0,1.0,401.0,852.0,0.0,1,1747.0,0
702,702,-0.39846185935373646,-0.4,0.0,1.0,297.0,857.0,0.0,1,1846.0,0
703,703,0.022315845744294904,0.0,0.0,0.0,300.0,677.0,0.0,1,-947.0,1
704,704,-0.3035930278755752,-0.3,1.0,0.0,489.0,772.0,0.0,0,1739.0,1
705,705,-0.0313370065523223,-0.0,1.0,0.0,279.0,870.0,0.0,0,-1109.0,1
706,706,-0.6838825201488806,-0.7,1.0,0.0,456.0,875.0,0.0,0,1669.0,1
707,707,0.7745096479153885,0.8,1.0,1.0,452.0,761.0,0.0,0,1787.0,0
708,708,-0.3269255977463431,-0.3,1.0,0.0,430.0,538.0,0.0,0,2032.0,1
709,709,0.5062030323489483,0.5,0.0,0.0,407.0,680.0,0.0,1,1913.0,1
710,710,-0.49828747115905375,-0.5,1.0,0.0,279.0,768.0,0.0,0,1953.0,1
711,711,-0.21026085438907205,-0.2,0.0,1.0,485.0,661.0,0.0,1,1854.0,0
712,712,0.19575438056955974,0.2,0.0,0.0,273.0,989.0,0.0,1,1738.0,1
713,713,0.012934801845407073,0.0,0.0,0.0,462.0,853.0,0.0,1,1685.0,1
714,714,0.15444565971339597,0.2,0.0,0.0,388.0,901.0,0.0,1,1711.0,1
715,715,-0.27053567980674664,-0.3,0.0,1.0,276.0,971.0,0.0,1,1753.0,0
716,716,0.5273933195657844,0.5,0.0,0.0,305.0,745.0,0.0,1,1950.0,1
717,717,-0.585093179382034,-0.6,0.0,1.0,358.0,892.0,0.0,1,1750.0,0
718,718,-0.8186926938180997,-0.8,0.0,1.0,416.0,656.0,0.0,1,1928.0,0
719,719,-0.48251182424693606,-0.5,0.0,1.0,463.0,555.0,0.0,1,1982.0,0
720,720,0.024322822417229162,0.0,1.0,1.0,473.0,930.0,0.0,0,1597.0,0
721,721,0.8718618586945251,0.9,0.0,0.0,421.0,945.0,0.0,1,1634.0,1
722,722,0.6196208292691069,0.6,1.0,1.0,260.0,754.0,0.0,0,1986.0,0
723,723,0.2578876009335641,0.3,0.0,0.0,271.0,691.0,0.0,1,2038.0,1
724,724,0.4784781827175141,0.5,1.0,1.0,416.0,940.0,0.0,0,1644.0,0
725,725,-0.8976343690581557,-0.9,0.0,1.0,354.0,909.0,0.0,1,1737.0,0
726,726,-0.6562322877311293,-0.7,0.0,1.0,346.0,848.0,0.0,1,1806.0,0
727,727,-0.02156605274976553,-0.0,0.0,1.0,361.0,996.0,0.0,1,1643.0,0
728,728,0.6353988718955762,0.6,1.0,1.0,396.0,847.0,0.0,0,1757.0,0
729,729,0.13355314468089785,0.1,1.0,1.0,347.0,909.0,0.0,0,1744.0,0
730,730,-0.8266555297505491,-0.8,0.0,1.0,440.0,976.0,0.0,1,1584.0,0
731,731,-0.043667238656673546,-0.0,1.0,0.0,481.0,616.0,0.0,0,1903.0,1
732,732,0.8153292045437014,0.8,0.0,0.0,261.0,616.0,0.0,1,2123.0,1
733,733,-0.5397993591062493,-0.5,1.0,0.0,440.0,905.0,1.0,1,-1335.0,0
734,734,0.33411519091565,0.3,0.0,0.0,288.0,731.0,0.0,1,1981.0,1
735,735,-0.5058396240368531,-0.5,1.0,0.0,363.0,712.0,0.0,0,1925.0,1
736,736,-0.7056842223100993,-0.7,0.0,1.0,381.0,758.0,0.0,1,1861.0,0
737,737,0.7659368570190638,0.8,0.0,0.0,415.0,662.0,0.0,1,1923.0,1
738,738,0.5209717698351702,0.5,1.0,1.0,393.0,923.0,0.0,0,1684.0,0
739,739,-0.6405791198505858,-0.6,1.0,0.0,475.0,761.0,0.0,0,1764.0,1
740,740,-0.38965200130712097,-0.4,1.0,0.0,335.0,733.0,0.0,0,1932.0,1
741,741,0.7699078772879352,0.8,0.0,0.0,287.0,593.0,0.0,1,2120.0,1
742,742,-0.80065190742221,-0.8,0.0,1.0,351.0,780.0,0.0,1,1869.0,0
743,743,-0.771846095345918,-0.8,1.0,0.0,358.0,937.0,0.0,0,1705.0,1
744,744,0.5805598879450645,0.6,0.0,0.0,401.0,522.0,0.0,1,2077.0,1
745,745,0.3546684838985251,0.4,0.0,0.0,497.0,521.0,0.0,1,1982.0,1
746,746,0.08048045724374453,0.1,0.0,0.0,317.0,513.0,0.0,1,2170.0,1
747,747,-0.017744494676102174,-0.0,0.0,1.0,464.0,536.0,0.0,1,2000.0,0
748,748,-0.4069859171804973,-0.4,1.0,0.0,301.0,883.0,0.0,0,1816.0,1
749,749,-0.28003498587944453,-0.3,1.0,0.0,258.0,911.0,0.0,0,1831.0,1
750,750,-0.7507236878041248,-0.8,0.0,1.0,468.0,921.0,0.0,1,1611.0,0
751,751,0.23192257430772256,0.2,1.0,1.0,366.0,925.0,0.0,0,1709.0,0
752,752,0.5481488713860697,0.5,1.0,1.0,343.0,725.0,0.0,0,1932.0,0
753,753,0.37374191274668267,0.4,1.0,1.0,495.0,930.0,0.0,0,1575.0,0
754,754,-0.5120107203086197,-0.5,0.0,1.0,306.0,645.0,0.0,1,2049.0,0
755,755,-0.38658673579057967,-0.4,0.0,1.0,353.0,776.0,0.0,1,1871.0,0
756,756,0.6588581479764714,0.7,1.0,1.0,398.0,739.0,0.0,0,1863.0,0
757,757,-0.6938029781089977,-0.7,1.0,0.0,279.0,946.0,0.0,0,1775.0,1
758,758,0.36383512994747835,0.4,0.0,0.0,372.0,747.0,0.0,1,1881.0,1
759,759,0.15183087272815332,0.2,0.0,0.0,452.0,864.0,0.0,1,1684.0,1
760,760,0.6606309261000046,0.7,0.0,0.0,297.0,624.0,0.0,1,2079.0,1
761,761,-0.29092194358578494,-0.3,1.0,0.0,349.0,500.0,0.0,0,2151.0,1
762,762,0.7535433755070718,0.8,0.0,0.0,413.0,551.0,0.0,1,2036.0,1
763,763,0.5412545426796435,0.5,0.0,0.0,307.0,569.0,0.0,1,2124.0,1
764,764,0.29692459191448284,0.3,1.0,1.0,480.0,624.0,0.0,0,1896.0,0
765,765,-0.15516001093185428,-0.2,0.0,1.0,460.0,953.0,0.0,1,1587.0,0
766,766,0.4384339107761842,0.4,0.0,0.0,341.0,952.0,0.0,1,1707.0,1
767,767,0.3706766819013928,0.4,0.0,0.0,250.0,762.0,0.0,1,1988.0,1
768,768,-0.601872536632666,-0.6,1.0,0.0,349.0,869.0,0.0,0,1782.0,1
769,769,0.8709154201741162,0.9,0.0,0.0,264.0,660.0,0.0,1,2076.0,1
770,770,-0.8568418878803276,-0.9,1.0,0.0,446.0,579.0,0.0,0,1975.0,1
771,771,-0.2798826421694488,-0.3,0.0,1.0,342.0,561.0,0.0,1,2097.0,0
772,772,-0.31129195797274234,-0.3,0.0,1.0,456.0,590.0,0.0,1,1954.0,0
773,773,-0.36378977883544306,-0.4,0.0,1.0,256.0,812.0,0.0,1,1932.0,0
774,774,0.33659577994316303,0.3,1.0,1.0,477.0,757.0,0.0,0,1766.0,0
775,775,-0.8924066629032236,-0.9,0.0,1.0,250.0,722.0,0.0,1,2028.0,0
776,776,0.7037273229076123,0.7,1.0,1.0,471.0,529.0,1.0,1,-930.0,1
777,777,0.22002303835945491,0.2,0.0,0.0,315.0,867.0,0.0,1,1818.0,1
778,778,0.48911146182684717,0.5,1.0,1.0,337.0,886.0,0.0,0,1777.0,0
779,779,0.13960085611503692,0.1,1.0,1.0,404.0,756.0,0.0,0,1840.0,0
780,780,-0.31734514034800465,-0.3,1.0,0.0,380.0,922.0,0.0,0,1698.0,1
781,781,-0.6730169728782905,-0.7,0.0,1.0,340.0,580.0,0.0,1,2080.0,0
782,782,0.09056828258920702,0.1,1.0,1.0,318.0,974.0,0.0,0,1708.0,0
783,783,-0.2205287689285761,-0.2,0.0,1.0,384.0,762.0,0.0,1,1854.0,0
784,784,0.8628046254539886,0.9,0.0,0.0,460.0,505.0,0.0,1,2035.0,1
785,785,0.8004882268160044,0.8,0.0,0.0,353.0,830.0,0.0,1,1817.0,1
786,786,-0.7296198291877798,-0.7,0.0,1.0,317.0,806.0,0.0,1,1877.0,0
787,787,0.6471167594728812,0.6,1.0,1.0,453.0,935.0,0.0,0,1612.0,0
788,788,-0.24188609527106275,-0.2,1.0,0.0,270.0,873.0,0.0,0,1857.0,1
789,789,-0.5166063722757885,-0.5,1.0,0.0,338.0,792.0,0.0,0,1870.0,1
790,790,0.3012072653549792,0.3,1.0,1.0,331.0,934.0,0.0,0,1735.0,0
791,791,-0.06396617675331495,-0.1,0.0,1.0,375.0,709.0,0.0,1,1916.0,0
792,792,-0.14048477941784132,-0.1,0.0,1.0,424.0,872.0,0.0,1,1704.0,0
793,793,0.7876787060227052,0.8,0.0,0.0,458.0,853.0,0.0,1,1689.0,1
794,794,0.6334268107395077,0.6,1.0,1.0,310.0,666.0,0.0,0,2024.0,0
795,795,-0.8542244147452258,-0.9,1.0,0.0,461.0,887.0,0.0,0,1652.0,1
796,796,0.71029035515819,0.7,0.0,0.0,287.0,674.0,0.0,1,2039.0,1
797,797,-0.7298162732876827,-0.7,0.0,1.0,311.0,849.0,0.0,1,1840.0,0
798,798,-0.5574679771105464,-0.6,1.0,0.0,400.0,791.0,0.0,0,1809.0,1
799,799,0.8514168240742052,0.9,1.0,1.0,264.0,841.0,0.0,0,1895.0,0
800,800,0.473424205565084,0.5,0.0,0.0,342.0,548.0,1.0,0,-850.0,0
801,801,-0.8573374037481958,-0.9,0.0,1.0,302.0,960.0,0.0,1,1738.0,0
802,802,-0.10904307494007126,-0.1,0.0,1.0,421.0,924.0,0.0,1,1655.0,0
803,803,-0.022665700708222825,-0.0,1.0,0.0,364.0,605.0,0.0,0,2031.0,1
804,804,-0.3544128752519874,-0.4,1.0,0.0,439.0,692.0,0.0,0,1869.0,1
805,805,0.6647904125976655,0.7,1.0,1.0,474.0,519.0,0.0,0,2007.0,0
806,806,-0.4573745189299923,-0.5,0.0,1.0,315.0,557.0,0.0,1,2128.0,0
807,807,-0.831459768601798,-0.8,0.0,1.0,383.0,900.0,0.0,1,1717.0,0
808,808,-0.6086543569835392,-0.6,0.0,1.0,386.0,673.0,0.0,1,1941.0,0
809,809,-0.034107710621757215,-0.0,1.0,0.0,322.0,606.0,0.0,0,2072.0,1
810,810,-0.07041955970465974,-0.1,0.0,1.0,465.0,739.0,0.0,1,1796.0,0
811,811,0.8709845437702383,0.9,0.0,0.0,461.0,894.0,0.0,1,1645.0,1
812,812,-0.2607391355912344,-0.3,1.0,0.0,381.0,531.0,0.0,0,2088.0,1
813,813,-0.04944659332910184,-0.0,1.0,0.0,342.0,564.0,0.0,0,2094.0,1
814,814,-0.4156414710205641,-0.4,0.0,1.0,456.0,583.0,0.0,1,-969.0,0
815,815,0.7529705503891667,0.8,1.0,1.0,480.0,958.0,0.0,0,1562.0,0
816,816,-0.4178195359658711,-0.4,0.0,1.0,455.0,726.0,0.0,1,1819.0,0
817,817,-0.7804672020491209,-0.8,1.0,0.0,405.0,806.0,0.0,0,1789.0,1
818,818,0.49182943847764415,0.5,1.0,1.0,352.0,891.0,0.0,0,1757.0,0
819,819,-0.6498819768033761,-0.6,0.0,1.0,266.0,704.0,0.0,1,2030.0,0
820,820,0.768675393283819,0.8,0.0,0.0,291.0,819.0,0.0,1,1890.0,1
821,821,0.399820585733892,0.4,0.0,0.0,430.0,990.0,0.0,1,1580.0,1
822,822,-0.3859775566778403,-0.4,1.0,0.0,491.0,843.0,0.0,0,1666.0,1
823,823,0.27399564053763437,0.3,0.0,0.0,345.0,590.0,0.0,1,2065.0,1
824,824,0.0683952909543728,0.1,1.0,1.0,472.0,624.0,0.0,0,1904.0,0
825,825,-0.010751816147733684,-0.0,0.0,1.0,464.0,837.0,0.0,1,1699.0,0
826,826,-0.10066186578698644,-0.1,1.0,0.0,269.0,941.0,0.0,0,1790.0,1
827,827,0.45092856088889965,0.5,1.0,1.0,451.0,739.0,0.0,0,1810.0,0
828,828,0.2567970587405365,0.3,0.0,0.0,381.0,542.0,0.0,1,2077.0,1
829,829,-0.4716467705009108,-0.5,0.0,1.0,346.0,501.0,0.0,1,2153.0,0
830,830,0.7002415489416264,0.7,0.0,0.0,268.0,716.0,0.0,1,2016.0,1
831,831,0.08920995568614176,0.1,0.0,0.0,429.0,619.0,0.0,1,1952.0,1
832,832,-0.8560246948193412,-0.9,1.0,0.0,456.0,707.0,0.0,0,1837.0,1
833,833,0.679565976263164,0.7,1.0,1.0,251.0,984.0,0.0,0,1765.0,0
834,834,0.49759775839964526,0.5,0.0,0.0,352.0,707.0,0.0,1,1941.0,1
835,835,0.8555668474954162,0.9,0.0,0.0,272.0,534.0,0.0,1,-786.0,1
836,836,0.47167451215609935,0.5,0.0,0.0,282.0,967.0,0.0,1,1751.0,1
837,837,-0.748647638972154,-0.7,1.0,0.0,373.0,961.0,0.0,0,1666.0,1
838,838,-0.10184510382553835,-0.1,0.0,1.0,384.0,804.0,0.0,1,1812.0,0
839,839,0.5341994847838604,0.5,0.0,0.0,486.0,605.0,0.0,1,1909.0,1
840,840,0.39066239531951574,0.4,0.0,0.0,381.0,733.0,0.0,1,1886.0,1
841,841,0.5219506256392586,0.5,0.0,0.0,417.0,533.0,0.0,1,2050.0,1
842,842,-0.49069925175026746,-0.5,0.0,1.0,384.0,671.0,0.0,1,1945.0,0
843,843,0.04431520022199631,0.0,1.0,1.0,314.0,643.0,0.0,0,2043.0,0
844,844,-0.14415520664566717,-0.1,1.0,0.0,273.0,852.0,0.0,0,1875.0,1
845,845,-0.2756102114066986,-0.3,0.0,1.0,307.0,902.0,0.0,1,1791.0,0
846,846,0.2572552890962002,0.3,0.0,0.0,343.0,814.0,0.0,1,1843.0,1
847,847,0.4054109764948409,0.4,0.0,0.0,399.0,779.0,0.0,1,1822.0,1
848,848,-0.8587476951532481,-0.9,1.0,0.0,485.0,833.0,0.0,0,1682.0,1
849,849,-0.22491261228747017,-0.2,0.0,1.0,341.0,865.0,0.0,1,1794.0,0
850,850,-0.17589617499889398,-0.2,0.0,1.0,472.0,749.0,0.0,1,1779.0,0
851,851,0.6866633019045877,0.7,0.0,0.0,287.0,704.0,0.0,1,2009.0,1
852,852,0.7544796463483087,0.8,1.0,1.0,388.0,863.0,1.0,1,-1231.0,1
853,853,-0.43165320544063723,-0.4,1.0,0.0,440.0,544.0,0.0,0,2016.0,1
854,854,-0.043457953305040875,-0.0,0.0,1.0,486.0,816.0,0.0,1,-1152.0,0
855,855,-0.1635079701654688,-0.2,1.0,0.0,430.0,540.0,0.0,0,2030.0,1
856,856,0.07344214568079854,0.1,0.0,0.0,392.0,729.0,0.0,1,1879.0,1
857,857,0.10345490400542612,0.1,1.0,1.0,344.0,848.0,0.0,0,1808.0,0
858,858,-0.4174638454538308,-0.4,0.0,1.0,386.0,696.0,0.0,1,1918.0,0
859,859,-0.0600282234279107,-0.1,1.0,0.0,437.0,919.0,0.0,0,1644.0,1
860,860,0.49499755607167495,0.5,0.0,0.0,261.0,917.0,0.0,1,1822.0,1
861,861,-0.18446496728470974,-0.2,0.0,1.0,376.0,656.0,0.0,1,-1032.0,0
862,862,-0.5201281021994892,-0.5,1.0,0.0,266.0,539.0,0.0,0,2195.0,1
863,863,-0.41329550281122424,-0.4,0.0,1.0,383.0,528.0,0.0,1,2089.0,0
864,864,-0.5550767195464639,-0.6,0.0,1.0,344.0,896.0,0.0,1,1760.0,0
865,865,0.7235902706395038,0.7,0.0,0.0,300.0,749.0,0.0,1,1951.0,1
866,866,-0.8539328278677335,-0.9,1.0,0.0,335.0,977.0,0.0,0,1688.0,1
867,867,-0.7298070754128435,-0.7,0.0,1.0,311.0,788.0,0.0,1,1901.0,0
868,868,-0.5350166479491649,-0.5,0.0,1.0,272.0,628.0,0.0,1,2100.0,0
869,869,0.3437751059803621,0.3,0.0,0.0,410.0,710.0,0.0,1,1880.0,1
870,870,-0.8068064888763516,-0.8,0.0,1.0,257.0,669.0,0.0,1,2074.0,0
871,871,0.5038762498993937,0.5,1.0,1.0,278.0,911.0,0.0,0,1811.0,0
872,872,0.7149316821161446,0.7,1.0,1.0,353.0,835.0,0.0,0,1812.0,0
873,873,0.30950961297748847,0.3,0.0,0.0,426.0,807.0,0.0,1,1767.0,1
874,874,-0.11407542348386768,-0.1,0.0,1.0,419.0,803.0,0.0,1,1778.0,0
875,875,-0.5944468921426822,-0.6,1.0,0.0,361.0,798.0,0.0,0,1841.0,1
876,876,0.1962945622932618,0.2,1.0,1.0,289.0,884.0,0.0,0,1827.0,0
877,877,0.5635997682439849,0.6,1.0,1.0,266.0,664.0,0.0,0,2070.0,0
878,878,-0.5972520155512195,-0.6,0.0,1.0,468.0,717.0,0.0,1,1815.0,0
879,879,-0.22228316844003615,-0.2,0.0,1.0,477.0,923.0,0.0,1,1600.0,0
880,880,0.7030857143604986,0.7,1.0,1.0,336.0,959.0,0.0,0,1705.0,0
881,881,0.4979419361696028,0.5,1.0,1.0,484.0,661.0,0.0,0,1855.0,0
882,882,-0.7331054008255703,-0.7,1.0,0.0,273.0,631.0,0.0,0,2096.0,1
883,883,0.7629317490552993,0.8,1.0,1.0,479.0,769.0,0.0,0,-1218.0,0
884,884,0.2796617815946355,0.3,0.0,0.0,490.0,989.0,0.0,1,1521.0,1
885,885,0.30646464999176415,0.3,1.0,1.0,445.0,937.0,0.0,0,1618.0,0
886,886,0.7676929342654039,0.8,0.0,0.0,368.0,965.0,0.0,1,1667.0,1
887,887,0.7852249679351283,0.8,1.0,1.0,449.0,547.0,0.0,0,-966.0,0
888,888,-0.0913436049974784,-0.1,0.0,1.0,401.0,660.0,0.0,1,1939.0,0
889,889,0.4255538068125212,0.4,0.0,0.0,388.0,507.0,0.0,1,2105.0,1
890,890,0.6021801501517828,0.6,0.0,0.0,346.0,987.0,0.0,1,-1303.0,1
891,891,0.26068282759844286,0.3,1.0,1.0,333.0,682.0,0.0,0,1985.0,0
892,892,0.768023571545832,0.8,1.0,1.0,253.0,890.0,0.0,0,1857.0,0
893,893,0.6046978307895646,0.6,1.0,1.0,469.0,960.0,0.0,0,1571.0,0
894,894,-0.591713591017746,-0.6,1.0,0.0,446.0,588.0,0.0,0,1966.0,1
895,895,-0.3259168334180812,-0.3,0.0,1.0,264.0,665.0,0.0,1,2071.0,0
896,896,-0.3654808485561608,-0.4,0.0,1.0,307.0,640.0,0.0,1,2053.0,0
897,897,-0.44917944491965456,-0.4,1.0,0.0,484.0,802.0,0.0,0,1714.0,1
898,898,-0.4952111553556122,-0.5,0.0,1.0,395.0,623.0,0.0,1,1982.0,0
899,899,-0.09571907342538155,-0.1,0.0,1.0,289.0,938.0,0.0,1,1773.0,0
900,900,-0.6175578206839936,-0.6,0.0,1.0,479.0,898.0,0.0,1,1623.0,0
901,901,-0.10898457055862787,-0.1,0.0,1.0,447.0,637.0,0.0,1,1916.0,0
902,902,-0.7833968459438291,-0.8,1.0,0.0,261.0,531.0,0.0,0,2208.0,1
903,903,-0.6648983599619906,-0.7,0.0,1.0,482.0,628.0,0.0,1,1890.0,0
904,904,0.22338911263380978,0.2,0.0,0.0,475.0,573.0,0.0,1,1952.0,1
905,905,-0.621869087702357,-0.6,1.0,0.0,393.0,814.0,0.0,0,1793.0,1
906,906,-0.5297782084645901,-0.5,0.0,1.0,350.0,619.0,0.0,1,2031.0,0
907,907,-0.021075624915163238,-0.0,1.0,0.0,458.0,543.0,0.0,0,1999.0,1
908,908,-0.6987348200244662,-0.7,0.0,1.0,400.0,633.0,0.0,1,1967.0,0
909,909,-0.11568895575415572,-0.1,0.0,1.0,489.0,668.0,0.0,1,1843.0,0
910,910,-0.2538653465813545,-0.3,1.0,0.0,374.0,761.0,0.0,0,1865.0,1
911,911,0.7622567028861139,0.8,0.0,0.0,376.0,942.0,0.0,1,1682.0,1
912,912,0.08408899859861674,0.1,1.0,1.0,329.0,845.0,0.0,0,1826.0,0
913,913,-0.817861620139589,-0.8,0.0,1.0,461.0,841.0,0.0,1,1698.0,0
914,914,-0.4348216691751304,-0.4,1.0,0.0,376.0,712.0,0.0,0,1912.0,1
915,915,0.2771523742257692,0.3,0.0,0.0,323.0,895.0,0.0,1,1782.0,1
916,916,0.07804527179658816,0.1,0.0,0.0,456.0,712.0,0.0,1,1832.0,1
917,917,0.7214958648564563,0.7,1.0,1.0,304.0,526.0,0.0,0,2170.0,0
918,918,0.7613610169973472,0.8,1.0,1.0,340.0,977.0,0.0,0,1683.0,0
919,919,-0.16023898986050034,-0.2,1.0,0.0,392.0,991.0,0.0,0,1617.0,1
920,920,0.7276502438295976,0.7,0.0,0.0,262.0,746.0,0.0,1,1992.0,1
921,921,-0.8676239187857568,-0.9,1.0,0.0,258.0,581.0,0.0,0,2161.0,1
922,922,-0.5979772550283017,-0.6,1.0,0.0,333.0,910.0,0.0,0,1757.0,1
923,923,0.6313972158972284,0.6,0.0,0.0,481.0,755.0,0.0,1,1764.0,1
924,924,-0.6500642787154428,-0.7,0.0,1.0,489.0,592.0,0.0,1,1919.0,0
925,925,0.45111650944303927,0.5,1.0,1.0,484.0,639.0,0.0,0,1877.0,0
926,926,-0.48280587454222273,-0.5,1.0,0.0,416.0,899.0,0.0,0,1685.0,1
927,927,-0.5161943585505533,-0.5,1.0,0.0,353.0,520.0,0.0,0,2127.0,1
928,928,0.04535765857446772,0.0,0.0,0.0,366.0,722.0,0.0,1,1912.0,1
929,929,0.6802377531052498,0.7,1.0,1.0,478.0,781.0,0.0,0,1741.0,0
930,930,0.3404557548900816,0.3,0.0,0.0,443.0,938.0,0.0,1,1619.0,1
931,931,-0.19140012764162895,-0.2,0.0,1.0,388.0,733.0,0.0,1,-1001.0,0
932,932,0.8457891424426264,0.8,0.0,0.0,368.0,807.0,0.0,1,1825.0,1
933,933,-0.571463746520785,-0.6,1.0,0.0,446.0,921.0,0.0,0,1633.0,1
934,934,-0.5390091259912924,-0.5,0.0,1.0,338.0,734.0,0.0,1,1928.0,0
935,935,0.07175090660709726,0.1,0.0,0.0,263.0,950.0,0.0,1,1787.0,1
936,936,-0.10426664927625895,-0.1,0.0,1.0,264.0,660.0,0.0,1,2076.0,0
937,937,0.30258185875900157,0.3,0.0,0.0,422.0,881.0,0.0,1,1697.0,1
938,938,0.549820019443657,0.5,0.0,0.0,389.0,869.0,0.0,1,1742.0,1
939,939,0.32640104644071,0.3,1.0,1.0,477.0,680.0,0.0,0,1843.0,0
940,940,-0.67558717563128,-0.7,1.0,0.0,362.0,877.0,0.0,0,1761.0,1
941,941,-0.1296355898074314,-0.1,0.0,1.0,415.0,863.0,0.0,1,1722.0,0
942,942,0.09408370751854556,0.1,0.0,0.0,497.0,530.0,0.0,1,1973.0,1
943,943,-0.7209364326528671,-0.7,0.0,1.0,331.0,698.0,0.0,1,1971.0,0
944,944,-0.5153793026785503,-0.5,1.0,0.0,372.0,657.0,0.0,0,1971.0,1
945,945,0.27809540778270103,0.3,1.0,1.0,470.0,949.0,0.0,0,1581.0,0
946,946,-0.8239960043698922,-0.8,0.0,1.0,442.0,837.0,0.0,1,1721.0,0
947,947,-0.8505239200707096,-0.9,1.0,0.0,289.0,608.0,0.0,0,2103.0,1
948,948,0.1199372088654006,0.1,0.0,0.0,430.0,889.0,0.0,1,1681.0,1
949,949,0.017716931300917782,0.0,0.0,0.0,397.0,716.0,0.0,1,1887.0,1
950,950,-0.4576307852699713,-0.5,0.0,1.0,271.0,781.0,0.0,1,1948.0,0
951,951,0.6299501144065226,0.6,0.0,0.0,438.0,721.0,0.0,1,1841.0,1
952,952,-0.035642103441690276,-0.0,1.0,0.0,411.0,888.0,0.0,0,1701.0,1
953,953,-0.006749021306463043,-0.0,0.0,1.0,250.0,882.0,0.0,1,1868.0,0
954,954,-0.11166371599609493,-0.1,1.0,0.0,476.0,921.0,0.0,0,1603.0,1
955,955,-0.5625306164211767,-0.6,0.0,1.0,263.0,718.0,0.0,1,2019.0,0
956,956,-0.3240451830640725,-0.3,1.0,0.0,282.0,709.0,0.0,0,2009.0,1
957,957,0.747646384814514,0.7,0.0,0.0,272.0,819.0,1.0,0,-981.0,0
958,958,-0.09478860793788246,-0.1,0.0,1.0,490.0,781.0,0.0,1,1729.0,0
959,959,-0.3021128964620414,-0.3,1.0,0.0,301.0,507.0,0.0,0,2192.0,1
960,960,0.3504194806000934,0.4,0.0,0.0,253.0,672.0,0.0,1,2075.0,1
961,961,-0.8615084958616458,-0.9,1.0,0.0,320.0,709.0,0.0,0,1971.0,1
962,962,-0.5466758184608091,-0.5,1.0,0.0,341.0,860.0,0.0,0,1799.0,1
963,963,-0.3504457768370999,-0.4,0.0,1.0,391.0,625.0,0.0,1,1984.0,0
964,964,-0.2721843287502713,-0.3,1.0,0.0,259.0,722.0,0.0,0,2019.0,1
965,965,0.8629990164561786,0.9,0.0,0.0,384.0,600.0,0.0,1,2016.0,1
966,966,-0.8483778104275477,-0.8,0.0,1.0,474.0,865.0,0.0,1,-1279.0,0
967,967,0.8258628171825041,0.8,0.0,0.0,450.0,576.0,0.0,1,1974.0,1
968,968,-0.46862349795098496,-0.5,0.0,1.0,307.0,818.0,0.0,1,-1025.0,0
969,969,-0.3186896134561058,-0.3,0.0,1.0,360.0,998.0,0.0,1,1642.0,0
970,970,0.8867160687615384,0.9,1.0,1.0,287.0,681.0,0.0,0,2032.0,0
971,971,0.2133916754806321,0.2,0.0,0.0,290.0,942.0,0.0,1,1768.0,1
972,972,0.13977069241433704,0.1,0.0,0.0,402.0,549.0,0.0,1,2049.0,1
973,973,-0.12427055783348795,-0.1,0.0,1.0,447.0,708.0,0.0,1,1845.0,0
974,974,-0.8534107218467174,-0.9,0.0,1.0,404.0,638.0,0.0,1,1958.0,0
975,975,-0.6514194853439632,-0.7,0.0,1.0,271.0,504.0,0.0,1,2225.0,0
976,976,0.48907142775089707,0.5,0.0,0.0,376.0,550.0,0.0,1,2074.0,1
977,977,-0.6262032947819305,-0.6,1.0,0.0,400.0,990.0,0.0,0,1610.0,1
978,978,0.6237579805244323,0.6,1.0,1.0,495.0,734.0,0.0,0,1771.0,0
979,979,0.5222601047941257,0.5,1.0,1.0,427.0,724.0,0.0,0,1849.0,0
980,980,0.16629403621572736,0.2,1.0,1.0,266.0,516.0,0.0,0,2218.0,0
981,981,-0.7301795981826962,-0.7,0.0,1.0,277.0,628.0,0.0,1,2095.0,0
982,982,-0.4887993885519706,-0.5,1.0,0.0,264.0,537.0,0.0,0,2199.0,1
983,983,-0.553373480832972,-0.6,1.0,0.0,475.0,510.0,0.0,0,2015.0,1
984,984,0.7985389045004129,0.8,1.0,1.0,335.0,684.0,0.0,0,1981.0,0
985,985,0.13842428935106554,0.1,1.0,1.0,351.0,866.0,0.0,0,1783.0,0
986,986,0.2813741704357434,0.3,0.0,0.0,317.0,760.0,0.0,1,1923.0,1
987,987,-0.6195459111646444,-0.6,0.0,1.0,252.0,546.0,0.0,1,2202.0,0
988,988,0.1836377032503932,0.2,1.0,1.0,406.0,615.0,0.0,0,1979.0,0
989,989,-0.47409387499123884,-0.5,0.0,1.0,343.0,670.0,0.0,1,1987.0,0
990,990,0.35632888387433426,0.4,0.0,0.0,316.0,614.0,0.0,1,2070.0,1
991,991,0.1216836852614539,0.1,0.0,0.0,426.0,985.0,1.0,0,-1391.0,0
992,992,0.5887730871510616,0.6,1.0,1.0,423.0,503.0,0.0,0,2074.0,0
993,993,-0.42184689140626824,-0.4,1.0,0.0,426.0,983.0,0.0,0,1591.0,1
994,994,-0.26820540612022936,-0.3,0.0,1.0,401.0,608.0,0.0,1,1991.0,0
995,995,0.7675813259094529,0.8,1.0,1.0,404.0,950.0,0.0,0,1646.0,0
996,996,0.06853262132274263,0.1,0.0,0.0,256.0,679.0,1.0,0,-895.0,0
997,997,-0.5030425280685595,-0.5,0.0,1.0,456.0,940.0,0.0,1,1604.0,0
998,998,0.8814835087291907,0.9,0.0,0.0,293.0,619.0,0.0,1,2088.0,1
999,999,-0.5472494563519295,-0.5,1.0,0.0,475.0,716.0,0.0,0,1809.0,1
1000,1000,0.6827736185821845,0.7,0.0,0.0,440.0,943.0,0.0,1,1617.0,1
1001,1001,-0.19530226308079723,-0.2,0.0,1.0,279.0,916.0,0.0,1,1805.0,0
1002,1002,-0.7348751912877338,-0.7,0.0,1.0,311.0,510.0,0.0,1,2179.0,0
1003,1003,-0.7599854927184856,-0.8,1.0,0.0,459.0,755.0,0.0,0,1786.0,1
1004,1004,-0.44444071949044,-0.4,0.0,1.0,285.0,766.0,0.0,1,1949.0,0
1005,1005,0.6440143097252363,0.6,1.0,1.0,457.0,714.0,0.0,0,1829.0,0
1006,1006,-0.17347191827142583,-0.2,0.0,1.0,360.0,732.0,0.0,1,1908.0,0
1007,1007,-0.46391688417110377,-0.5,1.0,0.0,323.0,974.0,0.0,0,1703.0,1
1008,1008,-0.10279881996693874,-0.1,0.0,1.0,438.0,870.0,0.0,1,1692.0,0
1009,1009,-0.24858968071727605,-0.2,1.0,0.0,316.0,567.0,0.0,0,2117.0,1
1010,1010,-0.5857932306463843,-0.6,1.0,0.0,294.0,599.0,0.0,0,2107.0,1
1011,1011,0.5673137485360377,0.6,1.0,1.0,363.0,845.0,0.0,0,1792.0,0
1012,1012,0.6626580282199109,0.7,0.0,0.0,419.0,774.0,0.0,1,1807.0,1
1013,1013,0.57698908047342,0.6,1.0,1.0,279.0,752.0,0.0,0,1969.0,0
1014,1014,0.5802664851958114,0.6,1.0,1.0,483.0,853.0,0.0,0,1664.0,0
1015,1015,-0.4255579813892902,-0.4,0.0,1.0,419.0,581.0,0.0,1,2000.0,0
1016,1016,0.6375409281522745,0.6,1.0,1.0,368.0,688.0,0.0,0,1944.0,0
1017,1017,-0.1957545068515102,-0.2,0.0,1.0,361.0,939.0,0.0,1,1700.0,0
1018,1018,-0.43209297581446865,-0.4,0.0,1.0,276.0,557.0,0.0,1,2167.0,0
1019,1019,0.8940997736159907,0.9,0.0,0.0,446.0,958.0,0.0,1,1596.0,1
1020,1020,-0.21875073519027943,-0.2,1.0,0.0,378.0,857.0,0.0,0,1765.0,1
1021,1021,0.36122089888244846,0.4,1.0,1.0,277.0,848.0,0.0,0,1875.0,0
1022,1022,-0.7667858635200866,-0.8,1.0,0.0,478.0,731.0,0.0,0,1791.0,1
1023,1023,0.10970913561334206,0.1,0.0,0.0,300.0,678.0,0.0,1,2022.0,1
1024,1024,-0.5639486199114929,-0.6,1.0,0.0,346.0,597.0,0.0,0,2057.0,1
1025,1025,-0.2840013464101412,-0.3,0.0,1.0,294.0,806.0,0.0,1,1900.0,0
1026,1026,-0.8188705652624669,-0.8,0.0,1.0,294.0,926.0,0.0,1,1780.0,0
1027,1027,-0.514543755854453,-0.5,1.0,0.0,367.0,682.0,0.0,0,1951.0,1
1028,1028,0.02702884208262879,0.0,0.0,0.0,428.0,573.0,0.0,1,1999.0,1
1029,1029,0.28777166114029396,0.3,1.0,1.0,334.0,650.0,0.0,0,2016.0,0
1030,1030,-0.2506313063488148,-0.3,0.0,1.0,272.0,914.0,0.0,1,1814.0,0
1031,1031,0.4591470075938341,0.5,1.0,1.0,283.0,938.0,0.0,0,1779.0,0
1032,1032,-0.8842878696740789,-0.9,0.0,1.0,387.0,647.0,0.0,1,1966.0,0
1033,1033,0.05243902882978102,0.1,1.0,1.0,466.0,788.0,0.0,0,1746.0,0
1034,1034,0.6057532942887042,0.6,0.0,0.0,313.0,502.0,0.0,1,2185.0,1
1035,1035,0.729023275931484,0.7,1.0,1.0,478.0,713.0,0.0,0,1809.0,0
1036,1036,0.8201680151342089,0.8,0.0,0.0,389.0,773.0,0.0,1,1838.0,1
1037,1037,0.22109830028989397,0.2,0.0,0.0,327.0,827.0,0.0,1,1846.0,1
1038,1038,0.8818983727047826,0.9,0.0,0.0,455.0,967.0,0.0,1,1578.0,1
1039,1039,0.2087159514444411,0.2,0.0,0.0,263.0,979.0,0.0,1,1758.0,1
1040,1040,0.35074882789307515,0.4,0.0,0.0,323.0,947.0,0.0,1,1730.0,1
1041,1041,0.5736667170467696,0.6,0.0,0.0,448.0,852.0,0.0,1,1700.0,1
1042,1042,-0.6783174912136934,-0.7,1.0,0.0,318.0,953.0,0.0,0,1729.0,1
1043,1043,-0.2767122426716101,-0.3,0.0,1.0,374.0,807.0,0.0,1,1819.0,0
1044,1044,0.11806750463788818,0.1,1.0,1.0,496.0,947.0,0.0,0,1557.0,0
1045,1045,0.5821217370174773,0.6,1.0,1.0,345.0,548.0,0.0,0,2107.0,0
1046,1046,0.8521292631018526,0.9,1.0,1.0,393.0,750.0,0.0,0,1857.0,0
1047,1047,-0.33639512550591,-0.3,1.0,0.0,355.0,689.0,0.0,0,1956.0,1
1048,1048,-0.05432531609920743,-0.1,0.0,1.0,472.0,827.0,0.0,1,1701.0,0
1049,1049,-0.5931582423181587,-0.6,0.0,1.0,346.0,650.0,0.0,1,2004.0,0
1050,1050,0.8889800039966868,0.9,0.0,0.0,390.0,769.0,0.0,1,1841.0,1
1051,1051,0.626380230150657,0.6,1.0,1.0,491.0,940.0,0.0,0,1569.0,0
1052,1052,0.7058208588084661,0.7,1.0,1.0,303.0,599.0,0.0,0,2098.0,0
1053,1053,-0.7119715021303241,-0.7,0.0,1.0,326.0,800.0,0.0,1,1874.0,0
1054,1054,0.0763339729852418,0.1,1.0,1.0,482.0,808.0,0.0,0,1710.0,0
1055,1055,-0.10791627870877119,-0.1,0.0,1.0,301.0,744.0,0.0,1,1955.0,0
1056,1056,-0.31840073728913676,-0.3,1.0,0.0,322.0,860.0,0.0,0,1818.0,1
1057,1057,0.7303998705797446,0.7,1.0,1.0,292.0,817.0,0.0,0,1891.0,0
1058,1058,-0.27650014405493206,-0.3,1.0,0.0,486.0,619.0,0.0,0,1895.0,1
1059,1059,0.449678666940282,0.4,1.0,1.0,265.0,912.0,0.0,0,1823.0,0
1060,1060,0.2798056750459864,0.3,1.0,1.0,435.0,663.0,0.0,0,1902.0,0
1061,1061,0.44879764186665627,0.4,1.0,1.0,401.0,687.0,0.0,0,1912.0,0
1062,1062,-0.330682101564567,-0.3,0.0,1.0,398.0,736.0,0.0,1,1866.0,0
1063,1063,-0.8059869878015777,-0.8,1.0,0.0,365.0,979.0,0.0,0,1656.0,1
1064,1064,-0.7738217942627046,-0.8,0.0,1.0,319.0,726.0,1.0,0,-995.0,1
1065,1065,-0.008179646841271815,-0.0,0.0,1.0,433.0,507.0,0.0,1,2060.0,0
1066,1066,0.4376338915770749,0.4,1.0,1.0,349.0,627.0,0.0,0,2024.0,0
1067,1067,-0.10336811051720796,-0.1,0.0,1.0,396.0,993.0,0.0,1,1611.0,0
1068,1068,0.5743466074272582,0.6,1.0,1.0,488.0,993.0,0.0,0,1519.0,0
1069,1069,-0.45737687886509526,-0.5,0.0,1.0,359.0,950.0,0.0,1,1691.0,0
1070,1070,-0.31161700284768734,-0.3,1.0,0.0,271.0,550.0,0.0,0,2179.0,1
1071,1071,-0.7648408558312252,-0.8,0.0,1.0,377.0,790.0,0.0,1,1833.0,0
1072,1072,-0.2042628115161489,-0.2,1.0,0.0,398.0,626.0,0.0,0,1976.0,1
1073,1073,0.5699813300720739,0.6,0.0,0.0,286.0,812.0,0.0,1,1902.0,1
1074,1074,-0.5593137815681264,-0.6,1.0,0.0,474.0,756.0,0.0,0,1770.0,1
1075,1075,0.6012302649843889,0.6,0.0,0.0,446.0,725.0,0.0,1,1829.0,1
1076,1076,-0.44015440219824614,-0.4,1.0,0.0,255.0,568.0,0.0,0,2177.0,1
1077,1077,-0.8262412074534516,-0.8,0.0,1.0,380.0,739.0,0.0,1,1881.0,0
1078,1078,-0.2271262183814161,-0.2,1.0,0.0,255.0,896.0,0.0,0,1849.0,1
1079,1079,0.4560064884837921,0.5,1.0,1.0,363.0,668.0,0.0,0,1969.0,0
1080,1080,-0.025088094946101647,-0.0,0.0,1.0,405.0,957.0,0.0,1,1638.0,0
1081,1081,0.3094712765151447,0.3,1.0,1.0,359.0,940.0,0.0,0,1701.0,0
1082,1082,-0.13939839585945302,-0.1,0.0,1.0,450.0,771.0,1.0,0,-1181.0,1
1083,1083,-0.6348553885386434,-0.6,1.0,0.0,400.0,774.0,0.0,0,1826.0,1
1084,1084,-0.3666757509947772,-0.4,0.0,1.0,474.0,797.0,0.0,1,1729.0,0
1085,1085,-0.23345230568034647,-0.2,1.0,0.0,385.0,673.0,0.0,0,1942.0,1
1086,1086,0.6323941866179653,0.6,1.0,1.0,430.0,521.0,0.0,0,2049.0,0
1087,1087,0.10952421152951775,0.1,1.0,1.0,251.0,846.0,0.0,0,1903.0,0
1088,1088,0.012806616851318009,0.0,0.0,0.0,438.0,853.0,0.0,1,1709.0,1
1089,1089,0.34874614308252416,0.3,1.0,1.0,461.0,953.0,0.0,0,1586.0,0
1090,1090,0.7788384563446819,0.8,1.0,1.0,314.0,547.0,0.0,0,2139.0,0
1091,1091,0.21725541583958996,0.2,0.0,0.0,328.0,856.0,0.0,1,1816.0,1
1092,1092,-0.7039965772954144,-0.7,1.0,0.0,340.0,799.0,0.0,0,1861.0,1
1093,1093,0.7899052872482678,0.8,0.0,0.0,364.0,560.0,0.0,1,2076.0,1
1094,1094,0.649272307907318,0.6,0.0,0.0,339.0,569.0,0.0,1,2092.0,1
1095,1095,0.18072679766014155,0.2,0.0,0.0,493.0,863.0,0.0,1,1644.0,1
1096,1096,-0.2331798766144466,-0.2,0.0,1.0,297.0,797.0,0.0,1,1906.0,0
1097,1097,-0.3382622544405015,-0.3,0.0,1.0,368.0,701.0,0.0,1,1931.0,0
1098,1098,-0.5669209675705602,-0.6,1.0,0.0,250.0,993.0,0.0,0,1757.0,1
1099,1099,0.41663334230951843,0.4,1.0,1.0,470.0,631.0,0.0,0,1899.0,0
1100,1100,-0.1985462094235595,-0.2,1.0,0.0,410.0,885.0,0.0,0,1705.0,1
1101,1101,0.24826821853112502,0.2,1.0,1.0,488.0,785.0,0.0,0,1727.0,0
1102,1102,0.650182385811802,0.7,1.0,1.0,413.0,578.0,0.0,0,2009.0,0
1103,1103,0.8233463733054006,0.8,1.0,1.0,470.0,659.0,0.0,0,1871.0,0
1104,1104,-0.04029408831888004,-0.0,1.0,0.0,269.0,649.0,0.0,0,2082.0,1
1105,1105,0.1536326206223314,0.2,1.0,1.0,407.0,656.0,0.0,0,1937.0,0
1106,1106,-0.05399285458071734,-0.1,1.0,0.0,488.0,691.0,0.0,0,1821.0,1
1107,1107,0.593115947216568,0.6,1.0,1.0,338.0,892.0,0.0,0,1770.0,0
1108,1108,-0.5272949516800058,-0.5,1.0,0.0,322.0,643.0,0.0,0,2035.0,1
1109,1109,0.5005228007003212,0.5,0.0,0.0,485.0,750.0,0.0,1,1765.0,1
1110,1110,0.5062127345620265,0.5,0.0,0.0,422.0,931.0,0.0,1,1647.0,1
1111,1111,0.19406273158862775,0.2,1.0,1.0,451.0,778.0,0.0,0,1771.0,0
1112,1112,0.22739621178588687,0.2,0.0,0.0,303.0,837.0,0.0,1,-1110.0,1
1113,1113,0.1825681424741329,0.2,1.0,1.0,469.0,923.0,0.0,0,1608.0,0
1114,1114,-0.15892529483958828,-0.2,0.0,1.0,395.0,796.0,0.0,1,1809.0,0
1115,1115,-0.36578334681258173,-0.4,1.0,0.0,269.0,980.0,0.0,0,1751.0,1
1116,1116,-0.012324698984320426,-0.0,0.0,1.0,449.0,608.0,1.0,0,-957.0,1
1117,1117,0.04677918222954036,0.0,0.0,0.0,336.0,753.0,0.0,1,1911.0,1
1118,1118,0.26041549296646693,0.3,0.0,0.0,387.0,994.0,0.0,1,1619.0,1
1119,1119,0.07718102461887022,0.1,0.0,0.0,452.0,560.0,0.0,1,1988.0,1
1120,1120,-0.4282542217539778,-0.4,0.0,1.0,377.0,935.0,0.0,1,1688.0,0
1121,1121,-0.5287683677003339,-0.5,0.0,1.0,439.0,879.0,0.0,1,1682.0,0
1122,1122,0.13939606209517696,0.1,1.0,1.0,410.0,574.0,0.0,0,2016.0,0
1123,1123,0.018761567270961788,0.0,1.0,1.0,450.0,770.0,0.0,0,1780.0,0
1124,1124,0.23974219645502381,0.2,1.0,1.0,306.0,575.0,0.0,0,-821.0,0
1125,1125,0.2608249839672049,0.3,0.0,0.0,464.0,524.0,0.0,1,2012.0,1
1126,1126,0.8246095915150292,0.8,0.0,0.0,267.0,861.0,0.0,1,1872.0,1
1127,1127,0.16486791843181192,0.2,1.0,1.0,296.0,651.0,0.0,0,2053.0,0
1128,1128,0.4061412151112188,0.4,0.0,0.0,445.0,529.0,0.0,1,2026.0,1
1129,1129,0.894834476763274,0.9,0.0,0.0,405.0,990.0,0.0,1,1605.0,1
1130,1130,-0.5871556150547981,-0.6,0.0,1.0,398.0,667.0,0.0,1,1935.0,0
1131,1131,-0.622606603570038,-0.6,0.0,1.0,270.0,827.0,0.0,1,-1067.0,0
1132,1132,0.2432668513646511,0.2,0.0,0.0,489.0,622.0,0.0,1,1889.0,1
1133,1133,0.7751636725977188,0.8,1.0,1.0,419.0,840.0,0.0,0,1741.0,0
1134,1134,0.31022613005182775,0.3,1.0,1.0,306.0,976.0,0.0,0,1718.0,0
1135,1135,0.3993672363950548,0.4,1.0,1.0,283.0,687.0,0.0,0,-960.0,0
1136,1136,0.41450723540123924,0.4,1.0,1.0,384.0,658.0,0.0,0,1958.0,0
1137,1137,-0.8408447694766482,-0.8,1.0,0.0,295.0,599.0,0.0,0,2106.0,1
1138,1138,-0.1934915765525067,-0.2,0.0,1.0,394.0,848.0,0.0,1,1758.0,0
1139,1139,-0.610154521480077,-0.6,1.0,0.0,460.0,992.0,0.0,0,1548.0,1
1140,1140,-0.2816986314390204,-0.3,1.0,0.0,263.0,726.0,0.0,0,2011.0,1
1141,1141,-0.8983484817183792,-0.9,0.0,1.0,455.0,662.0,0.0,1,1883.0,0
1142,1142,0.48848897363426846,0.5,1.0,1.0,355.0,618.0,0.0,0,2027.0,0
1143,1143,-0.7445032477159741,-0.7,1.0,0.0,255.0,746.0,0.0,0,1999.0,1
1144,1144,0.2840249898080599,0.3,1.0,1.0,266.0,943.0,0.0,0,1791.0,0
1145,1145,0.0850644761592454,0.1,1.0,1.0,481.0,769.0,0.0,0,1750.0,0
1146,1146,0.18385600416388603,0.2,0.0,0.0,484.0,810.0,0.0,1,1706.0,1
1147,1147,-0.7044913901845824,-0.7,1.0,0.0,254.0,792.0,0.0,0,1954.0,1
1148,1148,0.5441953072094509,0.5,0.0,0.0,416.0,569.0,0.0,1,2015.0,1
1149,1149,-0.8090303730594431,-0.8,1.0,0.0,472.0,931.0,0.0,0,1597.0,1
1150,1150,0.6442301214107174,0.6,0.0,0.0,476.0,677.0,0.0,1,1847.0,1
1151,1151,0.14418710657646094,0.1,0.0,0.0,340.0,616.0,0.0,1,2044.0,1
1152,1152,-0.2785413626696668,-0.3,1.0,0.0,490.0,553.0,0.0,0,-1043.0,1
1153,1153,0.418988699690657,0.4,1.0,1.0,479.0,651.0,0.0,0,1870.0,0
1154,1154,-0.18148622606448783,-0.2,1.0,0.0,305.0,808.0,0.0,0,1887.0,1
1155,1155,0.15526833654668704,0.2,0.0,0.0,265.0,830.0,0.0,1,-1055.0,1
1156,1156,0.7112584541904706,0.7,1.0,1.0,497.0,668.0,0.0,0,1835.0,0
1157,1157,0.7992657582898893,0.8,0.0,0.0,401.0,703.0,0.0,1,1896.0,1
1158,1158,-0.18092098152668912,-0.2,0.0,1.0,420.0,694.0,0.0,1,1886.0,0
1159,1159,-0.3381089745035746,-0.3,1.0,0.0,422.0,717.0,0.0,0,1861.0,1
1160,1160,-0.6750129567416406,-0.7,1.0,0.0,306.0,796.0,0.0,0,1898.0,1
1161,1161,0.2529082475772334,0.3,1.0,1.0,364.0,538.0,0.0,0,2098.0,0
1162,1162,0.1419769951566826,0.1,0.0,0.0,362.0,953.0,0.0,1,1685.0,1
1163,1163,-0.6134853038692438,-0.6,0.0,1.0,481.0,677.0,0.0,1,-1058.0,0
1164,1164,0.21865442037304728,0.2,0.0,0.0,384.0,853.0,0.0,1,1763.0,1
1165,1165,0.12159282464784249,0.1,0.0,0.0,336.0,819.0,0.0,1,1845.0,1
1166,1166,-0.01371133774312916,-0.0,0.0,1.0,326.0,598.0,0.0,1,2076.0,0
1167,1167,0.22281232698856301,0.2,0.0,0.0,315.0,959.0,0.0,1,1726.0,1
1168,1168,-0.5290507811934216,-0.5,1.0,0.0,272.0,869.0,0.0,0,1859.0,1
1169,1169,0.5622935099297656,0.6,0.0,0.0,261.0,659.0,0.0,1,2080.0,1
1170,1170,0.8236845098014601,0.8,1.0,1.0,378.0,630.0,0.0,0,1992.0,0
1171,1171,0.097025936619615,0.1,0.0,0.0,456.0,986.0,0.0,1,1558.0,1
1172,1172,0.30733254860835435,0.3,1.0,1.0,396.0,802.0,0.0,0,1802.0,0
1173,1173,-0.5897464739442353,-0.6,1.0,0.0,272.0,986.0,1.0,1,-1248.0,0
1174,1174,0.6906090210640353,0.7,1.0,1.0,273.0,609.0,0.0,0,2118.0,0
1175,1175,0.30778141738620446,0.3,1.0,1.0,334.0,848.0,0.0,0,1818.0,0
1176,1176,-0.15727386389509557,-0.2,1.0,0.0,431.0,992.0,0.0,0,1577.0,1
1177,1177,0.2844098910038467,0.3,1.0,1.0,351.0,997.0,0.0,0,1652.0,0
1178,1178,-0.4888425700102383,-0.5,0.0,1.0,392.0,728.0,0.0,1,1880.0,0
1179,1179,0.46107790325148523,0.5,0.0,0.0,304.0,719.0,0.0,1,1977.0,1
1180,1180,-0.6167910189008748,-0.6,1.0,0.0,366.0,726.0,0.0,0,1908.0,1
1181,1181,0.4534582100557635,0.5,0.0,0.0,393.0,503.0,0.0,1,2104.0,1
1182,1182,-0.5965941318749923,-0.6,1.0,0.0,279.0,988.0,0.0,0,1733.0,1
1183,1183,-0.6570432222660694,-0.7,0.0,1.0,328.0,913.0,0.0,1,1759.0,0
1184,1184,-0.1521019605055386,-0.2,0.0,1.0,413.0,819.0,0.0,1,1768.0,0
1185,1185,0.5331949324173365,0.5,1.0,1.0,442.0,776.0,0.0,0,1782.0,0
1186,1186,-0.46888615085701574,-0.5,0.0,1.0,260.0,785.0,1.0,0,-1035.0,1
1187,1187,-0.1870297534812616,-0.2,0.0,1.0,440.0,695.0,0.0,1,1865.0,0
1188,1188,0.699540597443889,0.7,1.0,1.0,395.0,993.0,0.0,0,1612.0,0
1189,1189,-0.3728448226499377,-0.4,0.0,1.0,490.0,556.0,0.0,1,1954.0,0
1190,1190,0.7499079345005307,0.7,1.0,1.0,442.0,602.0,0.0,0,1956.0,0
1191,1191,-0.10764249360105782,-0.1,0.0,1.0,377.0,844.0,0.0,1,-1181.0,0
1192,1192,-0.27498768527361495,-0.3,1.0,0.0,300.0,625.0,0.0,0,2075.0,1
1193,1193,0.5878942513350004,0.6,1.0,1.0,407.0,579.0,0.0,0,2014.0,0
1194,1194,-0.760208397930448,-0.8,0.0,1.0,329.0,737.0,0.0,1,1934.0,0
1195,1195,0.42328477516933527,0.4,0.0,0.0,284.0,905.0,0.0,1,1811.0,1
1196,1196,0.5398775969288246,0.5,0.0,0.0,463.0,675.0,0.0,1,1862.0,1
1197,1197,-0.6640684313921399,-0.7,1.0,0.0,418.0,915.0,0.0,0,1667.0,1
1198,1198,0.7771027888143954,0.8,1.0,1.0,399.0,523.0,0.0,0,2078.0,0
1199,1199,0.791963426574468,0.8,1.0,1.0,413.0,773.0,0.0,0,1814.0,0
1200,1200,-0.5868993040782111,-0.6,1.0,0.0,278.0,788.0,0.0,0,1934.0,1
1201,1201,0.2616038596425755,0.3,0.0,0.0,390.0,882.0,0.0,1,-1262.0,1
1202,1202,0.867295282706127,0.9,0.0,0.0,495.0,713.0,0.0,1,1792.0,1
1203,1203,-0.30151526522347605,-0.3,0.0,1.0,266.0,854.0,0.0,1,1880.0,0
1204,1204,-0.01904610476778168,-0.0,1.0,0.0,276.0,955.0,0.0,0,1769.0,1
1205,1205,-0.5939720247617218,-0.6,1.0,0.0,396.0,582.0,0.0,0,2022.0,1
1206,1206,-0.46859621218368674,-0.5,1.0,0.0,305.0,881.0,0.0,0,1814.0,1
1207,1207,0.5258806623288997,0.5,0.0,0.0,395.0,596.0,0.0,1,2009.0,1
1208,1208,0.0022887536252100826,0.0,0.0,0.0,402.0,541.0,0.0,1,2057.0,1
1209,1209,-0.5896619047591543,-0.6,1.0,0.0,489.0,682.0,0.0,0,1829.0,1
1210,1210,-0.8009194462645431,-0.8,1.0,0.0,344.0,531.0,0.0,0,2125.0,1
1211,1211,0.3785770055905734,0.4,0.0,0.0,280.0,876.0,0.0,1,1844.0,1
1212,1212,0.8295230697931782,0.8,0.0,0.0,382.0,908.0,0.0,1,1710.0,1
1213,1213,0.4100470286893051,0.4,0.0,0.0,376.0,634.0,0.0,1,1990.0,1
1214,1214,0.6622599596368087,0.7,1.0,1.0,332.0,559.0,0.0,0,2109.0,0
1215,1215,-0.3054326513637591,-0.3,0.0,1.0,407.0,770.0,0.0,1,1823.0,0
1216,1216,0.43905393572862284,0.4,0.0,0.0,319.0,919.0,0.0,1,1762.0,1
1217,1217,0.3643890363401089,0.4,1.0,1.0,342.0,538.0,0.0,0,2120.0,0
1218,1218,-0.24337367759896555,-0.2,0.0,1.0,459.0,863.0,0.0,1,1678.0,0
1219,1219,-0.5547613506652539,-0.6,0.0,1.0,271.0,729.0,0.0,1,2000.0,0
1220,1220,-0.8916879556494067,-0.9,1.0,0.0,374.0,985.0,0.0,0,1641.0,1
1221,1221,0.6513498678806252,0.7,1.0,1.0,327.0,973.0,0.0,0,-1190.0,0
1222,1222,0.6376347801071028,0.6,0.0,0.0,253.0,931.0,0.0,1,1816.0,1
1223,1223,0.7859377501051771,0.8,0.0,0.0,382.0,695.0,0.0,1,1923.0,1
1224,1224,0.16354766198137327,0.2,0.0,0.0,456.0,722.0,0.0,1,1822.0,1
1225,1225,0.22012864790537956,0.2,1.0,1.0,452.0,956.0,0.0,0,1592.0,0
1226,1226,-0.6777094643719989,-0.7,0.0,1.0,474.0,928.0,0.0,1,1598.0,0
1227,1227,0.28238808304433005,0.3,0.0,0.0,386.0,872.0,0.0,1,1742.0,1
1228,1228,0.2970691180832833,0.3,1.0,1.0,267.0,866.0,0.0,0,1867.0,0
1229,1229,0.358812132146502,0.4,0.0,0.0,341.0,824.0,0.0,1,1835.0,1
1230,1230,0.8740211899383644,0.9,0.0,0.0,349.0,601.0,0.0,1,2050.0,1
1231,1231,0.6635930789242573,0.7,0.0,0.0,296.0,968.0,0.0,1,1736.0,1
1232,1232,-0.13428847204582883,-0.1,0.0,1.0,252.0,790.0,0.0,1,1958.0,0
1233,1233,0.5707186512069112,0.6,0.0,0.0,412.0,623.0,0.0,1,1965.0,1
1234,1234,0.13092673113965414,0.1,0.0,0.0,460.0,791.0,0.0,1,1749.0,1
1235,1235,-0.3155210481857075,-0.3,1.0,0.0,368.0,875.0,0.0,0,1757.0,1
1236,1236,0.4348071005931776,0.4,0.0,0.0,439.0,829.0,0.0,1,1732.0,1
1237,1237,-0.8296460939445107,-0.8,1.0,0.0,384.0,697.0,0.0,0,1919.0,1
1238,1238,-0.18868224078362028,-0.2,1.0,0.0,335.0,993.0,0.0,0,1672.0,1
1239,1239,0.22989841033630076,0.2,1.0,1.0,499.0,988.0,0.0,0,1513.0,0
1240,1240,-0.8422577325556954,-0.8,0.0,1.0,317.0,683.0,0.0,1,2000.0,0
1241,1241,0.3817456607078723,0.4,0.0,0.0,425.0,779.0,0.0,1,1796.0,1
1242,1242,-0.09061959878212344,-0.1,1.0,0.0,422.0,554.0,0.0,0,2024.0,1
1243,1243,0.11795914716028,0.1,0.0,0.0,321.0,893.0,1.0,0,-1194.0,0
1244,1244,0.2167433992223925,0.2,0.0,0.0,352.0,702.0,0.0,1,1946.0,1
1245,1245,0.7822375126166804,0.8,1.0,1.0,372.0,859.0,1.0,1,-1211.0,1
1246,1246,-0.40342970938129297,-0.4,0.0,1.0,332.0,838.0,0.0,1,1830.0,0
1247,1247,0.3454775965829734,0.3,0.0,0.0,428.0,883.0,0.0,1,-1291.0,1
1248,1248,0.0671222047785398,0.1,1.0,1.0,267.0,805.0,0.0,0,1928.0,0
1249,1249,0.1652659550466532,0.2,0.0,0.0,336.0,581.0,0.0,1,2083.0,1
1250,1250,0.3184156738209626,0.3,1.0,1.0,283.0,725.0,0.0,0,1992.0,0
1251,1251,-0.7633431829219658,-0.8,0.0,1.0,266.0,808.0,0.0,1,1926.0,0
1252,1252,0.4078744189747775,0.4,1.0,1.0,445.0,949.0,1.0,1,-1224.0,1
1253,1253,-0.09305610540391829,-0.1,0.0,1.0,459.0,758.0,0.0,1,1783.0,0
1254,1254,0.7146736149510607,0.7,0.0,0.0,413.0,775.0,0.0,1,1812.0,1
1255,1255,0.5408472480940899,0.5,0.0,0.0,279.0,573.0,0.0,1,-822.0,1
1256,1256,0.08006564330359911,0.1,0.0,0.0,420.0,793.0,0.0,1,1787.0,1
1257,1257,0.15465411445828814,0.2,0.0,0.0,289.0,896.0,0.0,1,1815.0,1
1258,1258,0.853494682534003,0.9,1.0,1.0,339.0,965.0,0.0,0,1696.0,0
1259,1259,0.49894065235909457,0.5,1.0,1.0,368.0,837.0,0.0,0,1795.0,0
1260,1260,0.34759458151154543,0.3,0.0,0.0,271.0,808.0,0.0,1,1921.0,1
1261,1261,-0.4545711991767043,-0.5,1.0,0.0,294.0,905.0,0.0,0,1801.0,1
1262,1262,0.4508665221740765,0.5,1.0,1.0,484.0,818.0,0.0,0,1698.0,0
1263,1263,0.3361825177010941,0.3,1.0,1.0,287.0,601.0,0.0,0,2112.0,0
1264,1264,-0.014156364783147524,-0.0,0.0,1.0,287.0,700.0,0.0,1,2013.0,0
1265,1265,0.6276107227799598,0.6,1.0,1.0,454.0,593.0,0.0,0,1953.0,0
1266,1266,-0.6691397301134783,-0.7,1.0,0.0,271.0,871.0,0.0,0,1858.0,1
1267,1267,-0.04138138879245257,-0.0,1.0,0.0,497.0,695.0,0.0,0,1808.0,1
1268,1268,-0.399017077432008,-0.4,0.0,1.0,416.0,869.0,0.0,1,1715.0,0
1269,1269,-0.5446390002663503,-0.5,0.0,1.0,396.0,879.0,0.0,1,1725.0,0
1270,1270,0.5846298070864943,0.6,0.0,0.0,329.0,635.0,0.0,1,2036.0,1
1271,1271,-0.3549571437770409,-0.4,1.0,0.0,267.0,814.0,0.0,0,1919.0,1
1272,1272,-0.6155238852868908,-0.6,1.0,0.0,309.0,699.0,0.0,0,1992.0,1
1273,1273,-0.29351799127827405,-0.3,0.0,1.0,378.0,812.0,0.0,1,1810.0,0
1274,1274,0.5699474391916864,0.6,1.0,1.0,396.0,655.0,0.0,0,1949.0,0
1275,1275,-0.39942769561287894,-0.4,1.0,0.0,489.0,560.0,0.0,0,1951.0,1
1276,1276,0.5474261605612482,0.5,0.0,0.0,453.0,641.0,0.0,1,1906.0,1
1277,1277,-0.22078258876630485,-0.2,1.0,0.0,337.0,593.0,0.0,0,2070.0,1
1278,1278,-0.7061521091361482,-0.7,1.0,0.0,322.0,844.0,0.0,0,1834.0,1
1279,1279,0.37306265677099015,0.4,0.0,0.0,478.0,735.0,0.0,1,1787.0,1
1280,1280,0.1165943787205107,0.1,0.0,0.0,419.0,608.0,0.0,1,1973.0,1
1281,1281,-0.6941292429698163,-0.7,0.0,1.0,399.0,605.0,0.0,1,1996.0,0
1282,1282,-0.8923664740414946,-0.9,0.0,1.0,457.0,923.0,0.0,1,1620.0,0
1283,1283,-0.8674958697395103,-0.9,1.0,0.0,401.0,585.0,0.0,0,2014.0,1
1284,1284,-0.8235437394957785,-0.8,1.0,0.0,457.0,659.0,0.0,0,1884.0,1
1285,1285,-0.22438662500990036,-0.2,0.0,1.0,356.0,575.0,0.0,1,2069.0,0
1286,1286,-0.7875568978625271,-0.8,1.0,0.0,474.0,754.0,0.0,0,1772.0,1
1287,1287,-0.7523080721329665,-0.8,1.0,0.0,278.0,985.0,0.0,0,1737.0,1
1288,1288,0.3697473016950438,0.4,0.0,0.0,275.0,723.0,0.0,1,2002.0,1
1289,1289,0.756753890171599,0.8,1.0,1.0,263.0,684.0,1.0,1,-927.0,1
1290,1290,-0.6996471506703478,-0.7,1.0,0.0,420.0,961.0,0.0,0,1619.0,1
1291,1291,0.043098816240574656,0.0,0.0,0.0,269.0,910.0,0.0,1,1821.0,1
1292,1292,0.8981978077596268,0.9,0.0,0.0,444.0,558.0,0.0,1,1998.0,1
1293,1293,0.4877561965659639,0.5,1.0,1.0,472.0,679.0,0.0,0,1849.0,0
1294,1294,-0.07580761957615545,-0.1,0.0,1.0,449.0,873.0,0.0,1,1678.0,0
1295,1295,0.42810955988449895,0.4,0.0,0.0,384.0,717.0,0.0,1,1899.0,1
1296,1296,-0.6387876848375009,-0.6,1.0,0.0,459.0,691.0,0.0,0,1850.0,1
1297,1297,0.3636387443187191,0.4,1.0,1.0,444.0,838.0,0.0,0,1718.0,0
1298,1298,0.4700279852617376,0.5,1.0,1.0,368.0,937.0,0.0,0,1695.0,0
1299,1299,-0.8094166245973763,-0.8,0.0,1.0,490.0,706.0,0.0,1,1804.0,0
1300,1300,0.5720390679863733,0.6,0.0,0.0,381.0,840.0,0.0,1,1779.0,1
1301,1301,-0.19710939403261585,-0.2,0.0,1.0,369.0,908.0,0.0,1,1723.0,0
1302,1302,-0.6614791969968592,-0.7,0.0,1.0,283.0,717.0,0.0,1,2000.0,0
1303,1303,0.6679320994514423,0.7,0.0,0.0,364.0,986.0,0.0,1,1650.0,1
1304,1304,0.42893547516929476,0.4,1.0,1.0,352.0,837.0,0.0,0,1811.0,0
1305,1305,0.6341332777489638,0.6,0.0,0.0,436.0,538.0,0.0,1,2026.0,1
1306,1306,0.6489484445535793,0.6,0.0,0.0,419.0,716.0,0.0,1,1865.0,1
1307,1307,-0.01907563387617084,-0.0,1.0,0.0,333.0,970.0,0.0,0,1697.0,1
1308,1308,-0.009881777798838698,-0.0,1.0,0.0,260.0,517.0,0.0,0,2223.0,1
1309,1309,-0.5290039605541402,-0.5,1.0,0.0,426.0,522.0,0.0,0,2052.0,1
1310,1310,0.42344754006506136,0.4,1.0,1.0,308.0,988.0,0.0,0,1704.0,0
1311,1311,-0.23919220504759875,-0.2,0.0,1.0,311.0,503.0,0.0,1,2186.0,0
1312,1312,0.4441356393725401,0.4,0.0,0.0,321.0,942.0,0.0,1,1737.0,1
1313,1313,-0.38145911558030277,-0.4,0.0,1.0,251.0,942.0,0.0,1,1807.0,0
1314,1314,0.2768254802735063,0.3,1.0,1.0,482.0,932.0,0.0,0,-1374.0,0
1315,1315,-0.212072646583771,-0.2,0.0,1.0,316.0,959.0,0.0,1,1725.0,0
1316,1316,-0.0931809578938414,-0.1,0.0,1.0,372.0,817.0,0.0,1,1811.0,0
1317,1317,-0.4153335627756888,-0.4,0.0,1.0,344.0,911.0,0.0,1,1745.0,0
1318,1318,-0.445577931385649,-0.4,1.0,0.0,286.0,996.0,0.0,0,1718.0,1
1319,1319,-0.864974769894124,-0.9,0.0,1.0,472.0,874.0,0.0,1,1654.0,0
1320,1320,0.43036168511849826,0.4,1.0,1.0,496.0,653.0,1.0,1,-989.0,1
1321,1321,-0.32523065526146344,-0.3,0.0,1.0,255.0,995.0,0.0,1,1750.0,0
1322,1322,0.8575274074212894,0.9,1.0,1.0,468.0,874.0,0.0,0,1658.0,0
1323,1323,0.4466724423283962,0.4,0.0,0.0,413.0,739.0,1.0,0,-862.0,0
1324,1324,0.6441391487978384,0.6,0.0,0.0,374.0,678.0,0.0,1,1948.0,1
1325,1325,0.42507744199450437,0.4,0.0,0.0,384.0,834.0,0.0,1,1782.0,1
1326,1326,-0.5023732425428833,-0.5,1.0,0.0,261.0,908.0,0.0,0,1831.0,1
1327,1327,0.5518945619810286,0.6,1.0,1.0,429.0,877.0,0.0,0,1694.0,0
1328,1328,-0.23411054988979518,-0.2,0.0,1.0,487.0,842.0,0.0,1,1671.0,0
1329,1329,-0.8812577949847522,-0.9,0.0,1.0,423.0,648.0,0.0,1,1929.0,0
1330,1330,-0.5629360131199306,-0.6,0.0,1.0,447.0,814.0,0.0,1,1739.0,0
1331,1331,-0.27924633358338236,-0.3,0.0,1.0,452.0,681.0,0.0,1,1867.0,0
1332,1332,-0.8963744270511455,-0.9,1.0,0.0,322.0,546.0,0.0,0,2132.0,1
1333,1333,-0.7052751795660496,-0.7,1.0,0.0,444.0,994.0,0.0,0,1562.0,1
1334,1334,-0.25290107264432504,-0.3,1.0,0.0,443.0,933.0,0.0,0,1624.0,1
1335,1335,-0.770249872977876,-0.8,1.0,0.0,454.0,728.0,1.0,1,-1082.0,0
1336,1336,0.04124591707390868,0.0,1.0,1.0,251.0,763.0,0.0,0,1986.0,0
1337,1337,0.278298140535607,0.3,1.0,1.0,261.0,693.0,0.0,0,2046.0,0
1338,1338,-0.2213006022831655,-0.2,0.0,1.0,310.0,998.0,0.0,1,1692.0,0
1339,1339,-0.3275593116265174,-0.3,1.0,0.0,452.0,746.0,0.0,0,1802.0,1
1340,1340,0.07864412330519066,0.1,1.0,1.0,280.0,904.0,0.0,0,1816.0,0
1341,1341,-0.4098821307241321,-0.4,1.0,0.0,266.0,849.0,1.0,1,-1015.0,0
1342,1342,-0.5601286001959953,-0.6,1.0,0.0,323.0,598.0,0.0,0,2079.0,1
1343,1343,-0.5731484375172733,-0.6,0.0,1.0,350.0,661.0,0.0,1,1989.0,0
1344,1344,-0.7210418529460269,-0.7,1.0,0.0,384.0,795.0,1.0,1,-1169.0,0
1345,1345,0.4833842459975747,0.5,1.0,1.0,445.0,679.0,0.0,0,1876.0,0
1346,1346,-0.8516037372126608,-0.9,0.0,1.0,435.0,757.0,0.0,1,1808.0,0
1347,1347,-0.6935679634433053,-0.7,1.0,0.0,435.0,503.0,1.0,1,-658.0,0
1348,1348,0.86163382294601,0.9,1.0,1.0,399.0,509.0,0.0,0,2092.0,0
1349,1349,0.8675288586527049,0.9,0.0,0.0,384.0,685.0,0.0,1,1931.0,1
1350,1350,-0.3660678245282589,-0.4,0.0,1.0,431.0,909.0,0.0,1,1660.0,0
1351,1351,0.8804986752619396,0.9,0.0,0.0,352.0,989.0,0.0,1,1659.0,1
1352,1352,0.6275383501858475,0.6,1.0,1.0,445.0,795.0,0.0,0,1760.0,0
1353,1353,-0.29615263296064176,-0.3,1.0,0.0,329.0,871.0,0.0,0,1800.0,1
1354,1354,0.7825907158555189,0.8,1.0,1.0,350.0,977.0,0.0,0,1673.0,0
1355,1355,0.3496887357602635,0.3,0.0,0.0,486.0,975.0,0.0,1,1539.0,1
1356,1356,-0.6609359792504091,-0.7,1.0,0.0,452.0,575.0,0.0,0,1973.0,1
1357,1357,-0.8407334826027771,-0.8,0.0,1.0,487.0,857.0,0.0,1,-764.0,0
1358,1358,0.10387404284726898,0.1,1.0,1.0,281.0,566.0,0.0,0,2153.0,0
1359,1359,0.15898583774184238,0.2,0.0,0.0,263.0,864.0,0.0,1,1873.0,1
1360,1360,0.8516794852238844,0.9,0.0,0.0,464.0,809.0,0.0,1,1727.0,1
1361,1361,0.6114316544970143,0.6,1.0,1.0,386.0,732.0,0.0,0,1882.0,0
1362,1362,0.7248139946958346,0.7,0.0,0.0,383.0,939.0,0.0,1,1678.0,1
1363,1363,-0.7050926324527325,-0.7,0.0,1.0,303.0,688.0,0.0,1,2009.0,0
1364,1364,-0.3756309717091084,-0.4,0.0,1.0,337.0,549.0,0.0,1,2114.0,0
1365,1365,-0.5079670153061976,-0.5,0.0,1.0,460.0,890.0,0.0,1,1650.0,0
1366,1366,-0.19279676473707852,-0.2,0.0,1.0,385.0,781.0,0.0,1,1834.0,0
1367,1367,-0.6673392865434034,-0.7,0.0,1.0,493.0,923.0,0.0,1,1584.0,0
1368,1368,-0.8833797034309515,-0.9,1.0,0.0,257.0,787.0,0.0,0,1956.0,1
1369,1369,-0.8528167946235486,-0.9,0.0,1.0,261.0,730.0,0.0,1,2009.0,0
1370,1370,0.7928565514469718,0.8,1.0,1.0,250.0,529.0,0.0,0,2221.0,0
1371,1371,0.5195756615916801,0.5,0.0,0.0,338.0,530.0,0.0,1,2132.0,1
1372,1372,0.4532615508986494,0.5,1.0,1.0,421.0,932.0,0.0,0,1647.0,0
1373,1373,0.619438290339479,0.6,1.0,1.0,325.0,786.0,0.0,0,1889.0,0
1374,1374,0.6223685652156007,0.6,0.0,0.0,322.0,561.0,0.0,1,2117.0,1
1375,1375,0.31973762632671543,0.3,0.0,0.0,499.0,903.0,0.0,1,1598.0,1
1376,1376,0.7082721036636891,0.7,0.0,0.0,297.0,517.0,0.0,1,-684.0,1
1377,1377,0.05404785860121453,0.1,0.0,0.0,388.0,855.0,0.0,1,1757.0,1
1378,1378,-0.02511840523346187,-0.0,1.0,0.0,360.0,978.0,0.0,0,1662.0,1
1379,1379,0.41984178357424373,0.4,0.0,0.0,323.0,890.0,0.0,1,1787.0,1
1380,1380,0.3780817409374072,0.4,1.0,1.0,289.0,917.0,0.0,0,1794.0,0
1381,1381,-0.43054261570356456,-0.4,0.0,1.0,435.0,981.0,0.0,1,1584.0,0
1382,1382,-0.7782342170210635,-0.8,1.0,0.0,460.0,677.0,0.0,0,1863.0,1
1383,1383,0.8222172572814895,0.8,1.0,1.0,289.0,834.0,0.0,0,1877.0,0
1384,1384,-0.3989277286928604,-0.4,1.0,0.0,448.0,624.0,0.0,0,1928.0,1
1385,1385,-0.36027193055481566,-0.4,1.0,0.0,286.0,963.0,0.0,0,1751.0,1
1386,1386,-0.5734463413017536,-0.6,1.0,0.0,390.0,570.0,0.0,0,2040.0,1
1387,1387,0.2041238917865763,0.2,0.0,0.0,263.0,535.0,0.0,1,2202.0,1
1388,1388,-0.4744132215043977,-0.5,0.0,1.0,254.0,646.0,0.0,1,2100.0,0
1389,1389,-0.588204510058969,-0.6,1.0,0.0,483.0,871.0,0.0,0,-1314.0,1
1390,1390,0.5254738851064159,0.5,1.0,1.0,422.0,989.0,0.0,0,1589.0,0
1391,1391,0.4122101084231452,0.4,1.0,1.0,284.0,732.0,0.0,0,1984.0,0
1392,1392,0.4310721576280968,0.4,1.0,1.0,490.0,980.0,1.0,1,-1430.0,1
1393,1393,0.7338671241752296,0.7,1.0,1.0,365.0,809.0,0.0,0,1826.0,0
1394,1394,0.8918600123831931,0.9,1.0,1.0,414.0,979.0,0.0,0,1607.0,0
1395,1395,-0.3793937374679601,-0.4,0.0,1.0,357.0,530.0,0.0,1,2113.0,0
1396,1396,-0.11390610036625493,-0.1,0.0,1.0,306.0,785.0,0.0,1,1909.0,0
1397,1397,-0.8985117852752131,-0.9,1.0,0.0,340.0,987.0,0.0,0,1673.0,1
1398,1398,0.5338706052314269,0.5,1.0,1.0,316.0,840.0,0.0,0,1844.0,0
1399,1399,0.17999083613604083,0.2,1.0,1.0,449.0,629.0,0.0,0,1922.0,0
1400,1400,-0.059592251719341904,-0.1,0.0,1.0,257.0,588.0,0.0,1,2155.0,0
1401,1401,-0.7677399354435037,-0.8,0.0,1.0,305.0,565.0,0.0,1,2130.0,0
1402,1402,-0.2517138270631385,-0.3,1.0,0.0,300.0,543.0,0.0,0,2157.0,1
1403,1403,0.7002428679583722,0.7,1.0,1.0,396.0,590.0,0.0,0,2014.0,0
1404,1404,-0.8181046482400609,-0.8,0.0,1.0,496.0,598.0,0.0,1,1906.0,0
1405,1405,-0.26893919570399694,-0.3,1.0,0.0,355.0,823.0,0.0,0,1822.0,1
1406,1406,0.3419403725246305,0.3,1.0,1.0,312.0,521.0,0.0,0,2167.0,0
1407,1407,0.14334530030271597,0.1,0.0,0.0,424.0,920.0,0.0,1,1656.0,1
1408,1408,-0.45983704559845834,-0.5,1.0,0.0,384.0,704.0,0.0,0,1912.0,1
1409,1409,0.3512044712916137,0.4,1.0,1.0,470.0,907.0,0.0,0,1623.0,0
1410,1410,0.6205124644606476,0.6,0.0,0.0,429.0,765.0,0.0,1,1806.0,1
1411,1411,0.6691954380416679,0.7,0.0,0.0,255.0,853.0,0.0,1,1892.0,1
1412,1412,0.6929174372381927,0.7,1.0,1.0,386.0,915.0,0.0,0,1699.0,0
1413,1413,-0.15992039064807695,-0.2,1.0,0.0,370.0,616.0,1.0,1,-986.0,0
1414,1414,0.38093240129742323,0.4,0.0,0.0,384.0,847.0,0.0,1,1769.0,1
1415,1415,-0.44965260308861177,-0.4,1.0,0.0,403.0,909.0,0.0,0,1688.0,1
1416,1416,0.8696116335672831,0.9,0.0,0.0,288.0,790.0,0.0,1,1922.0,1
1417,1417,-0.37307808412572563,-0.4,0.0,1.0,409.0,578.0,0.0,1,2013.0,0
1418,1418,-0.7722579432889498,-0.8,1.0,0.0,443.0,753.0,0.0,0,1804.0,1
1419,1419,-0.331436642421318,-0.3,0.0,1.0,461.0,590.0,0.0,1,-1031.0,0
1420,1420,0.1769696295819566,0.2,1.0,1.0,470.0,988.0,0.0,0,1542.0,0
1421,1421,-0.28043370783712773,-0.3,1.0,0.0,448.0,598.0,0.0,0,1954.0,1
1422,1422,0.7536603394514049,0.8,0.0,0.0,262.0,754.0,0.0,1,1984.0,1
1423,1423,-0.8647068601278669,-0.9,1.0,0.0,420.0,523.0,0.0,0,2057.0,1
1424,1424,-0.1261525584489923,-0.1,1.0,0.0,343.0,686.0,0.0,0,1971.0,1
1425,1425,-0.8968810054578543,-0.9,1.0,0.0,402.0,579.0,0.0,0,2019.0,1
1426,1426,0.088603993736732,0.1,0.0,0.0,448.0,666.0,0.0,1,1886.0,1
1427,1427,0.4138156658760598,0.4,0.0,0.0,393.0,650.0,0.0,1,-823.0,1
1428,1428,0.5658258960744903,0.6,0.0,0.0,389.0,864.0,0.0,1,1747.0,1
1429,1429,0.35945125232324193,0.4,1.0,1.0,340.0,858.0,0.0,0,1802.0,0
1430,1430,-0.5999266813424102,-0.6,1.0,0.0,394.0,818.0,0.0,0,1788.0,1
1431,1431,-0.6755949008815376,-0.7,1.0,0.0,252.0,741.0,0.0,0,2007.0,1
1432,1432,0.06754376495206349,0.1,0.0,0.0,300.0,827.0,0.0,1,1873.0,1
1433,1433,-0.3971450709253327,-0.4,1.0,0.0,302.0,672.0,0.0,0,2026.0,1
1434,1434,-0.5463388463922114,-0.5,0.0,1.0,263.0,637.0,0.0,1,2100.0,0
1435,1435,-0.4124950825704722,-0.4,1.0,0.0,311.0,612.0,0.0,0,-893.0,1
1436,1436,0.08568979191432358,0.1,1.0,1.0,416.0,884.0,0.0,0,1700.0,0
1437,1437,-0.3128851926309564,-0.3,0.0,1.0,348.0,830.0,0.0,1,1822.0,0
1438,1438,0.08693228289698662,0.1,0.0,0.0,258.0,686.0,0.0,1,2056.0,1
1439,1439,0.6990814717523935,0.7,0.0,0.0,475.0,671.0,0.0,1,1854.0,1
1440,1440,-0.33667728944451336,-0.3,0.0,1.0,287.0,727.0,0.0,1,1986.0,0
1441,1441,0.2046134647836978,0.2,1.0,1.0,396.0,931.0,0.0,0,1673.0,0
1442,1442,0.5140584135840053,0.5,0.0,0.0,280.0,575.0,0.0,1,2145.0,1
1443,1443,0.39737788495134885,0.4,0.0,0.0,497.0,904.0,0.0,1,1599.0,1
1444,1444,0.6906863953569996,0.7,0.0,0.0,368.0,849.0,0.0,1,-1217.0,1
1445,1445,0.3000908888738151,0.3,0.0,0.0,315.0,557.0,0.0,1,2128.0,1
1446,1446,-0.4049774115474825,-0.4,0.0,1.0,251.0,583.0,0.0,1,2166.0,0
1447,1447,0.42357006800089214,0.4,0.0,0.0,373.0,599.0,0.0,1,2028.0,1
1448,1448,0.7110338593496509,0.7,1.0,1.0,314.0,865.0,1.0,1,-1109.0,1
1449,1449,0.8922446383773311,0.9,0.0,0.0,353.0,733.0,1.0,0,-1056.0,0
1450,1450,0.4248481577796429,0.4,0.0,0.0,299.0,700.0,0.0,1,2001.0,1
1451,1451,0.5660534725970848,0.6,0.0,0.0,360.0,824.0,0.0,1,1816.0,1
1452,1452,-0.4848490418324378,-0.5,0.0,1.0,440.0,591.0,0.0,1,1969.0,0
1453,1453,-0.12712571952190355,-0.1,1.0,0.0,278.0,708.0,0.0,0,2014.0,1
1454,1454,0.3614515511285311,0.4,0.0,0.0,411.0,626.0,0.0,1,1963.0,1
1455,1455,-0.2842825567723859,-0.3,1.0,0.0,289.0,690.0,0.0,0,2021.0,1
1456,1456,-0.6195989495822866,-0.6,1.0,0.0,271.0,660.0,0.0,0,2069.0,1
1457,1457,-0.8180501363552846,-0.8,0.0,1.0,422.0,918.0,0.0,1,1660.0,0
1458,1458,-0.7996439774032303,-0.8,1.0,0.0,301.0,975.0,0.0,0,1724.0,1
1459,1459,-0.8967229145490114,-0.9,1.0,0.0,307.0,935.0,0.0,0,1758.0,1
1460,1460,0.3548438713794474,0.4,1.0,1.0,401.0,850.0,0.0,0,1749.0,0
1461,1461,0.8747016513160933,0.9,0.0,0.0,439.0,828.0,0.0,1,1733.0,1
1462,1462,-0.5695065456848074,-0.6,1.0,0.0,473.0,972.0,0.0,0,1555.0,1
1463,1463,0.15733386319647902,0.2,0.0,0.0,298.0,881.0,0.0,1,1821.0,1
1464,1464,-0.518136393915029,-0.5,1.0,0.0,469.0,743.0,0.0,0,1788.0,1
1465,1465,0.8970197999378767,0.9,1.0,1.0,392.0,827.0,0.0,0,1781.0,0
1466,1466,0.4530551145218721,0.5,0.0,0.0,255.0,816.0,0.0,1,1929.0,1
1467,1467,0.8591060227245723,0.9,0.0,0.0,463.0,820.0,0.0,1,1717.0,1
1468,1468,0.8159801996603903,0.8,1.0,1.0,437.0,932.0,0.0,0,1631.0,0
1469,1469,-0.7338745237816361,-0.7,0.0,1.0,292.0,935.0,0.0,1,1773.0,0
1470,1470,0.7576061951255749,0.8,1.0,1.0,465.0,808.0,0.0,0,1727.0,0
1471,1471,0.4995732529636182,0.5,1.0,1.0,258.0,802.0,0.0,0,1940.0,0
