,trial,coherence,coherence_bin,green_side,correct_side,target_onset,checker_onset,decision,green_decision,decision_time,correct_decision
0,0,0.17447315672724095,0.2,1.0,1.0,279.0,700.0,1.0,1,1231.0,1
1,1,0.5881847335328984,0.6,1.0,1.0,265.0,971.0,1.0,1,224.0,1
2,2,0.02670766704240557,0.0,0.0,0.0,288.0,828.0,0.0,1,1464.0,1
3,3,0.02850699794425715,0.0,1.0,1.0,488.0,618.0,0.0,0,1894.0,0
4,4,-0.787867815088036,-0.8,1.0,0.0,287.0,963.0,0.0,0,170.0,1
5,5,-0.4432873148838686,-0.4,0.0,1.0,290.0,582.0,1.0,0,318.0,1
6,6,0.24315895235504803,0.2,1.0,1.0,445.0,831.0,1.0,1,644.0,1
7,7,-0.6456619985183945,-0.6,1.0,0.0,421.0,933.0,0.0,0,986.0,1
8,8,0.10050593638441574,0.1,0.0,0.0,475.0,903.0,0.0,1,1622.0,1
9,9,0.39409864972928255,0.4,0.0,0.0,456.0,923.0,0.0,1,301.0,1
10,10,0.6154697025364088,0.6,0.0,0.0,432.0,834.0,0.0,1,184.0,1
11,11,-0.20141790569954254,-0.2,0.0,1.0,393.0,897.0,1.0,0,630.0,1
12,12,0.8469103677304052,0.8,1.0,1.0,344.0,847.0,1.0,1,-91.0,1
13,13,-0.1872056051287383,-0.2,1.0,0.0,309.0,547.0,0.0,0,194.0,1
14,14,-0.26688180260602645,-0.3,1.0,0.0,382.0,534.0,0.0,0,944.0,1
15,15,-0.6279290033918514,-0.6,0.0,1.0,485.0,835.0,1.0,0,400.0,1
16,16,0.38086439188451326,0.4,0.0,0.0,338.0,590.0,0.0,1,462.0,1
17,17,0.44978704373795153,0.4,1.0,1.0,344.0,800.0,1.0,1,486.0,1
18,18,0.17873125404441959,0.2,1.0,1.0,477.0,796.0,1.0,1,1257.0,1
19,19,0.5379857545636783,0.5,0.0,0.0,397.0,828.0,0.0,1,255.0,1
20,20,-0.5379353076994519,-0.5,0.0,1.0,442.0,558.0,1.0,0,430.0,1
21,21,-0.8781044134067743,-0.9,0.0,1.0,265.0,823.0,1.0,0,162.0,1
22,22,-0.8300431515421062,-0.8,1.0,0.0,323.0,581.0,0.0,0,246.0,1
23,23,0.312606167191502,0.3,0.0,0.0,402.0,809.0,0.0,1,1169.0,1
24,24,0.29792828669446847,0.3,1.0,1.0,413.0,652.0,1.0,1,255.0,1
25,25,-0.43064102387841374,-0.4,0.0,1.0,477.0,765.0,1.0,0,198.0,1
26,26,0.01671608549176462,0.0,0.0,0.0,463.0,927.0,0.0,1,-110.0,1
27,27,0.03742939976040993,0.0,0.0,0.0,322.0,591.0,0.0,1,2087.0,1
28,28,-0.6180141347832511,-0.6,1.0,0.0,350.0,771.0,0.0,0,499.0,1
29,29,0.4576959539928437,0.5,0.0,0.0,460.0,904.0,0.0,1,66.0,1
30,30,-0.07237026934602753,-0.1,1.0,0.0,287.0,927.0,0.0,0,1356.0,1
31,31,-0.6462275201747905,-0.6,1.0,0.0,295.0,659.0,0.0,0,176.0,1
32,32,0.7844960618719988,0.8,0.0,0.0,413.0,843.0,0.0,1,194.0,1
33,33,0.6703718760784899,0.7,1.0,1.0,325.0,846.0,1.0,1,359.0,1
34,34,-0.8771206912786615,-0.9,1.0,0.0,380.0,634.0,0.0,0,306.0,1
35,35,-0.6502793050170196,-0.7,1.0,0.0,256.0,972.0,0.0,0,252.0,1
36,36,-0.27676863192564105,-0.3,0.0,1.0,291.0,919.0,1.0,0,470.0,1
37,37,0.2827585450000861,0.3,0.0,0.0,304.0,550.0,0.0,1,1206.0,1
38,38,-0.4989934573826218,-0.5,0.0,1.0,268.0,509.0,1.0,0,373.0,1
39,39,0.4250638776258234,0.4,1.0,1.0,327.0,861.0,1.0,1,452.0,1
40,40,0.3268637789630976,0.3,1.0,1.0,308.0,891.0,0.0,0,31.0,0
41,41,0.5686487355792172,0.6,1.0,1.0,291.0,790.0,1.0,1,219.0,1
42,42,0.0992170189732351,0.1,0.0,0.0,268.0,661.0,0.0,1,31.0,1
43,43,0.6623621358919408,0.7,0.0,0.0,351.0,899.0,0.0,1,210.0,1
44,44,0.7707171236943816,0.8,0.0,0.0,287.0,978.0,0.0,1,-245.0,1
45,45,-0.5000285927125439,-0.5,0.0,1.0,403.0,698.0,1.0,0,169.0,1
46,46,0.002423009884623406,0.0,0.0,0.0,259.0,900.0,1.0,0,1841.0,0
47,47,0.6133545893127371,0.6,1.0,1.0,302.0,702.0,1.0,1,426.0,1
48,48,-0.11691691838816165,-0.1,1.0,0.0,446.0,911.0,0.0,0,1643.0,1
49,49,-0.8072967741123113,-0.8,1.0,0.0,435.0,749.0,0.0,0,156.0,1
50,50,0.2830291311959324,0.3,1.0,1.0,422.0,902.0,1.0,1,806.0,1
51,51,-0.5139918769669862,-0.5,1.0,0.0,452.0,704.0,0.0,0,884.0,1
52,52,0.8962895241955765,0.9,0.0,0.0,265.0,971.0,0.0,1,414.0,1
53,53,0.889079824585386,0.9,0.0,0.0,484.0,997.0,0.0,1,249.0,1
54,54,0.029830886622473574,0.0,0.0,0.0,258.0,986.0,0.0,1,1756.0,1
55,55,-0.32148921901188665,-0.3,0.0,1.0,387.0,695.0,1.0,0,418.0,1
56,56,0.5081897000481518,0.5,0.0,0.0,464.0,714.0,0.0,1,192.0,1
57,57,-0.29909679757144647,-0.3,0.0,1.0,365.0,869.0,0.0,1,-14.0,0
58,58,-0.1350627459034177,-0.1,1.0,0.0,260.0,932.0,0.0,0,98.0,1
59,59,-0.7972647103623521,-0.8,0.0,1.0,431.0,515.0,1.0,0,284.0,1
60,60,-0.3409540750640101,-0.3,1.0,0.0,484.0,503.0,0.0,0,913.0,1
61,61,0.001015354164696003,0.0,1.0,1.0,339.0,851.0,1.0,1,250.0,1
62,62,-0.712909308340875,-0.7,1.0,0.0,481.0,964.0,0.0,0,165.0,1
63,63,-0.18828853712823623,-0.2,1.0,0.0,488.0,920.0,0.0,0,772.0,1
64,64,0.5863025977347466,0.6,0.0,0.0,397.0,917.0,0.0,1,326.0,1
65,65,0.866999577441541,0.9,0.0,0.0,434.0,544.0,0.0,1,282.0,1
66,66,-0.544446676728358,-0.5,0.0,1.0,375.0,685.0,1.0,0,240.0,1
67,67,-0.21199210568537474,-0.2,1.0,0.0,471.0,614.0,0.0,0,1255.0,1
68,68,-0.8989871583443652,-0.9,0.0,1.0,470.0,780.0,1.0,0,280.0,1
69,69,0.6679981701827592,0.7,0.0,0.0,255.0,946.0,0.0,1,-481.0,1
70,70,-0.5736202258391636,-0.6,0.0,1.0,369.0,891.0,1.0,0,310.0,1
71,71,-0.22105218372945312,-0.2,1.0,0.0,412.0,500.0,0.0,0,318.0,1
72,72,0.2387679486260269,0.2,1.0,1.0,265.0,509.0,1.0,1,416.0,1
73,73,-0.7456726877182279,-0.7,1.0,0.0,294.0,890.0,0.0,0,196.0,1
74,74,0.2902680123910194,0.3,0.0,0.0,447.0,780.0,0.0,1,303.0,1
75,75,0.24007015550707822,0.2,0.0,0.0,450.0,509.0,0.0,1,1761.0,1
76,76,0.30027617866220313,0.3,1.0,1.0,286.0,776.0,1.0,1,748.0,1
77,77,0.6618132834396605,0.7,1.0,1.0,424.0,690.0,1.0,1,286.0,1
78,78,0.6814577586499032,0.7,1.0,1.0,396.0,868.0,1.0,1,306.0,1
79,79,0.6814131894855285,0.7,0.0,0.0,334.0,948.0,0.0,1,228.0,1
80,80,-0.8452537455637672,-0.8,1.0,0.0,299.0,914.0,0.0,0,157.0,1
81,81,-0.08985037523195061,-0.1,0.0,1.0,460.0,650.0,0.0,1,1890.0,0
82,82,0.15646073395209503,0.2,1.0,1.0,473.0,854.0,1.0,1,453.0,1
83,83,0.8906844302087186,0.9,1.0,1.0,343.0,890.0,1.0,1,97.0,1
84,84,-0.5975513198189173,-0.6,0.0,1.0,339.0,780.0,1.0,0,611.0,1
85,85,0.8171723017182541,0.8,1.0,1.0,404.0,600.0,1.0,1,236.0,1
86,86,-0.4927860842927199,-0.5,0.0,1.0,371.0,865.0,1.0,0,374.0,1
87,87,0.8210106543697181,0.8,1.0,1.0,491.0,655.0,1.0,1,214.0,1
88,88,-0.5018235924025549,-0.5,0.0,1.0,321.0,649.0,1.0,0,290.0,1
89,89,0.4885622174399026,0.5,0.0,0.0,465.0,927.0,0.0,1,248.0,1
90,90,-0.7344443268874659,-0.7,1.0,0.0,483.0,916.0,0.0,0,-169.0,1
91,91,-0.39663524137812445,-0.4,0.0,1.0,463.0,730.0,1.0,0,407.0,1
92,92,0.4913117332120619,0.5,0.0,0.0,303.0,544.0,0.0,1,213.0,1
93,93,0.16110122013099393,0.2,1.0,1.0,341.0,865.0,1.0,1,444.0,1
94,94,-0.04002917584469967,-0.0,1.0,0.0,406.0,748.0,0.0,0,1846.0,1
95,95,-0.6803535878160567,-0.7,1.0,0.0,433.0,994.0,0.0,0,113.0,1
96,96,0.8284730766757585,0.8,1.0,1.0,451.0,653.0,1.0,1,246.0,1
97,97,-0.2887452700934582,-0.3,1.0,0.0,418.0,575.0,0.0,0,517.0,1
98,98,0.18262847988228603,0.2,1.0,1.0,470.0,644.0,1.0,1,1316.0,1
99,99,0.48102241822423075,0.5,1.0,1.0,287.0,539.0,1.0,1,314.0,1
100,100,0.66944585096524,0.7,0.0,0.0,493.0,914.0,0.0,1,603.0,1
101,101,0.20373884767074057,0.2,0.0,0.0,406.0,747.0,0.0,1,1317.0,1
102,102,0.1894256396814874,0.2,1.0,1.0,454.0,509.0,1.0,1,987.0,1
103,103,0.6055505558067061,0.6,0.0,0.0,390.0,940.0,0.0,1,260.0,1
104,104,0.716046141106751,0.7,0.0,0.0,400.0,917.0,0.0,1,123.0,1
105,105,0.6163402705469155,0.6,1.0,1.0,251.0,653.0,1.0,1,276.0,1
106,106,-0.39842479838475253,-0.4,0.0,1.0,418.0,577.0,1.0,0,465.0,1
107,107,0.04887728467523467,0.0,0.0,0.0,336.0,524.0,0.0,1,2140.0,1
108,108,0.18986787278113015,0.2,0.0,0.0,423.0,734.0,0.0,1,733.0,1
109,109,-0.8881125124855577,-0.9,1.0,0.0,297.0,873.0,0.0,0,180.0,1
110,110,0.1806412095698663,0.2,1.0,1.0,484.0,839.0,1.0,1,837.0,1
111,111,-0.5580462913192399,-0.6,0.0,1.0,280.0,607.0,1.0,0,193.0,1
112,112,0.5636411416427708,0.6,0.0,0.0,385.0,746.0,0.0,1,669.0,1
113,113,0.38744812378933136,0.4,0.0,0.0,434.0,542.0,0.0,1,384.0,1
114,114,-0.1239883073626582,-0.1,0.0,1.0,359.0,578.0,1.0,0,353.0,1
115,115,0.2329541315166076,0.2,1.0,1.0,379.0,608.0,1.0,1,1423.0,1
116,116,-0.6000325438889402,-0.6,1.0,0.0,364.0,849.0,0.0,0,437.0,1
117,117,-0.8207900914281373,-0.8,1.0,0.0,322.0,981.0,0.0,0,347.0,1
118,118,-0.11288119851169676,-0.1,1.0,0.0,269.0,723.0,0.0,0,1368.0,1
119,119,-0.11416854045944869,-0.1,0.0,1.0,390.0,672.0,1.0,0,1938.0,1
120,120,0.6793075981839866,0.7,1.0,1.0,301.0,534.0,1.0,1,215.0,1
121,121,0.7624320286730305,0.8,1.0,1.0,420.0,970.0,1.0,1,170.0,1
122,122,-0.38091639165095115,-0.4,0.0,1.0,312.0,610.0,1.0,0,668.0,1
123,123,-0.5475310187959781,-0.5,1.0,0.0,434.0,821.0,0.0,0,625.0,1
124,124,0.15210996011218458,0.2,0.0,0.0,289.0,905.0,0.0,1,646.0,1
125,125,0.0620309686366296,0.1,0.0,0.0,408.0,529.0,0.0,1,1333.0,1
126,126,0.3910461261263164,0.4,1.0,1.0,299.0,895.0,1.0,1,256.0,1
127,127,0.8298946548241785,0.8,0.0,0.0,400.0,611.0,0.0,1,319.0,1
128,128,0.5400803359828675,0.5,1.0,1.0,251.0,838.0,1.0,1,361.0,1
129,129,0.4293538764560195,0.4,0.0,0.0,428.0,532.0,0.0,1,1250.0,1
130,130,-0.8402236476100801,-0.8,0.0,1.0,281.0,850.0,1.0,0,129.0,1
131,131,0.8914256239722796,0.9,0.0,0.0,337.0,547.0,0.0,1,156.0,1
132,132,0.04243288575193682,0.0,1.0,1.0,296.0,984.0,0.0,0,1720.0,0
133,133,0.5481099118088008,0.5,1.0,1.0,319.0,535.0,1.0,1,306.0,1
134,134,-0.24923948662536055,-0.2,1.0,0.0,348.0,611.0,0.0,0,521.0,1
135,135,0.1288843542883441,0.1,1.0,1.0,494.0,796.0,1.0,1,1260.0,1
136,136,-0.017481185120654663,-0.0,0.0,1.0,402.0,512.0,0.0,1,2086.0,0
137,137,0.6563633063274869,0.7,0.0,0.0,330.0,695.0,0.0,1,285.0,1
138,138,0.08158454770854007,0.1,1.0,1.0,453.0,810.0,1.0,1,1737.0,1
139,139,-0.650890969963126,-0.7,0.0,1.0,420.0,671.0,1.0,0,259.0,1
140,140,0.6610056222892552,0.7,0.0,0.0,403.0,723.0,0.0,1,174.0,1
141,141,-0.0999460908540889,-0.1,0.0,1.0,435.0,903.0,1.0,0,1662.0,1
142,142,0.19965711048431134,0.2,0.0,0.0,309.0,557.0,0.0,1,394.0,1
143,143,-0.5437090401885722,-0.5,0.0,1.0,274.0,975.0,1.0,0,291.0,1
144,144,-0.5053626134298671,-0.5,0.0,1.0,391.0,998.0,1.0,0,631.0,1
145,145,0.33979280271151235,0.3,0.0,0.0,409.0,685.0,0.0,1,416.0,1
146,146,0.6999550970500003,0.7,0.0,0.0,341.0,549.0,0.0,1,110.0,1
147,147,0.5730030151092625,0.6,1.0,1.0,265.0,612.0,1.0,1,443.0,1
148,148,-0.3662811177452976,-0.4,0.0,1.0,260.0,977.0,1.0,0,723.0,1
149,149,-0.892214663913352,-0.9,0.0,1.0,436.0,901.0,1.0,0,333.0,1
150,150,-0.7879028788994491,-0.8,1.0,0.0,293.0,631.0,0.0,0,66.0,1
151,151,0.20946508396218266,0.2,1.0,1.0,429.0,524.0,1.0,1,497.0,1
152,152,0.8911164527468457,0.9,0.0,0.0,344.0,806.0,0.0,1,130.0,1
153,153,0.10572986173313914,0.1,1.0,1.0,263.0,642.0,1.0,1,1715.0,1
154,154,0.25278678696002477,0.3,1.0,1.0,253.0,798.0,1.0,1,529.0,1
155,155,-0.23132396571826486,-0.2,1.0,0.0,405.0,529.0,0.0,0,1266.0,1
156,156,0.3918185789183256,0.4,1.0,1.0,425.0,965.0,1.0,1,330.0,1
157,157,-0.38472999277801667,-0.4,0.0,1.0,479.0,884.0,1.0,0,327.0,1
158,158,0.4214809667224356,0.4,1.0,1.0,456.0,517.0,1.0,1,347.0,1
159,159,-0.6549045631242085,-0.7,0.0,1.0,256.0,999.0,1.0,0,185.0,1
160,160,-0.744141680908297,-0.7,0.0,1.0,431.0,890.0,1.0,0,249.0,1
161,161,0.8883106855715827,0.9,1.0,1.0,388.0,995.0,1.0,1,227.0,1
162,162,0.6738295301892124,0.7,0.0,0.0,446.0,691.0,0.0,1,223.0,1
163,163,-0.3045578739953677,-0.3,1.0,0.0,461.0,806.0,0.0,0,263.0,1
164,164,0.8803667797664124,0.9,1.0,1.0,362.0,590.0,1.0,1,98.0,1
165,165,-0.8302941641941363,-0.8,1.0,0.0,277.0,990.0,0.0,0,153.0,1
166,166,0.3428029066130919,0.3,0.0,0.0,329.0,609.0,0.0,1,502.0,1
167,167,0.250997008357016,0.3,1.0,1.0,438.0,717.0,1.0,1,805.0,1
168,168,0.8689730898491276,0.9,0.0,0.0,493.0,872.0,0.0,1,175.0,1
169,169,0.8893375638020268,0.9,1.0,1.0,475.0,538.0,1.0,1,237.0,1
170,170,-0.36047021617095676,-0.4,1.0,0.0,335.0,590.0,0.0,0,275.0,1
171,171,-0.8742504518339489,-0.9,0.0,1.0,262.0,537.0,1.0,0,141.0,1
172,172,-0.4094245728222502,-0.4,0.0,1.0,319.0,658.0,1.0,0,443.0,1
173,173,0.7312749271506059,0.7,0.0,0.0,260.0,576.0,0.0,1,204.0,1
174,174,-0.5172730240859147,-0.5,1.0,0.0,296.0,974.0,0.0,0,190.0,1
175,175,-0.5274046127922093,-0.5,1.0,0.0,434.0,956.0,0.0,0,160.0,1
176,176,-0.8544038592403019,-0.9,0.0,1.0,388.0,891.0,1.0,0,321.0,1
177,177,0.21546503216063295,0.2,1.0,1.0,309.0,540.0,1.0,1,1121.0,1
178,178,-0.2094568725468563,-0.2,0.0,1.0,318.0,764.0,1.0,0,1918.0,1
179,179,-0.582209325477459,-0.6,1.0,0.0,495.0,615.0,0.0,0,-100.0,1
180,180,-0.2983639247621229,-0.3,0.0,1.0,429.0,899.0,1.0,0,252.0,1
181,181,-0.8077479606730141,-0.8,1.0,0.0,266.0,688.0,1.0,1,-164.0,0
182,182,-0.30515073559881933,-0.3,0.0,1.0,468.0,775.0,1.0,0,247.0,1
183,183,-0.5716023326270607,-0.6,1.0,0.0,448.0,789.0,0.0,0,303.0,1
184,184,0.8166979852513031,0.8,0.0,0.0,487.0,900.0,0.0,1,363.0,1
185,185,0.41978739507540597,0.4,1.0,1.0,422.0,991.0,1.0,1,217.0,1
186,186,-0.6723975912030499,-0.7,0.0,1.0,276.0,680.0,1.0,0,244.0,1
187,187,0.23245637348234494,0.2,0.0,0.0,377.0,958.0,0.0,1,465.0,1
188,188,-0.4694144665110203,-0.5,0.0,1.0,294.0,516.0,1.0,0,300.0,1
189,189,-0.6007223046459966,-0.6,0.0,1.0,443.0,955.0,1.0,0,192.0,1
190,190,-0.19371642764921837,-0.2,0.0,1.0,417.0,619.0,1.0,0,1054.0,1
191,191,-0.6022993489556221,-0.6,1.0,0.0,446.0,816.0,0.0,0,498.0,1
192,192,0.26768878245386485,0.3,0.0,0.0,382.0,686.0,0.0,1,182.0,1
193,193,-0.017319462427575205,-0.0,0.0,1.0,488.0,941.0,0.0,1,1571.0,0
194,194,-0.057028082588981954,-0.1,1.0,0.0,363.0,847.0,1.0,1,1220.0,0
195,195,0.2709721738212868,0.3,1.0,1.0,273.0,959.0,0.0,0,-2.0,0
196,196,-0.823502651660992,-0.8,0.0,1.0,311.0,595.0,1.0,0,204.0,1
197,197,0.6779614424188402,0.7,0.0,0.0,284.0,671.0,0.0,1,165.0,1
198,198,0.3322985002713613,0.3,0.0,0.0,385.0,758.0,0.0,1,1007.0,1
199,199,0.25140892938315773,0.3,0.0,0.0,423.0,601.0,0.0,1,676.0,1
200,200,-0.07069735999197435,-0.1,0.0,1.0,338.0,920.0,1.0,0,1742.0,1
201,201,-0.5778948483980402,-0.6,1.0,0.0,257.0,729.0,0.0,0,434.0,1
202,202,0.7020168169976663,0.7,1.0,1.0,273.0,875.0,1.0,1,202.0,1
203,203,-0.7511670280269616,-0.8,0.0,1.0,415.0,906.0,1.0,0,299.0,1
204,204,0.677572818430887,0.7,1.0,1.0,286.0,720.0,1.0,1,154.0,1
205,205,-0.658303303926626,-0.7,0.0,1.0,487.0,787.0,1.0,0,326.0,1
206,206,0.6796798322412,0.7,1.0,1.0,402.0,925.0,1.0,1,173.0,1
207,207,-0.2516302433144234,-0.3,0.0,1.0,460.0,621.0,1.0,0,899.0,1
208,208,0.4750096619453942,0.5,0.0,0.0,321.0,925.0,0.0,1,164.0,1
209,209,0.2198015931978513,0.2,0.0,0.0,424.0,977.0,0.0,1,799.0,1
210,210,0.4845633414908045,0.5,0.0,0.0,349.0,634.0,0.0,1,377.0,1
211,211,0.7352639734592527,0.7,1.0,1.0,430.0,979.0,1.0,1,141.0,1
212,212,0.5233512914830295,0.5,0.0,0.0,289.0,920.0,0.0,1,161.0,1
213,213,0.5548262152035662,0.6,1.0,1.0,384.0,565.0,1.0,1,301.0,1
214,214,0.23315093500872563,0.2,0.0,0.0,412.0,630.0,0.0,1,1958.0,1
215,215,0.4098281285105173,0.4,1.0,1.0,278.0,817.0,1.0,1,275.0,1
216,216,-0.24639097480667727,-0.2,1.0,0.0,408.0,795.0,0.0,0,277.0,1
217,217,0.39662287654330297,0.4,0.0,0.0,443.0,707.0,0.0,1,230.0,1
218,218,0.6272763534420186,0.6,1.0,1.0,375.0,980.0,1.0,1,155.0,1
219,219,0.05517528562495744,0.1,1.0,1.0,436.0,683.0,1.0,1,1881.0,1
220,220,0.38170238686113944,0.4,1.0,1.0,256.0,783.0,1.0,1,211.0,1
221,221,-0.866785087762927,-0.9,1.0,0.0,478.0,837.0,0.0,0,145.0,1
222,222,0.3519426911480449,0.4,1.0,1.0,280.0,630.0,1.0,1,650.0,1
223,223,-0.22749078107389586,-0.2,0.0,1.0,349.0,880.0,1.0,0,921.0,1
224,224,-0.15806330708054828,-0.2,1.0,0.0,396.0,516.0,0.0,0,1248.0,1
225,225,-0.8534552968015882,-0.9,0.0,1.0,435.0,631.0,1.0,0,114.0,1
226,226,-0.4686204297254945,-0.5,0.0,1.0,481.0,657.0,1.0,0,482.0,1
227,227,0.3084024785556777,0.3,1.0,1.0,463.0,649.0,1.0,1,1258.0,1
228,228,0.060046746602441914,0.1,0.0,0.0,300.0,966.0,0.0,1,824.0,1
229,229,0.6264788202939381,0.6,0.0,0.0,370.0,726.0,0.0,1,134.0,1
230,230,0.8781104293494179,0.9,1.0,1.0,380.0,897.0,1.0,1,123.0,1
231,231,0.6338775475340196,0.6,1.0,1.0,498.0,708.0,1.0,1,184.0,1
232,232,0.18505948512019266,0.2,0.0,0.0,485.0,866.0,0.0,1,709.0,1
233,233,-0.19322201274368678,-0.2,0.0,1.0,275.0,836.0,1.0,0,489.0,1
234,234,0.69068275817087,0.7,1.0,1.0,380.0,811.0,1.0,1,139.0,1
235,235,0.881098749452255,0.9,0.0,0.0,460.0,773.0,0.0,1,107.0,1
236,236,-0.4286072857870166,-0.4,0.0,1.0,309.0,693.0,1.0,0,358.0,1
237,237,0.3118976016021854,0.3,1.0,1.0,310.0,571.0,1.0,1,729.0,1
238,238,0.4272945493687793,0.4,0.0,0.0,281.0,591.0,0.0,1,288.0,1
239,239,-0.8136677585038823,-0.8,1.0,0.0,371.0,510.0,0.0,0,169.0,1
240,240,-0.16636732077004046,-0.2,1.0,0.0,303.0,626.0,0.0,0,1081.0,1
241,241,0.6515920224538733,0.7,1.0,1.0,456.0,538.0,1.0,1,316.0,1
242,242,0.37936512364868447,0.4,1.0,1.0,380.0,915.0,1.0,1,485.0,1
243,243,0.8281387791946734,0.8,1.0,1.0,317.0,604.0,1.0,1,319.0,1
244,244,0.22016666071995117,0.2,0.0,0.0,428.0,749.0,0.0,1,563.0,1
245,245,0.3805269528451868,0.4,0.0,0.0,380.0,624.0,0.0,1,246.0,1
246,246,-0.2297361748053245,-0.2,0.0,1.0,473.0,627.0,1.0,0,260.0,1
247,247,0.5277618893833623,0.5,0.0,0.0,310.0,616.0,0.0,1,184.0,1
248,248,-0.6234909104089161,-0.6,0.0,1.0,405.0,868.0,1.0,0,157.0,1
249,249,-0.8899203086518178,-0.9,0.0,1.0,309.0,816.0,1.0,0,165.0,1
250,250,-0.0350061783319513,-0.0,1.0,0.0,412.0,803.0,0.0,0,1785.0,1
251,251,-0.36124966250202273,-0.4,0.0,1.0,335.0,863.0,1.0,0,302.0,1
252,252,0.842940380882658,0.8,0.0,0.0,447.0,729.0,0.0,1,104.0,1
253,253,-0.028563377211538454,-0.0,1.0,0.0,409.0,592.0,1.0,1,1999.0,0
254,254,0.2568171055491436,0.3,1.0,1.0,339.0,575.0,1.0,1,586.0,1
255,255,-0.4259521469218494,-0.4,0.0,1.0,404.0,789.0,1.0,0,407.0,1
256,256,0.04489963321197665,0.0,0.0,0.0,280.0,743.0,0.0,1,1977.0,1
257,257,-0.4967383403018016,-0.5,1.0,0.0,298.0,927.0,0.0,0,265.0,1
258,258,0.36525222407782787,0.4,0.0,0.0,279.0,952.0,0.0,1,429.0,1
259,259,-0.8461119288600009,-0.8,1.0,0.0,326.0,865.0,0.0,0,309.0,1
260,260,-0.5237980895417129,-0.5,0.0,1.0,491.0,961.0,1.0,0,388.0,1
261,261,-0.5580998992121557,-0.6,1.0,0.0,443.0,626.0,0.0,0,321.0,1
262,262,-0.5793542047377997,-0.6,1.0,0.0,360.0,705.0,0.0,0,545.0,1
263,263,-0.524318747537228,-0.5,1.0,0.0,373.0,540.0,0.0,0,347.0,1
264,264,0.0858519909569102,0.1,0.0,0.0,269.0,512.0,0.0,1,1429.0,1
265,265,-0.18952091039074714,-0.2,0.0,1.0,399.0,515.0,1.0,0,686.0,1
266,266,0.1676818288435361,0.2,0.0,0.0,480.0,927.0,0.0,1,913.0,1
267,267,-0.16539345617734946,-0.2,0.0,1.0,381.0,915.0,1.0,0,584.0,1
268,268,-0.7316574615416548,-0.7,1.0,0.0,488.0,541.0,0.0,0,211.0,1
269,269,-0.817117751795349,-0.8,0.0,1.0,356.0,716.0,1.0,0,318.0,1
270,270,0.5330925283580384,0.5,1.0,1.0,302.0,778.0,1.0,1,370.0,1
271,271,0.5192453312145547,0.5,1.0,1.0,486.0,800.0,1.0,1,304.0,1
272,272,-0.779929572889619,-0.8,1.0,0.0,373.0,894.0,0.0,0,43.0,1
273,273,0.2577046536782165,0.3,1.0,1.0,495.0,580.0,1.0,1,195.0,1
274,274,-0.10536680806630405,-0.1,0.0,1.0,358.0,575.0,1.0,0,2067.0,1
275,275,0.734542008570448,0.7,1.0,1.0,448.0,674.0,1.0,1,158.0,1
276,276,-0.49492417766187136,-0.5,0.0,1.0,445.0,714.0,1.0,0,271.0,1
277,277,0.5262185663575824,0.5,0.0,0.0,418.0,727.0,0.0,1,235.0,1
278,278,0.32321704468939394,0.3,0.0,0.0,459.0,622.0,0.0,1,829.0,1
279,279,0.7722231796692735,0.8,0.0,0.0,460.0,840.0,0.0,1,470.0,1
280,280,0.8264181747756315,0.8,1.0,1.0,296.0,945.0,1.0,1,99.0,1
281,281,0.7279998207481247,0.7,1.0,1.0,419.0,847.0,1.0,1,244.0,1
282,282,-0.6827260528136405,-0.7,1.0,0.0,435.0,724.0,0.0,0,341.0,1
283,283,-0.1491784284974158,-0.1,0.0,1.0,396.0,639.0,1.0,0,1965.0,1
284,284,-0.5657898892728833,-0.6,1.0,0.0,309.0,593.0,0.0,0,348.0,1
285,285,0.40252301597111273,0.4,0.0,0.0,275.0,569.0,0.0,1,676.0,1
286,286,0.23296776524615603,0.2,0.0,0.0,474.0,720.0,0.0,1,386.0,1
287,287,-0.009438715228450745,-0.0,1.0,0.0,441.0,622.0,0.0,0,1587.0,1
288,288,0.5562571152489287,0.6,0.0,0.0,279.0,706.0,0.0,1,245.0,1
289,289,-0.7799176319203094,-0.8,0.0,1.0,253.0,854.0,1.0,0,173.0,1
290,290,-0.6138140251679187,-0.6,1.0,0.0,333.0,645.0,0.0,0,272.0,1
291,291,0.8137620744369903,0.8,1.0,1.0,373.0,557.0,1.0,1,250.0,1
292,292,0.14939081698460932,0.1,0.0,0.0,472.0,535.0,0.0,1,933.0,1
293,293,-0.792727434144363,-0.8,0.0,1.0,326.0,927.0,1.0,0,187.0,1
294,294,0.4558483385566269,0.5,0.0,0.0,411.0,558.0,0.0,1,201.0,1
295,295,-0.26597638545764024,-0.3,0.0,1.0,275.0,927.0,1.0,0,308.0,1
296,296,0.2547210844189297,0.3,1.0,1.0,303.0,694.0,1.0,1,733.0,1
297,297,0.7890604824633362,0.8,1.0,1.0,489.0,642.0,1.0,1,189.0,1
298,298,-0.17181795388375365,-0.2,1.0,0.0,382.0,718.0,0.0,0,780.0,1
299,299,-0.8656654797501797,-0.9,1.0,0.0,321.0,539.0,0.0,0,180.0,1
300,300,-0.7432603190688369,-0.7,1.0,0.0,382.0,752.0,0.0,0,176.0,1
301,301,0.566017390982751,0.6,1.0,1.0,330.0,982.0,0.0,0,-402.0,0
302,302,-0.08912370613866127,-0.1,0.0,1.0,357.0,727.0,1.0,0,1916.0,1
303,303,-0.8873529216566103,-0.9,1.0,0.0,434.0,802.0,0.0,0,154.0,1
304,304,-0.5400203794571008,-0.5,1.0,0.0,318.0,727.0,0.0,0,265.0,1
305,305,0.47208019861019557,0.5,0.0,0.0,405.0,767.0,0.0,1,58.0,1
306,306,-0.10216795856775263,-0.1,0.0,1.0,349.0,841.0,1.0,0,1810.0,1
307,307,0.7147190652349681,0.7,1.0,1.0,472.0,577.0,1.0,1,251.0,1
308,308,-0.8150360802479168,-0.8,0.0,1.0,270.0,927.0,1.0,0,123.0,1
309,309,0.7498228766567291,0.7,0.0,0.0,319.0,860.0,0.0,1,181.0,1
310,310,-0.4660407961359591,-0.5,0.0,1.0,324.0,613.0,1.0,0,373.0,1
311,311,0.12673190440109205,0.1,0.0,0.0,442.0,728.0,0.0,1,1830.0,1
312,312,0.0033758247454698243,0.0,0.0,0.0,435.0,832.0,1.0,0,1003.0,0
313,313,0.5565197639209182,0.6,1.0,1.0,378.0,522.0,1.0,1,410.0,1
314,314,-0.3491829415777512,-0.3,1.0,0.0,376.0,716.0,0.0,0,758.0,1
315,315,-0.17057824434863555,-0.2,0.0,1.0,312.0,538.0,1.0,0,310.0,1
316,316,0.06431012819282944,0.1,1.0,1.0,485.0,690.0,1.0,1,1825.0,1
317,317,-0.3115745664805093,-0.3,1.0,0.0,348.0,932.0,0.0,0,730.0,1
318,318,-0.2652714552330503,-0.3,1.0,0.0,331.0,505.0,0.0,0,564.0,1
319,319,0.5872743089336522,0.6,1.0,1.0,374.0,535.0,1.0,1,221.0,1
320,320,0.36103177374882967,0.4,1.0,1.0,261.0,919.0,1.0,1,280.0,1
321,321,0.03501353717785016,0.0,1.0,1.0,373.0,698.0,1.0,1,1099.0,1
322,322,0.0345449156722093,0.0,0.0,0.0,285.0,638.0,0.0,1,1727.0,1
323,323,0.22728080042628152,0.2,0.0,0.0,358.0,993.0,0.0,1,1169.0,1
324,324,-0.16897619766518568,-0.2,0.0,1.0,410.0,566.0,1.0,0,2024.0,1
325,325,-0.08734949787946211,-0.1,1.0,0.0,327.0,761.0,0.0,0,892.0,1
326,326,0.3456937718228007,0.3,1.0,1.0,266.0,513.0,1.0,1,201.0,1
327,327,0.8757607569078135,0.9,0.0,0.0,368.0,694.0,0.0,1,498.0,1
328,328,-0.8396445143270067,-0.8,1.0,0.0,479.0,723.0,0.0,0,108.0,1
329,329,0.09479972913266699,0.1,0.0,0.0,268.0,956.0,0.0,1,1346.0,1
330,330,-0.6457281835655062,-0.6,1.0,0.0,460.0,928.0,0.0,0,382.0,1
331,331,-0.14935964286883818,-0.1,1.0,0.0,429.0,596.0,0.0,0,1975.0,1
332,332,-0.29185259702689526,-0.3,1.0,0.0,464.0,829.0,0.0,0,1047.0,1
333,333,-0.6633683078351289,-0.7,1.0,0.0,386.0,656.0,0.0,0,368.0,1
334,334,0.02847053787840792,0.0,0.0,0.0,476.0,878.0,1.0,0,1646.0,0
335,335,0.5073200662163256,0.5,1.0,1.0,471.0,822.0,1.0,1,377.0,1
336,336,-0.26816751577412223,-0.3,0.0,1.0,257.0,857.0,1.0,0,1026.0,1
337,337,-0.03398698213635165,-0.0,1.0,0.0,355.0,928.0,0.0,0,1697.0,1
338,338,0.7559195148802688,0.8,1.0,1.0,426.0,563.0,0.0,0,-199.0,0
339,339,-0.8797262878663381,-0.9,1.0,0.0,420.0,617.0,0.0,0,363.0,1
340,340,-0.22004131738795296,-0.2,0.0,1.0,448.0,849.0,1.0,0,693.0,1
341,341,-0.5054845457382355,-0.5,0.0,1.0,494.0,776.0,1.0,0,420.0,1
342,342,0.8124278361252156,0.8,0.0,0.0,322.0,810.0,0.0,1,318.0,1
343,343,-0.564402193587122,-0.6,1.0,0.0,349.0,950.0,0.0,0,191.0,1
344,344,0.367716713756561,0.4,1.0,1.0,354.0,784.0,1.0,1,202.0,1
345,345,0.04961844650280123,0.0,1.0,1.0,324.0,531.0,0.0,0,2145.0,0
346,346,0.7795397623632284,0.8,0.0,0.0,362.0,618.0,0.0,1,480.0,1
347,347,-0.04104143074193922,-0.0,1.0,0.0,335.0,559.0,0.0,0,1406.0,1
348,348,-0.6862124268525565,-0.7,1.0,0.0,493.0,690.0,0.0,0,97.0,1
349,349,0.8215388664800946,0.8,1.0,1.0,393.0,775.0,0.0,0,-8.0,0
350,350,-0.4621961978575617,-0.5,1.0,0.0,337.0,692.0,0.0,0,91.0,1
351,351,0.20957823023681843,0.2,0.0,0.0,330.0,788.0,0.0,1,1882.0,1
352,352,0.8570323275870365,0.9,0.0,0.0,369.0,869.0,0.0,1,212.0,1
353,353,-0.12685214557176294,-0.1,0.0,1.0,402.0,610.0,1.0,0,1418.0,1
354,354,-0.816162256298318,-0.8,1.0,0.0,431.0,833.0,1.0,1,-4.0,0
355,355,-0.4841945126336679,-0.5,0.0,1.0,311.0,776.0,1.0,0,523.0,1
356,356,-0.35262848478513986,-0.4,0.0,1.0,292.0,983.0,1.0,0,435.0,1
357,357,0.525985661863465,0.5,1.0,1.0,480.0,972.0,1.0,1,398.0,1
358,358,0.6390489271486753,0.6,0.0,0.0,316.0,748.0,0.0,1,296.0,1
359,359,-0.3507581150905764,-0.4,1.0,0.0,368.0,706.0,0.0,0,156.0,1
360,360,-0.7063602824076974,-0.7,1.0,0.0,439.0,823.0,0.0,0,138.0,1
361,361,0.5513830695144809,0.6,1.0,1.0,402.0,748.0,1.0,1,140.0,1
362,362,0.7204337145931267,0.7,1.0,1.0,489.0,775.0,1.0,1,306.0,1
363,363,-0.7119750455031587,-0.7,1.0,0.0,361.0,938.0,0.0,0,181.0,1
364,364,-0.547467955218665,-0.5,1.0,0.0,434.0,531.0,0.0,0,145.0,1
365,365,-0.05104626482962271,-0.1,0.0,1.0,287.0,902.0,1.0,0,1811.0,1
366,366,-0.33625740587918296,-0.3,0.0,1.0,332.0,940.0,1.0,0,998.0,1
367,367,0.70593858638855,0.7,0.0,0.0,304.0,971.0,0.0,1,155.0,1
368,368,0.8053204242186999,0.8,0.0,0.0,388.0,858.0,0.0,1,174.0,1
369,369,0.36518184103672857,0.4,1.0,1.0,384.0,660.0,1.0,1,366.0,1
370,370,0.2599026357067863,0.3,0.0,0.0,466.0,728.0,0.0,1,1456.0,1
371,371,-0.1324987166537812,-0.1,0.0,1.0,395.0,781.0,1.0,0,1724.0,1
372,372,-0.07053149501040212,-0.1,1.0,0.0,253.0,745.0,0.0,0,2002.0,1
373,373,0.5730935981405761,0.6,0.0,0.0,266.0,503.0,0.0,1,351.0,1
374,374,-0.4345146104042196,-0.4,0.0,1.0,374.0,635.0,1.0,0,321.0,1
375,375,0.43031597321780646,0.4,1.0,1.0,360.0,616.0,1.0,1,574.0,1
376,376,-0.8077679049446949,-0.8,0.0,1.0,341.0,664.0,1.0,0,175.0,1
377,377,0.6945879918013064,0.7,1.0,1.0,296.0,562.0,1.0,1,352.0,1
378,378,0.027266861221852845,0.0,0.0,0.0,298.0,806.0,0.0,1,1896.0,1
379,379,0.4004817264048929,0.4,0.0,0.0,302.0,699.0,0.0,1,879.0,1
380,380,-0.08136717241502012,-0.1,0.0,1.0,387.0,744.0,1.0,0,1869.0,1
381,381,-0.10600443154950734,-0.1,0.0,1.0,403.0,746.0,1.0,0,1301.0,1
382,382,0.2799942888019954,0.3,0.0,0.0,321.0,736.0,0.0,1,483.0,1
383,383,-0.6528925403228503,-0.7,1.0,0.0,468.0,514.0,0.0,0,148.0,1
384,384,-0.019233780839483128,-0.0,1.0,0.0,421.0,563.0,1.0,1,2016.0,0
385,385,-0.6626834209535353,-0.7,1.0,0.0,438.0,568.0,0.0,0,224.0,1
386,386,0.6785160413958785,0.7,0.0,0.0,308.0,664.0,0.0,1,618.0,1
387,387,-0.8126650770598457,-0.8,1.0,0.0,387.0,931.0,0.0,0,132.0,1
388,388,0.5442544602705287,0.5,0.0,0.0,483.0,965.0,0.0,1,342.0,1
389,389,0.1890136444814351,0.2,1.0,1.0,493.0,526.0,1.0,1,1981.0,1
390,390,0.06390242525463063,0.1,0.0,0.0,416.0,953.0,1.0,0,1631.0,0
391,391,-0.6062334371923057,-0.6,0.0,1.0,468.0,581.0,1.0,0,281.0,1
392,392,-0.5876294981616172,-0.6,1.0,0.0,464.0,603.0,0.0,0,193.0,1
393,393,-0.8259929766569055,-0.8,1.0,0.0,282.0,949.0,0.0,0,139.0,1
394,394,0.43189454958446516,0.4,0.0,0.0,486.0,790.0,0.0,1,474.0,1
395,395,-0.8334494849392409,-0.8,1.0,0.0,497.0,850.0,0.0,0,263.0,1
396,396,-0.7619378742519123,-0.8,1.0,0.0,372.0,729.0,0.0,0,329.0,1
397,397,0.19780655392108926,0.2,0.0,0.0,331.0,711.0,0.0,1,1958.0,1
398,398,-0.4269013292934015,-0.4,1.0,0.0,315.0,681.0,0.0,0,494.0,1
399,399,-0.6866111290935466,-0.7,0.0,1.0,381.0,988.0,1.0,0,311.0,1
400,400,0.06359711622633568,0.1,1.0,1.0,446.0,944.0,1.0,1,1610.0,1
401,401,-0.3306409706667498,-0.3,0.0,1.0,255.0,835.0,1.0,0,500.0,1
402,402,-0.167458267474642,-0.2,0.0,1.0,476.0,827.0,1.0,0,877.0,1
403,403,-0.5804502686839583,-0.6,0.0,1.0,267.0,777.0,1.0,0,486.0,1
404,404,0.8355587369753502,0.8,1.0,1.0,294.0,504.0,1.0,1,242.0,1
405,405,-0.47152265565509416,-0.5,1.0,0.0,306.0,709.0,0.0,0,195.0,1
406,406,-0.5946927106360405,-0.6,1.0,0.0,317.0,919.0,0.0,0,214.0,1
407,407,-0.0640898386748705,-0.1,0.0,1.0,495.0,950.0,1.0,0,1555.0,1
408,408,0.12371985108373795,0.1,1.0,1.0,490.0,574.0,1.0,1,326.0,1
409,409,0.37337251822029327,0.4,0.0,0.0,406.0,998.0,0.0,1,756.0,1
410,410,0.12492688069171665,0.1,1.0,1.0,423.0,940.0,1.0,1,427.0,1
411,411,0.4845859985542845,0.5,0.0,0.0,449.0,815.0,0.0,1,416.0,1
412,412,0.8763690173186752,0.9,1.0,1.0,425.0,665.0,1.0,1,250.0,1
413,413,0.2451297753183147,0.2,0.0,0.0,463.0,984.0,0.0,1,73.0,1
414,414,-0.09519701511127254,-0.1,0.0,1.0,276.0,849.0,1.0,0,1875.0,1
415,415,0.6635764881486131,0.7,1.0,1.0,483.0,692.0,0.0,0,-115.0,0
416,416,-0.1729270539496751,-0.2,0.0,1.0,467.0,751.0,1.0,0,1672.0,1
417,417,0.037298159764098116,0.0,1.0,1.0,377.0,711.0,1.0,1,1912.0,1
418,418,0.7416765612571016,0.7,1.0,1.0,385.0,834.0,1.0,1,101.0,1
419,419,-0.3936666251043117,-0.4,0.0,1.0,361.0,613.0,1.0,0,266.0,1
420,420,-0.42257893517668293,-0.4,0.0,1.0,403.0,590.0,1.0,0,297.0,1
421,421,-0.07069372656351447,-0.1,1.0,0.0,482.0,587.0,1.0,1,1931.0,0
422,422,0.8390593900063056,0.8,0.0,0.0,487.0,710.0,0.0,1,253.0,1
423,423,-0.04070256586476495,-0.0,1.0,0.0,332.0,531.0,0.0,0,2137.0,1
424,424,0.588994519557256,0.6,1.0,1.0,300.0,584.0,1.0,1,566.0,1
425,425,-0.13698005591111928,-0.1,1.0,0.0,264.0,982.0,0.0,0,1184.0,1
426,426,0.37881912809337404,0.4,1.0,1.0,335.0,863.0,1.0,1,422.0,1
427,427,0.5566828225993584,0.6,1.0,1.0,452.0,656.0,1.0,1,382.0,1
428,428,-0.44534730605134915,-0.4,1.0,0.0,430.0,631.0,0.0,0,309.0,1
429,429,0.7455324048080362,0.7,1.0,1.0,305.0,526.0,1.0,1,189.0,1
430,430,0.591005930876623,0.6,1.0,1.0,370.0,660.0,1.0,1,270.0,1
431,431,-0.6351440887309381,-0.6,1.0,0.0,445.0,634.0,0.0,0,191.0,1
432,432,-0.7449087636875635,-0.7,1.0,0.0,322.0,903.0,0.0,0,85.0,1
433,433,-0.1855852537855549,-0.2,0.0,1.0,340.0,716.0,1.0,0,814.0,1
434,434,-0.46504357421900017,-0.5,1.0,0.0,398.0,500.0,0.0,0,352.0,1
435,435,-0.7340540624658435,-0.7,0.0,1.0,395.0,781.0,1.0,0,134.0,1
436,436,-0.03833958303070406,-0.0,0.0,1.0,426.0,706.0,1.0,0,1868.0,1
437,437,-0.5151113415808286,-0.5,1.0,0.0,496.0,660.0,0.0,0,104.0,1
438,438,-0.018649306228755602,-0.0,1.0,0.0,261.0,873.0,0.0,0,1866.0,1
439,439,0.8548687113523871,0.9,0.0,0.0,309.0,565.0,0.0,1,356.0,1
440,440,0.8339524998815074,0.8,0.0,0.0,341.0,521.0,0.0,1,278.0,1
441,441,0.25377408646442257,0.3,0.0,0.0,459.0,918.0,0.0,1,203.0,1
442,442,0.1173136835102272,0.1,1.0,1.0,434.0,998.0,1.0,1,-352.0,1
443,443,-0.48815897303311506,-0.5,0.0,1.0,341.0,709.0,1.0,0,330.0,1
444,444,0.8858385589135759,0.9,1.0,1.0,381.0,553.0,1.0,1,136.0,1
445,445,-0.8669631269711474,-0.9,1.0,0.0,294.0,522.0,0.0,0,144.0,1
446,446,-0.2579449779275399,-0.3,1.0,0.0,376.0,514.0,0.0,0,660.0,1
447,447,0.8832035348204449,0.9,1.0,1.0,341.0,841.0,1.0,1,208.0,1
448,448,0.4095132945512371,0.4,1.0,1.0,305.0,632.0,1.0,1,1153.0,1
449,449,-0.4236259521187579,-0.4,1.0,0.0,450.0,698.0,0.0,0,322.0,1
450,450,0.4297019236252654,0.4,1.0,1.0,377.0,691.0,1.0,1,622.0,1
451,451,0.5912267817413736,0.6,1.0,1.0,393.0,567.0,1.0,1,170.0,1
452,452,0.31123533531633474,0.3,1.0,1.0,283.0,779.0,1.0,1,468.0,1
453,453,-0.20763537215072003,-0.2,1.0,0.0,319.0,521.0,0.0,0,1020.0,1
454,454,0.6104996050793307,0.6,0.0,0.0,389.0,541.0,0.0,1,120.0,1
455,455,-0.8138934032636278,-0.8,1.0,0.0,294.0,892.0,0.0,0,324.0,1
456,456,0.043226279178423366,0.0,1.0,1.0,359.0,524.0,1.0,1,2117.0,1
457,457,0.6792577180760236,0.7,0.0,0.0,392.0,879.0,0.0,1,139.0,1
458,458,-0.38534918861439504,-0.4,1.0,0.0,405.0,821.0,0.0,0,644.0,1
459,459,0.6386998126469635,0.6,1.0,1.0,445.0,797.0,1.0,1,178.0,1
460,460,-0.507024165463446,-0.5,1.0,0.0,337.0,950.0,0.0,0,653.0,1
461,461,0.7002540943825396,0.7,0.0,0.0,492.0,822.0,0.0,1,246.0,1
462,462,-0.7652054432707573,-0.8,0.0,1.0,266.0,550.0,1.0,0,304.0,1
463,463,0.19375472904642688,0.2,1.0,1.0,280.0,546.0,1.0,1,754.0,1
464,464,-0.2415114708752868,-0.2,1.0,0.0,320.0,674.0,0.0,0,1356.0,1
465,465,0.7562491867551243,0.8,0.0,0.0,494.0,941.0,0.0,1,345.0,1
466,466,-0.7009687663832823,-0.7,0.0,1.0,490.0,583.0,1.0,0,547.0,1
467,467,0.7442073401678843,0.7,0.0,0.0,271.0,862.0,0.0,1,197.0,1
468,468,0.276817414921826,0.3,0.0,0.0,312.0,675.0,0.0,1,633.0,1
469,469,-0.4070309555847456,-0.4,1.0,0.0,349.0,822.0,0.0,0,319.0,1
470,470,-0.32255691285560517,-0.3,0.0,1.0,399.0,544.0,1.0,0,77.0,1
471,471,-0.4327853210775185,-0.4,0.0,1.0,291.0,783.0,0.0,1,-504.0,0
472,472,0.20015180853267933,0.2,0.0,0.0,304.0,763.0,0.0,1,1733.0,1
473,473,-0.3101412334235667,-0.3,0.0,1.0,481.0,739.0,1.0,0,1780.0,1
474,474,0.19357741392290462,0.2,1.0,1.0,413.0,804.0,0.0,0,-227.0,0
475,475,0.4007841278730758,0.4,0.0,0.0,376.0,877.0,0.0,1,727.0,1
476,476,-0.08604029709449035,-0.1,1.0,0.0,338.0,844.0,0.0,0,208.0,1
477,477,0.39573420984929053,0.4,1.0,1.0,486.0,634.0,1.0,1,300.0,1
478,478,-0.3325967023808467,-0.3,1.0,0.0,402.0,555.0,0.0,0,1193.0,1
479,479,-0.6846094057028563,-0.7,1.0,0.0,278.0,739.0,0.0,0,133.0,1
480,480,0.25138367364701797,0.3,1.0,1.0,424.0,651.0,1.0,1,635.0,1
481,481,0.7304048731266511,0.7,0.0,0.0,455.0,991.0,0.0,1,54.0,1
482,482,-0.007908133833600228,-0.0,1.0,0.0,480.0,944.0,0.0,0,476.0,1
483,483,-0.03705695236445106,-0.0,1.0,0.0,414.0,613.0,0.0,0,943.0,1
484,484,-0.6202225247413291,-0.6,1.0,0.0,357.0,511.0,0.0,0,432.0,1
485,485,0.8666700484557669,0.9,0.0,0.0,367.0,553.0,0.0,1,120.0,1
486,486,0.26120897659345654,0.3,1.0,1.0,285.0,970.0,1.0,1,285.0,1
487,487,-0.41155431530534997,-0.4,1.0,0.0,414.0,799.0,0.0,0,517.0,1
488,488,-0.5121161349824157,-0.5,1.0,0.0,375.0,556.0,0.0,0,429.0,1
489,489,0.04364694058588092,0.0,1.0,1.0,323.0,624.0,1.0,1,513.0,1
490,490,0.5182969426901046,0.5,0.0,0.0,281.0,916.0,0.0,1,783.0,1
491,491,-0.18930224122695793,-0.2,0.0,1.0,332.0,776.0,1.0,0,1132.0,1
492,492,-0.61662357907428,-0.6,1.0,0.0,303.0,913.0,0.0,0,204.0,1
493,493,-0.8965266674684351,-0.9,0.0,1.0,382.0,618.0,1.0,0,230.0,1
494,494,-0.4702543402875178,-0.5,1.0,0.0,487.0,961.0,0.0,0,12.0,1
495,495,-0.1048017512143754,-0.1,1.0,0.0,286.0,897.0,0.0,0,1607.0,1
496,496,-0.8563388018491505,-0.9,1.0,0.0,393.0,803.0,0.0,0,314.0,1
497,497,-0.8423314434643407,-0.8,0.0,1.0,273.0,629.0,1.0,0,198.0,1
498,498,-0.8437288378952211,-0.8,0.0,1.0,425.0,983.0,1.0,0,232.0,1
499,499,0.47042933247849217,0.5,0.0,0.0,371.0,741.0,0.0,1,318.0,1
500,500,-0.44070706112085606,-0.4,1.0,0.0,454.0,576.0,0.0,0,320.0,1
501,501,0.13156695210418345,0.1,0.0,0.0,303.0,994.0,0.0,1,283.0,1
502,502,-0.10404584255346616,-0.1,0.0,1.0,277.0,660.0,1.0,0,723.0,1
503,503,0.06751703522782515,0.1,1.0,1.0,262.0,833.0,0.0,0,1905.0,0
504,504,-0.4989238652328188,-0.5,0.0,1.0,401.0,844.0,1.0,0,175.0,1
505,505,0.8163696560467607,0.8,1.0,1.0,351.0,744.0,0.0,0,-45.0,0
506,506,0.8197250446604832,0.8,0.0,0.0,393.0,597.0,0.0,1,220.0,1
507,507,-0.3881690518831228,-0.4,0.0,1.0,460.0,804.0,1.0,0,606.0,1
508,508,0.40821902618110706,0.4,0.0,0.0,421.0,545.0,0.0,1,394.0,1
509,509,0.5306884435394966,0.5,1.0,1.0,254.0,766.0,1.0,1,340.0,1
510,510,-0.014851743347430557,-0.0,1.0,0.0,307.0,531.0,1.0,1,2162.0,0
511,511,0.0228907318896604,0.0,1.0,1.0,482.0,865.0,0.0,0,1653.0,0
512,512,0.04175038747751725,0.0,0.0,0.0,307.0,666.0,0.0,1,1087.0,1
513,513,-0.4212765518724722,-0.4,0.0,1.0,405.0,711.0,1.0,0,694.0,1
514,514,-0.8010983007202959,-0.8,0.0,1.0,271.0,651.0,1.0,0,398.0,1
515,515,0.6747087725074049,0.7,0.0,0.0,367.0,557.0,0.0,1,296.0,1
516,516,0.6857379385408034,0.7,0.0,0.0,281.0,921.0,1.0,0,-22.0,0
517,517,0.3785388047278958,0.4,1.0,1.0,289.0,942.0,1.0,1,679.0,1
518,518,0.2534275341158986,0.3,1.0,1.0,280.0,647.0,1.0,1,863.0,1
519,519,0.2701790607786364,0.3,1.0,1.0,460.0,985.0,1.0,1,795.0,1
520,520,0.4098685706650963,0.4,0.0,0.0,445.0,591.0,0.0,1,294.0,1
521,521,-0.14036205130924773,-0.1,1.0,0.0,407.0,945.0,0.0,0,598.0,1
522,522,0.6246306712425495,0.6,1.0,1.0,344.0,795.0,1.0,1,471.0,1
523,523,0.5859116430231243,0.6,0.0,0.0,445.0,787.0,0.0,1,878.0,1
524,524,0.650137198940493,0.7,1.0,1.0,476.0,827.0,1.0,1,257.0,1
525,525,0.4751779969248019,0.5,1.0,1.0,273.0,881.0,1.0,1,386.0,1
526,526,-0.07961822729753398,-0.1,1.0,0.0,284.0,553.0,0.0,0,1813.0,1
527,527,-0.6693487330997057,-0.7,0.0,1.0,409.0,866.0,1.0,0,415.0,1
528,528,0.41366613058935975,0.4,1.0,1.0,322.0,950.0,1.0,1,718.0,1
529,529,-0.7211363420508398,-0.7,0.0,1.0,469.0,939.0,1.0,0,132.0,1
530,530,-0.20994553961849316,-0.2,1.0,0.0,492.0,563.0,0.0,0,1195.0,1
531,531,0.07802094859605802,0.1,1.0,1.0,288.0,635.0,1.0,1,297.0,1
532,532,0.1278248103615528,0.1,1.0,1.0,412.0,676.0,1.0,1,1912.0,1
533,533,-0.23882622713372048,-0.2,1.0,0.0,499.0,984.0,0.0,0,417.0,1
534,534,0.572767929924115,0.6,1.0,1.0,340.0,994.0,1.0,1,276.0,1
535,535,-0.15693769615385633,-0.2,0.0,1.0,339.0,626.0,1.0,0,315.0,1
536,536,-0.012111357113316568,-0.0,1.0,0.0,256.0,532.0,0.0,0,942.0,1
537,537,-0.21420197202515534,-0.2,1.0,0.0,401.0,721.0,0.0,0,1838.0,1
538,538,-0.10360676634778787,-0.1,0.0,1.0,455.0,562.0,1.0,0,833.0,1
539,539,0.8780251642644367,0.9,1.0,1.0,472.0,895.0,1.0,1,163.0,1
540,540,0.2604312382148074,0.3,0.0,0.0,376.0,706.0,0.0,1,458.0,1
541,541,0.770243196572345,0.8,1.0,1.0,415.0,717.0,1.0,1,8.0,1
542,542,0.8325934501058895,0.8,0.0,0.0,432.0,653.0,0.0,1,155.0,1
543,543,-0.07194156777075711,-0.1,0.0,1.0,432.0,747.0,0.0,1,1821.0,0
544,544,0.8337862578858798,0.8,0.0,0.0,332.0,737.0,0.0,1,261.0,1
545,545,-0.23374868297694873,-0.2,1.0,0.0,265.0,859.0,0.0,0,726.0,1
546,546,-0.1780257951783748,-0.2,1.0,0.0,328.0,640.0,0.0,0,742.0,1
547,547,0.6361759744082677,0.6,0.0,0.0,308.0,554.0,0.0,1,98.0,1
548,548,-0.6538491606573682,-0.7,1.0,0.0,274.0,555.0,0.0,0,111.0,1
549,549,-0.5860916072571942,-0.6,0.0,1.0,299.0,790.0,1.0,0,191.0,1
550,550,0.7689897620804996,0.8,0.0,0.0,312.0,546.0,0.0,1,212.0,1
551,551,0.5284975645605997,0.5,0.0,0.0,319.0,807.0,0.0,1,94.0,1
552,552,-0.42640694766527976,-0.4,1.0,0.0,456.0,573.0,0.0,0,481.0,1
553,553,0.6120306045742955,0.6,0.0,0.0,315.0,992.0,0.0,1,173.0,1
554,554,0.5792577929828294,0.6,1.0,1.0,450.0,922.0,1.0,1,528.0,1
555,555,0.6258668372681967,0.6,1.0,1.0,473.0,777.0,1.0,1,240.0,1
556,556,0.21068056275279934,0.2,0.0,0.0,352.0,996.0,0.0,1,762.0,1
557,557,-0.5237786314969619,-0.5,0.0,1.0,305.0,780.0,1.0,0,125.0,1
558,558,0.8245272617745433,0.8,1.0,1.0,384.0,970.0,1.0,1,216.0,1
559,559,-0.40063539620339167,-0.4,1.0,0.0,488.0,997.0,0.0,0,295.0,1
560,560,0.3424409155651137,0.3,1.0,1.0,276.0,530.0,1.0,1,354.0,1
561,561,-0.2912883121041162,-0.3,0.0,1.0,446.0,779.0,1.0,0,1455.0,1
562,562,0.20768034700298899,0.2,1.0,1.0,264.0,608.0,1.0,1,658.0,1
563,563,0.7265243114474856,0.7,0.0,0.0,474.0,642.0,0.0,1,514.0,1
564,564,-0.8489716090388916,-0.8,1.0,0.0,430.0,931.0,0.0,0,89.0,1
565,565,0.38330665395689756,0.4,1.0,1.0,498.0,651.0,1.0,1,331.0,1
566,566,-0.5396814818920328,-0.5,1.0,0.0,382.0,802.0,0.0,0,456.0,1
567,567,-0.6409617653171801,-0.6,1.0,0.0,417.0,793.0,0.0,0,250.0,1
568,568,0.5115786958672438,0.5,1.0,1.0,385.0,789.0,1.0,1,306.0,1
569,569,0.6834752841282222,0.7,0.0,0.0,400.0,746.0,0.0,1,234.0,1
570,570,0.8177134157364846,0.8,0.0,0.0,444.0,916.0,0.0,1,-350.0,1
571,571,-0.36371959756815886,-0.4,1.0,0.0,384.0,928.0,0.0,0,228.0,1
572,572,0.48140858556302757,0.5,1.0,1.0,421.0,876.0,1.0,1,503.0,1
573,573,-0.03725643702533943,-0.0,0.0,1.0,445.0,936.0,1.0,0,1619.0,1
574,574,-0.510341696033759,-0.5,1.0,0.0,425.0,682.0,0.0,0,383.0,1
575,575,-0.7302811819167081,-0.7,1.0,0.0,393.0,619.0,0.0,0,328.0,1
576,576,-0.062006749793586,-0.1,0.0,1.0,252.0,812.0,1.0,0,1936.0,1
577,577,0.856137581823092,0.9,1.0,1.0,449.0,501.0,1.0,1,200.0,1
578,578,-0.5102793374511607,-0.5,1.0,0.0,372.0,964.0,0.0,0,154.0,1
579,579,0.594098295464217,0.6,0.0,0.0,328.0,978.0,0.0,1,294.0,1
580,580,0.6480760246498994,0.6,0.0,0.0,398.0,954.0,0.0,1,308.0,1
581,581,0.8588357646445232,0.9,1.0,1.0,402.0,915.0,1.0,1,133.0,1
582,582,-0.027877249241436863,-0.0,1.0,0.0,460.0,782.0,1.0,1,988.0,0
583,583,0.155511955107703,0.2,1.0,1.0,292.0,735.0,1.0,1,593.0,1
584,584,0.24472051225832658,0.2,0.0,0.0,472.0,665.0,0.0,1,703.0,1
585,585,-0.21187797166819966,-0.2,1.0,0.0,472.0,542.0,0.0,0,556.0,1
586,586,0.1358338831165774,0.1,0.0,0.0,459.0,880.0,0.0,1,1051.0,1
587,587,-0.45084242392199203,-0.5,0.0,1.0,325.0,983.0,1.0,0,132.0,1
588,588,-0.8653302791809276,-0.9,0.0,1.0,267.0,732.0,1.0,0,231.0,1
589,589,-0.7604519775227032,-0.8,0.0,1.0,471.0,933.0,1.0,0,376.0,1
590,590,0.23498021391899881,0.2,1.0,1.0,447.0,729.0,1.0,1,874.0,1
591,591,-0.04966971882415727,-0.0,1.0,0.0,285.0,886.0,0.0,0,279.0,1
592,592,0.4213686194560037,0.4,1.0,1.0,457.0,835.0,0.0,0,-272.0,0
593,593,-0.6328748299490616,-0.6,0.0,1.0,339.0,772.0,1.0,0,349.0,1
594,594,-0.8223801414046766,-0.8,1.0,0.0,361.0,574.0,0.0,0,285.0,1
595,595,-0.5917583794113526,-0.6,1.0,0.0,327.0,749.0,0.0,0,694.0,1
596,596,-0.03543644465573792,-0.0,0.0,1.0,482.0,808.0,1.0,0,1710.0,1
597,597,0.030419470013691607,0.0,0.0,0.0,498.0,630.0,1.0,0,1872.0,0
598,598,0.22661142662454992,0.2,1.0,1.0,424.0,514.0,1.0,1,312.0,1
599,599,-0.6179672471834019,-0.6,0.0,1.0,257.0,802.0,1.0,0,161.0,1
600,600,-0.5675809253350703,-0.6,0.0,1.0,379.0,762.0,1.0,0,219.0,1
601,601,-0.0017232270385044712,-0.0,0.0,1.0,355.0,819.0,1.0,0,1826.0,1
602,602,0.3346282739974974,0.3,1.0,1.0,299.0,776.0,1.0,1,335.0,1
603,603,-0.7215940856729081,-0.7,1.0,0.0,453.0,739.0,0.0,0,188.0,1
604,604,-0.8448604649829841,-0.8,0.0,1.0,362.0,999.0,1.0,0,179.0,1
605,605,-0.5689033353123113,-0.6,1.0,0.0,496.0,726.0,0.0,0,808.0,1
606,606,0.13409677116705432,0.1,0.0,0.0,483.0,610.0,0.0,1,1077.0,1
607,607,-0.2831924288912313,-0.3,0.0,1.0,420.0,880.0,1.0,0,720.0,1
608,608,-0.7381447881103008,-0.7,0.0,1.0,294.0,585.0,1.0,0,311.0,1
609,609,-0.5244931676136626,-0.5,0.0,1.0,287.0,655.0,1.0,0,268.0,1
610,610,0.29490868835298667,0.3,1.0,1.0,339.0,646.0,1.0,1,855.0,1
611,611,0.44982798855478456,0.4,1.0,1.0,476.0,762.0,1.0,1,462.0,1
612,612,-0.0982498437412167,-0.1,0.0,1.0,382.0,861.0,0.0,1,347.0,0
613,613,0.01144504324208473,0.0,1.0,1.0,281.0,776.0,1.0,1,1943.0,1
614,614,-0.14036912407442148,-0.1,0.0,1.0,260.0,774.0,0.0,1,1966.0,0
615,615,-0.627900435348524,-0.6,1.0,0.0,335.0,521.0,0.0,0,154.0,1
616,616,-0.33926531723731534,-0.3,1.0,0.0,396.0,971.0,0.0,0,683.0,1
617,617,-0.12903348223731648,-0.1,0.0,1.0,422.0,754.0,1.0,0,1414.0,1
618,618,-0.774356051033825,-0.8,0.0,1.0,314.0,948.0,1.0,0,238.0,1
619,619,0.6906876299860786,0.7,0.0,0.0,310.0,957.0,0.0,1,353.0,1
620,620,0.7572562291964725,0.8,1.0,1.0,359.0,605.0,1.0,1,256.0,1
621,621,0.26985082450432774,0.3,1.0,1.0,362.0,664.0,1.0,1,1294.0,1
622,622,0.573331109980508,0.6,0.0,0.0,292.0,910.0,0.0,1,158.0,1
623,623,0.11149248325175887,0.1,0.0,0.0,367.0,681.0,0.0,1,-258.0,1
624,624,-0.10794202125898134,-0.1,0.0,1.0,485.0,790.0,1.0,0,1725.0,1
625,625,0.8567810466688265,0.9,1.0,1.0,470.0,843.0,1.0,1,187.0,1
626,626,0.0019020669195597417,0.0,0.0,0.0,464.0,558.0,1.0,0,1978.0,0
627,627,-0.39012072954329635,-0.4,1.0,0.0,410.0,741.0,0.0,0,109.0,1
628,628,0.6361382225341549,0.6,1.0,1.0,284.0,862.0,1.0,1,314.0,1
629,629,-0.035762672640837656,-0.0,0.0,1.0,443.0,658.0,1.0,0,1309.0,1
630,630,-0.6635206287711433,-0.7,1.0,0.0,434.0,786.0,0.0,0,560.0,1
631,631,0.730512752438696,0.7,1.0,1.0,443.0,889.0,1.0,1,268.0,1
632,632,0.17945337664373306,0.2,1.0,1.0,439.0,580.0,1.0,1,1791.0,1
633,633,0.88183080859098,0.9,0.0,0.0,396.0,675.0,0.0,1,219.0,1
634,634,0.3380130823294959,0.3,0.0,0.0,431.0,933.0,0.0,1,1016.0,1
635,635,-0.14140745597934545,-0.1,0.0,1.0,445.0,712.0,1.0,0,1393.0,1
636,636,-0.7212479459213954,-0.7,1.0,0.0,298.0,532.0,0.0,0,200.0,1
637,637,0.22538772130667872,0.2,1.0,1.0,333.0,933.0,1.0,1,764.0,1
638,638,0.2518246649141723,0.3,1.0,1.0,407.0,914.0,1.0,1,249.0,1
639,639,-0.2451398031073171,-0.2,0.0,1.0,319.0,546.0,1.0,0,935.0,1
640,640,-0.6291220800426498,-0.6,1.0,0.0,476.0,983.0,0.0,0,191.0,1
641,641,-0.401546462109758,-0.4,0.0,1.0,427.0,893.0,1.0,0,510.0,1
642,642,0.10814472656693785,0.1,0.0,0.0,283.0,824.0,0.0,1,843.0,1
643,643,-0.016676796363554014,-0.0,0.0,1.0,476.0,595.0,0.0,1,1929.0,0
644,644,0.77624397167849,0.8,0.0,0.0,366.0,791.0,0.0,1,313.0,1
645,645,-0.485960523253642,-0.5,0.0,1.0,287.0,729.0,1.0,0,384.0,1
646,646,0.5019873982876629,0.5,1.0,1.0,315.0,673.0,1.0,1,192.0,1
647,647,-0.5837174145224786,-0.6,1.0,0.0,350.0,814.0,0.0,0,136.0,1
648,648,0.16520574535975918,0.2,0.0,0.0,344.0,744.0,0.0,1,1812.0,1
649,649,0.40717486232041444,0.4,1.0,1.0,377.0,810.0,1.0,1,653.0,1
650,650,0.35028492327636773,0.4,0.0,0.0,294.0,860.0,0.0,1,266.0,1
651,651,0.848919031650991,0.8,0.0,0.0,496.0,766.0,0.0,1,158.0,1
652,652,-0.6670448181546647,-0.7,1.0,0.0,313.0,803.0,0.0,0,454.0,1
653,653,0.0708153381706852,0.1,1.0,1.0,490.0,962.0,1.0,1,1548.0,1
654,654,-0.7333551298580879,-0.7,1.0,0.0,465.0,543.0,0.0,0,142.0,1
655,655,-0.034129754679507074,-0.0,1.0,0.0,270.0,871.0,0.0,0,1859.0,1
656,656,-0.7792023152564835,-0.8,1.0,0.0,467.0,690.0,0.0,0,-367.0,1
657,657,0.5435618273129136,0.5,0.0,0.0,294.0,876.0,0.0,1,220.0,1
658,658,0.5070639316108779,0.5,0.0,0.0,367.0,768.0,0.0,1,165.0,1
659,659,0.3219284206305194,0.3,1.0,1.0,329.0,686.0,1.0,1,435.0,1
660,660,-0.6954849059694144,-0.7,1.0,0.0,321.0,755.0,0.0,0,64.0,1
661,661,0.6929518727583931,0.7,1.0,1.0,462.0,616.0,1.0,1,262.0,1
662,662,0.5788980386392631,0.6,0.0,0.0,398.0,516.0,0.0,1,316.0,1
663,663,0.20068735728279374,0.2,0.0,0.0,425.0,529.0,0.0,1,1886.0,1
664,664,-0.09465238608020154,-0.1,0.0,1.0,266.0,544.0,1.0,0,2190.0,1
665,665,-0.7193937374039554,-0.7,1.0,0.0,396.0,631.0,0.0,0,93.0,1
666,666,-0.5673030368741661,-0.6,0.0,1.0,269.0,947.0,1.0,0,314.0,1
667,667,-0.31166564979385114,-0.3,1.0,0.0,285.0,595.0,0.0,0,490.0,1
668,668,-0.5539836541707377,-0.6,0.0,1.0,450.0,587.0,1.0,0,413.0,1
669,669,0.32037337471728133,0.3,0.0,0.0,443.0,573.0,0.0,1,494.0,1
670,670,-0.8144984610798629,-0.8,1.0,0.0,464.0,734.0,0.0,0,42.0,1
671,671,0.30526025195059725,0.3,0.0,0.0,401.0,547.0,0.0,1,292.0,1
672,672,-0.34589954398975786,-0.3,0.0,1.0,404.0,835.0,1.0,0,401.0,1
673,673,0.6476653301574465,0.6,1.0,1.0,270.0,821.0,1.0,1,249.0,1
674,674,-0.7967640605169588,-0.8,1.0,0.0,299.0,792.0,0.0,0,259.0,1
675,675,0.3635862675474776,0.4,0.0,0.0,310.0,893.0,0.0,1,447.0,1
676,676,0.5037472699886053,0.5,0.0,0.0,376.0,559.0,0.0,1,585.0,1
677,677,-0.6460377344641398,-0.6,0.0,1.0,262.0,785.0,1.0,0,523.0,1
678,678,-0.8370516895322764,-0.8,1.0,0.0,401.0,550.0,0.0,0,69.0,1
679,679,-0.6938638403422379,-0.7,0.0,1.0,347.0,658.0,1.0,0,315.0,1
680,680,-0.1119804755161724,-0.1,0.0,1.0,345.0,780.0,1.0,0,1635.0,1
681,681,0.18119130476752765,0.2,1.0,1.0,351.0,563.0,1.0,1,476.0,1
682,682,-0.5874634040980746,-0.6,0.0,1.0,357.0,630.0,1.0,0,513.0,1
683,683,-0.1467813964896355,-0.1,1.0,0.0,448.0,858.0,0.0,0,754.0,1
684,684,-0.04654533019219753,-0.0,0.0,1.0,381.0,533.0,1.0,0,2086.0,1
685,685,-0.10564477875833522,-0.1,0.0,1.0,446.0,597.0,1.0,0,1437.0,1
686,686,0.8834521611181089,0.9,0.0,0.0,409.0,671.0,0.0,1,60.0,1
687,687,-0.6647679994830589,-0.7,0.0,1.0,357.0,549.0,1.0,0,364.0,1
688,688,0.5153957953761289,0.5,0.0,0.0,334.0,630.0,0.0,1,366.0,1
689,689,0.009762011876170651,0.0,1.0,1.0,336.0,616.0,0.0,0,2048.0,0
690,690,-0.06929895917691165,-0.1,0.0,1.0,302.0,934.0,1.0,0,1764.0,1
691,691,0.036135495180024346,0.0,0.0,0.0,435.0,925.0,1.0,0,1640.0,0
692,692,0.7044872612973684,0.7,1.0,1.0,423.0,827.0,1.0,1,260.0,1
693,693,0.08517565376916703,0.1,0.0,0.0,273.0,739.0,0.0,1,1988.0,1
694,694,0.5247668683366619,0.5,0.0,0.0,360.0,986.0,0.0,1,444.0,1
695,695,-0.3360088103870581,-0.3,0.0,1.0,397.0,640.0,1.0,0,183.0,1
696,696,-0.5112271569496492,-0.5,1.0,0.0,485.0,758.0,0.0,0,407.0,1
697,697,0.8437953978483098,0.8,0.0,0.0,367.0,894.0,0.0,1,249.0,1
698,698,-0.2720489932312611,-0.3,0.0,1.0,276.0,727.0,1.0,0,887.0,1
699,699,-0.7388766501095722,-0.7,1.0,0.0,425.0,544.0,0.0,0,361.0,1
700,700,0.3910577622993118,0.4,1.0,1.0,498.0,811.0,1.0,1,81.0,1
701,701,0.32710726499093556,0.3,0.0,0.0,334.0,866.0,0.0,1,310.0,1
702,702,0.11614702860241921,0.1,1.0,1.0,441.0,842.0,0.0,0,1717.0,0
703,703,-0.8460199037419371,-0.8,0.0,1.0,472.0,590.0,1.0,0,298.0,1
704,704,-0.7669887529091096,-0.8,1.0,0.0,384.0,573.0,0.0,0,613.0,1
705,705,0.08353254939657695,0.1,1.0,1.0,405.0,752.0,1.0,1,1843.0,1
706,706,-0.3661297012103689,-0.4,0.0,1.0,449.0,505.0,1.0,0,596.0,1
707,707,-0.07032087472281845,-0.1,0.0,1.0,347.0,828.0,1.0,0,1825.0,1
708,708,0.7505639272773278,0.8,1.0,1.0,421.0,649.0,1.0,1,140.0,1
709,709,-0.8865798420655775,-0.9,1.0,0.0,336.0,668.0,0.0,0,346.0,1
710,710,-0.3458426033656601,-0.3,0.0,1.0,441.0,931.0,1.0,0,438.0,1
711,711,-0.3120247708084295,-0.3,1.0,0.0,371.0,779.0,0.0,0,300.0,1
712,712,-0.21826838129881798,-0.2,1.0,0.0,325.0,905.0,0.0,0,870.0,1
713,713,-0.2787646877483746,-0.3,1.0,0.0,334.0,615.0,0.0,0,721.0,1
714,714,-0.34706083923723974,-0.3,1.0,0.0,289.0,535.0,0.0,0,446.0,1
715,715,-0.3423927328562132,-0.3,0.0,1.0,336.0,856.0,1.0,0,408.0,1
716,716,-0.5799887859553671,-0.6,1.0,0.0,371.0,879.0,0.0,0,250.0,1
717,717,0.14471994328202153,0.1,1.0,1.0,388.0,888.0,1.0,1,144.0,1
718,718,0.09033906212655096,0.1,1.0,1.0,411.0,577.0,1.0,1,2012.0,1
719,719,0.31056371834798624,0.3,0.0,0.0,426.0,810.0,0.0,1,94.0,1
720,720,0.049008950481137514,0.0,1.0,1.0,282.0,735.0,0.0,0,1983.0,0
721,721,-0.17940446620481942,-0.2,0.0,1.0,279.0,983.0,1.0,0,1538.0,1
722,722,-0.5362796415034267,-0.5,1.0,0.0,343.0,811.0,0.0,0,256.0,1
723,723,0.38679341424822067,0.4,1.0,1.0,414.0,613.0,1.0,1,223.0,1
724,724,0.6454774896886718,0.6,0.0,0.0,250.0,812.0,0.0,1,268.0,1
725,725,-0.35190929380395264,-0.4,1.0,0.0,321.0,805.0,0.0,0,114.0,1
726,726,0.8468287897771808,0.8,0.0,0.0,395.0,555.0,0.0,1,100.0,1
727,727,-0.1651327239451139,-0.2,1.0,0.0,388.0,534.0,0.0,0,848.0,1
728,728,0.6949958896915321,0.7,0.0,0.0,426.0,668.0,0.0,1,106.0,1
729,729,-0.7580694681247648,-0.8,1.0,0.0,284.0,646.0,0.0,0,260.0,1
730,730,-0.7029195362181689,-0.7,0.0,1.0,384.0,999.0,1.0,0,277.0,1
731,731,-0.155656515612279,-0.2,0.0,1.0,379.0,974.0,1.0,0,1247.0,1
732,732,0.6220712761867379,0.6,0.0,0.0,362.0,639.0,0.0,1,459.0,1
733,733,0.32624949107966705,0.3,1.0,1.0,373.0,847.0,1.0,1,960.0,1
734,734,-0.47695096306951007,-0.5,0.0,1.0,320.0,650.0,1.0,0,230.0,1
735,735,0.09331026896882355,0.1,0.0,0.0,361.0,654.0,0.0,1,1985.0,1
736,736,0.22824995855295127,0.2,1.0,1.0,469.0,682.0,1.0,1,869.0,1
737,737,0.09076910820890338,0.1,0.0,0.0,443.0,774.0,0.0,1,1783.0,1
738,738,0.27037622132197836,0.3,1.0,1.0,306.0,898.0,1.0,1,406.0,1
739,739,0.19732663916934035,0.2,0.0,0.0,368.0,815.0,0.0,1,117.0,1
740,740,0.46208154536022483,0.5,1.0,1.0,352.0,664.0,1.0,1,164.0,1
741,741,-0.38764982516802426,-0.4,1.0,0.0,379.0,783.0,0.0,0,378.0,1
742,742,0.6069003795122953,0.6,0.0,0.0,390.0,718.0,0.0,1,412.0,1
743,743,-0.7926106737862142,-0.8,1.0,0.0,460.0,509.0,0.0,0,61.0,1
744,744,-0.674808469526408,-0.7,0.0,1.0,441.0,920.0,1.0,0,289.0,1
745,745,0.7671062834683876,0.8,0.0,0.0,335.0,878.0,0.0,1,197.0,1
746,746,0.6492753705420359,0.6,1.0,1.0,357.0,916.0,1.0,1,107.0,1
747,747,0.6167250325373478,0.6,0.0,0.0,327.0,904.0,0.0,1,339.0,1
748,748,-0.4012714111017114,-0.4,1.0,0.0,468.0,616.0,0.0,0,496.0,1
749,749,-0.31387299513665634,-0.3,0.0,1.0,398.0,733.0,1.0,0,369.0,1
750,750,0.7535459733250119,0.8,1.0,1.0,422.0,623.0,1.0,1,215.0,1
751,751,0.16227393924717404,0.2,1.0,1.0,396.0,520.0,1.0,1,454.0,1
752,752,-0.8906252922350082,-0.9,1.0,0.0,410.0,880.0,0.0,0,180.0,1
753,753,-0.04990869833210221,-0.0,0.0,1.0,493.0,898.0,1.0,0,1609.0,1
754,754,0.5498298732747181,0.5,0.0,0.0,482.0,879.0,0.0,1,369.0,1
755,755,-0.8133201595334054,-0.8,1.0,0.0,274.0,981.0,0.0,0,235.0,1
756,756,-0.4138179218221306,-0.4,0.0,1.0,497.0,559.0,1.0,0,354.0,1
757,757,0.12209799626378126,0.1,1.0,1.0,448.0,502.0,1.0,1,990.0,1
758,758,0.39152061990829934,0.4,0.0,0.0,487.0,869.0,0.0,1,164.0,1
759,759,0.26468803238281347,0.3,0.0,0.0,339.0,720.0,0.0,1,381.0,1
760,760,-0.7777761754628,-0.8,1.0,0.0,386.0,821.0,0.0,0,193.0,1
761,761,0.7697275834355558,0.8,1.0,1.0,340.0,907.0,0.0,0,-277.0,0
762,762,-0.3030907312928699,-0.3,1.0,0.0,471.0,664.0,0.0,0,495.0,1
763,763,-0.4588805750396144,-0.5,1.0,0.0,444.0,958.0,0.0,0,-122.0,1
764,764,-0.4339368657902224,-0.4,1.0,0.0,388.0,854.0,0.0,0,-622.0,1
765,765,-0.05398585331608774,-0.1,1.0,0.0,351.0,676.0,0.0,0,1523.0,1
766,766,-0.6176505712194855,-0.6,1.0,0.0,479.0,565.0,0.0,0,166.0,1
767,767,0.33249335906353694,0.3,0.0,0.0,419.0,600.0,0.0,1,501.0,1
768,768,-0.23706638702227134,-0.2,0.0,1.0,410.0,939.0,1.0,0,451.0,1
769,769,-0.4544783461283755,-0.5,1.0,0.0,345.0,578.0,0.0,0,327.0,1
770,770,-0.5855763667372419,-0.6,0.0,1.0,463.0,818.0,1.0,0,319.0,1
771,771,0.04638547653577341,0.0,1.0,1.0,418.0,818.0,1.0,1,824.0,1
772,772,-0.7908724600116044,-0.8,0.0,1.0,468.0,875.0,1.0,0,327.0,1
773,773,-0.456156894487287,-0.5,1.0,0.0,392.0,630.0,0.0,0,408.0,1
774,774,0.3695839875076158,0.4,0.0,0.0,341.0,698.0,0.0,1,531.0,1
775,775,0.8792622976705727,0.9,1.0,1.0,288.0,647.0,1.0,1,205.0,1
776,776,-0.651250305572502,-0.7,1.0,0.0,449.0,580.0,0.0,0,171.0,1
777,777,0.5199347367973036,0.5,1.0,1.0,490.0,590.0,1.0,1,310.0,1
778,778,-0.7076832637695759,-0.7,1.0,0.0,261.0,539.0,0.0,0,320.0,1
779,779,-0.34882749376915,-0.3,0.0,1.0,416.0,846.0,1.0,0,568.0,1
780,780,0.6393563700574064,0.6,0.0,0.0,416.0,822.0,0.0,1,102.0,1
781,781,-0.5513365102787319,-0.6,0.0,1.0,390.0,703.0,1.0,0,337.0,1
782,782,-0.4088920289736236,-0.4,1.0,0.0,265.0,953.0,0.0,0,162.0,1
783,783,-0.269490763734917,-0.3,0.0,1.0,384.0,922.0,1.0,0,334.0,1
784,784,-0.053599396141304156,-0.1,1.0,0.0,498.0,531.0,0.0,0,1191.0,1
785,785,-0.12518413364689274,-0.1,1.0,0.0,274.0,879.0,1.0,1,1847.0,0
786,786,0.7475818875065167,0.7,0.0,0.0,397.0,917.0,0.0,1,326.0,1
787,787,0.5733879313751081,0.6,1.0,1.0,432.0,974.0,1.0,1,184.0,1
788,788,0.10905101791159144,0.1,1.0,1.0,360.0,558.0,1.0,1,2082.0,1
789,789,0.7893482898812741,0.8,0.0,0.0,287.0,798.0,0.0,1,275.0,1
790,790,0.37701348252700206,0.4,0.0,0.0,382.0,504.0,0.0,1,884.0,1
791,791,0.7581064194882073,0.8,1.0,1.0,311.0,781.0,1.0,1,268.0,1
792,792,0.8606546485535923,0.9,1.0,1.0,464.0,504.0,1.0,1,262.0,1
793,793,0.5632772978787725,0.6,1.0,1.0,408.0,778.0,1.0,1,364.0,1
794,794,-0.6640210423672439,-0.7,0.0,1.0,272.0,580.0,1.0,0,258.0,1
795,795,-0.07401347886551146,-0.1,1.0,0.0,433.0,840.0,0.0,0,1577.0,1
796,796,-0.17519301269569176,-0.2,0.0,1.0,257.0,592.0,1.0,0,1971.0,1
797,797,-0.8477994227289726,-0.8,1.0,0.0,475.0,785.0,0.0,0,140.0,1
798,798,-0.19936610373237218,-0.2,0.0,1.0,276.0,817.0,1.0,0,437.0,1
799,799,0.5887833009206661,0.6,0.0,0.0,356.0,585.0,0.0,1,159.0,1
800,800,-0.4368813045907404,-0.4,1.0,0.0,352.0,660.0,0.0,0,448.0,1
801,801,-0.3574716480057112,-0.4,1.0,0.0,294.0,562.0,0.0,0,144.0,1
802,802,0.750821494602291,0.8,0.0,0.0,373.0,995.0,0.0,1,352.0,1
803,803,-0.8370322286796668,-0.8,1.0,0.0,470.0,568.0,0.0,0,232.0,1
804,804,-0.5662583353293771,-0.6,0.0,1.0,441.0,510.0,0.0,1,-71.0,0
805,805,0.42648347261309294,0.4,0.0,0.0,346.0,874.0,0.0,1,440.0,1
806,806,-0.6976299484308318,-0.7,1.0,0.0,258.0,762.0,0.0,0,80.0,1
807,807,0.8013627805789424,0.8,1.0,1.0,425.0,662.0,1.0,1,183.0,1
808,808,0.3829889794352229,0.4,1.0,1.0,400.0,586.0,1.0,1,144.0,1
809,809,0.41806815677732223,0.4,1.0,1.0,449.0,766.0,1.0,1,635.0,1
810,810,0.13974737316490315,0.1,0.0,0.0,469.0,818.0,0.0,1,923.0,1
811,811,0.3948030143465343,0.4,1.0,1.0,369.0,950.0,1.0,1,441.0,1
812,812,-0.22463768792084193,-0.2,0.0,1.0,372.0,771.0,1.0,0,1417.0,1
813,813,-0.7801640276665723,-0.8,0.0,1.0,371.0,507.0,1.0,0,222.0,1
814,814,-0.10428039153432123,-0.1,0.0,1.0,335.0,827.0,1.0,0,1838.0,1
815,815,0.05915780890670064,0.1,1.0,1.0,455.0,511.0,0.0,0,2034.0,0
816,816,0.2790653226023442,0.3,1.0,1.0,494.0,921.0,1.0,1,285.0,1
817,817,0.5887723942684288,0.6,0.0,0.0,407.0,912.0,0.0,1,231.0,1
818,818,0.3921473957104552,0.4,1.0,1.0,479.0,965.0,1.0,1,236.0,1
819,819,-0.6932787465355792,-0.7,1.0,0.0,477.0,700.0,0.0,0,183.0,1
820,820,-0.23850112315408467,-0.2,0.0,1.0,436.0,778.0,1.0,0,476.0,1
821,821,-0.2980268649429131,-0.3,1.0,0.0,316.0,682.0,0.0,0,1142.0,1
822,822,-0.6192091513613547,-0.6,0.0,1.0,408.0,614.0,1.0,0,328.0,1
823,823,-0.8443183215844768,-0.8,0.0,1.0,413.0,915.0,1.0,0,232.0,1
824,824,0.5338026834991628,0.5,0.0,0.0,289.0,803.0,0.0,1,388.0,1
825,825,-0.5547186602391787,-0.6,0.0,1.0,372.0,919.0,1.0,0,259.0,1
826,826,0.6270232591291242,0.6,0.0,0.0,381.0,519.0,0.0,1,170.0,1
827,827,0.3287733666497369,0.3,0.0,0.0,290.0,806.0,0.0,1,154.0,1
828,828,-0.16434808221510167,-0.2,1.0,0.0,390.0,931.0,0.0,0,239.0,1
829,829,0.4700203005982998,0.5,1.0,1.0,385.0,868.0,1.0,1,547.0,1
830,830,-0.11396798518366391,-0.1,1.0,0.0,419.0,607.0,0.0,0,274.0,1
831,831,-0.34764883245491174,-0.3,1.0,0.0,383.0,930.0,0.0,0,507.0,1
832,832,0.44296002456172257,0.4,1.0,1.0,342.0,880.0,1.0,1,-142.0,1
833,833,-0.28965732747301187,-0.3,0.0,1.0,390.0,789.0,1.0,0,1211.0,1
834,834,0.8738384514375611,0.9,1.0,1.0,316.0,789.0,1.0,1,175.0,1
835,835,-0.3529566720684164,-0.4,1.0,0.0,336.0,984.0,0.0,0,670.0,1
836,836,-0.027546529350491067,-0.0,1.0,0.0,491.0,965.0,0.0,0,1544.0,1
837,837,0.07500198710377104,0.1,1.0,1.0,354.0,889.0,0.0,0,1757.0,0
838,838,0.2580448157515015,0.3,0.0,0.0,285.0,650.0,0.0,1,1455.0,1
839,839,0.7488973848020003,0.7,0.0,0.0,397.0,557.0,0.0,1,186.0,1
840,840,-0.012325547605108844,-0.0,0.0,1.0,433.0,539.0,1.0,0,2028.0,1
841,841,-0.6541971583380087,-0.7,0.0,1.0,271.0,828.0,1.0,0,351.0,1
842,842,-0.747059743493762,-0.7,0.0,1.0,473.0,717.0,1.0,0,180.0,1
843,843,0.7590904733634652,0.8,1.0,1.0,486.0,613.0,1.0,1,131.0,1
844,844,0.515362218471168,0.5,0.0,0.0,440.0,792.0,0.0,1,578.0,1
845,845,0.6969132291153218,0.7,0.0,0.0,476.0,645.0,0.0,1,339.0,1
846,846,0.2816935297539661,0.3,1.0,1.0,424.0,890.0,1.0,1,546.0,1
847,847,0.09247578575310988,0.1,1.0,1.0,291.0,994.0,1.0,1,1665.0,1
848,848,-0.27623683385948383,-0.3,0.0,1.0,498.0,786.0,1.0,0,1496.0,1
849,849,-0.3486224003165882,-0.3,0.0,1.0,304.0,734.0,1.0,0,522.0,1
850,850,0.31871289395087465,0.3,0.0,0.0,425.0,866.0,0.0,1,219.0,1
851,851,0.6522517527809962,0.7,1.0,1.0,265.0,897.0,1.0,1,338.0,1
852,852,-0.5462171057600276,-0.5,0.0,1.0,443.0,720.0,1.0,0,217.0,1
853,853,0.8161906453630453,0.8,1.0,1.0,327.0,806.0,1.0,1,167.0,1
854,854,-0.24812489868167031,-0.2,0.0,1.0,265.0,950.0,1.0,0,865.0,1
855,855,-0.7247946938780455,-0.7,1.0,0.0,499.0,846.0,0.0,0,245.0,1
856,856,0.11582278981713856,0.1,0.0,0.0,385.0,813.0,0.0,1,1622.0,1
857,857,-0.890614965809537,-0.9,0.0,1.0,432.0,744.0,1.0,0,174.0,1
858,858,0.676253862307531,0.7,1.0,1.0,280.0,761.0,1.0,1,189.0,1
859,859,0.8405112462130336,0.8,1.0,1.0,381.0,775.0,1.0,1,254.0,1
860,860,-0.12093763239991395,-0.1,0.0,1.0,277.0,716.0,1.0,0,2007.0,1
861,861,0.23264784548469686,0.2,1.0,1.0,281.0,712.0,1.0,1,1077.0,1
862,862,-0.6782744680503942,-0.7,1.0,0.0,356.0,983.0,0.0,0,41.0,1
863,863,0.6865383626162586,0.7,1.0,1.0,269.0,954.0,1.0,1,207.0,1
864,864,0.8647352326289329,0.9,1.0,1.0,388.0,684.0,1.0,1,218.0,1
865,865,0.21155476310265697,0.2,0.0,0.0,311.0,505.0,0.0,1,224.0,1
866,866,-0.19193207049198224,-0.2,1.0,0.0,497.0,940.0,0.0,0,703.0,1
867,867,0.6752445149839336,0.7,0.0,0.0,293.0,557.0,0.0,1,190.0,1
868,868,0.7181232919508099,0.7,1.0,1.0,301.0,693.0,1.0,1,176.0,1
869,869,0.8073021714113947,0.8,0.0,0.0,445.0,624.0,0.0,1,121.0,1
870,870,0.009456888064018565,0.0,0.0,0.0,436.0,646.0,0.0,1,248.0,1
871,871,0.24985805365398617,0.2,1.0,1.0,476.0,708.0,1.0,1,316.0,1
872,872,0.7752103374211098,0.8,0.0,0.0,453.0,833.0,0.0,1,124.0,1
873,873,-0.16897116670393275,-0.2,0.0,1.0,481.0,938.0,1.0,0,591.0,1
874,874,0.29182161801433837,0.3,0.0,0.0,320.0,981.0,0.0,1,349.0,1
875,875,-0.7469577245550352,-0.7,1.0,0.0,294.0,772.0,0.0,0,474.0,1
876,876,-0.6625065094664799,-0.7,0.0,1.0,496.0,894.0,1.0,0,100.0,1
877,877,0.39671130031678736,0.4,0.0,0.0,257.0,521.0,0.0,1,132.0,1
878,878,0.36143413897905863,0.4,0.0,0.0,425.0,631.0,0.0,1,584.0,1
879,879,0.22268467504689415,0.2,1.0,1.0,437.0,953.0,1.0,1,700.0,1
880,880,0.07277988539149194,0.1,0.0,0.0,480.0,628.0,0.0,1,1052.0,1
881,881,-0.5227620604911221,-0.5,0.0,1.0,396.0,618.0,1.0,0,716.0,1
882,882,0.2556929448571691,0.3,0.0,0.0,477.0,695.0,0.0,1,788.0,1
883,883,0.6872220827550818,0.7,1.0,1.0,400.0,797.0,1.0,1,323.0,1
884,884,-0.4985703378031495,-0.5,0.0,1.0,284.0,719.0,1.0,0,397.0,1
885,885,-0.7452598743804741,-0.7,1.0,0.0,383.0,616.0,0.0,0,151.0,1
886,886,0.8374821870336694,0.8,1.0,1.0,310.0,785.0,1.0,1,105.0,1
887,887,-0.7210122320461898,-0.7,0.0,1.0,301.0,637.0,1.0,0,192.0,1
888,888,-0.05650395731955005,-0.1,0.0,1.0,457.0,982.0,1.0,0,1561.0,1
889,889,0.6648903039898909,0.7,1.0,1.0,334.0,609.0,1.0,1,237.0,1
890,890,0.3650182557501537,0.4,0.0,0.0,346.0,812.0,0.0,1,232.0,1
891,891,0.8030952583227641,0.8,0.0,0.0,487.0,685.0,0.0,1,698.0,1
892,892,0.6564857624423756,0.7,0.0,0.0,296.0,741.0,0.0,1,323.0,1
893,893,-0.8514972117300326,-0.9,1.0,0.0,409.0,553.0,0.0,0,208.0,1
894,894,0.601296935407304,0.6,1.0,1.0,323.0,532.0,1.0,1,165.0,1
895,895,0.3961003832861286,0.4,1.0,1.0,395.0,782.0,1.0,1,193.0,1
896,896,-0.21082084973859772,-0.2,0.0,1.0,398.0,881.0,1.0,0,231.0,1
897,897,0.15367217170174785,0.2,1.0,1.0,280.0,510.0,1.0,1,1970.0,1
898,898,0.23287579109927903,0.2,0.0,0.0,485.0,811.0,0.0,1,1704.0,1
899,899,0.045875624540580584,0.0,0.0,0.0,348.0,853.0,0.0,1,1799.0,1
900,900,-0.49452506343218683,-0.5,1.0,0.0,294.0,585.0,0.0,0,181.0,1
901,901,0.3468763859973888,0.3,0.0,0.0,380.0,883.0,0.0,1,257.0,1
902,902,-0.08316600185569212,-0.1,1.0,0.0,385.0,983.0,0.0,0,312.0,1
903,903,0.16919904275978193,0.2,0.0,0.0,468.0,823.0,0.0,1,1709.0,1
904,904,-0.3311720460376326,-0.3,1.0,0.0,377.0,935.0,0.0,0,-252.0,1
905,905,-0.12002099686794754,-0.1,1.0,0.0,470.0,860.0,0.0,0,870.0,1
906,906,-0.27348798479403846,-0.3,0.0,1.0,251.0,988.0,1.0,0,441.0,1
907,907,-0.6283856038585214,-0.6,0.0,1.0,283.0,902.0,1.0,0,405.0,1
908,908,0.09071699932595856,0.1,0.0,0.0,332.0,645.0,0.0,1,823.0,1
909,909,-0.4854570653373818,-0.5,0.0,1.0,282.0,504.0,1.0,0,334.0,1
910,910,-0.4800888281738294,-0.5,1.0,0.0,317.0,761.0,0.0,0,152.0,1
911,911,-0.4487824279633194,-0.4,0.0,1.0,411.0,874.0,1.0,0,385.0,1
912,912,-0.49850129154286643,-0.5,0.0,1.0,342.0,635.0,1.0,0,333.0,1
913,913,0.2263786146752197,0.2,1.0,1.0,478.0,696.0,1.0,1,126.0,1
914,914,-0.47957308647100444,-0.5,1.0,0.0,359.0,777.0,0.0,0,214.0,1
915,915,0.5411407281104074,0.5,0.0,0.0,284.0,696.0,0.0,1,270.0,1
916,916,-0.6949480503338743,-0.7,0.0,1.0,434.0,729.0,0.0,1,-163.0,0
917,917,0.8011529426475946,0.8,1.0,1.0,468.0,586.0,1.0,1,166.0,1
918,918,-0.09614287653681963,-0.1,1.0,0.0,254.0,808.0,0.0,0,1938.0,1
919,919,-0.25283257462262354,-0.3,0.0,1.0,404.0,952.0,1.0,0,584.0,1
920,920,0.36331071031269524,0.4,0.0,0.0,294.0,837.0,0.0,1,679.0,1
921,921,0.16853936646243295,0.2,1.0,1.0,323.0,875.0,1.0,1,-268.0,1
922,922,-0.2961635538874766,-0.3,1.0,0.0,337.0,659.0,0.0,0,1114.0,1
923,923,0.050135840657109854,0.1,0.0,0.0,410.0,820.0,0.0,1,1770.0,1
924,924,0.5791749518281991,0.6,1.0,1.0,341.0,589.0,1.0,1,150.0,1
925,925,0.7109435316838492,0.7,1.0,1.0,367.0,725.0,1.0,1,258.0,1
926,926,0.34223992456906804,0.3,1.0,1.0,355.0,526.0,1.0,1,539.0,1
927,927,0.660242991749202,0.7,0.0,0.0,461.0,964.0,0.0,1,175.0,1
928,928,0.4436577402605576,0.4,0.0,0.0,303.0,985.0,0.0,1,292.0,1
929,929,0.5841447726387309,0.6,1.0,1.0,298.0,759.0,1.0,1,373.0,1
930,930,-0.40435330130356145,-0.4,0.0,1.0,358.0,790.0,1.0,0,452.0,1
931,931,0.2893482196225593,0.3,0.0,0.0,447.0,931.0,0.0,1,1282.0,1
932,932,-0.3981582132420979,-0.4,1.0,0.0,421.0,606.0,0.0,0,1623.0,1
933,933,-0.15003987174461586,-0.2,1.0,0.0,315.0,537.0,0.0,0,1928.0,1
934,934,0.286724652772555,0.3,0.0,0.0,435.0,852.0,0.0,1,533.0,1
935,935,0.5798570205094954,0.6,1.0,1.0,307.0,834.0,1.0,1,349.0,1
936,936,0.26042729829603106,0.3,0.0,0.0,390.0,582.0,0.0,1,368.0,1
937,937,-0.8393768996949889,-0.8,1.0,0.0,329.0,646.0,0.0,0,175.0,1
938,938,-0.5798254538370825,-0.6,0.0,1.0,495.0,546.0,1.0,0,259.0,1
939,939,0.7719434136324005,0.8,0.0,0.0,455.0,940.0,0.0,1,-215.0,1
940,940,0.8339459874569025,0.8,1.0,1.0,337.0,907.0,1.0,1,256.0,1
941,941,0.2740966180940826,0.3,1.0,1.0,423.0,916.0,1.0,1,231.0,1
942,942,-0.025509431759149104,-0.0,1.0,0.0,328.0,855.0,0.0,0,1817.0,1
943,943,-0.2762269261254072,-0.3,1.0,0.0,417.0,550.0,0.0,0,363.0,1
944,944,0.12449447418568782,0.1,0.0,0.0,383.0,646.0,0.0,1,951.0,1
945,945,0.36340956309997774,0.4,0.0,0.0,314.0,792.0,0.0,1,814.0,1
946,946,-0.5069011334889746,-0.5,0.0,1.0,347.0,590.0,1.0,0,273.0,1
947,947,-0.5919085161131257,-0.6,0.0,1.0,347.0,919.0,1.0,0,304.0,1
948,948,0.26589970568528,0.3,0.0,0.0,258.0,545.0,0.0,1,1867.0,1
949,949,0.5633634292297504,0.6,1.0,1.0,252.0,635.0,1.0,1,523.0,1
950,950,0.4818158501599995,0.5,1.0,1.0,481.0,795.0,1.0,1,314.0,1
951,951,-0.625841580192998,-0.6,1.0,0.0,459.0,902.0,0.0,0,179.0,1
952,952,-0.8878858861160975,-0.9,0.0,1.0,496.0,623.0,1.0,0,281.0,1
953,953,-0.4492030596268986,-0.4,1.0,0.0,402.0,707.0,0.0,0,451.0,1
954,954,-0.3093899099308408,-0.3,1.0,0.0,436.0,685.0,0.0,0,1369.0,1
955,955,0.09232149108469301,0.1,1.0,1.0,492.0,715.0,1.0,1,1513.0,1
956,956,-0.5259236927702577,-0.5,1.0,0.0,338.0,964.0,0.0,0,298.0,1
957,957,-0.25927418522641055,-0.3,0.0,1.0,433.0,831.0,1.0,0,1106.0,1
958,958,0.21054356661527562,0.2,1.0,1.0,443.0,810.0,1.0,1,927.0,1
959,959,0.27967893561678736,0.3,1.0,1.0,433.0,983.0,1.0,1,734.0,1
960,960,-0.7139882328719768,-0.7,1.0,0.0,348.0,721.0,0.0,0,261.0,1
961,961,0.8662188053360965,0.9,0.0,0.0,302.0,849.0,0.0,1,259.0,1
962,962,0.8898091003206084,0.9,1.0,1.0,325.0,654.0,1.0,1,101.0,1
963,963,-0.8194830858519655,-0.8,0.0,1.0,350.0,575.0,1.0,0,175.0,1
964,964,-0.8488659946817659,-0.8,1.0,0.0,282.0,607.0,0.0,0,191.0,1
965,965,0.6223990082161318,0.6,1.0,1.0,267.0,997.0,1.0,1,226.0,1
966,966,-0.2781143258090424,-0.3,1.0,0.0,346.0,864.0,0.0,0,840.0,1
967,967,0.7198248559589305,0.7,1.0,1.0,305.0,879.0,1.0,1,316.0,1
968,968,0.1362505036120053,0.1,1.0,1.0,458.0,630.0,1.0,1,742.0,1
969,969,0.04776873021980599,0.0,1.0,1.0,466.0,654.0,1.0,1,1080.0,1
970,970,0.39459684905694015,0.4,0.0,0.0,370.0,543.0,0.0,1,507.0,1
971,971,-0.31648509152211113,-0.3,0.0,1.0,499.0,689.0,1.0,0,382.0,1
972,972,0.41170468774028646,0.4,0.0,0.0,251.0,809.0,0.0,1,220.0,1
973,973,0.2801473222489318,0.3,1.0,1.0,464.0,573.0,1.0,1,393.0,1
974,974,-0.075272418027723,-0.1,1.0,0.0,375.0,519.0,0.0,0,376.0,1
975,975,-0.09914936322921342,-0.1,1.0,0.0,334.0,752.0,0.0,0,714.0,1
976,976,0.05745973323650044,0.1,1.0,1.0,404.0,585.0,1.0,1,2011.0,1
977,977,0.003146189781878639,0.0,0.0,0.0,380.0,528.0,0.0,1,2092.0,1
978,978,-0.7902696612583471,-0.8,1.0,0.0,290.0,857.0,0.0,0,203.0,1
979,979,0.5586184894320277,0.6,1.0,1.0,388.0,892.0,1.0,1,310.0,1
980,980,0.5039917870480694,0.5,1.0,1.0,294.0,805.0,1.0,1,691.0,1
981,981,-0.5616181334737196,-0.6,1.0,0.0,405.0,637.0,0.0,0,358.0,1
982,982,-0.05981069327707311,-0.1,0.0,1.0,254.0,651.0,1.0,0,2095.0,1
983,983,0.6001097063092128,0.6,0.0,0.0,498.0,634.0,0.0,1,288.0,1
984,984,-0.015232188661503665,-0.0,0.0,1.0,429.0,816.0,1.0,0,1755.0,1
985,985,-0.46446364246785216,-0.5,1.0,0.0,340.0,916.0,0.0,0,254.0,1
986,986,0.1762423436806141,0.2,0.0,0.0,372.0,982.0,0.0,1,1646.0,1
987,987,-0.02672518348379438,-0.0,0.0,1.0,252.0,812.0,1.0,0,916.0,1
988,988,0.8325812315632674,0.8,1.0,1.0,405.0,636.0,1.0,1,149.0,1
989,989,-0.21608450841845683,-0.2,0.0,1.0,368.0,893.0,1.0,0,1359.0,1
990,990,0.7636622998806472,0.8,1.0,1.0,284.0,836.0,1.0,1,230.0,1
991,991,0.4398107808099966,0.4,1.0,1.0,374.0,847.0,1.0,1,589.0,1
992,992,-0.21246962896471777,-0.2,1.0,0.0,369.0,531.0,1.0,1,-60.0,0
993,993,-0.6559679774515988,-0.7,0.0,1.0,439.0,600.0,1.0,0,141.0,1
994,994,0.1675778192942029,0.2,1.0,1.0,252.0,521.0,1.0,1,827.0,1
995,995,0.7526180022090648,0.8,0.0,0.0,339.0,668.0,0.0,1,343.0,1
996,996,0.17081110936442945,0.2,1.0,1.0,451.0,511.0,1.0,1,1118.0,1
997,997,0.33225382715128904,0.3,0.0,0.0,409.0,847.0,0.0,1,14.0,1
998,998,0.6227002505602218,0.6,1.0,1.0,439.0,503.0,1.0,1,278.0,1
999,999,-0.19933791328138062,-0.2,0.0,1.0,403.0,646.0,1.0,0,311.0,1
1000,1000,0.4670222878627027,0.5,0.0,0.0,250.0,521.0,0.0,1,479.0,1
1001,1001,0.7509804236234828,0.8,0.0,0.0,349.0,911.0,0.0,1,200.0,1
1002,1002,-0.41506387265135875,-0.4,0.0,1.0,346.0,561.0,1.0,0,323.0,1
1003,1003,-0.8826320596079326,-0.9,1.0,0.0,364.0,910.0,0.0,0,96.0,1
1004,1004,-0.8086426239729088,-0.8,1.0,0.0,325.0,862.0,0.0,0,173.0,1
1005,1005,0.2745994021571233,0.3,0.0,0.0,344.0,762.0,0.0,1,514.0,1
1006,1006,0.8462853745333695,0.8,0.0,0.0,396.0,849.0,0.0,1,195.0,1
1007,1007,-0.5891967277039778,-0.6,1.0,0.0,464.0,669.0,0.0,0,357.0,1
1008,1008,-0.21279921219109266,-0.2,0.0,1.0,460.0,800.0,1.0,0,730.0,1
1009,1009,0.5664379971164665,0.6,1.0,1.0,394.0,887.0,1.0,1,349.0,1
1010,1010,-0.6123932473758783,-0.6,0.0,1.0,413.0,556.0,1.0,0,411.0,1
1011,1011,0.04018019716160093,0.0,1.0,1.0,393.0,683.0,0.0,0,1924.0,0
1012,1012,0.8986403453169555,0.9,1.0,1.0,332.0,843.0,1.0,1,285.0,1
1013,1013,0.4303889166323135,0.4,1.0,1.0,485.0,939.0,1.0,1,456.0,1
1014,1014,0.475815462920374,0.5,1.0,1.0,469.0,874.0,1.0,1,357.0,1
1015,1015,-0.015776165534097886,-0.0,0.0,1.0,256.0,651.0,1.0,0,2093.0,1
1016,1016,0.4722839012669121,0.5,1.0,1.0,464.0,678.0,1.0,1,238.0,1
1017,1017,-0.5123572759594334,-0.5,1.0,0.0,316.0,811.0,0.0,0,533.0,1
1018,1018,0.8501190483816229,0.9,1.0,1.0,292.0,800.0,1.0,1,328.0,1
1019,1019,0.05434714435791277,0.1,1.0,1.0,397.0,569.0,1.0,1,2034.0,1
1020,1020,0.7454996068320378,0.7,0.0,0.0,258.0,659.0,0.0,1,433.0,1
1021,1021,0.6120175022300945,0.6,1.0,1.0,349.0,636.0,1.0,1,305.0,1
1022,1022,0.8861888731919488,0.9,0.0,0.0,256.0,850.0,0.0,1,124.0,1
1023,1023,-0.19493315354196417,-0.2,1.0,0.0,331.0,819.0,0.0,0,980.0,1
1024,1024,0.2864199188634077,0.3,1.0,1.0,313.0,977.0,1.0,1,1110.0,1
1025,1025,-0.1210920366628333,-0.1,1.0,0.0,292.0,829.0,0.0,0,399.0,1
1026,1026,0.630380846931912,0.6,1.0,1.0,300.0,771.0,1.0,1,189.0,1
1027,1027,0.3627148483038348,0.4,1.0,1.0,389.0,679.0,1.0,1,512.0,1
1028,1028,0.47155502145825745,0.5,0.0,0.0,378.0,589.0,0.0,1,273.0,1
1029,1029,0.46435174987434025,0.5,1.0,1.0,479.0,924.0,1.0,1,257.0,1
1030,1030,0.2693026295211659,0.3,0.0,0.0,439.0,527.0,0.0,1,584.0,1
1031,1031,0.2578529321790862,0.3,1.0,1.0,349.0,791.0,1.0,1,400.0,1
1032,1032,-0.1740362525077288,-0.2,1.0,0.0,259.0,629.0,0.0,0,2112.0,1
1033,1033,-0.5688336924076929,-0.6,0.0,1.0,298.0,724.0,1.0,0,268.0,1
1034,1034,0.7616411633451087,0.8,0.0,0.0,398.0,952.0,0.0,1,110.0,1
1035,1035,-0.8139999900050205,-0.8,0.0,1.0,379.0,580.0,1.0,0,431.0,1
1036,1036,-0.029544452417617717,-0.0,0.0,1.0,322.0,678.0,1.0,0,2000.0,1
1037,1037,-0.15703522194677033,-0.2,0.0,1.0,383.0,631.0,1.0,0,1636.0,1
1038,1038,-0.14574039426048901,-0.1,0.0,1.0,375.0,798.0,1.0,0,1827.0,1
1039,1039,0.6390396900006535,0.6,1.0,1.0,251.0,514.0,1.0,1,295.0,1
1040,1040,0.4616816062844945,0.5,1.0,1.0,395.0,900.0,1.0,1,245.0,1
1041,1041,0.0064750003814810775,0.0,0.0,0.0,423.0,936.0,0.0,1,-9.0,1
1042,1042,0.4806063367873096,0.5,0.0,0.0,264.0,542.0,0.0,1,304.0,1
1043,1043,0.05688438770010962,0.1,1.0,1.0,289.0,764.0,1.0,1,1917.0,1
1044,1044,0.8932586079035528,0.9,0.0,0.0,415.0,959.0,0.0,1,-74.0,1
1045,1045,-0.5533683794922737,-0.6,1.0,0.0,332.0,875.0,0.0,0,323.0,1
1046,1046,-0.056684792550317775,-0.1,0.0,1.0,354.0,727.0,1.0,0,1919.0,1
1047,1047,-0.7593408707548746,-0.8,0.0,1.0,288.0,692.0,1.0,0,220.0,1
1048,1048,-0.03635066317905522,-0.0,0.0,1.0,407.0,766.0,1.0,0,1477.0,1
1049,1049,-0.49444652461650906,-0.5,0.0,1.0,315.0,527.0,1.0,0,558.0,1
1050,1050,-0.48943402003828756,-0.5,1.0,0.0,265.0,532.0,0.0,0,1053.0,1
1051,1051,-0.1738222076015704,-0.2,1.0,0.0,426.0,864.0,0.0,0,920.0,1
1052,1052,0.828485396966835,0.8,0.0,0.0,315.0,827.0,0.0,1,158.0,1
1053,1053,0.8973835039428245,0.9,0.0,0.0,386.0,744.0,0.0,1,310.0,1
1054,1054,0.8108781004800462,0.8,0.0,0.0,399.0,613.0,0.0,1,258.0,1
1055,1055,0.5820056479387413,0.6,0.0,0.0,279.0,875.0,0.0,1,156.0,1
1056,1056,0.5221971343600745,0.5,0.0,0.0,289.0,806.0,0.0,1,105.0,1
1057,1057,0.30673084123408867,0.3,0.0,0.0,338.0,565.0,0.0,1,497.0,1
1058,1058,-0.2738789538942292,-0.3,1.0,0.0,308.0,678.0,0.0,0,1174.0,1
1059,1059,0.23812587565395515,0.2,1.0,1.0,289.0,677.0,1.0,1,344.0,1
1060,1060,0.2587898003686516,0.3,1.0,1.0,433.0,601.0,1.0,1,816.0,1
1061,1061,0.006501568009686931,0.0,1.0,1.0,353.0,739.0,1.0,1,1908.0,1
1062,1062,0.6807247643431665,0.7,0.0,0.0,318.0,684.0,0.0,1,258.0,1
1063,1063,-0.25236014156840414,-0.3,0.0,1.0,449.0,856.0,0.0,1,1695.0,0
1064,1064,-0.44158891773485515,-0.4,0.0,1.0,330.0,554.0,1.0,0,156.0,1
1065,1065,0.8036020146155681,0.8,1.0,1.0,350.0,612.0,1.0,1,68.0,1
1066,1066,0.09492440767768973,0.1,0.0,0.0,490.0,793.0,0.0,1,1717.0,1
1067,1067,-0.8611616422527941,-0.9,0.0,1.0,382.0,896.0,1.0,0,242.0,1
1068,1068,-0.010948291734411586,-0.0,1.0,0.0,363.0,711.0,1.0,1,1926.0,0
1069,1069,0.3097362112640286,0.3,1.0,1.0,437.0,820.0,1.0,1,393.0,1
1070,1070,0.4412516780190133,0.4,1.0,1.0,374.0,617.0,1.0,1,269.0,1
1071,1071,-0.7839156750939644,-0.8,0.0,1.0,344.0,507.0,1.0,0,149.0,1
1072,1072,0.8305845362463026,0.8,1.0,1.0,313.0,637.0,1.0,1,250.0,1
1073,1073,-0.08187156881040658,-0.1,0.0,1.0,481.0,589.0,1.0,0,1060.0,1
1074,1074,0.33353152808787623,0.3,0.0,0.0,350.0,862.0,0.0,1,838.0,1
1075,1075,0.5211625057626962,0.5,0.0,0.0,366.0,826.0,0.0,1,18.0,1
1076,1076,0.82384508227359,0.8,0.0,0.0,317.0,546.0,0.0,1,257.0,1
1077,1077,0.852673006612135,0.9,1.0,1.0,254.0,579.0,1.0,1,357.0,1
1078,1078,0.07435023416984143,0.1,1.0,1.0,490.0,857.0,1.0,1,343.0,1
1079,1079,0.1343677824878019,0.1,0.0,0.0,457.0,554.0,0.0,1,729.0,1
1080,1080,-0.09517415457477718,-0.1,0.0,1.0,272.0,884.0,1.0,0,1844.0,1
1081,1081,0.439478153515214,0.4,1.0,1.0,393.0,882.0,1.0,1,335.0,1
1082,1082,0.05553157526254504,0.1,1.0,1.0,499.0,633.0,0.0,0,-232.0,0
1083,1083,-0.18299876966106732,-0.2,0.0,1.0,495.0,945.0,1.0,0,1560.0,1
1084,1084,0.26015617632989263,0.3,1.0,1.0,482.0,639.0,1.0,1,919.0,1
1085,1085,-0.008278632374717265,-0.0,1.0,0.0,363.0,591.0,1.0,1,1446.0,0
1086,1086,0.8930049983803535,0.9,1.0,1.0,297.0,908.0,1.0,1,75.0,1
1087,1087,0.6217419056907657,0.6,0.0,0.0,284.0,678.0,0.0,1,308.0,1
1088,1088,0.4638106948541695,0.5,0.0,0.0,324.0,659.0,0.0,1,77.0,1
1089,1089,0.0189618813094673,0.0,0.0,0.0,346.0,760.0,0.0,1,1894.0,1
1090,1090,-0.5292721305759496,-0.5,1.0,0.0,455.0,595.0,0.0,0,380.0,1
1091,1091,-0.3696013689568879,-0.4,0.0,1.0,445.0,658.0,1.0,0,367.0,1
1092,1092,-0.7534471660985187,-0.8,1.0,0.0,288.0,783.0,0.0,0,279.0,1
1093,1093,-0.6242426751705571,-0.6,1.0,0.0,491.0,815.0,0.0,0,284.0,1
1094,1094,-0.413020370005978,-0.4,1.0,0.0,255.0,838.0,0.0,0,347.0,1
1095,1095,0.15572875188921287,0.2,0.0,0.0,259.0,522.0,0.0,1,2219.0,1
1096,1096,0.3785688257485996,0.4,1.0,1.0,301.0,604.0,1.0,1,315.0,1
1097,1097,0.750307540532604,0.8,0.0,0.0,496.0,842.0,0.0,1,172.0,1
1098,1098,-0.29493221098536293,-0.3,1.0,0.0,292.0,960.0,0.0,0,1598.0,1
1099,1099,0.1457478075078903,0.1,1.0,1.0,273.0,948.0,1.0,1,589.0,1
1100,1100,-0.4804230852260763,-0.5,0.0,1.0,296.0,569.0,1.0,0,505.0,1
1101,1101,-0.4796621085579185,-0.5,1.0,0.0,470.0,559.0,0.0,0,451.0,1
1102,1102,0.86602838766646,0.9,0.0,0.0,445.0,504.0,0.0,1,141.0,1
1103,1103,0.5756845172109878,0.6,0.0,0.0,331.0,754.0,0.0,1,195.0,1
1104,1104,-0.7974662326897191,-0.8,0.0,1.0,283.0,785.0,1.0,0,292.0,1
1105,1105,-0.39803462320432126,-0.4,0.0,1.0,399.0,624.0,1.0,0,187.0,1
1106,1106,0.4788497580768122,0.5,1.0,1.0,409.0,890.0,1.0,1,191.0,1
1107,1107,-0.6661987803464233,-0.7,1.0,0.0,309.0,933.0,0.0,0,218.0,1
1108,1108,0.07842066558687077,0.1,1.0,1.0,253.0,861.0,1.0,1,1886.0,1
1109,1109,-0.8255138206713627,-0.8,1.0,0.0,481.0,722.0,0.0,0,197.0,1
1110,1110,-0.13067776614114035,-0.1,0.0,1.0,382.0,612.0,1.0,0,546.0,1
1111,1111,-0.8344386326089274,-0.8,1.0,0.0,352.0,876.0,0.0,0,352.0,1
1112,1112,0.18577314758773034,0.2,1.0,1.0,377.0,988.0,1.0,1,715.0,1
1113,1113,0.6682133714158008,0.7,0.0,0.0,299.0,958.0,0.0,1,243.0,1
1114,1114,0.5645106028298513,0.6,1.0,1.0,368.0,830.0,1.0,1,242.0,1
1115,1115,-0.5356108268582905,-0.5,0.0,1.0,270.0,883.0,1.0,0,217.0,1
1116,1116,-0.6947922296991373,-0.7,1.0,0.0,345.0,683.0,0.0,0,222.0,1
1117,1117,0.6980911662199077,0.7,1.0,1.0,379.0,762.0,1.0,1,179.0,1
1118,1118,-0.5897673460753725,-0.6,0.0,1.0,412.0,618.0,1.0,0,240.0,1
1119,1119,0.6398089134501949,0.6,0.0,0.0,467.0,757.0,0.0,1,-164.0,1
1120,1120,-0.005825768686405497,-0.0,0.0,1.0,465.0,650.0,1.0,0,1885.0,1
1121,1121,-0.6239262968345147,-0.6,1.0,0.0,463.0,919.0,0.0,0,148.0,1
1122,1122,0.8585584991700418,0.9,0.0,0.0,312.0,818.0,0.0,1,290.0,1
1123,1123,0.39983812398162744,0.4,0.0,0.0,442.0,615.0,0.0,1,233.0,1
1124,1124,0.6838217228351618,0.7,0.0,0.0,368.0,908.0,0.0,1,194.0,1
1125,1125,-0.7808015004636116,-0.8,0.0,1.0,427.0,698.0,1.0,0,135.0,1
1126,1126,-0.6734078168393347,-0.7,1.0,0.0,397.0,773.0,0.0,0,450.0,1
1127,1127,0.24934446873572924,0.2,0.0,0.0,481.0,702.0,0.0,1,617.0,1
1128,1128,0.10929080720042916,0.1,0.0,0.0,331.0,923.0,1.0,0,1746.0,0
1129,1129,0.8018911180874283,0.8,1.0,1.0,419.0,765.0,1.0,1,-544.0,1
1130,1130,0.32948624359548695,0.3,1.0,1.0,261.0,972.0,1.0,1,497.0,1
1131,1131,0.7520962651344733,0.8,0.0,0.0,313.0,886.0,0.0,1,221.0,1
1132,1132,0.3955409488410405,0.4,0.0,0.0,390.0,552.0,0.0,1,608.0,1
1133,1133,-0.6676481994889799,-0.7,1.0,0.0,380.0,914.0,0.0,0,206.0,1
1134,1134,-0.15034520962688203,-0.2,1.0,0.0,339.0,801.0,0.0,0,-140.0,1
1135,1135,0.7678206175754655,0.8,0.0,0.0,354.0,712.0,0.0,1,194.0,1
1136,1136,-0.6785062486085504,-0.7,1.0,0.0,252.0,846.0,0.0,0,222.0,1
1137,1137,-0.7971757697050108,-0.8,1.0,0.0,305.0,829.0,0.0,0,286.0,1
1138,1138,-0.34776323038666623,-0.3,0.0,1.0,392.0,955.0,1.0,0,333.0,1
1139,1139,-0.22425042357318903,-0.2,1.0,0.0,301.0,604.0,0.0,0,385.0,1
1140,1140,-0.32356396719143077,-0.3,0.0,1.0,305.0,616.0,1.0,0,419.0,1
1141,1141,0.4906621244526489,0.5,1.0,1.0,292.0,681.0,1.0,1,467.0,1
1142,1142,0.7700992983567098,0.8,0.0,0.0,488.0,916.0,0.0,1,146.0,1
1143,1143,-0.8642885467152799,-0.9,1.0,0.0,498.0,555.0,0.0,0,67.0,1
1144,1144,0.5603216818374811,0.6,0.0,0.0,394.0,955.0,0.0,1,431.0,1
1145,1145,-0.3849490216654723,-0.4,1.0,0.0,314.0,938.0,0.0,0,568.0,1
1146,1146,-0.45565780083162033,-0.5,1.0,0.0,403.0,990.0,0.0,0,317.0,1
1147,1147,-0.4915639939240294,-0.5,0.0,1.0,251.0,724.0,1.0,0,455.0,1
1148,1148,0.48453808920617025,0.5,0.0,0.0,321.0,693.0,0.0,1,126.0,1
1149,1149,-0.4221698242482966,-0.4,1.0,0.0,425.0,517.0,0.0,0,828.0,1
1150,1150,0.7355200146318582,0.7,0.0,0.0,436.0,931.0,0.0,1,193.0,1
1151,1151,0.30354283862631715,0.3,0.0,0.0,379.0,879.0,0.0,1,262.0,1
1152,1152,0.20342470095416776,0.2,1.0,1.0,388.0,902.0,1.0,1,270.0,1
1153,1153,0.8192504878493853,0.8,0.0,0.0,490.0,932.0,0.0,1,398.0,1
1154,1154,-0.6942313571152221,-0.7,0.0,1.0,413.0,646.0,1.0,0,201.0,1
1155,1155,0.8032858575479528,0.8,1.0,1.0,365.0,747.0,1.0,1,148.0,1
1156,1156,-0.23628850521843814,-0.2,1.0,0.0,360.0,603.0,0.0,0,687.0,1
1157,1157,-0.39613371484317283,-0.4,0.0,1.0,312.0,530.0,1.0,0,478.0,1
1158,1158,0.21715364976068574,0.2,1.0,1.0,360.0,605.0,1.0,1,585.0,1
1159,1159,0.8131927926841395,0.8,1.0,1.0,414.0,595.0,1.0,1,-179.0,1
1160,1160,0.613991366390244,0.6,0.0,0.0,289.0,624.0,0.0,1,417.0,1
1161,1161,0.19156717829085912,0.2,0.0,0.0,396.0,734.0,0.0,1,910.0,1
1162,1162,-0.6128916584094659,-0.6,1.0,0.0,468.0,697.0,0.0,0,385.0,1
1163,1163,-0.0695927002989033,-0.1,0.0,1.0,400.0,849.0,1.0,0,421.0,1
1164,1164,-0.40328316013339266,-0.4,1.0,0.0,495.0,626.0,0.0,0,409.0,1
1165,1165,0.8229118610957656,0.8,0.0,0.0,438.0,638.0,0.0,1,244.0,1
1166,1166,-0.31750761387895876,-0.3,1.0,0.0,321.0,986.0,0.0,0,463.0,1
1167,1167,0.785139573327149,0.8,1.0,1.0,382.0,933.0,1.0,1,225.0,1
1168,1168,0.07809534678168684,0.1,0.0,0.0,314.0,986.0,0.0,1,1700.0,1
1169,1169,0.5927098793336728,0.6,1.0,1.0,329.0,724.0,1.0,1,217.0,1
1170,1170,-0.8449399328834027,-0.8,0.0,1.0,288.0,950.0,1.0,0,172.0,1
1171,1171,0.8419224884356954,0.8,1.0,1.0,348.0,877.0,1.0,1,165.0,1
1172,1172,0.35733890458872664,0.4,1.0,1.0,405.0,870.0,1.0,1,215.0,1
1173,1173,-0.17739611773729325,-0.2,0.0,1.0,264.0,992.0,1.0,0,1664.0,1
1174,1174,0.8166359323003897,0.8,0.0,0.0,304.0,551.0,0.0,1,355.0,1
1175,1175,0.5844859505231513,0.6,0.0,0.0,255.0,733.0,0.0,1,172.0,1
1176,1176,0.45598392044734626,0.5,1.0,1.0,452.0,536.0,1.0,1,432.0,1
1177,1177,0.7070661886337085,0.7,1.0,1.0,277.0,615.0,1.0,1,198.0,1
1178,1178,0.16475390776681775,0.2,0.0,0.0,446.0,997.0,0.0,1,1557.0,1
1179,1179,0.6143470616313199,0.6,0.0,0.0,346.0,618.0,0.0,1,126.0,1
1180,1180,-0.6743287321701461,-0.7,1.0,0.0,399.0,811.0,0.0,0,180.0,1
1181,1181,-0.061162268533951125,-0.1,0.0,1.0,390.0,618.0,0.0,1,1992.0,0
1182,1182,-0.2929824954877276,-0.3,0.0,1.0,400.0,854.0,1.0,0,266.0,1
1183,1183,0.8446545326821465,0.8,0.0,0.0,491.0,822.0,0.0,1,257.0,1
1184,1184,0.06467846580831194,0.1,0.0,0.0,384.0,501.0,1.0,0,2115.0,0
1185,1185,-0.48452867729800286,-0.5,1.0,0.0,410.0,805.0,0.0,0,215.0,1
1186,1186,-0.6469265791561684,-0.6,0.0,1.0,408.0,605.0,1.0,0,227.0,1
1187,1187,0.0685649399384366,0.1,0.0,0.0,288.0,570.0,0.0,1,1892.0,1
1188,1188,-0.19035679391270788,-0.2,0.0,1.0,370.0,851.0,1.0,0,1779.0,1
1189,1189,-0.057896292620187695,-0.1,1.0,0.0,371.0,535.0,1.0,1,2094.0,0
1190,1190,-0.453876528858739,-0.5,1.0,0.0,294.0,859.0,0.0,0,1407.0,1
1191,1191,-0.06310816096609384,-0.1,0.0,1.0,467.0,904.0,1.0,0,1629.0,1
1192,1192,0.35003933706881163,0.4,1.0,1.0,379.0,932.0,1.0,1,359.0,1
1193,1193,0.7173252175632064,0.7,1.0,1.0,433.0,662.0,1.0,1,185.0,1
1194,1194,0.19441470296195773,0.2,0.0,0.0,339.0,977.0,0.0,1,684.0,1
1195,1195,-0.09114998501570859,-0.1,1.0,0.0,470.0,934.0,0.0,0,1596.0,1
1196,1196,0.8514185547310623,0.9,1.0,1.0,430.0,896.0,1.0,1,284.0,1
1197,1197,0.5297626389768734,0.5,0.0,0.0,447.0,868.0,0.0,1,95.0,1
1198,1198,0.11426632499826217,0.1,0.0,0.0,489.0,912.0,0.0,1,939.0,1
1199,1199,-0.09711762374188071,-0.1,1.0,0.0,345.0,552.0,0.0,0,2103.0,1
1200,1200,-0.43537295735350356,-0.4,1.0,0.0,361.0,951.0,0.0,0,448.0,1
1201,1201,0.25950014223381623,0.3,1.0,1.0,311.0,817.0,0.0,0,-308.0,0
1202,1202,0.8695748074382744,0.9,0.0,0.0,493.0,730.0,0.0,1,287.0,1
1203,1203,-0.5079613281096091,-0.5,0.0,1.0,295.0,695.0,1.0,0,210.0,1
1204,1204,-0.04330683740368091,-0.0,0.0,1.0,457.0,583.0,1.0,0,1790.0,1
1205,1205,0.3634141291872971,0.4,0.0,0.0,452.0,532.0,0.0,1,416.0,1
1206,1206,0.4455913863900295,0.4,0.0,0.0,308.0,898.0,0.0,1,244.0,1
1207,1207,0.2016022259254896,0.2,0.0,0.0,309.0,802.0,0.0,1,939.0,1
1208,1208,-0.7202945048402354,-0.7,1.0,0.0,487.0,913.0,0.0,0,220.0,1
1209,1209,-0.6555157492531474,-0.7,0.0,1.0,407.0,610.0,1.0,0,363.0,1
1210,1210,0.1412345540131167,0.1,0.0,0.0,319.0,805.0,0.0,1,796.0,1
1211,1211,-0.2613769575166185,-0.3,1.0,0.0,496.0,553.0,0.0,0,281.0,1
1212,1212,0.5291474061944493,0.5,1.0,1.0,343.0,748.0,1.0,1,149.0,1
1213,1213,0.20036599502102825,0.2,0.0,0.0,480.0,691.0,0.0,1,759.0,1
1214,1214,-0.7683108990833774,-0.8,1.0,0.0,292.0,878.0,0.0,0,120.0,1
1215,1215,-0.13795542311648512,-0.1,0.0,1.0,465.0,972.0,1.0,0,1543.0,1
1216,1216,-0.2934585209318241,-0.3,1.0,0.0,415.0,519.0,0.0,0,236.0,1
1217,1217,0.8129626752438187,0.8,0.0,0.0,301.0,723.0,0.0,1,346.0,1
1218,1218,-0.5088328868495315,-0.5,1.0,0.0,338.0,870.0,0.0,0,32.0,1
1219,1219,-0.7657163614713001,-0.8,1.0,0.0,444.0,640.0,0.0,0,1286.0,1
1220,1220,-0.01686713186969191,-0.0,0.0,1.0,388.0,534.0,0.0,1,2078.0,0
1221,1221,-0.006242513086394896,-0.0,1.0,0.0,457.0,545.0,0.0,0,1998.0,1
1222,1222,-0.8303436128337465,-0.8,0.0,1.0,421.0,607.0,1.0,0,442.0,1
1223,1223,0.7200725204248798,0.7,0.0,0.0,366.0,561.0,0.0,1,273.0,1
1224,1224,0.5396203201512845,0.5,1.0,1.0,374.0,641.0,1.0,1,335.0,1
1225,1225,-0.16411914810381945,-0.2,0.0,1.0,264.0,922.0,1.0,0,984.0,1
1226,1226,-0.6793191733166354,-0.7,1.0,0.0,412.0,953.0,0.0,0,365.0,1
1227,1227,0.47885114493549785,0.5,0.0,0.0,361.0,988.0,0.0,1,521.0,1
1228,1228,-0.24525260092257806,-0.2,1.0,0.0,260.0,698.0,0.0,0,352.0,1
1229,1229,-0.7202549454450632,-0.7,1.0,0.0,436.0,954.0,0.0,0,150.0,1
1230,1230,-0.6322659967674988,-0.6,0.0,1.0,250.0,735.0,1.0,0,385.0,1
1231,1231,0.6767520713425083,0.7,1.0,1.0,462.0,674.0,1.0,1,164.0,1
1232,1232,0.8764075094920755,0.9,1.0,1.0,413.0,832.0,0.0,0,-635.0,0
1233,1233,0.24835970307879351,0.2,0.0,0.0,343.0,947.0,0.0,1,650.0,1
1234,1234,-0.46867256282183256,-0.5,1.0,0.0,280.0,703.0,0.0,0,197.0,1
1235,1235,0.5943245248137495,0.6,1.0,1.0,392.0,790.0,1.0,1,318.0,1
1236,1236,-0.6496541995443172,-0.6,0.0,1.0,420.0,515.0,1.0,0,495.0,1
1237,1237,0.2749162389263208,0.3,1.0,1.0,499.0,824.0,1.0,1,777.0,1
1238,1238,-0.578587907947695,-0.6,0.0,1.0,363.0,920.0,1.0,0,307.0,1
1239,1239,-0.7312760100809557,-0.7,1.0,0.0,299.0,648.0,0.0,0,143.0,1
1240,1240,0.6558059750288191,0.7,1.0,1.0,429.0,976.0,1.0,1,195.0,1
1241,1241,0.0700149619278676,0.1,0.0,0.0,372.0,884.0,0.0,1,-246.0,1
1242,1242,-0.5354789365212482,-0.5,0.0,1.0,459.0,833.0,1.0,0,398.0,1
1243,1243,-0.6406187466960664,-0.6,0.0,1.0,399.0,990.0,1.0,0,71.0,1
1244,1244,0.43190516346164565,0.4,0.0,0.0,306.0,655.0,0.0,1,459.0,1
1245,1245,0.08117034014730473,0.1,1.0,1.0,368.0,605.0,1.0,1,2027.0,1
1246,1246,-0.4365669967182291,-0.4,0.0,1.0,344.0,601.0,1.0,0,275.0,1
1247,1247,0.06994554013861964,0.1,1.0,1.0,484.0,737.0,1.0,1,689.0,1
1248,1248,0.08690596614150659,0.1,1.0,1.0,494.0,503.0,0.0,0,2003.0,0
1249,1249,0.836089578696905,0.8,1.0,1.0,261.0,794.0,1.0,1,145.0,1
1250,1250,0.2761031219260194,0.3,1.0,1.0,353.0,641.0,1.0,1,446.0,1
1251,1251,0.7833178871619163,0.8,1.0,1.0,349.0,712.0,1.0,1,99.0,1
1252,1252,0.29736659992351855,0.3,1.0,1.0,435.0,528.0,1.0,1,367.0,1
1253,1253,0.5881375594715778,0.6,1.0,1.0,389.0,728.0,1.0,1,203.0,1
1254,1254,0.0881889797905343,0.1,1.0,1.0,451.0,712.0,1.0,1,1837.0,1
1255,1255,-0.49596114463608004,-0.5,1.0,0.0,361.0,677.0,0.0,0,562.0,1
1256,1256,0.29892406741135724,0.3,0.0,0.0,384.0,860.0,0.0,1,596.0,1
1257,1257,0.849263902478811,0.8,0.0,0.0,279.0,775.0,0.0,1,206.0,1
1258,1258,-0.3417776730709984,-0.3,0.0,1.0,361.0,961.0,1.0,0,218.0,1
1259,1259,0.7847886912363781,0.8,0.0,0.0,250.0,654.0,0.0,1,256.0,1
1260,1260,0.4785994650195088,0.5,0.0,0.0,325.0,964.0,0.0,1,951.0,1
1261,1261,-0.12156880207528264,-0.1,1.0,0.0,348.0,890.0,0.0,0,1162.0,1
1262,1262,-0.08060640870120317,-0.1,1.0,0.0,391.0,896.0,0.0,0,523.0,1
1263,1263,0.06885820789684083,0.1,0.0,0.0,366.0,791.0,0.0,1,1233.0,1
1264,1264,0.15264839202281955,0.2,1.0,1.0,444.0,569.0,1.0,1,327.0,1
1265,1265,-0.10950645971699624,-0.1,1.0,0.0,274.0,522.0,0.0,0,-26.0,1
1266,1266,-0.3733822216154854,-0.4,1.0,0.0,307.0,699.0,0.0,0,174.0,1
1267,1267,-0.1976192785429174,-0.2,0.0,1.0,267.0,721.0,1.0,0,1042.0,1
1268,1268,-0.8874336979411921,-0.9,1.0,0.0,426.0,536.0,0.0,0,228.0,1
1269,1269,-0.5712280375408333,-0.6,0.0,1.0,271.0,615.0,1.0,0,624.0,1
1270,1270,-0.4950668372902102,-0.5,1.0,0.0,257.0,962.0,0.0,0,271.0,1
1271,1271,-0.05612415574992036,-0.1,0.0,1.0,301.0,797.0,1.0,0,1902.0,1
1272,1272,0.7251251927103107,0.7,1.0,1.0,456.0,506.0,1.0,1,288.0,1
1273,1273,-0.5181895831261689,-0.5,1.0,0.0,446.0,767.0,0.0,0,287.0,1
1274,1274,-0.2508873310904296,-0.3,0.0,1.0,491.0,747.0,1.0,0,762.0,1
1275,1275,-0.029646297776383723,-0.0,0.0,1.0,379.0,911.0,0.0,1,1710.0,0
1276,1276,-0.17189030543670347,-0.2,0.0,1.0,282.0,850.0,1.0,0,738.0,1
1277,1277,-0.2806715971070113,-0.3,0.0,1.0,468.0,679.0,1.0,0,543.0,1
1278,1278,0.49491832358821053,0.5,0.0,0.0,297.0,676.0,0.0,1,637.0,1
1279,1279,0.10717341106252565,0.1,1.0,1.0,463.0,590.0,1.0,1,27.0,1
1280,1280,0.18478409064357282,0.2,1.0,1.0,461.0,979.0,1.0,1,680.0,1
1281,1281,-0.8511231931571565,-0.9,1.0,0.0,336.0,987.0,0.0,0,227.0,1
1282,1282,-0.4524596318017676,-0.5,0.0,1.0,280.0,979.0,1.0,0,481.0,1
1283,1283,-0.8266871977951658,-0.8,0.0,1.0,349.0,853.0,1.0,0,138.0,1
1284,1284,-0.8744547030253741,-0.9,1.0,0.0,483.0,797.0,0.0,0,40.0,1
1285,1285,-0.346959437125246,-0.3,0.0,1.0,452.0,717.0,1.0,0,341.0,1
1286,1286,0.560481993133139,0.6,1.0,1.0,399.0,881.0,1.0,1,200.0,1
1287,1287,-0.38059127554820793,-0.4,0.0,1.0,316.0,696.0,1.0,0,298.0,1
1288,1288,-0.6074422906564472,-0.6,0.0,1.0,355.0,740.0,1.0,0,285.0,1
1289,1289,-0.7333760308881012,-0.7,1.0,0.0,394.0,756.0,0.0,0,190.0,1
1290,1290,0.02864601585365978,0.0,1.0,1.0,252.0,563.0,0.0,0,2185.0,0
1291,1291,-0.3405415710623252,-0.3,0.0,1.0,457.0,725.0,1.0,0,828.0,1
1292,1292,0.5450228291442326,0.5,0.0,0.0,466.0,618.0,0.0,1,236.0,1
1293,1293,-0.014845996566689279,-0.0,1.0,0.0,298.0,691.0,0.0,0,2011.0,1
1294,1294,0.8143743149290449,0.8,0.0,0.0,364.0,671.0,0.0,1,285.0,1
1295,1295,0.7270065945473444,0.7,0.0,0.0,398.0,707.0,0.0,1,105.0,1
1296,1296,0.8113080747794713,0.8,1.0,1.0,423.0,787.0,1.0,1,100.0,1
1297,1297,-0.13714767028652053,-0.1,1.0,0.0,278.0,552.0,0.0,0,2170.0,1
1298,1298,0.6377226910843424,0.6,1.0,1.0,330.0,599.0,1.0,1,481.0,1
1299,1299,0.6917890985849756,0.7,0.0,0.0,343.0,611.0,0.0,1,336.0,1
1300,1300,0.28279578252901183,0.3,1.0,1.0,288.0,693.0,1.0,1,499.0,1
1301,1301,0.8919296704775449,0.9,0.0,0.0,403.0,763.0,0.0,1,384.0,1
1302,1302,-0.5752220778214046,-0.6,1.0,0.0,430.0,859.0,0.0,0,411.0,1
1303,1303,-0.0028083553265090266,-0.0,1.0,0.0,287.0,783.0,1.0,1,1930.0,0
1304,1304,0.16564532727078485,0.2,1.0,1.0,399.0,993.0,1.0,1,1458.0,1
1305,1305,0.4694885024973564,0.5,0.0,0.0,432.0,741.0,0.0,1,677.0,1
1306,1306,0.5448360031794678,0.5,1.0,1.0,318.0,900.0,1.0,1,202.0,1
1307,1307,-0.5365779159025204,-0.5,1.0,0.0,307.0,509.0,0.0,0,694.0,1
1308,1308,0.8405861498820627,0.8,0.0,0.0,348.0,504.0,0.0,1,188.0,1
1309,1309,-0.8239432300489397,-0.8,1.0,0.0,250.0,659.0,0.0,0,421.0,1
1310,1310,0.782420617549766,0.8,0.0,0.0,340.0,839.0,0.0,1,171.0,1
1311,1311,0.4748178806400706,0.5,0.0,0.0,440.0,898.0,0.0,1,202.0,1
1312,1312,0.023665666127674956,0.0,0.0,0.0,384.0,813.0,1.0,0,1803.0,0
1313,1313,-0.41505740810589237,-0.4,1.0,0.0,458.0,896.0,0.0,0,376.0,1
1314,1314,0.3475351810691244,0.3,1.0,1.0,265.0,555.0,1.0,1,320.0,1
1315,1315,-0.5157095832050719,-0.5,1.0,0.0,485.0,958.0,0.0,0,337.0,1
1316,1316,-0.33181253980638425,-0.3,0.0,1.0,358.0,887.0,1.0,0,265.0,1
1317,1317,0.012895574935853693,0.0,1.0,1.0,478.0,919.0,0.0,0,1603.0,0
1318,1318,-0.8824326824772097,-0.9,1.0,0.0,426.0,746.0,0.0,0,238.0,1
1319,1319,0.5823939903748171,0.6,0.0,0.0,364.0,848.0,0.0,1,288.0,1
1320,1320,0.18356004198647746,0.2,0.0,0.0,341.0,872.0,0.0,1,787.0,1
1321,1321,-0.339918788497638,-0.3,1.0,0.0,270.0,923.0,0.0,0,347.0,1
1322,1322,-0.6488183094689438,-0.6,1.0,0.0,273.0,891.0,0.0,0,186.0,1
1323,1323,0.2100338896520778,0.2,0.0,0.0,385.0,896.0,0.0,1,1129.0,1
1324,1324,0.47128611541141174,0.5,0.0,0.0,320.0,919.0,0.0,1,391.0,1
1325,1325,0.7209804227464275,0.7,1.0,1.0,302.0,934.0,1.0,1,324.0,1
1326,1326,0.3480694297591861,0.3,0.0,0.0,417.0,887.0,0.0,1,436.0,1
1327,1327,0.28752076148701533,0.3,0.0,0.0,429.0,636.0,0.0,1,725.0,1
1328,1328,-0.4667949131547705,-0.5,1.0,0.0,270.0,917.0,0.0,0,173.0,1
1329,1329,-0.42233552965243515,-0.4,0.0,1.0,266.0,514.0,1.0,0,340.0,1
1330,1330,0.8594451374472306,0.9,1.0,1.0,397.0,810.0,1.0,1,253.0,1
1331,1331,0.7541600626192885,0.8,1.0,1.0,424.0,690.0,1.0,1,206.0,1
1332,1332,0.6646666002993625,0.7,0.0,0.0,311.0,750.0,0.0,1,729.0,1
1333,1333,0.8120863161341437,0.8,0.0,0.0,287.0,816.0,0.0,1,397.0,1
1334,1334,0.644504494499411,0.6,0.0,0.0,286.0,792.0,0.0,1,192.0,1
1335,1335,0.6777183925961111,0.7,0.0,0.0,254.0,576.0,0.0,1,300.0,1
1336,1336,0.31552826671607226,0.3,1.0,1.0,365.0,805.0,1.0,1,400.0,1
1337,1337,0.022077535388319802,0.0,1.0,1.0,286.0,836.0,1.0,1,488.0,1
1338,1338,-0.8574161151379835,-0.9,0.0,1.0,431.0,590.0,1.0,0,189.0,1
1339,1339,-0.0665146956269933,-0.1,1.0,0.0,435.0,902.0,0.0,0,973.0,1
1340,1340,-0.4210167522851212,-0.4,0.0,1.0,330.0,745.0,1.0,0,55.0,1
1341,1341,-0.43434043731723937,-0.4,0.0,1.0,405.0,595.0,1.0,0,840.0,1
1342,1342,-0.26173751050342964,-0.3,1.0,0.0,406.0,985.0,0.0,0,349.0,1
1343,1343,-0.17249195488890212,-0.2,0.0,1.0,373.0,666.0,1.0,0,931.0,1
1344,1344,-0.42642271950407457,-0.4,0.0,1.0,460.0,841.0,1.0,0,239.0,1
1345,1345,0.27215321330616005,0.3,1.0,1.0,350.0,850.0,1.0,1,430.0,1
1346,1346,0.010675745416468985,0.0,1.0,1.0,356.0,973.0,0.0,0,501.0,0
1347,1347,-0.7844893143782745,-0.8,1.0,0.0,413.0,925.0,0.0,0,232.0,1
1348,1348,-0.6503714787143805,-0.7,0.0,1.0,295.0,988.0,1.0,0,527.0,1
1349,1349,0.2298591960525741,0.2,1.0,1.0,277.0,656.0,1.0,1,237.0,1
1350,1350,0.022896473101866155,0.0,0.0,0.0,275.0,949.0,0.0,1,1396.0,1
1351,1351,-0.14493962077759726,-0.1,0.0,1.0,266.0,806.0,1.0,0,1808.0,1
1352,1352,0.029507168668183037,0.0,0.0,0.0,328.0,546.0,0.0,1,1046.0,1
1353,1353,-0.0048003501610328625,-0.0,0.0,1.0,380.0,722.0,1.0,0,1898.0,1
1354,1354,-0.3026440754678744,-0.3,0.0,1.0,426.0,560.0,1.0,0,1104.0,1
1355,1355,0.618872518828759,0.6,1.0,1.0,401.0,633.0,1.0,1,246.0,1
1356,1356,0.07166954704895279,0.1,1.0,1.0,472.0,995.0,1.0,1,1533.0,1
1357,1357,0.12442221149971322,0.1,0.0,0.0,408.0,643.0,0.0,1,1949.0,1
1358,1358,0.5650620116971722,0.6,1.0,1.0,464.0,864.0,0.0,0,-318.0,0
1359,1359,0.35913445274446854,0.4,0.0,0.0,314.0,596.0,0.0,1,250.0,1
1360,1360,-0.5154580429476407,-0.5,1.0,0.0,312.0,785.0,0.0,0,53.0,1
1361,1361,0.7461300269335595,0.7,1.0,1.0,316.0,894.0,1.0,1,180.0,1
1362,1362,-0.5753983776024965,-0.6,0.0,1.0,479.0,916.0,1.0,0,275.0,1
1363,1363,-0.06956562739788819,-0.1,1.0,0.0,383.0,753.0,0.0,0,1864.0,1
1364,1364,-0.4766187099377473,-0.5,1.0,0.0,488.0,622.0,0.0,0,350.0,1
1365,1365,0.8907886015460132,0.9,1.0,1.0,383.0,852.0,1.0,1,145.0,1
1366,1366,0.4574607084081125,0.5,0.0,0.0,365.0,628.0,0.0,1,187.0,1
1367,1367,0.08421179165546555,0.1,1.0,1.0,468.0,796.0,1.0,1,1736.0,1
1368,1368,0.3824617334767234,0.4,1.0,1.0,430.0,815.0,1.0,1,-355.0,1
1369,1369,0.8045313713872214,0.8,1.0,1.0,482.0,801.0,1.0,1,307.0,1
1370,1370,0.4156972676544032,0.4,0.0,0.0,408.0,592.0,0.0,1,220.0,1
1371,1371,-0.09113445632526507,-0.1,0.0,1.0,449.0,946.0,0.0,1,1285.0,0
1372,1372,-0.37943259196207113,-0.4,0.0,1.0,456.0,638.0,1.0,0,316.0,1
1373,1373,-0.38682592723093145,-0.4,0.0,1.0,269.0,576.0,1.0,0,415.0,1
1374,1374,-0.5466121907158458,-0.5,0.0,1.0,358.0,805.0,1.0,0,427.0,1
1375,1375,-0.8416797560734719,-0.8,0.0,1.0,303.0,832.0,1.0,0,155.0,1
1376,1376,-0.07375975967786697,-0.1,1.0,0.0,427.0,801.0,0.0,0,552.0,1
1377,1377,0.4305065102618163,0.4,0.0,0.0,364.0,919.0,0.0,1,267.0,1
1378,1378,0.6387682184753701,0.6,0.0,0.0,302.0,767.0,0.0,1,211.0,1
1379,1379,0.5608969218662484,0.6,0.0,0.0,309.0,607.0,0.0,1,174.0,1
1380,1380,0.12405261902916254,0.1,1.0,1.0,458.0,745.0,1.0,1,1607.0,1
1381,1381,-0.8089462285971986,-0.8,1.0,0.0,447.0,721.0,0.0,0,212.0,1
1382,1382,-0.2663099415160963,-0.3,1.0,0.0,397.0,751.0,0.0,0,332.0,1
1383,1383,-0.06760037516112383,-0.1,0.0,1.0,460.0,962.0,1.0,0,1228.0,1
1384,1384,-0.5829659448910558,-0.6,1.0,0.0,421.0,753.0,0.0,0,216.0,1
1385,1385,0.4268681045589652,0.4,1.0,1.0,481.0,927.0,1.0,1,222.0,1
1386,1386,-0.5421616015407771,-0.5,0.0,1.0,411.0,948.0,1.0,0,201.0,1
1387,1387,0.8893191978009868,0.9,0.0,0.0,410.0,609.0,0.0,1,211.0,1
1388,1388,-0.5868793079924954,-0.6,1.0,0.0,457.0,814.0,0.0,0,269.0,1
1389,1389,0.8573473542391862,0.9,0.0,0.0,354.0,618.0,0.0,1,328.0,1
1390,1390,-0.4308799409752046,-0.4,0.0,1.0,494.0,880.0,1.0,0,306.0,1
1391,1391,-0.5426593686042636,-0.5,1.0,0.0,354.0,795.0,0.0,0,181.0,1
1392,1392,0.3079317043007196,0.3,0.0,0.0,492.0,706.0,0.0,1,392.0,1
1393,1393,0.12901983926443983,0.1,1.0,1.0,270.0,814.0,1.0,1,1196.0,1
1394,1394,0.5691233519432012,0.6,0.0,0.0,377.0,512.0,0.0,1,361.0,1
1395,1395,0.11481368860261376,0.1,0.0,0.0,309.0,646.0,0.0,1,1175.0,1
1396,1396,-0.14813261517051035,-0.1,0.0,1.0,457.0,885.0,1.0,0,518.0,1
1397,1397,0.351537056120211,0.4,1.0,1.0,331.0,523.0,1.0,1,276.0,1
1398,1398,0.8944138325316752,0.9,0.0,0.0,395.0,655.0,0.0,1,250.0,1
1399,1399,-0.12015636147315445,-0.1,0.0,1.0,287.0,547.0,1.0,0,2166.0,1
1400,1400,0.6472637451738242,0.6,1.0,1.0,398.0,844.0,1.0,1,248.0,1
1401,1401,-0.8674159686007182,-0.9,1.0,0.0,440.0,834.0,0.0,0,196.0,1
1402,1402,0.3346718596488071,0.3,1.0,1.0,342.0,585.0,1.0,1,273.0,1
1403,1403,-0.874931683319348,-0.9,1.0,0.0,293.0,932.0,0.0,0,165.0,1
1404,1404,-0.6956297749908655,-0.7,0.0,1.0,275.0,608.0,1.0,0,227.0,1
1405,1405,0.6091834850831036,0.6,1.0,1.0,310.0,846.0,1.0,1,304.0,1
1406,1406,-0.8574354618599754,-0.9,0.0,1.0,406.0,851.0,1.0,0,213.0,1
1407,1407,0.2741657928013813,0.3,0.0,0.0,270.0,927.0,0.0,1,903.0,1
1408,1408,0.21001240766282192,0.2,0.0,0.0,348.0,692.0,0.0,1,810.0,1
1409,1409,0.4886989027774181,0.5,0.0,0.0,379.0,542.0,0.0,1,599.0,1
1410,1410,0.837292762041855,0.8,1.0,1.0,456.0,879.0,1.0,1,225.0,1
1411,1411,0.8038694269427024,0.8,0.0,0.0,330.0,735.0,0.0,1,135.0,1
1412,1412,0.6006913575813223,0.6,0.0,0.0,411.0,654.0,0.0,1,425.0,1
1413,1413,0.3675197719842783,0.4,0.0,0.0,376.0,912.0,1.0,0,-218.0,0
1414,1414,0.14069305558016698,0.1,1.0,1.0,442.0,864.0,1.0,1,1104.0,1
1415,1415,0.6033001038472711,0.6,1.0,1.0,343.0,952.0,1.0,1,255.0,1
1416,1416,0.5867420782603731,0.6,0.0,0.0,398.0,687.0,0.0,1,235.0,1
1417,1417,0.35445220991328574,0.4,1.0,1.0,270.0,626.0,1.0,1,584.0,1
1418,1418,-0.3823985508845573,-0.4,1.0,0.0,424.0,750.0,0.0,0,406.0,1
1419,1419,-0.8583010168896401,-0.9,0.0,1.0,442.0,888.0,1.0,0,230.0,1
1420,1420,0.5750839929226411,0.6,1.0,1.0,261.0,960.0,1.0,1,309.0,1
1421,1421,-0.8140067295961947,-0.8,1.0,0.0,347.0,816.0,0.0,0,217.0,1
1422,1422,-0.3696833363331997,-0.4,1.0,0.0,250.0,746.0,0.0,0,254.0,1
1423,1423,0.7713847937167696,0.8,0.0,0.0,281.0,611.0,0.0,1,168.0,1
1424,1424,-0.2269275888576695,-0.2,1.0,0.0,313.0,592.0,0.0,0,1115.0,1
1425,1425,0.3492803545007158,0.3,0.0,0.0,431.0,599.0,0.0,1,490.0,1
1426,1426,-0.3404773850318178,-0.3,1.0,0.0,420.0,821.0,0.0,0,199.0,1
1427,1427,0.09013815492937727,0.1,0.0,0.0,296.0,636.0,0.0,1,1448.0,1
1428,1428,-0.16773786913460165,-0.2,0.0,1.0,341.0,880.0,1.0,0,1089.0,1
1429,1429,-0.04817681861527201,-0.0,0.0,1.0,276.0,760.0,1.0,0,1184.0,1
1430,1430,-0.39339253086861714,-0.4,0.0,1.0,496.0,516.0,1.0,0,908.0,1
1431,1431,0.321498929927973,0.3,0.0,0.0,386.0,995.0,0.0,1,479.0,1
1432,1432,-0.13877474192190598,-0.1,0.0,1.0,431.0,947.0,1.0,0,1622.0,1
1433,1433,-0.2876925046346025,-0.3,0.0,1.0,345.0,554.0,1.0,0,591.0,1
1434,1434,-0.0697186473084106,-0.1,0.0,1.0,337.0,685.0,1.0,0,1978.0,1
1435,1435,-0.21542885953854995,-0.2,0.0,1.0,391.0,669.0,1.0,0,670.0,1
1436,1436,-0.0885427357032792,-0.1,0.0,1.0,314.0,596.0,1.0,0,1450.0,1
1437,1437,-0.7681809325733027,-0.8,1.0,0.0,463.0,763.0,0.0,0,104.0,1
1438,1438,0.056803930148583426,0.1,0.0,0.0,313.0,746.0,0.0,1,1941.0,1
1439,1439,-0.6076175761785769,-0.6,0.0,1.0,448.0,987.0,1.0,0,445.0,1
1440,1440,-0.8917260795298827,-0.9,1.0,0.0,383.0,621.0,0.0,0,266.0,1
1441,1441,0.062448914804118294,0.1,0.0,0.0,375.0,610.0,0.0,1,2015.0,1
1442,1442,-0.18113013654057386,-0.2,0.0,1.0,335.0,865.0,1.0,0,1800.0,1
1443,1443,0.009626679641074554,0.0,1.0,1.0,419.0,672.0,0.0,0,1839.0,0
1444,1444,-0.14133727930064133,-0.1,0.0,1.0,376.0,635.0,1.0,0,1989.0,1
1445,1445,-0.025308843305197226,-0.0,0.0,1.0,373.0,847.0,1.0,0,1780.0,1
1446,1446,-0.6467403633185365,-0.6,1.0,0.0,359.0,956.0,0.0,0,125.0,1
1447,1447,0.24897607860546633,0.2,1.0,1.0,394.0,641.0,1.0,1,565.0,1
1448,1448,-0.4901648299030646,-0.5,0.0,1.0,392.0,720.0,1.0,0,-92.0,1
1449,1449,-0.3314499359042622,-0.3,1.0,0.0,495.0,870.0,0.0,0,605.0,1
1450,1450,0.5065775658404531,0.5,0.0,0.0,358.0,546.0,0.0,1,496.0,1
1451,1451,0.23385804571438318,0.2,1.0,1.0,256.0,517.0,1.0,1,607.0,1
1452,1452,0.6512199990659114,0.7,0.0,0.0,371.0,720.0,0.0,1,279.0,1
1453,1453,0.030623921058505643,0.0,1.0,1.0,352.0,798.0,0.0,0,1850.0,0
1454,1454,0.5531410155173618,0.6,0.0,0.0,349.0,895.0,0.0,1,606.0,1
1455,1455,0.5056028785639249,0.5,0.0,0.0,368.0,794.0,0.0,1,628.0,1
1456,1456,-0.49375598413276817,-0.5,0.0,1.0,422.0,503.0,1.0,0,355.0,1
1457,1457,-0.25566028602390434,-0.3,1.0,0.0,492.0,549.0,0.0,0,609.0,1
1458,1458,0.7819422723475623,0.8,1.0,1.0,385.0,818.0,1.0,1,87.0,1
1459,1459,0.13777005912046125,0.1,1.0,1.0,298.0,635.0,1.0,1,2067.0,1
1460,1460,0.7020512561558657,0.7,1.0,1.0,390.0,519.0,1.0,1,301.0,1
1461,1461,0.31793045635603334,0.3,1.0,1.0,479.0,868.0,1.0,1,1123.0,1
1462,1462,-0.8974656861213249,-0.9,1.0,0.0,320.0,659.0,0.0,0,161.0,1
1463,1463,-0.3063327642480449,-0.3,0.0,1.0,380.0,908.0,1.0,0,682.0,1
1464,1464,-0.2737045472661396,-0.3,0.0,1.0,366.0,909.0,1.0,0,1045.0,1
1465,1465,0.4086724763114197,0.4,1.0,1.0,414.0,806.0,1.0,1,180.0,1
1466,1466,-0.4863010535638346,-0.5,0.0,1.0,394.0,680.0,1.0,0,266.0,1
1467,1467,-0.6516646208396981,-0.7,1.0,0.0,448.0,533.0,0.0,0,309.0,1
1468,1468,-0.18252067372894887,-0.2,0.0,1.0,361.0,947.0,1.0,0,792.0,1
1469,1469,0.28538612621408344,0.3,0.0,0.0,324.0,766.0,0.0,1,-130.0,1
1470,1470,-0.588149007816528,-0.6,1.0,0.0,398.0,986.0,0.0,0,296.0,1
1471,1471,-0.7220640047191716,-0.7,1.0,0.0,324.0,581.0,0.0,0,155.0,1
1472,1472,0.3888686138119256,0.4,1.0,1.0,480.0,923.0,1.0,1,977.0,1
1473,1473,0.4890592122016765,0.5,0.0,0.0,294.0,639.0,0.0,1,567.0,1
1474,1474,-0.4529853880040093,-0.5,0.0,1.0,356.0,595.0,1.0,0,359.0,1
1475,1475,0.8291408670581318,0.8,1.0,1.0,313.0,705.0,1.0,1,232.0,1
1476,1476,0.10224635079844868,0.1,1.0,1.0,393.0,799.0,1.0,1,1648.0,1
1477,1477,-0.5472504082274079,-0.5,1.0,0.0,301.0,837.0,0.0,0,262.0,1
1478,1478,0.07994254726617056,0.1,1.0,1.0,383.0,942.0,0.0,0,1505.0,0
1479,1479,0.6588673586083428,0.7,0.0,0.0,421.0,709.0,0.0,1,230.0,1
1480,1480,-0.01779350176284089,-0.0,1.0,0.0,409.0,950.0,0.0,0,-39.0,1
1481,1481,-0.8033404719356239,-0.8,1.0,0.0,327.0,591.0,0.0,0,322.0,1
1482,1482,-0.774343850986764,-0.8,1.0,0.0,427.0,594.0,0.0,0,249.0,1
1483,1483,0.7671464786039447,0.8,1.0,1.0,312.0,877.0,1.0,1,41.0,1
1484,1484,-0.5950165614783718,-0.6,1.0,0.0,265.0,561.0,0.0,0,544.0,1
1485,1485,-0.2413530845375358,-0.2,1.0,0.0,409.0,650.0,0.0,0,691.0,1
1486,1486,0.18068320089308287,0.2,0.0,0.0,280.0,632.0,0.0,1,388.0,1
1487,1487,-0.6813875485664431,-0.7,0.0,1.0,270.0,868.0,1.0,0,322.0,1
1488,1488,-0.7262654438136631,-0.7,0.0,1.0,260.0,544.0,1.0,0,226.0,1
1489,1489,0.3716652801293535,0.4,1.0,1.0,402.0,842.0,1.0,1,486.0,1
1490,1490,0.10932285661070129,0.1,0.0,0.0,352.0,667.0,0.0,1,321.0,1
