,trial,coherence,coherence_bin,green_side,correct_side,target_onset,checker_onset,decision,green_decision,decision_time,correct_decision
0,0,0.6457099170029373,0.6,1.0,1.0,258.0,525.0,1.0,1,127.0,1
1,1,-0.15439157563806527,-0.2,1.0,0.0,450.0,650.0,0.0,0,360.0,1
2,2,0.5849667849447534,0.6,1.0,1.0,370.0,867.0,1.0,1,93.0,1
3,3,0.5229868687198108,0.5,1.0,1.0,342.0,738.0,1.0,1,170.0,1
4,4,0.8515895926766551,0.9,1.0,1.0,336.0,777.0,1.0,1,97.0,1
5,5,-0.33715635862814475,-0.3,0.0,1.0,320.0,996.0,1.0,0,234.0,1
6,6,-0.05011364354739678,-0.1,1.0,0.0,433.0,516.0,0.0,0,811.0,1
7,7,-0.12443691509651522,-0.1,1.0,0.0,306.0,603.0,0.0,0,461.0,1
8,8,0.4617785812161789,0.5,0.0,0.0,407.0,872.0,0.0,1,311.0,1
9,9,-0.5170356842749704,-0.5,1.0,0.0,309.0,965.0,0.0,0,306.0,1
10,10,0.7307038844901891,0.7,1.0,1.0,456.0,786.0,1.0,1,168.0,1
11,11,0.28501255008943305,0.3,1.0,1.0,426.0,780.0,1.0,1,124.0,1
12,12,-0.6843205399946481,-0.7,1.0,0.0,355.0,915.0,0.0,0,200.0,1
13,13,0.24318094513459643,0.2,0.0,0.0,266.0,837.0,0.0,1,367.0,1
14,14,0.3709391096836886,0.4,0.0,0.0,492.0,897.0,0.0,1,211.0,1
15,15,0.6304940409384713,0.6,1.0,1.0,273.0,956.0,1.0,1,121.0,1
16,16,0.6263130476700048,0.6,1.0,1.0,307.0,517.0,1.0,1,116.0,1
17,17,-0.36495998953727893,-0.4,0.0,1.0,429.0,852.0,1.0,0,159.0,1
18,18,0.8354088508338223,0.8,1.0,1.0,273.0,808.0,1.0,1,69.0,1
19,19,-0.05771193835613553,-0.1,0.0,1.0,409.0,946.0,1.0,0,605.0,1
20,20,-0.04034328899076267,-0.0,0.0,1.0,298.0,710.0,1.0,0,912.0,1
21,21,0.823664093198821,0.8,1.0,1.0,432.0,607.0,1.0,1,221.0,1
22,22,0.3711037685470199,0.4,0.0,0.0,257.0,708.0,0.0,1,235.0,1
23,23,0.7682066509219748,0.8,1.0,1.0,365.0,558.0,1.0,1,237.0,1
24,24,-0.5555900367942082,-0.6,1.0,0.0,296.0,763.0,0.0,0,161.0,1
25,25,0.44420418487883573,0.4,1.0,1.0,382.0,563.0,1.0,1,205.0,1
26,26,0.6763761056710565,0.7,0.0,0.0,439.0,690.0,0.0,1,211.0,1
27,27,-0.6387266017846259,-0.6,0.0,1.0,367.0,803.0,1.0,0,150.0,1
28,28,-0.16705688693451315,-0.2,0.0,1.0,300.0,733.0,1.0,0,697.0,1
29,29,0.5136386845103657,0.5,0.0,0.0,416.0,672.0,0.0,1,432.0,1
30,30,0.3868664420498321,0.4,1.0,1.0,352.0,661.0,1.0,1,147.0,1
31,31,0.4090445857347581,0.4,0.0,0.0,315.0,570.0,0.0,1,505.0,1
32,32,0.8198261599314861,0.8,0.0,0.0,397.0,722.0,0.0,1,301.0,1
33,33,0.556153965048893,0.6,0.0,0.0,302.0,838.0,0.0,1,360.0,1
34,34,0.5028376709578369,0.5,1.0,1.0,360.0,502.0,1.0,1,358.0,1
35,35,-0.1732341504591447,-0.2,1.0,0.0,368.0,908.0,0.0,0,484.0,1
36,36,0.4606245336787026,0.5,0.0,0.0,260.0,946.0,0.0,1,194.0,1
37,37,-0.4943270838989173,-0.5,1.0,0.0,462.0,984.0,0.0,0,134.0,1
38,38,0.8574857681458111,0.9,0.0,0.0,260.0,927.0,0.0,1,173.0,1
39,39,-0.39594550962581077,-0.4,0.0,1.0,380.0,842.0,1.0,0,138.0,1
40,40,-0.6390905591779963,-0.6,0.0,1.0,288.0,570.0,1.0,0,212.0,1
41,41,-0.10813709623379875,-0.1,1.0,0.0,368.0,742.0,0.0,0,900.0,1
42,42,-0.3379588890550468,-0.3,0.0,1.0,307.0,833.0,1.0,0,30.0,1
43,43,0.47083284149501503,0.5,1.0,1.0,283.0,717.0,1.0,1,150.0,1
44,44,-0.11526734268974237,-0.1,0.0,1.0,410.0,860.0,1.0,0,260.0,1
45,45,-0.5156114822093031,-0.5,0.0,1.0,360.0,565.0,1.0,0,315.0,1
46,46,0.5195407544568361,0.5,0.0,0.0,431.0,510.0,0.0,1,229.0,1
47,47,-0.02877496854439532,-0.0,1.0,0.0,486.0,771.0,0.0,0,863.0,1
48,48,-0.44738627841609124,-0.4,1.0,0.0,389.0,731.0,0.0,0,330.0,1
49,49,-0.7745868587566845,-0.8,1.0,0.0,438.0,688.0,0.0,0,304.0,1
50,50,0.6239723071339264,0.6,1.0,1.0,252.0,594.0,1.0,1,174.0,1
51,51,-0.4538802245976347,-0.5,0.0,1.0,254.0,891.0,1.0,0,305.0,1
52,52,0.25677979784444915,0.3,0.0,0.0,264.0,830.0,0.0,1,86.0,1
53,53,-0.7511220156289171,-0.8,1.0,0.0,328.0,780.0,0.0,0,122.0,1
54,54,-0.5051968363297901,-0.5,1.0,0.0,423.0,865.0,0.0,0,342.0,1
55,55,-0.845869405612427,-0.8,1.0,0.0,272.0,819.0,0.0,0,179.0,1
56,56,0.018484684855244904,0.0,0.0,0.0,424.0,834.0,1.0,0,1492.0,0
57,57,-0.7138638256014255,-0.7,1.0,0.0,411.0,786.0,0.0,0,143.0,1
58,58,-0.7758606715359927,-0.8,0.0,1.0,412.0,927.0,1.0,0,171.0,1
59,59,-0.8397581862107942,-0.8,1.0,0.0,496.0,845.0,0.0,0,289.0,1
60,60,0.6762999356931699,0.7,0.0,0.0,350.0,955.0,0.0,1,175.0,1
61,61,0.28914519586703247,0.3,0.0,0.0,306.0,695.0,0.0,1,599.0,1
62,62,-0.08653113878981533,-0.1,1.0,0.0,340.0,532.0,0.0,0,898.0,1
63,63,-0.21509216955500543,-0.2,0.0,1.0,329.0,922.0,1.0,0,319.0,1
64,64,0.5132749106803419,0.5,1.0,1.0,361.0,826.0,1.0,1,173.0,1
65,65,-0.6738731459180375,-0.7,0.0,1.0,278.0,887.0,1.0,0,95.0,1
66,66,-0.5807629661160947,-0.6,1.0,0.0,446.0,843.0,0.0,0,141.0,1
67,67,-0.4420920233775804,-0.4,0.0,1.0,374.0,822.0,1.0,0,254.0,1
68,68,-0.259057285254931,-0.3,0.0,1.0,304.0,721.0,1.0,0,185.0,1
69,69,-0.4516578335856957,-0.5,1.0,0.0,361.0,994.0,0.0,0,185.0,1
70,70,0.3923470307902538,0.4,0.0,0.0,400.0,737.0,0.0,1,423.0,1
71,71,-0.13444164839453832,-0.1,0.0,1.0,341.0,785.0,1.0,0,324.0,1
72,72,0.4444296278505543,0.4,1.0,1.0,262.0,559.0,1.0,1,299.0,1
73,73,0.6278557410422859,0.6,1.0,1.0,290.0,792.0,1.0,1,218.0,1
74,74,-0.15783302990245773,-0.2,0.0,1.0,256.0,898.0,1.0,0,436.0,1
75,75,0.3240563251661438,0.3,0.0,0.0,465.0,750.0,0.0,1,315.0,1
76,76,0.6992375237211627,0.7,1.0,1.0,469.0,921.0,1.0,1,210.0,1
77,77,-0.5619785513925388,-0.6,1.0,0.0,464.0,515.0,0.0,0,321.0,1
78,78,-0.5538767304406944,-0.6,0.0,1.0,470.0,963.0,1.0,0,67.0,1
79,79,0.5231725075101764,0.5,0.0,0.0,474.0,528.0,0.0,1,708.0,1
80,80,0.6456526178719634,0.6,0.0,0.0,290.0,957.0,0.0,1,253.0,1
81,81,-0.39600829090344314,-0.4,0.0,1.0,402.0,972.0,1.0,0,206.0,1
82,82,-0.13655226223210393,-0.1,0.0,1.0,297.0,647.0,1.0,0,376.0,1
83,83,0.07082504810293055,0.1,1.0,1.0,435.0,811.0,1.0,1,194.0,1
84,84,-0.8406451068604883,-0.8,1.0,0.0,495.0,619.0,0.0,0,246.0,1
85,85,0.8633573345557338,0.9,0.0,0.0,463.0,526.0,0.0,1,271.0,1
86,86,0.0729141848735475,0.1,1.0,1.0,440.0,744.0,1.0,1,426.0,1
87,87,-0.34729750750810795,-0.3,1.0,0.0,400.0,868.0,0.0,0,372.0,1
88,88,0.15815920214859236,0.2,1.0,1.0,428.0,831.0,1.0,1,331.0,1
89,89,0.5999888644348287,0.6,0.0,0.0,338.0,935.0,0.0,1,207.0,1
90,90,-0.08887365573976957,-0.1,0.0,1.0,393.0,828.0,1.0,0,309.0,1
91,91,0.19126659282527736,0.2,1.0,1.0,270.0,623.0,1.0,1,427.0,1
92,92,0.13694071852895295,0.1,0.0,0.0,315.0,746.0,0.0,1,829.0,1
93,93,0.42570145867028064,0.4,1.0,1.0,407.0,935.0,1.0,1,268.0,1
94,94,0.07708287201653441,0.1,0.0,0.0,454.0,951.0,0.0,1,475.0,1
95,95,0.548907545225407,0.5,1.0,1.0,492.0,810.0,1.0,1,88.0,1
96,96,0.772936282168066,0.8,1.0,1.0,335.0,677.0,1.0,1,208.0,1
97,97,0.6572615807215135,0.7,1.0,1.0,319.0,856.0,1.0,1,105.0,1
98,98,0.5738065353588434,0.6,1.0,1.0,330.0,754.0,1.0,1,166.0,1
99,99,0.7329861219303099,0.7,1.0,1.0,467.0,906.0,1.0,1,77.0,1
100,100,-0.1515848034198265,-0.2,1.0,0.0,340.0,753.0,0.0,0,1367.0,1
101,101,-0.5819041587911393,-0.6,0.0,1.0,347.0,873.0,1.0,0,160.0,1
102,102,-0.03933720874242963,-0.0,0.0,1.0,359.0,742.0,1.0,0,929.0,1
103,103,0.4079858080170503,0.4,0.0,0.0,278.0,877.0,0.0,1,195.0,1
104,104,-0.20626165441536504,-0.2,0.0,1.0,257.0,666.0,1.0,0,247.0,1
105,105,-0.3389584561190707,-0.3,0.0,1.0,436.0,985.0,1.0,0,129.0,1
106,106,-0.21875181425515033,-0.2,0.0,1.0,366.0,793.0,1.0,0,441.0,1
107,107,-0.19878759969881232,-0.2,1.0,0.0,464.0,752.0,0.0,0,794.0,1
108,108,0.6843252396046685,0.7,0.0,0.0,489.0,758.0,0.0,1,213.0,1
109,109,-0.28213625337669823,-0.3,0.0,1.0,298.0,592.0,1.0,0,340.0,1
110,110,-0.7098170507117141,-0.7,0.0,1.0,363.0,744.0,1.0,0,143.0,1
111,111,-0.6219013507014961,-0.6,0.0,1.0,474.0,634.0,1.0,0,132.0,1
112,112,0.5720956832904392,0.6,0.0,0.0,381.0,803.0,0.0,1,266.0,1
113,113,0.31716561162290324,0.3,0.0,0.0,412.0,774.0,0.0,1,234.0,1
114,114,0.18817482579848088,0.2,0.0,0.0,370.0,626.0,0.0,1,824.0,1
115,115,-0.05423702666154673,-0.1,0.0,1.0,407.0,746.0,1.0,0,1427.0,1
116,116,0.214364721605932,0.2,1.0,1.0,386.0,931.0,1.0,1,183.0,1
117,117,0.8182432811767041,0.8,1.0,1.0,476.0,792.0,1.0,1,92.0,1
118,118,-0.8135607970152496,-0.8,0.0,1.0,293.0,738.0,1.0,0,219.0,1
119,119,0.8511390103259314,0.9,1.0,1.0,299.0,936.0,1.0,1,95.0,1
120,120,0.7171893342113221,0.7,0.0,0.0,391.0,877.0,0.0,1,172.0,1
121,121,-0.2579276805872107,-0.3,0.0,1.0,263.0,564.0,1.0,0,553.0,1
122,122,0.7323440362414805,0.7,1.0,1.0,288.0,697.0,1.0,1,135.0,1
123,123,-0.17024159805524752,-0.2,0.0,1.0,367.0,573.0,1.0,0,140.0,1
124,124,0.3257115136768959,0.3,0.0,0.0,471.0,627.0,0.0,1,412.0,1
125,125,0.5302747930127764,0.5,1.0,1.0,445.0,958.0,1.0,1,297.0,1
126,126,0.61664821659881,0.6,0.0,0.0,464.0,518.0,0.0,1,308.0,1
127,127,-0.0781565000675224,-0.1,0.0,1.0,264.0,588.0,1.0,0,398.0,1
128,128,0.1671432827614664,0.2,1.0,1.0,436.0,604.0,1.0,1,210.0,1
129,129,0.8856946841381744,0.9,0.0,0.0,305.0,861.0,0.0,1,234.0,1
130,130,0.5385871679669653,0.5,0.0,0.0,315.0,733.0,0.0,1,282.0,1
131,131,-0.2068848415820551,-0.2,0.0,1.0,368.0,858.0,1.0,0,204.0,1
132,132,0.31023838132437864,0.3,0.0,0.0,414.0,851.0,0.0,1,405.0,1
133,133,-0.10856288879183429,-0.1,1.0,0.0,277.0,587.0,0.0,0,996.0,1
134,134,0.051079402653905315,0.1,0.0,0.0,325.0,610.0,0.0,1,1435.0,1
135,135,0.28148413052303634,0.3,1.0,1.0,300.0,590.0,1.0,1,410.0,1
136,136,0.7101492551977969,0.7,1.0,1.0,462.0,915.0,1.0,1,163.0,1
137,137,-0.8182110194928167,-0.8,1.0,0.0,459.0,802.0,0.0,0,249.0,1
138,138,-0.8750143303095176,-0.9,1.0,0.0,343.0,695.0,0.0,0,312.0,1
139,139,-0.15984031929451503,-0.2,1.0,0.0,374.0,967.0,0.0,0,249.0,1
140,140,0.5109090332567837,0.5,0.0,0.0,398.0,785.0,0.0,1,377.0,1
141,141,-0.7533570187292107,-0.8,0.0,1.0,488.0,718.0,1.0,0,244.0,1
142,142,0.42121416212258256,0.4,0.0,0.0,359.0,819.0,0.0,1,202.0,1
143,143,0.5123029094368591,0.5,1.0,1.0,358.0,561.0,1.0,1,261.0,1
144,144,0.5907717934879254,0.6,1.0,1.0,360.0,653.0,1.0,1,117.0,1
145,145,-0.09502064690688827,-0.1,1.0,0.0,272.0,532.0,0.0,0,916.0,1
146,146,-0.6853014477470198,-0.7,1.0,0.0,390.0,720.0,0.0,0,360.0,1
147,147,0.8158941444456039,0.8,0.0,0.0,290.0,656.0,0.0,1,374.0,1
148,148,-0.7212046132521206,-0.7,1.0,0.0,342.0,597.0,0.0,0,351.0,1
149,149,0.606988534914514,0.6,0.0,0.0,417.0,963.0,0.0,1,200.0,1
150,150,0.4425451198130176,0.4,0.0,0.0,478.0,672.0,0.0,1,660.0,1
151,151,-0.19361767883594805,-0.2,1.0,0.0,270.0,659.0,0.0,0,541.0,1
152,152,0.05069092296507327,0.1,1.0,1.0,314.0,562.0,1.0,1,1044.0,1
153,153,-0.3662010002570707,-0.4,0.0,1.0,363.0,814.0,1.0,0,143.0,1
154,154,-0.2926967176349399,-0.3,0.0,1.0,438.0,875.0,1.0,0,177.0,1
155,155,0.5366361408528056,0.5,1.0,1.0,453.0,517.0,1.0,1,370.0,1
156,156,-0.2616068864735006,-0.3,0.0,1.0,434.0,934.0,1.0,0,202.0,1
157,157,0.09924823356026968,0.1,0.0,0.0,439.0,734.0,0.0,1,627.0,1
158,158,0.6233303076067102,0.6,0.0,0.0,480.0,725.0,0.0,1,215.0,1
159,159,0.37964420128058063,0.4,1.0,1.0,380.0,568.0,1.0,1,312.0,1
160,160,-0.1402477451511197,-0.1,1.0,0.0,351.0,750.0,0.0,0,549.0,1
161,161,0.11014834536768692,0.1,1.0,1.0,446.0,561.0,1.0,1,683.0,1
162,162,0.8712209200916728,0.9,1.0,1.0,276.0,792.0,1.0,1,162.0,1
163,163,-0.06501576416041543,-0.1,0.0,1.0,286.0,862.0,1.0,0,1472.0,1
164,164,0.6584891982612461,0.7,0.0,0.0,358.0,800.0,0.0,1,242.0,1
165,165,-0.052964422001169686,-0.1,0.0,1.0,463.0,885.0,1.0,0,772.0,1
166,166,0.45206114643730866,0.5,1.0,1.0,403.0,557.0,1.0,1,450.0,1
167,167,0.19720422347641453,0.2,0.0,0.0,403.0,624.0,0.0,1,583.0,1
168,168,-0.3757312542174088,-0.4,0.0,1.0,281.0,695.0,1.0,0,214.0,1
169,169,-0.18334734030989353,-0.2,0.0,1.0,319.0,542.0,1.0,0,619.0,1
170,170,0.28698638536100274,0.3,0.0,0.0,257.0,576.0,0.0,1,437.0,1
171,171,-0.2217591041263841,-0.2,0.0,1.0,422.0,857.0,1.0,0,311.0,1
172,172,-0.6764974576986764,-0.7,1.0,0.0,487.0,671.0,0.0,0,262.0,1
173,173,-0.15880981651562998,-0.2,1.0,0.0,251.0,610.0,0.0,0,349.0,1
174,174,0.12341398680362226,0.1,1.0,1.0,461.0,888.0,1.0,1,261.0,1
175,175,-0.8331225937883162,-0.8,1.0,0.0,413.0,602.0,0.0,0,265.0,1
176,176,0.7346944175970366,0.7,1.0,1.0,261.0,531.0,1.0,1,108.0,1
177,177,0.7171290625737236,0.7,1.0,1.0,331.0,693.0,1.0,1,236.0,1
178,178,0.7152001990603075,0.7,1.0,1.0,434.0,643.0,1.0,1,213.0,1
179,179,-0.7935282900863319,-0.8,1.0,0.0,397.0,847.0,0.0,0,106.0,1
180,180,0.6368368946346973,0.6,1.0,1.0,401.0,551.0,1.0,1,248.0,1
181,181,-0.11330065239563991,-0.1,0.0,1.0,335.0,991.0,1.0,0,604.0,1
182,182,-0.05008606801845683,-0.1,0.0,1.0,454.0,976.0,1.0,0,510.0,1
183,183,0.4592205105980821,0.5,1.0,1.0,419.0,527.0,1.0,1,344.0,1
184,184,-0.08978653270950854,-0.1,1.0,0.0,291.0,556.0,0.0,0,2153.0,1
185,185,-0.3937547293022686,-0.4,0.0,1.0,480.0,547.0,1.0,0,333.0,1
186,186,-0.614699595283132,-0.6,0.0,1.0,317.0,805.0,1.0,0,158.0,1
187,187,-0.34094644889416326,-0.3,1.0,0.0,383.0,635.0,0.0,0,242.0,1
188,188,-0.756178491520415,-0.8,1.0,0.0,393.0,949.0,0.0,0,258.0,1
189,189,-0.38224027693736695,-0.4,1.0,0.0,325.0,659.0,0.0,0,386.0,1
190,190,0.40639748598348613,0.4,1.0,1.0,491.0,944.0,1.0,1,125.0,1
191,191,0.3386564025782238,0.3,0.0,0.0,400.0,882.0,0.0,1,188.0,1
192,192,-0.16010007098814305,-0.2,0.0,1.0,379.0,506.0,1.0,0,275.0,1
193,193,0.4677147522964106,0.5,1.0,1.0,298.0,739.0,1.0,1,143.0,1
194,194,0.6801209286872193,0.7,0.0,0.0,499.0,996.0,0.0,1,205.0,1
195,195,0.2541836679853996,0.3,0.0,0.0,399.0,911.0,0.0,1,90.0,1
196,196,-0.5299163396365059,-0.5,1.0,0.0,447.0,854.0,0.0,0,259.0,1
197,197,0.7892686280506186,0.8,1.0,1.0,371.0,814.0,1.0,1,205.0,1
198,198,0.7426475709032591,0.7,1.0,1.0,300.0,968.0,1.0,1,62.0,1
199,199,-0.6509210529525061,-0.7,0.0,1.0,480.0,678.0,1.0,0,182.0,1
200,200,-0.8747508508908195,-0.9,1.0,0.0,273.0,766.0,0.0,0,231.0,1
201,201,0.29859747576463824,0.3,1.0,1.0,387.0,859.0,1.0,1,214.0,1
202,202,0.01217341468414701,0.0,1.0,1.0,391.0,528.0,1.0,1,1121.0,1
203,203,-0.1410473521694514,-0.1,1.0,0.0,418.0,734.0,0.0,0,438.0,1
204,204,-0.701952955150547,-0.7,0.0,1.0,393.0,786.0,1.0,0,111.0,1
205,205,0.643067518329607,0.6,1.0,1.0,416.0,528.0,1.0,1,206.0,1
206,206,0.10975746208889292,0.1,1.0,1.0,354.0,928.0,1.0,1,108.0,1
207,207,0.02910812498604598,0.0,0.0,0.0,290.0,675.0,1.0,0,2035.0,0
208,208,0.4653505870163813,0.5,0.0,0.0,290.0,899.0,0.0,1,671.0,1
209,209,-0.8591866794841126,-0.9,1.0,0.0,353.0,809.0,0.0,0,218.0,1
210,210,0.874809063012321,0.9,0.0,0.0,481.0,857.0,0.0,1,72.0,1
211,211,0.13265071098589243,0.1,0.0,0.0,279.0,545.0,0.0,1,1166.0,1
212,212,0.3659079316037611,0.4,1.0,1.0,398.0,513.0,1.0,1,189.0,1
213,213,0.642902902755981,0.6,1.0,1.0,328.0,616.0,1.0,1,246.0,1
214,214,-0.06221343015102432,-0.1,1.0,0.0,327.0,785.0,0.0,0,448.0,1
215,215,0.005977247912999473,0.0,1.0,1.0,322.0,740.0,0.0,0,1938.0,0
216,216,0.7236522897855323,0.7,0.0,0.0,276.0,537.0,0.0,1,227.0,1
217,217,-0.7636882232734277,-0.8,0.0,1.0,339.0,834.0,1.0,0,137.0,1
218,218,-0.28274347826808954,-0.3,0.0,1.0,305.0,995.0,1.0,0,370.0,1
219,219,0.5456267002941154,0.5,1.0,1.0,395.0,746.0,1.0,1,329.0,1
220,220,-0.22703993010237367,-0.2,1.0,0.0,372.0,848.0,0.0,0,160.0,1
221,221,0.3357562183447126,0.3,0.0,0.0,384.0,723.0,0.0,1,413.0,1
222,222,-0.6158469716848061,-0.6,0.0,1.0,411.0,765.0,1.0,0,164.0,1
223,223,0.7374061606965053,0.7,0.0,0.0,460.0,631.0,0.0,1,169.0,1
224,224,-0.3309502315146515,-0.3,1.0,0.0,470.0,703.0,0.0,0,277.0,1
225,225,0.8495543955030426,0.8,0.0,0.0,448.0,969.0,0.0,1,153.0,1
226,226,-0.4381484302480505,-0.4,1.0,0.0,472.0,679.0,0.0,0,239.0,1
227,227,0.8118109427631822,0.8,0.0,0.0,498.0,878.0,0.0,1,264.0,1
228,228,-0.756965803786214,-0.8,0.0,1.0,328.0,607.0,1.0,0,155.0,1
229,229,0.3183759853377165,0.3,1.0,1.0,281.0,712.0,1.0,1,157.0,1
230,230,-0.43366827815152176,-0.4,1.0,0.0,305.0,903.0,0.0,0,112.0,1
231,231,0.7382789393585315,0.7,0.0,0.0,400.0,591.0,0.0,1,249.0,1
232,232,0.5460950176734133,0.5,0.0,0.0,253.0,642.0,0.0,1,345.0,1
233,233,-0.5224637655162933,-0.5,1.0,0.0,457.0,518.0,0.0,0,385.0,1
234,234,-0.5984063641050146,-0.6,1.0,0.0,411.0,572.0,0.0,0,237.0,1
235,235,-0.8415042045395638,-0.8,0.0,1.0,476.0,617.0,1.0,0,337.0,1
236,236,0.8306293895925617,0.8,1.0,1.0,264.0,519.0,1.0,1,337.0,1
237,237,0.019935614201743723,0.0,1.0,1.0,392.0,543.0,1.0,1,895.0,1
238,238,0.47710322959547413,0.5,1.0,1.0,358.0,991.0,1.0,1,131.0,1
239,239,-0.032220534820520896,-0.0,0.0,1.0,317.0,878.0,1.0,0,795.0,1
240,240,-0.3671840242079283,-0.4,0.0,1.0,295.0,949.0,1.0,0,326.0,1
241,241,-0.09355593084858482,-0.1,0.0,1.0,354.0,542.0,1.0,0,294.0,1
242,242,0.6046889017964797,0.6,1.0,1.0,477.0,959.0,1.0,1,164.0,1
243,243,-0.8547199495964584,-0.9,1.0,0.0,348.0,679.0,0.0,0,153.0,1
244,244,0.8091627649109047,0.8,1.0,1.0,448.0,663.0,1.0,1,179.0,1
245,245,-0.602945934600513,-0.6,0.0,1.0,357.0,998.0,1.0,0,125.0,1
246,246,-0.3947919131629165,-0.4,1.0,0.0,408.0,646.0,0.0,0,206.0,1
247,247,-0.022036566372351518,-0.0,1.0,0.0,307.0,503.0,1.0,1,540.0,0
248,248,0.19275021947955084,0.2,1.0,1.0,303.0,672.0,1.0,1,625.0,1
249,249,-0.5506067244725061,-0.6,1.0,0.0,324.0,915.0,0.0,0,391.0,1
250,250,-0.47616468499187936,-0.5,0.0,1.0,464.0,777.0,1.0,0,209.0,1
251,251,0.36805594794836016,0.4,0.0,0.0,458.0,631.0,0.0,1,291.0,1
252,252,-0.29732124005947447,-0.3,0.0,1.0,315.0,818.0,1.0,0,207.0,1
253,253,0.6004086533308935,0.6,0.0,0.0,323.0,640.0,0.0,1,187.0,1
254,254,-0.666440628672818,-0.7,0.0,1.0,398.0,743.0,1.0,0,139.0,1
255,255,0.6168635601736255,0.6,0.0,0.0,390.0,917.0,0.0,1,243.0,1
256,256,0.30782670854757,0.3,0.0,0.0,460.0,704.0,0.0,1,276.0,1
257,257,-0.72647253929509,-0.7,0.0,1.0,257.0,778.0,1.0,0,205.0,1
258,258,0.7810099998757792,0.8,0.0,0.0,319.0,986.0,0.0,1,215.0,1
259,259,0.2013932490717959,0.2,1.0,1.0,374.0,551.0,1.0,1,255.0,1
260,260,0.45310540134307586,0.5,1.0,1.0,449.0,715.0,1.0,1,166.0,1
261,261,0.7171852741365509,0.7,1.0,1.0,261.0,504.0,1.0,1,215.0,1
262,262,-0.3425342823739257,-0.3,0.0,1.0,319.0,510.0,1.0,0,361.0,1
263,263,-0.08069518082842508,-0.1,1.0,0.0,317.0,801.0,0.0,0,1032.0,1
264,264,-0.17960901439063726,-0.2,1.0,0.0,388.0,534.0,0.0,0,488.0,1
265,265,-0.8724422906308279,-0.9,0.0,1.0,469.0,632.0,1.0,0,239.0,1
266,266,-0.5882789877246593,-0.6,1.0,0.0,446.0,593.0,0.0,0,191.0,1
267,267,0.40739998403270195,0.4,1.0,1.0,466.0,716.0,1.0,1,118.0,1
268,268,0.6894506463874582,0.7,1.0,1.0,479.0,929.0,1.0,1,222.0,1
269,269,0.7341067090990155,0.7,1.0,1.0,301.0,680.0,1.0,1,119.0,1
270,270,-0.7110404344795472,-0.7,1.0,0.0,252.0,815.0,0.0,0,183.0,1
271,271,-0.4015601897578822,-0.4,0.0,1.0,463.0,976.0,1.0,0,141.0,1
272,272,-0.3189494668359468,-0.3,0.0,1.0,328.0,888.0,1.0,0,304.0,1
273,273,0.8746872252809369,0.9,1.0,1.0,310.0,990.0,1.0,1,80.0,1
274,274,-0.5914004074680878,-0.6,1.0,0.0,491.0,739.0,0.0,0,310.0,1
275,275,0.001367772493203523,0.0,0.0,0.0,458.0,521.0,1.0,0,1211.0,0
276,276,0.8547084959664418,0.9,1.0,1.0,484.0,782.0,1.0,1,184.0,1
277,277,-0.2067402737133045,-0.2,1.0,0.0,413.0,564.0,0.0,0,393.0,1
278,278,-0.002145215650592003,-0.0,0.0,1.0,359.0,551.0,1.0,0,1030.0,1
279,279,-0.4567783324858377,-0.5,1.0,0.0,452.0,507.0,0.0,0,371.0,1
280,280,-0.12342137354064442,-0.1,1.0,0.0,442.0,745.0,0.0,0,533.0,1
281,281,0.3650983879579367,0.4,1.0,1.0,317.0,514.0,1.0,1,189.0,1
282,282,-0.21698830829933913,-0.2,1.0,0.0,495.0,838.0,0.0,0,217.0,1
283,283,0.837725018219241,0.8,1.0,1.0,462.0,790.0,1.0,1,78.0,1
284,284,0.7131486705639004,0.7,1.0,1.0,283.0,579.0,1.0,1,158.0,1
285,285,-0.08082449578322881,-0.1,0.0,1.0,497.0,626.0,1.0,0,1057.0,1
286,286,0.5616824789285061,0.6,0.0,0.0,469.0,964.0,0.0,1,187.0,1
287,287,-0.733086628910028,-0.7,0.0,1.0,463.0,763.0,1.0,0,154.0,1
288,288,-0.6531507023335661,-0.7,1.0,0.0,398.0,654.0,0.0,0,188.0,1
289,289,-0.20467473470660713,-0.2,0.0,1.0,321.0,791.0,1.0,0,108.0,1
290,290,-0.786245393864217,-0.8,0.0,1.0,474.0,695.0,1.0,0,181.0,1
291,291,0.2506883397468046,0.3,0.0,0.0,325.0,851.0,0.0,1,374.0,1
292,292,0.5256089618579985,0.5,1.0,1.0,288.0,926.0,1.0,1,126.0,1
293,293,0.8227725497938049,0.8,0.0,0.0,264.0,895.0,0.0,1,181.0,1
294,294,0.20318830322171177,0.2,0.0,0.0,295.0,889.0,0.0,1,516.0,1
295,295,0.669448169855165,0.7,1.0,1.0,283.0,630.0,1.0,1,97.0,1
296,296,-0.19166484003766782,-0.2,1.0,0.0,424.0,737.0,0.0,0,329.0,1
297,297,-0.14732348630324799,-0.1,1.0,0.0,282.0,866.0,0.0,0,312.0,1
298,298,-0.4095518167941102,-0.4,0.0,1.0,405.0,976.0,1.0,0,169.0,1
299,299,0.5354372816224325,0.5,0.0,0.0,378.0,597.0,0.0,1,145.0,1
300,300,0.3660394623371318,0.4,0.0,0.0,326.0,597.0,0.0,1,327.0,1
301,301,0.43475810280336635,0.4,1.0,1.0,390.0,928.0,1.0,1,162.0,1
302,302,-0.25837831291691227,-0.3,0.0,1.0,482.0,985.0,1.0,0,123.0,1
303,303,-0.2602745866626709,-0.3,0.0,1.0,472.0,998.0,1.0,0,230.0,1
304,304,0.4302029490994329,0.4,1.0,1.0,287.0,950.0,1.0,1,133.0,1
305,305,-0.42667315874830997,-0.4,0.0,1.0,372.0,753.0,1.0,0,195.0,1
306,306,-0.7181883333147162,-0.7,0.0,1.0,257.0,863.0,1.0,0,230.0,1
307,307,0.2221526283983325,0.2,0.0,0.0,355.0,645.0,0.0,1,350.0,1
308,308,-0.24632773046958645,-0.2,1.0,0.0,333.0,685.0,0.0,0,392.0,1
309,309,0.6543559256185366,0.7,1.0,1.0,323.0,758.0,1.0,1,169.0,1
310,310,0.5061602442321372,0.5,0.0,0.0,395.0,740.0,0.0,1,215.0,1
311,311,-0.7199879054056856,-0.7,0.0,1.0,260.0,850.0,1.0,0,180.0,1
312,312,-0.22652151795422326,-0.2,1.0,0.0,352.0,562.0,0.0,0,486.0,1
313,313,-0.4621389600669657,-0.5,0.0,1.0,300.0,912.0,1.0,0,18.0,1
314,314,0.7439031443481846,0.7,0.0,0.0,315.0,912.0,0.0,1,223.0,1
315,315,0.6898653803687337,0.7,0.0,0.0,388.0,621.0,0.0,1,241.0,1
316,316,0.2987750346311274,0.3,1.0,1.0,265.0,681.0,1.0,1,84.0,1
317,317,-0.64474786023511,-0.6,0.0,1.0,324.0,711.0,1.0,0,345.0,1
318,318,0.13911964217872363,0.1,0.0,0.0,383.0,626.0,0.0,1,341.0,1
319,319,0.19104068785791262,0.2,1.0,1.0,427.0,920.0,1.0,1,473.0,1
320,320,-0.31154259579596055,-0.3,0.0,1.0,268.0,729.0,1.0,0,243.0,1
321,321,-0.28742867458651356,-0.3,1.0,0.0,365.0,561.0,0.0,0,454.0,1
322,322,-0.07837719076261573,-0.1,0.0,1.0,318.0,668.0,1.0,0,404.0,1
323,323,0.800311490353978,0.8,0.0,0.0,498.0,938.0,0.0,1,164.0,1
324,324,-0.8315804702408549,-0.8,1.0,0.0,294.0,828.0,0.0,0,208.0,1
325,325,-0.2895533758662028,-0.3,1.0,0.0,391.0,793.0,0.0,0,276.0,1
326,326,0.29909053809543884,0.3,1.0,1.0,399.0,913.0,1.0,1,118.0,1
327,327,0.01947833470375504,0.0,1.0,1.0,443.0,762.0,1.0,1,1265.0,1
328,328,-0.5167860972902603,-0.5,1.0,0.0,415.0,756.0,0.0,0,239.0,1
329,329,-0.45245551744353013,-0.5,1.0,0.0,438.0,585.0,0.0,0,447.0,1
330,330,0.26933574042614217,0.3,0.0,0.0,343.0,528.0,0.0,1,309.0,1
331,331,-0.27896729573976453,-0.3,1.0,0.0,430.0,821.0,0.0,0,399.0,1
332,332,-0.5407514910087714,-0.5,0.0,1.0,306.0,985.0,1.0,0,209.0,1
333,333,0.8121912584671943,0.8,0.0,0.0,398.0,922.0,0.0,1,110.0,1
334,334,-0.06323848457604309,-0.1,0.0,1.0,284.0,929.0,1.0,0,157.0,1
335,335,0.6027622505092322,0.6,0.0,0.0,485.0,936.0,0.0,1,119.0,1
336,336,-0.25523348355140996,-0.3,1.0,0.0,284.0,760.0,0.0,0,376.0,1
337,337,-0.36908729387156136,-0.4,0.0,1.0,404.0,806.0,1.0,0,100.0,1
338,338,-0.702752659372237,-0.7,0.0,1.0,297.0,591.0,1.0,0,262.0,1
339,339,-0.4224278728362349,-0.4,1.0,0.0,379.0,524.0,0.0,0,377.0,1
340,340,-0.7268071627650798,-0.7,1.0,0.0,278.0,873.0,0.0,0,239.0,1
341,341,-0.8080432595490228,-0.8,1.0,0.0,333.0,545.0,0.0,0,152.0,1
342,342,-0.11211645395360958,-0.1,0.0,1.0,292.0,596.0,1.0,0,752.0,1
343,343,0.6850332404471194,0.7,1.0,1.0,269.0,794.0,1.0,1,117.0,1
344,344,-0.6054604379585595,-0.6,1.0,0.0,296.0,600.0,0.0,0,374.0,1
345,345,0.5941261546168907,0.6,0.0,0.0,279.0,666.0,0.0,1,485.0,1
346,346,0.0041614436725847526,0.0,1.0,1.0,361.0,824.0,1.0,1,1295.0,1
347,347,0.2931986986578362,0.3,1.0,1.0,309.0,978.0,1.0,1,173.0,1
348,348,-0.6304865465178202,-0.6,1.0,0.0,463.0,669.0,0.0,0,278.0,1
349,349,-0.8623705635754656,-0.9,0.0,1.0,251.0,528.0,1.0,0,301.0,1
350,350,0.10311027683721574,0.1,0.0,0.0,418.0,575.0,0.0,1,1717.0,1
351,351,0.6094099699971515,0.6,0.0,0.0,384.0,535.0,0.0,1,381.0,1
352,352,0.8049200371775719,0.8,1.0,1.0,385.0,772.0,1.0,1,113.0,1
353,353,0.7772599153110428,0.8,0.0,0.0,256.0,743.0,0.0,1,201.0,1
354,354,0.829441239297623,0.8,1.0,1.0,267.0,865.0,1.0,1,148.0,1
355,355,0.5033337962806427,0.5,1.0,1.0,425.0,711.0,1.0,1,404.0,1
356,356,0.17175489018387158,0.2,1.0,1.0,450.0,621.0,1.0,1,369.0,1
357,357,-0.5812894797207924,-0.6,0.0,1.0,297.0,514.0,1.0,0,239.0,1
358,358,-0.87045649581793,-0.9,0.0,1.0,473.0,510.0,1.0,0,147.0,1
359,359,0.5091549417860962,0.5,0.0,0.0,341.0,800.0,0.0,1,149.0,1
360,360,0.019944835981285602,0.0,1.0,1.0,425.0,978.0,1.0,1,127.0,1
361,361,-0.7145704173650863,-0.7,0.0,1.0,409.0,510.0,1.0,0,171.0,1
362,362,-0.6228997571465993,-0.6,0.0,1.0,494.0,827.0,1.0,0,249.0,1
363,363,-0.3335342644065459,-0.3,1.0,0.0,359.0,917.0,0.0,0,264.0,1
364,364,-0.5402747097568777,-0.5,1.0,0.0,407.0,665.0,0.0,0,308.0,1
365,365,-0.15665133573925027,-0.2,0.0,1.0,362.0,730.0,1.0,0,298.0,1
366,366,-0.6132510315294726,-0.6,0.0,1.0,346.0,570.0,1.0,0,174.0,1
367,367,0.1829388530936088,0.2,1.0,1.0,485.0,770.0,1.0,1,155.0,1
368,368,-0.5335494421861391,-0.5,0.0,1.0,385.0,635.0,1.0,0,190.0,1
369,369,0.1825054113584853,0.2,0.0,0.0,289.0,602.0,0.0,1,439.0,1
370,370,-0.30647744791567655,-0.3,0.0,1.0,310.0,636.0,1.0,0,354.0,1
371,371,0.006750101907540884,0.0,0.0,0.0,493.0,919.0,1.0,0,528.0,0
372,372,-0.6421778523436209,-0.6,0.0,1.0,269.0,610.0,1.0,0,161.0,1
373,373,-0.5099375684007958,-0.5,1.0,0.0,453.0,634.0,0.0,0,413.0,1
374,374,0.579581249402683,0.6,1.0,1.0,460.0,983.0,1.0,1,97.0,1
375,375,0.635500872141849,0.6,0.0,0.0,442.0,982.0,0.0,1,206.0,1
376,376,-0.7764900699861381,-0.8,0.0,1.0,456.0,918.0,1.0,0,96.0,1
377,377,0.14619431317064546,0.1,1.0,1.0,391.0,546.0,1.0,1,413.0,1
378,378,0.3742763291107972,0.4,0.0,0.0,331.0,635.0,0.0,1,224.0,1
379,379,-0.4039978918419439,-0.4,1.0,0.0,293.0,883.0,0.0,0,224.0,1
380,380,0.5984845788330605,0.6,1.0,1.0,481.0,697.0,1.0,1,132.0,1
381,381,-0.602556494137922,-0.6,1.0,0.0,277.0,911.0,0.0,0,452.0,1
382,382,0.21745758900411205,0.2,0.0,0.0,295.0,506.0,0.0,1,449.0,1
383,383,0.020926826945240284,0.0,0.0,0.0,295.0,940.0,1.0,0,65.0,0
384,384,0.32429992287528064,0.3,1.0,1.0,497.0,798.0,1.0,1,105.0,1
385,385,0.5764424389818036,0.6,0.0,0.0,409.0,846.0,0.0,1,245.0,1
386,386,-0.5557648767926026,-0.6,0.0,1.0,414.0,515.0,1.0,0,231.0,1
387,387,-0.1135764422166845,-0.1,0.0,1.0,478.0,803.0,1.0,0,209.0,1
388,388,-0.8007231810341504,-0.8,1.0,0.0,446.0,509.0,0.0,0,355.0,1
389,389,0.7773856380889627,0.8,0.0,0.0,402.0,572.0,0.0,1,146.0,1
390,390,-0.02662998461771937,-0.0,1.0,0.0,393.0,549.0,0.0,0,2058.0,1
391,391,-0.1447561633835761,-0.1,0.0,1.0,373.0,603.0,1.0,0,704.0,1
392,392,-0.70501070449312,-0.7,0.0,1.0,322.0,721.0,1.0,0,167.0,1
393,393,0.2555290360262247,0.3,1.0,1.0,310.0,996.0,1.0,1,284.0,1
394,394,0.6013906020780376,0.6,0.0,0.0,324.0,625.0,0.0,1,321.0,1
395,395,-0.05938068866423318,-0.1,0.0,1.0,435.0,566.0,1.0,0,739.0,1
396,396,-0.17244613936287423,-0.2,0.0,1.0,388.0,921.0,1.0,0,661.0,1
397,397,-0.7141908677949819,-0.7,1.0,0.0,379.0,923.0,0.0,0,198.0,1
398,398,-0.5325393457021126,-0.5,1.0,0.0,334.0,701.0,0.0,0,215.0,1
399,399,-0.4545676987033591,-0.5,0.0,1.0,258.0,884.0,1.0,0,158.0,1
400,400,0.43277692415234126,0.4,1.0,1.0,438.0,527.0,1.0,1,355.0,1
401,401,-0.6391816196139453,-0.6,1.0,0.0,442.0,990.0,0.0,0,188.0,1
402,402,0.8611207163019677,0.9,0.0,0.0,490.0,661.0,0.0,1,69.0,1
403,403,-0.757287188020967,-0.8,1.0,0.0,257.0,541.0,0.0,0,222.0,1
404,404,0.6088805220534358,0.6,0.0,0.0,369.0,691.0,0.0,1,200.0,1
405,405,0.4114363616807438,0.4,1.0,1.0,363.0,657.0,1.0,1,100.0,1
406,406,0.5355468162290798,0.5,0.0,0.0,281.0,932.0,0.0,1,287.0,1
407,407,-0.0678091401545613,-0.1,1.0,0.0,470.0,949.0,0.0,0,1581.0,1
408,408,-0.864718868143969,-0.9,0.0,1.0,440.0,508.0,1.0,0,272.0,1
409,409,-0.6697984133917979,-0.7,1.0,0.0,300.0,900.0,0.0,0,110.0,1
410,410,0.2308925694362408,0.2,1.0,1.0,330.0,800.0,1.0,1,420.0,1
411,411,0.16821455827415954,0.2,0.0,0.0,303.0,843.0,0.0,1,964.0,1
412,412,-0.30906984743351096,-0.3,0.0,1.0,256.0,601.0,1.0,0,323.0,1
413,413,-0.22896981924957016,-0.2,0.0,1.0,304.0,914.0,1.0,0,162.0,1
414,414,0.6516238938910205,0.7,0.0,0.0,461.0,987.0,0.0,1,112.0,1
415,415,0.0789896973149109,0.1,0.0,0.0,271.0,836.0,0.0,1,543.0,1
416,416,0.5746602416236238,0.6,1.0,1.0,358.0,874.0,1.0,1,158.0,1
417,417,0.77332043934341,0.8,0.0,0.0,405.0,777.0,0.0,1,168.0,1
418,418,-0.12042799002420101,-0.1,1.0,0.0,298.0,964.0,0.0,0,548.0,1
419,419,0.7436835708124557,0.7,0.0,0.0,279.0,651.0,0.0,1,150.0,1
420,420,0.18789573349738287,0.2,1.0,1.0,483.0,774.0,1.0,1,333.0,1
421,421,-0.3153898083156932,-0.3,0.0,1.0,479.0,732.0,1.0,0,59.0,1
422,422,0.504847145070943,0.5,0.0,0.0,297.0,596.0,0.0,1,237.0,1
423,423,-0.6439291234895669,-0.6,1.0,0.0,459.0,924.0,0.0,0,177.0,1
424,424,-0.03753144351691429,-0.0,0.0,1.0,397.0,618.0,1.0,0,435.0,1
425,425,0.37423410528779855,0.4,0.0,0.0,424.0,574.0,0.0,1,302.0,1
426,426,0.2557906972775065,0.3,1.0,1.0,395.0,797.0,1.0,1,398.0,1
427,427,-0.6127501294778599,-0.6,0.0,1.0,288.0,654.0,1.0,0,178.0,1
428,428,-0.29913551308365327,-0.3,0.0,1.0,417.0,940.0,1.0,0,203.0,1
429,429,0.7158218609862247,0.7,1.0,1.0,383.0,552.0,1.0,1,175.0,1
430,430,0.8794593636937268,0.9,1.0,1.0,369.0,961.0,1.0,1,80.0,1
431,431,-0.8626459813140875,-0.9,1.0,0.0,360.0,910.0,0.0,0,110.0,1
432,432,-0.5107401326496719,-0.5,0.0,1.0,492.0,551.0,1.0,0,257.0,1
433,433,0.739700607902872,0.7,0.0,0.0,409.0,881.0,0.0,1,270.0,1
434,434,-0.18303181477354946,-0.2,1.0,0.0,483.0,502.0,0.0,0,505.0,1
435,435,0.3918763241957218,0.4,0.0,0.0,398.0,931.0,0.0,1,161.0,1
436,436,0.8909251682184763,0.9,0.0,0.0,281.0,530.0,0.0,1,349.0,1
437,437,-0.7143070674742973,-0.7,1.0,0.0,286.0,546.0,0.0,0,288.0,1
438,438,0.35828227950474634,0.4,0.0,0.0,441.0,736.0,0.0,1,253.0,1
439,439,0.286873404163822,0.3,0.0,0.0,375.0,721.0,0.0,1,264.0,1
440,440,0.7696118292089847,0.8,0.0,0.0,261.0,692.0,0.0,1,197.0,1
441,441,-0.525807412658468,-0.5,0.0,1.0,330.0,560.0,1.0,0,330.0,1
442,442,-0.1875468782422538,-0.2,0.0,1.0,352.0,833.0,1.0,0,475.0,1
443,443,-0.12009831928362513,-0.1,1.0,0.0,474.0,703.0,0.0,0,463.0,1
444,444,0.4437122352932211,0.4,1.0,1.0,399.0,586.0,1.0,1,135.0,1
445,445,-0.7784937438250188,-0.8,0.0,1.0,338.0,652.0,1.0,0,160.0,1
446,446,0.8236519389044351,0.8,1.0,1.0,494.0,853.0,1.0,1,173.0,1
447,447,-0.7979193050670935,-0.8,0.0,1.0,455.0,595.0,1.0,0,150.0,1
448,448,0.061122591961753736,0.1,1.0,1.0,459.0,805.0,1.0,1,496.0,1
449,449,-0.5694858934874528,-0.6,0.0,1.0,319.0,694.0,1.0,0,217.0,1
450,450,-0.7792965861462612,-0.8,1.0,0.0,275.0,964.0,0.0,0,261.0,1
451,451,0.7212275626365784,0.7,0.0,0.0,368.0,718.0,0.0,1,214.0,1
452,452,-0.14940995079924457,-0.1,0.0,1.0,304.0,954.0,1.0,0,562.0,1
453,453,0.015863002836915108,0.0,0.0,0.0,419.0,768.0,0.0,1,1813.0,1
454,454,0.8891249617488192,0.9,1.0,1.0,376.0,796.0,1.0,1,78.0,1
455,455,-0.42931422018034515,-0.4,1.0,0.0,331.0,945.0,0.0,0,194.0,1
456,456,0.8550615911436875,0.9,0.0,0.0,478.0,599.0,0.0,1,783.0,1
457,457,-0.0014656516246263074,-0.0,1.0,0.0,258.0,973.0,1.0,1,1459.0,0
458,458,-0.07779065178416811,-0.1,1.0,0.0,486.0,845.0,0.0,0,549.0,1
459,459,0.055924486353028935,0.1,0.0,0.0,448.0,820.0,1.0,0,1732.0,0
460,460,0.6243607662426783,0.6,1.0,1.0,484.0,631.0,1.0,1,155.0,1
461,461,-0.27419353494924625,-0.3,0.0,1.0,407.0,816.0,1.0,0,417.0,1
462,462,0.8654730936499465,0.9,0.0,0.0,416.0,650.0,0.0,1,374.0,1
463,463,0.08139338839733434,0.1,0.0,0.0,379.0,867.0,0.0,1,404.0,1
464,464,-0.8731666323438346,-0.9,1.0,0.0,327.0,836.0,0.0,0,297.0,1
465,465,-0.43192563179006477,-0.4,1.0,0.0,328.0,787.0,0.0,0,235.0,1
466,466,-0.7799602963273174,-0.8,0.0,1.0,391.0,571.0,1.0,0,258.0,1
467,467,-0.30317161569791495,-0.3,1.0,0.0,356.0,833.0,0.0,0,251.0,1
468,468,0.44494592494173146,0.4,0.0,0.0,266.0,820.0,0.0,1,184.0,1
469,469,0.6556369729405623,0.7,0.0,0.0,468.0,978.0,0.0,1,204.0,1
470,470,0.05550049475587937,0.1,1.0,1.0,410.0,500.0,1.0,1,620.0,1
471,471,0.5947313344506889,0.6,1.0,1.0,437.0,965.0,1.0,1,98.0,1
472,472,0.6328405317396216,0.6,1.0,1.0,476.0,596.0,1.0,1,238.0,1
473,473,-0.38994964755336725,-0.4,0.0,1.0,414.0,795.0,1.0,0,241.0,1
474,474,-0.6151383167007867,-0.6,1.0,0.0,408.0,830.0,0.0,0,62.0,1
475,475,0.6919933583304597,0.7,0.0,0.0,318.0,568.0,0.0,1,314.0,1
476,476,0.08212878335436369,0.1,1.0,1.0,295.0,695.0,1.0,1,640.0,1
477,477,0.037592257361647285,0.0,0.0,0.0,499.0,992.0,0.0,1,359.0,1
478,478,0.5032847079475803,0.5,0.0,0.0,420.0,816.0,0.0,1,284.0,1
479,479,-0.6206707264161313,-0.6,0.0,1.0,416.0,707.0,1.0,0,157.0,1
480,480,-0.5309806955960026,-0.5,0.0,1.0,393.0,715.0,1.0,0,212.0,1
481,481,-0.007500646676721567,-0.0,1.0,0.0,480.0,863.0,0.0,0,1487.0,1
482,482,0.1791135565163916,0.2,0.0,0.0,357.0,844.0,0.0,1,329.0,1
483,483,0.6092993328226103,0.6,1.0,1.0,396.0,764.0,1.0,1,330.0,1
484,484,-0.7385608784997073,-0.7,1.0,0.0,442.0,973.0,0.0,0,215.0,1
485,485,0.7620816093402606,0.8,0.0,0.0,435.0,785.0,0.0,1,300.0,1
486,486,0.8843045464781966,0.9,0.0,0.0,461.0,600.0,0.0,1,259.0,1
487,487,-0.07089585709892388,-0.1,1.0,0.0,321.0,724.0,0.0,0,1105.0,1
488,488,0.13796087367933307,0.1,0.0,0.0,361.0,841.0,0.0,1,98.0,1
489,489,-0.788773393451545,-0.8,0.0,1.0,464.0,981.0,1.0,0,5.0,1
490,490,-0.36048243681572045,-0.4,0.0,1.0,492.0,596.0,1.0,0,332.0,1
491,491,-0.7632864815121878,-0.8,0.0,1.0,254.0,674.0,1.0,0,312.0,1
492,492,0.20080325709467706,0.2,1.0,1.0,414.0,928.0,1.0,1,278.0,1
493,493,0.07366604099331009,0.1,1.0,1.0,411.0,786.0,1.0,1,-77.0,1
494,494,-0.11338010777990581,-0.1,0.0,1.0,414.0,656.0,1.0,0,360.0,1
495,495,0.7461305904515426,0.7,1.0,1.0,402.0,941.0,1.0,1,217.0,1
496,496,0.5228777628266811,0.5,1.0,1.0,470.0,850.0,1.0,1,230.0,1
497,497,-0.2813669988574101,-0.3,0.0,1.0,252.0,548.0,1.0,0,400.0,1
498,498,-0.5986107915333405,-0.6,1.0,0.0,298.0,899.0,0.0,0,123.0,1
499,499,-0.2842202375351188,-0.3,0.0,1.0,367.0,775.0,1.0,0,228.0,1
500,500,-0.7894090230474521,-0.8,1.0,0.0,477.0,663.0,0.0,0,320.0,1
501,501,-0.0034645307906309153,-0.0,0.0,1.0,374.0,975.0,1.0,0,1651.0,1
502,502,-0.24107207407718334,-0.2,1.0,0.0,334.0,980.0,1.0,1,-34.0,0
503,503,-0.42300917836636015,-0.4,0.0,1.0,341.0,696.0,1.0,0,133.0,1
504,504,0.42769466618094476,0.4,1.0,1.0,390.0,689.0,1.0,1,191.0,1
505,505,0.07474195337121725,0.1,0.0,0.0,347.0,675.0,0.0,1,1068.0,1
506,506,-0.6276534720400915,-0.6,1.0,0.0,335.0,603.0,0.0,0,362.0,1
507,507,0.14318386080654666,0.1,0.0,0.0,456.0,812.0,0.0,1,772.0,1
508,508,-0.7106060662613549,-0.7,0.0,1.0,424.0,637.0,1.0,0,169.0,1
509,509,-0.20950725648940116,-0.2,0.0,1.0,406.0,708.0,1.0,0,166.0,1
510,510,0.5361023890025801,0.5,1.0,1.0,261.0,845.0,1.0,1,164.0,1
511,511,-0.21119389973590108,-0.2,1.0,0.0,285.0,716.0,0.0,0,349.0,1
512,512,-0.69528347671751,-0.7,1.0,0.0,473.0,567.0,0.0,0,660.0,1
513,513,-0.8619792097131938,-0.9,0.0,1.0,311.0,841.0,1.0,0,118.0,1
514,514,0.553914179989445,0.6,1.0,1.0,460.0,876.0,1.0,1,94.0,1
515,515,0.28146508479172583,0.3,0.0,0.0,322.0,807.0,0.0,1,601.0,1
516,516,0.40446944842696475,0.4,1.0,1.0,480.0,689.0,1.0,1,331.0,1
517,517,-0.6712600305818521,-0.7,0.0,1.0,401.0,924.0,1.0,0,115.0,1
518,518,-0.35304794456315747,-0.4,1.0,0.0,433.0,854.0,0.0,0,23.0,1
519,519,0.523682245604756,0.5,0.0,0.0,362.0,931.0,0.0,1,267.0,1
520,520,-0.13954391163054458,-0.1,1.0,0.0,459.0,728.0,0.0,0,653.0,1
521,521,-0.46703908425855684,-0.5,0.0,1.0,318.0,629.0,1.0,0,293.0,1
522,522,0.21064448387552404,0.2,0.0,0.0,398.0,609.0,0.0,1,593.0,1
523,523,-0.2558364343852745,-0.3,0.0,1.0,415.0,741.0,1.0,0,214.0,1
524,524,-0.2195868792198079,-0.2,1.0,0.0,412.0,682.0,0.0,0,686.0,1
525,525,-0.11952271514801249,-0.1,0.0,1.0,258.0,765.0,1.0,0,537.0,1
526,526,0.8358648418676692,0.8,1.0,1.0,274.0,943.0,1.0,1,143.0,1
527,527,-0.32875258841118926,-0.3,0.0,1.0,426.0,528.0,1.0,0,326.0,1
528,528,-0.6712482700952911,-0.7,1.0,0.0,464.0,683.0,0.0,0,303.0,1
529,529,0.8759026660106913,0.9,1.0,1.0,454.0,531.0,1.0,1,195.0,1
530,530,-0.7928661825594205,-0.8,1.0,0.0,292.0,993.0,0.0,0,215.0,1
531,531,-0.18778152034060303,-0.2,1.0,0.0,307.0,781.0,0.0,0,362.0,1
532,532,-0.4600004406099565,-0.5,1.0,0.0,495.0,551.0,0.0,0,454.0,1
533,533,0.6185847088897737,0.6,1.0,1.0,291.0,877.0,1.0,1,72.0,1
534,534,-0.2358090795292317,-0.2,0.0,1.0,447.0,982.0,1.0,0,101.0,1
535,535,0.16944021859672442,0.2,1.0,1.0,284.0,798.0,1.0,1,658.0,1
536,536,-0.707128366824505,-0.7,0.0,1.0,374.0,954.0,1.0,0,112.0,1
537,537,-0.02691668090630961,-0.0,1.0,0.0,423.0,977.0,0.0,0,100.0,1
538,538,0.5162564178675481,0.5,0.0,0.0,455.0,773.0,0.0,1,192.0,1
539,539,-0.6688190345106261,-0.7,0.0,1.0,357.0,758.0,1.0,0,215.0,1
540,540,-0.6849354113510846,-0.7,1.0,0.0,384.0,684.0,0.0,0,342.0,1
541,541,0.39772485668273017,0.4,1.0,1.0,370.0,829.0,1.0,1,211.0,1
542,542,-0.1455964218660699,-0.1,1.0,0.0,347.0,970.0,0.0,0,333.0,1
543,543,0.8143268422656679,0.8,0.0,0.0,491.0,933.0,0.0,1,26.0,1
544,544,-0.10690711171182232,-0.1,0.0,1.0,306.0,656.0,1.0,0,908.0,1
545,545,0.47237456863633775,0.5,0.0,0.0,358.0,658.0,0.0,1,244.0,1
546,546,-0.7343954325784223,-0.7,0.0,1.0,476.0,684.0,1.0,0,90.0,1
547,547,0.3231739819825624,0.3,0.0,0.0,357.0,890.0,0.0,1,303.0,1
548,548,0.17801590697819514,0.2,1.0,1.0,372.0,982.0,1.0,1,216.0,1
549,549,-0.7724112574709736,-0.8,0.0,1.0,342.0,663.0,1.0,0,265.0,1
550,550,0.3390619123635886,0.3,1.0,1.0,409.0,533.0,1.0,1,188.0,1
551,551,-0.24364035570468212,-0.2,0.0,1.0,361.0,909.0,1.0,0,300.0,1
552,552,0.43556473014217556,0.4,0.0,0.0,450.0,859.0,0.0,1,201.0,1
553,553,-0.6711366153397327,-0.7,0.0,1.0,477.0,995.0,1.0,0,98.0,1
554,554,-0.2719055637305672,-0.3,1.0,0.0,310.0,691.0,0.0,0,299.0,1
555,555,-0.7035768701674836,-0.7,0.0,1.0,485.0,978.0,1.0,0,27.0,1
556,556,0.1840815290944101,0.2,1.0,1.0,338.0,770.0,1.0,1,162.0,1
557,557,0.29879037177460777,0.3,1.0,1.0,384.0,575.0,1.0,1,521.0,1
558,558,-0.5680148331944778,-0.6,1.0,0.0,324.0,908.0,0.0,0,208.0,1
559,559,0.38556848621544504,0.4,0.0,0.0,395.0,517.0,0.0,1,538.0,1
560,560,-0.6169670108605904,-0.6,1.0,0.0,362.0,602.0,0.0,0,146.0,1
561,561,0.6027175975287035,0.6,0.0,0.0,401.0,591.0,0.0,1,168.0,1
562,562,0.5627617775803223,0.6,0.0,0.0,253.0,872.0,0.0,1,195.0,1
563,563,0.3506976439742585,0.4,1.0,1.0,317.0,713.0,1.0,1,180.0,1
564,564,-0.8110836944683912,-0.8,0.0,1.0,307.0,710.0,1.0,0,133.0,1
565,565,0.03786624116128379,0.0,0.0,0.0,492.0,914.0,0.0,1,1594.0,1
566,566,0.21349961620611146,0.2,0.0,0.0,298.0,675.0,0.0,1,427.0,1
567,567,0.536253099440157,0.5,1.0,1.0,358.0,739.0,1.0,1,83.0,1
568,568,0.7174388483688198,0.7,0.0,0.0,433.0,750.0,0.0,1,287.0,1
569,569,0.33849301057639913,0.3,0.0,0.0,250.0,562.0,0.0,1,428.0,1
570,570,0.2957816837603625,0.3,1.0,1.0,434.0,886.0,1.0,1,-10.0,1
571,571,-0.4119749224518366,-0.4,0.0,1.0,419.0,723.0,1.0,0,178.0,1
572,572,-0.4705057116258777,-0.5,1.0,0.0,497.0,569.0,0.0,0,444.0,1
573,573,0.7717392944433709,0.8,1.0,1.0,291.0,747.0,1.0,1,172.0,1
574,574,-0.08411353623476703,-0.1,1.0,0.0,322.0,956.0,0.0,0,1272.0,1
575,575,-0.6767314270903944,-0.7,0.0,1.0,437.0,838.0,1.0,0,175.0,1
576,576,-0.22356906703699952,-0.2,1.0,0.0,449.0,711.0,0.0,0,480.0,1
577,577,0.1513560166319935,0.2,0.0,0.0,439.0,800.0,0.0,1,481.0,1
578,578,-0.40492183920576036,-0.4,0.0,1.0,295.0,963.0,1.0,0,112.0,1
579,579,-0.28158800558417696,-0.3,0.0,1.0,402.0,584.0,1.0,0,394.0,1
580,580,0.2490914716795155,0.2,1.0,1.0,360.0,728.0,1.0,1,382.0,1
581,581,0.4238445595953638,0.4,0.0,0.0,432.0,699.0,0.0,1,169.0,1
582,582,0.5838343107813392,0.6,0.0,0.0,373.0,691.0,0.0,1,116.0,1
583,583,0.14531501729225138,0.1,1.0,1.0,442.0,597.0,1.0,1,521.0,1
584,584,-0.7024703266762993,-0.7,0.0,1.0,251.0,902.0,1.0,0,157.0,1
585,585,0.3033485336484619,0.3,0.0,0.0,392.0,589.0,0.0,1,369.0,1
586,586,0.27132425690957607,0.3,0.0,0.0,491.0,790.0,0.0,1,409.0,1
587,587,0.7671470386514027,0.8,1.0,1.0,396.0,804.0,1.0,1,150.0,1
588,588,0.4522818927379705,0.5,0.0,0.0,419.0,651.0,0.0,1,140.0,1
589,589,-0.7582229031188825,-0.8,0.0,1.0,337.0,648.0,1.0,0,235.0,1
590,590,-0.8299389647880655,-0.8,1.0,0.0,422.0,799.0,0.0,0,289.0,1
591,591,0.7537282868092431,0.8,0.0,0.0,253.0,940.0,0.0,1,87.0,1
592,592,0.7173749105530386,0.7,1.0,1.0,443.0,967.0,1.0,1,180.0,1
593,593,0.4092427720927404,0.4,1.0,1.0,424.0,715.0,1.0,1,231.0,1
594,594,-0.2741891091295805,-0.3,0.0,1.0,303.0,834.0,1.0,0,183.0,1
595,595,-0.5231335688246925,-0.5,1.0,0.0,326.0,718.0,0.0,0,166.0,1
596,596,-0.4219460339997303,-0.4,0.0,1.0,346.0,547.0,1.0,0,297.0,1
597,597,0.6510273496272173,0.7,0.0,0.0,262.0,914.0,0.0,1,414.0,1
598,598,0.3632559005273449,0.4,1.0,1.0,268.0,950.0,1.0,1,52.0,1
599,599,-0.4220250589413386,-0.4,1.0,0.0,290.0,767.0,0.0,0,73.0,1
600,600,-0.887693033219841,-0.9,0.0,1.0,376.0,537.0,1.0,0,277.0,1
601,601,-0.6572015571780822,-0.7,1.0,0.0,250.0,555.0,0.0,0,255.0,1
602,602,-0.4471993648386965,-0.4,1.0,0.0,371.0,766.0,0.0,0,183.0,1
603,603,-0.58274671115685,-0.6,0.0,1.0,472.0,861.0,1.0,0,217.0,1
604,604,-0.5584796842052826,-0.6,0.0,1.0,420.0,657.0,1.0,0,133.0,1
605,605,0.059515640457993624,0.1,0.0,0.0,454.0,854.0,1.0,0,1692.0,0
606,606,0.52357818098951,0.5,1.0,1.0,290.0,566.0,1.0,1,284.0,1
607,607,0.6624371926547167,0.7,0.0,0.0,285.0,743.0,0.0,1,242.0,1
608,608,0.6263967709444348,0.6,1.0,1.0,447.0,512.0,1.0,1,171.0,1
609,609,0.5114080497153576,0.5,1.0,1.0,326.0,854.0,1.0,1,280.0,1
610,610,-0.4552311500841562,-0.5,1.0,0.0,288.0,527.0,0.0,0,325.0,1
611,611,-0.03212217640297721,-0.0,0.0,1.0,309.0,992.0,1.0,0,489.0,1
612,612,-0.6012433361406213,-0.6,0.0,1.0,295.0,690.0,1.0,0,165.0,1
613,613,-0.3733020192332326,-0.4,0.0,1.0,347.0,807.0,1.0,0,236.0,1
614,614,-0.1248242134213664,-0.1,0.0,1.0,388.0,932.0,1.0,0,540.0,1
615,615,-0.3239844258097804,-0.3,1.0,0.0,268.0,572.0,0.0,0,520.0,1
616,616,-0.6680499778579854,-0.7,1.0,0.0,443.0,958.0,0.0,0,159.0,1
617,617,0.5440867873739162,0.5,1.0,1.0,416.0,778.0,1.0,1,126.0,1
618,618,-0.03194382223025016,-0.0,1.0,0.0,385.0,894.0,1.0,1,501.0,0
619,619,-0.6536528473024874,-0.7,0.0,1.0,350.0,553.0,1.0,0,157.0,1
620,620,0.7185092659753939,0.7,1.0,1.0,383.0,557.0,1.0,1,260.0,1
621,621,-0.7729504137005672,-0.8,1.0,0.0,305.0,697.0,0.0,0,198.0,1
622,622,-0.5929747284755459,-0.6,1.0,0.0,258.0,682.0,0.0,0,340.0,1
623,623,0.19310183136201176,0.2,0.0,0.0,291.0,929.0,0.0,1,370.0,1
624,624,0.636919310507711,0.6,1.0,1.0,346.0,923.0,1.0,1,111.0,1
625,625,0.562320977333869,0.6,0.0,0.0,304.0,809.0,0.0,1,407.0,1
626,626,-0.4768851690188642,-0.5,1.0,0.0,484.0,919.0,0.0,0,117.0,1
627,627,-0.7026205400617312,-0.7,1.0,0.0,297.0,989.0,0.0,0,164.0,1
628,628,0.7670554536996373,0.8,0.0,0.0,455.0,676.0,0.0,1,289.0,1
629,629,-0.6461137329296625,-0.6,1.0,0.0,408.0,575.0,0.0,0,247.0,1
630,630,0.19669369386170754,0.2,1.0,1.0,255.0,559.0,1.0,1,646.0,1
631,631,0.20756610998582248,0.2,0.0,0.0,331.0,532.0,0.0,1,597.0,1
632,632,-0.6656002953665304,-0.7,0.0,1.0,421.0,575.0,1.0,0,254.0,1
633,633,0.845450006927761,0.8,1.0,1.0,436.0,992.0,1.0,1,102.0,1
634,634,0.6784342915196376,0.7,0.0,0.0,265.0,770.0,0.0,1,295.0,1
635,635,0.14836272663500238,0.1,1.0,1.0,450.0,755.0,1.0,1,225.0,1
636,636,-0.17058194735469268,-0.2,1.0,0.0,327.0,784.0,0.0,0,1309.0,1
637,637,-0.6992352812569285,-0.7,1.0,0.0,418.0,969.0,0.0,0,163.0,1
638,638,-0.34843201371881594,-0.3,1.0,0.0,362.0,772.0,0.0,0,196.0,1
639,639,0.017416354922008326,0.0,1.0,1.0,356.0,689.0,1.0,1,485.0,1
640,640,-0.4757694921712633,-0.5,1.0,0.0,476.0,709.0,0.0,0,205.0,1
641,641,0.2618982776918958,0.3,1.0,1.0,383.0,608.0,1.0,1,409.0,1
642,642,-0.07743313666700258,-0.1,1.0,0.0,371.0,772.0,1.0,1,197.0,0
643,643,-0.430764909883805,-0.4,0.0,1.0,274.0,834.0,1.0,0,82.0,1
644,644,-0.6996262596814984,-0.7,1.0,0.0,359.0,931.0,0.0,0,190.0,1
645,645,-0.11800553577312134,-0.1,1.0,0.0,490.0,574.0,0.0,0,436.0,1
646,646,-0.4543957885162669,-0.5,0.0,1.0,320.0,540.0,1.0,0,320.0,1
647,647,-0.8167477827710967,-0.8,1.0,0.0,374.0,860.0,0.0,0,96.0,1
648,648,0.6238541144724622,0.6,1.0,1.0,493.0,713.0,1.0,1,154.0,1
649,649,-0.8557782865465855,-0.9,0.0,1.0,261.0,546.0,1.0,0,243.0,1
650,650,-0.5774712757671483,-0.6,0.0,1.0,274.0,854.0,1.0,0,122.0,1
651,651,-0.34392316461974615,-0.3,1.0,0.0,315.0,906.0,0.0,0,269.0,1
652,652,0.34254504508943595,0.3,1.0,1.0,459.0,952.0,1.0,1,-71.0,1
653,653,0.18620375168299919,0.2,0.0,0.0,418.0,726.0,0.0,1,496.0,1
654,654,0.6435778531983251,0.6,0.0,0.0,470.0,664.0,0.0,1,266.0,1
655,655,-0.1049489566239431,-0.1,1.0,0.0,288.0,616.0,0.0,0,176.0,1
656,656,-0.7774216847732988,-0.8,1.0,0.0,306.0,517.0,0.0,0,237.0,1
657,657,-0.5628047831603498,-0.6,1.0,0.0,352.0,955.0,0.0,0,313.0,1
658,658,-0.8823302705915371,-0.9,1.0,0.0,426.0,846.0,0.0,0,168.0,1
659,659,-0.7852615680411904,-0.8,1.0,0.0,304.0,594.0,0.0,0,252.0,1
660,660,0.0600595174028038,0.1,1.0,1.0,370.0,752.0,1.0,1,578.0,1
661,661,0.1400420852091021,0.1,0.0,0.0,400.0,752.0,0.0,1,1218.0,1
662,662,0.21845627511811483,0.2,1.0,1.0,304.0,598.0,1.0,1,648.0,1
663,663,0.7164246579245633,0.7,1.0,1.0,478.0,872.0,1.0,1,190.0,1
664,664,0.3063159446936675,0.3,0.0,0.0,407.0,845.0,0.0,1,118.0,1
665,665,-0.03965355694325612,-0.0,1.0,0.0,291.0,625.0,1.0,1,1024.0,0
666,666,0.6188347767619707,0.6,0.0,0.0,346.0,864.0,0.0,1,450.0,1
667,667,0.1683445871734165,0.2,1.0,1.0,329.0,638.0,1.0,1,193.0,1
668,668,-0.30329861414787207,-0.3,0.0,1.0,453.0,901.0,1.0,0,356.0,1
669,669,0.7675582822978982,0.8,1.0,1.0,304.0,930.0,1.0,1,96.0,1
670,670,0.8082258855920114,0.8,1.0,1.0,272.0,996.0,1.0,1,92.0,1
671,671,-0.5747118427306581,-0.6,1.0,0.0,474.0,596.0,0.0,0,220.0,1
672,672,-0.8261580772013241,-0.8,1.0,0.0,386.0,630.0,0.0,0,324.0,1
673,673,0.5558594164936473,0.6,0.0,0.0,351.0,734.0,0.0,1,155.0,1
674,674,0.40653598617694564,0.4,1.0,1.0,287.0,539.0,1.0,1,264.0,1
675,675,-0.4875427197085239,-0.5,0.0,1.0,399.0,599.0,1.0,0,182.0,1
676,676,0.11664955537862742,0.1,0.0,0.0,473.0,915.0,0.0,1,882.0,1
677,677,-0.3550855994370945,-0.4,0.0,1.0,497.0,508.0,1.0,0,255.0,1
678,678,0.319221628049993,0.3,1.0,1.0,269.0,921.0,1.0,1,260.0,1
679,679,0.48234131708819683,0.5,1.0,1.0,287.0,955.0,1.0,1,148.0,1
680,680,0.6570901628786333,0.7,1.0,1.0,259.0,822.0,1.0,1,199.0,1
681,681,-0.5507922119908806,-0.6,1.0,0.0,384.0,868.0,0.0,0,158.0,1
682,682,0.40818140019081717,0.4,0.0,0.0,337.0,550.0,0.0,1,303.0,1
683,683,-0.04743791193983227,-0.0,1.0,0.0,451.0,901.0,0.0,0,1648.0,1
684,684,-0.7135819263518803,-0.7,0.0,1.0,375.0,734.0,1.0,0,121.0,1
685,685,0.6201699238013355,0.6,0.0,0.0,279.0,761.0,0.0,1,150.0,1
686,686,0.6328501834731391,0.6,0.0,0.0,487.0,701.0,0.0,1,232.0,1
687,687,-0.6391721097545744,-0.6,0.0,1.0,447.0,903.0,1.0,0,140.0,1
688,688,0.7620910077147921,0.8,0.0,0.0,455.0,616.0,0.0,1,259.0,1
689,689,0.712481034521303,0.7,1.0,1.0,400.0,904.0,1.0,1,86.0,1
690,690,-0.4603107926968136,-0.5,1.0,0.0,400.0,645.0,0.0,0,305.0,1
691,691,0.19078222091601094,0.2,0.0,0.0,291.0,757.0,0.0,1,642.0,1
692,692,-0.355687060306043,-0.4,0.0,1.0,333.0,590.0,1.0,0,227.0,1
693,693,0.4606364361814669,0.5,0.0,0.0,483.0,814.0,0.0,1,333.0,1
694,694,0.6188784654728611,0.6,1.0,1.0,271.0,728.0,1.0,1,241.0,1
695,695,0.6934325250215793,0.7,1.0,1.0,374.0,974.0,1.0,1,142.0,1
696,696,-0.594917974928304,-0.6,1.0,0.0,392.0,549.0,0.0,0,349.0,1
697,697,0.38906691886405864,0.4,0.0,0.0,287.0,878.0,0.0,1,165.0,1
698,698,-0.1421894393774059,-0.1,0.0,1.0,478.0,998.0,1.0,0,324.0,1
699,699,0.6737483075631509,0.7,0.0,0.0,344.0,957.0,0.0,1,159.0,1
700,700,0.8159826115419287,0.8,0.0,0.0,483.0,548.0,0.0,1,429.0,1
701,701,0.27244068642044283,0.3,1.0,1.0,418.0,655.0,1.0,1,287.0,1
702,702,0.5673603150811611,0.6,1.0,1.0,253.0,811.0,1.0,1,146.0,1
703,703,-0.7007867039223206,-0.7,0.0,1.0,499.0,811.0,1.0,0,130.0,1
704,704,-0.3176478085964902,-0.3,0.0,1.0,352.0,894.0,1.0,0,384.0,1
705,705,0.09255466662911238,0.1,0.0,0.0,361.0,693.0,0.0,1,1006.0,1
706,706,0.278595044616739,0.3,1.0,1.0,465.0,948.0,1.0,1,157.0,1
707,707,0.48590079454512025,0.5,1.0,1.0,259.0,984.0,1.0,1,167.0,1
708,708,-0.02748960298953973,-0.0,0.0,1.0,296.0,628.0,1.0,0,1316.0,1
709,709,0.3684265671135646,0.4,0.0,0.0,439.0,528.0,0.0,1,463.0,1
710,710,0.7924441994869528,0.8,0.0,0.0,251.0,539.0,0.0,1,260.0,1
711,711,-0.24203396972873503,-0.2,1.0,0.0,475.0,528.0,0.0,0,487.0,1
712,712,0.8856201112899033,0.9,1.0,1.0,395.0,994.0,1.0,1,131.0,1
713,713,-0.7552713091831238,-0.8,1.0,0.0,320.0,586.0,0.0,0,284.0,1
714,714,-0.865975084202377,-0.9,1.0,0.0,261.0,645.0,0.0,0,234.0,1
715,715,0.7532363599736952,0.8,0.0,0.0,351.0,884.0,0.0,1,325.0,1
716,716,-0.04114907150304048,-0.0,1.0,0.0,450.0,635.0,0.0,0,1915.0,1
717,717,0.24596697395211653,0.2,1.0,1.0,272.0,995.0,1.0,1,133.0,1
718,718,-0.6442722771991616,-0.6,1.0,0.0,349.0,940.0,0.0,0,151.0,1
719,719,0.49687806071844076,0.5,0.0,0.0,280.0,630.0,0.0,1,310.0,1
720,720,-0.0022956673601529642,-0.0,0.0,1.0,285.0,674.0,1.0,0,751.0,1
721,721,-0.6425396988144378,-0.6,1.0,0.0,257.0,799.0,0.0,0,184.0,1
722,722,-0.5376297759543079,-0.5,1.0,0.0,328.0,690.0,0.0,0,212.0,1
723,723,-0.6926426521259739,-0.7,1.0,0.0,314.0,838.0,0.0,0,328.0,1
724,724,0.647203502048577,0.6,1.0,1.0,284.0,946.0,1.0,1,90.0,1
725,725,-0.29604104837762446,-0.3,1.0,0.0,408.0,986.0,0.0,0,226.0,1
726,726,0.6658859371541658,0.7,0.0,0.0,480.0,912.0,0.0,1,68.0,1
727,727,-0.7004959003971224,-0.7,1.0,0.0,489.0,981.0,0.0,0,300.0,1
728,728,-0.6506348035614882,-0.7,0.0,1.0,476.0,554.0,1.0,0,170.0,1
729,729,0.1744830034126198,0.2,0.0,0.0,411.0,966.0,0.0,1,223.0,1
730,730,0.3080705397821134,0.3,0.0,0.0,485.0,929.0,0.0,1,286.0,1
731,731,-0.7186417398387865,-0.7,1.0,0.0,326.0,945.0,0.0,0,189.0,1
732,732,-0.8525067822382718,-0.9,1.0,0.0,498.0,767.0,0.0,0,315.0,1
733,733,0.5523163990110648,0.6,1.0,1.0,250.0,757.0,1.0,1,113.0,1
734,734,0.15819304613909424,0.2,0.0,0.0,377.0,522.0,0.0,1,811.0,1
735,735,0.7057998995982567,0.7,0.0,0.0,300.0,542.0,0.0,1,108.0,1
736,736,0.6963093750388295,0.7,0.0,0.0,434.0,563.0,0.0,1,283.0,1
737,737,-0.38724986319623267,-0.4,1.0,0.0,335.0,542.0,0.0,0,393.0,1
738,738,-0.5117772162993841,-0.5,1.0,0.0,400.0,611.0,0.0,0,449.0,1
739,739,-0.8436464642504462,-0.8,0.0,1.0,368.0,777.0,1.0,0,125.0,1
740,740,-0.03548273716900485,-0.0,0.0,1.0,362.0,907.0,1.0,0,841.0,1
741,741,-0.5262950429608675,-0.5,0.0,1.0,470.0,609.0,1.0,0,141.0,1
742,742,-0.6655559351172036,-0.7,0.0,1.0,332.0,845.0,1.0,0,133.0,1
743,743,0.39897476688909184,0.4,1.0,1.0,415.0,749.0,1.0,1,206.0,1
744,744,-0.6190449110202616,-0.6,0.0,1.0,406.0,873.0,1.0,0,91.0,1
745,745,-0.7785366301067494,-0.8,1.0,0.0,431.0,902.0,0.0,0,197.0,1
746,746,-0.28716932461256184,-0.3,1.0,0.0,327.0,585.0,0.0,0,308.0,1
747,747,-0.11632884805988541,-0.1,1.0,0.0,269.0,940.0,0.0,0,461.0,1
748,748,0.55635582430815,0.6,0.0,0.0,423.0,707.0,0.0,1,150.0,1
749,749,0.8779870725059243,0.9,0.0,0.0,439.0,574.0,0.0,1,317.0,1
750,750,-0.07063427735356498,-0.1,0.0,1.0,340.0,661.0,1.0,0,499.0,1
751,751,0.26556679128317506,0.3,0.0,0.0,281.0,587.0,0.0,1,72.0,1
752,752,0.6952969317117969,0.7,0.0,0.0,412.0,998.0,0.0,1,270.0,1
753,753,0.04729716867525424,0.0,1.0,1.0,312.0,690.0,1.0,1,278.0,1
754,754,0.812602574049304,0.8,1.0,1.0,339.0,936.0,1.0,1,55.0,1
755,755,0.2870151589308111,0.3,0.0,0.0,383.0,521.0,0.0,1,456.0,1
756,756,0.12364391830017507,0.1,1.0,1.0,429.0,572.0,1.0,1,1009.0,1
757,757,0.357029592155376,0.4,0.0,0.0,371.0,777.0,0.0,1,352.0,1
758,758,-0.4871061601168575,-0.5,1.0,0.0,464.0,630.0,0.0,0,626.0,1
759,759,-0.2300080846242455,-0.2,0.0,1.0,321.0,785.0,1.0,0,164.0,1
760,760,-0.7803239646854448,-0.8,1.0,0.0,309.0,897.0,0.0,0,234.0,1
761,761,-0.2211192452440388,-0.2,0.0,1.0,367.0,784.0,1.0,0,259.0,1
762,762,0.6002899019369133,0.6,1.0,1.0,451.0,876.0,1.0,1,153.0,1
763,763,-0.8802064085817877,-0.9,0.0,1.0,421.0,516.0,1.0,0,273.0,1
764,764,-0.29222692382136795,-0.3,1.0,0.0,319.0,973.0,0.0,0,378.0,1
765,765,0.44635653840268297,0.4,1.0,1.0,339.0,826.0,1.0,1,95.0,1
766,766,0.49011917178074194,0.5,0.0,0.0,295.0,726.0,0.0,1,229.0,1
767,767,0.4681429881647853,0.5,1.0,1.0,413.0,880.0,1.0,1,77.0,1
768,768,0.008300628260369591,0.0,0.0,0.0,436.0,552.0,1.0,0,2012.0,0
769,769,-0.6081855019266937,-0.6,0.0,1.0,345.0,815.0,1.0,0,210.0,1
770,770,-0.09849680238690872,-0.1,1.0,0.0,458.0,955.0,0.0,0,237.0,1
771,771,0.775251522142688,0.8,0.0,0.0,392.0,983.0,1.0,0,-235.0,0
772,772,-0.701937812501011,-0.7,0.0,1.0,468.0,902.0,1.0,0,80.0,1
773,773,-0.1743902511316744,-0.2,1.0,0.0,257.0,766.0,0.0,0,807.0,1
774,774,-0.09687213081047741,-0.1,1.0,0.0,345.0,693.0,0.0,0,652.0,1
775,775,-0.10317128226288086,-0.1,1.0,0.0,384.0,839.0,0.0,0,567.0,1
776,776,-0.7519440560505395,-0.8,0.0,1.0,332.0,670.0,1.0,0,128.0,1
777,777,-0.4447009759664363,-0.4,1.0,0.0,369.0,799.0,0.0,0,342.0,1
778,778,0.7570758829900336,0.8,0.0,0.0,438.0,888.0,0.0,1,124.0,1
779,779,-0.15271393615844064,-0.2,1.0,0.0,343.0,952.0,0.0,0,1005.0,1
780,780,0.06359900505498417,0.1,1.0,1.0,443.0,634.0,1.0,1,1023.0,1
781,781,0.8919599223168576,0.9,0.0,0.0,296.0,718.0,0.0,1,286.0,1
782,782,-0.10169127841251013,-0.1,0.0,1.0,328.0,909.0,1.0,0,733.0,1
783,783,-0.3885735341873986,-0.4,0.0,1.0,491.0,892.0,1.0,0,117.0,1
784,784,0.692284494976451,0.7,1.0,1.0,409.0,545.0,1.0,1,146.0,1
785,785,-0.24277141490688237,-0.2,0.0,1.0,325.0,685.0,1.0,0,350.0,1
786,786,0.12703717160191463,0.1,1.0,1.0,283.0,988.0,1.0,1,239.0,1
787,787,-0.21786209548210678,-0.2,1.0,0.0,404.0,606.0,0.0,0,430.0,1
788,788,0.6984127474114671,0.7,1.0,1.0,348.0,954.0,1.0,1,58.0,1
789,789,-0.1135888371442243,-0.1,0.0,1.0,437.0,640.0,1.0,0,543.0,1
790,790,0.5981644983582871,0.6,0.0,0.0,281.0,712.0,0.0,1,217.0,1
791,791,-0.6955224875099562,-0.7,0.0,1.0,316.0,678.0,1.0,0,276.0,1
792,792,0.3437085261746019,0.3,0.0,0.0,357.0,921.0,0.0,1,372.0,1
793,793,0.1592209272766888,0.2,1.0,1.0,423.0,944.0,1.0,1,103.0,1
794,794,0.5240222077495368,0.5,1.0,1.0,379.0,619.0,1.0,1,302.0,1
795,795,0.4783805081121727,0.5,1.0,1.0,278.0,639.0,1.0,1,163.0,1
796,796,-0.22465447902306312,-0.2,0.0,1.0,312.0,783.0,1.0,0,275.0,1
797,797,-0.5054384910385796,-0.5,1.0,0.0,440.0,631.0,0.0,0,219.0,1
798,798,-0.1950292655927297,-0.2,1.0,0.0,301.0,541.0,0.0,0,788.0,1
799,799,-0.6484947316017458,-0.6,0.0,1.0,353.0,603.0,1.0,0,144.0,1
800,800,-0.6164458786166114,-0.6,0.0,1.0,341.0,743.0,1.0,0,116.0,1
801,801,-0.4391560976814988,-0.4,0.0,1.0,357.0,639.0,1.0,0,354.0,1
802,802,-0.5874496418453347,-0.6,1.0,0.0,396.0,741.0,0.0,0,153.0,1
803,803,0.06714097627174065,0.1,1.0,1.0,336.0,506.0,1.0,1,858.0,1
804,804,0.1995343518214846,0.2,1.0,1.0,378.0,633.0,1.0,1,289.0,1
805,805,-0.4466697388764976,-0.4,0.0,1.0,328.0,766.0,1.0,0,106.0,1
806,806,-0.12015575877663875,-0.1,1.0,0.0,288.0,536.0,0.0,0,576.0,1
807,807,0.8971000691894212,0.9,0.0,0.0,344.0,768.0,0.0,1,318.0,1
808,808,0.3590460735361377,0.4,0.0,0.0,444.0,892.0,0.0,1,164.0,1
809,809,0.23143605250342414,0.2,0.0,0.0,379.0,719.0,0.0,1,232.0,1
810,810,-0.15466052376061745,-0.2,0.0,1.0,310.0,790.0,1.0,0,500.0,1
811,811,-0.25907675302465905,-0.3,0.0,1.0,307.0,868.0,1.0,0,125.0,1
812,812,0.6292457485992448,0.6,0.0,0.0,323.0,750.0,0.0,1,187.0,1
813,813,0.39559790046147814,0.4,0.0,0.0,343.0,820.0,0.0,1,327.0,1
814,814,0.2849072586242082,0.3,1.0,1.0,435.0,887.0,1.0,1,58.0,1
815,815,-0.5791329920002178,-0.6,1.0,0.0,297.0,597.0,0.0,0,286.0,1
816,816,-0.6071747905804386,-0.6,0.0,1.0,301.0,886.0,1.0,0,173.0,1
817,817,-0.5782708180870265,-0.6,0.0,1.0,299.0,746.0,1.0,0,105.0,1
818,818,-0.31867397539123254,-0.3,1.0,0.0,369.0,600.0,0.0,0,321.0,1
819,819,0.4723411942628767,0.5,1.0,1.0,343.0,789.0,1.0,1,118.0,1
820,820,0.11054966096255214,0.1,0.0,0.0,457.0,560.0,0.0,1,743.0,1
821,821,0.5210238626641294,0.5,1.0,1.0,255.0,709.0,1.0,1,186.0,1
822,822,-0.05483864436477448,-0.1,1.0,0.0,441.0,872.0,0.0,0,797.0,1
823,823,-0.2495551035674376,-0.2,1.0,0.0,299.0,765.0,0.0,0,516.0,1
824,824,-0.6598806627359404,-0.7,0.0,1.0,358.0,785.0,1.0,0,117.0,1
825,825,0.0941325766033888,0.1,0.0,0.0,312.0,974.0,0.0,1,614.0,1
826,826,-0.37560963409212267,-0.4,0.0,1.0,464.0,966.0,1.0,0,30.0,1
827,827,0.05403277443777155,0.1,0.0,0.0,409.0,708.0,0.0,1,1883.0,1
828,828,0.20525113504033843,0.2,1.0,1.0,265.0,883.0,1.0,1,172.0,1
829,829,0.6491709787947594,0.6,1.0,1.0,352.0,620.0,1.0,1,158.0,1
830,830,-0.34872174009925627,-0.3,1.0,0.0,382.0,743.0,0.0,0,215.0,1
831,831,0.898982389565904,0.9,0.0,0.0,439.0,910.0,0.0,1,261.0,1
832,832,-0.610317243601064,-0.6,1.0,0.0,313.0,968.0,0.0,0,189.0,1
833,833,-0.1387438355299403,-0.1,1.0,0.0,300.0,744.0,0.0,0,576.0,1
834,834,0.6313694250308995,0.6,1.0,1.0,397.0,733.0,1.0,1,160.0,1
835,835,0.08162268032793951,0.1,0.0,0.0,449.0,517.0,0.0,1,1984.0,1
836,836,0.7505173456466377,0.8,0.0,0.0,287.0,864.0,0.0,1,259.0,1
837,837,0.3395248229003208,0.3,1.0,1.0,340.0,979.0,1.0,1,331.0,1
838,838,-0.8482455804785064,-0.8,0.0,1.0,376.0,838.0,1.0,0,136.0,1
839,839,-0.2142516052758,-0.2,1.0,0.0,433.0,630.0,0.0,0,867.0,1
840,840,0.13930358093730433,0.1,0.0,0.0,409.0,619.0,0.0,1,882.0,1
841,841,-0.260060740138195,-0.3,1.0,0.0,476.0,768.0,0.0,0,426.0,1
842,842,-0.48964433380336086,-0.5,1.0,0.0,252.0,603.0,0.0,0,295.0,1
843,843,-0.3529402707913346,-0.4,0.0,1.0,464.0,631.0,1.0,0,275.0,1
844,844,-0.6646383838873687,-0.7,0.0,1.0,288.0,772.0,1.0,0,120.0,1
845,845,-0.2940040555519231,-0.3,1.0,0.0,295.0,850.0,0.0,0,305.0,1
846,846,0.2449137567387526,0.2,0.0,0.0,360.0,636.0,0.0,1,384.0,1
847,847,-0.6302037064666652,-0.6,0.0,1.0,443.0,976.0,1.0,0,131.0,1
848,848,-0.8765470107146345,-0.9,1.0,0.0,354.0,900.0,0.0,0,266.0,1
849,849,0.8237082684356852,0.8,0.0,0.0,385.0,553.0,0.0,1,332.0,1
850,850,-0.8622849256458324,-0.9,0.0,1.0,307.0,520.0,1.0,0,203.0,1
851,851,-0.5236462051191875,-0.5,1.0,0.0,255.0,744.0,0.0,0,181.0,1
852,852,-0.14978100444427656,-0.1,0.0,1.0,454.0,918.0,1.0,0,608.0,1
853,853,-0.4231568736313051,-0.4,1.0,0.0,292.0,811.0,0.0,0,207.0,1
854,854,-0.34602952614561155,-0.3,1.0,0.0,252.0,854.0,0.0,0,134.0,1
855,855,-0.3845038275897419,-0.4,0.0,1.0,287.0,785.0,1.0,0,368.0,1
856,856,-0.8664572059147577,-0.9,0.0,1.0,464.0,611.0,1.0,0,205.0,1
857,857,-0.11847886604090019,-0.1,1.0,0.0,355.0,604.0,0.0,0,511.0,1
858,858,-0.5252004558032968,-0.5,1.0,0.0,403.0,596.0,0.0,0,171.0,1
859,859,0.1266687761053823,0.1,1.0,1.0,339.0,529.0,1.0,1,742.0,1
860,860,-0.13164329597283253,-0.1,1.0,0.0,435.0,915.0,0.0,0,330.0,1
861,861,0.32691177467280863,0.3,0.0,0.0,437.0,777.0,0.0,1,76.0,1
862,862,-0.0044155277387814,-0.0,0.0,1.0,409.0,742.0,0.0,1,589.0,0
863,863,-0.7818379932810123,-0.8,0.0,1.0,447.0,999.0,1.0,0,14.0,1
864,864,0.42406495504637143,0.4,1.0,1.0,292.0,667.0,1.0,1,71.0,1
865,865,-0.1354142170027346,-0.1,1.0,0.0,251.0,562.0,0.0,0,627.0,1
866,866,-0.5371311486623405,-0.5,1.0,0.0,482.0,832.0,0.0,0,256.0,1
867,867,0.44473604452672244,0.4,0.0,0.0,391.0,822.0,0.0,1,317.0,1
868,868,-0.4878102959862392,-0.5,1.0,0.0,301.0,944.0,0.0,0,205.0,1
869,869,0.47382441805587117,0.5,0.0,0.0,299.0,835.0,0.0,1,156.0,1
870,870,0.18265691788608673,0.2,1.0,1.0,442.0,889.0,1.0,1,189.0,1
871,871,0.5668219341911384,0.6,1.0,1.0,276.0,594.0,1.0,1,210.0,1
872,872,0.39713553406095736,0.4,0.0,0.0,318.0,593.0,0.0,1,589.0,1
873,873,0.42731462646947416,0.4,0.0,0.0,428.0,532.0,0.0,1,250.0,1
874,874,0.3177630299428197,0.3,1.0,1.0,373.0,806.0,1.0,1,301.0,1
875,875,-0.6315187737117904,-0.6,0.0,1.0,272.0,639.0,1.0,0,239.0,1
876,876,-0.6824798441369229,-0.7,0.0,1.0,268.0,641.0,1.0,0,161.0,1
877,877,0.8384826241517905,0.8,0.0,0.0,315.0,903.0,0.0,1,82.0,1
878,878,0.8002530128829001,0.8,0.0,0.0,483.0,931.0,0.0,1,176.0,1
879,879,-0.6203640069321459,-0.6,0.0,1.0,415.0,968.0,1.0,0,77.0,1
880,880,-0.1233302166618806,-0.1,1.0,0.0,480.0,722.0,0.0,0,1548.0,1
881,881,0.7258848024131929,0.7,0.0,0.0,401.0,958.0,0.0,1,141.0,1
882,882,0.8707390403051646,0.9,1.0,1.0,295.0,840.0,1.0,1,245.0,1
883,883,-0.49613483469598324,-0.5,0.0,1.0,267.0,745.0,1.0,0,298.0,1
884,884,0.8701490152160788,0.9,0.0,0.0,353.0,593.0,0.0,1,204.0,1
885,885,0.1819507635702572,0.2,1.0,1.0,499.0,689.0,1.0,1,272.0,1
886,886,0.5320140262482033,0.5,0.0,0.0,463.0,503.0,0.0,1,654.0,1
887,887,0.39430258665077356,0.4,0.0,0.0,484.0,612.0,0.0,1,254.0,1
888,888,-0.21573457585375888,-0.2,1.0,0.0,361.0,605.0,0.0,0,324.0,1
889,889,-0.44385821138937176,-0.4,0.0,1.0,441.0,954.0,1.0,0,155.0,1
890,890,0.29163416812976994,0.3,1.0,1.0,471.0,822.0,1.0,1,177.0,1
891,891,-0.3352096097528644,-0.3,0.0,1.0,320.0,797.0,1.0,0,173.0,1
892,892,0.16250218505516234,0.2,0.0,0.0,293.0,782.0,0.0,1,675.0,1
893,893,0.7894914150062572,0.8,1.0,1.0,265.0,965.0,1.0,1,200.0,1
894,894,0.6244166503945611,0.6,0.0,0.0,255.0,803.0,0.0,1,42.0,1
895,895,0.6336861461183251,0.6,0.0,0.0,320.0,992.0,0.0,1,78.0,1
896,896,-0.7016894106728709,-0.7,0.0,1.0,345.0,591.0,1.0,0,324.0,1
897,897,-0.6832130817883661,-0.7,0.0,1.0,490.0,998.0,1.0,0,52.0,1
898,898,-0.324401902455292,-0.3,0.0,1.0,288.0,557.0,1.0,0,345.0,1
899,899,-0.5925496496194217,-0.6,1.0,0.0,388.0,540.0,0.0,0,772.0,1
900,900,-0.7371221534105283,-0.7,0.0,1.0,303.0,952.0,1.0,0,135.0,1
901,901,0.4163878531111894,0.4,0.0,0.0,489.0,723.0,0.0,1,218.0,1
902,902,0.8034821017581747,0.8,1.0,1.0,477.0,604.0,1.0,1,249.0,1
903,903,0.15332722452361602,0.2,0.0,0.0,414.0,874.0,0.0,1,502.0,1
904,904,-0.1382584182781792,-0.1,1.0,0.0,366.0,768.0,1.0,1,-354.0,0
905,905,-0.5988305440326144,-0.6,0.0,1.0,260.0,851.0,1.0,0,169.0,1
906,906,-0.6412738720762365,-0.6,1.0,0.0,304.0,795.0,0.0,0,141.0,1
907,907,0.8643304721686434,0.9,0.0,0.0,431.0,614.0,0.0,1,275.0,1
908,908,-0.06062815079058248,-0.1,0.0,1.0,456.0,824.0,1.0,0,1720.0,1
909,909,0.4776525472388683,0.5,1.0,1.0,293.0,966.0,1.0,1,21.0,1
910,910,-0.2359504031125519,-0.2,0.0,1.0,360.0,557.0,1.0,0,493.0,1
911,911,-0.43976635228055105,-0.4,1.0,0.0,363.0,894.0,0.0,0,303.0,1
912,912,0.22556228801900924,0.2,1.0,1.0,420.0,703.0,1.0,1,207.0,1
913,913,-0.0015328256683685426,-0.0,1.0,0.0,307.0,623.0,1.0,1,1320.0,0
914,914,-0.8822775878486797,-0.9,1.0,0.0,458.0,547.0,0.0,0,245.0,1
915,915,0.5822295111557577,0.6,0.0,0.0,440.0,871.0,0.0,1,279.0,1
916,916,0.6072454828225721,0.6,0.0,0.0,372.0,709.0,0.0,1,189.0,1
917,917,-0.6359250792819808,-0.6,0.0,1.0,494.0,693.0,1.0,0,163.0,1
918,918,0.8306108870950172,0.8,1.0,1.0,314.0,553.0,1.0,1,293.0,1
919,919,0.2074348325787968,0.2,1.0,1.0,401.0,646.0,1.0,1,273.0,1
920,920,-0.8467363217945801,-0.8,1.0,0.0,479.0,742.0,0.0,0,219.0,1
921,921,0.07482847196425624,0.1,0.0,0.0,485.0,856.0,0.0,1,789.0,1
922,922,-0.6911593570188459,-0.7,1.0,0.0,297.0,634.0,0.0,0,229.0,1
923,923,0.8391722551939887,0.8,1.0,1.0,421.0,665.0,1.0,1,164.0,1
924,924,-0.48840099339245246,-0.5,1.0,0.0,493.0,816.0,0.0,0,161.0,1
925,925,-0.16829338917945602,-0.2,1.0,0.0,441.0,982.0,0.0,0,397.0,1
926,926,0.16345110882271874,0.2,0.0,0.0,407.0,841.0,0.0,1,1072.0,1
927,927,-0.20219538079116883,-0.2,1.0,0.0,369.0,637.0,0.0,0,404.0,1
928,928,-0.25763015931728994,-0.3,1.0,0.0,474.0,926.0,0.0,0,280.0,1
929,929,0.40809851034522604,0.4,1.0,1.0,489.0,786.0,1.0,1,165.0,1
930,930,0.6723532218363973,0.7,1.0,1.0,487.0,777.0,1.0,1,206.0,1
931,931,-0.009747951469041283,-0.0,0.0,1.0,326.0,624.0,1.0,0,400.0,1
932,932,0.2718527593296344,0.3,1.0,1.0,311.0,672.0,1.0,1,457.0,1
933,933,0.34457008873625405,0.3,1.0,1.0,467.0,528.0,1.0,1,285.0,1
934,934,0.7376950123604079,0.7,1.0,1.0,350.0,515.0,1.0,1,185.0,1
935,935,-0.44406044999970734,-0.4,1.0,0.0,494.0,607.0,0.0,0,409.0,1
936,936,0.2596075104781591,0.3,1.0,1.0,465.0,687.0,1.0,1,218.0,1
937,937,0.0005034595815237575,0.0,1.0,1.0,291.0,959.0,1.0,1,1060.0,1
938,938,0.7383233011843487,0.7,1.0,1.0,324.0,731.0,1.0,1,265.0,1
939,939,-0.303858191902565,-0.3,0.0,1.0,352.0,988.0,1.0,0,280.0,1
940,940,-0.22331971437817955,-0.2,0.0,1.0,348.0,572.0,1.0,0,320.0,1
941,941,0.8178225907873867,0.8,0.0,0.0,326.0,853.0,0.0,1,251.0,1
942,942,-0.3840357989501557,-0.4,1.0,0.0,496.0,893.0,0.0,0,161.0,1
943,943,-0.27182658028800466,-0.3,1.0,0.0,261.0,585.0,0.0,0,304.0,1
944,944,-0.687106269745462,-0.7,0.0,1.0,374.0,677.0,1.0,0,289.0,1
945,945,-0.1557934576793213,-0.2,0.0,1.0,283.0,604.0,1.0,0,613.0,1
946,946,0.25987263238382174,0.3,0.0,0.0,387.0,956.0,0.0,1,287.0,1
947,947,0.2378709573143193,0.2,1.0,1.0,374.0,515.0,1.0,1,361.0,1
948,948,0.5278397963214384,0.5,0.0,0.0,358.0,857.0,0.0,1,155.0,1
949,949,-0.5219966496812918,-0.5,0.0,1.0,358.0,570.0,1.0,0,172.0,1
950,950,-0.6173247602417749,-0.6,1.0,0.0,313.0,788.0,0.0,0,229.0,1
951,951,-0.08849451934822028,-0.1,1.0,0.0,385.0,848.0,0.0,0,717.0,1
952,952,-0.09353910810683774,-0.1,0.0,1.0,331.0,681.0,1.0,0,288.0,1
953,953,0.11265350738163205,0.1,1.0,1.0,409.0,586.0,1.0,1,495.0,1
954,954,-0.3535081112817364,-0.4,0.0,1.0,479.0,536.0,1.0,0,265.0,1
955,955,0.7356846854542952,0.7,0.0,0.0,358.0,906.0,0.0,1,286.0,1
956,956,-0.45166429701547195,-0.5,1.0,0.0,440.0,647.0,0.0,0,283.0,1
957,957,0.3315049911617408,0.3,1.0,1.0,414.0,706.0,1.0,1,250.0,1
958,958,-0.662846233280725,-0.7,0.0,1.0,268.0,505.0,1.0,0,207.0,1
959,959,-0.6514832242599634,-0.7,1.0,0.0,448.0,627.0,0.0,0,265.0,1
960,960,-0.7132711033331995,-0.7,1.0,0.0,496.0,627.0,0.0,0,287.0,1
961,961,0.35006034649419415,0.4,0.0,0.0,477.0,613.0,0.0,1,220.0,1
962,962,-0.3467527635751787,-0.3,1.0,0.0,488.0,821.0,0.0,0,321.0,1
963,963,-0.5180685624037529,-0.5,1.0,0.0,268.0,727.0,0.0,0,255.0,1
964,964,-0.25866965702657707,-0.3,0.0,1.0,464.0,939.0,1.0,0,27.0,1
965,965,0.2925217523538498,0.3,1.0,1.0,453.0,915.0,1.0,1,252.0,1
966,966,0.6940731044202154,0.7,1.0,1.0,297.0,950.0,1.0,1,83.0,1
967,967,0.25533378471662804,0.3,1.0,1.0,378.0,603.0,1.0,1,169.0,1
968,968,0.6632997987473973,0.7,0.0,0.0,410.0,617.0,0.0,1,273.0,1
969,969,-0.14313435700197585,-0.1,1.0,0.0,348.0,647.0,0.0,0,535.0,1
970,970,0.4686860899144335,0.5,1.0,1.0,410.0,516.0,1.0,1,354.0,1
971,971,0.7786137258207618,0.8,0.0,0.0,465.0,644.0,0.0,1,221.0,1
972,972,0.8777151086226017,0.9,0.0,0.0,464.0,998.0,0.0,1,148.0,1
973,973,0.3863281096657597,0.4,0.0,0.0,255.0,519.0,0.0,1,396.0,1
974,974,0.6771077640497757,0.7,0.0,0.0,270.0,721.0,0.0,1,179.0,1
975,975,0.812337567286252,0.8,1.0,1.0,411.0,610.0,1.0,1,159.0,1
976,976,0.294824871450866,0.3,0.0,0.0,418.0,853.0,0.0,1,359.0,1
977,977,-0.3227579224400653,-0.3,0.0,1.0,377.0,832.0,1.0,0,211.0,1
978,978,0.7090156695116577,0.7,1.0,1.0,491.0,725.0,1.0,1,124.0,1
979,979,0.17723650409288816,0.2,0.0,0.0,355.0,530.0,0.0,1,505.0,1
980,980,0.0031419083668816628,0.0,1.0,1.0,381.0,961.0,1.0,1,1448.0,1
981,981,0.3307202424455614,0.3,1.0,1.0,323.0,876.0,1.0,1,111.0,1
982,982,-0.8498299583173853,-0.8,1.0,0.0,296.0,605.0,0.0,0,239.0,1
983,983,-0.11887276758582743,-0.1,1.0,0.0,459.0,826.0,0.0,0,545.0,1
984,984,0.03653794356704343,0.0,0.0,0.0,459.0,918.0,1.0,0,1623.0,0
985,985,0.5566856378338639,0.6,0.0,0.0,463.0,862.0,0.0,1,185.0,1
986,986,-0.39256943850857307,-0.4,0.0,1.0,256.0,795.0,1.0,0,189.0,1
987,987,-0.12594551767230622,-0.1,0.0,1.0,456.0,584.0,1.0,0,360.0,1
988,988,-0.7328026818621904,-0.7,1.0,0.0,474.0,696.0,0.0,0,250.0,1
989,989,0.03603143006128884,0.0,0.0,0.0,399.0,805.0,0.0,1,1796.0,1
990,990,-0.6481847585189219,-0.6,0.0,1.0,426.0,787.0,1.0,0,107.0,1
991,991,0.14638124257873886,0.1,0.0,0.0,436.0,850.0,0.0,1,544.0,1
992,992,-0.38120047318064776,-0.4,1.0,0.0,264.0,551.0,0.0,0,225.0,1
993,993,0.40703228204960806,0.4,1.0,1.0,290.0,978.0,1.0,1,222.0,1
994,994,-0.13303438582892624,-0.1,0.0,1.0,428.0,549.0,1.0,0,333.0,1
995,995,-0.8153834624155695,-0.8,0.0,1.0,452.0,870.0,1.0,0,198.0,1
996,996,0.20286636235982092,0.2,1.0,1.0,385.0,920.0,1.0,1,405.0,1
997,997,0.8646661929635341,0.9,0.0,0.0,326.0,595.0,0.0,1,389.0,1
998,998,0.6828008089822785,0.7,0.0,0.0,443.0,954.0,0.0,1,263.0,1
999,999,-0.6265996959705739,-0.6,0.0,1.0,259.0,575.0,1.0,0,176.0,1
1000,1000,-0.3076365862116338,-0.3,1.0,0.0,275.0,855.0,0.0,0,450.0,1
1001,1001,0.4249032109777301,0.4,1.0,1.0,458.0,644.0,1.0,1,288.0,1
1002,1002,-0.46571614541677187,-0.5,0.0,1.0,292.0,708.0,1.0,0,190.0,1
1003,1003,0.44747290127957495,0.4,0.0,0.0,305.0,721.0,0.0,1,234.0,1
1004,1004,-0.5132748225368806,-0.5,1.0,0.0,318.0,652.0,0.0,0,310.0,1
1005,1005,-0.687151765754981,-0.7,1.0,0.0,262.0,815.0,0.0,0,313.0,1
1006,1006,-0.8848892890153093,-0.9,1.0,0.0,272.0,536.0,0.0,0,242.0,1
1007,1007,0.1324201512775004,0.1,0.0,0.0,276.0,672.0,0.0,1,542.0,1
1008,1008,-0.3378641493222967,-0.3,1.0,0.0,296.0,900.0,0.0,0,244.0,1
1009,1009,0.2663372386319046,0.3,0.0,0.0,282.0,662.0,0.0,1,306.0,1
1010,1010,0.01687061895394093,0.0,1.0,1.0,317.0,812.0,1.0,1,1871.0,1
1011,1011,0.1439771571330194,0.1,1.0,1.0,373.0,693.0,1.0,1,404.0,1
1012,1012,0.3592905690984004,0.4,1.0,1.0,443.0,532.0,1.0,1,265.0,1
1013,1013,-0.5771412528546658,-0.6,0.0,1.0,327.0,598.0,1.0,0,185.0,1
1014,1014,-0.5242493730912515,-0.5,1.0,0.0,274.0,601.0,0.0,0,155.0,1
1015,1015,-0.5339167595481288,-0.5,0.0,1.0,302.0,973.0,1.0,0,105.0,1
1016,1016,0.3700541586064344,0.4,1.0,1.0,335.0,612.0,1.0,1,363.0,1
1017,1017,-0.4429168420939112,-0.4,1.0,0.0,304.0,586.0,0.0,0,290.0,1
1018,1018,-0.44890164423585766,-0.4,1.0,0.0,430.0,632.0,0.0,0,258.0,1
1019,1019,0.6723637873454954,0.7,1.0,1.0,308.0,615.0,1.0,1,157.0,1
1020,1020,0.4927667537112891,0.5,1.0,1.0,489.0,568.0,1.0,1,183.0,1
1021,1021,-0.5335849898007647,-0.5,0.0,1.0,495.0,926.0,1.0,0,259.0,1
1022,1022,0.2533033255419742,0.3,0.0,0.0,479.0,941.0,0.0,1,160.0,1
1023,1023,0.6188058792258516,0.6,0.0,0.0,490.0,533.0,0.0,1,227.0,1
1024,1024,0.32977430770534244,0.3,1.0,1.0,319.0,690.0,1.0,1,181.0,1
1025,1025,-0.5501821764337896,-0.6,0.0,1.0,256.0,785.0,1.0,0,79.0,1
1026,1026,-0.6324692702661187,-0.6,1.0,0.0,377.0,626.0,0.0,0,357.0,1
1027,1027,-0.17487257157630998,-0.2,1.0,0.0,346.0,786.0,0.0,0,218.0,1
1028,1028,0.1763443454639232,0.2,1.0,1.0,354.0,885.0,1.0,1,151.0,1
1029,1029,-0.6257840982378952,-0.6,0.0,1.0,421.0,915.0,1.0,0,124.0,1
1030,1030,-0.4705587999821883,-0.5,1.0,0.0,318.0,608.0,0.0,0,174.0,1
1031,1031,-0.6683133124221508,-0.7,1.0,0.0,409.0,544.0,0.0,0,357.0,1
1032,1032,0.6328627732582167,0.6,1.0,1.0,320.0,607.0,1.0,1,303.0,1
1033,1033,0.3333928152067337,0.3,1.0,1.0,455.0,682.0,1.0,1,283.0,1
1034,1034,0.6805315421379922,0.7,0.0,0.0,310.0,940.0,0.0,1,160.0,1
1035,1035,-0.7936807996122104,-0.8,1.0,0.0,328.0,770.0,0.0,0,272.0,1
1036,1036,-0.17392509547192192,-0.2,0.0,1.0,418.0,808.0,1.0,0,264.0,1
1037,1037,-0.03629638314374073,-0.0,0.0,1.0,284.0,510.0,1.0,0,1556.0,1
1038,1038,-0.8842594777258107,-0.9,0.0,1.0,467.0,708.0,1.0,0,85.0,1
1039,1039,0.3118904483156125,0.3,0.0,0.0,439.0,643.0,0.0,1,198.0,1
1040,1040,0.4413270983633596,0.4,0.0,0.0,404.0,764.0,0.0,1,142.0,1
1041,1041,0.54918231660126,0.5,0.0,0.0,277.0,773.0,0.0,1,340.0,1
1042,1042,-0.8004335072037222,-0.8,0.0,1.0,270.0,924.0,1.0,0,26.0,1
1043,1043,-0.3144534291215486,-0.3,0.0,1.0,267.0,611.0,1.0,0,362.0,1
1044,1044,-0.5964898959416087,-0.6,1.0,0.0,408.0,775.0,0.0,0,257.0,1
1045,1045,-0.48369687657582067,-0.5,0.0,1.0,495.0,862.0,1.0,0,123.0,1
1046,1046,0.3441146785525001,0.3,1.0,1.0,266.0,692.0,1.0,1,232.0,1
1047,1047,-0.10110016487382945,-0.1,0.0,1.0,292.0,925.0,1.0,0,333.0,1
1048,1048,0.15225088346988958,0.2,0.0,0.0,406.0,779.0,0.0,1,255.0,1
1049,1049,-0.8628411050455632,-0.9,1.0,0.0,428.0,507.0,0.0,0,385.0,1
1050,1050,0.5706375786129311,0.6,0.0,0.0,270.0,531.0,0.0,1,289.0,1
1051,1051,-0.5990860516466492,-0.6,0.0,1.0,359.0,813.0,1.0,0,198.0,1
1052,1052,-0.2892904536368123,-0.3,0.0,1.0,462.0,784.0,1.0,0,194.0,1
1053,1053,0.11591973018324209,0.1,1.0,1.0,469.0,812.0,1.0,1,209.0,1
1054,1054,0.005907526965863497,0.0,1.0,1.0,277.0,966.0,1.0,1,537.0,1
1055,1055,-0.8316631492763574,-0.8,0.0,1.0,273.0,556.0,1.0,0,131.0,1
1056,1056,-0.28469301811007,-0.3,1.0,0.0,448.0,964.0,0.0,0,148.0,1
1057,1057,0.250012442520967,0.3,0.0,0.0,258.0,824.0,0.0,1,408.0,1
1058,1058,-0.44830545808333594,-0.4,1.0,0.0,497.0,647.0,0.0,0,286.0,1
1059,1059,0.2761096509623505,0.3,1.0,1.0,355.0,662.0,1.0,1,453.0,1
1060,1060,0.18596840153175453,0.2,1.0,1.0,278.0,599.0,1.0,1,473.0,1
1061,1061,-0.23784616977400752,-0.2,0.0,1.0,340.0,908.0,1.0,0,182.0,1
1062,1062,0.8321910755290375,0.8,1.0,1.0,376.0,553.0,1.0,1,161.0,1
1063,1063,-0.15100371334349616,-0.2,1.0,0.0,292.0,709.0,0.0,0,769.0,1
1064,1064,0.7875015294020481,0.8,0.0,0.0,369.0,850.0,0.0,1,271.0,1
1065,1065,-0.10776402224846038,-0.1,1.0,0.0,452.0,746.0,0.0,0,422.0,1
1066,1066,-0.6112149333228538,-0.6,0.0,1.0,307.0,851.0,1.0,0,132.0,1
1067,1067,-0.7383514664294166,-0.7,1.0,0.0,397.0,653.0,0.0,0,270.0,1
1068,1068,0.663600803091494,0.7,1.0,1.0,466.0,883.0,1.0,1,31.0,1
1069,1069,-0.21304647629109463,-0.2,1.0,0.0,263.0,666.0,0.0,0,651.0,1
1070,1070,0.6365144163854605,0.6,0.0,0.0,373.0,559.0,0.0,1,378.0,1
1071,1071,0.5300384364624148,0.5,1.0,1.0,369.0,749.0,1.0,1,252.0,1
1072,1072,0.8220938030773771,0.8,0.0,0.0,337.0,767.0,0.0,1,146.0,1
1073,1073,-0.5624643241099541,-0.6,1.0,0.0,441.0,598.0,0.0,0,291.0,1
1074,1074,0.7906135637142236,0.8,1.0,1.0,309.0,601.0,1.0,1,250.0,1
1075,1075,-0.40370518398173594,-0.4,1.0,0.0,270.0,974.0,0.0,0,316.0,1
1076,1076,-0.7262990602421651,-0.7,1.0,0.0,259.0,868.0,0.0,0,283.0,1
1077,1077,-0.8759687713722971,-0.9,0.0,1.0,329.0,605.0,1.0,0,106.0,1
1078,1078,-0.0943998455820233,-0.1,0.0,1.0,453.0,855.0,1.0,0,472.0,1
1079,1079,-0.09318499410204484,-0.1,0.0,1.0,455.0,667.0,1.0,0,578.0,1
1080,1080,0.11466624868871478,0.1,0.0,0.0,385.0,969.0,0.0,1,216.0,1
1081,1081,-0.16033428732190147,-0.2,0.0,1.0,310.0,779.0,1.0,0,361.0,1
1082,1082,-0.05539509845946555,-0.1,1.0,0.0,448.0,882.0,0.0,0,1670.0,1
1083,1083,-0.873274939827211,-0.9,0.0,1.0,253.0,954.0,1.0,0,13.0,1
1084,1084,0.682964851637143,0.7,0.0,0.0,444.0,871.0,0.0,1,215.0,1
1085,1085,0.6395440564801865,0.6,1.0,1.0,464.0,720.0,1.0,1,206.0,1
1086,1086,-0.43080519450721627,-0.4,1.0,0.0,304.0,656.0,0.0,0,260.0,1
1087,1087,0.6848023557316655,0.7,0.0,0.0,453.0,545.0,0.0,1,282.0,1
1088,1088,0.2770551773655775,0.3,0.0,0.0,272.0,800.0,0.0,1,198.0,1
1089,1089,-0.2772659721455234,-0.3,0.0,1.0,474.0,588.0,1.0,0,288.0,1
1090,1090,0.31292875368971484,0.3,1.0,1.0,308.0,712.0,1.0,1,360.0,1
1091,1091,0.4135927694099252,0.4,1.0,1.0,383.0,725.0,1.0,1,282.0,1
1092,1092,-0.6480826448205447,-0.6,0.0,1.0,445.0,645.0,1.0,0,250.0,1
1093,1093,-0.11123947167076875,-0.1,0.0,1.0,380.0,943.0,1.0,0,57.0,1
1094,1094,0.7983220688135476,0.8,1.0,1.0,452.0,948.0,1.0,1,100.0,1
1095,1095,0.01635392292469129,0.0,1.0,1.0,287.0,699.0,1.0,1,424.0,1
1096,1096,-0.6177306359094644,-0.6,1.0,0.0,416.0,853.0,0.0,0,161.0,1
1097,1097,0.4003033504519987,0.4,0.0,0.0,348.0,517.0,0.0,1,195.0,1
1098,1098,-0.7396623731141587,-0.7,0.0,1.0,350.0,599.0,1.0,0,241.0,1
1099,1099,-0.1332214413922005,-0.1,0.0,1.0,396.0,877.0,1.0,0,377.0,1
1100,1100,0.42449848763932574,0.4,0.0,0.0,293.0,662.0,0.0,1,315.0,1
1101,1101,-0.2732686291713159,-0.3,0.0,1.0,324.0,787.0,1.0,0,169.0,1
1102,1102,0.3119619832134769,0.3,1.0,1.0,272.0,897.0,1.0,1,271.0,1
1103,1103,0.5240726099073997,0.5,1.0,1.0,430.0,841.0,1.0,1,169.0,1
1104,1104,-0.8496588571464899,-0.8,1.0,0.0,300.0,958.0,0.0,0,272.0,1
1105,1105,0.7954701139738872,0.8,1.0,1.0,463.0,628.0,1.0,1,259.0,1
1106,1106,-0.11675507639445448,-0.1,1.0,0.0,403.0,753.0,0.0,0,1174.0,1
1107,1107,0.7382402439113175,0.7,1.0,1.0,310.0,552.0,1.0,1,188.0,1
1108,1108,0.737355049023133,0.7,0.0,0.0,375.0,941.0,0.0,1,264.0,1
1109,1109,-0.2134612321236874,-0.2,1.0,0.0,466.0,898.0,0.0,0,226.0,1
1110,1110,-0.6392179040466848,-0.6,0.0,1.0,296.0,995.0,1.0,0,39.0,1
1111,1111,-0.020349278204504273,-0.0,1.0,0.0,398.0,745.0,1.0,1,1857.0,0
1112,1112,-0.5202332966625383,-0.5,1.0,0.0,323.0,747.0,0.0,0,380.0,1
1113,1113,-0.15063546613021028,-0.2,1.0,0.0,287.0,607.0,0.0,0,926.0,1
1114,1114,0.43754268497626125,0.4,1.0,1.0,424.0,838.0,1.0,1,48.0,1
1115,1115,-0.2743361683395783,-0.3,1.0,0.0,453.0,732.0,0.0,0,265.0,1
1116,1116,-0.7130096855869152,-0.7,1.0,0.0,475.0,870.0,0.0,0,135.0,1
1117,1117,-0.5415917081227923,-0.5,0.0,1.0,339.0,721.0,1.0,0,140.0,1
1118,1118,0.2503293993593735,0.3,1.0,1.0,355.0,504.0,1.0,1,271.0,1
1119,1119,-0.6048737331559684,-0.6,0.0,1.0,412.0,751.0,1.0,0,207.0,1
1120,1120,0.46322379605309216,0.5,1.0,1.0,329.0,609.0,1.0,1,122.0,1
1121,1121,-0.4153704095435087,-0.4,0.0,1.0,314.0,622.0,1.0,0,364.0,1
1122,1122,0.6760259488640309,0.7,0.0,0.0,458.0,786.0,0.0,1,206.0,1
1123,1123,-0.5185412260594415,-0.5,0.0,1.0,442.0,521.0,1.0,0,287.0,1
1124,1124,-0.3158104526002017,-0.3,0.0,1.0,374.0,577.0,1.0,0,319.0,1
1125,1125,0.5295823570962025,0.5,1.0,1.0,462.0,969.0,1.0,1,69.0,1
1126,1126,-0.7512739142361489,-0.8,1.0,0.0,385.0,560.0,0.0,0,335.0,1
1127,1127,-0.5431358872043826,-0.5,1.0,0.0,385.0,516.0,0.0,0,369.0,1
1128,1128,0.40841789368958736,0.4,1.0,1.0,378.0,911.0,1.0,1,181.0,1
1129,1129,-0.8036354273047024,-0.8,0.0,1.0,406.0,707.0,1.0,0,117.0,1
1130,1130,0.043080025422603474,0.0,0.0,0.0,464.0,758.0,0.0,1,1778.0,1
1131,1131,0.08036684117885273,0.1,0.0,0.0,344.0,558.0,0.0,1,528.0,1
1132,1132,0.11070571714079225,0.1,0.0,0.0,382.0,597.0,0.0,1,1251.0,1
1133,1133,0.7253454265419842,0.7,1.0,1.0,439.0,921.0,1.0,1,110.0,1
1134,1134,0.4559141010617712,0.5,0.0,0.0,399.0,931.0,0.0,1,280.0,1
1135,1135,-0.5750137828435367,-0.6,1.0,0.0,325.0,867.0,0.0,0,318.0,1
1136,1136,-0.7068551248170867,-0.7,1.0,0.0,470.0,700.0,0.0,0,350.0,1
1137,1137,0.8695078293219923,0.9,0.0,0.0,368.0,619.0,0.0,1,353.0,1
1138,1138,0.07884300681096812,0.1,1.0,1.0,405.0,700.0,1.0,1,715.0,1
1139,1139,-0.8941598460992038,-0.9,0.0,1.0,422.0,813.0,1.0,0,85.0,1
1140,1140,0.4678761581486709,0.5,1.0,1.0,335.0,754.0,1.0,1,301.0,1
1141,1141,0.2453234651533952,0.2,0.0,0.0,473.0,572.0,0.0,1,335.0,1
1142,1142,0.2834145916630181,0.3,1.0,1.0,367.0,786.0,1.0,1,327.0,1
1143,1143,0.8177507656862192,0.8,0.0,0.0,299.0,528.0,0.0,1,253.0,1
1144,1144,0.3641928587883262,0.4,0.0,0.0,462.0,687.0,0.0,1,461.0,1
1145,1145,0.6219490229492816,0.6,0.0,0.0,346.0,765.0,0.0,1,289.0,1
1146,1146,0.2625229582727221,0.3,1.0,1.0,477.0,948.0,1.0,1,225.0,1
1147,1147,0.08365509213902544,0.1,0.0,0.0,291.0,780.0,0.0,1,1419.0,1
1148,1148,-0.7006598809005102,-0.7,0.0,1.0,433.0,713.0,1.0,0,104.0,1
1149,1149,-0.8340227454084118,-0.8,0.0,1.0,387.0,625.0,1.0,0,218.0,1
1150,1150,-0.31692592323573054,-0.3,0.0,1.0,335.0,800.0,1.0,0,225.0,1
1151,1151,0.10025413427349006,0.1,0.0,0.0,490.0,694.0,0.0,1,1816.0,1
1152,1152,-0.02443283073585889,-0.0,0.0,1.0,438.0,991.0,1.0,0,401.0,1
1153,1153,0.1994095542049069,0.2,0.0,0.0,274.0,521.0,0.0,1,485.0,1
1154,1154,-0.5930154263900391,-0.6,0.0,1.0,453.0,878.0,1.0,0,119.0,1
1155,1155,0.06346213737411599,0.1,0.0,0.0,296.0,978.0,0.0,1,1206.0,1
1156,1156,0.5244453601249018,0.5,1.0,1.0,274.0,835.0,1.0,1,121.0,1
1157,1157,0.04914907180963923,0.0,0.0,0.0,252.0,937.0,0.0,1,1171.0,1
1158,1158,0.450826479891968,0.5,1.0,1.0,499.0,996.0,1.0,1,125.0,1
1159,1159,0.07604875626864027,0.1,1.0,1.0,374.0,763.0,1.0,1,263.0,1
1160,1160,0.08083027455959246,0.1,1.0,1.0,330.0,979.0,1.0,1,651.0,1
1161,1161,0.858042894182972,0.9,1.0,1.0,444.0,675.0,1.0,1,181.0,1
1162,1162,0.8883030100755406,0.9,0.0,0.0,298.0,732.0,0.0,1,360.0,1
1163,1163,-0.646481135547611,-0.6,0.0,1.0,301.0,663.0,1.0,0,126.0,1
1164,1164,-0.10287235356175173,-0.1,0.0,1.0,349.0,646.0,1.0,0,835.0,1
1165,1165,-0.10453131898510826,-0.1,1.0,0.0,321.0,793.0,0.0,0,626.0,1
1166,1166,0.6398213623685215,0.6,0.0,0.0,293.0,922.0,0.0,1,175.0,1
1167,1167,-0.37644200835228203,-0.4,0.0,1.0,403.0,537.0,1.0,0,230.0,1
1168,1168,0.14889841805349457,0.1,0.0,0.0,319.0,571.0,0.0,1,630.0,1
1169,1169,-0.2796120780597431,-0.3,1.0,0.0,388.0,889.0,0.0,0,443.0,1
1170,1170,-0.6925807726704173,-0.7,0.0,1.0,281.0,882.0,1.0,0,77.0,1
1171,1171,-0.8578666371014466,-0.9,0.0,1.0,332.0,842.0,1.0,0,66.0,1
1172,1172,0.3113150742170637,0.3,1.0,1.0,407.0,762.0,1.0,1,171.0,1
1173,1173,-0.2361061894639499,-0.2,0.0,1.0,345.0,544.0,1.0,0,501.0,1
1174,1174,0.3368013493109955,0.3,1.0,1.0,364.0,675.0,1.0,1,201.0,1
1175,1175,-0.01133105245187993,-0.0,1.0,0.0,397.0,839.0,1.0,1,374.0,0
1176,1176,0.17034179957191886,0.2,1.0,1.0,379.0,730.0,1.0,1,401.0,1
1177,1177,-0.7534200087956742,-0.8,1.0,0.0,429.0,681.0,0.0,0,290.0,1
1178,1178,-0.17509990439039436,-0.2,0.0,1.0,352.0,520.0,1.0,0,608.0,1
1179,1179,0.8723430649721055,0.9,1.0,1.0,375.0,740.0,1.0,1,145.0,1
1180,1180,-0.28464620985025224,-0.3,1.0,0.0,408.0,858.0,0.0,0,434.0,1
1181,1181,0.29922492996570005,0.3,1.0,1.0,366.0,897.0,1.0,1,237.0,1
1182,1182,-0.7535386935724482,-0.8,0.0,1.0,347.0,904.0,1.0,0,119.0,1
1183,1183,0.4513838184280642,0.5,1.0,1.0,262.0,642.0,1.0,1,176.0,1
1184,1184,0.06738866842346802,0.1,0.0,0.0,386.0,650.0,0.0,1,1914.0,1
1185,1185,-0.11752535252920715,-0.1,0.0,1.0,453.0,645.0,1.0,0,742.0,1
1186,1186,-0.6344571667524674,-0.6,0.0,1.0,412.0,552.0,1.0,0,256.0,1
1187,1187,0.7296932086568874,0.7,1.0,1.0,312.0,892.0,1.0,1,166.0,1
1188,1188,-0.15586820111451338,-0.2,0.0,1.0,296.0,972.0,1.0,0,202.0,1
1189,1189,0.19532332769992078,0.2,1.0,1.0,339.0,780.0,1.0,1,291.0,1
1190,1190,-0.18452195619270684,-0.2,1.0,0.0,348.0,824.0,0.0,0,468.0,1
1191,1191,-0.4037459541610685,-0.4,1.0,0.0,376.0,684.0,0.0,0,280.0,1
1192,1192,0.19092844702124656,0.2,1.0,1.0,406.0,785.0,1.0,1,209.0,1
1193,1193,-0.06310009283295204,-0.1,0.0,1.0,350.0,594.0,1.0,0,296.0,1
1194,1194,0.4588618730872346,0.5,1.0,1.0,390.0,773.0,1.0,1,247.0,1
1195,1195,0.3232259199672399,0.3,0.0,0.0,361.0,562.0,0.0,1,217.0,1
1196,1196,-0.3069210573037461,-0.3,1.0,0.0,325.0,921.0,0.0,0,234.0,1
1197,1197,0.457565967687137,0.5,1.0,1.0,334.0,839.0,1.0,1,367.0,1
1198,1198,-0.24462994426906748,-0.2,0.0,1.0,384.0,944.0,1.0,0,172.0,1
1199,1199,-0.31578355095183197,-0.3,1.0,0.0,260.0,517.0,0.0,0,493.0,1
1200,1200,-0.839577605982999,-0.8,1.0,0.0,381.0,758.0,0.0,0,131.0,1
1201,1201,-0.2434907723772446,-0.2,0.0,1.0,386.0,728.0,1.0,0,416.0,1
1202,1202,-0.6006639394366087,-0.6,1.0,0.0,329.0,541.0,0.0,0,440.0,1
1203,1203,-0.5583937144230755,-0.6,0.0,1.0,399.0,751.0,1.0,0,190.0,1
1204,1204,0.039149121652203744,0.0,0.0,0.0,286.0,524.0,0.0,1,1990.0,1
1205,1205,-0.6841706235348333,-0.7,1.0,0.0,445.0,869.0,0.0,0,86.0,1
1206,1206,0.52972449182973,0.5,1.0,1.0,432.0,687.0,1.0,1,151.0,1
1207,1207,0.31033241053032035,0.3,0.0,0.0,433.0,937.0,0.0,1,180.0,1
1208,1208,0.8841486862676827,0.9,0.0,0.0,445.0,769.0,0.0,1,206.0,1
1209,1209,0.120817776479622,0.1,1.0,1.0,283.0,688.0,1.0,1,169.0,1
1210,1210,-0.06715346119800392,-0.1,0.0,1.0,476.0,750.0,1.0,0,804.0,1
1211,1211,0.5174399171929037,0.5,0.0,0.0,373.0,926.0,0.0,1,211.0,1
1212,1212,-0.14183116181982847,-0.1,1.0,0.0,326.0,720.0,0.0,0,774.0,1
1213,1213,-0.5553336572102201,-0.6,1.0,0.0,437.0,799.0,0.0,0,124.0,1
1214,1214,0.2436242000007357,0.2,1.0,1.0,384.0,576.0,1.0,1,460.0,1
1215,1215,0.10956844394642673,0.1,1.0,1.0,301.0,898.0,1.0,1,201.0,1
1216,1216,-0.8945390114355887,-0.9,0.0,1.0,405.0,677.0,1.0,0,138.0,1
1217,1217,-0.8342782669520757,-0.8,1.0,0.0,468.0,922.0,0.0,0,190.0,1
1218,1218,-0.20371600073661966,-0.2,0.0,1.0,409.0,916.0,1.0,0,165.0,1
1219,1219,0.19845780392205825,0.2,1.0,1.0,429.0,960.0,1.0,1,141.0,1
1220,1220,-0.6721068168144643,-0.7,1.0,0.0,410.0,839.0,0.0,0,311.0,1
1221,1221,0.030344970609550104,0.0,1.0,1.0,349.0,512.0,1.0,1,1789.0,1
1222,1222,-0.1987556739556382,-0.2,1.0,0.0,262.0,593.0,0.0,0,945.0,1
1223,1223,0.667179722716121,0.7,1.0,1.0,464.0,968.0,1.0,1,-42.0,1
1224,1224,0.054766523077206974,0.1,1.0,1.0,406.0,500.0,1.0,1,1104.0,1
1225,1225,0.5354087901677115,0.5,0.0,0.0,478.0,755.0,0.0,1,117.0,1
1226,1226,-0.7772739614491636,-0.8,1.0,0.0,430.0,635.0,0.0,0,315.0,1
1227,1227,0.8358561282750735,0.8,1.0,1.0,465.0,889.0,1.0,1,66.0,1
1228,1228,-0.17594362819943987,-0.2,0.0,1.0,300.0,827.0,1.0,0,143.0,1
1229,1229,-0.6669085115041622,-0.7,0.0,1.0,311.0,988.0,1.0,0,121.0,1
1230,1230,0.19943199366051745,0.2,1.0,1.0,324.0,810.0,1.0,1,306.0,1
1231,1231,-0.7236943747330599,-0.7,1.0,0.0,321.0,976.0,0.0,0,253.0,1
1232,1232,-0.6230909536769991,-0.6,1.0,0.0,346.0,910.0,0.0,0,194.0,1
1233,1233,-0.6485920706697383,-0.6,0.0,1.0,318.0,888.0,1.0,0,264.0,1
1234,1234,0.8868281090656852,0.9,1.0,1.0,372.0,901.0,1.0,1,187.0,1
1235,1235,-0.1830500050801659,-0.2,1.0,0.0,479.0,594.0,0.0,0,477.0,1
1236,1236,0.29300845669348774,0.3,1.0,1.0,283.0,879.0,1.0,1,208.0,1
1237,1237,0.6579971462989508,0.7,1.0,1.0,363.0,685.0,1.0,1,192.0,1
1238,1238,-0.863856628027912,-0.9,1.0,0.0,429.0,557.0,0.0,0,354.0,1
1239,1239,0.6081130642722318,0.6,1.0,1.0,390.0,765.0,1.0,1,205.0,1
1240,1240,-0.34340863564165724,-0.3,0.0,1.0,289.0,632.0,1.0,0,249.0,1
1241,1241,0.13972826474360434,0.1,0.0,0.0,316.0,762.0,0.0,1,1192.0,1
1242,1242,0.5935467795805202,0.6,1.0,1.0,436.0,920.0,1.0,1,94.0,1
1243,1243,-0.48095357813659734,-0.5,1.0,0.0,497.0,675.0,0.0,0,258.0,1
1244,1244,-0.15737202756623148,-0.2,0.0,1.0,480.0,750.0,1.0,0,180.0,1
1245,1245,-0.751332272956097,-0.8,1.0,0.0,333.0,716.0,0.0,0,321.0,1
1246,1246,-0.2784421262040174,-0.3,1.0,0.0,471.0,775.0,0.0,0,314.0,1
1247,1247,-0.8835763647122783,-0.9,1.0,0.0,344.0,665.0,0.0,0,201.0,1
1248,1248,0.7281481542214786,0.7,1.0,1.0,345.0,974.0,1.0,1,91.0,1
1249,1249,0.25721775686334525,0.3,0.0,0.0,479.0,504.0,0.0,1,627.0,1
1250,1250,-0.677207708891082,-0.7,0.0,1.0,464.0,679.0,1.0,0,197.0,1
1251,1251,-0.3753831351858731,-0.4,1.0,0.0,319.0,800.0,0.0,0,411.0,1
1252,1252,-0.8738471100553665,-0.9,0.0,1.0,405.0,897.0,1.0,0,68.0,1
1253,1253,-0.7949139933781276,-0.8,0.0,1.0,491.0,699.0,1.0,0,180.0,1
1254,1254,-0.08540019241564178,-0.1,1.0,0.0,414.0,840.0,0.0,0,786.0,1
1255,1255,-0.7494470415923556,-0.7,1.0,0.0,395.0,887.0,0.0,0,188.0,1
1256,1256,-0.23346016007371495,-0.2,1.0,0.0,334.0,955.0,0.0,0,351.0,1
1257,1257,-0.8542209853983384,-0.9,1.0,0.0,374.0,721.0,0.0,0,305.0,1
1258,1258,0.8580197393909496,0.9,0.0,0.0,297.0,861.0,0.0,1,172.0,1
1259,1259,-0.1845348533828639,-0.2,0.0,1.0,390.0,863.0,1.0,0,447.0,1
1260,1260,-0.05060513748868922,-0.1,0.0,1.0,469.0,539.0,1.0,0,862.0,1
1261,1261,0.341579375908445,0.3,1.0,1.0,460.0,553.0,1.0,1,267.0,1
1262,1262,0.4380686764894871,0.4,0.0,0.0,464.0,584.0,0.0,1,592.0,1
1263,1263,0.060435178165572756,0.1,1.0,1.0,306.0,905.0,1.0,1,1209.0,1
1264,1264,-0.13876370359730106,-0.1,1.0,0.0,352.0,646.0,0.0,0,822.0,1
1265,1265,0.36879100010829846,0.4,1.0,1.0,463.0,742.0,1.0,1,175.0,1
1266,1266,0.18922710901067485,0.2,0.0,0.0,386.0,896.0,0.0,1,168.0,1
1267,1267,-0.876349025183788,-0.9,0.0,1.0,426.0,691.0,1.0,0,73.0,1
1268,1268,-0.5122487420521497,-0.5,0.0,1.0,269.0,548.0,1.0,0,213.0,1
1269,1269,-0.8185160420469625,-0.8,0.0,1.0,287.0,716.0,1.0,0,207.0,1
1270,1270,-0.6794067596650382,-0.7,0.0,1.0,420.0,893.0,1.0,0,247.0,1
1271,1271,-0.22598522169444424,-0.2,0.0,1.0,337.0,841.0,1.0,0,202.0,1
1272,1272,0.8265185075234328,0.8,1.0,1.0,256.0,869.0,1.0,1,125.0,1
1273,1273,0.5158502140798903,0.5,0.0,0.0,257.0,518.0,0.0,1,305.0,1
1274,1274,-0.6673566065552199,-0.7,1.0,0.0,265.0,825.0,0.0,0,220.0,1
1275,1275,-0.8950568632406819,-0.9,0.0,1.0,478.0,803.0,1.0,0,159.0,1
1276,1276,-0.8545378159774447,-0.9,1.0,0.0,257.0,811.0,0.0,0,352.0,1
1277,1277,0.20728278904281827,0.2,0.0,0.0,263.0,783.0,0.0,1,494.0,1
1278,1278,-0.7360095458081415,-0.7,1.0,0.0,499.0,661.0,0.0,0,280.0,1
1279,1279,0.5995190306721349,0.6,1.0,1.0,396.0,545.0,1.0,1,159.0,1
1280,1280,0.7296010217747885,0.7,0.0,0.0,475.0,826.0,0.0,1,109.0,1
1281,1281,-0.5880715541971413,-0.6,1.0,0.0,286.0,572.0,0.0,0,352.0,1
1282,1282,-0.7730813197946558,-0.8,1.0,0.0,355.0,736.0,0.0,0,179.0,1
1283,1283,0.11208611033453486,0.1,0.0,0.0,315.0,674.0,0.0,1,781.0,1
1284,1284,-0.3367337254502496,-0.3,1.0,0.0,483.0,854.0,0.0,0,203.0,1
1285,1285,0.0667994722061711,0.1,1.0,1.0,349.0,605.0,1.0,1,696.0,1
1286,1286,0.4194112699863438,0.4,1.0,1.0,307.0,812.0,1.0,1,71.0,1
1287,1287,0.6803190969621445,0.7,1.0,1.0,335.0,907.0,1.0,1,108.0,1
1288,1288,0.0221654957075208,0.0,0.0,0.0,283.0,702.0,0.0,1,765.0,1
1289,1289,-0.5311923939031211,-0.5,0.0,1.0,425.0,506.0,1.0,0,419.0,1
1290,1290,0.08588750150760993,0.1,1.0,1.0,316.0,985.0,1.0,1,159.0,1
1291,1291,-0.7113566334533313,-0.7,0.0,1.0,475.0,733.0,1.0,0,152.0,1
1292,1292,0.29694557897942075,0.3,1.0,1.0,473.0,556.0,1.0,1,281.0,1
1293,1293,-0.16334503113682486,-0.2,1.0,0.0,437.0,656.0,0.0,0,337.0,1
1294,1294,-0.8391304388841739,-0.8,1.0,0.0,380.0,788.0,0.0,0,162.0,1
1295,1295,-0.3801100978917754,-0.4,1.0,0.0,423.0,731.0,0.0,0,276.0,1
1296,1296,-0.3682536717252328,-0.4,0.0,1.0,475.0,710.0,1.0,0,215.0,1
1297,1297,-0.022424116719689358,-0.0,1.0,0.0,290.0,769.0,0.0,0,1811.0,1
1298,1298,0.15339829401940108,0.2,0.0,0.0,251.0,940.0,0.0,1,489.0,1
1299,1299,-0.13329523491737072,-0.1,1.0,0.0,405.0,867.0,0.0,0,208.0,1
1300,1300,-0.3785330882430745,-0.4,0.0,1.0,408.0,694.0,1.0,0,378.0,1
1301,1301,0.3971628599076741,0.4,1.0,1.0,447.0,639.0,1.0,1,244.0,1
1302,1302,0.5959167063328016,0.6,0.0,0.0,270.0,803.0,0.0,1,357.0,1
1303,1303,0.3383012992208171,0.3,1.0,1.0,469.0,864.0,1.0,1,307.0,1
1304,1304,-0.8309015460351153,-0.8,1.0,0.0,264.0,745.0,0.0,0,351.0,1
1305,1305,0.1260708671446379,0.1,1.0,1.0,435.0,679.0,1.0,1,276.0,1
1306,1306,-0.7716590080777366,-0.8,1.0,0.0,462.0,911.0,0.0,0,57.0,1
1307,1307,-0.2536149964158758,-0.3,1.0,0.0,253.0,798.0,0.0,0,299.0,1
1308,1308,-0.3293625395059212,-0.3,1.0,0.0,320.0,762.0,0.0,0,308.0,1
1309,1309,-0.8181416500776013,-0.8,1.0,0.0,283.0,850.0,0.0,0,207.0,1
1310,1310,0.23442126626073112,0.2,0.0,0.0,495.0,666.0,0.0,1,129.0,1
1311,1311,0.6030293185300503,0.6,1.0,1.0,432.0,756.0,1.0,1,142.0,1
1312,1312,0.7155337938430762,0.7,1.0,1.0,425.0,620.0,1.0,1,255.0,1
1313,1313,0.8399099793475285,0.8,0.0,0.0,252.0,830.0,0.0,1,248.0,1
1314,1314,0.7486099677874495,0.7,1.0,1.0,353.0,554.0,1.0,1,233.0,1
1315,1315,0.42824952954452067,0.4,1.0,1.0,286.0,849.0,1.0,1,275.0,1
1316,1316,-0.3272855222444361,-0.3,0.0,1.0,430.0,620.0,1.0,0,60.0,1
1317,1317,-0.36836947454418356,-0.4,1.0,0.0,495.0,664.0,0.0,0,551.0,1
1318,1318,-0.052134982839531,-0.1,0.0,1.0,485.0,656.0,1.0,0,839.0,1
1319,1319,-0.4161410594558005,-0.4,1.0,0.0,452.0,977.0,0.0,0,191.0,1
1320,1320,0.2418994052302933,0.2,1.0,1.0,462.0,543.0,1.0,1,265.0,1
1321,1321,0.5546492884460817,0.6,0.0,0.0,362.0,923.0,0.0,1,105.0,1
1322,1322,-0.13227206237125044,-0.1,1.0,0.0,368.0,987.0,0.0,0,715.0,1
1323,1323,-0.08742771835436436,-0.1,1.0,0.0,446.0,620.0,0.0,0,1934.0,1
1324,1324,0.23706864193515986,0.2,0.0,0.0,360.0,982.0,0.0,1,288.0,1
1325,1325,-0.4083357578298803,-0.4,1.0,0.0,297.0,977.0,0.0,0,326.0,1
1326,1326,-0.5811189613371899,-0.6,1.0,0.0,305.0,610.0,0.0,0,235.0,1
1327,1327,-0.7579829291988599,-0.8,0.0,1.0,457.0,541.0,1.0,0,262.0,1
1328,1328,0.7394106318543029,0.7,1.0,1.0,496.0,521.0,1.0,1,193.0,1
1329,1329,0.4127988783750044,0.4,1.0,1.0,372.0,842.0,1.0,1,146.0,1
1330,1330,-0.2861115668049269,-0.3,0.0,1.0,415.0,768.0,1.0,0,257.0,1
1331,1331,0.05699701195988638,0.1,1.0,1.0,385.0,527.0,1.0,1,508.0,1
1332,1332,-0.8886168358579595,-0.9,1.0,0.0,379.0,970.0,0.0,0,71.0,1
1333,1333,0.7517879607817975,0.8,1.0,1.0,288.0,644.0,1.0,1,138.0,1
1334,1334,-0.30083991421834366,-0.3,1.0,0.0,403.0,820.0,0.0,0,367.0,1
1335,1335,-0.3450623616659042,-0.3,1.0,0.0,429.0,862.0,0.0,0,149.0,1
1336,1336,0.8116325894171882,0.8,1.0,1.0,439.0,656.0,1.0,1,295.0,1
1337,1337,-0.264298322578995,-0.3,1.0,0.0,382.0,586.0,0.0,0,542.0,1
1338,1338,0.4536135124425339,0.5,1.0,1.0,291.0,923.0,1.0,1,196.0,1
1339,1339,-0.8438033930819164,-0.8,0.0,1.0,390.0,897.0,1.0,0,93.0,1
1340,1340,-0.24994966287372733,-0.2,0.0,1.0,434.0,771.0,1.0,0,285.0,1
1341,1341,-0.24344494584801846,-0.2,0.0,1.0,405.0,871.0,1.0,0,274.0,1
1342,1342,0.2002840791221051,0.2,0.0,0.0,452.0,509.0,0.0,1,869.0,1
1343,1343,0.2908312301800581,0.3,1.0,1.0,479.0,887.0,1.0,1,364.0,1
1344,1344,0.08763239486631835,0.1,1.0,1.0,413.0,915.0,1.0,1,392.0,1
1345,1345,0.3400763150786298,0.3,0.0,0.0,336.0,793.0,0.0,1,351.0,1
1346,1346,0.6805776716873578,0.7,1.0,1.0,359.0,790.0,1.0,1,161.0,1
1347,1347,0.8190123667704122,0.8,1.0,1.0,430.0,523.0,1.0,1,187.0,1
1348,1348,-0.8552246924998849,-0.9,1.0,0.0,318.0,773.0,0.0,0,359.0,1
1349,1349,0.32542604633896566,0.3,0.0,0.0,294.0,645.0,0.0,1,331.0,1
1350,1350,0.30568326737189533,0.3,0.0,0.0,466.0,738.0,0.0,1,366.0,1
1351,1351,0.4594159597904367,0.5,1.0,1.0,252.0,923.0,1.0,1,165.0,1
1352,1352,-0.495754371231161,-0.5,0.0,1.0,386.0,673.0,1.0,0,161.0,1
1353,1353,0.6861669335357149,0.7,0.0,0.0,489.0,520.0,0.0,1,401.0,1
1354,1354,-0.3874631688482534,-0.4,1.0,0.0,492.0,578.0,0.0,0,300.0,1
1355,1355,0.48279979698589803,0.5,1.0,1.0,401.0,812.0,1.0,1,187.0,1
1356,1356,-0.7355807666368435,-0.7,0.0,1.0,470.0,749.0,1.0,0,71.0,1
1357,1357,0.27369775110950945,0.3,0.0,0.0,433.0,975.0,0.0,1,232.0,1
1358,1358,-0.5523751908964635,-0.6,1.0,0.0,486.0,796.0,0.0,0,108.0,1
1359,1359,-0.17468759641247755,-0.2,0.0,1.0,430.0,685.0,1.0,0,285.0,1
1360,1360,0.24819262200779912,0.2,1.0,1.0,496.0,826.0,1.0,1,408.0,1
1361,1361,0.5803492664221733,0.6,1.0,1.0,251.0,930.0,1.0,1,129.0,1
1362,1362,0.13641464929709757,0.1,1.0,1.0,414.0,787.0,1.0,1,399.0,1
1363,1363,0.10804612687745319,0.1,1.0,1.0,273.0,892.0,1.0,1,325.0,1
1364,1364,0.547195881504939,0.5,0.0,0.0,352.0,999.0,0.0,1,149.0,1
1365,1365,-0.32412760787864536,-0.3,1.0,0.0,271.0,749.0,0.0,0,290.0,1
1366,1366,0.18080651136212256,0.2,1.0,1.0,471.0,500.0,1.0,1,509.0,1
1367,1367,-0.476494565479674,-0.5,0.0,1.0,479.0,946.0,1.0,0,105.0,1
1368,1368,0.42939279520052376,0.4,0.0,0.0,444.0,535.0,0.0,1,471.0,1
1369,1369,0.3765272326913943,0.4,0.0,0.0,400.0,757.0,0.0,1,203.0,1
1370,1370,-0.27577728441253546,-0.3,1.0,0.0,311.0,603.0,0.0,0,636.0,1
1371,1371,-0.4068521476935623,-0.4,0.0,1.0,456.0,507.0,1.0,0,507.0,1
1372,1372,0.15419177636564652,0.2,0.0,0.0,296.0,921.0,0.0,1,273.0,1
1373,1373,0.8781700047046451,0.9,0.0,0.0,338.0,993.0,0.0,1,159.0,1
1374,1374,0.3476064774289148,0.3,1.0,1.0,418.0,612.0,1.0,1,250.0,1
1375,1375,-0.06734007127773578,-0.1,0.0,1.0,411.0,743.0,1.0,0,266.0,1
1376,1376,-0.4806819133712524,-0.5,1.0,0.0,312.0,689.0,0.0,0,499.0,1
1377,1377,-0.29610622378448737,-0.3,0.0,1.0,272.0,541.0,1.0,0,367.0,1
1378,1378,0.17347063435601762,0.2,0.0,0.0,358.0,762.0,0.0,1,720.0,1
1379,1379,-0.7055969587127706,-0.7,1.0,0.0,486.0,516.0,0.0,0,228.0,1
1380,1380,0.5541039264443021,0.6,0.0,0.0,270.0,897.0,0.0,1,223.0,1
1381,1381,-0.8118861741863265,-0.8,0.0,1.0,347.0,936.0,1.0,0,157.0,1
1382,1382,-0.6970652300754022,-0.7,1.0,0.0,422.0,652.0,0.0,0,266.0,1
1383,1383,0.762781317805055,0.8,1.0,1.0,298.0,792.0,1.0,1,220.0,1
1384,1384,0.5014024518507462,0.5,0.0,0.0,422.0,652.0,0.0,1,286.0,1
1385,1385,0.016651771449751607,0.0,0.0,0.0,462.0,624.0,1.0,0,1914.0,0
1386,1386,0.06044123986870875,0.1,0.0,0.0,263.0,664.0,0.0,1,633.0,1
1387,1387,0.43502431321776613,0.4,1.0,1.0,460.0,585.0,1.0,1,285.0,1
1388,1388,-0.6197790918476875,-0.6,1.0,0.0,311.0,668.0,0.0,0,311.0,1
1389,1389,-0.6446381260621059,-0.6,1.0,0.0,460.0,967.0,0.0,0,253.0,1
1390,1390,0.6483508169124624,0.6,0.0,0.0,387.0,553.0,0.0,1,230.0,1
1391,1391,-0.763155968358478,-0.8,0.0,1.0,323.0,561.0,1.0,0,196.0,1
1392,1392,-0.24025303617087634,-0.2,0.0,1.0,491.0,804.0,1.0,0,255.0,1
1393,1393,0.14679510259398032,0.1,1.0,1.0,483.0,828.0,1.0,1,179.0,1
1394,1394,0.8799445306888215,0.9,0.0,0.0,444.0,670.0,0.0,1,296.0,1
1395,1395,-0.4673362518097873,-0.5,0.0,1.0,263.0,600.0,1.0,0,407.0,1
1396,1396,0.14425715652892135,0.1,0.0,0.0,443.0,879.0,0.0,1,398.0,1
1397,1397,0.10438861643851716,0.1,0.0,0.0,359.0,774.0,0.0,1,867.0,1
1398,1398,0.6289325256466795,0.6,0.0,0.0,448.0,971.0,0.0,1,191.0,1
1399,1399,0.7676576802318614,0.8,1.0,1.0,469.0,591.0,1.0,1,240.0,1
1400,1400,0.26473846068038387,0.3,1.0,1.0,363.0,761.0,1.0,1,416.0,1
1401,1401,-0.07260934877733183,-0.1,0.0,1.0,376.0,615.0,1.0,0,429.0,1
1402,1402,0.328264373555322,0.3,0.0,0.0,451.0,570.0,0.0,1,629.0,1
1403,1403,0.5556284823790271,0.6,1.0,1.0,474.0,557.0,1.0,1,219.0,1
1404,1404,-0.8178647189469587,-0.8,0.0,1.0,474.0,641.0,1.0,0,185.0,1
1405,1405,0.24813179659212958,0.2,0.0,0.0,434.0,701.0,0.0,1,355.0,1
1406,1406,0.3898245742153653,0.4,0.0,0.0,340.0,754.0,0.0,1,326.0,1
1407,1407,0.6022957740717648,0.6,1.0,1.0,346.0,999.0,1.0,1,55.0,1
1408,1408,0.21311890756617669,0.2,0.0,0.0,414.0,948.0,0.0,1,358.0,1
1409,1409,-0.6779879633806225,-0.7,1.0,0.0,395.0,529.0,0.0,0,306.0,1
1410,1410,-0.17414953869518623,-0.2,0.0,1.0,402.0,951.0,1.0,0,287.0,1
1411,1411,-0.2738627339853352,-0.3,1.0,0.0,299.0,727.0,0.0,0,554.0,1
1412,1412,-0.48393184407655493,-0.5,1.0,0.0,379.0,732.0,0.0,0,229.0,1
1413,1413,0.7010576385858397,0.7,0.0,0.0,451.0,817.0,0.0,1,152.0,1
1414,1414,-0.7453192827450287,-0.7,1.0,0.0,397.0,651.0,0.0,0,282.0,1
1415,1415,0.4691639882593589,0.5,1.0,1.0,460.0,944.0,1.0,1,136.0,1
1416,1416,0.6415779686819264,0.6,1.0,1.0,460.0,801.0,1.0,1,169.0,1
1417,1417,-0.7440028040486703,-0.7,1.0,0.0,331.0,814.0,0.0,0,305.0,1
1418,1418,0.734197128243569,0.7,0.0,0.0,378.0,848.0,0.0,1,104.0,1
1419,1419,-0.07440859257936061,-0.1,0.0,1.0,478.0,696.0,1.0,0,686.0,1
1420,1420,-0.2502957099773577,-0.3,1.0,0.0,285.0,915.0,0.0,0,370.0,1
1421,1421,-0.4610846795304334,-0.5,1.0,0.0,496.0,626.0,0.0,0,468.0,1
1422,1422,0.648732709348565,0.6,0.0,0.0,362.0,699.0,0.0,1,169.0,1
1423,1423,0.3535437355702805,0.4,1.0,1.0,377.0,704.0,1.0,1,219.0,1
1424,1424,0.792886204389979,0.8,0.0,0.0,264.0,770.0,0.0,1,186.0,1
1425,1425,-0.21332834225824937,-0.2,0.0,1.0,360.0,543.0,1.0,0,447.0,1
1426,1426,-0.42368715267145535,-0.4,0.0,1.0,423.0,630.0,1.0,0,227.0,1
1427,1427,-0.8163439153686233,-0.8,0.0,1.0,309.0,750.0,1.0,0,81.0,1
1428,1428,-0.058306083503688044,-0.1,0.0,1.0,370.0,893.0,1.0,0,547.0,1
1429,1429,-0.2812405265884993,-0.3,0.0,1.0,469.0,568.0,1.0,0,253.0,1
1430,1430,-0.16794009787173225,-0.2,1.0,0.0,317.0,636.0,0.0,0,717.0,1
1431,1431,-0.16491047547617244,-0.2,1.0,0.0,426.0,817.0,0.0,0,557.0,1
1432,1432,-0.5167373393228212,-0.5,1.0,0.0,289.0,686.0,0.0,0,245.0,1
1433,1433,-0.09488343000056843,-0.1,1.0,0.0,495.0,961.0,0.0,0,314.0,1
1434,1434,-0.08335624508113748,-0.1,0.0,1.0,492.0,773.0,1.0,0,865.0,1
1435,1435,-0.6542763189822918,-0.7,1.0,0.0,389.0,508.0,0.0,0,553.0,1
1436,1436,0.8534682755937516,0.9,1.0,1.0,251.0,547.0,1.0,1,172.0,1
1437,1437,-0.8918034397240978,-0.9,1.0,0.0,467.0,635.0,0.0,0,388.0,1
1438,1438,0.6525692912065967,0.7,1.0,1.0,492.0,775.0,1.0,1,173.0,1
1439,1439,0.29320666908374193,0.3,0.0,0.0,323.0,949.0,0.0,1,298.0,1
1440,1440,-0.7927504069555071,-0.8,0.0,1.0,336.0,574.0,1.0,0,190.0,1
1441,1441,0.16846524350297776,0.2,0.0,0.0,458.0,831.0,0.0,1,621.0,1
1442,1442,0.2238395061887709,0.2,0.0,0.0,400.0,951.0,0.0,1,429.0,1
1443,1443,-0.7027287356506802,-0.7,0.0,1.0,268.0,922.0,1.0,0,210.0,1
1444,1444,0.34061252119432306,0.3,1.0,1.0,295.0,538.0,1.0,1,167.0,1
1445,1445,-0.781609155950146,-0.8,0.0,1.0,404.0,766.0,1.0,0,170.0,1
1446,1446,0.5963091194597953,0.6,1.0,1.0,364.0,986.0,1.0,1,220.0,1
1447,1447,-0.8350538246681898,-0.8,1.0,0.0,435.0,940.0,0.0,0,355.0,1
1448,1448,-0.14769492404253926,-0.1,0.0,1.0,475.0,650.0,1.0,0,235.0,1
1449,1449,-0.6243510408834587,-0.6,1.0,0.0,259.0,504.0,0.0,0,307.0,1
1450,1450,-0.6726857514761693,-0.7,1.0,0.0,399.0,740.0,0.0,0,491.0,1
1451,1451,-0.22201477579808904,-0.2,1.0,0.0,398.0,886.0,0.0,0,306.0,1
1452,1452,0.08100348463616247,0.1,1.0,1.0,497.0,675.0,1.0,1,728.0,1
1453,1453,0.5478236679018021,0.5,1.0,1.0,426.0,596.0,1.0,1,288.0,1
1454,1454,-0.22424221674541,-0.2,0.0,1.0,454.0,525.0,1.0,0,331.0,1
1455,1455,0.5949141420434149,0.6,0.0,0.0,458.0,716.0,0.0,1,346.0,1
1456,1456,0.3269701961702195,0.3,0.0,0.0,274.0,846.0,0.0,1,160.0,1
1457,1457,0.7434141182082094,0.7,0.0,0.0,425.0,550.0,0.0,1,335.0,1
1458,1458,0.6872982791892722,0.7,1.0,1.0,331.0,926.0,1.0,1,143.0,1
1459,1459,-0.06633750123530402,-0.1,0.0,1.0,391.0,995.0,1.0,0,474.0,1
1460,1460,0.29351376714848876,0.3,0.0,0.0,482.0,830.0,0.0,1,398.0,1
1461,1461,0.7719562801107219,0.8,0.0,0.0,434.0,607.0,0.0,1,109.0,1
1462,1462,-0.8507028638841199,-0.9,0.0,1.0,416.0,706.0,1.0,0,128.0,1
1463,1463,0.6911334149855052,0.7,1.0,1.0,380.0,595.0,1.0,1,355.0,1
1464,1464,-0.7793320959708553,-0.8,0.0,1.0,302.0,542.0,1.0,0,166.0,1
1465,1465,-0.7205625159313311,-0.7,0.0,1.0,363.0,942.0,1.0,0,145.0,1
1466,1466,0.5809376002764065,0.6,1.0,1.0,446.0,867.0,1.0,1,197.0,1
1467,1467,0.3703099141307006,0.4,1.0,1.0,446.0,673.0,1.0,1,141.0,1
1468,1468,-0.015369155714884175,-0.0,0.0,1.0,328.0,835.0,1.0,0,1247.0,1
1469,1469,0.3221564673514147,0.3,0.0,0.0,327.0,921.0,0.0,1,242.0,1
1470,1470,-0.45236157170569985,-0.5,0.0,1.0,480.0,501.0,1.0,0,349.0,1
1471,1471,-0.2591753322764424,-0.3,0.0,1.0,284.0,564.0,1.0,0,462.0,1
1472,1472,-0.0896414722798462,-0.1,0.0,1.0,358.0,871.0,1.0,0,211.0,1
1473,1473,-0.6997746567234429,-0.7,1.0,0.0,466.0,587.0,0.0,0,247.0,1
1474,1474,-0.46765923234262713,-0.5,1.0,0.0,290.0,994.0,0.0,0,236.0,1
1475,1475,0.7729270388636366,0.8,1.0,1.0,304.0,972.0,1.0,1,64.0,1
1476,1476,-0.24376341406491475,-0.2,1.0,0.0,265.0,958.0,0.0,0,387.0,1
1477,1477,0.778806261131379,0.8,1.0,1.0,275.0,970.0,1.0,1,65.0,1
1478,1478,-0.7276038024978339,-0.7,1.0,0.0,284.0,827.0,0.0,0,349.0,1
1479,1479,-0.6733362832124548,-0.7,1.0,0.0,300.0,788.0,0.0,0,152.0,1
1480,1480,-0.2257793777423679,-0.2,1.0,0.0,450.0,636.0,0.0,0,694.0,1
1481,1481,-0.4257252252370996,-0.4,1.0,0.0,380.0,522.0,0.0,0,358.0,1
1482,1482,0.22629634966267276,0.2,0.0,0.0,359.0,870.0,0.0,1,511.0,1
1483,1483,-0.3184049217827649,-0.3,1.0,0.0,325.0,646.0,0.0,0,299.0,1
1484,1484,0.07638214914484764,0.1,0.0,0.0,283.0,927.0,0.0,1,1340.0,1
1485,1485,-0.08201076300376509,-0.1,0.0,1.0,453.0,862.0,1.0,0,325.0,1
1486,1486,0.730176076549608,0.7,0.0,0.0,472.0,764.0,0.0,1,124.0,1
1487,1487,0.8628428852630966,0.9,0.0,0.0,334.0,839.0,0.0,1,127.0,1
1488,1488,-0.7916295008667106,-0.8,0.0,1.0,252.0,612.0,1.0,0,236.0,1
1489,1489,-0.12429707957794633,-0.1,1.0,0.0,395.0,537.0,0.0,0,1178.0,1
1490,1490,0.573041876266288,0.6,1.0,1.0,445.0,914.0,1.0,1,131.0,1
1491,1491,0.4532668576320872,0.5,1.0,1.0,370.0,609.0,1.0,1,181.0,1
1492,1492,0.7475298360034787,0.7,0.0,0.0,396.0,842.0,0.0,1,182.0,1
1493,1493,-0.47217198815969624,-0.5,0.0,1.0,463.0,835.0,1.0,0,162.0,1
