,trial,coherence,coherence_bin,green_side,correct_side,target_onset,checker_onset,decision,green_decision,decision_time,correct_decision
0,0,-0.7783755944054402,-0.8,0.0,1.0,325.0,928.0,1.0,0,157.0,1
1,1,0.7682537894031639,0.8,1.0,1.0,410.0,922.0,1.0,1,288.0,1
2,2,0.2082409790747567,0.2,0.0,0.0,283.0,670.0,0.0,1,207.0,1
3,3,-0.8769169478644134,-0.9,1.0,0.0,284.0,530.0,0.0,0,406.0,1
4,4,0.24465687481482956,0.2,1.0,1.0,481.0,531.0,1.0,1,148.0,1
5,5,-0.12137417131289341,-0.1,0.0,1.0,299.0,559.0,1.0,0,862.0,1
6,6,0.4383212401716473,0.4,0.0,0.0,285.0,523.0,1.0,0,92.0,0
7,7,0.42473150605232035,0.4,0.0,0.0,300.0,887.0,1.0,0,-197.0,0
8,8,0.20090826718406773,0.2,0.0,0.0,480.0,991.0,0.0,1,619.0,1
9,9,-0.5287810568350539,-0.5,1.0,0.0,295.0,733.0,0.0,0,262.0,1
10,10,-0.6225755190799398,-0.6,0.0,1.0,474.0,682.0,1.0,0,304.0,1
11,11,0.2757516984394476,0.3,1.0,1.0,493.0,641.0,0.0,0,106.0,0
12,12,0.7994532931208277,0.8,0.0,0.0,348.0,816.0,0.0,1,56.0,1
13,13,0.25865519245832413,0.3,1.0,1.0,270.0,739.0,1.0,1,971.0,1
14,14,-0.697152794846231,-0.7,1.0,0.0,259.0,759.0,1.0,1,-128.0,0
15,15,-0.45303122213850167,-0.5,1.0,0.0,340.0,885.0,1.0,1,-245.0,0
16,16,0.4057169094057188,0.4,0.0,0.0,317.0,977.0,0.0,1,306.0,1
17,17,-0.023388989868664778,-0.0,1.0,0.0,440.0,749.0,1.0,1,141.0,0
18,18,-0.05708595584255116,-0.1,1.0,0.0,298.0,938.0,0.0,0,2644.0,1
19,19,0.25675647543288316,0.3,1.0,1.0,333.0,683.0,1.0,1,434.0,1
20,20,-0.40041539235234413,-0.4,0.0,1.0,351.0,916.0,1.0,0,-217.0,1
21,21,0.03861380708336193,0.0,1.0,1.0,454.0,649.0,0.0,0,-293.0,0
22,22,0.6164565582652975,0.6,1.0,1.0,403.0,883.0,1.0,1,264.0,1
23,23,0.7023333687272341,0.7,0.0,0.0,472.0,959.0,0.0,1,239.0,1
24,24,-0.6358381742944381,-0.6,1.0,0.0,435.0,834.0,1.0,1,-489.0,0
25,25,0.6528085174990464,0.7,0.0,0.0,466.0,538.0,0.0,1,346.0,1
26,26,-0.6587440043968116,-0.7,0.0,1.0,307.0,650.0,1.0,0,133.0,1
27,27,0.5933885503426416,0.6,1.0,1.0,382.0,955.0,0.0,0,-117.0,0
28,28,0.541827518671156,0.5,1.0,1.0,352.0,575.0,1.0,1,153.0,1
29,29,-0.06472872517479078,-0.1,0.0,1.0,455.0,767.0,1.0,0,718.0,1
30,30,-0.3647343005862309,-0.4,1.0,0.0,392.0,670.0,0.0,0,348.0,1
31,31,0.7948167080793892,0.8,0.0,0.0,322.0,877.0,0.0,1,181.0,1
32,32,0.36323792601573424,0.4,0.0,0.0,354.0,602.0,1.0,0,-56.0,0
33,33,-0.29863567650817646,-0.3,0.0,1.0,266.0,779.0,1.0,0,-25.0,1
34,34,0.6369780709912324,0.6,0.0,0.0,342.0,739.0,0.0,1,199.0,1
35,35,0.8660012111298768,0.9,0.0,0.0,476.0,752.0,0.0,1,432.0,1
36,36,0.4653444250914244,0.5,1.0,1.0,496.0,626.0,1.0,1,338.0,1
37,37,-0.2419075337987714,-0.2,0.0,1.0,473.0,980.0,1.0,0,117.0,1
38,38,0.1982110673352483,0.2,0.0,0.0,451.0,961.0,0.0,1,68.0,1
39,39,-0.6811746262112074,-0.7,0.0,1.0,310.0,955.0,1.0,0,105.0,1
40,40,0.16946436469273596,0.2,0.0,0.0,446.0,820.0,1.0,0,-26.0,0
41,41,-0.34800994857679557,-0.3,0.0,1.0,358.0,559.0,1.0,0,113.0,1
42,42,-0.30359972576894645,-0.3,0.0,1.0,359.0,502.0,1.0,0,179.0,1
43,43,-0.016692584251879472,-0.0,0.0,1.0,422.0,723.0,1.0,0,275.0,1
44,44,-0.8088267548085905,-0.8,0.0,1.0,401.0,589.0,1.0,0,60.0,1
45,45,-0.421114447223291,-0.4,1.0,0.0,324.0,712.0,0.0,0,294.0,1
46,46,-0.5533055997557905,-0.6,0.0,1.0,400.0,574.0,1.0,0,216.0,1
47,47,-0.7372084759113134,-0.7,1.0,0.0,254.0,588.0,1.0,1,-182.0,0
48,48,-0.6523717845482961,-0.7,0.0,1.0,266.0,842.0,0.0,1,-518.0,0
49,49,-0.5313377797585382,-0.5,1.0,0.0,313.0,598.0,0.0,0,169.0,1
50,50,-0.2654332205820191,-0.3,0.0,1.0,428.0,909.0,1.0,0,143.0,1
51,51,-0.6774187563827503,-0.7,1.0,0.0,355.0,974.0,0.0,0,-39.0,1
52,52,-0.15442003621946232,-0.2,0.0,1.0,443.0,841.0,1.0,0,146.0,1
53,53,-0.1498410137955939,-0.1,1.0,0.0,465.0,932.0,0.0,0,443.0,1
54,54,0.2128685430795879,0.2,1.0,1.0,267.0,594.0,1.0,1,339.0,1
55,55,-0.2304081079719279,-0.2,0.0,1.0,344.0,768.0,1.0,0,888.0,1
56,56,-0.6770841011443836,-0.7,0.0,1.0,409.0,936.0,1.0,0,95.0,1
57,57,0.3202807858736988,0.3,1.0,1.0,456.0,663.0,1.0,1,181.0,1
58,58,0.5028774725314916,0.5,0.0,0.0,361.0,777.0,1.0,0,-278.0,0
59,59,-0.368776697790856,-0.4,1.0,0.0,310.0,990.0,0.0,0,-570.0,1
60,60,-0.46009083618956237,-0.5,1.0,0.0,408.0,743.0,0.0,0,219.0,1
61,61,0.3534578680637531,0.4,1.0,1.0,330.0,634.0,1.0,1,156.0,1
62,62,-0.5509716582128119,-0.6,0.0,1.0,470.0,814.0,1.0,0,296.0,1
63,63,-0.2834311507660652,-0.3,1.0,0.0,419.0,665.0,0.0,0,-44.0,1
64,64,0.10724893282005177,0.1,0.0,0.0,341.0,849.0,1.0,0,-290.0,0
65,65,0.4774365390879366,0.5,0.0,0.0,270.0,893.0,0.0,1,-213.0,1
66,66,-0.6610337701178974,-0.7,0.0,1.0,384.0,968.0,1.0,0,-202.0,1
67,67,0.3447089236997648,0.3,0.0,0.0,411.0,600.0,0.0,1,259.0,1
68,68,-0.04513758877233465,-0.0,0.0,1.0,392.0,934.0,1.0,0,64.0,1
69,69,-0.3058802745163973,-0.3,1.0,0.0,371.0,559.0,0.0,0,1250.0,1
70,70,0.566259531393808,0.6,0.0,0.0,255.0,517.0,0.0,1,258.0,1
71,71,-0.8327522943640281,-0.8,0.0,1.0,462.0,965.0,1.0,0,-357.0,1
72,72,-0.31567624354772506,-0.3,0.0,1.0,351.0,689.0,1.0,0,470.0,1
73,73,-0.24000762720542834,-0.2,1.0,0.0,361.0,858.0,0.0,0,191.0,1
74,74,-0.2904688523602398,-0.3,0.0,1.0,310.0,653.0,1.0,0,827.0,1
75,75,0.5294578706000802,0.5,1.0,1.0,470.0,732.0,1.0,1,-202.0,1
76,76,-0.11662189120781141,-0.1,0.0,1.0,380.0,675.0,1.0,0,705.0,1
77,77,-0.851985465238111,-0.9,0.0,1.0,477.0,792.0,1.0,0,-349.0,1
78,78,0.14131111565979915,0.1,1.0,1.0,316.0,781.0,1.0,1,283.0,1
79,79,-0.07768539122142204,-0.1,1.0,0.0,484.0,739.0,0.0,0,1967.0,1
80,80,-0.5406815213662919,-0.5,0.0,1.0,287.0,780.0,1.0,0,83.0,1
81,81,-0.08685439509763226,-0.1,1.0,0.0,363.0,757.0,1.0,1,870.0,0
82,82,0.2624021495271517,0.3,0.0,0.0,272.0,516.0,0.0,1,802.0,1
83,83,0.5358860295928979,0.5,0.0,0.0,449.0,621.0,0.0,1,290.0,1
84,84,0.8300267854894213,0.8,0.0,0.0,277.0,742.0,0.0,1,61.0,1
85,85,-0.05401778823273162,-0.1,1.0,0.0,472.0,808.0,1.0,1,430.0,0
86,86,0.8479819166725099,0.8,1.0,1.0,287.0,697.0,1.0,1,736.0,1
87,87,-0.5187337769306988,-0.5,0.0,1.0,418.0,993.0,1.0,0,269.0,1
88,88,-0.38891672887784523,-0.4,0.0,1.0,411.0,575.0,1.0,0,234.0,1
89,89,-0.1271877343400737,-0.1,0.0,1.0,300.0,972.0,1.0,0,2358.0,1
90,90,-0.7224883548441254,-0.7,1.0,0.0,319.0,863.0,0.0,0,118.0,1
91,91,-0.35038539373024247,-0.4,0.0,1.0,379.0,744.0,1.0,0,417.0,1
92,92,-0.5379706424494841,-0.5,0.0,1.0,263.0,977.0,1.0,0,200.0,1
93,93,-0.6496720414163485,-0.6,0.0,1.0,490.0,594.0,1.0,0,286.0,1
94,94,-0.24176773094535253,-0.2,0.0,1.0,316.0,624.0,1.0,0,460.0,1
95,95,0.684090300704505,0.7,1.0,1.0,415.0,787.0,1.0,1,-252.0,1
96,96,0.3863676689999497,0.4,0.0,0.0,351.0,540.0,0.0,1,169.0,1
97,97,0.5871087464839341,0.6,1.0,1.0,485.0,681.0,1.0,1,-396.0,1
98,98,0.14699768723993822,0.1,1.0,1.0,404.0,817.0,1.0,1,259.0,1
99,99,0.1860373408524344,0.2,1.0,1.0,491.0,613.0,1.0,1,1166.0,1
100,100,0.4507474924589704,0.5,0.0,0.0,288.0,792.0,0.0,1,-270.0,1
101,101,0.7777625720253104,0.8,0.0,0.0,265.0,670.0,0.0,1,85.0,1
102,102,0.394703231458443,0.4,0.0,0.0,349.0,689.0,0.0,1,432.0,1
103,103,0.25246164068667387,0.3,0.0,0.0,265.0,604.0,0.0,1,271.0,1
104,104,0.4138417064245886,0.4,0.0,0.0,426.0,583.0,0.0,1,641.0,1
105,105,0.3177220181523185,0.3,1.0,1.0,426.0,750.0,0.0,0,-86.0,0
106,106,0.7448931816353846,0.7,1.0,1.0,440.0,789.0,1.0,1,211.0,1
107,107,-0.3878608372803365,-0.4,1.0,0.0,280.0,748.0,0.0,0,212.0,1
108,108,-0.553375545954211,-0.6,1.0,0.0,427.0,680.0,0.0,0,-317.0,1
109,109,-0.24343171334909086,-0.2,0.0,1.0,498.0,527.0,1.0,0,375.0,1
110,110,0.3895544851482936,0.4,0.0,0.0,316.0,745.0,0.0,1,-21.0,1
111,111,0.8424484275229861,0.8,1.0,1.0,346.0,525.0,1.0,1,149.0,1
112,112,0.47273293539341144,0.5,0.0,0.0,494.0,688.0,0.0,1,798.0,1
113,113,-0.827800065622864,-0.8,1.0,0.0,325.0,783.0,0.0,0,-198.0,1
114,114,-0.4985748876747528,-0.5,1.0,0.0,425.0,562.0,0.0,0,563.0,1
115,115,0.4114445218332744,0.4,1.0,1.0,363.0,707.0,1.0,1,230.0,1
116,116,0.3294732463197768,0.3,0.0,0.0,498.0,644.0,0.0,1,548.0,1
117,117,0.6764105193156192,0.7,0.0,0.0,273.0,818.0,0.0,1,319.0,1
118,118,-0.036965521825044534,-0.0,1.0,0.0,377.0,539.0,1.0,1,1414.0,0
119,119,0.4747709742256697,0.5,0.0,0.0,338.0,636.0,0.0,1,296.0,1
120,120,-0.8226042420249916,-0.8,0.0,1.0,257.0,552.0,1.0,0,71.0,1
121,121,-0.16112488401022163,-0.2,1.0,0.0,445.0,619.0,0.0,0,1086.0,1
122,122,-0.3827885176611795,-0.4,1.0,0.0,360.0,790.0,0.0,0,400.0,1
123,123,-0.3705649739498905,-0.4,0.0,1.0,360.0,577.0,1.0,0,513.0,1
124,124,0.5207476055042347,0.5,1.0,1.0,419.0,825.0,1.0,1,646.0,1
125,125,-0.4545745584837582,-0.5,1.0,0.0,307.0,580.0,0.0,0,823.0,1
126,126,0.8090855133867779,0.8,1.0,1.0,363.0,773.0,1.0,1,134.0,1
127,127,-0.6014960653856927,-0.6,1.0,0.0,344.0,619.0,0.0,0,137.0,1
128,128,-0.08608997216008385,-0.1,1.0,0.0,429.0,502.0,1.0,1,89.0,0
129,129,0.17073603964609718,0.2,0.0,0.0,276.0,920.0,0.0,1,434.0,1
130,130,0.7825039194888742,0.8,0.0,0.0,372.0,512.0,0.0,1,296.0,1
131,131,-0.654764843525615,-0.7,0.0,1.0,476.0,743.0,1.0,0,131.0,1
132,132,-0.33002155950719037,-0.3,1.0,0.0,322.0,671.0,0.0,0,517.0,1
133,133,0.3742547152468111,0.4,0.0,0.0,330.0,546.0,0.0,1,354.0,1
134,134,-0.6579595050730362,-0.7,0.0,1.0,435.0,829.0,1.0,0,26.0,1
135,135,0.22260910622259267,0.2,0.0,0.0,456.0,982.0,0.0,1,342.0,1
136,136,-0.6084342113549857,-0.6,1.0,0.0,499.0,791.0,0.0,0,190.0,1
137,137,-0.02650348327339347,-0.0,1.0,0.0,403.0,914.0,0.0,0,-87.0,1
138,138,-0.1355005078242575,-0.1,1.0,0.0,465.0,669.0,0.0,0,686.0,1
139,139,-0.12711292038343402,-0.1,0.0,1.0,400.0,634.0,1.0,0,606.0,1
140,140,0.0628739209768494,0.1,0.0,0.0,350.0,660.0,1.0,0,1280.0,0
141,141,0.24805959475666517,0.2,0.0,0.0,293.0,574.0,0.0,1,353.0,1
142,142,0.23002981360496488,0.2,1.0,1.0,468.0,878.0,1.0,1,-216.0,1
143,143,-0.44076330335947816,-0.4,0.0,1.0,457.0,677.0,1.0,0,236.0,1
144,144,0.024507265480856133,0.0,1.0,1.0,275.0,949.0,1.0,1,1296.0,1
145,145,-0.7770594770875732,-0.8,0.0,1.0,401.0,824.0,1.0,0,145.0,1
146,146,0.4492917414922605,0.4,0.0,0.0,403.0,813.0,0.0,1,344.0,1
147,147,-0.06936276340565584,-0.1,1.0,0.0,484.0,727.0,1.0,1,1689.0,0
148,148,-0.5317004636515804,-0.5,1.0,0.0,407.0,849.0,0.0,0,1084.0,1
149,149,0.8730663552302623,0.9,0.0,0.0,413.0,927.0,0.0,1,260.0,1
150,150,-0.19622465879437279,-0.2,1.0,0.0,453.0,865.0,0.0,0,882.0,1
151,151,0.2225020300771955,0.2,0.0,0.0,284.0,972.0,0.0,1,2374.0,1
152,152,0.6811574557154766,0.7,1.0,1.0,428.0,520.0,1.0,1,-88.0,1
153,153,0.5746953320234646,0.6,0.0,0.0,297.0,640.0,0.0,1,213.0,1
154,154,0.8103428463301393,0.8,1.0,1.0,304.0,907.0,1.0,1,89.0,1
155,155,0.3582660588637038,0.4,1.0,1.0,358.0,934.0,1.0,1,-72.0,1
156,156,-0.34422386642198466,-0.3,0.0,1.0,273.0,744.0,1.0,0,83.0,1
157,157,-0.24594955211552505,-0.2,1.0,0.0,254.0,641.0,0.0,0,515.0,1
158,158,0.12186927900681466,0.1,1.0,1.0,472.0,541.0,0.0,0,-23.0,0
159,159,-0.2671713278914972,-0.3,0.0,1.0,496.0,932.0,1.0,0,252.0,1
160,160,-0.12948634898769673,-0.1,0.0,1.0,314.0,897.0,1.0,0,89.0,1
161,161,0.08206095642632094,0.1,0.0,0.0,333.0,806.0,0.0,1,1541.0,1
162,162,-0.3150869130202518,-0.3,0.0,1.0,320.0,519.0,1.0,0,581.0,1
163,163,0.3269832073376452,0.3,1.0,1.0,367.0,747.0,1.0,1,26.0,1
164,164,-0.7937574155776851,-0.8,1.0,0.0,359.0,795.0,0.0,0,146.0,1
165,165,0.19299459488134774,0.2,1.0,1.0,489.0,997.0,1.0,1,274.0,1
166,166,-0.5209240227123291,-0.5,1.0,0.0,461.0,678.0,0.0,0,371.0,1
167,167,0.20084483595780134,0.2,0.0,0.0,289.0,841.0,0.0,1,1410.0,1
168,168,0.07252802239833855,0.1,0.0,0.0,481.0,570.0,0.0,1,299.0,1
169,169,-0.5028185586622568,-0.5,0.0,1.0,367.0,749.0,1.0,0,104.0,1
170,170,0.32843769867709105,0.3,0.0,0.0,489.0,801.0,0.0,1,600.0,1
171,171,-0.2042230743939656,-0.2,0.0,1.0,474.0,719.0,1.0,0,-393.0,1
172,172,0.8548003326750094,0.9,1.0,1.0,317.0,998.0,0.0,0,-485.0,0
173,173,0.591022507710598,0.6,1.0,1.0,286.0,731.0,1.0,1,263.0,1
174,174,-0.11404659746333412,-0.1,1.0,0.0,403.0,745.0,0.0,0,12.0,1
175,175,-0.28327571356994197,-0.3,0.0,1.0,279.0,712.0,1.0,0,439.0,1
176,176,0.0075535899841578935,0.0,1.0,1.0,498.0,640.0,1.0,1,-348.0,1
177,177,-0.8562478783692099,-0.9,1.0,0.0,352.0,877.0,0.0,0,81.0,1
178,178,-0.4416508621112916,-0.4,0.0,1.0,429.0,727.0,1.0,0,214.0,1
179,179,-0.3621421147194167,-0.4,1.0,0.0,286.0,544.0,0.0,0,270.0,1
180,180,0.47424475993329296,0.5,0.0,0.0,417.0,730.0,0.0,1,193.0,1
181,181,0.6311549817618288,0.6,0.0,0.0,325.0,832.0,1.0,0,-117.0,0
182,182,0.23692215096350744,0.2,1.0,1.0,437.0,859.0,1.0,1,1194.0,1
183,183,-0.5599300163644079,-0.6,1.0,0.0,479.0,924.0,0.0,0,127.0,1
184,184,0.47895397172387544,0.5,0.0,0.0,394.0,905.0,0.0,1,241.0,1
185,185,0.5456455119049121,0.5,1.0,1.0,447.0,564.0,1.0,1,-51.0,1
186,186,0.5029476445214806,0.5,0.0,0.0,486.0,642.0,0.0,1,272.0,1
187,187,0.10020198770877864,0.1,1.0,1.0,349.0,649.0,1.0,1,-138.0,1
188,188,-0.8701452389017422,-0.9,0.0,1.0,259.0,750.0,1.0,0,131.0,1
189,189,0.8122659364049719,0.8,1.0,1.0,261.0,765.0,1.0,1,94.0,1
190,190,0.24519638734953675,0.2,1.0,1.0,308.0,936.0,1.0,1,886.0,1
191,191,0.2231394225854234,0.2,1.0,1.0,265.0,932.0,1.0,1,823.0,1
192,192,-0.4205361553007227,-0.4,1.0,0.0,270.0,942.0,0.0,0,258.0,1
193,193,-0.4171496024217575,-0.4,1.0,0.0,378.0,893.0,1.0,1,-591.0,0
194,194,0.7795561635879847,0.8,1.0,1.0,355.0,922.0,0.0,0,-67.0,0
195,195,0.6923906873927644,0.7,1.0,1.0,412.0,818.0,1.0,1,160.0,1
196,196,0.2973088392321316,0.3,1.0,1.0,282.0,536.0,1.0,1,352.0,1
197,197,0.4934177903563951,0.5,0.0,0.0,453.0,858.0,0.0,1,379.0,1
198,198,0.8666231105122498,0.9,1.0,1.0,287.0,762.0,1.0,1,171.0,1
199,199,0.34878420469569404,0.3,1.0,1.0,368.0,852.0,1.0,1,-420.0,1
200,200,-0.49913274288625287,-0.5,1.0,0.0,391.0,776.0,0.0,0,293.0,1
201,201,0.3762956078638381,0.4,0.0,0.0,286.0,572.0,0.0,1,582.0,1
202,202,-0.6232252699950471,-0.6,1.0,0.0,357.0,969.0,0.0,0,-436.0,1
203,203,0.5587450617577064,0.6,1.0,1.0,410.0,889.0,1.0,1,-129.0,1
204,204,0.5978236887189322,0.6,0.0,0.0,455.0,900.0,0.0,1,405.0,1
205,205,0.8241472451506734,0.8,1.0,1.0,280.0,889.0,1.0,1,271.0,1
206,206,-0.8520803722156839,-0.9,1.0,0.0,455.0,937.0,1.0,1,-442.0,0
207,207,0.8870925952134717,0.9,0.0,0.0,480.0,503.0,0.0,1,157.0,1
208,208,0.6006758021922883,0.6,1.0,1.0,372.0,698.0,1.0,1,100.0,1
209,209,-0.4100429751449332,-0.4,0.0,1.0,430.0,635.0,1.0,0,215.0,1
210,210,-0.6246284720712867,-0.6,1.0,0.0,297.0,583.0,0.0,0,200.0,1
211,211,0.5883895140784908,0.6,0.0,0.0,411.0,893.0,0.0,1,116.0,1
212,212,-0.24404588396870974,-0.2,0.0,1.0,444.0,690.0,1.0,0,576.0,1
213,213,-0.12852912939033878,-0.1,1.0,0.0,367.0,863.0,0.0,0,320.0,1
214,214,0.7444641549550509,0.7,1.0,1.0,496.0,988.0,1.0,1,-324.0,1
215,215,0.459597422388336,0.5,0.0,0.0,361.0,745.0,1.0,0,-266.0,0
216,216,-0.7697816288472833,-0.8,0.0,1.0,479.0,588.0,1.0,0,143.0,1
217,217,-0.5044724831643039,-0.5,1.0,0.0,270.0,871.0,1.0,1,-211.0,0
218,218,0.5513974131899352,0.6,1.0,1.0,479.0,659.0,1.0,1,112.0,1
219,219,0.33465935020254756,0.3,0.0,0.0,459.0,727.0,0.0,1,584.0,1
220,220,0.43732866234706347,0.4,1.0,1.0,462.0,517.0,1.0,1,251.0,1
221,221,0.24091622184364192,0.2,0.0,0.0,319.0,907.0,0.0,1,94.0,1
222,222,0.654877715586241,0.7,0.0,0.0,381.0,860.0,0.0,1,299.0,1
223,223,-0.008367511980116538,-0.0,0.0,1.0,345.0,906.0,1.0,0,879.0,1
224,224,-0.007435056973285059,-0.0,1.0,0.0,433.0,864.0,1.0,1,163.0,0
225,225,0.1974201794877003,0.2,1.0,1.0,426.0,958.0,0.0,0,-594.0,0
226,226,-0.7902535672972235,-0.8,1.0,0.0,361.0,972.0,0.0,0,77.0,1
227,227,-0.3129804566780262,-0.3,0.0,1.0,411.0,771.0,1.0,0,168.0,1
228,228,0.6107621426579773,0.6,1.0,1.0,325.0,687.0,1.0,1,268.0,1
229,229,0.024062241910344673,0.0,1.0,1.0,378.0,629.0,1.0,1,763.0,1
230,230,-0.5105784117822245,-0.5,1.0,0.0,413.0,889.0,0.0,0,68.0,1
231,231,0.6421592733897056,0.6,0.0,0.0,353.0,696.0,0.0,1,191.0,1
232,232,-0.8125704078732765,-0.8,1.0,0.0,443.0,910.0,0.0,0,297.0,1
233,233,0.8837970816771906,0.9,0.0,0.0,475.0,635.0,0.0,1,120.0,1
234,234,-0.35042350473143014,-0.4,0.0,1.0,256.0,612.0,1.0,0,362.0,1
235,235,0.6226612467160574,0.6,1.0,1.0,464.0,543.0,1.0,1,143.0,1
236,236,0.4951244353076737,0.5,0.0,0.0,379.0,904.0,0.0,1,787.0,1
237,237,-0.8707394180540282,-0.9,1.0,0.0,336.0,501.0,0.0,0,103.0,1
238,238,0.8015346592325191,0.8,0.0,0.0,323.0,770.0,1.0,0,-183.0,0
239,239,-0.38060033117628533,-0.4,0.0,1.0,413.0,991.0,1.0,0,226.0,1
240,240,-0.028109329838005848,-0.0,1.0,0.0,276.0,928.0,0.0,0,3106.0,1
241,241,-0.6055600548536095,-0.6,1.0,0.0,256.0,575.0,1.0,1,-161.0,0
242,242,0.8063352984162072,0.8,1.0,1.0,433.0,793.0,1.0,1,174.0,1
243,243,0.6307627536540629,0.6,1.0,1.0,312.0,952.0,1.0,1,-314.0,1
244,244,-0.26999792765508357,-0.3,1.0,0.0,259.0,711.0,0.0,0,320.0,1
245,245,-0.09094743380059134,-0.1,0.0,1.0,484.0,790.0,1.0,0,-74.0,1
246,246,-0.872697554674939,-0.9,0.0,1.0,324.0,971.0,1.0,0,55.0,1
247,247,-0.5936404819697415,-0.6,0.0,1.0,250.0,505.0,1.0,0,75.0,1
248,248,0.18289475983653414,0.2,0.0,0.0,316.0,517.0,1.0,0,2737.0,0
249,249,-0.7969293447862462,-0.8,1.0,0.0,259.0,767.0,1.0,1,-436.0,0
250,250,0.6877903036920784,0.7,1.0,1.0,267.0,970.0,1.0,1,-497.0,1
251,251,-0.09005999041838475,-0.1,1.0,0.0,355.0,735.0,0.0,0,680.0,1
252,252,0.1855745946000561,0.2,1.0,1.0,269.0,841.0,1.0,1,80.0,1
253,253,0.09769925985014938,0.1,0.0,0.0,443.0,809.0,1.0,0,3748.0,0
254,254,0.8851187241589723,0.9,1.0,1.0,482.0,759.0,1.0,1,169.0,1
255,255,-0.6012660019718625,-0.6,1.0,0.0,404.0,777.0,0.0,0,149.0,1
256,256,-0.04437813413748004,-0.0,1.0,0.0,470.0,646.0,1.0,1,84.0,0
257,257,-0.02227957290728444,-0.0,1.0,0.0,367.0,736.0,1.0,1,137.0,0
258,258,-0.40651408487033047,-0.4,0.0,1.0,439.0,597.0,1.0,0,324.0,1
259,259,0.6032054649466175,0.6,0.0,0.0,439.0,548.0,0.0,1,433.0,1
260,260,-0.6836412972276358,-0.7,0.0,1.0,301.0,586.0,1.0,0,93.0,1
261,261,0.5417493375111954,0.5,0.0,0.0,261.0,965.0,0.0,1,114.0,1
262,262,-0.832744683998312,-0.8,0.0,1.0,483.0,732.0,1.0,0,145.0,1
263,263,0.020404040128788492,0.0,0.0,0.0,361.0,733.0,0.0,1,356.0,1
264,264,0.536848183251832,0.5,0.0,0.0,490.0,612.0,1.0,0,18.0,0
265,265,0.37189361802312704,0.4,1.0,1.0,260.0,765.0,1.0,1,195.0,1
266,266,-0.44077419464979123,-0.4,1.0,0.0,298.0,587.0,0.0,0,155.0,1
267,267,0.04782240200734278,0.0,1.0,1.0,329.0,923.0,0.0,0,628.0,0
268,268,-0.6228200175354999,-0.6,0.0,1.0,460.0,705.0,1.0,0,-165.0,1
269,269,-0.44001900567533536,-0.4,1.0,0.0,254.0,643.0,0.0,0,23.0,1
270,270,0.1671202220856628,0.2,0.0,0.0,492.0,819.0,1.0,0,-471.0,0
271,271,-0.1759760896411856,-0.2,1.0,0.0,441.0,918.0,1.0,1,-219.0,0
272,272,-0.7823344484682248,-0.8,0.0,1.0,374.0,943.0,1.0,0,113.0,1
273,273,0.7021524227158557,0.7,1.0,1.0,314.0,797.0,1.0,1,49.0,1
274,274,0.04760133712794801,0.0,1.0,1.0,450.0,901.0,1.0,1,2539.0,1
275,275,0.0841755476407684,0.1,1.0,1.0,271.0,522.0,1.0,1,437.0,1
276,276,0.2122341187568112,0.2,0.0,0.0,384.0,859.0,0.0,1,67.0,1
277,277,0.7425635357432748,0.7,1.0,1.0,388.0,749.0,1.0,1,193.0,1
278,278,0.4494611952076647,0.4,1.0,1.0,324.0,666.0,1.0,1,250.0,1
279,279,0.2803310995948368,0.3,0.0,0.0,318.0,824.0,0.0,1,308.0,1
280,280,0.17274371167023161,0.2,0.0,0.0,375.0,855.0,1.0,0,-510.0,0
281,281,-0.65069558331041,-0.7,0.0,1.0,454.0,617.0,1.0,0,149.0,1
282,282,0.16957231003341666,0.2,0.0,0.0,483.0,947.0,1.0,0,-80.0,0
283,283,-0.008077504709179784,-0.0,1.0,0.0,312.0,864.0,0.0,0,514.0,1
284,284,-0.6897283895781641,-0.7,0.0,1.0,338.0,604.0,1.0,0,308.0,1
285,285,0.25676729245506114,0.3,0.0,0.0,485.0,723.0,0.0,1,732.0,1
286,286,0.10089422381409563,0.1,0.0,0.0,369.0,763.0,1.0,0,1258.0,0
287,287,-0.7421529963099008,-0.7,0.0,1.0,460.0,677.0,1.0,0,-7.0,1
288,288,0.20084398507770562,0.2,1.0,1.0,456.0,715.0,1.0,1,559.0,1
289,289,-0.10546242502373349,-0.1,0.0,1.0,391.0,664.0,1.0,0,285.0,1
290,290,0.8144912607808868,0.8,1.0,1.0,384.0,877.0,1.0,1,79.0,1
291,291,-0.7706234879951319,-0.8,1.0,0.0,365.0,530.0,0.0,0,105.0,1
292,292,-0.3332462327284277,-0.3,1.0,0.0,371.0,658.0,0.0,0,211.0,1
293,293,-0.07554464822063589,-0.1,0.0,1.0,467.0,752.0,1.0,0,2451.0,1
294,294,-0.1304456629636368,-0.1,1.0,0.0,393.0,997.0,0.0,0,-40.0,1
295,295,-0.04655183353467729,-0.0,1.0,0.0,343.0,534.0,0.0,0,1423.0,1
296,296,0.30341298554302887,0.3,0.0,0.0,300.0,951.0,1.0,0,-291.0,0
297,297,-0.4485482403460532,-0.4,1.0,0.0,370.0,712.0,0.0,0,138.0,1
298,298,-0.8250905376642116,-0.8,0.0,1.0,385.0,787.0,1.0,0,138.0,1
299,299,-0.7849161785320169,-0.8,1.0,0.0,253.0,750.0,1.0,1,-273.0,0
300,300,0.7450568236443623,0.7,1.0,1.0,266.0,996.0,1.0,1,-62.0,1
301,301,-0.41890766646238525,-0.4,1.0,0.0,322.0,979.0,0.0,0,259.0,1
302,302,-0.7777073515979278,-0.8,0.0,1.0,449.0,629.0,1.0,0,92.0,1
303,303,0.4144355794908504,0.4,0.0,0.0,322.0,658.0,0.0,1,510.0,1
304,304,-0.14013327007715837,-0.1,0.0,1.0,338.0,984.0,1.0,0,238.0,1
305,305,0.7830460185855111,0.8,0.0,0.0,448.0,636.0,0.0,1,-164.0,1
306,306,0.33344057745469746,0.3,0.0,0.0,428.0,831.0,0.0,1,421.0,1
307,307,-0.47439897652912133,-0.5,1.0,0.0,361.0,887.0,1.0,1,-238.0,0
308,308,0.5497691741765233,0.5,1.0,1.0,281.0,785.0,0.0,0,4.0,0
309,309,-0.26304581951587425,-0.3,1.0,0.0,251.0,932.0,0.0,0,317.0,1
310,310,0.12139952256371489,0.1,0.0,0.0,474.0,758.0,0.0,1,3018.0,1
311,311,-0.3265050628957539,-0.3,1.0,0.0,382.0,510.0,0.0,0,98.0,1
312,312,0.3828612729104469,0.4,0.0,0.0,338.0,515.0,0.0,1,627.0,1
313,313,-0.4675852961003066,-0.5,1.0,0.0,482.0,616.0,0.0,0,182.0,1
314,314,0.5897531149764254,0.6,0.0,0.0,276.0,793.0,0.0,1,491.0,1
315,315,0.6770939428197841,0.7,0.0,0.0,380.0,897.0,1.0,0,-217.0,0
316,316,-0.707918773321304,-0.7,1.0,0.0,319.0,772.0,0.0,0,99.0,1
317,317,0.7423190888096992,0.7,1.0,1.0,271.0,583.0,1.0,1,516.0,1
318,318,0.6670557680161698,0.7,1.0,1.0,479.0,594.0,1.0,1,197.0,1
319,319,-0.680575340678695,-0.7,1.0,0.0,366.0,800.0,0.0,0,314.0,1
320,320,0.049005540728024655,0.0,1.0,1.0,313.0,532.0,0.0,0,635.0,0
321,321,-0.24989664213276774,-0.2,1.0,0.0,341.0,737.0,0.0,0,332.0,1
322,322,-0.47814419983967255,-0.5,0.0,1.0,436.0,841.0,1.0,0,183.0,1
323,323,-0.38378589127014817,-0.4,0.0,1.0,353.0,586.0,1.0,0,371.0,1
324,324,0.4996191310288588,0.5,1.0,1.0,306.0,558.0,1.0,1,116.0,1
325,325,0.07287513862550166,0.1,1.0,1.0,405.0,974.0,0.0,0,11.0,0
326,326,0.4460038105859524,0.4,0.0,0.0,494.0,888.0,1.0,0,-112.0,0
327,327,0.7980054509463365,0.8,0.0,0.0,267.0,653.0,0.0,1,160.0,1
328,328,-0.7243782352651039,-0.7,0.0,1.0,429.0,971.0,0.0,1,-50.0,0
329,329,-0.8871643711657972,-0.9,0.0,1.0,399.0,517.0,1.0,0,124.0,1
330,330,0.3543797543816095,0.4,1.0,1.0,283.0,841.0,1.0,1,-294.0,1
331,331,0.03815983602969231,0.0,1.0,1.0,486.0,502.0,1.0,1,822.0,1
332,332,-0.8132795838398521,-0.8,0.0,1.0,383.0,776.0,1.0,0,131.0,1
333,333,0.5436963732198096,0.5,1.0,1.0,379.0,680.0,1.0,1,131.0,1
334,334,0.490244636629105,0.5,1.0,1.0,464.0,810.0,1.0,1,46.0,1
335,335,-0.6369485944634852,-0.6,1.0,0.0,447.0,879.0,0.0,0,434.0,1
336,336,-0.5052307686936199,-0.5,1.0,0.0,377.0,978.0,0.0,0,165.0,1
337,337,0.4720941595417526,0.5,0.0,0.0,371.0,986.0,0.0,1,423.0,1
338,338,-0.1513283460199123,-0.2,1.0,0.0,369.0,505.0,0.0,0,246.0,1
339,339,-0.09037488297301066,-0.1,1.0,0.0,479.0,566.0,0.0,0,105.0,1
340,340,0.4289760157451167,0.4,1.0,1.0,272.0,538.0,1.0,1,720.0,1
341,341,0.30451207032542904,0.3,0.0,0.0,274.0,534.0,0.0,1,302.0,1
342,342,0.8244760290227754,0.8,1.0,1.0,427.0,551.0,1.0,1,192.0,1
343,343,0.21900236637578618,0.2,0.0,0.0,367.0,590.0,0.0,1,783.0,1
344,344,-0.6697296487300929,-0.7,1.0,0.0,411.0,657.0,0.0,0,282.0,1
345,345,0.5791583041631051,0.6,1.0,1.0,272.0,879.0,1.0,1,-371.0,1
346,346,-0.11699958375004305,-0.1,0.0,1.0,378.0,581.0,1.0,0,661.0,1
347,347,0.6070723405911208,0.6,1.0,1.0,447.0,771.0,1.0,1,482.0,1
348,348,0.12938406223908439,0.1,1.0,1.0,307.0,895.0,1.0,1,138.0,1
349,349,-0.16714800899800364,-0.2,0.0,1.0,259.0,858.0,1.0,0,563.0,1
350,350,-0.4906743685810562,-0.5,1.0,0.0,341.0,930.0,0.0,0,289.0,1
351,351,-0.68168743882507,-0.7,1.0,0.0,303.0,553.0,0.0,0,64.0,1
352,352,-0.40384656156336624,-0.4,0.0,1.0,389.0,752.0,1.0,0,-111.0,1
353,353,-0.5037548401347685,-0.5,1.0,0.0,436.0,529.0,1.0,1,-45.0,0
354,354,-0.7148724349066733,-0.7,0.0,1.0,464.0,526.0,1.0,0,170.0,1
355,355,0.7925982882031607,0.8,0.0,0.0,412.0,758.0,1.0,0,-150.0,0
356,356,-0.7913625145288494,-0.8,1.0,0.0,460.0,856.0,0.0,0,-86.0,1
357,357,0.46207778923862197,0.5,0.0,0.0,498.0,649.0,0.0,1,453.0,1
358,358,0.7055955207629822,0.7,0.0,0.0,250.0,742.0,0.0,1,438.0,1
359,359,-0.8942605272809997,-0.9,0.0,1.0,418.0,598.0,1.0,0,354.0,1
360,360,0.10914112901317974,0.1,1.0,1.0,379.0,979.0,1.0,1,792.0,1
361,361,-0.00905124356522069,-0.0,0.0,1.0,461.0,873.0,1.0,0,36.0,1
362,362,-0.26274907916677903,-0.3,1.0,0.0,307.0,524.0,0.0,0,769.0,1
363,363,-0.6636453426914491,-0.7,0.0,1.0,333.0,509.0,1.0,0,138.0,1
364,364,-0.062426858774154104,-0.1,1.0,0.0,374.0,976.0,0.0,0,20.0,1
365,365,-0.880694513485738,-0.9,0.0,1.0,370.0,926.0,1.0,0,94.0,1
366,366,-0.8393905368977169,-0.8,1.0,0.0,381.0,709.0,0.0,0,340.0,1
367,367,-0.7335255936544379,-0.7,1.0,0.0,376.0,782.0,0.0,0,122.0,1
368,368,-0.8377934019575762,-0.8,1.0,0.0,480.0,938.0,0.0,0,232.0,1
369,369,0.5022241202948917,0.5,1.0,1.0,408.0,739.0,1.0,1,583.0,1
370,370,0.746036762732251,0.7,1.0,1.0,325.0,930.0,1.0,1,-435.0,1
371,371,-0.49249897692123834,-0.5,1.0,0.0,324.0,616.0,0.0,0,280.0,1
372,372,0.7985296600670101,0.8,1.0,1.0,380.0,880.0,1.0,1,90.0,1
373,373,-0.32283344198145103,-0.3,0.0,1.0,493.0,777.0,1.0,0,-160.0,1
374,374,0.6619666136037422,0.7,1.0,1.0,257.0,656.0,1.0,1,47.0,1
375,375,-0.6794311823132564,-0.7,1.0,0.0,271.0,944.0,0.0,0,115.0,1
376,376,0.6714358842716727,0.7,1.0,1.0,329.0,702.0,1.0,1,89.0,1
377,377,0.6579881542019163,0.7,1.0,1.0,328.0,994.0,0.0,0,-62.0,0
378,378,0.7661985678844306,0.8,1.0,1.0,423.0,514.0,1.0,1,123.0,1
379,379,-0.046590545798207095,-0.0,1.0,0.0,405.0,814.0,0.0,0,1591.0,1
380,380,0.11196473575207111,0.1,1.0,1.0,444.0,924.0,0.0,0,92.0,0
381,381,0.7543125750142504,0.8,0.0,0.0,417.0,665.0,1.0,0,-212.0,0
382,382,0.021670528166044978,0.0,0.0,0.0,364.0,653.0,1.0,0,653.0,0
383,383,-0.5304699733683795,-0.5,0.0,1.0,271.0,901.0,1.0,0,158.0,1
384,384,-0.39157032223642585,-0.4,0.0,1.0,267.0,867.0,1.0,0,256.0,1
385,385,0.31530547761071037,0.3,0.0,0.0,267.0,863.0,1.0,0,-210.0,0
386,386,0.12857066140752382,0.1,1.0,1.0,355.0,702.0,0.0,0,1963.0,0
387,387,-0.43652723269313826,-0.4,0.0,1.0,436.0,790.0,1.0,0,414.0,1
388,388,-0.7259900023813493,-0.7,0.0,1.0,308.0,560.0,1.0,0,172.0,1
389,389,0.4998998118116874,0.5,0.0,0.0,418.0,692.0,0.0,1,570.0,1
390,390,0.5247456138913523,0.5,0.0,0.0,299.0,598.0,0.0,1,243.0,1
391,391,-0.703350714397068,-0.7,1.0,0.0,354.0,690.0,0.0,0,246.0,1
392,392,-0.10751280342561598,-0.1,0.0,1.0,440.0,807.0,1.0,0,-267.0,1
393,393,-0.6490956047132836,-0.6,0.0,1.0,426.0,974.0,1.0,0,90.0,1
394,394,0.722702285797889,0.7,0.0,0.0,272.0,985.0,0.0,1,193.0,1
395,395,0.12971143050076883,0.1,0.0,0.0,466.0,831.0,0.0,1,963.0,1
396,396,0.6868902349865157,0.7,1.0,1.0,452.0,852.0,1.0,1,16.0,1
397,397,-0.5359697738055413,-0.5,1.0,0.0,370.0,871.0,1.0,1,-101.0,0
398,398,-0.1519806082678058,-0.2,1.0,0.0,372.0,603.0,0.0,0,305.0,1
399,399,0.8577623499720303,0.9,0.0,0.0,305.0,989.0,0.0,1,66.0,1
400,400,0.2377277297418362,0.2,0.0,0.0,480.0,739.0,1.0,0,-119.0,0
401,401,0.25431258302540993,0.3,1.0,1.0,417.0,963.0,1.0,1,190.0,1
402,402,0.8462263908327051,0.8,0.0,0.0,331.0,698.0,0.0,1,111.0,1
403,403,-0.41350522796820466,-0.4,1.0,0.0,359.0,823.0,1.0,1,-182.0,0
404,404,-0.42173756424520925,-0.4,1.0,0.0,263.0,972.0,0.0,0,215.0,1
405,405,-0.7369847338160429,-0.7,1.0,0.0,278.0,681.0,0.0,0,101.0,1
406,406,0.3951722636689693,0.4,0.0,0.0,289.0,642.0,0.0,1,1099.0,1
407,407,-0.721405534920696,-0.7,1.0,0.0,430.0,948.0,0.0,0,-218.0,1
408,408,0.7022009108678385,0.7,1.0,1.0,498.0,947.0,0.0,0,-35.0,0
409,409,0.7146910099842546,0.7,1.0,1.0,256.0,719.0,1.0,1,145.0,1
410,410,-0.6342728096738561,-0.6,0.0,1.0,261.0,664.0,1.0,0,115.0,1
411,411,0.15397385229833616,0.2,0.0,0.0,318.0,871.0,0.0,1,1161.0,1
412,412,-0.6684314424230458,-0.7,0.0,1.0,403.0,711.0,1.0,0,36.0,1
413,413,-0.6318220964760302,-0.6,1.0,0.0,291.0,630.0,0.0,0,169.0,1
414,414,-0.3951382417231236,-0.4,0.0,1.0,252.0,630.0,1.0,0,68.0,1
415,415,0.13175342524313638,0.1,1.0,1.0,330.0,740.0,0.0,0,-250.0,0
416,416,-0.07299063214804546,-0.1,1.0,0.0,471.0,793.0,0.0,0,1146.0,1
417,417,-0.42519283115368983,-0.4,1.0,0.0,280.0,645.0,0.0,0,-145.0,1
418,418,-0.562940943677086,-0.6,1.0,0.0,266.0,803.0,0.0,0,251.0,1
419,419,0.781868515870287,0.8,1.0,1.0,327.0,983.0,0.0,0,-540.0,0
420,420,-0.22644874385859937,-0.2,0.0,1.0,450.0,869.0,1.0,0,531.0,1
421,421,-0.5547836920555491,-0.6,1.0,0.0,496.0,886.0,0.0,0,418.0,1
422,422,0.2671034050026865,0.3,1.0,1.0,310.0,744.0,1.0,1,346.0,1
423,423,0.31262363372606117,0.3,1.0,1.0,452.0,677.0,1.0,1,251.0,1
424,424,-0.79134777236344,-0.8,0.0,1.0,486.0,935.0,1.0,0,59.0,1
425,425,-0.35879886036979103,-0.4,1.0,0.0,458.0,675.0,0.0,0,97.0,1
426,426,0.10083146269221299,0.1,1.0,1.0,353.0,865.0,1.0,1,1032.0,1
427,427,0.8612784413472113,0.9,1.0,1.0,444.0,995.0,1.0,1,111.0,1
428,428,-0.7960071350457238,-0.8,0.0,1.0,369.0,939.0,1.0,0,72.0,1
429,429,0.8251386597616349,0.8,0.0,0.0,406.0,574.0,0.0,1,400.0,1
430,430,-0.8746732012405342,-0.9,1.0,0.0,455.0,522.0,0.0,0,173.0,1
431,431,0.5185540576809234,0.5,0.0,0.0,283.0,891.0,0.0,1,706.0,1
432,432,-0.08811697342457325,-0.1,0.0,1.0,366.0,973.0,1.0,0,621.0,1
433,433,-0.5891453259302145,-0.6,0.0,1.0,497.0,939.0,1.0,0,164.0,1
434,434,-0.24529903234749972,-0.2,0.0,1.0,389.0,540.0,1.0,0,411.0,1
435,435,0.6772851444697826,0.7,0.0,0.0,464.0,544.0,0.0,1,222.0,1
436,436,-0.7820068295073135,-0.8,0.0,1.0,494.0,803.0,1.0,0,133.0,1
437,437,0.01895780684509807,0.0,0.0,0.0,396.0,505.0,1.0,0,889.0,0
438,438,-0.6147503899664227,-0.6,0.0,1.0,291.0,744.0,1.0,0,85.0,1
439,439,-0.07844487401015854,-0.1,0.0,1.0,273.0,604.0,1.0,0,973.0,1
440,440,-0.5322083225178549,-0.5,1.0,0.0,353.0,627.0,0.0,0,310.0,1
441,441,-0.4015101995570572,-0.4,1.0,0.0,421.0,758.0,0.0,0,331.0,1
442,442,-0.14090398209209165,-0.1,1.0,0.0,365.0,774.0,0.0,0,241.0,1
443,443,-0.201032649058011,-0.2,1.0,0.0,295.0,969.0,0.0,0,576.0,1
444,444,0.15347131856170126,0.2,1.0,1.0,412.0,501.0,1.0,1,267.0,1
445,445,0.20616477746869155,0.2,0.0,0.0,438.0,804.0,0.0,1,798.0,1
446,446,0.0954076362616807,0.1,0.0,0.0,339.0,981.0,0.0,1,810.0,1
447,447,0.736246295649979,0.7,1.0,1.0,313.0,519.0,1.0,1,138.0,1
448,448,0.1052837937319514,0.1,0.0,0.0,251.0,646.0,0.0,1,23.0,1
449,449,-0.38286443372175594,-0.4,0.0,1.0,287.0,737.0,1.0,0,-24.0,1
450,450,-0.4930787134138948,-0.5,0.0,1.0,403.0,618.0,1.0,0,219.0,1
451,451,0.7876053950457863,0.8,1.0,1.0,467.0,522.0,1.0,1,-129.0,1
452,452,-0.6241221330834391,-0.6,0.0,1.0,481.0,868.0,1.0,0,-419.0,1
453,453,0.7793421297174085,0.8,1.0,1.0,411.0,512.0,1.0,1,147.0,1
454,454,0.006640969916818618,0.0,1.0,1.0,288.0,556.0,0.0,0,576.0,0
455,455,0.09054297547368084,0.1,1.0,1.0,255.0,617.0,0.0,0,138.0,0
456,456,0.2808778709115606,0.3,0.0,0.0,435.0,807.0,0.0,1,418.0,1
457,457,0.05583582094614514,0.1,0.0,0.0,411.0,669.0,0.0,1,2060.0,1
458,458,0.8913666786636568,0.9,1.0,1.0,490.0,540.0,1.0,1,130.0,1
459,459,0.6630927875546365,0.7,1.0,1.0,352.0,595.0,1.0,1,623.0,1
460,460,0.16294234098944405,0.2,1.0,1.0,277.0,788.0,1.0,1,145.0,1
461,461,0.8996708644277241,0.9,1.0,1.0,366.0,824.0,1.0,1,190.0,1
462,462,0.32705959320924116,0.3,0.0,0.0,477.0,856.0,0.0,1,1137.0,1
463,463,-0.6685720200019376,-0.7,1.0,0.0,471.0,690.0,0.0,0,239.0,1
464,464,0.3358324603876014,0.3,1.0,1.0,252.0,905.0,1.0,1,403.0,1
465,465,-0.12651180234003645,-0.1,1.0,0.0,397.0,559.0,0.0,0,284.0,1
466,466,-0.7792146554587444,-0.8,0.0,1.0,429.0,802.0,1.0,0,99.0,1
467,467,-0.7639850634880273,-0.8,0.0,1.0,289.0,674.0,1.0,0,137.0,1
468,468,0.8719374793315843,0.9,1.0,1.0,306.0,825.0,1.0,1,39.0,1
469,469,0.23764174086306766,0.2,0.0,0.0,289.0,532.0,0.0,1,2379.0,1
470,470,0.2882836585355967,0.3,0.0,0.0,348.0,746.0,0.0,1,436.0,1
471,471,-0.6628934938819991,-0.7,0.0,1.0,443.0,794.0,1.0,0,-7.0,1
472,472,-0.35292777338766324,-0.4,1.0,0.0,421.0,816.0,0.0,0,-197.0,1
473,473,-0.7575846002751713,-0.8,0.0,1.0,409.0,767.0,1.0,0,204.0,1
474,474,0.37859720568735844,0.4,0.0,0.0,436.0,638.0,0.0,1,236.0,1
475,475,0.2394482802925767,0.2,1.0,1.0,350.0,747.0,1.0,1,113.0,1
476,476,0.8413025739434333,0.8,0.0,0.0,393.0,617.0,0.0,1,40.0,1
477,477,-0.11091908258798489,-0.1,0.0,1.0,291.0,637.0,1.0,0,802.0,1
478,478,0.10330821652401345,0.1,1.0,1.0,264.0,837.0,0.0,0,-581.0,0
479,479,0.836509182702479,0.8,0.0,0.0,322.0,569.0,0.0,1,219.0,1
480,480,-0.25567912404403137,-0.3,0.0,1.0,352.0,659.0,1.0,0,469.0,1
481,481,-0.3480724095986172,-0.3,1.0,0.0,257.0,528.0,0.0,0,555.0,1
482,482,-0.040304550629721714,-0.0,1.0,0.0,390.0,702.0,1.0,1,8.0,0
483,483,0.17476493737310228,0.2,1.0,1.0,317.0,824.0,1.0,1,59.0,1
484,484,0.2514164859851603,0.3,1.0,1.0,342.0,779.0,1.0,1,359.0,1
485,485,-0.5747770710857387,-0.6,1.0,0.0,357.0,508.0,0.0,0,105.0,1
486,486,0.17350683587318227,0.2,0.0,0.0,407.0,811.0,0.0,1,1232.0,1
487,487,0.800336392249087,0.8,1.0,1.0,484.0,923.0,1.0,1,13.0,1
488,488,-0.16356824615351095,-0.2,0.0,1.0,461.0,656.0,1.0,0,143.0,1
489,489,0.13992798877023216,0.1,1.0,1.0,287.0,651.0,1.0,1,312.0,1
490,490,0.6292507867911022,0.6,0.0,0.0,397.0,526.0,1.0,0,-133.0,0
491,491,-0.3136566553632949,-0.3,1.0,0.0,404.0,640.0,0.0,0,636.0,1
492,492,-0.7082554277022015,-0.7,0.0,1.0,348.0,935.0,1.0,0,157.0,1
493,493,0.41139726200752225,0.4,1.0,1.0,456.0,611.0,1.0,1,293.0,1
494,494,0.38579829583529446,0.4,1.0,1.0,284.0,857.0,1.0,1,-31.0,1
495,495,0.7194266300187443,0.7,1.0,1.0,405.0,833.0,0.0,0,-318.0,0
496,496,-0.7284295447128647,-0.7,0.0,1.0,402.0,945.0,1.0,0,-117.0,1
497,497,-0.7607351730486271,-0.8,1.0,0.0,379.0,593.0,0.0,0,108.0,1
498,498,-0.317773401716997,-0.3,0.0,1.0,466.0,786.0,0.0,1,-462.0,0
499,499,0.8049770345765396,0.8,0.0,0.0,335.0,976.0,1.0,0,-211.0,0
500,500,0.6589001700796134,0.7,1.0,1.0,362.0,804.0,1.0,1,-376.0,1
501,501,0.016449592130881152,0.0,0.0,0.0,337.0,835.0,1.0,0,-102.0,0
502,502,0.5954195155277692,0.6,0.0,0.0,484.0,732.0,0.0,1,574.0,1
503,503,0.27644999710393703,0.3,1.0,1.0,463.0,501.0,1.0,1,396.0,1
504,504,-0.8354099990444611,-0.8,0.0,1.0,346.0,890.0,1.0,0,164.0,1
505,505,-0.11723169669983968,-0.1,1.0,0.0,360.0,846.0,0.0,0,544.0,1
506,506,-0.4398832073231795,-0.4,1.0,0.0,459.0,558.0,1.0,1,-97.0,0
507,507,-0.8729055185151098,-0.9,1.0,0.0,263.0,915.0,0.0,0,142.0,1
508,508,-0.14169997089288933,-0.1,0.0,1.0,316.0,622.0,1.0,0,202.0,1
509,509,0.30209106341254677,0.3,1.0,1.0,492.0,679.0,1.0,1,429.0,1
510,510,-0.7576535899994636,-0.8,0.0,1.0,417.0,900.0,1.0,0,-97.0,1
511,511,-0.8656162170349124,-0.9,1.0,0.0,295.0,721.0,0.0,0,274.0,1
512,512,-0.18070529687368742,-0.2,0.0,1.0,296.0,690.0,0.0,1,-126.0,0
513,513,-0.7359158602475999,-0.7,1.0,0.0,492.0,516.0,0.0,0,182.0,1
514,514,0.8744599702164829,0.9,1.0,1.0,398.0,741.0,1.0,1,-289.0,1
515,515,-0.04057300005320141,-0.0,0.0,1.0,251.0,977.0,1.0,0,1592.0,1
516,516,0.11219651256870111,0.1,0.0,0.0,412.0,538.0,0.0,1,150.0,1
517,517,-0.47612328849329694,-0.5,1.0,0.0,279.0,608.0,0.0,0,523.0,1
518,518,0.31322365789200923,0.3,1.0,1.0,291.0,790.0,1.0,1,389.0,1
519,519,0.7563639580447451,0.8,0.0,0.0,278.0,543.0,0.0,1,39.0,1
520,520,-0.17812007025018373,-0.2,0.0,1.0,346.0,946.0,1.0,0,128.0,1
521,521,0.7594158274676158,0.8,0.0,0.0,367.0,751.0,0.0,1,282.0,1
522,522,-0.22605673986520602,-0.2,1.0,0.0,303.0,896.0,0.0,0,1001.0,1
523,523,0.39871848249871056,0.4,0.0,0.0,396.0,654.0,0.0,1,290.0,1
524,524,-0.6904803587754287,-0.7,1.0,0.0,332.0,894.0,0.0,0,124.0,1
525,525,0.3524230867745698,0.4,0.0,0.0,371.0,829.0,0.0,1,1150.0,1
526,526,-0.026328855103017967,-0.0,1.0,0.0,495.0,782.0,1.0,1,-77.0,0
527,527,-0.6059705471569697,-0.6,0.0,1.0,475.0,725.0,1.0,0,-110.0,1
528,528,-0.886252495650962,-0.9,1.0,0.0,335.0,862.0,0.0,0,223.0,1
529,529,0.33481347748285495,0.3,1.0,1.0,342.0,656.0,1.0,1,-78.0,1
530,530,0.10155122344655643,0.1,0.0,0.0,289.0,738.0,1.0,0,813.0,0
531,531,-0.24924221817571846,-0.2,1.0,0.0,489.0,757.0,1.0,1,14.0,0
532,532,0.32695193263181876,0.3,1.0,1.0,318.0,690.0,1.0,1,322.0,1
533,533,0.47587845633263204,0.5,0.0,0.0,260.0,520.0,0.0,1,140.0,1
534,534,-0.5417089792222631,-0.5,1.0,0.0,323.0,947.0,0.0,0,120.0,1
535,535,-0.25716927726334016,-0.3,1.0,0.0,492.0,585.0,0.0,0,173.0,1
536,536,0.7150041253722678,0.7,0.0,0.0,416.0,525.0,0.0,1,179.0,1
537,537,0.05018397502706429,0.1,0.0,0.0,490.0,572.0,1.0,0,2248.0,0
538,538,-0.5938282461604572,-0.6,1.0,0.0,414.0,781.0,0.0,0,825.0,1
539,539,0.8071242525336565,0.8,0.0,0.0,329.0,990.0,1.0,0,-239.0,0
540,540,0.030568346350388742,0.0,0.0,0.0,291.0,725.0,0.0,1,1744.0,1
541,541,0.678022586986787,0.7,1.0,1.0,473.0,709.0,1.0,1,118.0,1
542,542,-0.2840028158450769,-0.3,1.0,0.0,344.0,917.0,1.0,1,159.0,0
543,543,0.8239950526960259,0.8,1.0,1.0,431.0,787.0,1.0,1,192.0,1
544,544,0.005911060244853661,0.0,0.0,0.0,277.0,921.0,1.0,0,632.0,0
545,545,0.11951887028011166,0.1,0.0,0.0,286.0,717.0,0.0,1,1107.0,1
546,546,0.2316707819804339,0.2,1.0,1.0,365.0,929.0,1.0,1,-474.0,1
547,547,0.32637513624521997,0.3,0.0,0.0,365.0,778.0,0.0,1,-43.0,1
548,548,-0.08737032359765129,-0.1,0.0,1.0,263.0,553.0,1.0,0,704.0,1
549,549,-0.8811799570864107,-0.9,1.0,0.0,341.0,880.0,0.0,0,99.0,1
550,550,-0.8809225158121813,-0.9,1.0,0.0,300.0,687.0,0.0,0,53.0,1
551,551,0.5577620184103936,0.6,1.0,1.0,423.0,810.0,1.0,1,117.0,1
552,552,-0.4008872170817528,-0.4,1.0,0.0,298.0,732.0,0.0,0,220.0,1
553,553,0.8783126794315915,0.9,1.0,1.0,373.0,906.0,1.0,1,-619.0,1
554,554,-0.2014208869166325,-0.2,0.0,1.0,437.0,606.0,1.0,0,807.0,1
555,555,-0.08348890014672716,-0.1,1.0,0.0,483.0,852.0,1.0,1,-135.0,0
556,556,-0.47379114978785014,-0.5,1.0,0.0,300.0,562.0,1.0,1,-72.0,0
557,557,-0.8741787237656508,-0.9,0.0,1.0,268.0,668.0,1.0,0,64.0,1
558,558,0.5754876305513622,0.6,0.0,0.0,294.0,511.0,0.0,1,355.0,1
559,559,0.1485780519714045,0.1,0.0,0.0,484.0,936.0,0.0,1,130.0,1
560,560,0.686290202228513,0.7,0.0,0.0,288.0,669.0,0.0,1,463.0,1
561,561,0.8999987427701407,0.9,0.0,0.0,284.0,869.0,0.0,1,237.0,1
562,562,0.3185820337705324,0.3,1.0,1.0,319.0,750.0,1.0,1,211.0,1
563,563,-0.42763670882842275,-0.4,1.0,0.0,391.0,718.0,0.0,0,341.0,1
564,564,-0.7030786136368632,-0.7,0.0,1.0,263.0,510.0,1.0,0,127.0,1
565,565,-0.8218272539427085,-0.8,0.0,1.0,285.0,514.0,1.0,0,201.0,1
566,566,-0.09987742211991002,-0.1,0.0,1.0,321.0,965.0,1.0,0,1294.0,1
567,567,0.3604948247594536,0.4,1.0,1.0,292.0,909.0,0.0,0,-1.0,0
568,568,-0.8274455494063929,-0.8,1.0,0.0,454.0,852.0,0.0,0,194.0,1
569,569,-0.6783031972757066,-0.7,0.0,1.0,498.0,967.0,1.0,0,175.0,1
570,570,0.6098458952319296,0.6,1.0,1.0,309.0,776.0,1.0,1,65.0,1
571,571,0.21723559298739936,0.2,0.0,0.0,306.0,892.0,1.0,0,-478.0,0
572,572,0.018319711970899988,0.0,1.0,1.0,351.0,757.0,1.0,1,1552.0,1
573,573,-0.4813789303800669,-0.5,0.0,1.0,410.0,734.0,1.0,0,156.0,1
574,574,0.7608778180820163,0.8,0.0,0.0,415.0,749.0,0.0,1,216.0,1
575,575,0.4380095075277842,0.4,1.0,1.0,479.0,655.0,1.0,1,236.0,1
576,576,-0.37794572356144074,-0.4,0.0,1.0,293.0,538.0,1.0,0,169.0,1
577,577,0.7504539564574569,0.8,1.0,1.0,398.0,974.0,1.0,1,-182.0,1
578,578,-0.2717576967077111,-0.3,0.0,1.0,337.0,542.0,1.0,0,261.0,1
579,579,0.2586600780438105,0.3,1.0,1.0,287.0,662.0,1.0,1,21.0,1
580,580,0.4972343461391334,0.5,0.0,0.0,299.0,662.0,0.0,1,579.0,1
581,581,-0.4490300700407209,-0.4,0.0,1.0,358.0,609.0,1.0,0,103.0,1
582,582,0.25026126895442424,0.3,1.0,1.0,417.0,590.0,1.0,1,443.0,1
583,583,-0.2456124904170669,-0.2,1.0,0.0,432.0,719.0,0.0,0,1499.0,1
584,584,-0.3453544473401826,-0.3,1.0,0.0,445.0,757.0,0.0,0,1078.0,1
585,585,-0.7405384666693291,-0.7,0.0,1.0,339.0,844.0,1.0,0,127.0,1
586,586,0.2148635397445583,0.2,0.0,0.0,444.0,667.0,0.0,1,1339.0,1
587,587,-0.19360907023535356,-0.2,1.0,0.0,351.0,909.0,1.0,1,430.0,0
588,588,-0.2184591847286239,-0.2,0.0,1.0,273.0,991.0,1.0,0,-84.0,1
589,589,-0.183793810315382,-0.2,1.0,0.0,389.0,736.0,1.0,1,195.0,0
590,590,-0.32780080099045217,-0.3,0.0,1.0,462.0,559.0,1.0,0,89.0,1
591,591,-0.08214014745331433,-0.1,0.0,1.0,352.0,521.0,1.0,0,587.0,1
592,592,-0.40298733927477687,-0.4,1.0,0.0,303.0,618.0,1.0,1,-21.0,0
593,593,-0.3533532934681629,-0.4,1.0,0.0,335.0,784.0,1.0,1,31.0,0
594,594,-0.21268469087878528,-0.2,1.0,0.0,264.0,531.0,0.0,0,165.0,1
595,595,-0.0324285087584012,-0.0,0.0,1.0,388.0,742.0,0.0,1,280.0,0
596,596,-0.4128453571681145,-0.4,1.0,0.0,499.0,542.0,0.0,0,299.0,1
597,597,0.6021571709089483,0.6,1.0,1.0,397.0,507.0,1.0,1,166.0,1
598,598,-0.11513998909910317,-0.1,0.0,1.0,458.0,727.0,1.0,0,235.0,1
599,599,-0.6064385686234843,-0.6,1.0,0.0,352.0,932.0,1.0,1,-264.0,0
600,600,-0.644327650216947,-0.6,1.0,0.0,295.0,528.0,0.0,0,147.0,1
601,601,-0.4803274070831928,-0.5,1.0,0.0,291.0,881.0,0.0,0,248.0,1
602,602,-0.005778327785684434,-0.0,1.0,0.0,420.0,611.0,1.0,1,489.0,0
603,603,0.49640340672705363,0.5,1.0,1.0,302.0,605.0,1.0,1,273.0,1
604,604,-0.8836730013264551,-0.9,1.0,0.0,411.0,843.0,0.0,0,-194.0,1
605,605,0.13806761548207291,0.1,0.0,0.0,404.0,725.0,0.0,1,1951.0,1
606,606,0.4689237871429611,0.5,1.0,1.0,374.0,609.0,0.0,0,-223.0,0
607,607,-0.6029111154000013,-0.6,1.0,0.0,386.0,605.0,0.0,0,189.0,1
608,608,-0.3931529466229249,-0.4,0.0,1.0,365.0,713.0,1.0,0,112.0,1
609,609,-0.27063284998960846,-0.3,0.0,1.0,279.0,645.0,1.0,0,526.0,1
610,610,-0.8681265831522661,-0.9,0.0,1.0,294.0,827.0,1.0,0,69.0,1
611,611,-0.49348048077283424,-0.5,1.0,0.0,339.0,962.0,1.0,1,89.0,0
612,612,-0.10359702581138186,-0.1,1.0,0.0,359.0,570.0,0.0,0,1471.0,1
613,613,-0.22735253160305202,-0.2,1.0,0.0,270.0,993.0,1.0,1,-63.0,0
614,614,0.003141204964462019,0.0,0.0,0.0,460.0,559.0,0.0,1,551.0,1
615,615,0.30362146351927655,0.3,0.0,0.0,281.0,676.0,0.0,1,443.0,1
616,616,0.8451173961594242,0.8,0.0,0.0,363.0,931.0,0.0,1,106.0,1
617,617,0.05611483402752637,0.1,0.0,0.0,450.0,525.0,1.0,0,485.0,0
618,618,0.5233697633170667,0.5,0.0,0.0,470.0,549.0,0.0,1,141.0,1
619,619,-0.45296828068207245,-0.5,1.0,0.0,374.0,943.0,1.0,1,-117.0,0
620,620,0.5910459943997187,0.6,0.0,0.0,365.0,595.0,0.0,1,560.0,1
621,621,0.49070995515591564,0.5,1.0,1.0,312.0,964.0,1.0,1,104.0,1
622,622,0.7610688010371017,0.8,1.0,1.0,494.0,810.0,1.0,1,206.0,1
623,623,-0.09576054804335454,-0.1,0.0,1.0,295.0,875.0,1.0,0,220.0,1
624,624,0.8799917974655401,0.9,0.0,0.0,330.0,951.0,1.0,0,-151.0,0
625,625,0.5045897045264122,0.5,1.0,1.0,359.0,530.0,1.0,1,-19.0,1
626,626,0.1581483469885444,0.2,1.0,1.0,408.0,860.0,0.0,0,-128.0,0
627,627,-0.12351315502451643,-0.1,1.0,0.0,269.0,814.0,1.0,1,-263.0,0
628,628,0.759801157073278,0.8,0.0,0.0,379.0,845.0,0.0,1,286.0,1
629,629,-0.25731986159198605,-0.3,0.0,1.0,481.0,879.0,1.0,0,1030.0,1
630,630,-0.5871839443779391,-0.6,1.0,0.0,407.0,681.0,0.0,0,162.0,1
631,631,-0.06617851074685588,-0.1,1.0,0.0,263.0,745.0,0.0,0,1212.0,1
632,632,-0.7552708639463266,-0.8,0.0,1.0,285.0,787.0,1.0,0,68.0,1
633,633,0.8053443220874218,0.8,1.0,1.0,316.0,899.0,1.0,1,135.0,1
634,634,-0.01368128855948203,-0.0,0.0,1.0,294.0,572.0,0.0,1,244.0,0
635,635,0.08045631523679875,0.1,1.0,1.0,383.0,674.0,1.0,1,323.0,1
636,636,-0.7387777100911724,-0.7,1.0,0.0,392.0,686.0,0.0,0,202.0,1
637,637,-0.06757734635883628,-0.1,0.0,1.0,464.0,721.0,1.0,0,365.0,1
638,638,-0.5826580345345167,-0.6,1.0,0.0,267.0,808.0,0.0,0,225.0,1
639,639,0.038092811980278585,0.0,0.0,0.0,324.0,531.0,1.0,0,2545.0,0
640,640,-0.15101937320830283,-0.2,1.0,0.0,441.0,958.0,0.0,0,181.0,1
641,641,0.7645299839702321,0.8,1.0,1.0,461.0,985.0,1.0,1,-556.0,1
642,642,0.47750661826901053,0.5,0.0,0.0,472.0,786.0,0.0,1,462.0,1
643,643,0.0785087374549297,0.1,1.0,1.0,442.0,733.0,0.0,0,65.0,0
644,644,0.11118247814972293,0.1,0.0,0.0,479.0,824.0,0.0,1,2177.0,1
645,645,-0.8615559741668759,-0.9,0.0,1.0,301.0,658.0,0.0,1,-109.0,0
646,646,-0.2003577781599235,-0.2,1.0,0.0,318.0,619.0,1.0,1,-237.0,0
647,647,-0.8759902423178986,-0.9,1.0,0.0,491.0,806.0,1.0,1,-397.0,0
648,648,-0.12267500214097815,-0.1,0.0,1.0,465.0,859.0,1.0,0,196.0,1
649,649,-0.8794045487417257,-0.9,0.0,1.0,288.0,681.0,0.0,1,-39.0,0
650,650,0.230231498032628,0.2,0.0,0.0,423.0,809.0,0.0,1,1248.0,1
651,651,-0.4517324103599074,-0.5,0.0,1.0,373.0,899.0,1.0,0,-152.0,1
652,652,0.15507159101782075,0.2,0.0,0.0,292.0,794.0,0.0,1,3644.0,1
653,653,0.672560673266002,0.7,1.0,1.0,354.0,740.0,0.0,0,-214.0,0
654,654,-0.6959298757104786,-0.7,0.0,1.0,348.0,539.0,1.0,0,-17.0,1
655,655,0.4386774979290601,0.4,0.0,0.0,293.0,770.0,0.0,1,507.0,1
656,656,-0.43903711781453747,-0.4,0.0,1.0,449.0,945.0,1.0,0,206.0,1
657,657,-0.0926731380911221,-0.1,1.0,0.0,308.0,593.0,0.0,0,4099.0,1
658,658,0.4134823523942689,0.4,0.0,0.0,314.0,639.0,0.0,1,247.0,1
659,659,-0.6895801524188115,-0.7,0.0,1.0,452.0,595.0,1.0,0,243.0,1
660,660,0.7706408291829802,0.8,1.0,1.0,266.0,991.0,1.0,1,113.0,1
661,661,0.02550465387464662,0.0,1.0,1.0,479.0,978.0,1.0,1,373.0,1
662,662,-0.5875590304764347,-0.6,0.0,1.0,460.0,582.0,1.0,0,68.0,1
663,663,-0.4016046953338328,-0.4,1.0,0.0,459.0,616.0,0.0,0,505.0,1
664,664,-0.2970437348151601,-0.3,1.0,0.0,484.0,705.0,1.0,1,-109.0,0
665,665,-0.8372351934157077,-0.8,0.0,1.0,344.0,631.0,1.0,0,125.0,1
666,666,-0.21439626489843466,-0.2,1.0,0.0,297.0,886.0,0.0,0,1587.0,1
667,667,0.8915632981451734,0.9,0.0,0.0,485.0,891.0,1.0,0,-536.0,0
668,668,0.4792664834488217,0.5,1.0,1.0,343.0,798.0,1.0,1,249.0,1
669,669,-0.269359157134059,-0.3,1.0,0.0,458.0,934.0,0.0,0,158.0,1
670,670,0.5649881043011938,0.6,1.0,1.0,382.0,812.0,1.0,1,-34.0,1
671,671,0.8260239626940576,0.8,1.0,1.0,484.0,891.0,1.0,1,195.0,1
672,672,0.7764500813953442,0.8,0.0,0.0,447.0,844.0,0.0,1,399.0,1
673,673,0.8369343254689444,0.8,0.0,0.0,305.0,986.0,0.0,1,429.0,1
674,674,-0.7893921508648696,-0.8,1.0,0.0,304.0,938.0,0.0,0,-742.0,1
675,675,0.1061512181800387,0.1,0.0,0.0,429.0,969.0,1.0,0,1912.0,0
676,676,0.052325620888841406,0.1,0.0,0.0,487.0,990.0,1.0,0,3523.0,0
677,677,-0.6184751686614808,-0.6,1.0,0.0,461.0,514.0,0.0,0,215.0,1
678,678,-0.7655451752480258,-0.8,0.0,1.0,397.0,579.0,1.0,0,214.0,1
679,679,0.8823574685561556,0.9,1.0,1.0,351.0,777.0,1.0,1,212.0,1
680,680,0.1276075030270457,0.1,1.0,1.0,343.0,657.0,1.0,1,120.0,1
681,681,0.569485668340613,0.6,0.0,0.0,310.0,686.0,0.0,1,284.0,1
682,682,0.2182141824042777,0.2,0.0,0.0,369.0,631.0,0.0,1,3140.0,1
683,683,0.47247793247968295,0.5,1.0,1.0,286.0,508.0,1.0,1,256.0,1
684,684,0.5722689706867093,0.6,0.0,0.0,384.0,972.0,1.0,0,-466.0,0
685,685,-0.8031558407838022,-0.8,0.0,1.0,451.0,926.0,1.0,0,-277.0,1
686,686,0.015676781719943134,0.0,0.0,0.0,351.0,879.0,1.0,0,430.0,0
687,687,5.394940874481335e-06,0.0,0.0,0.0,472.0,839.0,1.0,0,709.0,0
688,688,-0.8165761539393257,-0.8,0.0,1.0,347.0,823.0,1.0,0,-170.0,1
689,689,-0.803002088566956,-0.8,0.0,1.0,296.0,702.0,1.0,0,82.0,1
690,690,-0.5020013741808604,-0.5,0.0,1.0,441.0,723.0,1.0,0,-154.0,1
691,691,-0.7921272806659531,-0.8,1.0,0.0,434.0,680.0,1.0,1,-124.0,0
692,692,-0.09710047351349249,-0.1,0.0,1.0,498.0,970.0,1.0,0,802.0,1
693,693,-0.20236437099528848,-0.2,0.0,1.0,324.0,968.0,1.0,0,-112.0,1
694,694,-0.8616901358419041,-0.9,1.0,0.0,350.0,921.0,0.0,0,169.0,1
695,695,-0.35444495991745384,-0.4,1.0,0.0,489.0,695.0,1.0,1,-164.0,0
696,696,0.12943406561011528,0.1,0.0,0.0,494.0,673.0,0.0,1,23.0,1
697,697,0.41467023292628513,0.4,0.0,0.0,451.0,813.0,0.0,1,436.0,1
698,698,-0.030297283689375676,-0.0,1.0,0.0,427.0,757.0,0.0,0,3316.0,1
699,699,-0.7181203427987132,-0.7,1.0,0.0,484.0,958.0,0.0,0,238.0,1
700,700,-0.04407005068948233,-0.0,1.0,0.0,285.0,759.0,0.0,0,716.0,1
701,701,0.8827327625991216,0.9,0.0,0.0,464.0,878.0,0.0,1,188.0,1
702,702,-0.001503921574023126,-0.0,0.0,1.0,312.0,798.0,1.0,0,1270.0,1
703,703,-0.8727998177984644,-0.9,1.0,0.0,410.0,773.0,0.0,0,237.0,1
704,704,-0.8432505599449148,-0.8,0.0,1.0,470.0,876.0,1.0,0,144.0,1
705,705,0.6111275453333028,0.6,1.0,1.0,375.0,927.0,1.0,1,188.0,1
706,706,0.8405004249851084,0.8,1.0,1.0,285.0,802.0,1.0,1,-297.0,1
707,707,0.5627708901706471,0.6,1.0,1.0,304.0,912.0,1.0,1,324.0,1
708,708,-0.1961049773056408,-0.2,1.0,0.0,360.0,560.0,0.0,0,740.0,1
709,709,0.1163449349120339,0.1,1.0,1.0,375.0,715.0,1.0,1,330.0,1
710,710,-0.6833313968383807,-0.7,0.0,1.0,409.0,712.0,1.0,0,249.0,1
711,711,0.22406378151632522,0.2,1.0,1.0,418.0,672.0,1.0,1,520.0,1
712,712,0.4608530799432967,0.5,1.0,1.0,428.0,659.0,1.0,1,433.0,1
713,713,0.3999902432345951,0.4,0.0,0.0,462.0,915.0,0.0,1,543.0,1
714,714,-0.7499633436800809,-0.7,1.0,0.0,410.0,979.0,0.0,0,41.0,1
715,715,-0.7963097166069304,-0.8,1.0,0.0,316.0,550.0,1.0,1,-156.0,0
716,716,-0.5834514923519126,-0.6,1.0,0.0,397.0,615.0,0.0,0,178.0,1
717,717,0.17186119136449796,0.2,0.0,0.0,449.0,690.0,0.0,1,451.0,1
718,718,-0.6948358775330333,-0.7,1.0,0.0,413.0,927.0,1.0,1,-380.0,0
719,719,0.5297771198801621,0.5,0.0,0.0,493.0,849.0,1.0,0,58.0,0
720,720,0.7297031170422553,0.7,0.0,0.0,429.0,649.0,1.0,0,-228.0,0
721,721,-0.465280345970772,-0.5,1.0,0.0,469.0,515.0,0.0,0,146.0,1
722,722,-0.8201450681886764,-0.8,1.0,0.0,405.0,999.0,0.0,0,86.0,1
723,723,0.37251071129471336,0.4,1.0,1.0,306.0,969.0,1.0,1,-65.0,1
724,724,0.13034318701901604,0.1,0.0,0.0,408.0,793.0,1.0,0,-81.0,0
725,725,-0.20722750569005333,-0.2,1.0,0.0,450.0,730.0,0.0,0,-110.0,1
726,726,-0.3745772158775261,-0.4,1.0,0.0,472.0,689.0,0.0,0,749.0,1
727,727,0.5992935089976875,0.6,1.0,1.0,494.0,944.0,1.0,1,-388.0,1
728,728,-0.8338362348176119,-0.8,0.0,1.0,358.0,815.0,1.0,0,107.0,1
729,729,-0.10748989046370627,-0.1,1.0,0.0,398.0,919.0,1.0,1,-337.0,0
730,730,0.5080006267392639,0.5,0.0,0.0,398.0,533.0,0.0,1,479.0,1
731,731,-0.1941725580479795,-0.2,1.0,0.0,304.0,800.0,0.0,0,2076.0,1
732,732,-0.4948308220042524,-0.5,0.0,1.0,355.0,921.0,1.0,0,84.0,1
733,733,0.3805765330788219,0.4,1.0,1.0,350.0,911.0,1.0,1,239.0,1
734,734,0.6949419540632097,0.7,0.0,0.0,353.0,665.0,0.0,1,292.0,1
735,735,-0.1586533632820748,-0.2,1.0,0.0,482.0,961.0,0.0,0,-323.0,1
736,736,-0.35819513320436147,-0.4,0.0,1.0,341.0,901.0,1.0,0,228.0,1
737,737,0.6266305272263092,0.6,1.0,1.0,325.0,784.0,0.0,0,-149.0,0
738,738,-0.44899577282670927,-0.4,0.0,1.0,403.0,985.0,1.0,0,442.0,1
739,739,0.009414267729829673,0.0,1.0,1.0,360.0,938.0,1.0,1,2962.0,1
740,740,-0.35219461071536007,-0.4,0.0,1.0,299.0,723.0,1.0,0,38.0,1
741,741,0.5546545223442315,0.6,1.0,1.0,491.0,975.0,0.0,0,-366.0,0
742,742,-0.39785826721695094,-0.4,0.0,1.0,379.0,505.0,1.0,0,436.0,1
743,743,0.4331307992050447,0.4,0.0,0.0,453.0,828.0,0.0,1,559.0,1
744,744,-0.7975590860199252,-0.8,1.0,0.0,318.0,658.0,0.0,0,194.0,1
745,745,0.8774282719104985,0.9,0.0,0.0,322.0,731.0,0.0,1,397.0,1
746,746,0.4105733616007178,0.4,0.0,0.0,366.0,644.0,0.0,1,650.0,1
747,747,-0.837726771281214,-0.8,1.0,0.0,369.0,896.0,1.0,1,-55.0,0
748,748,0.7437164519248124,0.7,0.0,0.0,456.0,949.0,0.0,1,75.0,1
749,749,0.6738379551064219,0.7,1.0,1.0,352.0,522.0,0.0,0,-204.0,0
750,750,0.11376110532570738,0.1,0.0,0.0,272.0,611.0,0.0,1,1997.0,1
751,751,-0.838612240665728,-0.8,0.0,1.0,419.0,654.0,1.0,0,177.0,1
752,752,-0.041838425032760695,-0.0,1.0,0.0,442.0,730.0,0.0,0,-92.0,1
753,753,-0.055314152962460006,-0.1,0.0,1.0,473.0,965.0,0.0,1,-418.0,0
754,754,-0.5805595773210155,-0.6,0.0,1.0,275.0,867.0,1.0,0,168.0,1
755,755,0.13240279299144098,0.1,0.0,0.0,337.0,958.0,0.0,1,1705.0,1
756,756,-0.6988292292331792,-0.7,1.0,0.0,462.0,923.0,0.0,0,185.0,1
757,757,0.873288101810712,0.9,0.0,0.0,324.0,928.0,0.0,1,268.0,1
758,758,0.3081890439677256,0.3,1.0,1.0,306.0,974.0,1.0,1,350.0,1
759,759,-0.44072037492657395,-0.4,0.0,1.0,446.0,850.0,1.0,0,-346.0,1
760,760,0.17943997172945336,0.2,0.0,0.0,440.0,997.0,1.0,0,-77.0,0
761,761,0.625590782930766,0.6,1.0,1.0,282.0,749.0,1.0,1,-191.0,1
762,762,0.677794826076556,0.7,0.0,0.0,489.0,533.0,0.0,1,418.0,1
763,763,-0.3668660410012957,-0.4,1.0,0.0,405.0,940.0,1.0,1,-115.0,0
764,764,-0.209596178746018,-0.2,0.0,1.0,419.0,645.0,1.0,0,286.0,1
765,765,0.464248375022834,0.5,0.0,0.0,451.0,629.0,0.0,1,560.0,1
766,766,-0.6410837878433364,-0.6,0.0,1.0,471.0,664.0,1.0,0,305.0,1
767,767,0.7116852267463972,0.7,0.0,0.0,255.0,566.0,0.0,1,239.0,1
768,768,-0.6417792792871944,-0.6,1.0,0.0,294.0,910.0,0.0,0,276.0,1
769,769,-0.7521792975880486,-0.8,0.0,1.0,333.0,599.0,1.0,0,128.0,1
770,770,0.47006612885814436,0.5,1.0,1.0,490.0,849.0,1.0,1,391.0,1
771,771,0.6625609733777961,0.7,1.0,1.0,488.0,611.0,1.0,1,141.0,1
772,772,-0.012548841493321694,-0.0,1.0,0.0,426.0,592.0,0.0,0,1882.0,1
773,773,0.40198975859328623,0.4,1.0,1.0,409.0,645.0,1.0,1,166.0,1
774,774,-0.8252976125320889,-0.8,0.0,1.0,259.0,708.0,1.0,0,293.0,1
775,775,0.8952069196539872,0.9,1.0,1.0,428.0,832.0,1.0,1,70.0,1
776,776,0.5887835514204248,0.6,0.0,0.0,477.0,899.0,0.0,1,604.0,1
777,777,-0.4694899978195134,-0.5,0.0,1.0,475.0,996.0,1.0,0,599.0,1
778,778,-0.891050040351155,-0.9,1.0,0.0,389.0,960.0,0.0,0,31.0,1
779,779,-0.056600517437626285,-0.1,1.0,0.0,274.0,828.0,0.0,0,518.0,1
780,780,-0.8717312341669551,-0.9,0.0,1.0,345.0,775.0,1.0,0,170.0,1
781,781,-0.2955218132685651,-0.3,0.0,1.0,331.0,923.0,1.0,0,756.0,1
782,782,0.7860700642575812,0.8,1.0,1.0,450.0,858.0,1.0,1,-128.0,1
783,783,-0.25650750746425444,-0.3,0.0,1.0,346.0,957.0,1.0,0,237.0,1
784,784,-0.5940528334309054,-0.6,1.0,0.0,486.0,519.0,0.0,0,225.0,1
785,785,-0.7035134171489166,-0.7,1.0,0.0,340.0,541.0,0.0,0,259.0,1
786,786,-0.8108285313421505,-0.8,0.0,1.0,311.0,653.0,1.0,0,96.0,1
787,787,0.5439358131051072,0.5,1.0,1.0,365.0,545.0,1.0,1,350.0,1
788,788,-0.6728748982601026,-0.7,1.0,0.0,330.0,902.0,1.0,1,-32.0,0
789,789,-0.2847463732385833,-0.3,0.0,1.0,295.0,662.0,1.0,0,313.0,1
790,790,0.3731020520451488,0.4,1.0,1.0,318.0,605.0,1.0,1,497.0,1
791,791,-0.4001299158056488,-0.4,1.0,0.0,492.0,944.0,0.0,0,-276.0,1
792,792,-0.26202733369797726,-0.3,0.0,1.0,413.0,622.0,1.0,0,285.0,1
793,793,0.3457088470560227,0.3,1.0,1.0,489.0,851.0,1.0,1,270.0,1
794,794,0.46020783111983976,0.5,0.0,0.0,446.0,574.0,0.0,1,240.0,1
795,795,-0.7640490055431498,-0.8,1.0,0.0,346.0,538.0,0.0,0,126.0,1
796,796,0.39701807795362043,0.4,0.0,0.0,314.0,572.0,0.0,1,194.0,1
797,797,-0.8315963977110155,-0.8,0.0,1.0,309.0,954.0,1.0,0,97.0,1
798,798,-0.10263439019368747,-0.1,1.0,0.0,257.0,794.0,1.0,1,1689.0,0
799,799,0.12829746864190816,0.1,0.0,0.0,320.0,623.0,1.0,0,917.0,0
800,800,0.7704315410954407,0.8,1.0,1.0,297.0,885.0,1.0,1,-182.0,1
801,801,-0.85486430980402,-0.9,0.0,1.0,318.0,863.0,0.0,1,-291.0,0
802,802,-0.5322270245644725,-0.5,1.0,0.0,499.0,889.0,0.0,0,292.0,1
803,803,-0.6601027390025589,-0.7,1.0,0.0,304.0,660.0,0.0,0,226.0,1
804,804,0.0031413245298881343,0.0,1.0,1.0,424.0,652.0,1.0,1,684.0,1
805,805,0.2563057985441103,0.3,0.0,0.0,484.0,541.0,0.0,1,1165.0,1
806,806,-0.8314431649296341,-0.8,1.0,0.0,311.0,919.0,0.0,0,-180.0,1
807,807,0.8463073726451865,0.8,1.0,1.0,331.0,622.0,1.0,1,157.0,1
808,808,-0.8718387272115812,-0.9,0.0,1.0,320.0,778.0,1.0,0,-178.0,1
809,809,-0.32507387012003,-0.3,0.0,1.0,397.0,814.0,1.0,0,-441.0,1
810,810,0.5529272990635813,0.6,0.0,0.0,336.0,808.0,0.0,1,446.0,1
811,811,-0.10852955021680344,-0.1,1.0,0.0,413.0,792.0,0.0,0,415.0,1
812,812,0.058945389886185584,0.1,1.0,1.0,279.0,739.0,1.0,1,-188.0,1
813,813,0.028646859195968988,0.0,0.0,0.0,316.0,512.0,1.0,0,972.0,0
814,814,0.3400552503352462,0.3,0.0,0.0,330.0,883.0,0.0,1,517.0,1
815,815,-0.8495211379507362,-0.8,0.0,1.0,382.0,624.0,1.0,0,104.0,1
816,816,-0.6189309624847988,-0.6,1.0,0.0,292.0,683.0,1.0,1,-175.0,0
817,817,0.613127038607714,0.6,1.0,1.0,368.0,966.0,1.0,1,576.0,1
818,818,-0.20836471263931167,-0.2,1.0,0.0,428.0,540.0,0.0,0,462.0,1
819,819,0.5141100792410896,0.5,1.0,1.0,309.0,759.0,1.0,1,142.0,1
820,820,-0.2431898434607671,-0.2,1.0,0.0,481.0,815.0,0.0,0,324.0,1
821,821,-0.3918134796714031,-0.4,1.0,0.0,441.0,580.0,0.0,0,459.0,1
822,822,-0.34361726755518296,-0.3,1.0,0.0,486.0,662.0,1.0,1,32.0,0
823,823,-0.7141058022870556,-0.7,1.0,0.0,323.0,808.0,0.0,0,69.0,1
824,824,-0.8313183139629747,-0.8,1.0,0.0,499.0,932.0,0.0,0,199.0,1
825,825,-0.8346157455675425,-0.8,1.0,0.0,371.0,821.0,1.0,1,-42.0,0
826,826,0.8937314321884772,0.9,1.0,1.0,447.0,977.0,1.0,1,6.0,1
827,827,-0.8074160824687886,-0.8,0.0,1.0,445.0,960.0,1.0,0,245.0,1
828,828,0.843192156139363,0.8,1.0,1.0,299.0,921.0,0.0,0,-70.0,0
829,829,0.7534064103242194,0.8,1.0,1.0,384.0,636.0,1.0,1,120.0,1
830,830,0.21055201333058038,0.2,0.0,0.0,294.0,907.0,0.0,1,399.0,1
831,831,-0.39932598406956654,-0.4,0.0,1.0,415.0,752.0,1.0,0,473.0,1
832,832,0.6126612816276024,0.6,1.0,1.0,419.0,641.0,0.0,0,-270.0,0
833,833,0.3699110134656246,0.4,1.0,1.0,406.0,893.0,1.0,1,71.0,1
834,834,-0.052114958012761003,-0.1,1.0,0.0,321.0,793.0,1.0,1,-24.0,0
835,835,-0.4111251701513044,-0.4,1.0,0.0,353.0,564.0,1.0,1,13.0,0
836,836,0.31469095801057134,0.3,0.0,0.0,334.0,694.0,0.0,1,1522.0,1
837,837,0.791147877846122,0.8,1.0,1.0,290.0,869.0,1.0,1,41.0,1
838,838,0.38008396639347797,0.4,0.0,0.0,454.0,569.0,0.0,1,907.0,1
839,839,-0.7745194638031467,-0.8,0.0,1.0,264.0,534.0,1.0,0,122.0,1
840,840,-0.126604552145702,-0.1,0.0,1.0,409.0,724.0,1.0,0,57.0,1
841,841,0.1185492310127324,0.1,0.0,0.0,329.0,595.0,1.0,0,1196.0,0
842,842,-0.7524156907380934,-0.8,0.0,1.0,319.0,534.0,1.0,0,127.0,1
843,843,-0.5995000397119693,-0.6,1.0,0.0,349.0,797.0,0.0,0,424.0,1
844,844,0.5643907490305701,0.6,0.0,0.0,279.0,745.0,0.0,1,206.0,1
845,845,-0.18875935423826007,-0.2,1.0,0.0,409.0,623.0,1.0,1,-162.0,0
846,846,0.04507251248387889,0.0,0.0,0.0,327.0,578.0,0.0,1,185.0,1
847,847,0.3898455117689016,0.4,1.0,1.0,429.0,523.0,1.0,1,248.0,1
848,848,0.6428461546583838,0.6,0.0,0.0,388.0,724.0,1.0,0,-52.0,0
849,849,0.6322136964080939,0.6,1.0,1.0,267.0,820.0,1.0,1,-247.0,1
850,850,-0.25992735731199756,-0.3,0.0,1.0,307.0,783.0,1.0,0,680.0,1
851,851,-0.1373631418751574,-0.1,0.0,1.0,344.0,762.0,1.0,0,44.0,1
852,852,0.6539757157064593,0.7,1.0,1.0,361.0,845.0,1.0,1,234.0,1
853,853,-0.23668007799292068,-0.2,0.0,1.0,401.0,775.0,1.0,0,-66.0,1
854,854,-0.8262843465263765,-0.8,1.0,0.0,320.0,760.0,1.0,1,-110.0,0
855,855,-0.33437076583995273,-0.3,0.0,1.0,382.0,895.0,1.0,0,-367.0,1
856,856,-0.7194714821326236,-0.7,1.0,0.0,316.0,725.0,0.0,0,79.0,1
857,857,0.6434822706193427,0.6,0.0,0.0,263.0,999.0,0.0,1,-92.0,1
858,858,0.7779131115733912,0.8,1.0,1.0,498.0,579.0,1.0,1,-67.0,1
859,859,-0.6327433259828792,-0.6,1.0,0.0,366.0,691.0,0.0,0,93.0,1
860,860,-0.3242100570430624,-0.3,0.0,1.0,493.0,598.0,1.0,0,709.0,1
861,861,-0.7904804227818749,-0.8,1.0,0.0,253.0,830.0,0.0,0,47.0,1
862,862,0.8785175090634493,0.9,1.0,1.0,256.0,720.0,1.0,1,134.0,1
863,863,0.817981339325523,0.8,0.0,0.0,350.0,998.0,0.0,1,202.0,1
864,864,0.26362590500775507,0.3,1.0,1.0,302.0,769.0,0.0,0,-221.0,0
865,865,0.42459602960007936,0.4,1.0,1.0,354.0,552.0,1.0,1,144.0,1
866,866,0.815509770423357,0.8,0.0,0.0,360.0,594.0,0.0,1,76.0,1
867,867,-0.3261231684525605,-0.3,0.0,1.0,460.0,600.0,1.0,0,90.0,1
868,868,-0.5386617062399965,-0.5,0.0,1.0,385.0,601.0,1.0,0,114.0,1
869,869,-0.10267717999358783,-0.1,1.0,0.0,323.0,549.0,0.0,0,1278.0,1
870,870,-0.8915244933239126,-0.9,1.0,0.0,309.0,657.0,0.0,0,244.0,1
871,871,-0.4417496666303884,-0.4,1.0,0.0,389.0,657.0,0.0,0,154.0,1
872,872,0.04605426221840658,0.0,1.0,1.0,347.0,760.0,1.0,1,503.0,1
873,873,0.05315014106947136,0.1,0.0,0.0,424.0,788.0,0.0,1,3078.0,1
874,874,0.21736778997546902,0.2,1.0,1.0,422.0,803.0,0.0,0,-335.0,0
875,875,-0.24261255968242545,-0.2,0.0,1.0,265.0,801.0,1.0,0,-46.0,1
876,876,0.8360162253864448,0.8,0.0,0.0,258.0,783.0,1.0,0,-291.0,0
877,877,0.5962292271144257,0.6,1.0,1.0,397.0,752.0,1.0,1,261.0,1
878,878,0.4721039376354924,0.5,0.0,0.0,400.0,750.0,0.0,1,350.0,1
879,879,0.23143639214656753,0.2,1.0,1.0,397.0,759.0,0.0,0,-316.0,0
880,880,-0.1592441410429778,-0.2,1.0,0.0,304.0,738.0,1.0,1,-292.0,0
881,881,0.13831743450553768,0.1,0.0,0.0,310.0,520.0,0.0,1,4170.0,1
882,882,0.8274598309009104,0.8,0.0,0.0,310.0,861.0,0.0,1,199.0,1
883,883,0.8286165072708073,0.8,0.0,0.0,255.0,706.0,0.0,1,179.0,1
884,884,-0.2816816330033578,-0.3,1.0,0.0,340.0,919.0,0.0,0,-219.0,1
885,885,-0.18071290014376018,-0.2,1.0,0.0,301.0,712.0,0.0,0,1247.0,1
886,886,-0.8432511774801553,-0.8,1.0,0.0,473.0,749.0,0.0,0,178.0,1
887,887,0.42427873119602555,0.4,0.0,0.0,322.0,994.0,0.0,1,274.0,1
888,888,-0.5577660256082138,-0.6,1.0,0.0,278.0,686.0,0.0,0,276.0,1
889,889,0.10285742446458379,0.1,0.0,0.0,464.0,903.0,1.0,0,693.0,0
890,890,0.37509142193868217,0.4,1.0,1.0,410.0,532.0,1.0,1,288.0,1
891,891,0.700625007539344,0.7,1.0,1.0,458.0,675.0,0.0,0,-363.0,0
892,892,0.7164992468302723,0.7,0.0,0.0,312.0,607.0,0.0,1,81.0,1
893,893,0.4200046734881543,0.4,0.0,0.0,395.0,561.0,1.0,0,-76.0,0
894,894,0.48356473878855344,0.5,1.0,1.0,325.0,943.0,0.0,0,-178.0,0
895,895,0.7652126834431768,0.8,0.0,0.0,366.0,608.0,0.0,1,296.0,1
896,896,-0.35492545829744826,-0.4,1.0,0.0,299.0,977.0,0.0,0,174.0,1
897,897,-0.8313412098896211,-0.8,0.0,1.0,441.0,726.0,1.0,0,43.0,1
898,898,-0.5242029200170623,-0.5,1.0,0.0,455.0,513.0,0.0,0,412.0,1
899,899,-0.10659617541906674,-0.1,1.0,0.0,346.0,530.0,0.0,0,334.0,1
900,900,-0.8975670731438612,-0.9,1.0,0.0,370.0,846.0,1.0,1,-416.0,0
901,901,-0.7190024842590144,-0.7,1.0,0.0,464.0,725.0,0.0,0,191.0,1
902,902,-0.867088918293584,-0.9,1.0,0.0,339.0,726.0,0.0,0,135.0,1
903,903,0.3161984622864936,0.3,1.0,1.0,494.0,940.0,1.0,1,96.0,1
904,904,-0.6429518999071406,-0.6,0.0,1.0,330.0,641.0,1.0,0,109.0,1
905,905,-0.7630281961386645,-0.8,1.0,0.0,408.0,578.0,0.0,0,174.0,1
906,906,-0.5502534196139786,-0.6,1.0,0.0,479.0,690.0,1.0,1,-299.0,0
907,907,-0.8398591210566494,-0.8,1.0,0.0,466.0,534.0,0.0,0,100.0,1
908,908,0.6523437118708858,0.7,1.0,1.0,443.0,901.0,1.0,1,236.0,1
909,909,0.8906872121316217,0.9,1.0,1.0,280.0,575.0,1.0,1,145.0,1
910,910,0.27391061550129436,0.3,1.0,1.0,368.0,523.0,0.0,0,-1.0,0
911,911,-0.5257382078903909,-0.5,0.0,1.0,488.0,919.0,1.0,0,-427.0,1
912,912,0.7265552602748228,0.7,1.0,1.0,348.0,540.0,1.0,1,142.0,1
913,913,0.7007903241648538,0.7,1.0,1.0,399.0,607.0,1.0,1,114.0,1
914,914,0.7651809793841952,0.8,0.0,0.0,449.0,679.0,0.0,1,692.0,1
915,915,-0.5627818346761317,-0.6,0.0,1.0,499.0,651.0,1.0,0,220.0,1
916,916,0.4546661264786588,0.5,1.0,1.0,260.0,516.0,1.0,1,194.0,1
917,917,-0.6205868425398524,-0.6,1.0,0.0,429.0,754.0,0.0,0,197.0,1
918,918,-0.813411999309169,-0.8,1.0,0.0,346.0,730.0,0.0,0,84.0,1
919,919,0.05997241825991673,0.1,1.0,1.0,424.0,811.0,1.0,1,285.0,1
920,920,-0.8322475247498787,-0.8,1.0,0.0,472.0,930.0,0.0,0,218.0,1
921,921,0.07088711348614607,0.1,0.0,0.0,399.0,515.0,1.0,0,1346.0,0
922,922,0.3176011638295758,0.3,1.0,1.0,260.0,548.0,1.0,1,252.0,1
923,923,-0.2958611734865949,-0.3,1.0,0.0,306.0,747.0,0.0,0,427.0,1
924,924,0.7520872271681146,0.8,1.0,1.0,477.0,627.0,1.0,1,156.0,1
925,925,-0.8968937075091639,-0.9,1.0,0.0,251.0,632.0,0.0,0,157.0,1
926,926,0.23365020749312515,0.2,1.0,1.0,296.0,646.0,1.0,1,488.0,1
927,927,0.521581340587619,0.5,1.0,1.0,482.0,816.0,1.0,1,2.0,1
928,928,0.598541633318418,0.6,0.0,0.0,422.0,765.0,0.0,1,173.0,1
929,929,0.604972136146629,0.6,1.0,1.0,411.0,822.0,1.0,1,77.0,1
930,930,0.07732967979260819,0.1,1.0,1.0,294.0,680.0,0.0,0,176.0,0
931,931,0.5295696394769102,0.5,1.0,1.0,288.0,706.0,1.0,1,6.0,1
932,932,-0.021141706892618295,-0.0,1.0,0.0,470.0,995.0,0.0,0,-725.0,1
933,933,0.017743694409620092,0.0,0.0,0.0,293.0,709.0,1.0,0,778.0,0
934,934,0.5247765143092135,0.5,1.0,1.0,291.0,521.0,1.0,1,218.0,1
935,935,-0.7430137580784446,-0.7,0.0,1.0,384.0,868.0,1.0,0,138.0,1
936,936,0.6756342983099523,0.7,0.0,0.0,442.0,744.0,0.0,1,174.0,1
937,937,-0.022066095999912938,-0.0,1.0,0.0,361.0,700.0,1.0,1,359.0,0
938,938,0.8551797525983783,0.9,1.0,1.0,330.0,574.0,1.0,1,196.0,1
939,939,0.2046379585584649,0.2,0.0,0.0,491.0,925.0,0.0,1,1764.0,1
940,940,-0.57352199505518,-0.6,0.0,1.0,435.0,852.0,1.0,0,-517.0,1
941,941,0.06932702192865503,0.1,1.0,1.0,349.0,637.0,1.0,1,804.0,1
942,942,0.5033770710795192,0.5,1.0,1.0,311.0,973.0,1.0,1,-224.0,1
943,943,0.05120668456733213,0.1,1.0,1.0,473.0,646.0,1.0,1,341.0,1
944,944,-0.1947409635127898,-0.2,1.0,0.0,468.0,533.0,0.0,0,769.0,1
945,945,-0.46931015665653797,-0.5,1.0,0.0,350.0,615.0,0.0,0,585.0,1
946,946,0.597989974002861,0.6,0.0,0.0,286.0,596.0,0.0,1,118.0,1
947,947,-0.2428017900390299,-0.2,1.0,0.0,420.0,761.0,0.0,0,-231.0,1
948,948,-0.3739543524706562,-0.4,0.0,1.0,273.0,955.0,1.0,0,132.0,1
949,949,0.11562003193183668,0.1,0.0,0.0,412.0,911.0,0.0,1,-323.0,1
950,950,-0.5359015016247799,-0.5,0.0,1.0,268.0,785.0,1.0,0,327.0,1
951,951,-0.18892295795164926,-0.2,1.0,0.0,289.0,787.0,1.0,1,-316.0,0
952,952,0.28763869960179866,0.3,0.0,0.0,481.0,640.0,0.0,1,2129.0,1
953,953,0.2587696513296368,0.3,1.0,1.0,281.0,891.0,1.0,1,-2.0,1
954,954,-0.8036099015603156,-0.8,0.0,1.0,290.0,989.0,1.0,0,81.0,1
955,955,0.7616127786934089,0.8,1.0,1.0,428.0,873.0,1.0,1,109.0,1
956,956,-0.14412305489773147,-0.1,0.0,1.0,254.0,816.0,1.0,0,1400.0,1
957,957,0.38693482509547883,0.4,0.0,0.0,298.0,734.0,0.0,1,1838.0,1
958,958,-0.34735729959522765,-0.3,0.0,1.0,275.0,585.0,1.0,0,230.0,1
959,959,0.8826214128168631,0.9,0.0,0.0,350.0,778.0,0.0,1,202.0,1
960,960,0.1393616450700349,0.1,0.0,0.0,254.0,553.0,0.0,1,1573.0,1
961,961,0.39830226851505535,0.4,0.0,0.0,266.0,941.0,0.0,1,283.0,1
962,962,-0.10997355000952314,-0.1,0.0,1.0,380.0,817.0,1.0,0,-117.0,1
963,963,0.39632523434695244,0.4,0.0,0.0,422.0,914.0,0.0,1,244.0,1
964,964,-0.642559848841975,-0.6,1.0,0.0,376.0,946.0,0.0,0,198.0,1
965,965,0.4419528540224741,0.4,0.0,0.0,328.0,915.0,1.0,0,-93.0,0
966,966,-0.49112052024920194,-0.5,0.0,1.0,323.0,648.0,1.0,0,-231.0,1
967,967,-0.8835426249681282,-0.9,1.0,0.0,340.0,778.0,0.0,0,202.0,1
968,968,0.41664283410712477,0.4,1.0,1.0,385.0,655.0,1.0,1,130.0,1
969,969,-0.5090930782135115,-0.5,1.0,0.0,289.0,907.0,0.0,0,194.0,1
970,970,0.11753140526692929,0.1,1.0,1.0,287.0,974.0,0.0,0,-411.0,0
971,971,-0.8246043031682934,-0.8,1.0,0.0,499.0,855.0,0.0,0,96.0,1
972,972,0.8379380821697017,0.8,0.0,0.0,252.0,732.0,0.0,1,156.0,1
973,973,0.4572032131119398,0.5,0.0,0.0,270.0,642.0,0.0,1,288.0,1
974,974,-0.5583784065223034,-0.6,0.0,1.0,330.0,552.0,1.0,0,128.0,1
975,975,0.6658627833147422,0.7,1.0,1.0,422.0,577.0,1.0,1,231.0,1
976,976,0.4577343550916343,0.5,0.0,0.0,335.0,900.0,1.0,0,-375.0,0
977,977,-0.012962024785675874,-0.0,1.0,0.0,270.0,743.0,1.0,1,97.0,0
978,978,-0.13614452040833125,-0.1,1.0,0.0,408.0,536.0,0.0,0,836.0,1
979,979,0.08936664929810079,0.1,0.0,0.0,276.0,543.0,1.0,0,-159.0,0
980,980,0.39578883532085085,0.4,0.0,0.0,450.0,654.0,0.0,1,706.0,1
981,981,-0.8029706183530224,-0.8,0.0,1.0,480.0,619.0,1.0,0,161.0,1
982,982,0.8945237775953016,0.9,1.0,1.0,486.0,574.0,1.0,1,180.0,1
983,983,-0.5728593260971477,-0.6,0.0,1.0,495.0,915.0,1.0,0,-390.0,1
984,984,0.8156931151242083,0.8,0.0,0.0,365.0,950.0,0.0,1,185.0,1
985,985,0.5580744197174282,0.6,1.0,1.0,299.0,831.0,0.0,0,-80.0,0
986,986,0.37794207137408453,0.4,1.0,1.0,381.0,874.0,1.0,1,-265.0,1
987,987,0.0017596859633922657,0.0,0.0,0.0,302.0,927.0,1.0,0,2341.0,0
988,988,-0.610902279943236,-0.6,0.0,1.0,438.0,575.0,1.0,0,537.0,1
989,989,0.13010238004206787,0.1,0.0,0.0,349.0,876.0,0.0,1,3775.0,1
990,990,0.5354092442231134,0.5,0.0,0.0,344.0,513.0,0.0,1,283.0,1
991,991,0.2852370869134532,0.3,0.0,0.0,329.0,507.0,0.0,1,1014.0,1
992,992,0.0894968385798166,0.1,0.0,0.0,474.0,753.0,0.0,1,423.0,1
993,993,-0.05333998892999736,-0.1,0.0,1.0,276.0,656.0,1.0,0,18.0,1
994,994,-0.2985115495240622,-0.3,0.0,1.0,272.0,730.0,1.0,0,178.0,1
995,995,0.11893157540768196,0.1,0.0,0.0,269.0,937.0,0.0,1,3794.0,1
996,996,-0.7876975882698883,-0.8,0.0,1.0,393.0,962.0,1.0,0,275.0,1
997,997,0.005987193782903022,0.0,0.0,0.0,459.0,805.0,1.0,0,136.0,0
998,998,0.732599302439446,0.7,0.0,0.0,278.0,735.0,0.0,1,-43.0,1
999,999,0.036866345825845026,0.0,1.0,1.0,259.0,686.0,1.0,1,1285.0,1
1000,1000,-0.851760441897197,-0.9,1.0,0.0,462.0,922.0,0.0,0,216.0,1
1001,1001,-0.003768421606705208,-0.0,1.0,0.0,304.0,796.0,1.0,1,550.0,0
1002,1002,-0.4586136211408996,-0.5,0.0,1.0,372.0,644.0,1.0,0,324.0,1
1003,1003,0.8962666424241742,0.9,1.0,1.0,390.0,736.0,1.0,1,244.0,1
1004,1004,-0.18732301268200802,-0.2,0.0,1.0,287.0,559.0,1.0,0,394.0,1
1005,1005,-0.36921484770027635,-0.4,0.0,1.0,475.0,671.0,1.0,0,-186.0,1
1006,1006,0.3282131251159245,0.3,1.0,1.0,473.0,638.0,1.0,1,349.0,1
1007,1007,-0.689079366714875,-0.7,0.0,1.0,474.0,719.0,1.0,0,97.0,1
1008,1008,0.7095390986956286,0.7,1.0,1.0,304.0,846.0,1.0,1,-420.0,1
1009,1009,0.6203724094653883,0.6,1.0,1.0,300.0,554.0,1.0,1,266.0,1
1010,1010,0.1880225499845719,0.2,0.0,0.0,331.0,534.0,0.0,1,155.0,1
1011,1011,0.2776928309712666,0.3,1.0,1.0,365.0,767.0,1.0,1,-392.0,1
1012,1012,0.12648309821683668,0.1,1.0,1.0,310.0,875.0,1.0,1,95.0,1
1013,1013,-0.10658816069245602,-0.1,1.0,0.0,263.0,837.0,1.0,1,620.0,0
1014,1014,0.7880731769862425,0.8,1.0,1.0,409.0,557.0,1.0,1,124.0,1
1015,1015,-0.19974040786702574,-0.2,0.0,1.0,250.0,675.0,1.0,0,145.0,1
1016,1016,-0.6591317898205711,-0.7,1.0,0.0,281.0,763.0,1.0,1,-174.0,0
1017,1017,0.49185009126803003,0.5,1.0,1.0,434.0,826.0,1.0,1,50.0,1
1018,1018,0.5992331562893379,0.6,0.0,0.0,478.0,570.0,0.0,1,382.0,1
1019,1019,0.030068331295081685,0.0,1.0,1.0,392.0,937.0,1.0,1,1191.0,1
1020,1020,-0.10254703713720703,-0.1,0.0,1.0,350.0,856.0,0.0,1,-106.0,0
1021,1021,-0.1442862347190178,-0.1,1.0,0.0,398.0,570.0,0.0,0,1002.0,1
1022,1022,-0.46387928169444476,-0.5,1.0,0.0,431.0,626.0,0.0,0,393.0,1
1023,1023,0.3330020758367659,0.3,1.0,1.0,489.0,824.0,1.0,1,337.0,1
1024,1024,-0.0526973367732968,-0.1,0.0,1.0,404.0,913.0,1.0,0,93.0,1
1025,1025,-0.6922543951674195,-0.7,0.0,1.0,285.0,847.0,1.0,0,-242.0,1
1026,1026,-0.5641757810370558,-0.6,1.0,0.0,371.0,528.0,0.0,0,191.0,1
1027,1027,-0.8823065023653963,-0.9,1.0,0.0,470.0,692.0,0.0,0,168.0,1
1028,1028,0.10536836554304896,0.1,0.0,0.0,447.0,748.0,1.0,0,-155.0,0
1029,1029,-0.7185660653027777,-0.7,0.0,1.0,323.0,546.0,1.0,0,-99.0,1
1030,1030,0.6332455009470582,0.6,1.0,1.0,460.0,657.0,1.0,1,253.0,1
1031,1031,0.7111530225525836,0.7,1.0,1.0,412.0,944.0,1.0,1,-456.0,1
1032,1032,0.4788070163320056,0.5,0.0,0.0,307.0,679.0,1.0,0,-96.0,0
1033,1033,-0.5487001790553401,-0.5,0.0,1.0,288.0,565.0,1.0,0,147.0,1
1034,1034,-0.8930705597171967,-0.9,1.0,0.0,341.0,701.0,0.0,0,158.0,1
1035,1035,-0.18820323394603344,-0.2,0.0,1.0,303.0,992.0,1.0,0,665.0,1
1036,1036,-0.32788140128562526,-0.3,0.0,1.0,292.0,643.0,1.0,0,55.0,1
1037,1037,-0.5294374572725924,-0.5,0.0,1.0,356.0,500.0,1.0,0,264.0,1
1038,1038,0.12333510000164682,0.1,0.0,0.0,409.0,984.0,1.0,0,667.0,0
1039,1039,-0.28601822355909035,-0.3,0.0,1.0,483.0,523.0,1.0,0,504.0,1
1040,1040,-0.007518856307314192,-0.0,1.0,0.0,303.0,542.0,0.0,0,3975.0,1
1041,1041,0.7738340667921167,0.8,0.0,0.0,251.0,637.0,0.0,1,192.0,1
1042,1042,0.17611970807085642,0.2,1.0,1.0,389.0,751.0,1.0,1,140.0,1
1043,1043,-0.33231683301754333,-0.3,0.0,1.0,434.0,978.0,1.0,0,398.0,1
1044,1044,-0.6500629400155781,-0.7,0.0,1.0,328.0,685.0,1.0,0,-93.0,1
1045,1045,-0.6550346348624837,-0.7,0.0,1.0,460.0,690.0,1.0,0,-150.0,1
1046,1046,-0.4639362249903403,-0.5,0.0,1.0,285.0,894.0,1.0,0,121.0,1
1047,1047,0.8096116403354569,0.8,1.0,1.0,319.0,883.0,1.0,1,128.0,1
1048,1048,-0.2593728419546172,-0.3,1.0,0.0,295.0,891.0,0.0,0,424.0,1
1049,1049,-0.8865775753709573,-0.9,0.0,1.0,321.0,750.0,0.0,1,-121.0,0
1050,1050,0.162551708240955,0.2,1.0,1.0,330.0,783.0,1.0,1,187.0,1
1051,1051,0.4582968871802321,0.5,1.0,1.0,466.0,882.0,1.0,1,122.0,1
1052,1052,-0.6843917285455925,-0.7,1.0,0.0,496.0,723.0,0.0,0,151.0,1
1053,1053,0.3960240300828409,0.4,0.0,0.0,334.0,661.0,1.0,0,-5.0,0
1054,1054,0.2854671283268245,0.3,1.0,1.0,382.0,972.0,1.0,1,226.0,1
1055,1055,-0.8230425328987679,-0.8,1.0,0.0,262.0,781.0,1.0,1,-183.0,0
1056,1056,0.276280279968406,0.3,1.0,1.0,288.0,768.0,1.0,1,544.0,1
1057,1057,-0.8030821439659728,-0.8,0.0,1.0,459.0,830.0,1.0,0,-149.0,1
1058,1058,-0.6293805663731833,-0.6,1.0,0.0,438.0,569.0,0.0,0,253.0,1
1059,1059,-0.050208276179010025,-0.1,1.0,0.0,328.0,551.0,0.0,0,291.0,1
1060,1060,0.7004562695475135,0.7,1.0,1.0,310.0,953.0,1.0,1,157.0,1
1061,1061,0.7384714086431713,0.7,1.0,1.0,407.0,577.0,1.0,1,116.0,1
1062,1062,0.0213794262235526,0.0,0.0,0.0,389.0,809.0,1.0,0,1572.0,0
1063,1063,-0.37266493288945746,-0.4,0.0,1.0,398.0,912.0,1.0,0,150.0,1
1064,1064,-0.024507330250250647,-0.0,0.0,1.0,416.0,848.0,1.0,0,916.0,1
1065,1065,0.848185242923505,0.8,1.0,1.0,469.0,625.0,1.0,1,286.0,1
1066,1066,-0.6142589323873461,-0.6,1.0,0.0,289.0,599.0,0.0,0,452.0,1
1067,1067,0.46333349146981007,0.5,1.0,1.0,261.0,529.0,1.0,1,280.0,1
1068,1068,-0.30109648887422025,-0.3,1.0,0.0,359.0,680.0,0.0,0,1011.0,1
1069,1069,0.6639129802872686,0.7,1.0,1.0,252.0,759.0,1.0,1,39.0,1
1070,1070,0.6949997695301741,0.7,0.0,0.0,373.0,728.0,0.0,1,249.0,1
1071,1071,0.6538259917127557,0.7,1.0,1.0,428.0,963.0,1.0,1,79.0,1
1072,1072,-0.7500425849092085,-0.8,1.0,0.0,350.0,624.0,0.0,0,146.0,1
1073,1073,0.40227796310082453,0.4,0.0,0.0,428.0,857.0,0.0,1,155.0,1
1074,1074,-0.6113600766667783,-0.6,1.0,0.0,427.0,970.0,0.0,0,-167.0,1
1075,1075,-0.3473704312043979,-0.3,1.0,0.0,406.0,791.0,1.0,1,13.0,0
1076,1076,0.04991245812113165,0.0,0.0,0.0,467.0,607.0,1.0,0,886.0,0
1077,1077,-0.7236477001245651,-0.7,1.0,0.0,355.0,951.0,0.0,0,254.0,1
1078,1078,-0.02905449464523302,-0.0,1.0,0.0,467.0,857.0,1.0,1,606.0,0
1079,1079,0.034322393981531474,0.0,0.0,0.0,404.0,692.0,1.0,0,-56.0,0
1080,1080,-0.21306823888351079,-0.2,0.0,1.0,464.0,826.0,1.0,0,110.0,1
1081,1081,0.006726490672710805,0.0,1.0,1.0,370.0,591.0,1.0,1,959.0,1
1082,1082,-0.27553482552485664,-0.3,1.0,0.0,251.0,673.0,0.0,0,516.0,1
1083,1083,-0.08116430161577426,-0.1,1.0,0.0,389.0,884.0,0.0,0,-63.0,1
1084,1084,-0.017921424144477394,-0.0,0.0,1.0,348.0,972.0,1.0,0,-610.0,1
1085,1085,0.08205674091517257,0.1,0.0,0.0,457.0,708.0,0.0,1,3465.0,1
1086,1086,-0.7123709307719404,-0.7,1.0,0.0,374.0,872.0,0.0,0,324.0,1
1087,1087,-0.15657787222340946,-0.2,1.0,0.0,322.0,621.0,0.0,0,627.0,1
1088,1088,0.8394057241427401,0.8,0.0,0.0,296.0,949.0,1.0,0,-225.0,0
1089,1089,0.8605508016585074,0.9,1.0,1.0,345.0,533.0,1.0,1,72.0,1
1090,1090,-0.8872246872685587,-0.9,1.0,0.0,429.0,849.0,1.0,1,-468.0,0
1091,1091,0.2920315486953441,0.3,1.0,1.0,350.0,800.0,1.0,1,110.0,1
1092,1092,-0.7406502563384705,-0.7,0.0,1.0,268.0,743.0,1.0,0,329.0,1
1093,1093,0.4536475989421259,0.5,1.0,1.0,267.0,599.0,1.0,1,164.0,1
1094,1094,-0.8974158875143016,-0.9,1.0,0.0,307.0,807.0,0.0,0,316.0,1
1095,1095,0.7224724116150308,0.7,0.0,0.0,297.0,506.0,0.0,1,337.0,1
1096,1096,0.08872829230893742,0.1,0.0,0.0,403.0,785.0,1.0,0,-98.0,0
1097,1097,-0.31539984252422726,-0.3,0.0,1.0,269.0,952.0,0.0,1,-251.0,0
1098,1098,-0.15323465285313587,-0.2,1.0,0.0,254.0,681.0,0.0,0,-5.0,1
1099,1099,0.4591021485213157,0.5,1.0,1.0,307.0,887.0,1.0,1,366.0,1
1100,1100,-0.8845104604025721,-0.9,0.0,1.0,483.0,616.0,0.0,1,1.0,0
1101,1101,-0.20155452247582584,-0.2,1.0,0.0,488.0,519.0,0.0,0,693.0,1
1102,1102,0.7100450245359547,0.7,0.0,0.0,462.0,927.0,0.0,1,351.0,1
1103,1103,-0.1421610712312208,-0.1,0.0,1.0,273.0,624.0,1.0,0,133.0,1
1104,1104,-0.7459988417633425,-0.7,1.0,0.0,333.0,654.0,0.0,0,123.0,1
1105,1105,-0.8166986494551713,-0.8,0.0,1.0,314.0,508.0,1.0,0,-72.0,1
1106,1106,0.053535500246335355,0.1,1.0,1.0,476.0,679.0,1.0,1,435.0,1
1107,1107,0.6545246598804461,0.7,1.0,1.0,314.0,960.0,0.0,0,-374.0,0
1108,1108,-0.07481318173387042,-0.1,0.0,1.0,393.0,524.0,0.0,1,723.0,0
1109,1109,0.2380427961362529,0.2,1.0,1.0,379.0,712.0,1.0,1,599.0,1
1110,1110,-0.4664192594635395,-0.5,0.0,1.0,488.0,745.0,1.0,0,27.0,1
1111,1111,0.01336218104450515,0.0,0.0,0.0,429.0,667.0,1.0,0,54.0,0
1112,1112,-0.008799315118853457,-0.0,0.0,1.0,340.0,887.0,1.0,0,1513.0,1
1113,1113,-0.44569849500495723,-0.4,0.0,1.0,405.0,544.0,1.0,0,201.0,1
1114,1114,0.17451307709425612,0.2,0.0,0.0,398.0,925.0,0.0,1,437.0,1
1115,1115,-0.20386692553683505,-0.2,1.0,0.0,466.0,567.0,0.0,0,667.0,1
1116,1116,-0.2935314460142643,-0.3,0.0,1.0,492.0,892.0,1.0,0,246.0,1
1117,1117,-0.8005442071232879,-0.8,0.0,1.0,256.0,932.0,1.0,0,62.0,1
1118,1118,0.8295481687662593,0.8,1.0,1.0,304.0,629.0,1.0,1,177.0,1
1119,1119,0.2149339888500471,0.2,0.0,0.0,289.0,535.0,0.0,1,786.0,1
1120,1120,-0.6622379441725574,-0.7,1.0,0.0,313.0,995.0,0.0,0,112.0,1
1121,1121,0.1615832982860378,0.2,0.0,0.0,477.0,834.0,0.0,1,3089.0,1
1122,1122,0.2716494207198318,0.3,0.0,0.0,378.0,584.0,0.0,1,3248.0,1
1123,1123,0.2302778863540237,0.2,0.0,0.0,372.0,780.0,0.0,1,78.0,1
1124,1124,-0.00046382608925521485,-0.0,1.0,0.0,453.0,741.0,0.0,0,-354.0,1
1125,1125,-0.043467180657177806,-0.0,0.0,1.0,393.0,770.0,1.0,0,547.0,1
1126,1126,-0.5283121421498463,-0.5,1.0,0.0,492.0,890.0,0.0,0,88.0,1
1127,1127,-0.6518764351946698,-0.7,1.0,0.0,382.0,878.0,0.0,0,-310.0,1
1128,1128,-0.06698022687593463,-0.1,1.0,0.0,314.0,512.0,0.0,0,604.0,1
1129,1129,0.6896854307806922,0.7,1.0,1.0,380.0,714.0,1.0,1,96.0,1
1130,1130,0.6308327897665597,0.6,1.0,1.0,439.0,773.0,1.0,1,-202.0,1
1131,1131,0.18518714006276038,0.2,0.0,0.0,287.0,515.0,0.0,1,258.0,1
1132,1132,-0.2740537788441274,-0.3,0.0,1.0,433.0,865.0,1.0,0,242.0,1
1133,1133,0.20719287869657277,0.2,1.0,1.0,319.0,920.0,0.0,0,-139.0,0
1134,1134,0.250647046561851,0.3,1.0,1.0,297.0,998.0,1.0,1,285.0,1
1135,1135,0.5969541349097577,0.6,1.0,1.0,486.0,719.0,1.0,1,45.0,1
1136,1136,0.7658344730491963,0.8,1.0,1.0,419.0,816.0,1.0,1,-445.0,1
1137,1137,-0.01426779678206469,-0.0,0.0,1.0,378.0,536.0,1.0,0,456.0,1
1138,1138,-0.16227136851012536,-0.2,0.0,1.0,418.0,902.0,1.0,0,880.0,1
1139,1139,0.15779827343120234,0.2,1.0,1.0,436.0,547.0,1.0,1,777.0,1
1140,1140,0.06398205326528428,0.1,0.0,0.0,372.0,856.0,0.0,1,1022.0,1
1141,1141,0.2215944750608455,0.2,0.0,0.0,301.0,658.0,0.0,1,2131.0,1
1142,1142,0.8612198816637143,0.9,0.0,0.0,277.0,973.0,0.0,1,160.0,1
1143,1143,0.22061081597054522,0.2,1.0,1.0,374.0,838.0,1.0,1,578.0,1
1144,1144,0.7542244628403331,0.8,1.0,1.0,278.0,864.0,1.0,1,248.0,1
1145,1145,-0.06796854708570277,-0.1,0.0,1.0,425.0,605.0,0.0,1,1550.0,0
1146,1146,-0.832609958114341,-0.8,0.0,1.0,424.0,649.0,1.0,0,227.0,1
1147,1147,0.5761145679241572,0.6,1.0,1.0,339.0,812.0,1.0,1,309.0,1
1148,1148,-0.6398447935792998,-0.6,1.0,0.0,470.0,501.0,0.0,0,309.0,1
1149,1149,0.4582068815772108,0.5,0.0,0.0,319.0,507.0,0.0,1,814.0,1
1150,1150,0.5724760013229463,0.6,1.0,1.0,269.0,682.0,1.0,1,259.0,1
1151,1151,-0.8508825079261757,-0.9,0.0,1.0,442.0,505.0,1.0,0,133.0,1
1152,1152,0.7240126623530095,0.7,1.0,1.0,392.0,811.0,0.0,0,-483.0,0
1153,1153,-0.8940252648262602,-0.9,0.0,1.0,339.0,515.0,1.0,0,526.0,1
1154,1154,0.14510637305568552,0.1,1.0,1.0,471.0,569.0,0.0,0,-120.0,0
1155,1155,-0.8080297131724138,-0.8,0.0,1.0,269.0,843.0,1.0,0,78.0,1
1156,1156,-0.5881501364157231,-0.6,1.0,0.0,442.0,665.0,0.0,0,143.0,1
1157,1157,0.3878289295718348,0.4,1.0,1.0,358.0,927.0,1.0,1,245.0,1
1158,1158,-0.24094540616394078,-0.2,0.0,1.0,350.0,691.0,1.0,0,1009.0,1
1159,1159,-0.7025251448636416,-0.7,1.0,0.0,445.0,896.0,0.0,0,139.0,1
1160,1160,0.42189571327226105,0.4,1.0,1.0,333.0,888.0,0.0,0,-421.0,0
1161,1161,-0.15473875239178936,-0.2,0.0,1.0,281.0,885.0,1.0,0,614.0,1
1162,1162,-0.6576451420075513,-0.7,1.0,0.0,337.0,864.0,1.0,1,-161.0,0
1163,1163,-0.7106899507904682,-0.7,0.0,1.0,360.0,523.0,1.0,0,297.0,1
1164,1164,-0.3422300867006395,-0.3,0.0,1.0,416.0,892.0,0.0,1,-278.0,0
1165,1165,-0.08988374578169467,-0.1,0.0,1.0,293.0,604.0,1.0,0,873.0,1
1166,1166,-0.12892243211522247,-0.1,0.0,1.0,288.0,920.0,1.0,0,1112.0,1
1167,1167,-0.7793328951681491,-0.8,1.0,0.0,291.0,653.0,0.0,0,-34.0,1
1168,1168,0.2192727134654161,0.2,0.0,0.0,272.0,826.0,0.0,1,2972.0,1
1169,1169,-0.8334972666583246,-0.8,1.0,0.0,414.0,588.0,0.0,0,78.0,1
1170,1170,0.48233975930486406,0.5,0.0,0.0,331.0,850.0,0.0,1,409.0,1
1171,1171,-0.06303201930879365,-0.1,0.0,1.0,434.0,778.0,1.0,0,708.0,1
1172,1172,0.4945245853916803,0.5,0.0,0.0,398.0,717.0,0.0,1,255.0,1
1173,1173,-0.4698774227578984,-0.5,0.0,1.0,295.0,687.0,0.0,1,28.0,0
1174,1174,-0.10571768981316676,-0.1,0.0,1.0,309.0,605.0,1.0,0,666.0,1
1175,1175,-0.6799602435570282,-0.7,0.0,1.0,483.0,921.0,1.0,0,-324.0,1
1176,1176,-0.5944582384817478,-0.6,1.0,0.0,442.0,892.0,0.0,0,136.0,1
1177,1177,-0.2974166820261873,-0.3,0.0,1.0,483.0,740.0,1.0,0,107.0,1
1178,1178,0.786648471587169,0.8,0.0,0.0,318.0,555.0,0.0,1,177.0,1
1179,1179,-0.7341931260809365,-0.7,0.0,1.0,449.0,927.0,1.0,0,54.0,1
1180,1180,-0.07014025677189317,-0.1,0.0,1.0,268.0,799.0,1.0,0,603.0,1
1181,1181,-0.6194971839949708,-0.6,1.0,0.0,393.0,935.0,0.0,0,-278.0,1
1182,1182,-0.5229879462789535,-0.5,0.0,1.0,458.0,663.0,1.0,0,419.0,1
1183,1183,0.32997705745006234,0.3,0.0,0.0,439.0,830.0,0.0,1,491.0,1
1184,1184,0.3235303982520371,0.3,1.0,1.0,316.0,953.0,1.0,1,71.0,1
1185,1185,0.7053639594130462,0.7,0.0,0.0,430.0,903.0,0.0,1,227.0,1
1186,1186,-0.4391947200158067,-0.4,0.0,1.0,250.0,643.0,1.0,0,97.0,1
1187,1187,0.6764490945656457,0.7,0.0,0.0,427.0,910.0,0.0,1,393.0,1
1188,1188,0.029726713321007958,0.0,0.0,0.0,498.0,727.0,1.0,0,1495.0,0
1189,1189,0.7022407116155326,0.7,1.0,1.0,379.0,995.0,1.0,1,-64.0,1
1190,1190,0.15622162570819642,0.2,0.0,0.0,376.0,694.0,0.0,1,1170.0,1
1191,1191,-0.10167025068813729,-0.1,1.0,0.0,284.0,596.0,0.0,0,1190.0,1
1192,1192,0.30984511044208307,0.3,1.0,1.0,440.0,960.0,1.0,1,160.0,1
1193,1193,0.4938465772953903,0.5,1.0,1.0,265.0,796.0,1.0,1,169.0,1
1194,1194,-0.6739054062941202,-0.7,1.0,0.0,316.0,747.0,0.0,0,137.0,1
1195,1195,0.3689413978349906,0.4,1.0,1.0,499.0,938.0,1.0,1,-57.0,1
1196,1196,-0.5815888810439098,-0.6,0.0,1.0,414.0,756.0,1.0,0,280.0,1
1197,1197,-0.4901871981880173,-0.5,0.0,1.0,253.0,915.0,1.0,0,182.0,1
1198,1198,-0.43045127294436436,-0.4,0.0,1.0,427.0,747.0,1.0,0,156.0,1
1199,1199,-0.7537106289466838,-0.8,0.0,1.0,437.0,892.0,1.0,0,351.0,1
1200,1200,0.4851466694099299,0.5,0.0,0.0,269.0,521.0,0.0,1,170.0,1
1201,1201,-0.4471764846772814,-0.4,0.0,1.0,346.0,691.0,1.0,0,443.0,1
1202,1202,0.5545101864691918,0.6,0.0,0.0,297.0,934.0,0.0,1,669.0,1
1203,1203,-0.10265205061503024,-0.1,0.0,1.0,489.0,769.0,1.0,0,592.0,1
1204,1204,-0.31958868836227017,-0.3,0.0,1.0,470.0,770.0,1.0,0,210.0,1
1205,1205,-0.35116775953599355,-0.4,0.0,1.0,298.0,607.0,1.0,0,305.0,1
1206,1206,-0.6993329127652849,-0.7,1.0,0.0,302.0,689.0,0.0,0,329.0,1
1207,1207,0.6545641696564893,0.7,0.0,0.0,443.0,897.0,1.0,0,-40.0,0
1208,1208,-0.6825300855846211,-0.7,0.0,1.0,265.0,803.0,1.0,0,92.0,1
1209,1209,-0.10386796962862777,-0.1,1.0,0.0,366.0,663.0,0.0,0,1871.0,1
1210,1210,-0.5197225575175379,-0.5,0.0,1.0,363.0,836.0,1.0,0,61.0,1
1211,1211,-0.40813300931050767,-0.4,0.0,1.0,481.0,617.0,1.0,0,382.0,1
1212,1212,0.3307668770607536,0.3,1.0,1.0,354.0,919.0,1.0,1,177.0,1
1213,1213,-0.4411629030625304,-0.4,0.0,1.0,472.0,724.0,1.0,0,74.0,1
1214,1214,0.2405715922955528,0.2,1.0,1.0,398.0,826.0,1.0,1,446.0,1
1215,1215,0.7734204108449297,0.8,0.0,0.0,388.0,586.0,0.0,1,756.0,1
1216,1216,-0.061784458570708245,-0.1,0.0,1.0,357.0,582.0,1.0,0,591.0,1
1217,1217,-0.8070735512220426,-0.8,0.0,1.0,468.0,996.0,1.0,0,6.0,1
1218,1218,-0.4707589867644143,-0.5,1.0,0.0,452.0,900.0,0.0,0,208.0,1
1219,1219,0.2656358344710673,0.3,1.0,1.0,334.0,526.0,1.0,1,200.0,1
1220,1220,-0.485758523893575,-0.5,1.0,0.0,455.0,574.0,0.0,0,241.0,1
1221,1221,0.8392404661070082,0.8,0.0,0.0,485.0,822.0,1.0,0,-367.0,0
1222,1222,-0.3863274763499056,-0.4,1.0,0.0,301.0,963.0,0.0,0,256.0,1
1223,1223,-0.06688463834726599,-0.1,1.0,0.0,291.0,520.0,0.0,0,2749.0,1
1224,1224,0.6153539767911297,0.6,0.0,0.0,373.0,857.0,1.0,0,-250.0,0
1225,1225,0.8611636915742874,0.9,1.0,1.0,430.0,777.0,1.0,1,143.0,1
1226,1226,0.17325466286860702,0.2,1.0,1.0,257.0,812.0,1.0,1,281.0,1
1227,1227,0.02367072051042407,0.0,1.0,1.0,391.0,706.0,0.0,0,-297.0,0
1228,1228,-0.43071017323167654,-0.4,1.0,0.0,393.0,692.0,1.0,1,-55.0,0
1229,1229,-0.025441568397098546,-0.0,0.0,1.0,423.0,670.0,0.0,1,2637.0,0
1230,1230,0.018431915601751836,0.0,0.0,0.0,412.0,812.0,1.0,0,136.0,0
1231,1231,0.509197639543152,0.5,0.0,0.0,458.0,586.0,0.0,1,346.0,1
1232,1232,0.02220825679972771,0.0,1.0,1.0,344.0,672.0,0.0,0,-146.0,0
1233,1233,-0.18478018840948707,-0.2,1.0,0.0,346.0,511.0,0.0,0,1213.0,1
1234,1234,-0.6373270890964426,-0.6,1.0,0.0,257.0,778.0,0.0,0,435.0,1
1235,1235,0.7383020633428691,0.7,1.0,1.0,362.0,568.0,1.0,1,130.0,1
1236,1236,-0.16862012536773197,-0.2,0.0,1.0,347.0,886.0,1.0,0,-243.0,1
1237,1237,0.8277496423208736,0.8,1.0,1.0,450.0,731.0,1.0,1,219.0,1
1238,1238,-0.40187230281690184,-0.4,1.0,0.0,290.0,538.0,0.0,0,312.0,1
1239,1239,0.35129883273174756,0.4,0.0,0.0,429.0,870.0,1.0,0,-379.0,0
1240,1240,0.5717221715244872,0.6,1.0,1.0,485.0,568.0,1.0,1,547.0,1
1241,1241,0.3027927155393101,0.3,1.0,1.0,265.0,805.0,1.0,1,580.0,1
1242,1242,-0.790563674310912,-0.8,1.0,0.0,361.0,964.0,0.0,0,295.0,1
1243,1243,-0.5661871221821007,-0.6,1.0,0.0,492.0,668.0,0.0,0,-120.0,1
1244,1244,-0.2753155197277679,-0.3,0.0,1.0,267.0,809.0,1.0,0,574.0,1
1245,1245,0.5699209174488239,0.6,0.0,0.0,484.0,583.0,0.0,1,303.0,1
1246,1246,0.5168008875354327,0.5,0.0,0.0,260.0,769.0,0.0,1,311.0,1
1247,1247,-0.00037617271993561907,-0.0,0.0,1.0,455.0,689.0,1.0,0,286.0,1
1248,1248,-0.5915669752264374,-0.6,1.0,0.0,290.0,988.0,0.0,0,102.0,1
1249,1249,-0.15685784823084803,-0.2,0.0,1.0,402.0,901.0,1.0,0,127.0,1
1250,1250,-0.4446302222617438,-0.4,1.0,0.0,364.0,985.0,1.0,1,-289.0,0
1251,1251,0.3346023917923636,0.3,0.0,0.0,277.0,798.0,0.0,1,265.0,1
1252,1252,-0.24465630112360315,-0.2,0.0,1.0,352.0,913.0,1.0,0,185.0,1
1253,1253,0.44384949380016725,0.4,0.0,0.0,388.0,729.0,1.0,0,103.0,0
1254,1254,-0.7866201481115167,-0.8,0.0,1.0,325.0,645.0,1.0,0,-130.0,1
1255,1255,-0.8775258445798751,-0.9,1.0,0.0,484.0,739.0,1.0,1,-93.0,0
1256,1256,-0.7488038109652655,-0.7,1.0,0.0,439.0,876.0,0.0,0,-375.0,1
1257,1257,-0.38011984833275847,-0.4,0.0,1.0,260.0,965.0,1.0,0,525.0,1
1258,1258,0.537772174577443,0.5,1.0,1.0,419.0,521.0,1.0,1,200.0,1
1259,1259,-0.7954676475824264,-0.8,0.0,1.0,270.0,726.0,1.0,0,234.0,1
1260,1260,0.20324470312136944,0.2,1.0,1.0,271.0,535.0,1.0,1,64.0,1
1261,1261,0.5867006786635648,0.6,1.0,1.0,328.0,853.0,1.0,1,89.0,1
1262,1262,0.6556470660035884,0.7,0.0,0.0,340.0,695.0,0.0,1,555.0,1
1263,1263,0.7387697073282918,0.7,1.0,1.0,406.0,905.0,0.0,0,-721.0,0
1264,1264,0.5271107428583209,0.5,0.0,0.0,367.0,603.0,0.0,1,430.0,1
1265,1265,-0.42319631790778617,-0.4,0.0,1.0,253.0,793.0,1.0,0,374.0,1
1266,1266,0.08597876401992444,0.1,0.0,0.0,284.0,935.0,1.0,0,601.0,0
1267,1267,0.08990744971769471,0.1,0.0,0.0,321.0,895.0,1.0,0,334.0,0
1268,1268,-0.1886657033464073,-0.2,1.0,0.0,297.0,907.0,0.0,0,1286.0,1
1269,1269,-0.5071002134212175,-0.5,0.0,1.0,436.0,900.0,1.0,0,194.0,1
1270,1270,-0.08087469016159587,-0.1,0.0,1.0,357.0,671.0,1.0,0,-208.0,1
1271,1271,-0.0014561622640827387,-0.0,0.0,1.0,340.0,746.0,0.0,1,3914.0,0
1272,1272,0.17197541845879838,0.2,0.0,0.0,350.0,755.0,0.0,1,415.0,1
1273,1273,-0.7238517309264219,-0.7,0.0,1.0,314.0,730.0,1.0,0,56.0,1
1274,1274,0.02700933188280852,0.0,0.0,0.0,339.0,703.0,1.0,0,1298.0,0
1275,1275,-0.18318510745619454,-0.2,0.0,1.0,375.0,623.0,1.0,0,362.0,1
1276,1276,0.23897439990594738,0.2,1.0,1.0,377.0,838.0,1.0,1,255.0,1
1277,1277,0.06206113510847466,0.1,1.0,1.0,257.0,729.0,0.0,0,604.0,0
1278,1278,-0.8785669030884008,-0.9,0.0,1.0,372.0,554.0,1.0,0,-206.0,1
1279,1279,0.03314890398375836,0.0,0.0,0.0,369.0,852.0,1.0,0,1039.0,0
1280,1280,0.42699776475695617,0.4,1.0,1.0,282.0,844.0,1.0,1,214.0,1
1281,1281,-0.6927942515476861,-0.7,0.0,1.0,459.0,659.0,1.0,0,322.0,1
1282,1282,-0.7846638686334019,-0.8,0.0,1.0,314.0,683.0,1.0,0,73.0,1
1283,1283,-0.20143381148150663,-0.2,0.0,1.0,314.0,899.0,1.0,0,117.0,1
1284,1284,-0.8520009024226429,-0.9,1.0,0.0,444.0,502.0,0.0,0,134.0,1
1285,1285,-0.5610988029246412,-0.6,0.0,1.0,436.0,687.0,1.0,0,227.0,1
1286,1286,0.16406112205538836,0.2,0.0,0.0,310.0,553.0,0.0,1,917.0,1
1287,1287,0.5891642705867542,0.6,1.0,1.0,374.0,977.0,1.0,1,-151.0,1
1288,1288,-0.538493191500224,-0.5,0.0,1.0,324.0,708.0,1.0,0,208.0,1
1289,1289,-0.12468988631939615,-0.1,1.0,0.0,349.0,571.0,0.0,0,170.0,1
1290,1290,0.748918652660178,0.7,1.0,1.0,496.0,903.0,1.0,1,521.0,1
1291,1291,-0.22602148213850237,-0.2,1.0,0.0,484.0,770.0,0.0,0,246.0,1
1292,1292,0.6766147493988645,0.7,0.0,0.0,423.0,977.0,0.0,1,360.0,1
1293,1293,0.8419569587834884,0.8,1.0,1.0,413.0,810.0,1.0,1,-113.0,1
1294,1294,0.4111952625805634,0.4,1.0,1.0,374.0,708.0,1.0,1,-42.0,1
1295,1295,-0.24435655664840827,-0.2,0.0,1.0,419.0,592.0,1.0,0,229.0,1
1296,1296,0.7903819453348401,0.8,0.0,0.0,352.0,716.0,0.0,1,182.0,1
1297,1297,0.25379495777331507,0.3,1.0,1.0,291.0,511.0,1.0,1,538.0,1
1298,1298,0.6275308266916165,0.6,0.0,0.0,307.0,520.0,0.0,1,363.0,1
1299,1299,0.4453147397915317,0.4,1.0,1.0,486.0,803.0,1.0,1,-69.0,1
1300,1300,-0.3979369308675559,-0.4,0.0,1.0,355.0,698.0,1.0,0,117.0,1
1301,1301,0.4658919893402257,0.5,1.0,1.0,480.0,713.0,1.0,1,287.0,1
1302,1302,0.6639429472060471,0.7,1.0,1.0,382.0,634.0,1.0,1,134.0,1
1303,1303,0.009501006546117297,0.0,1.0,1.0,413.0,512.0,1.0,1,365.0,1
1304,1304,-0.06807878449671512,-0.1,0.0,1.0,312.0,814.0,1.0,0,474.0,1
1305,1305,-0.19147757104875907,-0.2,1.0,0.0,436.0,584.0,1.0,1,1260.0,0
1306,1306,0.5987936015508982,0.6,0.0,0.0,383.0,962.0,0.0,1,635.0,1
1307,1307,-0.0932836193407307,-0.1,0.0,1.0,496.0,832.0,1.0,0,72.0,1
1308,1308,-0.023196124708573795,-0.0,0.0,1.0,409.0,546.0,1.0,0,-15.0,1
1309,1309,-0.32135349478316355,-0.3,1.0,0.0,401.0,666.0,0.0,0,403.0,1
1310,1310,-0.6791789429733064,-0.7,1.0,0.0,438.0,736.0,0.0,0,316.0,1
1311,1311,-0.6134046216225162,-0.6,0.0,1.0,266.0,615.0,1.0,0,359.0,1
1312,1312,-0.8559427034048511,-0.9,0.0,1.0,374.0,618.0,1.0,0,238.0,1
1313,1313,-0.8026043552067607,-0.8,1.0,0.0,431.0,906.0,0.0,0,103.0,1
1314,1314,-0.16806554225212433,-0.2,0.0,1.0,390.0,882.0,1.0,0,-102.0,1
1315,1315,0.7542574443603859,0.8,0.0,0.0,438.0,811.0,0.0,1,251.0,1
1316,1316,-0.1362560153175948,-0.1,0.0,1.0,478.0,988.0,1.0,0,404.0,1
1317,1317,0.18120185903191388,0.2,0.0,0.0,293.0,826.0,0.0,1,441.0,1
1318,1318,-0.8222954599379235,-0.8,0.0,1.0,263.0,677.0,1.0,0,180.0,1
1319,1319,0.3168166856837026,0.3,0.0,0.0,260.0,696.0,0.0,1,344.0,1
1320,1320,0.6603131602062114,0.7,1.0,1.0,380.0,973.0,0.0,0,-243.0,0
1321,1321,-0.12905070919144968,-0.1,0.0,1.0,330.0,677.0,1.0,0,663.0,1
1322,1322,-0.4329595080135025,-0.4,1.0,0.0,353.0,501.0,0.0,0,376.0,1
1323,1323,0.5799349717042034,0.6,0.0,0.0,499.0,744.0,1.0,0,-543.0,0
1324,1324,-0.05035854499586523,-0.1,1.0,0.0,296.0,949.0,0.0,0,2505.0,1
1325,1325,-0.6405315195374167,-0.6,0.0,1.0,380.0,841.0,1.0,0,29.0,1
1326,1326,-0.11053603181482052,-0.1,0.0,1.0,376.0,984.0,1.0,0,690.0,1
1327,1327,0.4014057610085443,0.4,1.0,1.0,420.0,858.0,1.0,1,372.0,1
1328,1328,-0.10535602023805402,-0.1,1.0,0.0,321.0,802.0,0.0,0,1147.0,1
1329,1329,0.07870102998384476,0.1,1.0,1.0,459.0,603.0,0.0,0,-472.0,0
1330,1330,-0.3559501913468316,-0.4,1.0,0.0,263.0,508.0,0.0,0,329.0,1
1331,1331,-0.601565482925736,-0.6,0.0,1.0,275.0,602.0,1.0,0,653.0,1
1332,1332,0.804318714893714,0.8,0.0,0.0,341.0,776.0,0.0,1,243.0,1
1333,1333,0.6331437234496063,0.6,1.0,1.0,475.0,554.0,1.0,1,161.0,1
1334,1334,0.15516631244012402,0.2,0.0,0.0,359.0,515.0,0.0,1,236.0,1
1335,1335,0.1126578706248319,0.1,1.0,1.0,420.0,656.0,1.0,1,-366.0,1
1336,1336,-0.46652893197498757,-0.5,1.0,0.0,381.0,714.0,0.0,0,585.0,1
1337,1337,-0.23393794125751255,-0.2,1.0,0.0,272.0,672.0,0.0,0,1426.0,1
1338,1338,0.41047817713668866,0.4,0.0,0.0,282.0,923.0,0.0,1,-465.0,1
1339,1339,0.4686499946705335,0.5,1.0,1.0,483.0,754.0,1.0,1,523.0,1
1340,1340,-0.3901598580625181,-0.4,0.0,1.0,267.0,906.0,1.0,0,527.0,1
1341,1341,0.6084984298960326,0.6,0.0,0.0,364.0,627.0,0.0,1,199.0,1
1342,1342,0.12118295474046381,0.1,1.0,1.0,460.0,931.0,1.0,1,1539.0,1
1343,1343,-0.08630860867116996,-0.1,1.0,0.0,494.0,782.0,1.0,1,-76.0,0
1344,1344,-0.785645435447599,-0.8,1.0,0.0,352.0,535.0,0.0,0,233.0,1
1345,1345,-0.19242495395946346,-0.2,0.0,1.0,427.0,879.0,1.0,0,984.0,1
1346,1346,0.2998039331460144,0.3,1.0,1.0,440.0,966.0,1.0,1,4.0,1
1347,1347,-0.6789139765960787,-0.7,0.0,1.0,490.0,698.0,1.0,0,-188.0,1
1348,1348,0.004618951529477666,0.0,1.0,1.0,425.0,699.0,1.0,1,226.0,1
1349,1349,0.4033000856554235,0.4,1.0,1.0,297.0,937.0,0.0,0,-214.0,0
1350,1350,0.5935657531669153,0.6,1.0,1.0,262.0,587.0,1.0,1,71.0,1
1351,1351,-0.7991706347862593,-0.8,0.0,1.0,432.0,733.0,1.0,0,95.0,1
1352,1352,0.21212760117804763,0.2,0.0,0.0,320.0,504.0,0.0,1,356.0,1
1353,1353,0.44703044634481726,0.4,0.0,0.0,285.0,968.0,1.0,0,-453.0,0
1354,1354,0.27374507714639507,0.3,1.0,1.0,392.0,810.0,1.0,1,418.0,1
1355,1355,0.28528499230444904,0.3,0.0,0.0,425.0,682.0,0.0,1,773.0,1
1356,1356,0.4754892323899781,0.5,0.0,0.0,409.0,947.0,1.0,0,-16.0,0
1357,1357,0.6891711811545927,0.7,1.0,1.0,455.0,792.0,1.0,1,143.0,1
1358,1358,-0.16753361925070354,-0.2,1.0,0.0,366.0,851.0,0.0,0,903.0,1
1359,1359,0.14527467339136935,0.1,1.0,1.0,459.0,703.0,1.0,1,1348.0,1
1360,1360,0.7639405801849305,0.8,1.0,1.0,343.0,931.0,1.0,1,486.0,1
1361,1361,0.8951390576474018,0.9,0.0,0.0,399.0,883.0,0.0,1,58.0,1
1362,1362,0.6413897121719659,0.6,1.0,1.0,342.0,672.0,1.0,1,356.0,1
1363,1363,0.4637231534161871,0.5,1.0,1.0,345.0,819.0,1.0,1,136.0,1
1364,1364,-0.8610406955399257,-0.9,1.0,0.0,340.0,720.0,1.0,1,-50.0,0
1365,1365,-0.6406753009189623,-0.6,0.0,1.0,251.0,560.0,1.0,0,219.0,1
1366,1366,0.4344202823802804,0.4,1.0,1.0,334.0,504.0,1.0,1,462.0,1
1367,1367,-0.47049319767623055,-0.5,1.0,0.0,250.0,899.0,0.0,0,541.0,1
1368,1368,-0.4145780599252427,-0.4,1.0,0.0,286.0,683.0,0.0,0,751.0,1
1369,1369,-0.632087448209695,-0.6,0.0,1.0,259.0,851.0,1.0,0,150.0,1
1370,1370,-0.6280211350562905,-0.6,0.0,1.0,334.0,604.0,1.0,0,62.0,1
1371,1371,0.692589717318349,0.7,0.0,0.0,407.0,853.0,0.0,1,100.0,1
1372,1372,-0.01599571044830328,-0.0,1.0,0.0,456.0,692.0,1.0,1,2242.0,0
1373,1373,0.12485956051777614,0.1,0.0,0.0,450.0,972.0,1.0,0,448.0,0
1374,1374,-0.585884216424748,-0.6,0.0,1.0,470.0,505.0,1.0,0,155.0,1
1375,1375,-0.8264107346203988,-0.8,1.0,0.0,392.0,812.0,0.0,0,406.0,1
1376,1376,0.36193630836187085,0.4,0.0,0.0,388.0,583.0,0.0,1,299.0,1
1377,1377,-0.6345120694059312,-0.6,0.0,1.0,373.0,863.0,1.0,0,84.0,1
1378,1378,0.5840002241366086,0.6,1.0,1.0,478.0,934.0,1.0,1,138.0,1
1379,1379,-0.26167089794843623,-0.3,1.0,0.0,492.0,655.0,1.0,1,-227.0,0
1380,1380,0.2538416028176712,0.3,0.0,0.0,350.0,529.0,0.0,1,1371.0,1
1381,1381,-0.4849781219711333,-0.5,0.0,1.0,348.0,558.0,1.0,0,444.0,1
1382,1382,-0.5008185208430669,-0.5,0.0,1.0,405.0,859.0,1.0,0,-464.0,1
1383,1383,-0.2712181046727985,-0.3,0.0,1.0,496.0,647.0,1.0,0,87.0,1
1384,1384,-0.13330340840430854,-0.1,0.0,1.0,334.0,996.0,1.0,0,590.0,1
1385,1385,-0.1457032694419227,-0.1,1.0,0.0,496.0,638.0,0.0,0,156.0,1
1386,1386,0.07432945913891087,0.1,0.0,0.0,367.0,527.0,0.0,1,3476.0,1
1387,1387,0.0630671890373139,0.1,1.0,1.0,266.0,655.0,1.0,1,299.0,1
1388,1388,0.49248428389404453,0.5,0.0,0.0,368.0,672.0,0.0,1,630.0,1
1389,1389,-0.4784809751545636,-0.5,0.0,1.0,418.0,556.0,1.0,0,126.0,1
1390,1390,-0.06325541922531264,-0.1,0.0,1.0,266.0,950.0,1.0,0,3264.0,1
1391,1391,-0.6250582790130266,-0.6,0.0,1.0,276.0,846.0,1.0,0,78.0,1
1392,1392,-0.340845076266979,-0.3,0.0,1.0,334.0,918.0,1.0,0,148.0,1
1393,1393,-0.47871968717086233,-0.5,1.0,0.0,422.0,635.0,0.0,0,353.0,1
1394,1394,0.3000466001579175,0.3,1.0,1.0,389.0,790.0,1.0,1,741.0,1
1395,1395,-0.5310418228876745,-0.5,0.0,1.0,344.0,842.0,1.0,0,114.0,1
1396,1396,-0.006706373618542427,-0.0,1.0,0.0,358.0,774.0,1.0,1,-282.0,0
1397,1397,0.37490991751672154,0.4,0.0,0.0,425.0,503.0,0.0,1,332.0,1
1398,1398,0.6555767315108557,0.7,0.0,0.0,436.0,700.0,1.0,0,-476.0,0
1399,1399,-0.6875023408715466,-0.7,0.0,1.0,441.0,635.0,1.0,0,104.0,1
1400,1400,-0.19366475854254628,-0.2,0.0,1.0,335.0,638.0,1.0,0,1007.0,1
1401,1401,-0.6614367215887109,-0.7,0.0,1.0,277.0,595.0,1.0,0,168.0,1
1402,1402,-0.6918074920509666,-0.7,0.0,1.0,448.0,768.0,1.0,0,94.0,1
1403,1403,0.04511499857521073,0.0,0.0,0.0,398.0,806.0,0.0,1,266.0,1
1404,1404,-0.3978248958609454,-0.4,0.0,1.0,412.0,864.0,1.0,0,114.0,1
1405,1405,0.43379290690721983,0.4,1.0,1.0,482.0,607.0,1.0,1,241.0,1
1406,1406,-0.6884416526456291,-0.7,1.0,0.0,262.0,704.0,1.0,1,-16.0,0
1407,1407,0.7701499357054219,0.8,1.0,1.0,372.0,749.0,0.0,0,-291.0,0
1408,1408,0.04224518481542994,0.0,1.0,1.0,485.0,967.0,1.0,1,-242.0,1
1409,1409,-0.4525839845143078,-0.5,1.0,0.0,254.0,932.0,0.0,0,-326.0,1
1410,1410,-0.03960674287037991,-0.0,1.0,0.0,276.0,992.0,1.0,1,-168.0,0
1411,1411,-0.20858610768490093,-0.2,0.0,1.0,453.0,977.0,1.0,0,70.0,1
1412,1412,0.8032719387856867,0.8,0.0,0.0,475.0,514.0,0.0,1,201.0,1
1413,1413,-0.4490221449789021,-0.4,0.0,1.0,468.0,712.0,1.0,0,130.0,1
1414,1414,-0.36964037217819057,-0.4,1.0,0.0,411.0,903.0,0.0,0,606.0,1
1415,1415,-0.6463740392238723,-0.6,0.0,1.0,391.0,760.0,1.0,0,139.0,1
1416,1416,-0.8289200030465252,-0.8,1.0,0.0,347.0,726.0,0.0,0,57.0,1
1417,1417,-0.5063861631196702,-0.5,0.0,1.0,253.0,995.0,1.0,0,-218.0,1
1418,1418,-0.6225547819371275,-0.6,1.0,0.0,381.0,655.0,0.0,0,84.0,1
1419,1419,-0.702307203908255,-0.7,1.0,0.0,430.0,652.0,0.0,0,118.0,1
1420,1420,-0.355948378907884,-0.4,0.0,1.0,285.0,510.0,1.0,0,315.0,1
1421,1421,-0.044024854065133456,-0.0,1.0,0.0,320.0,746.0,0.0,0,1074.0,1
1422,1422,-0.6257844686525701,-0.6,0.0,1.0,302.0,712.0,1.0,0,76.0,1
1423,1423,0.8355497030361164,0.8,0.0,0.0,394.0,800.0,0.0,1,296.0,1
1424,1424,-0.6002343488257462,-0.6,0.0,1.0,493.0,815.0,1.0,0,-368.0,1
1425,1425,-0.7384552832361984,-0.7,0.0,1.0,443.0,632.0,1.0,0,75.0,1
1426,1426,0.7828034056265124,0.8,1.0,1.0,276.0,605.0,1.0,1,189.0,1
1427,1427,0.23516844067888554,0.2,1.0,1.0,309.0,652.0,1.0,1,1499.0,1
1428,1428,-0.7058248111840992,-0.7,0.0,1.0,380.0,976.0,1.0,0,284.0,1
1429,1429,0.7538620915792694,0.8,0.0,0.0,318.0,878.0,0.0,1,194.0,1
1430,1430,-0.16055529619986575,-0.2,0.0,1.0,274.0,642.0,1.0,0,1064.0,1
1431,1431,-0.1866291849992302,-0.2,0.0,1.0,442.0,780.0,1.0,0,298.0,1
1432,1432,-0.5768155357506686,-0.6,1.0,0.0,363.0,872.0,0.0,0,235.0,1
1433,1433,-0.7350640757033929,-0.7,1.0,0.0,364.0,509.0,0.0,0,137.0,1
1434,1434,0.1630580620033254,0.2,0.0,0.0,452.0,540.0,0.0,1,38.0,1
1435,1435,0.6478181792652505,0.6,1.0,1.0,462.0,884.0,1.0,1,44.0,1
1436,1436,-0.3112647312113307,-0.3,1.0,0.0,266.0,978.0,0.0,0,696.0,1
1437,1437,0.6291577182021063,0.6,1.0,1.0,286.0,661.0,1.0,1,63.0,1
1438,1438,-0.2781636391462037,-0.3,0.0,1.0,362.0,591.0,1.0,0,397.0,1
1439,1439,0.028475107629063356,0.0,0.0,0.0,345.0,641.0,1.0,0,744.0,0
1440,1440,0.681532591409291,0.7,1.0,1.0,378.0,642.0,1.0,1,160.0,1
1441,1441,-0.8627492351132918,-0.9,0.0,1.0,251.0,979.0,0.0,1,-90.0,0
1442,1442,-0.7351689276923524,-0.7,0.0,1.0,418.0,869.0,1.0,0,123.0,1
1443,1443,-0.41932651757686984,-0.4,1.0,0.0,309.0,710.0,0.0,0,571.0,1
1444,1444,-0.10190874047659737,-0.1,0.0,1.0,333.0,868.0,1.0,0,879.0,1
1445,1445,-0.2498188155548582,-0.2,1.0,0.0,340.0,932.0,1.0,1,278.0,0
1446,1446,0.4740699282592483,0.5,0.0,0.0,332.0,870.0,0.0,1,388.0,1
1447,1447,0.7826249554345174,0.8,1.0,1.0,343.0,833.0,1.0,1,34.0,1
1448,1448,0.6758922073624728,0.7,0.0,0.0,458.0,587.0,0.0,1,255.0,1
1449,1449,0.45765528837508473,0.5,1.0,1.0,264.0,670.0,1.0,1,256.0,1
1450,1450,-0.8571312555605549,-0.9,0.0,1.0,329.0,967.0,0.0,1,-436.0,0
1451,1451,0.14979594114565076,0.1,0.0,0.0,473.0,731.0,0.0,1,2726.0,1
1452,1452,0.301044165046343,0.3,1.0,1.0,475.0,651.0,1.0,1,344.0,1
1453,1453,-0.2297716099850795,-0.2,0.0,1.0,450.0,804.0,1.0,0,996.0,1
1454,1454,0.6032597885216225,0.6,1.0,1.0,298.0,681.0,1.0,1,371.0,1
1455,1455,-0.12108518233259913,-0.1,0.0,1.0,486.0,621.0,1.0,0,163.0,1
1456,1456,-0.28301541650602446,-0.3,0.0,1.0,487.0,808.0,1.0,0,105.0,1
1457,1457,0.7101057188292718,0.7,1.0,1.0,291.0,996.0,1.0,1,133.0,1
1458,1458,0.5595778283970995,0.6,0.0,0.0,265.0,797.0,0.0,1,208.0,1
1459,1459,0.10791588436647837,0.1,0.0,0.0,386.0,706.0,1.0,0,78.0,0
1460,1460,-0.5942913978841513,-0.6,0.0,1.0,259.0,689.0,1.0,0,32.0,1
1461,1461,0.19862793795225986,0.2,1.0,1.0,475.0,685.0,1.0,1,760.0,1
1462,1462,-0.8319768028937448,-0.8,0.0,1.0,382.0,771.0,1.0,0,77.0,1
1463,1463,-0.13017534796407104,-0.1,0.0,1.0,431.0,917.0,1.0,0,592.0,1
1464,1464,0.36822410819397,0.4,1.0,1.0,442.0,522.0,1.0,1,56.0,1
1465,1465,-0.8655319248495028,-0.9,0.0,1.0,351.0,718.0,1.0,0,151.0,1
1466,1466,-0.18137682877455974,-0.2,1.0,0.0,468.0,635.0,1.0,1,1357.0,0
1467,1467,0.42897158715514283,0.4,0.0,0.0,301.0,624.0,1.0,0,-45.0,0
1468,1468,0.34122956332468435,0.3,1.0,1.0,409.0,678.0,1.0,1,-267.0,1
1469,1469,-0.1930516503322216,-0.2,0.0,1.0,395.0,804.0,1.0,0,51.0,1
1470,1470,-0.31060585942362173,-0.3,1.0,0.0,351.0,731.0,0.0,0,498.0,1
1471,1471,-0.13433818049865265,-0.1,0.0,1.0,360.0,618.0,1.0,0,622.0,1
1472,1472,0.5886131696329585,0.6,0.0,0.0,277.0,776.0,0.0,1,357.0,1
1473,1473,-0.7097686031628299,-0.7,0.0,1.0,263.0,609.0,1.0,0,268.0,1
1474,1474,-0.733516668200763,-0.7,0.0,1.0,316.0,514.0,1.0,0,390.0,1
1475,1475,0.3214508897803746,0.3,1.0,1.0,343.0,568.0,0.0,0,-341.0,0
1476,1476,0.8435519719471783,0.8,1.0,1.0,306.0,513.0,1.0,1,151.0,1
1477,1477,-0.4095983212882585,-0.4,1.0,0.0,305.0,662.0,0.0,0,233.0,1
1478,1478,-0.3552201264793974,-0.4,0.0,1.0,368.0,771.0,1.0,0,601.0,1
1479,1479,-0.48574759464178957,-0.5,0.0,1.0,290.0,887.0,1.0,0,53.0,1
1480,1480,-0.41953686870640866,-0.4,1.0,0.0,344.0,871.0,1.0,1,-105.0,0
1481,1481,-0.1486646195673641,-0.1,1.0,0.0,295.0,585.0,0.0,0,220.0,1
1482,1482,-0.5817232191107979,-0.6,0.0,1.0,498.0,987.0,1.0,0,-25.0,1
1483,1483,-0.7670730409539965,-0.8,0.0,1.0,281.0,828.0,1.0,0,161.0,1
1484,1484,0.7021101261102168,0.7,0.0,0.0,254.0,666.0,0.0,1,-360.0,1
1485,1485,-0.37682470689759506,-0.4,1.0,0.0,458.0,807.0,0.0,0,165.0,1
1486,1486,-0.7863276458517412,-0.8,0.0,1.0,388.0,875.0,1.0,0,97.0,1
1487,1487,-0.11001764678449066,-0.1,0.0,1.0,327.0,897.0,1.0,0,-174.0,1
1488,1488,0.5696013034117765,0.6,1.0,1.0,396.0,546.0,1.0,1,188.0,1
1489,1489,0.46159966587310997,0.5,1.0,1.0,424.0,924.0,1.0,1,32.0,1
