,trial,coherence,coherence_bin,green_side,correct_side,target_onset,checker_onset,decision,green_decision,decision_time,correct_decision
0,0,0.8440953465615183,0.8,1.0,1.0,437.0,657.0,0.0,0,1906.0,0
1,1,0.4003261570231055,0.4,0.0,0.0,367.0,556.0,0.0,1,2077.0,1
2,2,-0.33990135952543954,-0.3,0.0,1.0,413.0,951.0,0.0,1,1636.0,0
3,3,0.6419301256508813,0.6,0.0,0.0,279.0,559.0,0.0,1,2162.0,1
4,4,-0.5702757495317626,-0.6,0.0,1.0,499.0,852.0,0.0,1,1649.0,0
5,5,0.1963092812787307,0.2,0.0,0.0,425.0,947.0,0.0,1,-1352.0,1
6,6,0.7247604380358196,0.7,1.0,1.0,260.0,526.0,0.0,0,2214.0,0
7,7,0.07605002429071583,0.1,0.0,0.0,386.0,592.0,0.0,1,2022.0,1
8,8,0.4009870748049592,0.4,0.0,0.0,331.0,512.0,0.0,1,2157.0,1
9,9,0.8074292762275092,0.8,1.0,1.0,330.0,536.0,0.0,0,2134.0,0
10,10,0.7770965174288084,0.8,1.0,1.0,341.0,543.0,0.0,0,2116.0,0
11,11,0.2892098956953041,0.3,0.0,0.0,336.0,596.0,0.0,1,2068.0,1
12,12,-0.5879479122348004,-0.6,0.0,1.0,255.0,521.0,0.0,1,2224.0,0
13,13,0.05895662999593898,0.1,1.0,1.0,473.0,817.0,0.0,0,1710.0,0
14,14,0.4795076825386656,0.5,0.0,0.0,344.0,760.0,0.0,1,1896.0,1
15,15,-0.2618401084134475,-0.3,1.0,0.0,449.0,944.0,0.0,0,1607.0,1
16,16,-0.08477709477469109,-0.1,0.0,1.0,340.0,839.0,1.0,0,-909.0,1
17,17,0.7882626916520498,0.8,1.0,1.0,333.0,786.0,0.0,0,1881.0,0
18,18,-0.09171721718738257,-0.1,1.0,0.0,442.0,948.0,0.0,0,1610.0,1
19,19,0.8156854055337789,0.8,0.0,0.0,440.0,962.0,0.0,1,1598.0,1
20,20,-0.1282537646010462,-0.1,1.0,0.0,344.0,633.0,0.0,0,2023.0,1
21,21,0.6475167501259361,0.6,1.0,1.0,472.0,692.0,0.0,0,1836.0,0
22,22,0.39759066978916124,0.4,1.0,1.0,482.0,857.0,0.0,0,1661.0,0
23,23,0.4622108763996128,0.5,0.0,0.0,389.0,776.0,0.0,1,-1155.0,1
24,24,0.014035536244344726,0.0,0.0,0.0,352.0,501.0,0.0,1,2147.0,1
25,25,-0.3925401038546098,-0.4,0.0,1.0,267.0,923.0,0.0,1,1810.0,0
26,26,0.3728201785287498,0.4,0.0,0.0,324.0,777.0,0.0,1,-1021.0,1
27,27,-0.7218657362555149,-0.7,1.0,0.0,408.0,643.0,0.0,0,1949.0,1
28,28,0.3579291757773163,0.4,1.0,1.0,318.0,534.0,0.0,0,2148.0,0
29,29,0.18717212656668092,0.2,0.0,0.0,421.0,901.0,0.0,1,1678.0,1
30,30,-0.5294766779697436,-0.5,1.0,0.0,428.0,965.0,1.0,1,-1093.0,0
31,31,0.6132550868357046,0.6,1.0,1.0,426.0,878.0,0.0,0,1696.0,0
32,32,0.008534697627862187,0.0,1.0,1.0,454.0,647.0,0.0,0,1899.0,0
33,33,-0.5888021515171238,-0.6,0.0,1.0,338.0,890.0,0.0,1,1772.0,0
34,34,-0.6263101728612632,-0.6,0.0,1.0,413.0,840.0,0.0,1,1747.0,0
35,35,0.6893246440043496,0.7,1.0,1.0,441.0,965.0,0.0,0,-1146.0,0
36,36,0.5569733698587179,0.6,0.0,0.0,312.0,613.0,0.0,1,-865.0,1
37,37,-0.8614995611586849,-0.9,1.0,0.0,472.0,942.0,0.0,0,1586.0,1
38,38,-0.007667638016995104,-0.0,0.0,1.0,398.0,557.0,1.0,0,-795.0,1
39,39,0.7432985541523466,0.7,0.0,0.0,264.0,563.0,0.0,1,2173.0,1
40,40,0.8282448294905728,0.8,1.0,1.0,399.0,950.0,0.0,0,1651.0,0
41,41,0.25989597158393496,0.3,0.0,0.0,352.0,746.0,0.0,1,1902.0,1
42,42,0.7516098688878289,0.8,1.0,1.0,309.0,820.0,0.0,0,1871.0,0
43,43,0.3776794311012103,0.4,1.0,1.0,389.0,998.0,0.0,0,1613.0,0
44,44,0.24660923221336473,0.2,0.0,0.0,322.0,562.0,0.0,1,2116.0,1
45,45,0.14736949206229844,0.1,1.0,1.0,433.0,847.0,0.0,0,1720.0,0
46,46,0.030732807758102276,0.0,1.0,1.0,484.0,649.0,0.0,0,1867.0,0
47,47,0.6189941412608343,0.6,0.0,0.0,293.0,955.0,0.0,1,1752.0,1
48,48,-0.29856017648710087,-0.3,1.0,0.0,273.0,537.0,0.0,0,2190.0,1
49,49,-0.12036431065101183,-0.1,1.0,0.0,301.0,717.0,0.0,0,-968.0,1
50,50,-0.15973898626661864,-0.2,1.0,0.0,348.0,795.0,0.0,0,1857.0,1
51,51,0.7289885195292721,0.7,0.0,0.0,255.0,652.0,0.0,1,2093.0,1
52,52,-0.6160210810565929,-0.6,0.0,1.0,428.0,721.0,0.0,1,1851.0,0
53,53,-0.7219710843069768,-0.7,0.0,1.0,321.0,517.0,0.0,1,2162.0,0
54,54,0.12741794072207135,0.1,1.0,1.0,484.0,599.0,0.0,0,1917.0,0
55,55,0.13910510361390316,0.1,0.0,0.0,300.0,961.0,0.0,1,1739.0,1
56,56,0.8856586277896669,0.9,1.0,1.0,414.0,656.0,0.0,0,1930.0,0
57,57,0.5008852150437727,0.5,0.0,0.0,279.0,651.0,0.0,1,2070.0,1
58,58,0.29070504336683023,0.3,1.0,1.0,318.0,936.0,0.0,0,1746.0,0
59,59,-0.800250209907006,-0.8,0.0,1.0,440.0,796.0,0.0,1,1764.0,0
60,60,-0.4886471183201157,-0.5,0.0,1.0,474.0,988.0,0.0,1,1538.0,0
61,61,0.44904847687311034,0.4,0.0,0.0,363.0,658.0,0.0,1,1979.0,1
62,62,-0.8072913702069016,-0.8,1.0,0.0,323.0,673.0,0.0,0,2004.0,1
63,63,-0.2961110952271152,-0.3,1.0,0.0,482.0,785.0,0.0,0,1733.0,1
64,64,0.18261382898666512,0.2,1.0,1.0,261.0,688.0,0.0,0,-869.0,0
65,65,-0.8187012950692788,-0.8,0.0,1.0,369.0,618.0,0.0,1,2013.0,0
66,66,0.030996048106184282,0.0,1.0,1.0,332.0,559.0,0.0,0,2109.0,0
67,67,0.5566391722167913,0.6,0.0,0.0,401.0,681.0,0.0,1,1918.0,1
68,68,-0.07228596240064111,-0.1,0.0,1.0,264.0,690.0,0.0,1,2046.0,0
69,69,-0.13172389787204153,-0.1,1.0,0.0,394.0,615.0,0.0,0,1991.0,1
70,70,-0.730493284717554,-0.7,0.0,1.0,292.0,976.0,0.0,1,1732.0,0
71,71,-0.1550963005252931,-0.2,1.0,0.0,415.0,500.0,0.0,0,2085.0,1
72,72,-0.2417703295537389,-0.2,0.0,1.0,263.0,858.0,0.0,1,1879.0,0
73,73,-0.27651243088451116,-0.3,0.0,1.0,394.0,635.0,0.0,1,1971.0,0
74,74,-0.582449060197437,-0.6,0.0,1.0,335.0,908.0,0.0,1,1757.0,0
75,75,-0.44144661065632923,-0.4,1.0,0.0,429.0,726.0,0.0,0,1845.0,1
76,76,0.4356886790837905,0.4,1.0,1.0,320.0,983.0,0.0,0,1697.0,0
77,77,-0.014088824344558604,-0.0,0.0,1.0,417.0,555.0,0.0,1,2028.0,0
78,78,0.31931458835244075,0.3,0.0,0.0,362.0,500.0,0.0,1,2138.0,1
79,79,0.5801393064250818,0.6,1.0,1.0,345.0,593.0,0.0,0,2062.0,0
80,80,-0.4137351686563525,-0.4,1.0,0.0,387.0,560.0,0.0,0,2053.0,1
81,81,-0.2116930803410646,-0.2,1.0,0.0,288.0,803.0,0.0,0,1909.0,1
82,82,0.4474248231515826,0.4,0.0,0.0,497.0,564.0,1.0,0,-1061.0,0
83,83,-0.31020959425187,-0.3,0.0,1.0,463.0,749.0,0.0,1,1788.0,0
84,84,0.5126209108912604,0.5,1.0,1.0,251.0,507.0,1.0,1,-758.0,1
85,85,-0.16698971343748037,-0.2,1.0,0.0,308.0,833.0,0.0,0,1859.0,1
86,86,0.17817394026313382,0.2,1.0,1.0,327.0,863.0,0.0,0,1810.0,0
87,87,0.1136475388573136,0.1,1.0,1.0,433.0,954.0,0.0,0,-1137.0,0
88,88,0.6866431137492895,0.7,1.0,1.0,269.0,772.0,0.0,0,1959.0,0
89,89,0.3612519081315618,0.4,0.0,0.0,445.0,590.0,0.0,1,-825.0,1
90,90,0.4375959552198664,0.4,1.0,1.0,373.0,977.0,1.0,1,-1210.0,1
91,91,0.15885335596430006,0.2,1.0,1.0,358.0,754.0,0.0,0,1888.0,0
92,92,-0.4514666973300549,-0.5,1.0,0.0,347.0,675.0,0.0,0,1978.0,1
93,93,-0.26755023487452645,-0.3,0.0,1.0,308.0,861.0,0.0,1,1831.0,0
94,94,-0.3002253134973959,-0.3,1.0,0.0,496.0,615.0,1.0,1,-1101.0,0
95,95,0.8718945091432694,0.9,1.0,1.0,326.0,995.0,0.0,0,1679.0,0
96,96,-0.4825490584746913,-0.5,1.0,0.0,399.0,906.0,0.0,0,1695.0,1
97,97,-0.3927388016524248,-0.4,0.0,1.0,486.0,736.0,0.0,1,1778.0,0
98,98,-0.18651598692144622,-0.2,1.0,0.0,251.0,868.0,0.0,0,1881.0,1
99,99,-0.6929321253505457,-0.7,1.0,0.0,312.0,658.0,0.0,0,2030.0,1
100,100,0.7598388297659157,0.8,0.0,0.0,348.0,839.0,0.0,1,1813.0,1
101,101,0.7205769168818826,0.7,0.0,0.0,424.0,944.0,0.0,1,1632.0,1
102,102,0.7698438686277401,0.8,1.0,1.0,341.0,891.0,0.0,0,1768.0,0
103,103,0.8433378889652644,0.8,0.0,0.0,269.0,876.0,0.0,1,1855.0,1
104,104,-0.09566778424415145,-0.1,0.0,1.0,276.0,958.0,0.0,1,1766.0,0
105,105,0.555002769755811,0.6,1.0,1.0,488.0,766.0,0.0,0,-1174.0,0
106,106,0.6567309956676889,0.7,0.0,0.0,402.0,791.0,0.0,1,1807.0,1
107,107,0.34964831794386575,0.3,0.0,0.0,353.0,677.0,0.0,1,1970.0,1
108,108,-0.214063985450347,-0.2,1.0,0.0,392.0,820.0,0.0,0,1788.0,1
109,109,0.3756302514893729,0.4,0.0,0.0,471.0,630.0,0.0,1,-1071.0,1
110,110,-0.23100437928481854,-0.2,0.0,1.0,445.0,808.0,0.0,1,1747.0,0
111,111,0.18158734240180208,0.2,1.0,1.0,355.0,807.0,0.0,0,1838.0,0
112,112,0.1600181577552332,0.2,0.0,0.0,323.0,838.0,0.0,1,1839.0,1
113,113,-0.5116242307786925,-0.5,0.0,1.0,295.0,697.0,0.0,1,2008.0,0
114,114,-0.5130961336274957,-0.5,0.0,1.0,304.0,881.0,0.0,1,1815.0,0
115,115,-0.6627657278262526,-0.7,1.0,0.0,431.0,560.0,0.0,0,2009.0,1
116,116,-0.7317388986168996,-0.7,0.0,1.0,492.0,952.0,0.0,1,1556.0,0
117,117,0.3126592012754087,0.3,0.0,0.0,412.0,749.0,0.0,1,1839.0,1
118,118,0.6848522590236455,0.7,1.0,1.0,327.0,919.0,0.0,0,1754.0,0
119,119,0.2959175638986583,0.3,0.0,0.0,407.0,587.0,0.0,1,2006.0,1
120,120,0.4285632440551038,0.4,1.0,1.0,342.0,840.0,0.0,0,1818.0,0
121,121,-0.8616309210123019,-0.9,0.0,1.0,262.0,829.0,0.0,1,-991.0,0
122,122,-0.7178768503983479,-0.7,1.0,0.0,427.0,776.0,0.0,0,1797.0,1
123,123,-0.43758302039529645,-0.4,0.0,1.0,354.0,811.0,0.0,1,1835.0,0
124,124,0.25851467656912874,0.3,0.0,0.0,430.0,591.0,0.0,1,1979.0,1
125,125,0.7807692949671509,0.8,0.0,0.0,346.0,885.0,0.0,1,1769.0,1
126,126,-0.4335488735559577,-0.4,1.0,0.0,272.0,574.0,0.0,0,2154.0,1
127,127,0.7304421623416918,0.7,1.0,1.0,497.0,821.0,0.0,0,1682.0,0
128,128,-0.7782913093873374,-0.8,0.0,1.0,434.0,674.0,0.0,1,1892.0,0
129,129,0.7260588140609335,0.7,0.0,0.0,275.0,552.0,0.0,1,2173.0,1
130,130,0.027110730091311597,0.0,1.0,1.0,262.0,802.0,0.0,0,1936.0,0
131,131,-0.2679948423151879,-0.3,0.0,1.0,421.0,545.0,0.0,1,2034.0,0
132,132,0.07405393235866098,0.1,0.0,0.0,383.0,661.0,0.0,1,1956.0,1
133,133,-0.8528573150548028,-0.9,1.0,0.0,456.0,966.0,0.0,0,1578.0,1
134,134,-0.8634006798142144,-0.9,1.0,0.0,372.0,895.0,0.0,0,-1097.0,1
135,135,0.1567777748456679,0.2,0.0,0.0,267.0,810.0,0.0,1,1923.0,1
136,136,-0.5637866421902804,-0.6,0.0,1.0,363.0,539.0,0.0,1,2098.0,0
137,137,-0.23519047654897274,-0.2,0.0,1.0,363.0,719.0,0.0,1,1918.0,0
138,138,-0.672194566810749,-0.7,1.0,0.0,263.0,689.0,0.0,0,2048.0,1
139,139,0.19864986562735665,0.2,0.0,0.0,493.0,612.0,0.0,1,1895.0,1
140,140,-0.8969158263779321,-0.9,0.0,1.0,325.0,934.0,0.0,1,1741.0,0
141,141,0.5036097440600292,0.5,0.0,0.0,307.0,516.0,0.0,1,2177.0,1
142,142,0.49755762926183456,0.5,1.0,1.0,323.0,592.0,0.0,0,2085.0,0
143,143,0.4432161787166212,0.4,0.0,0.0,345.0,939.0,0.0,1,1716.0,1
144,144,-0.3219660456690101,-0.3,1.0,0.0,496.0,890.0,0.0,0,1614.0,1
145,145,-0.4886441967400536,-0.5,1.0,0.0,468.0,978.0,0.0,0,1554.0,1
146,146,-0.29256830471630335,-0.3,1.0,0.0,479.0,718.0,0.0,0,1803.0,1
147,147,-0.20839951673727752,-0.2,1.0,0.0,323.0,554.0,0.0,0,2123.0,1
148,148,0.23751353483682125,0.2,0.0,0.0,399.0,904.0,0.0,1,1697.0,1
149,149,0.543433903101808,0.5,1.0,1.0,293.0,907.0,0.0,0,1800.0,0
150,150,-0.26898901396890984,-0.3,0.0,1.0,338.0,721.0,0.0,1,1941.0,0
151,151,-0.594093911231231,-0.6,1.0,0.0,296.0,716.0,0.0,0,1988.0,1
152,152,-0.8110706927864447,-0.8,1.0,0.0,256.0,962.0,0.0,0,1782.0,1
153,153,-0.48415031584914453,-0.5,1.0,0.0,434.0,707.0,0.0,0,1859.0,1
154,154,-0.5438340054343987,-0.5,0.0,1.0,336.0,850.0,0.0,1,-1116.0,0
155,155,-0.20622215549848955,-0.2,0.0,1.0,272.0,736.0,0.0,1,1992.0,0
156,156,-0.32213842664246206,-0.3,0.0,1.0,325.0,937.0,0.0,1,1738.0,0
157,157,0.05532029545941908,0.1,0.0,0.0,276.0,695.0,0.0,1,2029.0,1
158,158,-0.3486395372972787,-0.3,0.0,1.0,428.0,984.0,0.0,1,1588.0,0
159,159,0.477895743050584,0.5,0.0,0.0,265.0,547.0,0.0,1,2188.0,1
160,160,-0.2330474262179073,-0.2,0.0,1.0,262.0,651.0,0.0,1,2087.0,0
161,161,0.061796486076764356,0.1,1.0,1.0,303.0,618.0,0.0,0,2079.0,0
162,162,0.0491575669909281,0.0,1.0,1.0,485.0,818.0,0.0,0,1697.0,0
163,163,0.7997364952348646,0.8,1.0,1.0,465.0,949.0,0.0,0,1586.0,0
164,164,0.8131744272541174,0.8,1.0,1.0,276.0,730.0,0.0,0,1994.0,0
165,165,0.36549605366297244,0.4,1.0,1.0,453.0,513.0,0.0,0,2034.0,0
166,166,-0.19799966712054817,-0.2,1.0,0.0,484.0,922.0,0.0,0,1594.0,1
167,167,0.05730304183358015,0.1,0.0,0.0,422.0,979.0,0.0,1,1599.0,1
168,168,0.14633274207991442,0.1,0.0,0.0,408.0,650.0,0.0,1,1942.0,1
169,169,0.5569481191574926,0.6,1.0,1.0,306.0,974.0,0.0,0,1720.0,0
170,170,-0.3597368050925476,-0.4,1.0,0.0,472.0,707.0,0.0,0,1821.0,1
171,171,0.3428382974273757,0.3,0.0,0.0,376.0,610.0,0.0,1,2014.0,1
172,172,0.5237563225118519,0.5,1.0,1.0,471.0,715.0,0.0,0,1814.0,0
173,173,0.4252253490984491,0.4,1.0,1.0,372.0,931.0,1.0,1,-1263.0,1
174,174,-0.5838226663890438,-0.6,1.0,0.0,260.0,991.0,0.0,0,1749.0,1
175,175,0.8754724982525891,0.9,1.0,1.0,290.0,907.0,0.0,0,1803.0,0
176,176,-0.4866352571814953,-0.5,1.0,0.0,494.0,777.0,0.0,0,1729.0,1
177,177,0.05537453072427734,0.1,1.0,1.0,394.0,526.0,0.0,0,2080.0,0
178,178,0.3563677198473413,0.4,0.0,0.0,300.0,532.0,1.0,0,-802.0,0
179,179,-0.7532622858087208,-0.8,1.0,0.0,277.0,663.0,0.0,0,2060.0,1
180,180,0.3798574622139793,0.4,0.0,0.0,323.0,891.0,0.0,1,1786.0,1
181,181,-0.5468221425634596,-0.5,1.0,0.0,333.0,552.0,0.0,0,2115.0,1
182,182,0.11362623291786711,0.1,1.0,1.0,444.0,881.0,0.0,0,1675.0,0
183,183,0.36662969323104766,0.4,0.0,0.0,280.0,630.0,0.0,1,2090.0,1
184,184,0.506934823435001,0.5,1.0,1.0,346.0,575.0,0.0,0,2079.0,0
185,185,-0.42913647602208616,-0.4,1.0,0.0,289.0,594.0,0.0,0,2117.0,1
186,186,-0.8307913337436212,-0.8,0.0,1.0,347.0,577.0,0.0,1,2076.0,0
187,187,0.29357446037480706,0.3,0.0,0.0,297.0,514.0,0.0,1,2189.0,1
188,188,-0.5947577768690595,-0.6,0.0,1.0,466.0,578.0,0.0,1,1956.0,0
189,189,-0.4945236706130864,-0.5,1.0,0.0,291.0,524.0,0.0,0,2185.0,1
190,190,0.03843368813387871,0.0,1.0,1.0,331.0,954.0,0.0,0,1715.0,0
191,191,0.00528813452203003,0.0,1.0,1.0,468.0,727.0,0.0,0,1805.0,0
192,192,0.6943125700769085,0.7,1.0,1.0,339.0,919.0,0.0,0,-1098.0,0
193,193,0.19716694546959557,0.2,0.0,0.0,266.0,948.0,0.0,1,1786.0,1
194,194,0.8864632208620941,0.9,0.0,0.0,344.0,986.0,0.0,1,1670.0,1
195,195,-0.6665996319173452,-0.7,0.0,1.0,271.0,544.0,1.0,0,-665.0,1
196,196,0.742997756697319,0.7,0.0,0.0,458.0,586.0,0.0,1,1956.0,1
197,197,-0.03960420763028183,-0.0,0.0,1.0,461.0,864.0,0.0,1,1675.0,0
198,198,0.05557141797155574,0.1,1.0,1.0,337.0,808.0,0.0,0,1855.0,0
199,199,-0.42779646906030705,-0.4,0.0,1.0,321.0,773.0,0.0,1,1906.0,0
200,200,0.4833963755447027,0.5,0.0,0.0,446.0,748.0,0.0,1,1806.0,1
201,201,-0.06679213881343704,-0.1,0.0,1.0,362.0,751.0,0.0,1,1887.0,0
202,202,0.5511484570752491,0.6,1.0,1.0,289.0,792.0,0.0,0,1919.0,0
203,203,0.7092262360748461,0.7,0.0,0.0,376.0,695.0,0.0,1,1929.0,1
204,204,0.897357689270253,0.9,1.0,1.0,414.0,830.0,0.0,0,1756.0,0
205,205,-0.10826356062743214,-0.1,1.0,0.0,344.0,606.0,1.0,1,-930.0,0
206,206,-0.27777667390994465,-0.3,1.0,0.0,457.0,901.0,1.0,1,-1268.0,0
207,207,0.11848906770081402,0.1,1.0,1.0,266.0,857.0,0.0,0,1877.0,0
208,208,0.49618921018124096,0.5,1.0,1.0,365.0,820.0,0.0,0,1815.0,0
209,209,0.7191470079465233,0.7,0.0,0.0,491.0,988.0,0.0,1,1521.0,1
210,210,-0.032431841373606995,-0.0,0.0,1.0,485.0,906.0,0.0,1,1609.0,0
211,211,0.0032063278559549824,0.0,1.0,1.0,400.0,715.0,0.0,0,1885.0,0
212,212,0.6606810823197157,0.7,0.0,0.0,355.0,860.0,0.0,1,1785.0,1
213,213,0.48392895817639314,0.5,1.0,1.0,465.0,835.0,0.0,0,1700.0,0
214,214,-0.5324563054510791,-0.5,1.0,0.0,291.0,872.0,0.0,0,1837.0,1
215,215,0.5675832166954112,0.6,0.0,0.0,269.0,708.0,0.0,1,2023.0,1
216,216,-0.32666573613250893,-0.3,1.0,0.0,277.0,833.0,0.0,0,1890.0,1
217,217,-0.01012014644532877,-0.0,0.0,1.0,415.0,874.0,0.0,1,1711.0,0
218,218,0.14071463766488124,0.1,0.0,0.0,253.0,745.0,0.0,1,2002.0,1
219,219,-0.35551758529498256,-0.4,0.0,1.0,430.0,819.0,0.0,1,1751.0,0
220,220,-0.634843173078087,-0.6,1.0,0.0,483.0,527.0,0.0,0,1990.0,1
221,221,-0.17297533289324762,-0.2,1.0,0.0,312.0,937.0,0.0,0,1751.0,1
222,222,-0.4743783011129482,-0.5,1.0,0.0,274.0,507.0,0.0,0,2219.0,1
223,223,-0.8391633070697252,-0.8,1.0,0.0,481.0,813.0,0.0,0,1706.0,1
224,224,0.1736121800886209,0.2,0.0,0.0,274.0,688.0,0.0,1,2038.0,1
225,225,-0.06597713374625602,-0.1,0.0,1.0,256.0,509.0,0.0,1,-545.0,0
226,226,0.748825644398906,0.7,1.0,1.0,351.0,638.0,0.0,0,2011.0,0
227,227,0.5789270587569667,0.6,0.0,0.0,487.0,929.0,0.0,1,1584.0,1
228,228,0.505092012827559,0.5,1.0,1.0,390.0,836.0,0.0,0,1774.0,0
229,229,-0.2915722901174018,-0.3,0.0,1.0,410.0,864.0,0.0,1,1726.0,0
230,230,-0.8701082440627327,-0.9,1.0,0.0,425.0,607.0,0.0,0,1968.0,1
231,231,-0.6073277795528633,-0.6,1.0,0.0,293.0,795.0,0.0,0,1912.0,1
232,232,0.04907178632619169,0.0,1.0,1.0,375.0,957.0,0.0,0,-1252.0,0
233,233,-0.5652710945379227,-0.6,0.0,1.0,295.0,587.0,0.0,1,2118.0,0
234,234,-0.6910707076308137,-0.7,1.0,0.0,442.0,680.0,0.0,0,1878.0,1
235,235,0.24098495283766053,0.2,1.0,1.0,279.0,900.0,0.0,0,1821.0,0
236,236,-0.8854934165882132,-0.9,1.0,0.0,368.0,810.0,0.0,0,1822.0,1
237,237,-0.3104005830744878,-0.3,1.0,0.0,426.0,687.0,0.0,0,1887.0,1
238,238,0.5865053589203498,0.6,0.0,0.0,483.0,989.0,0.0,1,1528.0,1
239,239,-0.6690309288300623,-0.7,0.0,1.0,317.0,751.0,0.0,1,1932.0,0
240,240,-0.5392096672687461,-0.5,0.0,1.0,496.0,508.0,0.0,1,1996.0,0
241,241,-0.6461247816019513,-0.6,0.0,1.0,445.0,607.0,0.0,1,-1002.0,0
242,242,-0.02543109781537578,-0.0,1.0,0.0,337.0,756.0,1.0,1,-1073.0,0
243,243,0.44607671379946845,0.4,1.0,1.0,412.0,564.0,0.0,0,2024.0,0
244,244,-0.46836825999175336,-0.5,1.0,0.0,336.0,856.0,0.0,0,1808.0,1
245,245,0.3171021581607226,0.3,1.0,1.0,463.0,629.0,0.0,0,1908.0,0
246,246,0.6297841149513926,0.6,1.0,1.0,267.0,603.0,0.0,0,2130.0,0
247,247,-0.32645447814058726,-0.3,0.0,1.0,437.0,927.0,0.0,1,1636.0,0
248,248,-0.496288186182161,-0.5,1.0,0.0,296.0,506.0,0.0,0,2198.0,1
249,249,0.35887960088210524,0.4,0.0,0.0,299.0,904.0,0.0,1,-1133.0,1
250,250,0.6751989453817141,0.7,1.0,1.0,375.0,721.0,0.0,0,1904.0,0
251,251,0.43848301397572775,0.4,1.0,1.0,386.0,945.0,0.0,0,1669.0,0
252,252,-0.5468089629022519,-0.5,1.0,0.0,472.0,856.0,0.0,0,1672.0,1
253,253,0.520578481110643,0.5,1.0,1.0,378.0,980.0,0.0,0,1642.0,0
254,254,-0.006383765272263031,-0.0,1.0,0.0,444.0,961.0,0.0,0,1595.0,1
255,255,0.8333575533370169,0.8,1.0,1.0,381.0,768.0,0.0,0,-1109.0,0
256,256,-0.6853727413603034,-0.7,0.0,1.0,343.0,922.0,0.0,1,1735.0,0
257,257,-0.35959217671030164,-0.4,1.0,0.0,366.0,920.0,0.0,0,1714.0,1
258,258,0.83852621328981,0.8,1.0,1.0,332.0,917.0,0.0,0,1751.0,0
259,259,-0.1201394844461976,-0.1,1.0,0.0,267.0,803.0,0.0,0,1930.0,1
260,260,0.1678359901813099,0.2,1.0,1.0,341.0,780.0,0.0,0,1879.0,0
261,261,-0.3055537389329248,-0.3,0.0,1.0,467.0,961.0,0.0,1,1572.0,0
262,262,-0.06706821501517202,-0.1,0.0,1.0,426.0,915.0,0.0,1,1659.0,0
263,263,-0.22429843148626094,-0.2,0.0,1.0,498.0,615.0,0.0,1,1887.0,0
264,264,0.5475456244407672,0.5,0.0,0.0,483.0,657.0,0.0,1,1860.0,1
265,265,0.7320920522939863,0.7,0.0,0.0,346.0,883.0,0.0,1,1771.0,1
266,266,-0.5865840473633296,-0.6,1.0,0.0,368.0,671.0,0.0,0,1961.0,1
267,267,0.46471888179065146,0.5,0.0,0.0,404.0,623.0,0.0,1,1973.0,1
268,268,0.7384525573414503,0.7,0.0,0.0,314.0,967.0,0.0,1,1719.0,1
269,269,-0.4011471070001293,-0.4,1.0,0.0,274.0,623.0,0.0,0,2103.0,1
270,270,-0.6297085416758025,-0.6,0.0,1.0,279.0,810.0,0.0,1,1911.0,0
271,271,0.19718325571103013,0.2,0.0,0.0,374.0,538.0,0.0,1,2088.0,1
272,272,-0.5027748131991949,-0.5,0.0,1.0,321.0,881.0,0.0,1,1798.0,0
273,273,-0.6758909853833865,-0.7,1.0,0.0,408.0,678.0,0.0,0,1914.0,1
274,274,0.7476008454953414,0.7,0.0,0.0,490.0,943.0,0.0,1,1567.0,1
275,275,-0.0078986290873172,-0.0,0.0,1.0,423.0,643.0,0.0,1,1934.0,0
276,276,0.7459576434556373,0.7,0.0,0.0,268.0,775.0,0.0,1,1957.0,1
277,277,-0.23023437713512862,-0.2,1.0,0.0,318.0,965.0,0.0,0,1717.0,1
278,278,-0.08920174169701667,-0.1,1.0,0.0,424.0,639.0,0.0,0,1937.0,1
279,279,-0.5521567143582066,-0.6,0.0,1.0,415.0,805.0,0.0,1,1780.0,0
280,280,-0.7387229962559432,-0.7,0.0,1.0,421.0,915.0,0.0,1,1664.0,0
281,281,-0.5581303088257236,-0.6,1.0,0.0,358.0,960.0,0.0,0,1682.0,1
282,282,0.25769688763691023,0.3,1.0,1.0,455.0,622.0,0.0,0,1923.0,0
283,283,-0.5628838520221493,-0.6,0.0,1.0,276.0,670.0,0.0,1,2054.0,0
284,284,0.25549369377010256,0.3,0.0,0.0,481.0,937.0,0.0,1,1582.0,1
285,285,0.5463476972610667,0.5,1.0,1.0,281.0,657.0,0.0,0,2062.0,0
286,286,-0.026537111266673907,-0.0,1.0,0.0,339.0,680.0,0.0,0,1981.0,1
287,287,-0.08866002670922757,-0.1,1.0,0.0,483.0,514.0,0.0,0,2003.0,1
288,288,0.0703003409880929,0.1,1.0,1.0,343.0,785.0,0.0,0,1872.0,0
289,289,0.6430451788018509,0.6,1.0,1.0,312.0,669.0,0.0,0,2019.0,0
290,290,-0.3109452727799429,-0.3,1.0,0.0,346.0,906.0,0.0,0,1748.0,1
291,291,-0.226003768982884,-0.2,1.0,0.0,300.0,868.0,0.0,0,1832.0,1
292,292,-0.8116299573882607,-0.8,0.0,1.0,455.0,993.0,0.0,1,1552.0,0
293,293,0.7645008968327521,0.8,1.0,1.0,335.0,682.0,0.0,0,1983.0,0
294,294,-0.47282485002091873,-0.5,1.0,0.0,472.0,580.0,0.0,0,1948.0,1
295,295,0.05640244579226972,0.1,0.0,0.0,271.0,568.0,0.0,1,2161.0,1
296,296,-0.7398881085900676,-0.7,0.0,1.0,435.0,944.0,0.0,1,1621.0,0
297,297,-0.6880590608620076,-0.7,0.0,1.0,330.0,694.0,0.0,1,1976.0,0
298,298,0.2016760787255244,0.2,0.0,0.0,401.0,631.0,0.0,1,1968.0,1
299,299,0.8503214639631166,0.9,0.0,0.0,345.0,829.0,0.0,1,1826.0,1
300,300,0.3248745942511936,0.3,0.0,0.0,482.0,848.0,0.0,1,1670.0,1
301,301,-0.5169652773842128,-0.5,0.0,1.0,339.0,798.0,0.0,1,1863.0,0
302,302,-0.030977089423812276,-0.0,1.0,0.0,431.0,860.0,0.0,0,1709.0,1
303,303,-0.3179791977342834,-0.3,1.0,0.0,296.0,730.0,0.0,0,1974.0,1
304,304,-0.17341908265891537,-0.2,0.0,1.0,446.0,818.0,0.0,1,1736.0,0
305,305,0.8332513097772484,0.8,0.0,0.0,252.0,750.0,0.0,1,1998.0,1
306,306,0.07838733930091768,0.1,1.0,1.0,443.0,833.0,0.0,0,1724.0,0
307,307,0.6938332889839239,0.7,0.0,0.0,382.0,627.0,0.0,1,1991.0,1
308,308,-0.8883154179979736,-0.9,0.0,1.0,326.0,873.0,0.0,1,1801.0,0
309,309,0.7223360512497964,0.7,1.0,1.0,271.0,860.0,0.0,0,1869.0,0
310,310,0.8835255716147824,0.9,0.0,0.0,318.0,913.0,0.0,1,1769.0,1
311,311,0.007971866538835526,0.0,1.0,1.0,430.0,649.0,0.0,0,1921.0,0
312,312,0.42703747406184533,0.4,1.0,1.0,282.0,936.0,0.0,0,1782.0,0
313,313,0.31823442303402316,0.3,1.0,1.0,412.0,822.0,0.0,0,1766.0,0
314,314,-0.3825663144734821,-0.4,1.0,0.0,253.0,757.0,0.0,0,1990.0,1
315,315,0.31573685869028145,0.3,0.0,0.0,341.0,513.0,0.0,1,2146.0,1
316,316,-0.7137946106648085,-0.7,0.0,1.0,325.0,738.0,0.0,1,1937.0,0
317,317,-0.20027014805768717,-0.2,0.0,1.0,421.0,592.0,0.0,1,1987.0,0
318,318,-0.5671004825173767,-0.6,0.0,1.0,471.0,752.0,0.0,1,1777.0,0
319,319,0.581586532929573,0.6,0.0,0.0,300.0,866.0,0.0,1,1834.0,1
320,320,0.4655445358719664,0.5,0.0,0.0,403.0,700.0,0.0,1,1897.0,1
321,321,0.2967500811207836,0.3,1.0,1.0,373.0,737.0,0.0,0,1890.0,0
322,322,-0.6963111424332376,-0.7,0.0,1.0,352.0,728.0,0.0,1,1920.0,0
323,323,-0.14943336211672598,-0.1,0.0,1.0,461.0,786.0,0.0,1,1753.0,0
324,324,0.7318904865738579,0.7,0.0,0.0,463.0,985.0,1.0,0,-1438.0,0
325,325,0.4960350414726783,0.5,0.0,0.0,293.0,707.0,0.0,1,2000.0,1
326,326,0.4666296437408074,0.5,1.0,1.0,482.0,548.0,0.0,0,1970.0,0
327,327,-0.12608400401660047,-0.1,1.0,0.0,290.0,605.0,0.0,0,2105.0,1
328,328,0.7596080133153117,0.8,1.0,1.0,453.0,507.0,0.0,0,2040.0,0
329,329,-0.7466018692529747,-0.7,1.0,0.0,485.0,923.0,1.0,1,-1228.0,0
330,330,-0.3321094464955794,-0.3,0.0,1.0,381.0,972.0,0.0,1,1647.0,0
331,331,0.5842057537312845,0.6,0.0,0.0,480.0,846.0,0.0,1,1674.0,1
332,332,-0.8765666158013129,-0.9,0.0,1.0,439.0,591.0,0.0,1,1970.0,0
333,333,-0.7917901566265637,-0.8,1.0,0.0,374.0,720.0,0.0,0,1906.0,1
334,334,-0.6255375955984886,-0.6,1.0,0.0,447.0,619.0,0.0,0,1934.0,1
335,335,0.5190732996976762,0.5,0.0,0.0,389.0,675.0,0.0,1,1936.0,1
336,336,-0.39810967189417223,-0.4,1.0,0.0,463.0,879.0,0.0,0,1658.0,1
337,337,0.8448288012025768,0.8,1.0,1.0,370.0,602.0,0.0,0,2028.0,0
338,338,0.630242908246981,0.6,0.0,0.0,447.0,726.0,0.0,1,1827.0,1
339,339,0.7791221619554435,0.8,1.0,1.0,313.0,660.0,0.0,0,2027.0,0
340,340,0.21115748748206997,0.2,0.0,0.0,427.0,937.0,1.0,0,-1334.0,0
341,341,-0.44811815572117425,-0.4,0.0,1.0,265.0,867.0,0.0,1,1868.0,0
342,342,-0.25208871506958996,-0.3,0.0,1.0,426.0,590.0,1.0,0,-856.0,1
343,343,0.632656251669978,0.6,1.0,1.0,366.0,634.0,0.0,0,2000.0,0
344,344,-0.7801484658157416,-0.8,1.0,0.0,476.0,610.0,0.0,0,1914.0,1
345,345,0.1946987039945024,0.2,1.0,1.0,343.0,789.0,0.0,0,1868.0,0
346,346,0.6875193330437456,0.7,0.0,0.0,374.0,806.0,0.0,1,1820.0,1
347,347,0.0582074477685377,0.1,1.0,1.0,387.0,683.0,0.0,0,1930.0,0
348,348,-0.1920238518807429,-0.2,1.0,0.0,489.0,891.0,0.0,0,1620.0,1
349,349,0.20752510201952734,0.2,0.0,0.0,493.0,991.0,1.0,0,-1314.0,0
350,350,-0.005578305349776436,-0.0,1.0,0.0,475.0,897.0,0.0,0,1628.0,1
351,351,-0.5151968197773642,-0.5,1.0,0.0,386.0,904.0,0.0,0,1710.0,1
352,352,-0.7559055714220702,-0.8,0.0,1.0,279.0,974.0,0.0,1,1747.0,0
353,353,-0.5916763657882451,-0.6,1.0,0.0,476.0,918.0,0.0,0,1606.0,1
354,354,-0.7930335186654619,-0.8,0.0,1.0,425.0,883.0,0.0,1,1692.0,0
355,355,0.20071567636079612,0.2,0.0,0.0,389.0,508.0,0.0,1,2103.0,1
356,356,0.04385050384631861,0.0,0.0,0.0,297.0,662.0,0.0,1,2041.0,1
357,357,-0.05785131150517797,-0.1,0.0,1.0,370.0,938.0,0.0,1,1692.0,0
358,358,0.8423342162460744,0.8,0.0,0.0,337.0,753.0,0.0,1,1910.0,1
359,359,0.04439426810422531,0.0,1.0,1.0,282.0,713.0,0.0,0,2005.0,0
360,360,0.6627900553408131,0.7,1.0,1.0,452.0,717.0,0.0,0,1831.0,0
361,361,-0.30908458891930846,-0.3,1.0,0.0,483.0,777.0,0.0,0,1740.0,1
362,362,-0.5685155123575221,-0.6,0.0,1.0,285.0,907.0,0.0,1,1808.0,0
363,363,-0.2621088615295616,-0.3,0.0,1.0,352.0,628.0,1.0,0,-970.0,1
364,364,-0.31564540175047395,-0.3,1.0,0.0,313.0,719.0,0.0,0,1968.0,1
365,365,-0.03004512571482476,-0.0,1.0,0.0,353.0,520.0,0.0,0,2127.0,1
366,366,-0.5136111967427373,-0.5,0.0,1.0,417.0,863.0,0.0,1,1720.0,0
367,367,-0.34308369784871784,-0.3,1.0,0.0,374.0,953.0,0.0,0,1673.0,1
368,368,0.07209594871882619,0.1,0.0,0.0,394.0,554.0,0.0,1,2052.0,1
369,369,0.6198176212736922,0.6,1.0,1.0,417.0,786.0,0.0,0,1797.0,0
370,370,-0.43033356751033197,-0.4,1.0,0.0,275.0,746.0,0.0,0,1979.0,1
371,371,-0.11000374007423097,-0.1,0.0,1.0,340.0,903.0,0.0,1,1757.0,0
372,372,0.48797893584560914,0.5,1.0,1.0,283.0,803.0,0.0,0,1914.0,0
373,373,0.5470326492694285,0.5,0.0,0.0,297.0,636.0,0.0,1,2067.0,1
374,374,-0.8289377477235328,-0.8,1.0,0.0,348.0,669.0,0.0,0,1983.0,1
375,375,-0.8371004219563907,-0.8,0.0,1.0,305.0,535.0,0.0,1,2160.0,0
376,376,-0.3496549869160336,-0.3,0.0,1.0,484.0,735.0,0.0,1,1781.0,0
377,377,-0.8974805876921994,-0.9,1.0,0.0,288.0,627.0,0.0,0,2085.0,1
378,378,-0.4574307541944926,-0.5,0.0,1.0,312.0,967.0,0.0,1,1721.0,0
379,379,-0.8536629622980838,-0.9,0.0,1.0,253.0,794.0,0.0,1,1953.0,0
380,380,0.7448046478619123,0.7,1.0,1.0,371.0,710.0,0.0,0,1919.0,0
381,381,-0.11593418067745054,-0.1,1.0,0.0,463.0,791.0,0.0,0,1746.0,1
382,382,-0.5075222334770797,-0.5,0.0,1.0,464.0,943.0,0.0,1,1593.0,0
383,383,-0.8097568668458967,-0.8,0.0,1.0,320.0,610.0,0.0,1,2070.0,0
384,384,-0.39769549438851803,-0.4,0.0,1.0,332.0,702.0,0.0,1,1966.0,0
385,385,0.7665201010822452,0.8,1.0,1.0,390.0,571.0,0.0,0,2039.0,0
386,386,-0.8741180649830407,-0.9,0.0,1.0,460.0,906.0,0.0,1,-1236.0,0
387,387,-0.014164152370678695,-0.0,1.0,0.0,405.0,905.0,0.0,0,1690.0,1
388,388,0.8117851903506997,0.8,1.0,1.0,306.0,967.0,0.0,0,1727.0,0
389,389,-0.46056247903210085,-0.5,1.0,0.0,457.0,816.0,0.0,0,1727.0,1
390,390,-0.051017101349868144,-0.1,0.0,1.0,477.0,559.0,0.0,1,1964.0,0
391,391,-0.04412714755223934,-0.0,0.0,1.0,368.0,682.0,0.0,1,1950.0,0
392,392,-0.8038138930691944,-0.8,1.0,0.0,268.0,875.0,0.0,0,1857.0,1
393,393,-0.507046550741243,-0.5,0.0,1.0,434.0,880.0,0.0,1,1686.0,0
394,394,0.05351095714430021,0.1,1.0,1.0,369.0,757.0,0.0,0,1874.0,0
395,395,-0.01719598184951221,-0.0,0.0,1.0,386.0,598.0,0.0,1,2016.0,0
396,396,-0.5717208917194772,-0.6,0.0,1.0,278.0,709.0,0.0,1,2013.0,0
397,397,0.22706920260359886,0.2,1.0,1.0,436.0,728.0,0.0,0,1836.0,0
398,398,0.1575803256428433,0.2,1.0,1.0,317.0,884.0,1.0,1,-1161.0,1
399,399,0.7042609738497628,0.7,1.0,1.0,333.0,508.0,0.0,0,2159.0,0
400,400,0.7531964779808696,0.8,1.0,1.0,368.0,721.0,0.0,0,1911.0,0
401,401,-0.5478081542181715,-0.5,1.0,0.0,285.0,919.0,0.0,0,1796.0,1
402,402,0.658086265476643,0.7,0.0,0.0,273.0,970.0,0.0,1,1757.0,1
403,403,-0.5266615280527902,-0.5,0.0,1.0,291.0,674.0,0.0,1,2035.0,0
404,404,-0.29086684369729143,-0.3,1.0,0.0,444.0,518.0,0.0,0,2038.0,1
405,405,-0.6366274989154643,-0.6,0.0,1.0,269.0,515.0,0.0,1,2216.0,0
406,406,-0.7885820854754153,-0.8,0.0,1.0,399.0,762.0,0.0,1,1839.0,0
407,407,0.6502953004267246,0.7,0.0,0.0,430.0,737.0,0.0,1,1833.0,1
408,408,0.5153117521486924,0.5,0.0,0.0,458.0,767.0,0.0,1,1775.0,1
409,409,0.25944474045651444,0.3,1.0,1.0,301.0,650.0,0.0,0,2049.0,0
410,410,-0.5251404143644465,-0.5,1.0,0.0,376.0,945.0,0.0,0,1679.0,1
411,411,-0.7720594188934369,-0.8,1.0,0.0,416.0,534.0,0.0,0,2050.0,1
412,412,-0.26610652520527056,-0.3,1.0,0.0,465.0,996.0,1.0,1,-1311.0,0
413,413,-0.7265539692053194,-0.7,0.0,1.0,362.0,605.0,0.0,1,2033.0,0
414,414,0.41781098015545626,0.4,0.0,0.0,257.0,775.0,0.0,1,1968.0,1
415,415,0.026192689434203498,0.0,1.0,1.0,271.0,655.0,0.0,0,2074.0,0
416,416,-0.0325230428675104,-0.0,0.0,1.0,348.0,727.0,0.0,1,1925.0,0
417,417,0.8400045577650027,0.8,0.0,0.0,434.0,697.0,0.0,1,1869.0,1
418,418,-0.21657646765829108,-0.2,0.0,1.0,254.0,915.0,0.0,1,1831.0,0
419,419,0.6375841035457365,0.6,1.0,1.0,423.0,708.0,0.0,0,1869.0,0
420,420,0.6130168698655508,0.6,1.0,1.0,382.0,518.0,0.0,0,2100.0,0
421,421,0.84522255245885,0.8,0.0,0.0,420.0,929.0,1.0,0,-1269.0,0
422,422,0.2514354656545822,0.3,0.0,0.0,252.0,767.0,0.0,1,-949.0,1
423,423,0.19429446530719197,0.2,1.0,1.0,302.0,757.0,0.0,0,1941.0,0
424,424,-0.7606283151904818,-0.8,0.0,1.0,280.0,552.0,0.0,1,2168.0,0
425,425,-0.6243330385746377,-0.6,1.0,0.0,470.0,838.0,0.0,0,1692.0,1
426,426,-0.5836279151050252,-0.6,1.0,0.0,404.0,874.0,1.0,1,-1278.0,0
427,427,0.39137453105946685,0.4,1.0,1.0,314.0,609.0,0.0,0,2077.0,0
428,428,0.7644023885045649,0.8,1.0,1.0,399.0,754.0,0.0,0,1847.0,0
429,429,0.21715705364615723,0.2,0.0,0.0,411.0,747.0,0.0,1,1842.0,1
430,430,-0.3257625362233174,-0.3,1.0,0.0,301.0,627.0,0.0,0,2072.0,1
431,431,-0.8020291902646711,-0.8,1.0,0.0,456.0,937.0,0.0,0,1607.0,1
432,432,-0.08756275292471971,-0.1,1.0,0.0,326.0,783.0,1.0,1,-1029.0,0
433,433,0.8551837557762493,0.9,1.0,1.0,388.0,900.0,0.0,0,1712.0,0
434,434,0.23983071932281297,0.2,1.0,1.0,370.0,599.0,0.0,0,2031.0,0
435,435,0.36504572915663436,0.4,1.0,1.0,297.0,729.0,0.0,0,1974.0,0
436,436,-0.844895910352026,-0.8,1.0,0.0,343.0,597.0,0.0,0,-880.0,1
437,437,-0.7009695610185375,-0.7,0.0,1.0,305.0,833.0,0.0,1,1862.0,0
438,438,-0.0322826722499967,-0.0,0.0,1.0,406.0,776.0,1.0,0,-1132.0,1
439,439,-0.024459001163573246,-0.0,1.0,0.0,297.0,679.0,0.0,0,2024.0,1
440,440,0.11563398447973039,0.1,0.0,0.0,444.0,510.0,0.0,1,2046.0,1
441,441,-0.305452219434883,-0.3,0.0,1.0,363.0,637.0,0.0,1,2000.0,0
442,442,0.6515860819590539,0.7,0.0,0.0,288.0,881.0,0.0,1,1831.0,1
443,443,0.5475172702780494,0.5,0.0,0.0,369.0,925.0,0.0,1,1706.0,1
444,444,0.7906999202384145,0.8,0.0,0.0,414.0,962.0,0.0,1,1624.0,1
445,445,-0.5255615612304716,-0.5,1.0,0.0,323.0,577.0,0.0,0,2100.0,1
446,446,0.8767539927934797,0.9,1.0,1.0,263.0,977.0,0.0,0,1760.0,0
447,447,0.8003799354850057,0.8,0.0,0.0,260.0,679.0,0.0,1,2061.0,1
448,448,-0.39034935965561357,-0.4,0.0,1.0,492.0,537.0,0.0,1,1971.0,0
449,449,-0.7269603569186069,-0.7,1.0,0.0,367.0,552.0,0.0,0,2081.0,1
450,450,-0.19691934384888166,-0.2,0.0,1.0,388.0,734.0,0.0,1,1878.0,0
451,451,-0.2068318686520042,-0.2,0.0,1.0,362.0,813.0,0.0,1,1825.0,0
452,452,0.3670440554252815,0.4,0.0,0.0,464.0,568.0,0.0,1,1968.0,1
453,453,0.6694189777025982,0.7,0.0,0.0,411.0,974.0,0.0,1,1615.0,1
454,454,0.6777443145098351,0.7,0.0,0.0,402.0,997.0,0.0,1,1601.0,1
455,455,-0.3146296551707989,-0.3,1.0,0.0,285.0,908.0,0.0,0,1807.0,1
456,456,0.298707871056734,0.3,0.0,0.0,293.0,673.0,0.0,1,2034.0,1
457,457,-0.6843031911756041,-0.7,0.0,1.0,405.0,877.0,0.0,1,1718.0,0
458,458,0.08602147818098105,0.1,1.0,1.0,308.0,824.0,0.0,0,1868.0,0
459,459,-0.25388250155657643,-0.3,0.0,1.0,454.0,639.0,0.0,1,1907.0,0
460,460,0.06792404818614117,0.1,1.0,1.0,414.0,710.0,0.0,0,1876.0,0
461,461,0.03549912509014941,0.0,0.0,0.0,408.0,506.0,0.0,1,2086.0,1
462,462,-0.8078468189388279,-0.8,0.0,1.0,445.0,918.0,0.0,1,1637.0,0
463,463,-0.4067171865583,-0.4,0.0,1.0,474.0,621.0,0.0,1,1905.0,0
464,464,0.018668269731706988,0.0,1.0,1.0,345.0,775.0,0.0,0,1880.0,0
465,465,-0.6490556771913061,-0.6,1.0,0.0,312.0,683.0,0.0,0,2005.0,1
466,466,0.7100818294657606,0.7,1.0,1.0,289.0,770.0,1.0,1,-949.0,1
467,467,0.3641506842214072,0.4,0.0,0.0,485.0,795.0,0.0,1,1720.0,1
468,468,-0.5682222933414409,-0.6,1.0,0.0,442.0,943.0,0.0,0,1615.0,1
469,469,-0.07507245080383507,-0.1,1.0,0.0,434.0,917.0,0.0,0,-1331.0,1
470,470,0.779932215690056,0.8,0.0,0.0,465.0,952.0,0.0,1,1583.0,1
471,471,0.8968974749394126,0.9,1.0,1.0,478.0,985.0,0.0,0,-1383.0,0
472,472,-0.44947124548614814,-0.4,1.0,0.0,260.0,600.0,0.0,0,2140.0,1
473,473,0.6022626834165913,0.6,1.0,1.0,497.0,695.0,0.0,0,1808.0,0
474,474,-0.5911112833835932,-0.6,1.0,0.0,363.0,793.0,0.0,0,1844.0,1
475,475,-0.007078163252138836,-0.0,0.0,1.0,349.0,589.0,0.0,1,2062.0,0
476,476,-0.672075105790854,-0.7,0.0,1.0,449.0,865.0,0.0,1,1686.0,0
477,477,0.18155260447508959,0.2,0.0,0.0,346.0,778.0,0.0,1,1876.0,1
478,478,0.7214498174050384,0.7,0.0,0.0,266.0,945.0,0.0,1,1789.0,1
479,479,-0.5900193290837157,-0.6,1.0,0.0,290.0,851.0,0.0,0,1859.0,1
480,480,0.40559539728809846,0.4,1.0,1.0,275.0,865.0,0.0,0,-1140.0,0
481,481,0.8208497670804319,0.8,1.0,1.0,284.0,626.0,0.0,0,2090.0,0
482,482,-0.8547415740590154,-0.9,0.0,1.0,388.0,899.0,0.0,1,1713.0,0
483,483,-0.7444971499070903,-0.7,0.0,1.0,318.0,923.0,0.0,1,1759.0,0
484,484,-0.8306084719851936,-0.8,0.0,1.0,485.0,955.0,0.0,1,-1300.0,0
485,485,-0.8950687390624429,-0.9,1.0,0.0,260.0,833.0,0.0,0,1907.0,1
486,486,0.5606118267121482,0.6,1.0,1.0,333.0,718.0,0.0,0,1949.0,0
487,487,-0.7949658361465259,-0.8,1.0,0.0,414.0,823.0,1.0,1,-1207.0,0
488,488,-0.5406838667176488,-0.5,1.0,0.0,443.0,835.0,1.0,1,-1098.0,0
489,489,0.0629066392171479,0.1,1.0,1.0,316.0,972.0,0.0,0,1712.0,0
490,490,0.7669620239620926,0.8,0.0,0.0,458.0,589.0,0.0,1,-887.0,1
491,491,-0.4036375241911907,-0.4,0.0,1.0,307.0,640.0,0.0,1,2053.0,0
492,492,0.2076628368400405,0.2,1.0,1.0,474.0,871.0,0.0,0,1655.0,0
493,493,0.6514839874570678,0.7,1.0,1.0,361.0,735.0,0.0,0,1904.0,0
494,494,0.6315937789191547,0.6,1.0,1.0,305.0,993.0,0.0,0,1702.0,0
495,495,-0.8835630770053002,-0.9,0.0,1.0,284.0,868.0,0.0,1,1848.0,0
496,496,0.3191209929601363,0.3,1.0,1.0,430.0,732.0,0.0,0,-1122.0,0
497,497,-0.7286293866494779,-0.7,1.0,0.0,274.0,612.0,0.0,0,-736.0,1
498,498,-0.07082755294850318,-0.1,1.0,0.0,456.0,790.0,1.0,1,-1156.0,0
499,499,-0.47315685337364716,-0.5,1.0,0.0,278.0,909.0,0.0,0,-1167.0,1
500,500,0.3273211263906156,0.3,0.0,0.0,444.0,804.0,0.0,1,1752.0,1
501,501,-0.6704153523865453,-0.7,1.0,0.0,271.0,872.0,0.0,0,1857.0,1
502,502,0.6932067474490747,0.7,1.0,1.0,459.0,610.0,0.0,0,1931.0,0
503,503,-0.8342923055225191,-0.8,0.0,1.0,496.0,654.0,0.0,1,1850.0,0
504,504,-0.6352296133884383,-0.6,1.0,0.0,308.0,527.0,0.0,0,2165.0,1
505,505,-0.06787490430948906,-0.1,1.0,0.0,263.0,864.0,0.0,0,1873.0,1
506,506,-0.5823894302731337,-0.6,1.0,0.0,424.0,715.0,0.0,0,1861.0,1
507,507,-0.5703884106654018,-0.6,1.0,0.0,482.0,592.0,0.0,0,1926.0,1
508,508,-0.5319780912281223,-0.5,0.0,1.0,465.0,861.0,1.0,0,-1266.0,1
509,509,-0.7993877561443901,-0.8,1.0,0.0,324.0,881.0,1.0,1,-1165.0,0
510,510,-0.875576877051873,-0.9,1.0,0.0,368.0,565.0,0.0,0,2067.0,1
511,511,0.626569705862991,0.6,0.0,0.0,421.0,521.0,0.0,1,2058.0,1
512,512,-0.8581848295063529,-0.9,0.0,1.0,299.0,537.0,0.0,1,2164.0,0
513,513,-0.3267366127471616,-0.3,0.0,1.0,439.0,514.0,0.0,1,2047.0,0
514,514,0.714088845880314,0.7,1.0,1.0,428.0,745.0,0.0,0,1827.0,0
515,515,-0.5668409448619594,-0.6,1.0,0.0,470.0,753.0,0.0,0,1777.0,1
516,516,0.09843061529736696,0.1,0.0,0.0,301.0,844.0,0.0,1,1855.0,1
517,517,0.738756946248666,0.7,1.0,1.0,398.0,868.0,0.0,0,1734.0,0
518,518,0.06336795353519542,0.1,1.0,1.0,479.0,858.0,1.0,1,-1307.0,1
519,519,-0.5203510826502691,-0.5,0.0,1.0,274.0,517.0,0.0,1,2209.0,0
520,520,0.5509458207399024,0.6,0.0,0.0,428.0,918.0,0.0,1,1654.0,1
521,521,0.8938021408742308,0.9,0.0,0.0,397.0,693.0,1.0,0,-1020.0,0
522,522,-0.3763626125712437,-0.4,0.0,1.0,397.0,919.0,0.0,1,1684.0,0
523,523,0.783941182445182,0.8,0.0,0.0,450.0,503.0,0.0,1,2047.0,1
524,524,0.16803985489079498,0.2,1.0,1.0,498.0,584.0,0.0,0,1918.0,0
525,525,-0.7449687550037051,-0.7,0.0,1.0,409.0,894.0,0.0,1,1697.0,0
526,526,-0.2743511036983195,-0.3,1.0,0.0,491.0,944.0,0.0,0,1565.0,1
527,527,0.16226900560306123,0.2,0.0,0.0,471.0,890.0,0.0,1,1639.0,1
528,528,0.7707109159267492,0.8,0.0,0.0,289.0,740.0,0.0,1,1971.0,1
529,529,-0.06218366982151191,-0.1,1.0,0.0,373.0,555.0,0.0,0,2072.0,1
530,530,0.5096136474906577,0.5,1.0,1.0,254.0,911.0,0.0,0,-1105.0,0
531,531,0.4733513029272175,0.5,0.0,0.0,259.0,525.0,0.0,1,2216.0,1
532,532,-0.6186611055606108,-0.6,0.0,1.0,323.0,927.0,0.0,1,1750.0,0
533,533,-0.10405321007263835,-0.1,0.0,1.0,480.0,891.0,0.0,1,1629.0,0
534,534,0.45781640654367306,0.5,1.0,1.0,364.0,516.0,0.0,0,2120.0,0
535,535,-0.5897624358495026,-0.6,0.0,1.0,400.0,750.0,0.0,1,1850.0,0
536,536,-0.0653638160242237,-0.1,1.0,0.0,499.0,650.0,0.0,0,1851.0,1
537,537,-0.867183903281618,-0.9,0.0,1.0,448.0,515.0,0.0,1,2037.0,0
538,538,-0.5513678729349185,-0.6,0.0,1.0,492.0,505.0,0.0,1,2003.0,0
539,539,-0.6640913616588032,-0.7,1.0,0.0,455.0,675.0,0.0,0,1870.0,1
540,540,0.7113015557798307,0.7,1.0,1.0,403.0,846.0,0.0,0,1751.0,0
541,541,-0.7785482996650883,-0.8,1.0,0.0,462.0,516.0,0.0,0,2022.0,1
542,542,0.8836278938416492,0.9,0.0,0.0,388.0,838.0,0.0,1,1774.0,1
543,543,0.8796485223134817,0.9,1.0,1.0,295.0,883.0,0.0,0,1822.0,0
544,544,-0.19749385267132202,-0.2,1.0,0.0,275.0,530.0,0.0,0,2195.0,1
545,545,-0.09480849401933344,-0.1,0.0,1.0,268.0,970.0,0.0,1,1762.0,0
546,546,0.6395346383303789,0.6,0.0,0.0,316.0,514.0,0.0,1,2170.0,1
547,547,0.20258873330604288,0.2,1.0,1.0,499.0,658.0,0.0,0,1843.0,0
548,548,-0.7889206594240226,-0.8,0.0,1.0,296.0,563.0,0.0,1,2141.0,0
549,549,-0.18125035789402555,-0.2,0.0,1.0,281.0,966.0,0.0,1,1753.0,0
550,550,0.4100630217799367,0.4,0.0,0.0,447.0,627.0,0.0,1,1926.0,1
551,551,0.7293990508026805,0.7,0.0,0.0,482.0,832.0,0.0,1,1686.0,1
552,552,-0.7348145475192437,-0.7,0.0,1.0,489.0,875.0,0.0,1,1636.0,0
553,553,0.861433797323011,0.9,0.0,0.0,282.0,528.0,0.0,1,2190.0,1
554,554,0.49945045920164655,0.5,1.0,1.0,428.0,522.0,0.0,0,-860.0,0
555,555,-0.6061268581704927,-0.6,1.0,0.0,348.0,724.0,0.0,0,1928.0,1
556,556,0.6068820028656615,0.6,1.0,1.0,325.0,614.0,0.0,0,2061.0,0
557,557,0.8877556539897989,0.9,0.0,0.0,315.0,933.0,0.0,1,1752.0,1
558,558,0.6424923590030928,0.6,1.0,1.0,425.0,739.0,0.0,0,1836.0,0
559,559,0.08842995923729602,0.1,0.0,0.0,265.0,675.0,0.0,1,2060.0,1
560,560,-0.6501812692453849,-0.7,1.0,0.0,292.0,651.0,0.0,0,2057.0,1
561,561,0.3813059614197992,0.4,1.0,1.0,489.0,743.0,0.0,0,-1222.0,0
562,562,-0.26831595325401936,-0.3,0.0,1.0,300.0,845.0,0.0,1,1855.0,0
563,563,-0.36744522362459453,-0.4,0.0,1.0,351.0,600.0,0.0,1,2049.0,0
564,564,-0.8726815407085112,-0.9,0.0,1.0,490.0,812.0,0.0,1,1698.0,0
565,565,0.2669851725649862,0.3,1.0,1.0,351.0,553.0,0.0,0,2096.0,0
566,566,0.8224816713570834,0.8,1.0,1.0,356.0,811.0,0.0,0,1833.0,0
567,567,0.18396478973319075,0.2,1.0,1.0,445.0,535.0,0.0,0,2020.0,0
568,568,0.4867146058884958,0.5,0.0,0.0,314.0,694.0,0.0,1,1992.0,1
569,569,-0.5577057244255399,-0.6,1.0,0.0,251.0,631.0,0.0,0,2118.0,1
570,570,0.7048483935796234,0.7,1.0,1.0,475.0,686.0,0.0,0,1839.0,0
571,571,-0.5392982254207139,-0.5,0.0,1.0,255.0,865.0,0.0,1,1880.0,0
572,572,-0.1323816453504868,-0.1,1.0,0.0,488.0,783.0,0.0,0,1729.0,1
573,573,0.6976433557299825,0.7,0.0,0.0,430.0,712.0,0.0,1,1858.0,1
574,574,0.4151264976015766,0.4,0.0,0.0,301.0,745.0,0.0,1,1954.0,1
575,575,-0.7990056682765699,-0.8,1.0,0.0,433.0,962.0,0.0,0,1605.0,1
576,576,0.28921456098826004,0.3,1.0,1.0,355.0,852.0,0.0,0,1793.0,0
577,577,0.6514435889027334,0.7,1.0,1.0,269.0,704.0,0.0,0,2027.0,0
578,578,0.6137788430810499,0.6,0.0,0.0,443.0,514.0,1.0,0,-857.0,0
579,579,-0.5427304273903462,-0.5,0.0,1.0,268.0,885.0,0.0,1,1847.0,0
580,580,-0.4475283353517638,-0.4,1.0,0.0,389.0,646.0,0.0,0,1965.0,1
581,581,0.6507290289657645,0.7,1.0,1.0,461.0,650.0,0.0,0,1889.0,0
582,582,-0.6817302539523139,-0.7,1.0,0.0,338.0,627.0,0.0,0,2035.0,1
583,583,-0.8309564519002082,-0.8,0.0,1.0,276.0,800.0,0.0,1,1924.0,0
584,584,-0.5512176788689336,-0.6,1.0,0.0,428.0,592.0,0.0,0,1980.0,1
585,585,0.7213211476800664,0.7,1.0,1.0,402.0,915.0,0.0,0,-1257.0,0
586,586,-0.3339890027259662,-0.3,1.0,0.0,378.0,635.0,0.0,0,1987.0,1
587,587,-0.7865099560511188,-0.8,1.0,0.0,272.0,934.0,0.0,0,1794.0,1
588,588,-0.8967549818789741,-0.9,1.0,0.0,344.0,875.0,0.0,0,1781.0,1
589,589,-0.44863833277002424,-0.4,1.0,0.0,328.0,811.0,0.0,0,1861.0,1
590,590,-0.7493016456132464,-0.7,0.0,1.0,330.0,947.0,0.0,1,1723.0,0
591,591,0.6540775707723135,0.7,1.0,1.0,417.0,873.0,0.0,0,1710.0,0
592,592,-0.08283791498228643,-0.1,0.0,1.0,417.0,502.0,0.0,1,2081.0,0
593,593,0.8018491157758377,0.8,1.0,1.0,348.0,603.0,0.0,0,2049.0,0
594,594,-0.2209488406321951,-0.2,1.0,0.0,458.0,553.0,0.0,0,1989.0,1
595,595,-0.8454402189563174,-0.8,0.0,1.0,278.0,777.0,0.0,1,1945.0,0
596,596,0.20525465564712742,0.2,0.0,0.0,416.0,906.0,0.0,1,1678.0,1
597,597,0.08442091889549974,0.1,1.0,1.0,340.0,868.0,0.0,0,1792.0,0
598,598,-0.8929230183497378,-0.9,1.0,0.0,319.0,655.0,0.0,0,2026.0,1
599,599,-0.1434102542597535,-0.1,0.0,1.0,353.0,681.0,0.0,1,1966.0,0
600,600,-0.2361147888184304,-0.2,1.0,0.0,300.0,724.0,0.0,0,1976.0,1
601,601,-0.2358662971350034,-0.2,0.0,1.0,308.0,531.0,0.0,1,2161.0,0
602,602,0.08653748014741725,0.1,1.0,1.0,336.0,643.0,0.0,0,2021.0,0
603,603,-0.15735323429216375,-0.2,1.0,0.0,297.0,597.0,0.0,0,2106.0,1
604,604,-0.46575309259214287,-0.5,1.0,0.0,344.0,548.0,0.0,0,2108.0,1
605,605,0.879195410922987,0.9,0.0,0.0,402.0,924.0,0.0,1,1674.0,1
606,606,0.8869454916498022,0.9,1.0,1.0,455.0,801.0,0.0,0,1744.0,0
607,607,-0.8642365374924015,-0.9,0.0,1.0,294.0,582.0,0.0,1,2124.0,0
608,608,-0.08082743386164715,-0.1,1.0,0.0,301.0,796.0,0.0,0,1903.0,1
609,609,-0.33176780149049023,-0.3,1.0,0.0,481.0,614.0,0.0,0,1905.0,1
610,610,0.37809571158969246,0.4,0.0,0.0,275.0,730.0,0.0,1,1995.0,1
611,611,-0.011370245344316854,-0.0,1.0,0.0,259.0,631.0,0.0,0,2110.0,1
612,612,-0.4519536796072551,-0.5,1.0,0.0,489.0,816.0,0.0,0,1695.0,1
613,613,0.1399865440881255,0.1,0.0,0.0,353.0,999.0,1.0,0,-1312.0,0
614,614,-0.8502970680549542,-0.9,1.0,0.0,255.0,777.0,0.0,0,1968.0,1
615,615,-0.7839537289128035,-0.8,0.0,1.0,291.0,524.0,0.0,1,-785.0,0
616,616,-0.7369120395733492,-0.7,1.0,0.0,268.0,868.0,0.0,0,-1126.0,1
617,617,-0.22221162311334208,-0.2,1.0,0.0,464.0,632.0,0.0,0,1904.0,1
618,618,0.1515791890304673,0.2,0.0,0.0,460.0,946.0,0.0,1,1594.0,1
619,619,-0.7584947476208487,-0.8,0.0,1.0,311.0,750.0,0.0,1,1939.0,0
620,620,-0.5987487136698906,-0.6,1.0,0.0,380.0,779.0,0.0,0,1841.0,1
621,621,0.12435399743280195,0.1,1.0,1.0,377.0,555.0,0.0,0,2068.0,0
622,622,-0.4073183174842451,-0.4,0.0,1.0,369.0,831.0,0.0,1,1800.0,0
623,623,-0.7644577246863561,-0.8,1.0,0.0,318.0,500.0,0.0,0,2182.0,1
624,624,0.12693586558262238,0.1,0.0,0.0,436.0,505.0,0.0,1,2059.0,1
625,625,0.6652310460368019,0.7,0.0,0.0,490.0,724.0,0.0,1,1786.0,1
626,626,0.5184551559706266,0.5,0.0,0.0,278.0,702.0,0.0,1,2020.0,1
627,627,-0.6860731670629355,-0.7,1.0,0.0,439.0,560.0,0.0,0,2001.0,1
628,628,-0.5528392778156368,-0.6,0.0,1.0,328.0,609.0,0.0,1,2063.0,0
629,629,-0.09511347616042332,-0.1,0.0,1.0,331.0,820.0,0.0,1,1849.0,0
630,630,-0.8239924716323295,-0.8,1.0,0.0,261.0,975.0,0.0,0,1764.0,1
631,631,0.17254344071268857,0.2,0.0,0.0,473.0,549.0,0.0,1,1978.0,1
632,632,-0.11368654316364368,-0.1,0.0,1.0,357.0,924.0,0.0,1,1719.0,0
633,633,-0.7689224174425967,-0.8,1.0,0.0,292.0,585.0,0.0,0,2123.0,1
634,634,0.5604838497005583,0.6,1.0,1.0,261.0,938.0,0.0,0,1801.0,0
635,635,-0.04371434322817214,-0.0,1.0,0.0,286.0,851.0,0.0,0,-877.0,1
636,636,0.2662835805212843,0.3,0.0,0.0,317.0,865.0,0.0,1,1818.0,1
637,637,0.6104870896958167,0.6,1.0,1.0,442.0,546.0,0.0,0,2012.0,0
638,638,0.5387729162446936,0.5,0.0,0.0,343.0,632.0,0.0,1,2025.0,1
639,639,-0.5821729927070494,-0.6,1.0,0.0,317.0,890.0,0.0,0,1793.0,1
640,640,0.34102237226944954,0.3,0.0,0.0,429.0,809.0,0.0,1,1762.0,1
641,641,0.11436981436431937,0.1,1.0,1.0,393.0,909.0,0.0,0,1698.0,0
642,642,-0.4529051035995488,-0.5,0.0,1.0,331.0,849.0,0.0,1,1820.0,0
643,643,-0.5031122447940739,-0.5,0.0,1.0,278.0,821.0,0.0,1,1901.0,0
644,644,0.8542006230223721,0.9,0.0,0.0,481.0,867.0,0.0,1,1652.0,1
645,645,-0.8390799540934026,-0.8,0.0,1.0,438.0,506.0,0.0,1,2056.0,0
646,646,0.3244575077563313,0.3,1.0,1.0,436.0,862.0,0.0,0,1702.0,0
647,647,0.0020128004286157353,0.0,1.0,1.0,437.0,853.0,0.0,0,-1280.0,0
648,648,-0.2046756269189579,-0.2,0.0,1.0,324.0,820.0,0.0,1,1856.0,0
649,649,0.8590533133435522,0.9,0.0,0.0,317.0,587.0,0.0,1,2096.0,1
650,650,-0.09754967011876248,-0.1,0.0,1.0,396.0,782.0,0.0,1,-1158.0,0
651,651,-0.47208940347173106,-0.5,0.0,1.0,412.0,791.0,0.0,1,1797.0,0
652,652,-0.7426693406228599,-0.7,1.0,0.0,392.0,715.0,0.0,0,1893.0,1
653,653,-0.3558300238759622,-0.4,1.0,0.0,320.0,610.0,0.0,0,2070.0,1
654,654,0.18846581076568858,0.2,1.0,1.0,265.0,850.0,0.0,0,1885.0,0
655,655,-0.14469599746615613,-0.1,0.0,1.0,487.0,917.0,0.0,1,1596.0,0
656,656,0.3579773921160031,0.4,0.0,0.0,411.0,998.0,0.0,1,1591.0,1
657,657,-0.4285330155144736,-0.4,0.0,1.0,451.0,581.0,0.0,1,1968.0,0
658,658,-0.5046805295400649,-0.5,0.0,1.0,391.0,884.0,0.0,1,1725.0,0
659,659,-0.820785685052289,-0.8,0.0,1.0,376.0,929.0,0.0,1,1695.0,0
660,660,0.7062315022785114,0.7,1.0,1.0,328.0,964.0,0.0,0,1708.0,0
661,661,0.659032288714044,0.7,1.0,1.0,363.0,870.0,0.0,0,1767.0,0
662,662,0.268215826956122,0.3,1.0,1.0,296.0,583.0,0.0,0,2121.0,0
663,663,-0.3600978216924101,-0.4,0.0,1.0,253.0,931.0,0.0,1,-1104.0,0
664,664,-0.08805698635059978,-0.1,1.0,0.0,408.0,521.0,0.0,0,2071.0,1
665,665,-0.6304887317907388,-0.6,1.0,0.0,281.0,869.0,0.0,0,1850.0,1
666,666,0.849541952465123,0.8,0.0,0.0,365.0,790.0,1.0,0,-1105.0,0
667,667,-0.3342739164925067,-0.3,1.0,0.0,304.0,992.0,0.0,0,1704.0,1
668,668,-0.8157673431688045,-0.8,0.0,1.0,445.0,573.0,0.0,1,1982.0,0
669,669,0.1562331160103535,0.2,1.0,1.0,362.0,507.0,0.0,0,2131.0,0
670,670,0.010025506857957778,0.0,1.0,1.0,478.0,893.0,0.0,0,1629.0,0
671,671,-0.6063412078374562,-0.6,0.0,1.0,276.0,768.0,0.0,1,1956.0,0
672,672,0.14033672063234925,0.1,0.0,0.0,259.0,842.0,0.0,1,1899.0,1
673,673,-0.8196880681176799,-0.8,0.0,1.0,312.0,550.0,0.0,1,2138.0,0
674,674,0.7385491330468473,0.7,1.0,1.0,348.0,560.0,0.0,0,2092.0,0
675,675,0.7145315676452152,0.7,0.0,0.0,438.0,589.0,0.0,1,1973.0,1
676,676,-0.4652677560469144,-0.5,1.0,0.0,456.0,800.0,0.0,0,1744.0,1
677,677,-0.4777140957021641,-0.5,0.0,1.0,348.0,571.0,0.0,1,2081.0,0
678,678,-0.38989610341424585,-0.4,1.0,0.0,331.0,784.0,0.0,0,1885.0,1
679,679,0.03537620937806463,0.0,0.0,0.0,254.0,805.0,0.0,1,1941.0,1
680,680,-0.22636500857014752,-0.2,0.0,1.0,336.0,521.0,0.0,1,2143.0,0
681,681,-0.8243358558797546,-0.8,0.0,1.0,434.0,608.0,0.0,1,1958.0,0
682,682,0.28866507841161393,0.3,1.0,1.0,269.0,693.0,0.0,0,2038.0,0
683,683,-0.4752712829080281,-0.5,0.0,1.0,350.0,558.0,0.0,1,2092.0,0
684,684,0.7571923884812249,0.8,1.0,1.0,365.0,856.0,0.0,0,1779.0,0
685,685,-0.6143385091150304,-0.6,0.0,1.0,277.0,846.0,0.0,1,1877.0,0
686,686,-0.5715898189979116,-0.6,1.0,0.0,297.0,879.0,0.0,0,1824.0,1
687,687,0.7079686187857867,0.7,0.0,0.0,485.0,985.0,0.0,1,-1450.0,1
688,688,0.03405871217825662,0.0,1.0,1.0,419.0,643.0,0.0,0,1938.0,0
689,689,0.4588712503931113,0.5,0.0,0.0,402.0,854.0,0.0,1,1744.0,1
690,690,0.061665070615074535,0.1,1.0,1.0,307.0,716.0,0.0,0,1977.0,0
691,691,0.7931670654310056,0.8,1.0,1.0,296.0,798.0,0.0,0,1906.0,0
692,692,0.6674564406610682,0.7,1.0,1.0,473.0,882.0,0.0,0,1645.0,0
693,693,-0.2872518418891691,-0.3,0.0,1.0,468.0,657.0,0.0,1,1875.0,0
694,694,-0.7927863189198956,-0.8,0.0,1.0,453.0,971.0,0.0,1,1576.0,0
695,695,0.3929305376739397,0.4,1.0,1.0,257.0,856.0,0.0,0,1887.0,0
696,696,-0.4433112643381677,-0.4,1.0,0.0,362.0,585.0,0.0,0,2053.0,1
697,697,-0.4248636232274015,-0.4,0.0,1.0,483.0,904.0,0.0,1,1613.0,0
698,698,-0.45757634891878335,-0.5,0.0,1.0,275.0,648.0,0.0,1,2077.0,0
699,699,-0.44344809703963856,-0.4,1.0,0.0,344.0,997.0,0.0,0,1659.0,1
700,700,-0.7324140079594396,-0.7,1.0,0.0,394.0,934.0,0.0,0,1672.0,1
701,701,-0.47233460735627913,-0.5,0.0,1.0,301.0,904.0,0.0,1,1795.0,0
702,702,-0.6111310996240629,-0.6,0.0,1.0,458.0,584.0,0.0,1,1958.0,0
703,703,-0.7883632443135093,-0.8,0.0,1.0,477.0,975.0,1.0,0,-1392.0,1
704,704,-0.7046052580039551,-0.7,1.0,0.0,343.0,584.0,0.0,0,2073.0,1
705,705,-0.4780959053336992,-0.5,0.0,1.0,253.0,770.0,0.0,1,1977.0,0
706,706,-0.10165928578291827,-0.1,0.0,1.0,287.0,594.0,0.0,1,2119.0,0
707,707,0.6105691488343449,0.6,0.0,0.0,453.0,936.0,0.0,1,-1299.0,1
708,708,-0.2263928003224337,-0.2,0.0,1.0,298.0,642.0,0.0,1,-700.0,0
709,709,0.781572089255414,0.8,0.0,0.0,338.0,872.0,0.0,1,1790.0,1
710,710,0.20941554034440546,0.2,1.0,1.0,333.0,641.0,0.0,0,2026.0,0
711,711,0.09504876879885316,0.1,0.0,0.0,447.0,779.0,0.0,1,1774.0,1
712,712,0.5444913469916063,0.5,1.0,1.0,275.0,774.0,0.0,0,1951.0,0
713,713,-0.7341537576962536,-0.7,1.0,0.0,422.0,606.0,0.0,0,1972.0,1
714,714,-0.8278657718854529,-0.8,1.0,0.0,333.0,726.0,0.0,0,1941.0,1
715,715,-0.5751380508179245,-0.6,1.0,0.0,475.0,684.0,0.0,0,1841.0,1
716,716,-0.213374659406673,-0.2,1.0,0.0,260.0,528.0,0.0,0,2212.0,1
717,717,0.19366273476218654,0.2,1.0,1.0,451.0,653.0,0.0,0,1896.0,0
718,718,0.7381402432051568,0.7,0.0,0.0,362.0,745.0,0.0,1,1893.0,1
719,719,-0.3477382976116866,-0.3,0.0,1.0,291.0,816.0,0.0,1,1893.0,0
720,720,0.43435684528860163,0.4,0.0,0.0,491.0,529.0,0.0,1,1980.0,1
721,721,0.3335907332388247,0.3,1.0,1.0,478.0,845.0,0.0,0,1677.0,0
722,722,0.42859698137565394,0.4,0.0,0.0,304.0,540.0,0.0,1,2156.0,1
723,723,-0.6073514501845811,-0.6,0.0,1.0,314.0,731.0,0.0,1,1955.0,0
724,724,0.7139168749324779,0.7,1.0,1.0,382.0,783.0,0.0,0,1835.0,0
725,725,-0.6422926821466631,-0.6,1.0,0.0,495.0,819.0,0.0,0,1686.0,1
726,726,-0.49167948095371533,-0.5,1.0,0.0,290.0,547.0,0.0,0,2163.0,1
727,727,0.2818916002267412,0.3,1.0,1.0,463.0,701.0,0.0,0,1836.0,0
728,728,-0.654874349206981,-0.7,1.0,0.0,346.0,988.0,0.0,0,1666.0,1
729,729,0.6821206634409366,0.7,0.0,0.0,476.0,562.0,0.0,1,1962.0,1
730,730,-0.8674426449133177,-0.9,1.0,0.0,311.0,877.0,0.0,0,1812.0,1
731,731,-0.27760893209461357,-0.3,0.0,1.0,323.0,799.0,0.0,1,1878.0,0
732,732,0.12781243669971676,0.1,0.0,0.0,490.0,890.0,0.0,1,1620.0,1
733,733,0.17306326494139024,0.2,1.0,1.0,333.0,548.0,1.0,1,-701.0,1
734,734,0.26492579750810286,0.3,0.0,0.0,283.0,529.0,0.0,1,2188.0,1
735,735,-0.3800274881000534,-0.4,1.0,0.0,292.0,533.0,0.0,0,2175.0,1
736,736,-0.27543730191933924,-0.3,1.0,0.0,353.0,771.0,0.0,0,1876.0,1
737,737,0.06795459711473917,0.1,0.0,0.0,425.0,802.0,0.0,1,-1127.0,1
738,738,0.016619852034332805,0.0,0.0,0.0,401.0,764.0,0.0,1,1835.0,1
739,739,-0.6228912180372215,-0.6,1.0,0.0,251.0,526.0,0.0,0,2223.0,1
740,740,0.4082588249067868,0.4,1.0,1.0,466.0,961.0,0.0,0,1573.0,0
741,741,0.14466631806775332,0.1,1.0,1.0,287.0,767.0,0.0,0,1946.0,0
742,742,0.008182739771037228,0.0,1.0,1.0,293.0,769.0,0.0,0,1938.0,0
743,743,0.8314206825828884,0.8,1.0,1.0,348.0,816.0,0.0,0,1836.0,0
744,744,-0.6821699031615529,-0.7,1.0,0.0,350.0,845.0,0.0,0,1805.0,1
745,745,-0.4171896573277923,-0.4,1.0,0.0,489.0,563.0,1.0,1,-982.0,0
746,746,-0.01481683590067917,-0.0,0.0,1.0,265.0,705.0,0.0,1,2030.0,0
747,747,-0.8426505021484784,-0.8,0.0,1.0,256.0,982.0,0.0,1,1762.0,0
748,748,0.22283515686484312,0.2,0.0,0.0,284.0,515.0,0.0,1,2201.0,1
749,749,-0.01642229343758006,-0.0,0.0,1.0,430.0,614.0,0.0,1,1956.0,0
750,750,0.02007924330467925,0.0,1.0,1.0,404.0,676.0,0.0,0,1920.0,0
751,751,-0.6837977282631117,-0.7,0.0,1.0,438.0,634.0,0.0,1,1928.0,0
752,752,0.41334965874382845,0.4,1.0,1.0,250.0,877.0,0.0,0,1873.0,0
753,753,0.5109234434444695,0.5,1.0,1.0,496.0,503.0,0.0,0,-929.0,0
754,754,-0.21058369617779193,-0.2,1.0,0.0,270.0,718.0,0.0,0,2012.0,1
755,755,0.8555020546221973,0.9,0.0,0.0,315.0,820.0,0.0,1,1865.0,1
756,756,-0.12189972912067282,-0.1,0.0,1.0,254.0,675.0,0.0,1,2071.0,0
757,757,-0.21019619122183653,-0.2,0.0,1.0,446.0,801.0,0.0,1,1753.0,0
758,758,0.39262445289445547,0.4,1.0,1.0,386.0,937.0,0.0,0,1677.0,0
759,759,0.8605812203372548,0.9,1.0,1.0,293.0,530.0,0.0,0,2177.0,0
760,760,0.5433871947741048,0.5,0.0,0.0,271.0,946.0,0.0,1,-1097.0,1
761,761,-0.19994231876883084,-0.2,0.0,1.0,408.0,746.0,0.0,1,1846.0,0
762,762,-0.62482942031202,-0.6,1.0,0.0,472.0,646.0,0.0,0,1882.0,1
763,763,0.36780442826363335,0.4,1.0,1.0,304.0,956.0,0.0,0,1740.0,0
764,764,0.8685608009910343,0.9,1.0,1.0,366.0,658.0,0.0,0,1976.0,0
765,765,0.33599138502063564,0.3,0.0,0.0,333.0,551.0,0.0,1,2116.0,1
766,766,0.4341027565158727,0.4,1.0,1.0,372.0,662.0,0.0,0,-1034.0,0
767,767,0.8758922322762185,0.9,1.0,1.0,311.0,994.0,0.0,0,1695.0,0
768,768,-0.042805936657400845,-0.0,1.0,0.0,285.0,632.0,0.0,0,2083.0,1
769,769,0.22882447470657186,0.2,0.0,0.0,265.0,733.0,0.0,1,2002.0,1
770,770,-0.4329456234954061,-0.4,1.0,0.0,467.0,793.0,0.0,0,1740.0,1
771,771,0.20298263726597077,0.2,1.0,1.0,374.0,919.0,0.0,0,1707.0,0
772,772,0.0778455197819713,0.1,0.0,0.0,272.0,983.0,1.0,0,-1065.0,0
773,773,-0.3297692141736389,-0.3,1.0,0.0,390.0,830.0,0.0,0,1780.0,1
774,774,-0.45671957263291274,-0.5,0.0,1.0,313.0,597.0,0.0,1,2090.0,0
775,775,0.42389527785797043,0.4,1.0,1.0,293.0,630.0,0.0,0,2077.0,0
776,776,0.148585810391903,0.1,0.0,0.0,330.0,758.0,0.0,1,1912.0,1
777,777,0.22975137043525773,0.2,0.0,0.0,271.0,508.0,0.0,1,2221.0,1
778,778,0.23646767286840753,0.2,1.0,1.0,385.0,661.0,0.0,0,1954.0,0
779,779,0.5488944928916378,0.5,0.0,0.0,356.0,903.0,0.0,1,1741.0,1
780,780,0.7495623810146802,0.7,0.0,0.0,306.0,898.0,0.0,1,1796.0,1
781,781,-0.30627429516479465,-0.3,0.0,1.0,432.0,528.0,0.0,1,-930.0,0
782,782,0.32206046668448185,0.3,0.0,0.0,289.0,764.0,0.0,1,1947.0,1
783,783,-0.047858906384660505,-0.0,1.0,0.0,352.0,979.0,0.0,0,1669.0,1
784,784,0.18142660929221555,0.2,1.0,1.0,452.0,780.0,0.0,0,1768.0,0
785,785,0.7995989636869946,0.8,1.0,1.0,312.0,772.0,0.0,0,1916.0,0
786,786,-0.2290917686049263,-0.2,0.0,1.0,482.0,963.0,0.0,1,1555.0,0
787,787,0.41573148550592987,0.4,1.0,1.0,337.0,521.0,0.0,0,2142.0,0
788,788,-0.7327969085092979,-0.7,0.0,1.0,330.0,632.0,0.0,1,2038.0,0
789,789,-0.22562747994214116,-0.2,0.0,1.0,455.0,651.0,0.0,1,1894.0,0
790,790,0.5137503179141288,0.5,0.0,0.0,476.0,742.0,1.0,0,-988.0,0
791,791,-0.41979706660906585,-0.4,0.0,1.0,413.0,560.0,0.0,1,2027.0,0
792,792,-0.2323343934333506,-0.2,0.0,1.0,461.0,504.0,0.0,1,2035.0,0
793,793,0.5744130168828258,0.6,0.0,0.0,408.0,912.0,0.0,1,1680.0,1
794,794,0.41495378376928527,0.4,0.0,0.0,320.0,932.0,0.0,1,1748.0,1
795,795,-0.20763084981393654,-0.2,0.0,1.0,446.0,603.0,0.0,1,1951.0,0
796,796,0.3559887579436095,0.4,0.0,0.0,460.0,760.0,0.0,1,1780.0,1
797,797,-0.05556071749543934,-0.1,0.0,1.0,293.0,803.0,0.0,1,1904.0,0
798,798,0.7120127757068911,0.7,0.0,0.0,401.0,972.0,0.0,1,1627.0,1
799,799,-0.5484659176015559,-0.5,0.0,1.0,475.0,862.0,0.0,1,1663.0,0
800,800,0.19427198472091678,0.2,1.0,1.0,333.0,528.0,0.0,0,2139.0,0
801,801,-0.8605496837233839,-0.9,1.0,0.0,413.0,769.0,0.0,0,1818.0,1
802,802,-0.28053756095716187,-0.3,1.0,0.0,331.0,503.0,0.0,0,2166.0,1
803,803,-0.7073198007162058,-0.7,1.0,0.0,334.0,954.0,0.0,0,1712.0,1
804,804,-0.010538557374431878,-0.0,1.0,0.0,392.0,810.0,0.0,0,1798.0,1
805,805,0.7169767784089719,0.7,1.0,1.0,274.0,878.0,0.0,0,1848.0,0
806,806,-0.5584261742913881,-0.6,1.0,0.0,374.0,752.0,0.0,0,1874.0,1
807,807,-0.5217298934803236,-0.5,0.0,1.0,397.0,618.0,0.0,1,1985.0,0
808,808,0.12309613992077495,0.1,1.0,1.0,303.0,877.0,0.0,0,1820.0,0
809,809,0.20897249863767298,0.2,1.0,1.0,382.0,559.0,0.0,0,2059.0,0
810,810,-0.37654130737576585,-0.4,1.0,0.0,411.0,619.0,0.0,0,1970.0,1
811,811,-0.2752465729624334,-0.3,1.0,0.0,365.0,814.0,0.0,0,1821.0,1
812,812,-0.4718713177602731,-0.5,1.0,0.0,497.0,837.0,0.0,0,1666.0,1
813,813,-0.31916690920125224,-0.3,0.0,1.0,409.0,573.0,0.0,1,2018.0,0
814,814,0.07756719838667148,0.1,0.0,0.0,408.0,854.0,0.0,1,1738.0,1
815,815,0.5056540841421023,0.5,0.0,0.0,468.0,510.0,0.0,1,2022.0,1
816,816,-0.030545305714728577,-0.0,0.0,1.0,446.0,676.0,0.0,1,1878.0,0
817,817,-0.7411151107788998,-0.7,0.0,1.0,489.0,958.0,0.0,1,1553.0,0
818,818,-0.3965027343432357,-0.4,1.0,0.0,429.0,739.0,0.0,0,1832.0,1
819,819,0.6554421605570507,0.7,1.0,1.0,361.0,623.0,0.0,0,2016.0,0
820,820,0.12498023846799355,0.1,0.0,0.0,402.0,729.0,0.0,1,-861.0,1
821,821,-0.6749055282365489,-0.7,1.0,0.0,374.0,713.0,0.0,0,1913.0,1
822,822,0.4769491857788347,0.5,1.0,1.0,301.0,879.0,0.0,0,1820.0,0
823,823,-0.4199780353882375,-0.4,0.0,1.0,308.0,592.0,0.0,1,2100.0,0
824,824,-0.11794310709975231,-0.1,1.0,0.0,306.0,908.0,0.0,0,1786.0,1
825,825,-0.46597011794736,-0.5,0.0,1.0,404.0,924.0,0.0,1,1672.0,0
826,826,0.5302996654706137,0.5,1.0,1.0,334.0,912.0,0.0,0,1754.0,0
827,827,-0.830354826902516,-0.8,0.0,1.0,439.0,842.0,0.0,1,1719.0,0
828,828,0.31834025262256815,0.3,0.0,0.0,291.0,846.0,0.0,1,1863.0,1
829,829,0.5398943628932721,0.5,1.0,1.0,452.0,901.0,0.0,0,1647.0,0
830,830,-0.7734701798193087,-0.8,1.0,0.0,300.0,965.0,0.0,0,1735.0,1
831,831,-0.3526248789632751,-0.4,0.0,1.0,380.0,536.0,0.0,1,2084.0,0
832,832,-0.26330966696408653,-0.3,0.0,1.0,380.0,513.0,1.0,0,-873.0,1
833,833,-0.563425094457255,-0.6,0.0,1.0,418.0,614.0,0.0,1,1968.0,0
834,834,-0.7088052836086628,-0.7,1.0,0.0,259.0,739.0,0.0,0,2002.0,1
835,835,-0.09263445909546819,-0.1,0.0,1.0,293.0,829.0,0.0,1,1878.0,0
836,836,0.3850554916546346,0.4,1.0,1.0,251.0,502.0,0.0,0,-753.0,0
837,837,-0.002385169423407718,-0.0,0.0,1.0,297.0,517.0,0.0,1,2186.0,0
838,838,-0.005276106913493006,-0.0,0.0,1.0,345.0,566.0,0.0,1,2089.0,0
839,839,0.13149757546197993,0.1,0.0,0.0,413.0,568.0,0.0,1,2019.0,1
840,840,-0.31403068535302403,-0.3,1.0,0.0,395.0,505.0,0.0,0,2100.0,1
841,841,0.47428797691695446,0.5,1.0,1.0,314.0,718.0,0.0,0,1968.0,0
842,842,-0.06620306371383367,-0.1,0.0,1.0,410.0,593.0,0.0,1,1997.0,0
843,843,0.536447625638386,0.5,0.0,0.0,350.0,779.0,0.0,1,1871.0,1
844,844,-0.897002922897372,-0.9,0.0,1.0,276.0,912.0,0.0,1,1812.0,0
845,845,0.004714315669737901,0.0,1.0,1.0,376.0,508.0,0.0,0,2116.0,0
846,846,-0.4560269835530793,-0.5,1.0,0.0,436.0,576.0,0.0,0,1988.0,1
847,847,0.7329638969229829,0.7,1.0,1.0,302.0,508.0,0.0,0,2190.0,0
848,848,-0.39143045257782305,-0.4,1.0,0.0,495.0,824.0,0.0,0,1681.0,1
849,849,0.18935743613675815,0.2,0.0,0.0,320.0,933.0,0.0,1,1747.0,1
850,850,0.6584497925755121,0.7,1.0,1.0,343.0,636.0,0.0,0,2021.0,0
851,851,-0.7793071557560899,-0.8,1.0,0.0,458.0,704.0,0.0,0,1838.0,1
852,852,0.8030456512649512,0.8,0.0,0.0,390.0,929.0,0.0,1,1681.0,1
853,853,-0.13967592225950598,-0.1,1.0,0.0,282.0,749.0,0.0,0,1969.0,1
854,854,-0.23932016997312888,-0.2,1.0,0.0,498.0,648.0,0.0,0,1854.0,1
855,855,-0.5384302079258303,-0.5,1.0,0.0,433.0,674.0,0.0,0,1893.0,1
856,856,-0.2954858354354126,-0.3,1.0,0.0,493.0,953.0,0.0,0,1554.0,1
857,857,-0.6129408795262685,-0.6,1.0,0.0,394.0,757.0,0.0,0,1849.0,1
858,858,0.26092490594562767,0.3,0.0,0.0,357.0,532.0,0.0,1,2111.0,1
859,859,-0.8318627240809333,-0.8,1.0,0.0,448.0,614.0,0.0,0,1938.0,1
860,860,-0.40493359792361094,-0.4,1.0,0.0,374.0,644.0,1.0,1,-978.0,0
861,861,0.5337961588134724,0.5,1.0,1.0,274.0,515.0,0.0,0,2211.0,0
862,862,-0.06938599537010626,-0.1,1.0,0.0,441.0,608.0,0.0,0,1951.0,1
863,863,0.8968816352467605,0.9,0.0,0.0,455.0,674.0,0.0,1,1871.0,1
864,864,-0.3355772625658784,-0.3,0.0,1.0,485.0,890.0,0.0,1,1625.0,0
865,865,0.20863789839965585,0.2,1.0,1.0,297.0,517.0,0.0,0,2186.0,0
866,866,0.22706412740737225,0.2,1.0,1.0,302.0,729.0,0.0,0,1969.0,0
867,867,-0.12729555753886446,-0.1,1.0,0.0,334.0,931.0,0.0,0,1735.0,1
868,868,0.08426634198830418,0.1,1.0,1.0,483.0,705.0,0.0,0,-1048.0,0
869,869,0.7611344111756327,0.8,0.0,0.0,286.0,947.0,0.0,1,1767.0,1
870,870,0.029702598643423173,0.0,0.0,0.0,474.0,689.0,0.0,1,-1113.0,1
871,871,0.5544139131420506,0.6,0.0,0.0,320.0,825.0,0.0,1,1855.0,1
872,872,-0.724474757340163,-0.7,1.0,0.0,443.0,988.0,0.0,0,1569.0,1
873,873,-0.8306715064616497,-0.8,1.0,0.0,492.0,570.0,1.0,1,-882.0,0
874,874,0.1846562685651857,0.2,0.0,0.0,375.0,946.0,0.0,1,1679.0,1
875,875,-0.11201320564422446,-0.1,1.0,0.0,343.0,586.0,0.0,0,2071.0,1
876,876,0.8844344216160464,0.9,1.0,1.0,288.0,609.0,0.0,0,2103.0,0
877,877,0.8687299284655302,0.9,1.0,1.0,405.0,569.0,0.0,0,2026.0,0
878,878,0.3839951005836951,0.4,0.0,0.0,484.0,806.0,0.0,1,1710.0,1
879,879,0.6761691316610993,0.7,0.0,0.0,349.0,707.0,0.0,1,1944.0,1
880,880,0.7223952582792516,0.7,0.0,0.0,459.0,516.0,0.0,1,2025.0,1
881,881,0.8579681765654822,0.9,1.0,1.0,347.0,692.0,0.0,0,1961.0,0
882,882,0.6398094866397522,0.6,0.0,0.0,435.0,803.0,0.0,1,1762.0,1
883,883,0.32882342691579314,0.3,1.0,1.0,343.0,983.0,0.0,0,1674.0,0
884,884,-0.2729058455894663,-0.3,0.0,1.0,470.0,734.0,0.0,1,1796.0,0
885,885,-0.7236812846601565,-0.7,1.0,0.0,493.0,570.0,0.0,0,1937.0,1
886,886,0.764480254618105,0.8,0.0,0.0,344.0,552.0,0.0,1,2104.0,1
887,887,-0.05744128422706274,-0.1,1.0,0.0,481.0,946.0,0.0,0,1573.0,1
888,888,0.8835392310308136,0.9,0.0,0.0,464.0,686.0,0.0,1,1850.0,1
889,889,-0.6212036447337386,-0.6,1.0,0.0,441.0,837.0,1.0,1,-1278.0,0
890,890,0.2884238245612988,0.3,0.0,0.0,368.0,866.0,0.0,1,1766.0,1
891,891,0.2534657339505463,0.3,0.0,0.0,353.0,757.0,0.0,1,1890.0,1
892,892,0.532347456486027,0.5,1.0,1.0,395.0,987.0,0.0,0,1618.0,0
893,893,0.5064928720005498,0.5,0.0,0.0,475.0,788.0,0.0,1,1737.0,1
894,894,0.5855746181615201,0.6,1.0,1.0,287.0,961.0,0.0,0,1752.0,0
895,895,-0.1983597422796567,-0.2,0.0,1.0,317.0,537.0,0.0,1,2146.0,0
896,896,-0.10123393550378779,-0.1,0.0,1.0,456.0,822.0,0.0,1,1722.0,0
897,897,-0.1803042753199906,-0.2,0.0,1.0,499.0,540.0,1.0,0,-869.0,1
898,898,0.097960608702086,0.1,0.0,0.0,326.0,775.0,0.0,1,1899.0,1
899,899,0.7655236378616278,0.8,1.0,1.0,463.0,826.0,0.0,0,1711.0,0
900,900,-0.7964491864492977,-0.8,0.0,1.0,346.0,756.0,0.0,1,1898.0,0
901,901,-0.4788703553451416,-0.5,0.0,1.0,356.0,998.0,0.0,1,1646.0,0
902,902,0.17254865272451025,0.2,0.0,0.0,414.0,708.0,1.0,0,-1012.0,0
903,903,-0.26414197699555564,-0.3,1.0,0.0,399.0,975.0,0.0,0,1626.0,1
904,904,0.6346120612403904,0.6,0.0,0.0,473.0,893.0,0.0,1,1634.0,1
905,905,0.1445934056292718,0.1,0.0,0.0,386.0,543.0,0.0,1,2071.0,1
906,906,-0.2940743315819322,-0.3,0.0,1.0,338.0,604.0,0.0,1,2058.0,0
907,907,-0.24786923417552176,-0.2,1.0,0.0,348.0,809.0,0.0,0,1843.0,1
908,908,-0.19428456004730055,-0.2,0.0,1.0,445.0,538.0,0.0,1,2017.0,0
909,909,-0.5469026382348576,-0.5,0.0,1.0,302.0,583.0,0.0,1,2115.0,0
910,910,0.7650733665661066,0.8,0.0,0.0,434.0,576.0,1.0,0,-850.0,0
911,911,0.5698743940681988,0.6,0.0,0.0,386.0,780.0,0.0,1,1834.0,1
912,912,-0.3102475823090429,-0.3,1.0,0.0,449.0,609.0,0.0,0,1942.0,1
913,913,-0.2191375370572498,-0.2,1.0,0.0,325.0,676.0,0.0,0,1999.0,1
914,914,-0.41285797927265105,-0.4,0.0,1.0,393.0,746.0,0.0,1,1861.0,0
915,915,-0.19715954788066514,-0.2,0.0,1.0,299.0,856.0,0.0,1,-1155.0,0
916,916,-0.8687789837756512,-0.9,1.0,0.0,311.0,951.0,0.0,0,1738.0,1
917,917,0.10865245437896764,0.1,1.0,1.0,458.0,654.0,0.0,0,1888.0,0
918,918,-0.2474556678233566,-0.2,1.0,0.0,425.0,689.0,0.0,0,1886.0,1
919,919,0.02933158560608473,0.0,1.0,1.0,261.0,502.0,0.0,0,2237.0,0
920,920,-0.38233373291553885,-0.4,1.0,0.0,255.0,591.0,0.0,0,2154.0,1
921,921,-0.698988182460799,-0.7,0.0,1.0,443.0,821.0,0.0,1,1736.0,0
922,922,-0.7580951096159759,-0.8,0.0,1.0,294.0,596.0,0.0,1,2110.0,0
923,923,-0.31380642411969717,-0.3,0.0,1.0,326.0,844.0,0.0,1,1830.0,0
924,924,0.3801801477024419,0.4,0.0,0.0,472.0,720.0,0.0,1,1808.0,1
925,925,-0.6155750035561751,-0.6,0.0,1.0,300.0,684.0,0.0,1,2016.0,0
926,926,-0.16093545853058266,-0.2,1.0,0.0,280.0,729.0,0.0,0,1991.0,1
927,927,0.47289656482016806,0.5,1.0,1.0,442.0,748.0,1.0,1,-1190.0,1
928,928,-0.2841345121045157,-0.3,1.0,0.0,400.0,856.0,1.0,1,-1186.0,0
929,929,0.6144474706948401,0.6,1.0,1.0,365.0,564.0,0.0,0,2071.0,0
930,930,0.5398507727373957,0.5,1.0,1.0,314.0,864.0,0.0,0,1822.0,0
931,931,-0.033214569997879084,-0.0,1.0,0.0,405.0,518.0,0.0,0,-513.0,1
932,932,0.7527432809596973,0.8,1.0,1.0,367.0,699.0,0.0,0,1934.0,0
933,933,0.7335300918314328,0.7,0.0,0.0,402.0,964.0,0.0,1,1634.0,1
934,934,-0.663939334707171,-0.7,0.0,1.0,498.0,769.0,0.0,1,1733.0,0
935,935,-0.3058355308871582,-0.3,0.0,1.0,301.0,541.0,0.0,1,2158.0,0
936,936,-0.241556473997937,-0.2,1.0,0.0,467.0,600.0,0.0,0,1933.0,1
937,937,-0.5646056028241037,-0.6,0.0,1.0,385.0,511.0,0.0,1,2104.0,0
938,938,0.7715577511749897,0.8,1.0,1.0,351.0,986.0,0.0,0,1663.0,0
939,939,-0.23472205879432473,-0.2,1.0,0.0,290.0,748.0,0.0,0,1962.0,1
940,940,-0.647018255577467,-0.6,0.0,1.0,320.0,758.0,0.0,1,1922.0,0
941,941,-0.48648837032295517,-0.5,1.0,0.0,363.0,557.0,0.0,0,2080.0,1
942,942,-0.8947797530042944,-0.9,0.0,1.0,428.0,916.0,1.0,0,-1094.0,1
943,943,-0.7114454933121471,-0.7,1.0,0.0,252.0,717.0,0.0,0,2031.0,1
944,944,-0.43035306046972904,-0.4,0.0,1.0,406.0,776.0,0.0,1,1818.0,0
945,945,0.46768015195743307,0.5,1.0,1.0,394.0,877.0,0.0,0,1729.0,0
946,946,0.7285951778525778,0.7,0.0,0.0,298.0,560.0,0.0,1,2142.0,1
947,947,-0.01671387064070806,-0.0,1.0,0.0,478.0,638.0,0.0,0,1884.0,1
948,948,-0.1403239401939783,-0.1,1.0,0.0,313.0,991.0,0.0,0,1696.0,1
949,949,-0.666949486113108,-0.7,1.0,0.0,483.0,603.0,0.0,0,1914.0,1
950,950,0.6203365012734737,0.6,0.0,0.0,422.0,775.0,0.0,1,1803.0,1
951,951,0.14447514573136855,0.1,1.0,1.0,337.0,805.0,0.0,0,1858.0,0
952,952,0.6710754179880901,0.7,1.0,1.0,294.0,846.0,0.0,0,1860.0,0
953,953,0.019236390279606108,0.0,1.0,1.0,296.0,702.0,0.0,0,-968.0,0
954,954,0.540361450728987,0.5,0.0,0.0,377.0,631.0,0.0,1,1992.0,1
955,955,0.8679753620217584,0.9,1.0,1.0,399.0,837.0,0.0,0,1764.0,0
956,956,-0.844087077721292,-0.8,0.0,1.0,392.0,600.0,0.0,1,2008.0,0
957,957,-0.6134111308596362,-0.6,1.0,0.0,263.0,512.0,0.0,0,2225.0,1
958,958,-0.7345591066171254,-0.7,1.0,0.0,338.0,678.0,0.0,0,1984.0,1
959,959,0.2551176447928786,0.3,1.0,1.0,275.0,901.0,0.0,0,1824.0,0
960,960,0.06362965447785485,0.1,1.0,1.0,432.0,903.0,0.0,0,1665.0,0
961,961,0.7559721320922993,0.8,1.0,1.0,454.0,770.0,0.0,0,1776.0,0
962,962,0.785694610260442,0.8,0.0,0.0,320.0,849.0,0.0,1,1831.0,1
963,963,0.38217673841530975,0.4,1.0,1.0,273.0,664.0,0.0,0,-827.0,0
964,964,-0.20587739466937105,-0.2,1.0,0.0,399.0,559.0,0.0,0,2042.0,1
965,965,0.7469761378324492,0.7,0.0,0.0,460.0,943.0,1.0,0,-1393.0,0
966,966,0.15186997407536673,0.2,0.0,0.0,404.0,833.0,0.0,1,1763.0,1
967,967,-0.40363781564086987,-0.4,0.0,1.0,475.0,684.0,0.0,1,1841.0,0
968,968,0.5562885315570586,0.6,0.0,0.0,497.0,877.0,0.0,1,1626.0,1
969,969,0.35730132249324453,0.4,1.0,1.0,498.0,898.0,0.0,0,1604.0,0
970,970,0.6501358590538723,0.7,1.0,1.0,478.0,549.0,0.0,0,1973.0,0
971,971,0.3510509842845856,0.4,1.0,1.0,443.0,919.0,0.0,0,1638.0,0
972,972,0.3326105780704848,0.3,0.0,0.0,376.0,547.0,0.0,1,2077.0,1
973,973,0.4349090098147578,0.4,0.0,0.0,340.0,547.0,0.0,1,2113.0,1
974,974,0.3010178782301903,0.3,0.0,0.0,328.0,632.0,0.0,1,2040.0,1
975,975,-0.7308478260367456,-0.7,1.0,0.0,264.0,721.0,0.0,0,-935.0,1
976,976,-0.7112804024926849,-0.7,1.0,0.0,421.0,748.0,0.0,0,1831.0,1
977,977,-0.43077123118167016,-0.4,1.0,0.0,282.0,872.0,0.0,0,1846.0,1
978,978,-0.3954377366077366,-0.4,0.0,1.0,441.0,544.0,1.0,0,-765.0,1
979,979,0.6995031764324934,0.7,0.0,0.0,359.0,776.0,0.0,1,1865.0,1
980,980,-0.09840521060790475,-0.1,0.0,1.0,384.0,760.0,0.0,1,1856.0,0
981,981,-0.5276893496181064,-0.5,0.0,1.0,474.0,542.0,0.0,1,1984.0,0
982,982,-0.34852537890599045,-0.3,1.0,0.0,446.0,858.0,0.0,0,1696.0,1
983,983,-0.15751613474157766,-0.2,1.0,0.0,446.0,995.0,0.0,0,1559.0,1
984,984,0.18010538930119535,0.2,1.0,1.0,279.0,959.0,0.0,0,1762.0,0
985,985,0.5515759342639434,0.6,0.0,0.0,369.0,899.0,0.0,1,1732.0,1
986,986,-0.12258318178447958,-0.1,0.0,1.0,384.0,653.0,1.0,0,-947.0,1
987,987,0.15093700648385877,0.2,0.0,0.0,257.0,538.0,0.0,1,2205.0,1
988,988,-0.25067492395026403,-0.3,0.0,1.0,271.0,644.0,0.0,1,2085.0,0
989,989,-0.5758847745123146,-0.6,1.0,0.0,292.0,900.0,0.0,0,1808.0,1
990,990,0.14230910077150327,0.1,1.0,1.0,424.0,560.0,0.0,0,-964.0,0
991,991,0.5340552699207973,0.5,0.0,0.0,450.0,950.0,0.0,1,1600.0,1
992,992,-0.5466874125632757,-0.5,0.0,1.0,343.0,668.0,0.0,1,1989.0,0
993,993,-0.6070379095895237,-0.6,1.0,0.0,455.0,694.0,0.0,0,1851.0,1
994,994,0.7796447973241117,0.8,1.0,1.0,349.0,535.0,0.0,0,2116.0,0
995,995,0.45974208644566905,0.5,0.0,0.0,390.0,742.0,0.0,1,1868.0,1
996,996,0.32839186555781585,0.3,1.0,1.0,387.0,804.0,0.0,0,1809.0,0
997,997,0.7499667491756713,0.7,1.0,1.0,276.0,554.0,0.0,0,2170.0,0
998,998,-0.009664483524730816,-0.0,0.0,1.0,482.0,762.0,0.0,1,1756.0,0
999,999,0.6939993203501081,0.7,0.0,0.0,253.0,640.0,0.0,1,2107.0,1
1000,1000,-0.002475772698534162,-0.0,1.0,0.0,383.0,594.0,0.0,0,2023.0,1
1001,1001,0.6563313920806987,0.7,0.0,0.0,335.0,893.0,0.0,1,1772.0,1
1002,1002,-0.6814096722122099,-0.7,0.0,1.0,495.0,831.0,1.0,0,-1176.0,1
1003,1003,-0.503061373061944,-0.5,0.0,1.0,439.0,757.0,0.0,1,1804.0,0
1004,1004,0.33722424376222404,0.3,1.0,1.0,403.0,825.0,0.0,0,1772.0,0
1005,1005,-0.2641526340846013,-0.3,0.0,1.0,448.0,730.0,0.0,1,1822.0,0
1006,1006,-0.8388925238850176,-0.8,1.0,0.0,385.0,668.0,0.0,0,1947.0,1
1007,1007,0.31135017204450854,0.3,0.0,0.0,475.0,954.0,0.0,1,-1139.0,1
1008,1008,0.23871067387296196,0.2,1.0,1.0,417.0,607.0,0.0,0,1976.0,0
1009,1009,-0.5872630620547967,-0.6,1.0,0.0,489.0,930.0,0.0,0,1581.0,1
1010,1010,-0.18094407727182793,-0.2,1.0,0.0,499.0,504.0,0.0,0,1997.0,1
1011,1011,0.14049314705439497,0.1,0.0,0.0,250.0,781.0,0.0,1,1969.0,1
1012,1012,0.6720160704249863,0.7,0.0,0.0,256.0,620.0,0.0,1,2124.0,1
1013,1013,-0.3923327889000132,-0.4,1.0,0.0,494.0,856.0,0.0,0,1650.0,1
1014,1014,0.7577037685001794,0.8,1.0,1.0,311.0,592.0,0.0,0,2097.0,0
1015,1015,0.5540051626079857,0.6,0.0,0.0,395.0,749.0,0.0,1,1856.0,1
1016,1016,-0.17238666913945033,-0.2,1.0,0.0,396.0,754.0,0.0,0,1850.0,1
1017,1017,-0.27199907229830833,-0.3,1.0,0.0,449.0,580.0,0.0,0,1971.0,1
1018,1018,0.044652536584862346,0.0,0.0,0.0,359.0,948.0,0.0,1,1693.0,1
1019,1019,-0.05928550906789354,-0.1,0.0,1.0,282.0,826.0,0.0,1,-1038.0,0
1020,1020,0.6593228101827361,0.7,0.0,0.0,263.0,957.0,0.0,1,1780.0,1
1021,1021,0.4580917675562509,0.5,0.0,0.0,376.0,896.0,0.0,1,1728.0,1
1022,1022,0.45170263995660387,0.5,1.0,1.0,330.0,831.0,0.0,0,1839.0,0
1023,1023,0.7547878856779943,0.8,0.0,0.0,296.0,956.0,0.0,1,1748.0,1
1024,1024,-0.7411318237769249,-0.7,0.0,1.0,360.0,595.0,0.0,1,2045.0,0
1025,1025,0.08112350275388935,0.1,0.0,0.0,444.0,958.0,0.0,1,1598.0,1
1026,1026,-0.7790312269460712,-0.8,1.0,0.0,328.0,504.0,0.0,0,2168.0,1
1027,1027,-0.7252947085663086,-0.7,1.0,0.0,369.0,611.0,0.0,0,2020.0,1
1028,1028,-0.26607385604454215,-0.3,1.0,0.0,339.0,949.0,0.0,0,1712.0,1
1029,1029,-0.2561325764141029,-0.3,1.0,0.0,323.0,857.0,0.0,0,1820.0,1
1030,1030,0.20641063054923825,0.2,1.0,1.0,402.0,940.0,0.0,0,1658.0,0
1031,1031,0.7152961624037618,0.7,0.0,0.0,294.0,810.0,0.0,1,1896.0,1
1032,1032,0.2668481458932802,0.3,0.0,0.0,478.0,930.0,0.0,1,1592.0,1
1033,1033,0.5164115715119569,0.5,0.0,0.0,269.0,716.0,0.0,1,2015.0,1
1034,1034,0.35104680156795565,0.4,0.0,0.0,498.0,772.0,0.0,1,1730.0,1
1035,1035,-0.7807738006855134,-0.8,1.0,0.0,417.0,970.0,0.0,0,1613.0,1
1036,1036,0.8087192408903513,0.8,0.0,0.0,416.0,739.0,0.0,1,1845.0,1
1037,1037,-0.7584859703754732,-0.8,1.0,0.0,316.0,565.0,0.0,0,2119.0,1
1038,1038,0.4805239688660442,0.5,1.0,1.0,434.0,548.0,0.0,0,2018.0,0
1039,1039,0.3951943974273341,0.4,0.0,0.0,430.0,848.0,0.0,1,-1228.0,1
1040,1040,-0.45090202222386927,-0.5,1.0,0.0,466.0,570.0,0.0,0,1964.0,1
1041,1041,0.22834755532201634,0.2,1.0,1.0,296.0,768.0,0.0,0,1936.0,0
1042,1042,0.8254048125048804,0.8,1.0,1.0,360.0,646.0,0.0,0,1994.0,0
1043,1043,0.43919752896321673,0.4,1.0,1.0,450.0,567.0,0.0,0,1983.0,0
1044,1044,0.5997122337148076,0.6,1.0,1.0,460.0,975.0,0.0,0,1565.0,0
1045,1045,-0.6126674764473494,-0.6,1.0,0.0,303.0,644.0,0.0,0,2053.0,1
1046,1046,0.4258514926054654,0.4,1.0,1.0,308.0,653.0,0.0,0,2039.0,0
1047,1047,-0.6692917513656411,-0.7,1.0,0.0,294.0,506.0,0.0,0,2200.0,1
1048,1048,-0.8453694065498516,-0.8,0.0,1.0,436.0,647.0,0.0,1,1917.0,0
1049,1049,-0.7304589974119774,-0.7,0.0,1.0,462.0,939.0,0.0,1,1599.0,0
1050,1050,0.5052728138304229,0.5,1.0,1.0,424.0,660.0,0.0,0,1916.0,0
1051,1051,0.12508517816455667,0.1,0.0,0.0,337.0,645.0,0.0,1,2018.0,1
1052,1052,-0.8449998757932785,-0.8,0.0,1.0,303.0,659.0,0.0,1,2038.0,0
1053,1053,0.5031410830041568,0.5,1.0,1.0,348.0,890.0,1.0,1,-1218.0,1
1054,1054,-0.541577984947684,-0.5,1.0,0.0,455.0,716.0,0.0,0,1829.0,1
1055,1055,-0.3254381169889097,-0.3,0.0,1.0,264.0,681.0,0.0,1,2055.0,0
1056,1056,-0.8161155998033065,-0.8,0.0,1.0,395.0,873.0,0.0,1,1732.0,0
1057,1057,0.6920457517642725,0.7,1.0,1.0,257.0,676.0,1.0,1,-883.0,1
1058,1058,0.5932383823462927,0.6,0.0,0.0,352.0,652.0,0.0,1,1996.0,1
1059,1059,-0.08749578973569927,-0.1,0.0,1.0,377.0,757.0,0.0,1,1866.0,0
1060,1060,-0.051776807565011684,-0.1,0.0,1.0,407.0,639.0,0.0,1,1954.0,0
1061,1061,0.7865197509774876,0.8,1.0,1.0,269.0,500.0,0.0,0,2231.0,0
1062,1062,0.11116231929722475,0.1,0.0,0.0,427.0,906.0,0.0,1,1667.0,1
1063,1063,-0.28130588278676827,-0.3,0.0,1.0,423.0,940.0,0.0,1,1637.0,0
1064,1064,0.05613131321615128,0.1,1.0,1.0,422.0,975.0,0.0,0,1603.0,0
1065,1065,-0.2829100112872638,-0.3,0.0,1.0,254.0,902.0,0.0,1,1844.0,0
1066,1066,-0.6433596550527831,-0.6,0.0,1.0,446.0,529.0,0.0,1,2025.0,0
1067,1067,-0.7245093114476955,-0.7,0.0,1.0,290.0,529.0,0.0,1,2181.0,0
1068,1068,-0.7079853692049847,-0.7,1.0,0.0,419.0,584.0,0.0,0,1997.0,1
1069,1069,0.717188743608041,0.7,0.0,0.0,370.0,916.0,0.0,1,1714.0,1
1070,1070,-0.4684158887909236,-0.5,0.0,1.0,432.0,968.0,0.0,1,1600.0,0
1071,1071,-0.17975533494216678,-0.2,1.0,0.0,306.0,602.0,0.0,0,2092.0,1
1072,1072,0.2946386413528147,0.3,1.0,1.0,263.0,705.0,0.0,0,2032.0,0
1073,1073,-0.3806766706227752,-0.4,1.0,0.0,327.0,571.0,0.0,0,2102.0,1
1074,1074,0.2771010846202552,0.3,0.0,0.0,253.0,715.0,1.0,0,-918.0,0
1075,1075,-0.12319440637688861,-0.1,0.0,1.0,407.0,706.0,0.0,1,1887.0,0
1076,1076,0.641657229191818,0.6,1.0,1.0,388.0,671.0,0.0,0,1941.0,0
1077,1077,-0.5684648707127931,-0.6,1.0,0.0,434.0,939.0,0.0,0,1627.0,1
1078,1078,-0.13282226921830786,-0.1,0.0,1.0,264.0,875.0,0.0,1,1861.0,0
1079,1079,-0.27366497652838784,-0.3,1.0,0.0,389.0,919.0,0.0,0,1692.0,1
1080,1080,-0.6158642731639543,-0.6,1.0,0.0,354.0,650.0,0.0,0,1996.0,1
1081,1081,0.5170618717754368,0.5,0.0,0.0,464.0,864.0,0.0,1,1672.0,1
1082,1082,-0.6368921763112747,-0.6,0.0,1.0,457.0,885.0,0.0,1,1658.0,0
1083,1083,-0.06810752245188112,-0.1,1.0,0.0,468.0,804.0,0.0,0,1728.0,1
1084,1084,0.38644793862170135,0.4,0.0,0.0,358.0,793.0,0.0,1,1849.0,1
1085,1085,0.5803914017384407,0.6,0.0,0.0,289.0,907.0,0.0,1,1804.0,1
1086,1086,0.4275503803416213,0.4,0.0,0.0,314.0,579.0,0.0,1,2107.0,1
1087,1087,-0.5624472595470256,-0.6,0.0,1.0,448.0,730.0,0.0,1,1822.0,0
1088,1088,-0.7050292141180694,-0.7,0.0,1.0,412.0,547.0,0.0,1,2041.0,0
1089,1089,0.35848935264542325,0.4,0.0,0.0,251.0,867.0,0.0,1,1882.0,1
1090,1090,-0.6958938840748778,-0.7,0.0,1.0,308.0,649.0,0.0,1,2043.0,0
1091,1091,-0.8303019397636493,-0.8,1.0,0.0,469.0,954.0,0.0,0,1577.0,1
1092,1092,0.8329325915605209,0.8,1.0,1.0,484.0,510.0,0.0,0,2006.0,0
1093,1093,0.5127472297677026,0.5,1.0,1.0,299.0,693.0,0.0,0,2008.0,0
1094,1094,-0.10937829441197633,-0.1,1.0,0.0,340.0,922.0,0.0,0,1738.0,1
1095,1095,0.010832204798475353,0.0,0.0,0.0,465.0,700.0,0.0,1,1835.0,1
1096,1096,-0.45105449017009464,-0.5,1.0,0.0,437.0,751.0,0.0,0,1812.0,1
1097,1097,0.018184928292200975,0.0,0.0,0.0,433.0,750.0,0.0,1,1817.0,1
1098,1098,0.02051621609871368,0.0,1.0,1.0,341.0,564.0,0.0,0,2095.0,0
1099,1099,-0.394374981984971,-0.4,1.0,0.0,399.0,992.0,0.0,0,1609.0,1
1100,1100,0.6345979745552849,0.6,1.0,1.0,350.0,905.0,1.0,1,-1235.0,1
1101,1101,-0.12296030723038809,-0.1,0.0,1.0,442.0,789.0,0.0,1,1769.0,0
1102,1102,-0.7075312419035096,-0.7,1.0,0.0,343.0,689.0,0.0,0,1968.0,1
1103,1103,-0.040604854850849526,-0.0,1.0,0.0,477.0,739.0,0.0,0,1784.0,1
1104,1104,-0.5935370235968885,-0.6,1.0,0.0,275.0,794.0,0.0,0,1931.0,1
1105,1105,-0.1306757415679416,-0.1,1.0,0.0,278.0,585.0,0.0,0,2137.0,1
1106,1106,-0.06226198182782383,-0.1,1.0,0.0,309.0,807.0,1.0,1,-1046.0,0
1107,1107,0.3022125408349955,0.3,0.0,0.0,313.0,834.0,0.0,1,1853.0,1
1108,1108,0.0033709931975552943,0.0,0.0,0.0,420.0,666.0,0.0,1,1914.0,1
1109,1109,-0.5030651152498513,-0.5,1.0,0.0,492.0,686.0,0.0,0,1822.0,1
1110,1110,-0.10948579361535882,-0.1,0.0,1.0,446.0,808.0,0.0,1,-1194.0,0
1111,1111,0.1353627415603743,0.1,0.0,0.0,361.0,714.0,0.0,1,1925.0,1
1112,1112,0.6061031029168381,0.6,0.0,0.0,325.0,904.0,0.0,1,1771.0,1
1113,1113,0.4715268548003425,0.5,0.0,0.0,378.0,975.0,0.0,1,1647.0,1
1114,1114,-0.27567177207851634,-0.3,0.0,1.0,298.0,958.0,0.0,1,1744.0,0
1115,1115,0.6512075186521248,0.7,0.0,0.0,457.0,531.0,0.0,1,2012.0,1
1116,1116,-0.2912480062202748,-0.3,0.0,1.0,472.0,774.0,0.0,1,1754.0,0
1117,1117,0.4691376401316635,0.5,1.0,1.0,387.0,815.0,1.0,1,-1082.0,1
1118,1118,0.44288085007603006,0.4,0.0,0.0,439.0,521.0,1.0,0,-900.0,0
1119,1119,-0.26726678763031886,-0.3,1.0,0.0,260.0,641.0,0.0,0,2099.0,1
1120,1120,-0.10141769239826526,-0.1,1.0,0.0,343.0,811.0,0.0,0,1846.0,1
1121,1121,-0.6182722500051268,-0.6,1.0,0.0,279.0,710.0,1.0,1,-929.0,0
1122,1122,0.8282317291336202,0.8,0.0,0.0,448.0,906.0,0.0,1,1646.0,1
1123,1123,-0.06626638767136184,-0.1,0.0,1.0,471.0,812.0,0.0,1,-1233.0,0
1124,1124,-0.11255023490231009,-0.1,0.0,1.0,354.0,839.0,0.0,1,1807.0,0
1125,1125,0.3877402687663808,0.4,0.0,0.0,363.0,959.0,0.0,1,1678.0,1
1126,1126,-0.019841481810822348,-0.0,0.0,1.0,302.0,618.0,0.0,1,2080.0,0
1127,1127,-0.360547092747767,-0.4,1.0,0.0,441.0,667.0,1.0,1,-1028.0,0
1128,1128,0.3230046884358718,0.3,0.0,0.0,314.0,750.0,0.0,1,1936.0,1
1129,1129,0.0028597779573399373,0.0,0.0,0.0,450.0,996.0,0.0,1,1554.0,1
1130,1130,-0.37384914689036897,-0.4,1.0,0.0,450.0,837.0,0.0,0,1713.0,1
1131,1131,0.3566059430828278,0.4,1.0,1.0,395.0,781.0,0.0,0,1824.0,0
1132,1132,0.03174816380784029,0.0,0.0,0.0,283.0,674.0,0.0,1,2043.0,1
1133,1133,0.6539715355464785,0.7,0.0,0.0,267.0,611.0,0.0,1,2122.0,1
1134,1134,0.6591389624553184,0.7,1.0,1.0,303.0,887.0,0.0,0,1810.0,0
1135,1135,-0.31759262835390556,-0.3,1.0,0.0,424.0,980.0,0.0,0,1596.0,1
1136,1136,0.6452740274576231,0.6,0.0,0.0,440.0,527.0,0.0,1,2033.0,1
1137,1137,0.7209620801594018,0.7,0.0,0.0,400.0,595.0,0.0,1,2005.0,1
1138,1138,0.5989073586972443,0.6,1.0,1.0,372.0,966.0,0.0,0,1662.0,0
1139,1139,0.17663299412601996,0.2,0.0,0.0,370.0,942.0,0.0,1,1688.0,1
1140,1140,0.7236293221608868,0.7,0.0,0.0,467.0,529.0,0.0,1,2004.0,1
1141,1141,0.22123065838211187,0.2,0.0,0.0,302.0,545.0,0.0,1,2153.0,1
1142,1142,0.21427542897332186,0.2,1.0,1.0,401.0,862.0,0.0,0,1737.0,0
1143,1143,0.07238661498687804,0.1,0.0,0.0,377.0,565.0,0.0,1,2058.0,1
1144,1144,0.3780048398579069,0.4,0.0,0.0,371.0,988.0,0.0,1,1641.0,1
1145,1145,-0.4362579162776445,-0.4,1.0,0.0,375.0,696.0,0.0,0,1929.0,1
1146,1146,0.7511316495794679,0.8,1.0,1.0,275.0,676.0,0.0,0,2049.0,0
1147,1147,0.8269056836937739,0.8,0.0,0.0,372.0,911.0,0.0,1,1717.0,1
1148,1148,0.1043586138231597,0.1,0.0,0.0,289.0,549.0,0.0,1,2162.0,1
1149,1149,0.23306082462898392,0.2,0.0,0.0,354.0,648.0,0.0,1,1998.0,1
1150,1150,0.6650447073829678,0.7,1.0,1.0,325.0,569.0,0.0,0,2106.0,0
1151,1151,-0.057449102891913406,-0.1,0.0,1.0,453.0,641.0,0.0,1,1906.0,0
1152,1152,-0.0830045116060687,-0.1,1.0,0.0,477.0,650.0,0.0,0,1873.0,1
1153,1153,0.07382623182510117,0.1,1.0,1.0,440.0,594.0,0.0,0,1966.0,0
1154,1154,-0.05007013808957583,-0.1,0.0,1.0,461.0,654.0,0.0,1,1885.0,0
1155,1155,0.507465827767187,0.5,0.0,0.0,468.0,809.0,0.0,1,1723.0,1
1156,1156,0.1793279042056789,0.2,0.0,0.0,266.0,664.0,0.0,1,2070.0,1
1157,1157,0.5018213001667055,0.5,1.0,1.0,364.0,596.0,0.0,0,2040.0,0
1158,1158,0.2836605327509779,0.3,0.0,0.0,404.0,607.0,0.0,1,1989.0,1
1159,1159,0.1619692269466425,0.2,0.0,0.0,381.0,652.0,0.0,1,1967.0,1
1160,1160,0.48743146784039626,0.5,0.0,0.0,421.0,529.0,0.0,1,2050.0,1
1161,1161,0.594620169022282,0.6,1.0,1.0,474.0,617.0,0.0,0,1909.0,0
1162,1162,0.06835532097235963,0.1,1.0,1.0,364.0,589.0,0.0,0,2047.0,0
1163,1163,-0.7427231627346658,-0.7,1.0,0.0,418.0,997.0,0.0,0,1585.0,1
1164,1164,-0.4773528301897721,-0.5,0.0,1.0,414.0,721.0,0.0,1,1865.0,0
1165,1165,-0.8746164150876679,-0.9,1.0,0.0,265.0,838.0,0.0,0,1897.0,1
1166,1166,-0.2789581420909868,-0.3,0.0,1.0,333.0,718.0,0.0,1,1949.0,0
1167,1167,0.3707498254991598,0.4,1.0,1.0,258.0,591.0,0.0,0,2151.0,0
1168,1168,-0.7469991354542181,-0.7,0.0,1.0,479.0,690.0,0.0,1,1831.0,0
1169,1169,-0.8943666855830048,-0.9,1.0,0.0,477.0,841.0,0.0,0,1682.0,1
1170,1170,0.8755382243863546,0.9,1.0,1.0,492.0,534.0,0.0,0,1974.0,0
1171,1171,0.1328506138473019,0.1,1.0,1.0,264.0,733.0,0.0,0,2003.0,0
1172,1172,0.8194977095990862,0.8,0.0,0.0,264.0,605.0,0.0,1,2131.0,1
1173,1173,0.281114409390799,0.3,1.0,1.0,487.0,560.0,0.0,0,1953.0,0
1174,1174,0.24608138012764857,0.2,0.0,0.0,455.0,887.0,0.0,1,1658.0,1
1175,1175,-0.5332622740746937,-0.5,0.0,1.0,416.0,777.0,0.0,1,1807.0,0
1176,1176,-0.011593573312916106,-0.0,0.0,1.0,379.0,635.0,0.0,1,1986.0,0
1177,1177,-0.09085215156281712,-0.1,0.0,1.0,313.0,801.0,0.0,1,1886.0,0
1178,1178,-0.33663557126625643,-0.3,1.0,0.0,318.0,976.0,0.0,0,1706.0,1
1179,1179,-0.5990064512600547,-0.6,1.0,0.0,439.0,889.0,0.0,0,1672.0,1
1180,1180,0.127182020851892,0.1,1.0,1.0,464.0,587.0,1.0,1,-1031.0,1
1181,1181,-0.8348070086192327,-0.8,0.0,1.0,463.0,573.0,0.0,1,-1006.0,0
1182,1182,-0.13409282685472224,-0.1,0.0,1.0,417.0,877.0,0.0,1,1706.0,0
1183,1183,0.22221522320875253,0.2,1.0,1.0,479.0,512.0,0.0,0,2009.0,0
1184,1184,-0.11293811292328015,-0.1,1.0,0.0,293.0,758.0,0.0,0,1949.0,1
1185,1185,-0.7610449736205344,-0.8,1.0,0.0,293.0,534.0,0.0,0,2173.0,1
1186,1186,-0.7226050294689632,-0.7,0.0,1.0,379.0,659.0,0.0,1,1962.0,0
1187,1187,-0.2966058099806502,-0.3,1.0,0.0,459.0,615.0,0.0,0,1926.0,1
1188,1188,0.12210584904838473,0.1,0.0,0.0,345.0,951.0,0.0,1,1704.0,1
1189,1189,0.3211521367688258,0.3,0.0,0.0,308.0,984.0,0.0,1,1708.0,1
1190,1190,-0.41571700108248333,-0.4,1.0,0.0,433.0,588.0,1.0,1,-951.0,0
1191,1191,-0.19257978028514233,-0.2,0.0,1.0,434.0,501.0,0.0,1,2065.0,0
1192,1192,-0.6884693777549862,-0.7,1.0,0.0,302.0,672.0,0.0,0,2026.0,1
1193,1193,0.2575599842997215,0.3,1.0,1.0,452.0,804.0,0.0,0,1744.0,0
1194,1194,0.04710231799045039,0.0,1.0,1.0,383.0,832.0,0.0,0,1785.0,0
1195,1195,-0.2691222769834717,-0.3,0.0,1.0,264.0,595.0,0.0,1,2141.0,0
1196,1196,-0.889242218767071,-0.9,0.0,1.0,451.0,801.0,0.0,1,1748.0,0
1197,1197,-0.24480061489019822,-0.2,1.0,0.0,404.0,682.0,0.0,0,1914.0,1
1198,1198,0.17369416013218297,0.2,1.0,1.0,251.0,886.0,0.0,0,1863.0,0
1199,1199,0.6858945539925966,0.7,0.0,0.0,463.0,606.0,0.0,1,1931.0,1
1200,1200,0.400102649482189,0.4,0.0,0.0,321.0,951.0,0.0,1,1728.0,1
1201,1201,0.3542104059666814,0.4,1.0,1.0,338.0,707.0,0.0,0,1955.0,0
1202,1202,0.8221397687051256,0.8,1.0,1.0,254.0,626.0,0.0,0,2120.0,0
1203,1203,-0.6234870398298958,-0.6,1.0,0.0,420.0,806.0,0.0,0,1774.0,1
1204,1204,-0.25761718518595367,-0.3,0.0,1.0,363.0,559.0,0.0,1,2078.0,0
1205,1205,0.7937416067610038,0.8,0.0,0.0,291.0,979.0,0.0,1,1730.0,1
1206,1206,-0.43723364177710816,-0.4,0.0,1.0,478.0,872.0,0.0,1,1650.0,0
1207,1207,-0.662076434133238,-0.7,1.0,0.0,266.0,847.0,0.0,0,1887.0,1
1208,1208,0.1032855228244135,0.1,1.0,1.0,296.0,527.0,0.0,0,2177.0,0
1209,1209,0.4642487252189068,0.5,1.0,1.0,428.0,783.0,0.0,0,1789.0,0
1210,1210,-0.22821091040330876,-0.2,1.0,0.0,297.0,766.0,1.0,1,-1063.0,0
1211,1211,0.4807459326009941,0.5,1.0,1.0,403.0,893.0,0.0,0,1704.0,0
1212,1212,0.24269347101243788,0.2,0.0,0.0,496.0,533.0,0.0,1,1971.0,1
1213,1213,-0.8257691284788693,-0.8,1.0,0.0,363.0,942.0,0.0,0,1695.0,1
1214,1214,-0.4475626525575976,-0.4,0.0,1.0,295.0,936.0,0.0,1,1769.0,0
1215,1215,-0.6181680900645028,-0.6,1.0,0.0,315.0,683.0,0.0,0,2002.0,1
1216,1216,0.17835063584455757,0.2,0.0,0.0,270.0,533.0,0.0,1,2197.0,1
1217,1217,0.02654144924596069,0.0,0.0,0.0,322.0,593.0,0.0,1,2085.0,1
1218,1218,-0.3339500115546582,-0.3,1.0,0.0,487.0,799.0,1.0,1,-1206.0,0
1219,1219,-0.4702435317228765,-0.5,1.0,0.0,353.0,775.0,0.0,0,1872.0,1
1220,1220,0.1088706359848245,0.1,0.0,0.0,348.0,847.0,0.0,1,-1125.0,1
1221,1221,-0.8498360973229624,-0.8,1.0,0.0,388.0,972.0,0.0,0,1640.0,1
1222,1222,0.8534407095902073,0.9,1.0,1.0,307.0,712.0,0.0,0,-929.0,0
1223,1223,0.049663043955355146,0.0,0.0,0.0,461.0,826.0,0.0,1,1713.0,1
1224,1224,-0.7189483429450872,-0.7,1.0,0.0,259.0,641.0,0.0,0,2100.0,1
1225,1225,-0.39156115634912414,-0.4,1.0,0.0,475.0,610.0,0.0,0,1915.0,1
1226,1226,0.5806195636939572,0.6,1.0,1.0,339.0,822.0,0.0,0,1839.0,0
1227,1227,0.4386368718006938,0.4,0.0,0.0,333.0,557.0,0.0,1,2110.0,1
1228,1228,0.73663855174818,0.7,1.0,1.0,467.0,743.0,0.0,0,1790.0,0
1229,1229,-0.012777176762565401,-0.0,0.0,1.0,267.0,716.0,0.0,1,2017.0,0
1230,1230,-0.16491684490785152,-0.2,1.0,0.0,329.0,629.0,0.0,0,2042.0,1
1231,1231,-0.032001994593840455,-0.0,1.0,0.0,300.0,857.0,0.0,0,-917.0,1
1232,1232,-0.3665370557349804,-0.4,1.0,0.0,292.0,788.0,0.0,0,1920.0,1
1233,1233,-0.011464099645404069,-0.0,0.0,1.0,473.0,685.0,0.0,1,1842.0,0
1234,1234,-0.020518122542419692,-0.0,0.0,1.0,466.0,976.0,0.0,1,1558.0,0
1235,1235,0.0038101385013695754,0.0,0.0,0.0,409.0,615.0,0.0,1,1976.0,1
1236,1236,0.13493738690119594,0.1,1.0,1.0,342.0,845.0,0.0,0,1813.0,0
1237,1237,-0.47885661268661206,-0.5,1.0,0.0,436.0,782.0,0.0,0,1782.0,1
1238,1238,0.24223666146815315,0.2,1.0,1.0,453.0,856.0,0.0,0,1691.0,0
1239,1239,-0.12924897066255892,-0.1,1.0,0.0,440.0,721.0,0.0,0,1839.0,1
1240,1240,0.7182808586848969,0.7,1.0,1.0,485.0,557.0,0.0,0,1958.0,0
1241,1241,0.7702955989558448,0.8,0.0,0.0,287.0,751.0,0.0,1,-908.0,1
1242,1242,-0.1899965381566393,-0.2,1.0,0.0,317.0,823.0,1.0,1,-1050.0,0
1243,1243,0.5377669022725423,0.5,1.0,1.0,398.0,789.0,0.0,0,1813.0,0
1244,1244,-0.23387567528117958,-0.2,1.0,0.0,254.0,587.0,0.0,0,2159.0,1
1245,1245,0.21822264013273374,0.2,0.0,0.0,436.0,547.0,0.0,1,2017.0,1
1246,1246,0.8898645016815009,0.9,1.0,1.0,361.0,802.0,0.0,0,1837.0,0
1247,1247,0.8142800450158479,0.8,0.0,0.0,378.0,970.0,0.0,1,1652.0,1
1248,1248,-0.2174740364152351,-0.2,0.0,1.0,276.0,540.0,0.0,1,-726.0,0
1249,1249,-0.1376252615200857,-0.1,1.0,0.0,408.0,701.0,0.0,0,1891.0,1
1250,1250,-0.2776713370151971,-0.3,0.0,1.0,338.0,715.0,0.0,1,1947.0,0
1251,1251,-0.30061140446342227,-0.3,1.0,0.0,446.0,610.0,0.0,0,1944.0,1
1252,1252,-0.5039916019571888,-0.5,1.0,0.0,412.0,918.0,0.0,0,1670.0,1
1253,1253,-0.08458445567852024,-0.1,1.0,0.0,403.0,959.0,0.0,0,1638.0,1
1254,1254,0.045557188994964526,0.0,0.0,0.0,498.0,675.0,0.0,1,1827.0,1
1255,1255,0.21232877646010484,0.2,1.0,1.0,373.0,606.0,0.0,0,2021.0,0
1256,1256,-0.788077673021951,-0.8,0.0,1.0,463.0,504.0,0.0,1,-747.0,0
1257,1257,0.732696875796727,0.7,0.0,0.0,379.0,893.0,0.0,1,1728.0,1
1258,1258,-0.6991397957028941,-0.7,1.0,0.0,275.0,511.0,1.0,1,-636.0,0
1259,1259,0.7616597613041315,0.8,0.0,0.0,483.0,644.0,0.0,1,1873.0,1
1260,1260,-0.04613044440813718,-0.0,0.0,1.0,252.0,652.0,0.0,1,2096.0,0
1261,1261,-0.34430666952615796,-0.3,0.0,1.0,273.0,634.0,0.0,1,2093.0,0
1262,1262,0.18748957712638015,0.2,0.0,0.0,250.0,651.0,0.0,1,2099.0,1
1263,1263,0.24966950903859597,0.2,0.0,0.0,490.0,786.0,0.0,1,1724.0,1
1264,1264,0.8582151782199366,0.9,0.0,0.0,484.0,800.0,0.0,1,1716.0,1
1265,1265,0.6942368697275046,0.7,0.0,0.0,305.0,574.0,0.0,1,2121.0,1
1266,1266,-0.5313799030197259,-0.5,1.0,0.0,361.0,521.0,0.0,0,2118.0,1
1267,1267,0.0784269743552295,0.1,0.0,0.0,296.0,968.0,0.0,1,-1134.0,1
1268,1268,0.5675567283912973,0.6,1.0,1.0,492.0,707.0,0.0,0,1801.0,0
1269,1269,0.7650113455804249,0.8,0.0,0.0,331.0,631.0,1.0,0,-902.0,0
1270,1270,0.30147271474380133,0.3,1.0,1.0,306.0,621.0,0.0,0,2073.0,0
1271,1271,-0.5174472560114087,-0.5,0.0,1.0,407.0,765.0,0.0,1,1828.0,0
1272,1272,0.874841009111622,0.9,0.0,0.0,298.0,717.0,0.0,1,-925.0,1
1273,1273,0.586329368264274,0.6,0.0,0.0,283.0,695.0,0.0,1,2022.0,1
1274,1274,0.8081711483774704,0.8,0.0,0.0,363.0,634.0,0.0,1,2003.0,1
1275,1275,-0.6926559045577375,-0.7,0.0,1.0,333.0,887.0,0.0,1,1780.0,0
1276,1276,0.17755229328339628,0.2,0.0,0.0,333.0,652.0,1.0,0,-895.0,0
1277,1277,0.4373721668971696,0.4,1.0,1.0,366.0,750.0,0.0,0,1884.0,0
1278,1278,-0.6006856000380443,-0.6,1.0,0.0,362.0,898.0,1.0,1,-1000.0,0
1279,1279,0.20139250276210185,0.2,0.0,0.0,297.0,566.0,0.0,1,2137.0,1
1280,1280,0.473363235775662,0.5,0.0,0.0,401.0,906.0,0.0,1,1693.0,1
1281,1281,-0.11101442364693714,-0.1,0.0,1.0,432.0,635.0,0.0,1,1933.0,0
1282,1282,0.6821133198724233,0.7,1.0,1.0,427.0,635.0,1.0,1,-1012.0,1
1283,1283,-0.22138677942802343,-0.2,0.0,1.0,284.0,753.0,0.0,1,1963.0,0
1284,1284,0.6405390427900698,0.6,0.0,0.0,323.0,907.0,0.0,1,1770.0,1
1285,1285,0.04030461647296535,0.0,1.0,1.0,456.0,708.0,0.0,0,1836.0,0
1286,1286,0.45821334037686434,0.5,1.0,1.0,326.0,593.0,0.0,0,2081.0,0
1287,1287,0.07259877460180031,0.1,0.0,0.0,340.0,997.0,0.0,1,1663.0,1
1288,1288,-0.06217708259060184,-0.1,0.0,1.0,481.0,584.0,0.0,1,1935.0,0
1289,1289,0.20255845379993798,0.2,0.0,0.0,398.0,796.0,0.0,1,1806.0,1
1290,1290,0.37618509202391703,0.4,1.0,1.0,337.0,586.0,0.0,0,2077.0,0
1291,1291,-0.8562722393698958,-0.9,1.0,0.0,472.0,838.0,0.0,0,1690.0,1
1292,1292,-0.0004592478177430914,-0.0,0.0,1.0,335.0,752.0,0.0,1,-967.0,0
1293,1293,0.1328530639489246,0.1,0.0,0.0,438.0,698.0,0.0,1,1864.0,1
1294,1294,0.7612314678449162,0.8,1.0,1.0,374.0,598.0,0.0,0,2028.0,0
1295,1295,0.3467719591430086,0.3,1.0,1.0,424.0,945.0,0.0,0,1631.0,0
1296,1296,-0.442762903452955,-0.4,0.0,1.0,469.0,797.0,0.0,1,1734.0,0
1297,1297,-0.01587311890176435,-0.0,1.0,0.0,498.0,958.0,0.0,0,1544.0,1
1298,1298,-0.7703495886245105,-0.8,1.0,0.0,398.0,578.0,0.0,0,2024.0,1
1299,1299,0.7905263993882982,0.8,0.0,0.0,250.0,543.0,0.0,1,2207.0,1
1300,1300,-0.18586204490118852,-0.2,0.0,1.0,289.0,514.0,0.0,1,2197.0,0
1301,1301,-0.4213725391684838,-0.4,0.0,1.0,418.0,750.0,0.0,1,1832.0,0
1302,1302,-0.07456128103968496,-0.1,0.0,1.0,491.0,642.0,0.0,1,1867.0,0
1303,1303,-0.39867418553420064,-0.4,0.0,1.0,263.0,836.0,0.0,1,1901.0,0
1304,1304,0.011051823536837424,0.0,1.0,1.0,297.0,778.0,1.0,1,-1065.0,1
1305,1305,-0.7125791605085972,-0.7,0.0,1.0,287.0,894.0,0.0,1,1819.0,0
1306,1306,0.855185790206381,0.9,0.0,0.0,303.0,500.0,0.0,1,2197.0,1
1307,1307,-0.2603302294906439,-0.3,1.0,0.0,263.0,956.0,0.0,0,1781.0,1
1308,1308,0.14365398237573357,0.1,0.0,0.0,262.0,538.0,0.0,1,2200.0,1
1309,1309,0.022728993725124047,0.0,0.0,0.0,266.0,817.0,0.0,1,-1053.0,1
1310,1310,0.4177671746268873,0.4,1.0,1.0,269.0,724.0,0.0,0,2007.0,0
1311,1311,-0.060951677975041085,-0.1,1.0,0.0,468.0,906.0,0.0,0,1626.0,1
1312,1312,-0.20774553064590207,-0.2,1.0,0.0,318.0,905.0,0.0,0,1777.0,1
1313,1313,-0.594194535304145,-0.6,0.0,1.0,478.0,803.0,0.0,1,1719.0,0
1314,1314,0.792044067432505,0.8,0.0,0.0,427.0,933.0,0.0,1,1640.0,1
1315,1315,-0.2119523464730475,-0.2,0.0,1.0,315.0,685.0,0.0,1,2000.0,0
1316,1316,0.5440988951481501,0.5,1.0,1.0,379.0,965.0,0.0,0,-1314.0,0
1317,1317,-0.6999624669804514,-0.7,1.0,0.0,423.0,727.0,0.0,0,1850.0,1
1318,1318,0.18666082808898754,0.2,0.0,0.0,471.0,557.0,0.0,1,1972.0,1
1319,1319,-0.2801574134667171,-0.3,0.0,1.0,422.0,663.0,0.0,1,1915.0,0
1320,1320,0.007308997849213017,0.0,0.0,0.0,262.0,658.0,0.0,1,2080.0,1
1321,1321,-0.5284635151716222,-0.5,1.0,0.0,463.0,629.0,0.0,0,1908.0,1
1322,1322,0.11058183565292745,0.1,1.0,1.0,492.0,962.0,0.0,0,-1334.0,0
1323,1323,0.708236014387677,0.7,0.0,0.0,497.0,787.0,0.0,1,1716.0,1
1324,1324,0.45953790575551035,0.5,0.0,0.0,476.0,789.0,0.0,1,1735.0,1
1325,1325,0.2470284087810971,0.2,0.0,0.0,394.0,787.0,0.0,1,1819.0,1
1326,1326,-0.18222380248787673,-0.2,1.0,0.0,493.0,743.0,0.0,0,1764.0,1
1327,1327,0.27221392750829077,0.3,0.0,0.0,423.0,871.0,0.0,1,1706.0,1
1328,1328,-0.11399350076509573,-0.1,1.0,0.0,450.0,517.0,0.0,0,2033.0,1
1329,1329,0.3869809709929607,0.4,1.0,1.0,484.0,981.0,0.0,0,1535.0,0
1330,1330,-0.15011905650971835,-0.2,0.0,1.0,413.0,574.0,0.0,1,2013.0,0
1331,1331,0.8993760006467589,0.9,0.0,0.0,295.0,876.0,0.0,1,1829.0,1
1332,1332,0.27873528302726414,0.3,1.0,1.0,346.0,547.0,0.0,0,2107.0,0
1333,1333,0.04224448373626477,0.0,1.0,1.0,417.0,830.0,0.0,0,1753.0,0
1334,1334,0.6597034788819306,0.7,0.0,0.0,270.0,613.0,0.0,1,2117.0,1
1335,1335,0.0012650279414414545,0.0,0.0,0.0,319.0,961.0,0.0,1,1720.0,1
1336,1336,0.05483228227742909,0.1,0.0,0.0,434.0,861.0,0.0,1,1705.0,1
1337,1337,0.586282878036504,0.6,0.0,0.0,452.0,665.0,0.0,1,1883.0,1
1338,1338,0.7173865083517404,0.7,1.0,1.0,318.0,771.0,0.0,0,1911.0,0
1339,1339,0.02241578426390256,0.0,0.0,0.0,408.0,827.0,0.0,1,1765.0,1
1340,1340,0.7715660285814899,0.8,0.0,0.0,350.0,581.0,0.0,1,2069.0,1
1341,1341,-0.24237231931272896,-0.2,0.0,1.0,258.0,786.0,0.0,1,1956.0,0
1342,1342,0.03653541701678864,0.0,0.0,0.0,327.0,682.0,0.0,1,1991.0,1
1343,1343,0.0350944743553403,0.0,0.0,0.0,418.0,890.0,0.0,1,1692.0,1
1344,1344,0.05866480696874743,0.1,0.0,0.0,352.0,774.0,0.0,1,1874.0,1
1345,1345,-0.20018283794869351,-0.2,0.0,1.0,460.0,892.0,0.0,1,1648.0,0
1346,1346,0.8142750568511762,0.8,1.0,1.0,328.0,605.0,0.0,0,-903.0,0
1347,1347,0.014007452066223891,0.0,1.0,1.0,410.0,854.0,0.0,0,1736.0,0
1348,1348,-0.687972286308374,-0.7,0.0,1.0,359.0,698.0,0.0,1,-997.0,0
1349,1349,-0.6859260343015803,-0.7,0.0,1.0,276.0,685.0,0.0,1,2039.0,0
1350,1350,-0.19073032747179564,-0.2,0.0,1.0,268.0,812.0,0.0,1,1920.0,0
1351,1351,-0.31513774087167834,-0.3,1.0,0.0,320.0,889.0,0.0,0,1791.0,1
1352,1352,0.25593584795365876,0.3,1.0,1.0,434.0,855.0,0.0,0,1711.0,0
1353,1353,-0.6994597350442918,-0.7,0.0,1.0,401.0,541.0,0.0,1,2058.0,0
1354,1354,0.44237818858597666,0.4,1.0,1.0,293.0,590.0,0.0,0,2117.0,0
1355,1355,0.2508482297586362,0.3,1.0,1.0,284.0,728.0,0.0,0,1988.0,0
1356,1356,0.26111659487320094,0.3,1.0,1.0,458.0,950.0,0.0,0,1592.0,0
1357,1357,-0.5457569713563468,-0.5,1.0,0.0,492.0,565.0,0.0,0,1943.0,1
1358,1358,0.25000330182170216,0.3,0.0,0.0,268.0,998.0,0.0,1,1734.0,1
1359,1359,-0.4313987444901058,-0.4,0.0,1.0,300.0,957.0,0.0,1,1743.0,0
1360,1360,-0.6101438762246368,-0.6,0.0,1.0,290.0,784.0,0.0,1,1926.0,0
1361,1361,-0.15975555210454373,-0.2,0.0,1.0,431.0,917.0,0.0,1,1652.0,0
1362,1362,0.872841210974601,0.9,0.0,0.0,319.0,637.0,0.0,1,2044.0,1
1363,1363,-0.2220740715076045,-0.2,0.0,1.0,404.0,828.0,0.0,1,1768.0,0
1364,1364,-0.559368137408138,-0.6,1.0,0.0,334.0,801.0,0.0,0,1865.0,1
1365,1365,-0.4158981378901731,-0.4,0.0,1.0,486.0,907.0,0.0,1,1607.0,0
1366,1366,0.6911124386643767,0.7,1.0,1.0,254.0,671.0,0.0,0,2075.0,0
1367,1367,0.710279181655694,0.7,0.0,0.0,499.0,582.0,0.0,1,1919.0,1
1368,1368,0.40084940042239603,0.4,1.0,1.0,284.0,868.0,0.0,0,1848.0,0
1369,1369,-0.0259657919258357,-0.0,1.0,0.0,313.0,647.0,0.0,0,2040.0,1
1370,1370,-0.6544400151773274,-0.7,1.0,0.0,303.0,579.0,0.0,0,2118.0,1
1371,1371,0.6818890166076929,0.7,0.0,0.0,313.0,887.0,0.0,1,1800.0,1
1372,1372,-0.5684402433047065,-0.6,1.0,0.0,303.0,791.0,0.0,0,1906.0,1
1373,1373,0.16471827842852915,0.2,0.0,0.0,346.0,622.0,0.0,1,2032.0,1
1374,1374,-0.32374105669947195,-0.3,1.0,0.0,421.0,854.0,0.0,0,1725.0,1
1375,1375,-0.2942150065467386,-0.3,0.0,1.0,253.0,523.0,0.0,1,2224.0,0
1376,1376,0.040290171760673066,0.0,1.0,1.0,270.0,996.0,0.0,0,1734.0,0
1377,1377,-0.30938260661175765,-0.3,0.0,1.0,443.0,826.0,0.0,1,1731.0,0
1378,1378,-0.6538168482489161,-0.7,0.0,1.0,343.0,912.0,0.0,1,1745.0,0
1379,1379,0.4350233841032617,0.4,1.0,1.0,358.0,540.0,0.0,0,-878.0,0
1380,1380,-0.2227825933958837,-0.2,1.0,0.0,388.0,736.0,0.0,0,1876.0,1
1381,1381,0.703305863685295,0.7,1.0,1.0,295.0,610.0,0.0,0,2095.0,0
1382,1382,-0.4609918320268101,-0.5,0.0,1.0,250.0,891.0,1.0,0,-1141.0,1
1383,1383,-0.41340634162753753,-0.4,0.0,1.0,314.0,707.0,0.0,1,1979.0,0
1384,1384,0.014018181446423417,0.0,1.0,1.0,319.0,687.0,0.0,0,1994.0,0
1385,1385,-0.0739731599895822,-0.1,0.0,1.0,303.0,677.0,0.0,1,2020.0,0
1386,1386,-0.5644565526283842,-0.6,1.0,0.0,251.0,929.0,0.0,0,1820.0,1
1387,1387,0.15884319101159228,0.2,0.0,0.0,322.0,799.0,0.0,1,1879.0,1
1388,1388,0.7028797137944963,0.7,0.0,0.0,314.0,858.0,0.0,1,1828.0,1
1389,1389,-0.5197534891080431,-0.5,0.0,1.0,271.0,957.0,0.0,1,1772.0,0
1390,1390,-0.8678415666257041,-0.9,0.0,1.0,252.0,809.0,0.0,1,1939.0,0
1391,1391,-0.6797762012230951,-0.7,1.0,0.0,291.0,772.0,0.0,0,1937.0,1
1392,1392,0.2585460628905537,0.3,0.0,0.0,383.0,772.0,0.0,1,-1085.0,1
1393,1393,0.1882044607345289,0.2,0.0,0.0,464.0,535.0,0.0,1,2001.0,1
1394,1394,-0.6510460006716019,-0.7,0.0,1.0,490.0,734.0,0.0,1,1776.0,0
1395,1395,-0.6109424446598933,-0.6,1.0,0.0,331.0,848.0,0.0,0,1821.0,1
1396,1396,-0.5294785626232001,-0.5,1.0,0.0,305.0,961.0,0.0,0,1734.0,1
1397,1397,0.5616823055040446,0.6,1.0,1.0,365.0,903.0,1.0,1,-1078.0,1
1398,1398,-0.28128347612471305,-0.3,1.0,0.0,485.0,525.0,0.0,0,1990.0,1
1399,1399,-0.14104262463648887,-0.1,0.0,1.0,401.0,666.0,0.0,1,1933.0,0
1400,1400,0.21229963441495936,0.2,0.0,0.0,422.0,995.0,1.0,0,-1357.0,0
1401,1401,-0.5863984614648088,-0.6,1.0,0.0,374.0,665.0,0.0,0,1961.0,1
1402,1402,-0.006863056744672136,-0.0,0.0,1.0,257.0,941.0,0.0,1,1802.0,0
1403,1403,-0.3368665515002861,-0.3,0.0,1.0,414.0,935.0,0.0,1,1651.0,0
1404,1404,-0.5469220491656797,-0.5,0.0,1.0,324.0,883.0,0.0,1,1793.0,0
1405,1405,-0.4621304239484083,-0.5,0.0,1.0,299.0,655.0,0.0,1,2046.0,0
1406,1406,0.7537372503968568,0.8,0.0,0.0,421.0,766.0,0.0,1,1813.0,1
1407,1407,-0.4858395130206831,-0.5,0.0,1.0,495.0,935.0,0.0,1,1570.0,0
1408,1408,-0.02785964826241316,-0.0,1.0,0.0,293.0,513.0,0.0,0,2194.0,1
1409,1409,0.45412374429636826,0.5,0.0,0.0,417.0,861.0,0.0,1,1722.0,1
1410,1410,0.892973547020916,0.9,1.0,1.0,386.0,993.0,0.0,0,1621.0,0
1411,1411,-0.6261634079775096,-0.6,1.0,0.0,434.0,791.0,1.0,1,-1215.0,0
1412,1412,-0.024749603531345588,-0.0,1.0,0.0,283.0,816.0,1.0,1,-1079.0,0
1413,1413,0.21570891544602,0.2,1.0,1.0,452.0,618.0,0.0,0,1930.0,0
1414,1414,-0.1505575709355308,-0.2,1.0,0.0,304.0,894.0,0.0,0,1802.0,1
1415,1415,-0.19217456563336155,-0.2,1.0,0.0,378.0,789.0,0.0,0,1833.0,1
1416,1416,-0.3293875949601529,-0.3,0.0,1.0,462.0,785.0,0.0,1,1753.0,0
1417,1417,0.8096879357778649,0.8,1.0,1.0,417.0,745.0,1.0,1,-1142.0,1
1418,1418,0.07602131548400859,0.1,1.0,1.0,449.0,655.0,0.0,0,1896.0,0
1419,1419,0.6742016485604853,0.7,1.0,1.0,415.0,763.0,0.0,0,1822.0,0
1420,1420,-0.3379548720108271,-0.3,1.0,0.0,393.0,968.0,0.0,0,1639.0,1
1421,1421,-0.08264358622727719,-0.1,1.0,0.0,276.0,870.0,0.0,0,1854.0,1
1422,1422,-0.4189374375302376,-0.4,0.0,1.0,352.0,887.0,0.0,1,1761.0,0
1423,1423,-0.0865096864021927,-0.1,0.0,1.0,446.0,931.0,0.0,1,1623.0,0
1424,1424,0.3882661338384267,0.4,1.0,1.0,256.0,990.0,0.0,0,1754.0,0
1425,1425,0.45797200984185016,0.5,0.0,0.0,356.0,538.0,0.0,1,2106.0,1
1426,1426,0.21168562170859617,0.2,1.0,1.0,383.0,709.0,0.0,0,-1072.0,0
1427,1427,-0.24038096594717973,-0.2,1.0,0.0,381.0,906.0,0.0,0,1713.0,1
1428,1428,0.32592445838716955,0.3,1.0,1.0,257.0,827.0,0.0,0,1916.0,0
1429,1429,-0.527903181024765,-0.5,0.0,1.0,418.0,533.0,0.0,1,2049.0,0
1430,1430,-0.5430630807679249,-0.5,1.0,0.0,365.0,770.0,0.0,0,1865.0,1
1431,1431,0.7217463850383895,0.7,0.0,0.0,324.0,688.0,0.0,1,1988.0,1
1432,1432,-0.10242906231764537,-0.1,0.0,1.0,394.0,610.0,1.0,0,-994.0,1
1433,1433,0.6442161757085124,0.6,1.0,1.0,372.0,503.0,0.0,0,2125.0,0
1434,1434,-0.883446353256699,-0.9,1.0,0.0,462.0,533.0,0.0,0,2005.0,1
1435,1435,-0.5983875000628229,-0.6,0.0,1.0,252.0,856.0,1.0,0,-1068.0,1
1436,1436,-0.1914644030789463,-0.2,0.0,1.0,342.0,922.0,0.0,1,1736.0,0
1437,1437,0.7750855114635334,0.8,0.0,0.0,341.0,906.0,0.0,1,1753.0,1
1438,1438,-0.19878447208022842,-0.2,0.0,1.0,301.0,546.0,0.0,1,2153.0,0
1439,1439,-0.4936085136949393,-0.5,0.0,1.0,477.0,623.0,0.0,1,1900.0,0
1440,1440,-0.3917341665492582,-0.4,0.0,1.0,344.0,761.0,0.0,1,1895.0,0
1441,1441,0.1542520345681503,0.2,0.0,0.0,390.0,890.0,0.0,1,1720.0,1
1442,1442,-0.5792438890745661,-0.6,1.0,0.0,315.0,563.0,0.0,0,2122.0,1
1443,1443,-0.7951045915497976,-0.8,0.0,1.0,287.0,797.0,0.0,1,-984.0,0
1444,1444,-0.40095435441998,-0.4,1.0,0.0,419.0,801.0,0.0,0,1780.0,1
1445,1445,-0.020233690312371766,-0.0,1.0,0.0,449.0,748.0,0.0,0,1803.0,1
1446,1446,-0.06777419001809681,-0.1,0.0,1.0,442.0,828.0,0.0,1,1730.0,0
1447,1447,0.2671786836507778,0.3,1.0,1.0,420.0,852.0,0.0,0,1728.0,0
1448,1448,-0.009387275135882,-0.0,0.0,1.0,292.0,753.0,0.0,1,1955.0,0
1449,1449,-0.4784261353124908,-0.5,1.0,0.0,497.0,633.0,0.0,0,1870.0,1
1450,1450,0.13489177532788899,0.1,0.0,0.0,446.0,657.0,1.0,0,-993.0,0
1451,1451,-0.621126451879766,-0.6,0.0,1.0,303.0,793.0,0.0,1,1904.0,0
1452,1452,-0.18755203216895355,-0.2,1.0,0.0,389.0,978.0,0.0,0,1633.0,1
1453,1453,-0.89949474172097,-0.9,1.0,0.0,399.0,619.0,0.0,0,1982.0,1
1454,1454,0.10570573902466773,0.1,1.0,1.0,459.0,623.0,0.0,0,1918.0,0
1455,1455,0.7842119988394297,0.8,1.0,1.0,372.0,835.0,0.0,0,1793.0,0
1456,1456,-0.6829418393288059,-0.7,0.0,1.0,284.0,697.0,0.0,1,2019.0,0
1457,1457,-0.5830625169363254,-0.6,0.0,1.0,419.0,908.0,0.0,1,1673.0,0
1458,1458,-0.8199134686122078,-0.8,1.0,0.0,267.0,741.0,0.0,0,1992.0,1
1459,1459,0.4182528127753985,0.4,0.0,0.0,462.0,706.0,0.0,1,1832.0,1
1460,1460,-0.13404416293782428,-0.1,1.0,0.0,299.0,519.0,0.0,0,2182.0,1
1461,1461,-0.5183146369864715,-0.5,0.0,1.0,261.0,788.0,0.0,1,1951.0,0
1462,1462,0.008864651378498234,0.0,1.0,1.0,363.0,670.0,0.0,0,1967.0,0
1463,1463,0.13429398123158298,0.1,0.0,0.0,447.0,516.0,0.0,1,2037.0,1
1464,1464,-0.8533888119925616,-0.9,0.0,1.0,299.0,919.0,0.0,1,1782.0,0
1465,1465,-0.8826786386705395,-0.9,1.0,0.0,480.0,612.0,0.0,0,1908.0,1
1466,1466,0.546613264004231,0.5,1.0,1.0,432.0,533.0,0.0,0,2035.0,0
1467,1467,0.3304982439047147,0.3,1.0,1.0,355.0,603.0,0.0,0,2042.0,0
1468,1468,0.6800899848990792,0.7,1.0,1.0,481.0,698.0,0.0,0,-1129.0,0
1469,1469,0.2932605514925356,0.3,1.0,1.0,307.0,699.0,0.0,0,1994.0,0
