,trial,coherence,coherence_bin,green_side,correct_side,target_onset,checker_onset,decision,green_decision,decision_time,correct_decision
0,0,0.7573295383676938,0.8,0.0,0.0,467.0,781.0,0.0,1,382.0,1
1,1,-0.8845627247006981,-0.9,1.0,0.0,255.0,602.0,0.0,0,163.0,1
2,2,0.8652923673666512,0.9,1.0,1.0,273.0,543.0,1.0,1,224.0,1
3,3,-0.16147161231589124,-0.2,0.0,1.0,320.0,766.0,1.0,0,454.0,1
4,4,0.2877989097346526,0.3,0.0,0.0,483.0,861.0,0.0,1,416.0,1
5,5,0.331664259361632,0.3,1.0,1.0,489.0,531.0,1.0,1,330.0,1
6,6,0.7930187686613946,0.8,0.0,0.0,250.0,570.0,0.0,1,150.0,1
7,7,-0.17225475503339893,-0.2,1.0,0.0,421.0,780.0,0.0,0,1799.0,1
8,8,0.6957210946200646,0.7,0.0,0.0,382.0,652.0,0.0,1,36.0,1
9,9,0.38094505120458433,0.4,0.0,0.0,267.0,833.0,0.0,1,1900.0,1
10,10,-0.46347807845308003,-0.5,0.0,1.0,414.0,601.0,1.0,0,135.0,1
11,11,0.13231557236130043,0.1,0.0,0.0,309.0,877.0,0.0,1,1814.0,1
12,12,0.6613214319207464,0.7,1.0,1.0,335.0,653.0,1.0,1,342.0,1
13,13,0.8140588115932997,0.8,0.0,0.0,364.0,920.0,0.0,1,436.0,1
14,14,-0.6766891072893962,-0.7,1.0,0.0,437.0,521.0,0.0,0,332.0,1
15,15,0.5797392467419719,0.6,1.0,1.0,293.0,562.0,1.0,1,345.0,1
16,16,-0.36972124425989594,-0.4,1.0,0.0,456.0,856.0,0.0,0,228.0,1
17,17,-0.629963670077099,-0.6,0.0,1.0,375.0,720.0,1.0,0,185.0,1
18,18,0.5453329262585179,0.5,1.0,1.0,271.0,754.0,1.0,1,375.0,1
19,19,0.678208499676198,0.7,1.0,1.0,379.0,874.0,1.0,1,117.0,1
20,20,0.3716608143198509,0.4,1.0,1.0,446.0,915.0,1.0,1,239.0,1
21,21,0.1524539812699114,0.2,1.0,1.0,412.0,817.0,1.0,1,421.0,1
22,22,-0.4559507554547096,-0.5,1.0,0.0,421.0,827.0,0.0,0,572.0,1
23,23,-0.7388908457188492,-0.7,0.0,1.0,294.0,757.0,1.0,0,309.0,1
24,24,0.7532434840150536,0.8,0.0,0.0,272.0,689.0,0.0,1,449.0,1
25,25,-0.6767063097660978,-0.7,0.0,1.0,368.0,500.0,1.0,0,222.0,1
26,26,0.755701828898853,0.8,1.0,1.0,392.0,788.0,1.0,1,150.0,1
27,27,-0.8819359278944613,-0.9,0.0,1.0,379.0,510.0,1.0,0,171.0,1
28,28,-0.02954954354294803,-0.0,1.0,0.0,472.0,503.0,1.0,1,745.0,0
29,29,0.4518640090678673,0.5,0.0,0.0,423.0,697.0,0.0,1,670.0,1
30,30,-0.5235514436247546,-0.5,0.0,1.0,450.0,738.0,1.0,0,312.0,1
31,31,0.789740999668424,0.8,1.0,1.0,441.0,965.0,1.0,1,234.0,1
32,32,0.3361911941376651,0.3,0.0,0.0,483.0,841.0,0.0,1,316.0,1
33,33,0.2588644993232315,0.3,0.0,0.0,391.0,746.0,0.0,1,773.0,1
34,34,0.531242871796412,0.5,0.0,0.0,266.0,660.0,0.0,1,374.0,1
35,35,-0.8707407692513778,-0.9,1.0,0.0,439.0,835.0,0.0,0,156.0,1
36,36,0.7049612015758367,0.7,1.0,1.0,401.0,935.0,1.0,1,184.0,1
37,37,0.43987619109119025,0.4,0.0,0.0,339.0,727.0,0.0,1,674.0,1
38,38,-0.0043760019533334304,-0.0,0.0,1.0,307.0,729.0,1.0,0,1894.0,1
39,39,0.24760128529272996,0.2,0.0,0.0,432.0,767.0,0.0,1,481.0,1
40,40,-0.4119855081155302,-0.4,0.0,1.0,304.0,976.0,1.0,0,110.0,1
41,41,-0.3282947946449477,-0.3,1.0,0.0,272.0,786.0,0.0,0,1612.0,1
42,42,0.1385416747754583,0.1,0.0,0.0,285.0,849.0,0.0,1,1866.0,1
43,43,-0.2603062981972669,-0.3,1.0,0.0,305.0,600.0,0.0,0,655.0,1
44,44,0.11341548444573879,0.1,1.0,1.0,362.0,970.0,1.0,1,938.0,1
45,45,0.10169199445669974,0.1,0.0,0.0,454.0,771.0,1.0,0,1775.0,0
46,46,-0.4245214973287312,-0.4,0.0,1.0,255.0,674.0,1.0,0,141.0,1
47,47,0.5981764038888852,0.6,1.0,1.0,342.0,599.0,1.0,1,449.0,1
48,48,-0.3381843758758961,-0.3,1.0,0.0,484.0,846.0,0.0,0,660.0,1
49,49,-0.5584313949503985,-0.6,0.0,1.0,310.0,858.0,1.0,0,212.0,1
50,50,-0.22459359967255776,-0.2,1.0,0.0,360.0,850.0,0.0,0,1790.0,1
51,51,0.03702058249651097,0.0,0.0,0.0,402.0,544.0,1.0,0,2054.0,0
52,52,-0.27797350798732967,-0.3,0.0,1.0,428.0,780.0,1.0,0,632.0,1
53,53,0.2594118044468997,0.3,0.0,0.0,444.0,552.0,0.0,1,2004.0,1
54,54,0.5187154315224719,0.5,1.0,1.0,437.0,766.0,1.0,1,487.0,1
55,55,0.07867273377067219,0.1,1.0,1.0,401.0,713.0,1.0,1,976.0,1
56,56,-0.4019115324618595,-0.4,0.0,1.0,456.0,613.0,1.0,0,241.0,1
57,57,0.5609421800338227,0.6,0.0,0.0,271.0,949.0,0.0,1,200.0,1
58,58,-0.43482426514140493,-0.4,0.0,1.0,349.0,632.0,1.0,0,269.0,1
59,59,0.4188040884397205,0.4,0.0,0.0,411.0,513.0,0.0,1,316.0,1
60,60,-0.5638692857710568,-0.6,0.0,1.0,388.0,846.0,1.0,0,256.0,1
61,61,0.8119827013938937,0.8,1.0,1.0,376.0,648.0,1.0,1,396.0,1
62,62,-0.1367504667206655,-0.1,0.0,1.0,464.0,747.0,1.0,0,1599.0,1
63,63,-0.3842074487771583,-0.4,1.0,0.0,267.0,594.0,0.0,0,989.0,1
64,64,-0.16092175116390695,-0.2,0.0,1.0,290.0,938.0,1.0,0,1772.0,1
65,65,-0.10723433836589658,-0.1,1.0,0.0,409.0,822.0,0.0,0,1769.0,1
66,66,-0.40092533279222026,-0.4,1.0,0.0,288.0,963.0,0.0,0,199.0,1
67,67,-0.09739057946766816,-0.1,1.0,0.0,335.0,688.0,0.0,0,1977.0,1
68,68,-0.23775294873511765,-0.2,1.0,0.0,493.0,913.0,0.0,0,1454.0,1
69,69,-0.7938633786988161,-0.8,0.0,1.0,481.0,935.0,1.0,0,194.0,1
70,70,0.06408416102128667,0.1,0.0,0.0,366.0,633.0,0.0,1,691.0,1
71,71,-0.39393185867768,-0.4,1.0,0.0,410.0,860.0,0.0,0,250.0,1
72,72,-0.6966647771245662,-0.7,0.0,1.0,362.0,615.0,1.0,0,313.0,1
73,73,-0.26379882841606794,-0.3,1.0,0.0,425.0,814.0,0.0,0,181.0,1
74,74,0.4979494451519745,0.5,0.0,0.0,452.0,685.0,0.0,1,103.0,1
75,75,-0.029022119841935812,-0.0,1.0,0.0,410.0,746.0,0.0,0,1844.0,1
76,76,-0.2314235660401872,-0.2,0.0,1.0,286.0,687.0,1.0,0,1627.0,1
77,77,-0.17169683959110993,-0.2,0.0,1.0,399.0,538.0,1.0,0,993.0,1
78,78,0.1014911909659616,0.1,0.0,0.0,484.0,609.0,1.0,0,1907.0,0
79,79,0.6520215437212981,0.7,0.0,0.0,358.0,966.0,0.0,1,386.0,1
80,80,0.7293628543982097,0.7,1.0,1.0,344.0,627.0,1.0,1,329.0,1
81,81,0.8338453115729693,0.8,1.0,1.0,435.0,706.0,1.0,1,239.0,1
82,82,0.07888365608275372,0.1,1.0,1.0,468.0,554.0,0.0,0,1978.0,0
83,83,0.15351753398069812,0.2,1.0,1.0,287.0,803.0,1.0,1,1360.0,1
84,84,-0.23415324958065475,-0.2,0.0,1.0,289.0,797.0,1.0,0,674.0,1
85,85,-0.41427399368062173,-0.4,1.0,0.0,357.0,602.0,0.0,0,241.0,1
86,86,0.3429532888836023,0.3,1.0,1.0,490.0,591.0,1.0,1,429.0,1
87,87,0.6229092365201542,0.6,1.0,1.0,375.0,913.0,1.0,1,192.0,1
88,88,0.635323262682261,0.6,0.0,0.0,282.0,990.0,0.0,1,458.0,1
89,89,0.5097303485343888,0.5,1.0,1.0,308.0,738.0,1.0,1,304.0,1
90,90,-0.7451370068636174,-0.7,1.0,0.0,399.0,803.0,0.0,0,228.0,1
91,91,0.7486455730344858,0.7,1.0,1.0,493.0,792.0,1.0,1,225.0,1
92,92,0.23652353379067803,0.2,1.0,1.0,277.0,918.0,1.0,1,695.0,1
93,93,0.041963890632123024,0.0,0.0,0.0,281.0,646.0,1.0,0,2073.0,0
94,94,-0.33593575973096446,-0.3,1.0,0.0,343.0,743.0,0.0,0,364.0,1
95,95,0.33826272038692784,0.3,1.0,1.0,421.0,506.0,1.0,1,463.0,1
96,96,0.449790768036063,0.4,0.0,0.0,455.0,953.0,0.0,1,1002.0,1
97,97,-0.2447732654376641,-0.2,1.0,0.0,270.0,869.0,0.0,0,331.0,1
98,98,0.6170917485724207,0.6,0.0,0.0,278.0,929.0,0.0,1,413.0,1
99,99,0.7060147764516395,0.7,1.0,1.0,432.0,562.0,1.0,1,356.0,1
100,100,0.6506124247060944,0.7,0.0,0.0,489.0,707.0,0.0,1,384.0,1
101,101,0.00741942387723693,0.0,1.0,1.0,372.0,821.0,0.0,0,1397.0,0
102,102,0.3901272680159721,0.4,0.0,0.0,310.0,598.0,0.0,1,502.0,1
103,103,0.19504999470967077,0.2,0.0,0.0,366.0,625.0,0.0,1,2009.0,1
104,104,-0.5360413045714552,-0.5,0.0,1.0,327.0,920.0,1.0,0,233.0,1
105,105,-0.07436203006100539,-0.1,1.0,0.0,323.0,922.0,0.0,0,1755.0,1
106,106,-0.8196886709943084,-0.8,1.0,0.0,373.0,731.0,0.0,0,206.0,1
107,107,0.5651400912638159,0.6,1.0,1.0,287.0,733.0,1.0,1,330.0,1
108,108,-0.0991020986641078,-0.1,0.0,1.0,441.0,656.0,1.0,0,1903.0,1
109,109,0.0033283958503771416,0.0,1.0,1.0,390.0,552.0,1.0,1,1528.0,1
110,110,-0.36119634822347946,-0.4,0.0,1.0,417.0,569.0,1.0,0,164.0,1
111,111,-0.6731548956386559,-0.7,1.0,0.0,259.0,671.0,0.0,0,250.0,1
112,112,-0.6033110084399538,-0.6,1.0,0.0,453.0,529.0,0.0,0,198.0,1
113,113,-0.5784710788215202,-0.6,0.0,1.0,428.0,659.0,1.0,0,273.0,1
114,114,-0.3209261534930956,-0.3,0.0,1.0,380.0,938.0,1.0,0,162.0,1
115,115,-0.60233345601,-0.6,0.0,1.0,301.0,696.0,1.0,0,603.0,1
116,116,0.8891007943301551,0.9,0.0,0.0,389.0,964.0,0.0,1,257.0,1
117,117,0.24461368322410515,0.2,0.0,0.0,416.0,870.0,0.0,1,1714.0,1
118,118,-0.4096863993029904,-0.4,0.0,1.0,322.0,737.0,1.0,0,481.0,1
119,119,0.04553486157532438,0.0,1.0,1.0,331.0,665.0,0.0,0,2004.0,0
120,120,0.1617642784840495,0.2,1.0,1.0,368.0,967.0,1.0,1,755.0,1
121,121,-0.028535446621848037,-0.0,1.0,0.0,263.0,988.0,1.0,1,1749.0,0
122,122,0.21533384312008408,0.2,1.0,1.0,315.0,613.0,1.0,1,1012.0,1
123,123,-0.4329329792877438,-0.4,0.0,1.0,342.0,573.0,1.0,0,665.0,1
124,124,0.6467030626605016,0.6,1.0,1.0,341.0,904.0,1.0,1,135.0,1
125,125,-0.5144051746609866,-0.5,0.0,1.0,428.0,976.0,1.0,0,326.0,1
126,126,0.31040457163415824,0.3,1.0,1.0,284.0,616.0,0.0,0,-110.0,0
127,127,-0.1757314026882263,-0.2,0.0,1.0,317.0,925.0,1.0,0,1528.0,1
128,128,-0.45779258244759385,-0.5,1.0,0.0,427.0,734.0,0.0,0,149.0,1
129,129,-0.4012887969519355,-0.4,0.0,1.0,250.0,606.0,1.0,0,704.0,1
130,130,-0.7384075814280001,-0.7,1.0,0.0,414.0,706.0,0.0,0,320.0,1
131,131,0.3833569162146241,0.4,0.0,0.0,306.0,791.0,0.0,1,423.0,1
132,132,-0.8687535659004355,-0.9,0.0,1.0,491.0,809.0,1.0,0,250.0,1
133,133,0.16174427702359273,0.2,1.0,1.0,287.0,756.0,1.0,1,937.0,1
134,134,-0.8064854424532711,-0.8,1.0,0.0,488.0,936.0,0.0,0,496.0,1
135,135,-0.678513798422127,-0.7,1.0,0.0,270.0,866.0,0.0,0,224.0,1
136,136,0.6649487361551943,0.7,0.0,0.0,338.0,564.0,0.0,1,678.0,1
137,137,0.8484417776914143,0.8,1.0,1.0,422.0,596.0,1.0,1,212.0,1
138,138,0.8252324499147613,0.8,1.0,1.0,317.0,535.0,1.0,1,188.0,1
139,139,-0.23261293342652134,-0.2,0.0,1.0,372.0,508.0,1.0,0,980.0,1
140,140,-0.597121194063275,-0.6,0.0,1.0,369.0,813.0,1.0,0,288.0,1
141,141,-0.06361118963837131,-0.1,1.0,0.0,471.0,687.0,0.0,0,1842.0,1
142,142,0.1686124396506078,0.2,1.0,1.0,261.0,700.0,1.0,1,399.0,1
143,143,-0.8611119663436527,-0.9,1.0,0.0,265.0,833.0,0.0,0,212.0,1
144,144,-0.2919888690492638,-0.3,1.0,0.0,497.0,990.0,0.0,0,543.0,1
145,145,-0.5916248749862232,-0.6,1.0,0.0,358.0,550.0,0.0,0,312.0,1
146,146,-0.4736059995442675,-0.5,1.0,0.0,456.0,811.0,0.0,0,263.0,1
147,147,-0.6716473012267568,-0.7,1.0,0.0,338.0,732.0,0.0,0,1320.0,1
148,148,-0.23701752487107075,-0.2,0.0,1.0,272.0,947.0,1.0,0,581.0,1
149,149,-0.2981824380707323,-0.3,1.0,0.0,303.0,601.0,0.0,0,526.0,1
150,150,-0.030423924272758418,-0.0,0.0,1.0,347.0,517.0,1.0,0,2136.0,1
151,151,0.39351931187241507,0.4,1.0,1.0,432.0,986.0,1.0,1,172.0,1
152,152,-0.1539860587326477,-0.2,1.0,0.0,279.0,668.0,0.0,0,653.0,1
153,153,-0.6699995391671058,-0.7,0.0,1.0,496.0,738.0,1.0,0,356.0,1
154,154,-0.3127734925164741,-0.3,1.0,0.0,473.0,548.0,0.0,0,919.0,1
155,155,0.5249207197973239,0.5,0.0,0.0,358.0,689.0,0.0,1,1953.0,1
156,156,-0.3613463763769823,-0.4,1.0,0.0,351.0,723.0,0.0,0,746.0,1
157,157,0.360443018299787,0.4,1.0,1.0,386.0,604.0,1.0,1,360.0,1
158,158,-0.22873026984917444,-0.2,1.0,0.0,390.0,761.0,0.0,0,759.0,1
159,159,-0.8052993552280043,-0.8,0.0,1.0,274.0,924.0,1.0,0,292.0,1
160,160,0.4116556914962378,0.4,0.0,0.0,279.0,549.0,0.0,1,482.0,1
161,161,-0.18192987283210438,-0.2,0.0,1.0,296.0,782.0,1.0,0,982.0,1
162,162,-0.7700782584276261,-0.8,0.0,1.0,490.0,767.0,1.0,0,183.0,1
163,163,-0.8149863149539993,-0.8,0.0,1.0,492.0,687.0,1.0,0,121.0,1
164,164,0.5428690856732014,0.5,0.0,0.0,374.0,603.0,0.0,1,323.0,1
165,165,0.6682913501255375,0.7,1.0,1.0,343.0,839.0,1.0,1,418.0,1
166,166,-0.48042821043494915,-0.5,0.0,1.0,450.0,782.0,1.0,0,828.0,1
167,167,0.5551076033480152,0.6,0.0,0.0,388.0,803.0,0.0,1,1159.0,1
168,168,-0.8726392099404271,-0.9,0.0,1.0,278.0,530.0,1.0,0,162.0,1
169,169,-0.829813911046789,-0.8,0.0,1.0,453.0,864.0,1.0,0,943.0,1
170,170,-0.2938303736010941,-0.3,0.0,1.0,250.0,979.0,1.0,0,1501.0,1
171,171,-0.41684237252474066,-0.4,1.0,0.0,423.0,968.0,0.0,0,339.0,1
172,172,0.3418572113647963,0.3,1.0,1.0,456.0,597.0,1.0,1,317.0,1
173,173,0.5409139766575594,0.5,0.0,0.0,420.0,575.0,0.0,1,125.0,1
174,174,0.6929095800157562,0.7,0.0,0.0,358.0,548.0,0.0,1,314.0,1
175,175,0.571028609502244,0.6,0.0,0.0,397.0,760.0,0.0,1,363.0,1
176,176,0.1698076946594772,0.2,1.0,1.0,420.0,815.0,1.0,1,195.0,1
177,177,0.5688093312571639,0.6,0.0,0.0,424.0,579.0,0.0,1,337.0,1
178,178,0.7726719879623435,0.8,0.0,0.0,426.0,690.0,0.0,1,194.0,1
179,179,0.8895801624569802,0.9,0.0,0.0,462.0,578.0,0.0,1,290.0,1
180,180,0.1874276116988266,0.2,0.0,0.0,439.0,916.0,0.0,1,745.0,1
181,181,0.6896894918910946,0.7,0.0,0.0,401.0,752.0,0.0,1,287.0,1
182,182,0.04784939114970477,0.0,1.0,1.0,460.0,610.0,1.0,1,1350.0,1
183,183,-0.4755310054982153,-0.5,0.0,1.0,434.0,860.0,1.0,0,486.0,1
184,184,-0.5127418981883307,-0.5,1.0,0.0,435.0,952.0,0.0,0,413.0,1
185,185,0.018683024930860048,0.0,1.0,1.0,470.0,677.0,1.0,1,763.0,1
186,186,0.7759006541454151,0.8,0.0,0.0,407.0,757.0,0.0,1,346.0,1
187,187,0.18928267716502922,0.2,1.0,1.0,460.0,557.0,1.0,1,1253.0,1
188,188,0.12396337219614384,0.1,0.0,0.0,430.0,654.0,0.0,1,966.0,1
189,189,0.8933835164385405,0.9,0.0,0.0,266.0,624.0,0.0,1,290.0,1
190,190,0.7039102655971655,0.7,1.0,1.0,428.0,748.0,1.0,1,334.0,1
191,191,0.4373241220719549,0.4,0.0,0.0,454.0,516.0,0.0,1,670.0,1
192,192,-0.20212283191253788,-0.2,1.0,0.0,424.0,687.0,0.0,0,979.0,1
193,193,-0.790720410667895,-0.8,0.0,1.0,479.0,900.0,1.0,0,631.0,1
194,194,-0.15781812540988183,-0.2,0.0,1.0,422.0,948.0,1.0,0,1090.0,1
195,195,-0.6279736211724312,-0.6,1.0,0.0,316.0,901.0,0.0,0,153.0,1
196,196,-0.6935277266831406,-0.7,0.0,1.0,356.0,735.0,1.0,0,569.0,1
197,197,-0.4620375659911521,-0.5,1.0,0.0,295.0,890.0,0.0,0,325.0,1
198,198,0.09113381646693652,0.1,0.0,0.0,299.0,838.0,0.0,1,1863.0,1
199,199,-0.04689846260887631,-0.0,1.0,0.0,496.0,506.0,1.0,1,1998.0,0
200,200,-0.5846982545396227,-0.6,0.0,1.0,312.0,502.0,1.0,0,446.0,1
201,201,-0.7928534150068908,-0.8,0.0,1.0,393.0,968.0,1.0,0,119.0,1
202,202,-0.3185284866634963,-0.3,1.0,0.0,400.0,749.0,0.0,0,471.0,1
203,203,0.575505883005586,0.6,1.0,1.0,321.0,639.0,1.0,1,230.0,1
204,204,0.7358929151169303,0.7,0.0,0.0,396.0,969.0,0.0,1,-145.0,1
205,205,0.5558848682986365,0.6,1.0,1.0,459.0,627.0,1.0,1,164.0,1
206,206,-0.30136216272172356,-0.3,1.0,0.0,300.0,884.0,0.0,0,196.0,1
207,207,0.7906427013519851,0.8,0.0,0.0,414.0,527.0,0.0,1,199.0,1
208,208,0.2310482566002604,0.2,1.0,1.0,300.0,510.0,1.0,1,430.0,1
209,209,0.45048180201721777,0.5,1.0,1.0,470.0,867.0,1.0,1,303.0,1
210,210,-0.7719226084787115,-0.8,0.0,1.0,324.0,778.0,1.0,0,98.0,1
211,211,-0.1819845698045669,-0.2,1.0,0.0,350.0,937.0,0.0,0,1713.0,1
212,212,-0.675797254899404,-0.7,0.0,1.0,362.0,770.0,1.0,0,418.0,1
213,213,-0.07308250230382007,-0.1,1.0,0.0,435.0,980.0,1.0,1,1585.0,0
214,214,0.04095805237072714,0.0,1.0,1.0,341.0,701.0,1.0,1,1958.0,1
215,215,-0.2484518506197264,-0.2,0.0,1.0,411.0,610.0,1.0,0,1579.0,1
216,216,0.5479792194358165,0.5,1.0,1.0,496.0,855.0,1.0,1,189.0,1
217,217,0.30764209613613513,0.3,1.0,1.0,497.0,961.0,1.0,1,372.0,1
218,218,-0.11113776844708922,-0.1,1.0,0.0,350.0,948.0,0.0,0,1702.0,1
219,219,-0.8645899302669701,-0.9,1.0,0.0,285.0,725.0,0.0,0,280.0,1
220,220,-0.20278362183797904,-0.2,0.0,1.0,309.0,978.0,1.0,0,1713.0,1
221,221,0.516178089526666,0.5,1.0,1.0,455.0,536.0,1.0,1,269.0,1
222,222,0.019075245626140713,0.0,0.0,0.0,259.0,969.0,1.0,0,1772.0,0
223,223,-0.3632279802594407,-0.4,1.0,0.0,264.0,805.0,0.0,0,521.0,1
224,224,-0.709663148941782,-0.7,1.0,0.0,450.0,564.0,0.0,0,826.0,1
225,225,-0.14985357449885084,-0.1,0.0,1.0,265.0,823.0,1.0,0,622.0,1
226,226,0.20615929452486792,0.2,0.0,0.0,424.0,572.0,0.0,1,1544.0,1
227,227,-0.4463381579840978,-0.4,1.0,0.0,440.0,923.0,0.0,0,297.0,1
228,228,-0.3578904553523693,-0.4,1.0,0.0,314.0,675.0,0.0,0,291.0,1
229,229,0.42913701209769906,0.4,0.0,0.0,311.0,641.0,0.0,1,318.0,1
230,230,0.4284448993654312,0.4,1.0,1.0,331.0,610.0,1.0,1,669.0,1
231,231,-0.14824118527027164,-0.1,0.0,1.0,382.0,679.0,1.0,0,1939.0,1
232,232,0.8449481422578528,0.8,1.0,1.0,292.0,859.0,1.0,1,279.0,1
233,233,0.350907142593769,0.4,1.0,1.0,499.0,895.0,1.0,1,506.0,1
234,234,0.3973432646101974,0.4,1.0,1.0,256.0,751.0,1.0,1,333.0,1
235,235,-0.6140909546507445,-0.6,1.0,0.0,487.0,889.0,0.0,0,264.0,1
236,236,0.37661903747236847,0.4,0.0,0.0,484.0,898.0,0.0,1,468.0,1
237,237,-0.5207421636153841,-0.5,0.0,1.0,429.0,633.0,1.0,0,478.0,1
238,238,0.685429430429869,0.7,0.0,0.0,340.0,795.0,0.0,1,1445.0,1
239,239,0.7913170073398968,0.8,1.0,1.0,420.0,952.0,1.0,1,228.0,1
240,240,-0.6413743271622792,-0.6,0.0,1.0,461.0,667.0,1.0,0,542.0,1
241,241,0.04420868503869679,0.0,1.0,1.0,265.0,883.0,1.0,1,1852.0,1
242,242,-0.8594255242020158,-0.9,0.0,1.0,434.0,872.0,1.0,0,224.0,1
243,243,0.604549143500647,0.6,0.0,0.0,365.0,749.0,0.0,1,736.0,1
244,244,-0.3755639352256759,-0.4,1.0,0.0,448.0,902.0,0.0,0,1360.0,1
245,245,-0.17028116488964662,-0.2,0.0,1.0,486.0,526.0,1.0,0,1418.0,1
246,246,-0.7308285104422967,-0.7,0.0,1.0,386.0,649.0,1.0,0,345.0,1
247,247,0.11224744101585882,0.1,1.0,1.0,465.0,908.0,1.0,1,697.0,1
248,248,0.10714267543066869,0.1,1.0,1.0,392.0,701.0,1.0,1,227.0,1
249,249,-0.8886259904801915,-0.9,0.0,1.0,337.0,745.0,1.0,0,238.0,1
250,250,0.40934456876064307,0.4,1.0,1.0,381.0,802.0,1.0,1,427.0,1
251,251,0.7348416301175876,0.7,0.0,0.0,269.0,854.0,0.0,1,1877.0,1
252,252,0.5242969352231727,0.5,0.0,0.0,471.0,882.0,0.0,1,377.0,1
253,253,-0.8087760686740317,-0.8,0.0,1.0,409.0,522.0,1.0,0,339.0,1
254,254,0.26647427949470537,0.3,0.0,0.0,385.0,605.0,0.0,1,2010.0,1
255,255,0.6773805613657072,0.7,0.0,0.0,299.0,683.0,0.0,1,718.0,1
256,256,-0.15538611017864656,-0.2,0.0,1.0,305.0,864.0,1.0,0,481.0,1
257,257,0.11146317322807475,0.1,1.0,1.0,368.0,534.0,1.0,1,1658.0,1
258,258,0.0839144328444189,0.1,0.0,0.0,495.0,685.0,0.0,1,1820.0,1
259,259,-0.5651669966505793,-0.6,0.0,1.0,302.0,691.0,1.0,0,437.0,1
260,260,-0.7824825398892674,-0.8,0.0,1.0,275.0,721.0,1.0,0,244.0,1
261,261,0.6935959247589664,0.7,1.0,1.0,368.0,903.0,1.0,1,99.0,1
262,262,0.7541559622431758,0.8,1.0,1.0,484.0,532.0,1.0,1,254.0,1
263,263,-0.022995739565479068,-0.0,1.0,0.0,421.0,640.0,1.0,1,1939.0,0
264,264,0.3510769692927854,0.4,0.0,0.0,487.0,972.0,0.0,1,491.0,1
265,265,-0.7478107611965255,-0.7,1.0,0.0,364.0,955.0,0.0,0,111.0,1
266,266,-0.8006732976365724,-0.8,0.0,1.0,490.0,806.0,1.0,0,354.0,1
267,267,0.533235061353697,0.5,1.0,1.0,387.0,961.0,1.0,1,302.0,1
268,268,-0.6744220880759689,-0.7,1.0,0.0,398.0,517.0,0.0,0,305.0,1
269,269,-0.7702506398534875,-0.8,1.0,0.0,435.0,760.0,0.0,0,225.0,1
270,270,-0.2711284925070686,-0.3,1.0,0.0,307.0,591.0,0.0,0,732.0,1
271,271,-0.3981710806300568,-0.4,1.0,0.0,470.0,587.0,0.0,0,1193.0,1
272,272,0.831437998660233,0.8,1.0,1.0,397.0,703.0,1.0,1,270.0,1
273,273,-0.6044691200840477,-0.6,1.0,0.0,494.0,869.0,0.0,0,627.0,1
274,274,-0.36639318899806306,-0.4,1.0,0.0,353.0,642.0,0.0,0,525.0,1
275,275,0.28575400579913424,0.3,0.0,0.0,408.0,590.0,0.0,1,872.0,1
276,276,0.8231625728292516,0.8,1.0,1.0,338.0,782.0,1.0,1,210.0,1
277,277,0.21522644345763264,0.2,0.0,0.0,374.0,705.0,0.0,1,1221.0,1
278,278,-0.880101649204861,-0.9,0.0,1.0,471.0,514.0,1.0,0,305.0,1
279,279,-0.46191409473879474,-0.5,0.0,1.0,477.0,508.0,1.0,0,335.0,1
280,280,0.6644917540224641,0.7,1.0,1.0,297.0,920.0,1.0,1,103.0,1
281,281,0.5482895555171255,0.5,1.0,1.0,342.0,787.0,1.0,1,171.0,1
282,282,-0.2914801998239712,-0.3,0.0,1.0,408.0,653.0,1.0,0,849.0,1
283,283,-0.6711728329888744,-0.7,0.0,1.0,253.0,813.0,1.0,0,304.0,1
284,284,-0.6378751013404027,-0.6,1.0,0.0,430.0,682.0,0.0,0,258.0,1
285,285,0.5496618582460598,0.5,0.0,0.0,280.0,521.0,0.0,1,409.0,1
286,286,-0.2270412017794995,-0.2,1.0,0.0,467.0,587.0,0.0,0,726.0,1
287,287,0.4038239938558771,0.4,0.0,0.0,417.0,804.0,0.0,1,309.0,1
288,288,0.2381650571028221,0.2,0.0,0.0,287.0,659.0,0.0,1,1414.0,1
289,289,-0.6928083693122663,-0.7,1.0,0.0,419.0,699.0,0.0,0,622.0,1
290,290,-0.065583932081406,-0.1,0.0,1.0,338.0,743.0,1.0,0,1569.0,1
291,291,-0.07590204769163889,-0.1,1.0,0.0,299.0,766.0,1.0,1,1935.0,0
292,292,-0.012645163791619618,-0.0,0.0,1.0,352.0,871.0,1.0,0,1777.0,1
293,293,-0.3456910028258041,-0.3,0.0,1.0,260.0,983.0,1.0,0,287.0,1
294,294,-0.2497156906780792,-0.2,0.0,1.0,303.0,942.0,1.0,0,825.0,1
295,295,-0.6128307793893484,-0.6,0.0,1.0,425.0,797.0,1.0,0,148.0,1
296,296,0.8853323688879481,0.9,1.0,1.0,254.0,620.0,1.0,1,226.0,1
297,297,0.7627836769374631,0.8,0.0,0.0,316.0,827.0,0.0,1,437.0,1
298,298,-0.4560657896807648,-0.5,0.0,1.0,277.0,926.0,1.0,0,337.0,1
299,299,0.6080177175593283,0.6,0.0,0.0,359.0,893.0,0.0,1,438.0,1
300,300,-0.20230655674864595,-0.2,1.0,0.0,479.0,680.0,1.0,1,1841.0,0
301,301,0.17325427164128981,0.2,1.0,1.0,499.0,944.0,1.0,1,417.0,1
302,302,-0.7751821266007907,-0.8,0.0,1.0,266.0,866.0,1.0,0,308.0,1
303,303,0.18361591133364386,0.2,1.0,1.0,493.0,700.0,1.0,1,1267.0,1
304,304,0.27027399292296483,0.3,0.0,0.0,265.0,530.0,0.0,1,1925.0,1
305,305,-0.6228083706410075,-0.6,0.0,1.0,456.0,708.0,1.0,0,446.0,1
306,306,0.21123687751860898,0.2,0.0,0.0,364.0,726.0,0.0,1,1190.0,1
307,307,0.693382338589816,0.7,1.0,1.0,337.0,633.0,1.0,1,160.0,1
308,308,-0.6548378479419534,-0.7,0.0,1.0,262.0,591.0,1.0,0,867.0,1
309,309,0.5540581465169826,0.6,0.0,0.0,351.0,546.0,0.0,1,1633.0,1
310,310,0.770652708725465,0.8,0.0,0.0,337.0,533.0,0.0,1,570.0,1
311,311,-0.15322118390276163,-0.2,1.0,0.0,453.0,996.0,0.0,0,51.0,1
312,312,-0.8296262878369959,-0.8,1.0,0.0,404.0,787.0,0.0,0,129.0,1
313,313,-0.6831151708860397,-0.7,1.0,0.0,482.0,511.0,0.0,0,1937.0,1
314,314,0.25299511548526843,0.3,1.0,1.0,274.0,510.0,1.0,1,1086.0,1
315,315,0.33696738535485615,0.3,1.0,1.0,363.0,503.0,1.0,1,1124.0,1
316,316,0.5000986678633529,0.5,0.0,0.0,303.0,724.0,0.0,1,343.0,1
317,317,0.7958554367567302,0.8,0.0,0.0,379.0,812.0,0.0,1,219.0,1
318,318,0.05627611043467562,0.1,0.0,0.0,313.0,906.0,1.0,0,1781.0,0
319,319,0.13486548820451005,0.1,1.0,1.0,401.0,510.0,1.0,1,1489.0,1
320,320,-0.5848915568115043,-0.6,0.0,1.0,317.0,959.0,1.0,0,274.0,1
321,321,-0.19265978332561728,-0.2,0.0,1.0,317.0,517.0,1.0,0,596.0,1
322,322,0.006538661746712138,0.0,0.0,0.0,484.0,517.0,0.0,1,1999.0,1
323,323,-0.7235023944759913,-0.7,1.0,0.0,496.0,703.0,0.0,0,1471.0,1
324,324,0.5964984302244961,0.6,0.0,0.0,340.0,682.0,0.0,1,138.0,1
325,325,0.11500655897465306,0.1,1.0,1.0,253.0,524.0,1.0,1,533.0,1
326,326,0.45300776726152436,0.5,0.0,0.0,286.0,617.0,0.0,1,647.0,1
327,327,-0.19949156586890393,-0.2,1.0,0.0,407.0,798.0,0.0,0,1485.0,1
328,328,-0.5269576064032502,-0.5,0.0,1.0,486.0,552.0,1.0,0,252.0,1
329,329,-0.19080510394189032,-0.2,0.0,1.0,430.0,988.0,1.0,0,882.0,1
330,330,0.14616458867835946,0.1,0.0,0.0,405.0,547.0,0.0,1,2048.0,1
331,331,0.6296380723590772,0.6,1.0,1.0,471.0,506.0,1.0,1,413.0,1
332,332,0.0635663985896483,0.1,1.0,1.0,333.0,648.0,1.0,1,219.0,1
333,333,-0.31132565507457177,-0.3,1.0,0.0,289.0,584.0,0.0,0,2127.0,1
334,334,0.7711554631763332,0.8,0.0,0.0,364.0,822.0,0.0,1,374.0,1
335,335,0.7102398703956,0.7,1.0,1.0,458.0,780.0,1.0,1,362.0,1
336,336,-0.34738728910392125,-0.3,1.0,0.0,373.0,591.0,0.0,0,366.0,1
337,337,-0.15768005301038834,-0.2,0.0,1.0,405.0,935.0,1.0,0,920.0,1
338,338,0.4174398286563056,0.4,0.0,0.0,374.0,835.0,0.0,1,1631.0,1
339,339,-0.8702579832226471,-0.9,1.0,0.0,324.0,540.0,0.0,0,196.0,1
340,340,0.051463854687233024,0.1,0.0,0.0,349.0,586.0,0.0,1,2065.0,1
341,341,0.6228628005110336,0.6,0.0,0.0,260.0,880.0,0.0,1,990.0,1
342,342,-0.7846105998629903,-0.8,1.0,0.0,263.0,689.0,0.0,0,418.0,1
343,343,0.497351349617832,0.5,1.0,1.0,280.0,524.0,1.0,1,166.0,1
344,344,0.026335667617534697,0.0,0.0,0.0,456.0,538.0,0.0,1,2006.0,1
345,345,0.6209660681253287,0.6,0.0,0.0,454.0,825.0,0.0,1,341.0,1
346,346,0.2595463332264615,0.3,1.0,1.0,288.0,708.0,1.0,1,424.0,1
347,347,-0.8722900515265638,-0.9,1.0,0.0,346.0,815.0,0.0,0,199.0,1
348,348,0.01266628419154714,0.0,1.0,1.0,284.0,814.0,1.0,1,1902.0,1
349,349,-0.014029517438600925,-0.0,1.0,0.0,370.0,962.0,1.0,1,1668.0,0
350,350,-0.05896606264175763,-0.1,0.0,1.0,252.0,570.0,1.0,0,2178.0,1
351,351,0.548784655055028,0.5,1.0,1.0,394.0,621.0,1.0,1,535.0,1
352,352,-0.21015796760650218,-0.2,1.0,0.0,371.0,800.0,0.0,0,1829.0,1
353,353,0.49450780252917903,0.5,1.0,1.0,439.0,777.0,1.0,1,374.0,1
354,354,-0.5108974244375144,-0.5,1.0,0.0,314.0,739.0,0.0,0,407.0,1
355,355,-0.34916911670784734,-0.3,1.0,0.0,313.0,617.0,0.0,0,1750.0,1
356,356,-0.6137018983180966,-0.6,0.0,1.0,311.0,617.0,1.0,0,642.0,1
357,357,0.7942225209939126,0.8,1.0,1.0,372.0,683.0,1.0,1,165.0,1
358,358,0.8039143149374007,0.8,1.0,1.0,453.0,562.0,1.0,1,235.0,1
359,359,-0.8635991904704022,-0.9,0.0,1.0,462.0,967.0,1.0,0,171.0,1
360,360,0.007697287604147007,0.0,0.0,0.0,354.0,908.0,0.0,1,1738.0,1
361,361,0.5132006713702334,0.5,0.0,0.0,444.0,820.0,0.0,1,486.0,1
362,362,0.7009959463337391,0.7,1.0,1.0,398.0,587.0,1.0,1,295.0,1
363,363,0.15989388650061864,0.2,1.0,1.0,338.0,745.0,1.0,1,917.0,1
364,364,-0.40913308095869844,-0.4,0.0,1.0,393.0,733.0,1.0,0,334.0,1
365,365,0.6680959307589444,0.7,0.0,0.0,436.0,644.0,0.0,1,250.0,1
366,366,-0.7143183858769417,-0.7,1.0,0.0,290.0,884.0,0.0,0,216.0,1
367,367,0.20163391856035406,0.2,0.0,0.0,429.0,689.0,0.0,1,1352.0,1
368,368,0.4540885067967616,0.5,1.0,1.0,474.0,940.0,1.0,1,326.0,1
369,369,-0.1880027007692664,-0.2,1.0,0.0,323.0,874.0,0.0,0,1143.0,1
370,370,-0.2882784476676137,-0.3,1.0,0.0,424.0,671.0,0.0,0,1185.0,1
371,371,0.40790064267817316,0.4,1.0,1.0,351.0,527.0,1.0,1,612.0,1
372,372,0.4839333279467367,0.5,1.0,1.0,293.0,505.0,1.0,1,332.0,1
373,373,0.7579094388717872,0.8,0.0,0.0,281.0,861.0,0.0,1,228.0,1
374,374,0.6866029305922311,0.7,0.0,0.0,481.0,973.0,0.0,1,516.0,1
375,375,0.3418349557566175,0.3,0.0,0.0,357.0,644.0,0.0,1,319.0,1
376,376,0.7418923142653063,0.7,0.0,0.0,434.0,856.0,0.0,1,380.0,1
377,377,0.12425908188200718,0.1,1.0,1.0,410.0,729.0,1.0,1,1051.0,1
378,378,0.05800275517733133,0.1,0.0,0.0,376.0,602.0,0.0,1,2022.0,1
379,379,-0.5017174218882244,-0.5,1.0,0.0,392.0,874.0,0.0,0,664.0,1
380,380,0.19163610347000815,0.2,0.0,0.0,354.0,833.0,0.0,1,1543.0,1
381,381,0.4480118265529923,0.4,1.0,1.0,498.0,608.0,1.0,1,584.0,1
382,382,0.867126124926915,0.9,0.0,0.0,277.0,946.0,0.0,1,-153.0,1
383,383,0.26617194718005,0.3,1.0,1.0,372.0,620.0,1.0,1,348.0,1
384,384,-0.6016500060267065,-0.6,1.0,0.0,364.0,620.0,0.0,0,376.0,1
385,385,-0.7947983388017239,-0.8,1.0,0.0,475.0,745.0,0.0,0,270.0,1
386,386,-0.7148354984097798,-0.7,1.0,0.0,389.0,679.0,0.0,0,82.0,1
387,387,0.5643697380147014,0.6,0.0,0.0,404.0,902.0,0.0,1,454.0,1
388,388,-0.4145297926667147,-0.4,0.0,1.0,255.0,761.0,1.0,0,894.0,1
389,389,0.4019745169913155,0.4,1.0,1.0,403.0,652.0,1.0,1,105.0,1
390,390,-0.08463957477054485,-0.1,0.0,1.0,333.0,708.0,1.0,0,1959.0,1
391,391,0.07021016238474742,0.1,1.0,1.0,439.0,640.0,1.0,1,701.0,1
392,392,-0.6947147053894759,-0.7,0.0,1.0,433.0,523.0,1.0,0,484.0,1
393,393,-0.87137174502873,-0.9,0.0,1.0,495.0,798.0,1.0,0,497.0,1
394,394,-0.48873374066740977,-0.5,1.0,0.0,322.0,940.0,0.0,0,208.0,1
395,395,0.44996972123597845,0.4,0.0,0.0,492.0,647.0,0.0,1,251.0,1
396,396,-0.14710865303037568,-0.1,1.0,0.0,462.0,699.0,0.0,0,1839.0,1
397,397,0.7712769109500485,0.8,1.0,1.0,251.0,515.0,1.0,1,274.0,1
398,398,0.43092012054771633,0.4,1.0,1.0,334.0,660.0,1.0,1,136.0,1
399,399,0.40711001553255455,0.4,0.0,0.0,466.0,985.0,0.0,1,289.0,1
400,400,0.37691813912457095,0.4,1.0,1.0,327.0,924.0,1.0,1,239.0,1
401,401,0.7099638034304944,0.7,0.0,0.0,367.0,672.0,0.0,1,521.0,1
402,402,0.384298441410014,0.4,1.0,1.0,285.0,953.0,1.0,1,192.0,1
403,403,-0.1779740829789186,-0.2,0.0,1.0,268.0,562.0,1.0,0,1180.0,1
404,404,-0.24035801798693068,-0.2,0.0,1.0,304.0,667.0,1.0,0,449.0,1
405,405,0.16715334069110976,0.2,0.0,0.0,480.0,513.0,0.0,1,2007.0,1
406,406,-0.23456473187507088,-0.2,0.0,1.0,330.0,911.0,1.0,0,1269.0,1
407,407,0.10143737609577974,0.1,1.0,1.0,317.0,679.0,1.0,1,914.0,1
408,408,0.009181316699083175,0.0,1.0,1.0,322.0,970.0,1.0,1,328.0,1
409,409,0.6704153432680765,0.7,1.0,1.0,414.0,615.0,1.0,1,111.0,1
410,410,-0.4711256216216047,-0.5,1.0,0.0,360.0,907.0,0.0,0,1223.0,1
411,411,0.20552121004696267,0.2,1.0,1.0,349.0,760.0,1.0,1,121.0,1
412,412,-0.8366438462218341,-0.8,1.0,0.0,467.0,598.0,0.0,0,165.0,1
413,413,-0.14315126369966624,-0.1,1.0,0.0,309.0,502.0,0.0,0,2189.0,1
414,414,0.1151400662885157,0.1,1.0,1.0,302.0,883.0,1.0,1,1775.0,1
415,415,-0.8998728183552236,-0.9,1.0,0.0,494.0,789.0,0.0,0,157.0,1
416,416,0.1330668242125338,0.1,0.0,0.0,345.0,561.0,1.0,0,24.0,0
417,417,-0.5218210215767871,-0.5,0.0,1.0,481.0,578.0,1.0,0,241.0,1
418,418,-0.613203638356149,-0.6,0.0,1.0,315.0,506.0,1.0,0,509.0,1
419,419,-0.43589386408342673,-0.4,1.0,0.0,390.0,742.0,0.0,0,508.0,1
420,420,0.48211706561099155,0.5,0.0,0.0,317.0,573.0,0.0,1,420.0,1
421,421,0.7530582298863179,0.8,1.0,1.0,330.0,589.0,1.0,1,101.0,1
422,422,-0.0576371056977425,-0.1,0.0,1.0,422.0,656.0,1.0,0,842.0,1
423,423,-0.6139960428491547,-0.6,0.0,1.0,324.0,525.0,1.0,0,121.0,1
424,424,-0.19580039061800714,-0.2,0.0,1.0,469.0,939.0,1.0,0,762.0,1
425,425,0.6637719665642988,0.7,0.0,0.0,376.0,550.0,0.0,1,1374.0,1
426,426,0.480849295486549,0.5,1.0,1.0,487.0,982.0,1.0,1,261.0,1
427,427,0.37708473182521807,0.4,1.0,1.0,473.0,863.0,1.0,1,204.0,1
428,428,-0.7047447926277765,-0.7,1.0,0.0,444.0,926.0,0.0,0,350.0,1
429,429,0.3035602523647908,0.3,0.0,0.0,464.0,594.0,0.0,1,382.0,1
430,430,0.1497415854680878,0.1,1.0,1.0,261.0,631.0,1.0,1,1708.0,1
431,431,-0.767793907698959,-0.8,0.0,1.0,276.0,577.0,1.0,0,177.0,1
432,432,-0.3367501087888496,-0.3,0.0,1.0,414.0,792.0,1.0,0,824.0,1
433,433,-0.11721435784892975,-0.1,0.0,1.0,293.0,665.0,1.0,0,2042.0,1
434,434,-0.7678813539032133,-0.8,1.0,0.0,451.0,638.0,0.0,0,361.0,1
435,435,0.7659924464822953,0.8,0.0,0.0,289.0,861.0,0.0,1,400.0,1
436,436,0.7162541694408892,0.7,1.0,1.0,284.0,661.0,1.0,1,125.0,1
437,437,-0.28667560898575895,-0.3,1.0,0.0,466.0,917.0,0.0,0,477.0,1
438,438,-0.6370782859172822,-0.6,1.0,0.0,444.0,675.0,0.0,0,171.0,1
439,439,-0.4527306642610077,-0.5,1.0,0.0,381.0,556.0,0.0,0,583.0,1
440,440,-0.8249856156391584,-0.8,0.0,1.0,280.0,970.0,1.0,0,420.0,1
441,441,-0.3907057529659864,-0.4,0.0,1.0,491.0,510.0,1.0,0,1279.0,1
442,442,-0.6414871338034668,-0.6,1.0,0.0,377.0,760.0,0.0,0,943.0,1
443,443,-0.3278247512122052,-0.3,1.0,0.0,444.0,945.0,0.0,0,751.0,1
444,444,0.7848364347514775,0.8,0.0,0.0,379.0,570.0,0.0,1,271.0,1
445,445,-0.4774945328989838,-0.5,1.0,0.0,308.0,814.0,0.0,0,248.0,1
446,446,-0.7278289010137704,-0.7,1.0,0.0,458.0,666.0,0.0,0,296.0,1
447,447,0.557987643200437,0.6,1.0,1.0,334.0,708.0,1.0,1,-122.0,1
448,448,-0.3099095611923023,-0.3,0.0,1.0,350.0,529.0,1.0,0,241.0,1
449,449,0.1350703272395012,0.1,0.0,0.0,412.0,600.0,0.0,1,1988.0,1
450,450,-0.8075992549983982,-0.8,1.0,0.0,341.0,892.0,0.0,0,387.0,1
451,451,0.27621796757516714,0.3,0.0,0.0,385.0,501.0,0.0,1,984.0,1
452,452,-0.6796717364675114,-0.7,1.0,0.0,323.0,650.0,0.0,0,297.0,1
453,453,-0.2955216351099712,-0.3,0.0,1.0,363.0,634.0,1.0,0,413.0,1
454,454,-0.2403494822971597,-0.2,0.0,1.0,256.0,604.0,1.0,0,650.0,1
455,455,0.4529041198824214,0.5,1.0,1.0,464.0,869.0,1.0,1,247.0,1
456,456,-0.10564916668823188,-0.1,0.0,1.0,282.0,594.0,1.0,0,324.0,1
457,457,-0.5079770922875827,-0.5,1.0,0.0,331.0,945.0,0.0,0,404.0,1
458,458,0.4031365912124102,0.4,0.0,0.0,290.0,952.0,0.0,1,168.0,1
459,459,-0.8501077595278496,-0.9,1.0,0.0,298.0,731.0,0.0,0,311.0,1
460,460,0.516411954016118,0.5,0.0,0.0,446.0,657.0,0.0,1,897.0,1
461,461,-0.6880269903766285,-0.7,1.0,0.0,362.0,937.0,0.0,0,161.0,1
462,462,-0.7290220790913413,-0.7,0.0,1.0,326.0,761.0,1.0,0,353.0,1
463,463,0.6835848454659684,0.7,1.0,1.0,330.0,889.0,1.0,1,221.0,1
464,464,0.1264626788483164,0.1,0.0,0.0,409.0,568.0,0.0,1,2023.0,1
465,465,0.8404727151975445,0.8,1.0,1.0,451.0,976.0,1.0,1,173.0,1
466,466,-0.5421428909797154,-0.5,0.0,1.0,292.0,783.0,1.0,0,485.0,1
467,467,-0.2898425129229083,-0.3,0.0,1.0,403.0,503.0,1.0,0,924.0,1
468,468,0.7371507681312114,0.7,0.0,0.0,310.0,754.0,0.0,1,406.0,1
469,469,-0.8927197681895952,-0.9,1.0,0.0,262.0,959.0,0.0,0,109.0,1
470,470,-0.5798038634376501,-0.6,0.0,1.0,268.0,736.0,1.0,0,436.0,1
471,471,-0.3104812929390952,-0.3,0.0,1.0,413.0,922.0,1.0,0,385.0,1
472,472,-0.5179526156094572,-0.5,1.0,0.0,359.0,918.0,0.0,0,743.0,1
473,473,0.40627703123578496,0.4,0.0,0.0,481.0,878.0,0.0,1,481.0,1
474,474,0.8200436733667936,0.8,0.0,0.0,375.0,565.0,0.0,1,310.0,1
475,475,0.2343596459029892,0.2,1.0,1.0,470.0,503.0,1.0,1,1517.0,1
476,476,-0.5386597273258414,-0.5,0.0,1.0,357.0,592.0,1.0,0,411.0,1
477,477,0.8690520640424112,0.9,0.0,0.0,403.0,794.0,0.0,1,213.0,1
478,478,-0.6331397520541555,-0.6,1.0,0.0,402.0,896.0,0.0,0,662.0,1
479,479,-0.05346367293968868,-0.1,0.0,1.0,314.0,896.0,1.0,0,1790.0,1
480,480,0.8633133871982849,0.9,0.0,0.0,406.0,765.0,0.0,1,359.0,1
481,481,0.8703024296039538,0.9,1.0,1.0,443.0,601.0,1.0,1,366.0,1
482,482,0.18425090246103293,0.2,0.0,0.0,285.0,825.0,0.0,1,1700.0,1
483,483,0.15740614437543032,0.2,0.0,0.0,299.0,922.0,0.0,1,1779.0,1
484,484,0.5835962584599347,0.6,1.0,1.0,335.0,556.0,1.0,1,179.0,1
485,485,-0.5996335524695398,-0.6,1.0,0.0,286.0,989.0,0.0,0,175.0,1
486,486,-0.5093709072136785,-0.5,0.0,1.0,365.0,648.0,1.0,0,307.0,1
487,487,-0.3664321155698138,-0.4,1.0,0.0,293.0,806.0,0.0,0,921.0,1
488,488,0.6623352207742005,0.7,1.0,1.0,400.0,927.0,1.0,1,363.0,1
489,489,-0.07583173392835463,-0.1,1.0,0.0,414.0,551.0,1.0,1,2035.0,0
490,490,0.20173336404906583,0.2,0.0,0.0,260.0,930.0,0.0,1,660.0,1
491,491,-0.40332554422688754,-0.4,1.0,0.0,272.0,582.0,0.0,0,336.0,1
492,492,0.268420867781756,0.3,1.0,1.0,328.0,897.0,1.0,1,845.0,1
493,493,-0.3429622969514484,-0.3,1.0,0.0,447.0,920.0,0.0,0,273.0,1
494,494,-0.49420226626552244,-0.5,1.0,0.0,288.0,953.0,1.0,1,-81.0,0
495,495,-0.5512346479242998,-0.6,0.0,1.0,261.0,569.0,1.0,0,270.0,1
496,496,-0.6359938471923141,-0.6,0.0,1.0,476.0,524.0,1.0,0,650.0,1
497,497,0.26217524237581,0.3,1.0,1.0,292.0,979.0,1.0,1,249.0,1
498,498,-0.36740821417403025,-0.4,0.0,1.0,497.0,824.0,1.0,0,719.0,1
499,499,-0.7758212187883001,-0.8,1.0,0.0,294.0,781.0,0.0,0,645.0,1
500,500,-0.31834966115404073,-0.3,0.0,1.0,390.0,682.0,1.0,0,748.0,1
501,501,0.7935638750149724,0.8,1.0,1.0,461.0,980.0,1.0,1,109.0,1
502,502,0.7918009302980221,0.8,0.0,0.0,353.0,834.0,0.0,1,233.0,1
503,503,-0.3967550265562273,-0.4,1.0,0.0,261.0,753.0,0.0,0,436.0,1
504,504,0.08421637539607618,0.1,0.0,0.0,484.0,634.0,0.0,1,1882.0,1
505,505,0.29334624164354184,0.3,0.0,0.0,409.0,797.0,0.0,1,1694.0,1
506,506,0.5597769749444731,0.6,0.0,0.0,341.0,511.0,0.0,1,428.0,1
507,507,0.7144786405030338,0.7,0.0,0.0,366.0,647.0,0.0,1,387.0,1
508,508,0.8737652510449537,0.9,1.0,1.0,386.0,816.0,1.0,1,-322.0,1
509,509,0.4182655897202928,0.4,0.0,0.0,429.0,692.0,0.0,1,479.0,1
510,510,0.3766530134185916,0.4,0.0,0.0,372.0,903.0,0.0,1,595.0,1
511,511,0.46990357092129986,0.5,1.0,1.0,285.0,543.0,1.0,1,652.0,1
512,512,-0.4679706107897952,-0.5,1.0,0.0,372.0,998.0,0.0,0,900.0,1
513,513,0.21009551289231287,0.2,1.0,1.0,434.0,732.0,1.0,1,64.0,1
514,514,0.10732803686526082,0.1,0.0,0.0,326.0,943.0,0.0,1,1461.0,1
515,515,-0.34335571408108023,-0.3,1.0,0.0,265.0,912.0,0.0,0,1263.0,1
516,516,-0.761338608970396,-0.8,1.0,0.0,268.0,761.0,0.0,0,81.0,1
517,517,0.4364430271419041,0.4,0.0,0.0,424.0,764.0,0.0,1,792.0,1
518,518,0.1962658021149123,0.2,1.0,1.0,381.0,567.0,1.0,1,912.0,1
519,519,0.603135519675437,0.6,0.0,0.0,282.0,836.0,0.0,1,1172.0,1
520,520,-0.28703788008371667,-0.3,1.0,0.0,260.0,706.0,0.0,0,1274.0,1
521,521,0.47263138162293916,0.5,1.0,1.0,444.0,520.0,1.0,1,876.0,1
522,522,-0.24322013996006697,-0.2,1.0,0.0,386.0,527.0,0.0,0,707.0,1
523,523,-0.667646703251816,-0.7,0.0,1.0,270.0,898.0,1.0,0,342.0,1
524,524,0.8212503551477938,0.8,0.0,0.0,257.0,971.0,0.0,1,912.0,1
525,525,-0.7287505776067292,-0.7,0.0,1.0,313.0,728.0,1.0,0,279.0,1
526,526,0.21189945031338142,0.2,0.0,0.0,476.0,778.0,0.0,1,1066.0,1
527,527,0.7233235390581149,0.7,0.0,0.0,450.0,709.0,0.0,1,381.0,1
528,528,0.24204052156627942,0.2,1.0,1.0,259.0,788.0,1.0,1,183.0,1
529,529,-0.8312043394470742,-0.8,0.0,1.0,391.0,843.0,1.0,0,246.0,1
530,530,0.40696982717707064,0.4,0.0,0.0,334.0,775.0,0.0,1,1441.0,1
531,531,-0.4696014333027812,-0.5,0.0,1.0,308.0,932.0,1.0,0,360.0,1
532,532,0.20779991235982254,0.2,1.0,1.0,471.0,709.0,1.0,1,1740.0,1
533,533,-0.12533619776846416,-0.1,1.0,0.0,478.0,500.0,0.0,0,2022.0,1
534,534,-0.17312992825673124,-0.2,0.0,1.0,422.0,582.0,1.0,0,766.0,1
535,535,-0.7205179537876591,-0.7,0.0,1.0,264.0,801.0,1.0,0,445.0,1
536,536,0.13976666976604302,0.1,0.0,0.0,254.0,929.0,0.0,1,1817.0,1
537,537,0.8488160802682329,0.8,0.0,0.0,250.0,935.0,0.0,1,155.0,1
538,538,0.32623773601107253,0.3,1.0,1.0,468.0,994.0,1.0,1,468.0,1
539,539,0.45999057862793047,0.5,1.0,1.0,306.0,757.0,1.0,1,517.0,1
540,540,0.35071189762636845,0.4,0.0,0.0,412.0,604.0,0.0,1,734.0,1
541,541,0.8495011171758956,0.8,0.0,0.0,433.0,787.0,0.0,1,170.0,1
542,542,0.5060714439587496,0.5,0.0,0.0,279.0,896.0,0.0,1,455.0,1
543,543,-0.7835811726324234,-0.8,1.0,0.0,298.0,862.0,0.0,0,250.0,1
544,544,-0.37038530673534575,-0.4,1.0,0.0,393.0,990.0,0.0,0,1617.0,1
545,545,0.41252795721381774,0.4,0.0,0.0,350.0,718.0,0.0,1,732.0,1
546,546,0.4559717355053915,0.5,0.0,0.0,430.0,846.0,0.0,1,664.0,1
547,547,0.8475914418562341,0.8,1.0,1.0,251.0,946.0,1.0,1,83.0,1
548,548,-0.7537860822579181,-0.8,0.0,1.0,351.0,918.0,1.0,0,351.0,1
549,549,-0.7696667978270862,-0.8,1.0,0.0,302.0,985.0,0.0,0,183.0,1
550,550,-0.37416878665345954,-0.4,1.0,0.0,423.0,833.0,0.0,0,1214.0,1
551,551,0.17595859310563122,0.2,1.0,1.0,474.0,885.0,1.0,1,1641.0,1
552,552,0.6874355029130405,0.7,0.0,0.0,462.0,947.0,0.0,1,161.0,1
553,553,-0.6402476496190039,-0.6,1.0,0.0,422.0,915.0,0.0,0,393.0,1
554,554,-0.6522486058955308,-0.7,1.0,0.0,442.0,584.0,0.0,0,314.0,1
555,555,0.5388181916803573,0.5,0.0,0.0,401.0,941.0,0.0,1,258.0,1
556,556,-0.3185913023755632,-0.3,0.0,1.0,257.0,939.0,1.0,0,164.0,1
557,557,-0.059566184951997836,-0.1,1.0,0.0,314.0,595.0,0.0,0,2091.0,1
558,558,0.40431543589636487,0.4,1.0,1.0,319.0,790.0,1.0,1,951.0,1
559,559,-0.3835974983086735,-0.4,0.0,1.0,324.0,972.0,1.0,0,784.0,1
560,560,-0.6657120464055125,-0.7,0.0,1.0,447.0,899.0,1.0,0,94.0,1
561,561,0.6531714282193565,0.7,0.0,0.0,390.0,516.0,0.0,1,334.0,1
562,562,0.1981435600696121,0.2,1.0,1.0,428.0,566.0,1.0,1,726.0,1
563,563,0.8179057943166251,0.8,1.0,1.0,294.0,645.0,1.0,1,181.0,1
564,564,-0.02864196465075164,-0.0,0.0,1.0,261.0,688.0,0.0,1,2051.0,0
565,565,-0.3402712639036627,-0.3,1.0,0.0,400.0,705.0,0.0,0,825.0,1
566,566,0.2798385309164978,0.3,0.0,0.0,276.0,756.0,0.0,1,378.0,1
567,567,-0.20887656954342926,-0.2,0.0,1.0,295.0,668.0,1.0,0,697.0,1
568,568,-0.1786293597035873,-0.2,1.0,0.0,408.0,890.0,0.0,0,422.0,1
569,569,0.5786757074825702,0.6,1.0,1.0,308.0,628.0,1.0,1,224.0,1
570,570,0.519016927161409,0.5,1.0,1.0,272.0,509.0,1.0,1,709.0,1
571,571,0.4929674810152195,0.5,0.0,0.0,412.0,511.0,0.0,1,817.0,1
572,572,-0.7777334771248277,-0.8,1.0,0.0,311.0,897.0,0.0,0,152.0,1
573,573,0.43279534651058416,0.4,1.0,1.0,363.0,997.0,1.0,1,190.0,1
574,574,-0.45352894983469605,-0.5,1.0,0.0,452.0,781.0,0.0,0,457.0,1
575,575,-0.6025628740236915,-0.6,1.0,0.0,316.0,920.0,0.0,0,404.0,1
576,576,-0.38790883865059944,-0.4,0.0,1.0,473.0,771.0,1.0,0,406.0,1
577,577,0.3959709012427969,0.4,1.0,1.0,481.0,548.0,1.0,1,651.0,1
578,578,-0.38583028004746145,-0.4,0.0,1.0,254.0,637.0,1.0,0,219.0,1
579,579,0.6082433723891482,0.6,1.0,1.0,443.0,989.0,1.0,1,168.0,1
580,580,0.10569843638751897,0.1,1.0,1.0,312.0,576.0,1.0,1,2112.0,1
581,581,0.26819630675262063,0.3,1.0,1.0,450.0,857.0,1.0,1,553.0,1
582,582,-0.0005592520273848267,-0.0,0.0,1.0,317.0,828.0,0.0,1,1855.0,0
583,583,-0.2676218638331217,-0.3,1.0,0.0,349.0,670.0,0.0,0,551.0,1
584,584,-0.6676714660395707,-0.7,1.0,0.0,433.0,513.0,0.0,0,234.0,1
585,585,-0.28552023298435025,-0.3,0.0,1.0,267.0,603.0,1.0,0,520.0,1
586,586,-0.044956282356911625,-0.0,1.0,0.0,469.0,748.0,0.0,0,1783.0,1
587,587,-0.15118513428639824,-0.2,1.0,0.0,495.0,598.0,1.0,1,1367.0,0
588,588,-0.4614763473740466,-0.5,0.0,1.0,272.0,679.0,1.0,0,559.0,1
589,589,-0.29643445738115526,-0.3,0.0,1.0,483.0,639.0,1.0,0,468.0,1
590,590,0.8886966498288064,0.9,0.0,0.0,259.0,953.0,0.0,1,248.0,1
591,591,-0.13426261611662205,-0.1,0.0,1.0,296.0,858.0,1.0,0,336.0,1
592,592,-0.47462483443951176,-0.5,0.0,1.0,296.0,886.0,1.0,0,198.0,1
593,593,-0.8075710075017682,-0.8,0.0,1.0,313.0,839.0,1.0,0,308.0,1
594,594,-0.5163159067499077,-0.5,0.0,1.0,359.0,694.0,1.0,0,637.0,1
595,595,0.016483341959042552,0.0,1.0,1.0,329.0,935.0,1.0,1,1736.0,1
596,596,0.3359214303269925,0.3,0.0,0.0,392.0,761.0,0.0,1,597.0,1
597,597,0.25287574109410904,0.3,0.0,0.0,356.0,754.0,0.0,1,1400.0,1
598,598,0.3871577744356224,0.4,1.0,1.0,461.0,996.0,1.0,1,613.0,1
599,599,-0.6945082936515797,-0.7,1.0,0.0,333.0,696.0,0.0,0,-49.0,1
600,600,0.2121091385654753,0.2,0.0,0.0,298.0,779.0,0.0,1,1143.0,1
601,601,-0.04782003691197578,-0.0,1.0,0.0,292.0,804.0,1.0,1,1904.0,0
602,602,-0.30318926334260654,-0.3,1.0,0.0,308.0,683.0,0.0,0,1249.0,1
603,603,0.32704944673631,0.3,0.0,0.0,290.0,686.0,0.0,1,544.0,1
604,604,0.09663007264945045,0.1,1.0,1.0,451.0,921.0,1.0,1,778.0,1
605,605,0.7353168826164179,0.7,1.0,1.0,353.0,575.0,1.0,1,372.0,1
606,606,-0.4024016076565642,-0.4,1.0,0.0,264.0,554.0,0.0,0,512.0,1
607,607,-0.18106947794083772,-0.2,1.0,0.0,433.0,784.0,0.0,0,1783.0,1
608,608,-0.5922724536335369,-0.6,0.0,1.0,447.0,860.0,1.0,0,803.0,1
609,609,0.89253051696225,0.9,1.0,1.0,473.0,895.0,1.0,1,272.0,1
610,610,0.6710229733440131,0.7,1.0,1.0,374.0,781.0,1.0,1,245.0,1
611,611,0.02777939646708827,0.0,1.0,1.0,379.0,888.0,1.0,1,1553.0,1
612,612,-0.8729965136691965,-0.9,0.0,1.0,270.0,836.0,1.0,0,514.0,1
613,613,0.6934387549643565,0.7,1.0,1.0,489.0,857.0,1.0,1,334.0,1
614,614,0.4585091999356813,0.5,1.0,1.0,268.0,932.0,1.0,1,70.0,1
615,615,-0.3828725660850487,-0.4,0.0,1.0,375.0,579.0,1.0,0,246.0,1
616,616,0.3575596875869206,0.4,0.0,0.0,440.0,598.0,0.0,1,1402.0,1
617,617,-0.8085852945534583,-0.8,0.0,1.0,293.0,659.0,1.0,0,378.0,1
618,618,0.2308974834183416,0.2,0.0,0.0,460.0,725.0,0.0,1,1815.0,1
619,619,-0.6582311027025362,-0.7,0.0,1.0,349.0,808.0,1.0,0,413.0,1
620,620,-0.13853769952442485,-0.1,1.0,0.0,436.0,794.0,1.0,1,1770.0,0
621,621,-0.6674905042342183,-0.7,0.0,1.0,282.0,538.0,1.0,0,320.0,1
622,622,0.4807622911128492,0.5,0.0,0.0,342.0,827.0,0.0,1,861.0,1
623,623,0.3009497702519751,0.3,1.0,1.0,488.0,580.0,1.0,1,592.0,1
624,624,0.8170583918074862,0.8,0.0,0.0,403.0,793.0,0.0,1,194.0,1
625,625,0.43269314339667,0.4,1.0,1.0,332.0,882.0,1.0,1,126.0,1
626,626,-0.7931457635216219,-0.8,1.0,0.0,327.0,829.0,0.0,0,314.0,1
627,627,0.8269863251254327,0.8,0.0,0.0,302.0,933.0,0.0,1,465.0,1
628,628,0.37701624354386076,0.4,1.0,1.0,377.0,692.0,1.0,1,291.0,1
629,629,0.8980518190881214,0.9,1.0,1.0,448.0,603.0,1.0,1,219.0,1
630,630,-0.7941863455945736,-0.8,0.0,1.0,412.0,682.0,1.0,0,496.0,1
631,631,-0.4969157070905689,-0.5,1.0,0.0,460.0,837.0,0.0,0,253.0,1
632,632,-0.7436298986246856,-0.7,1.0,0.0,413.0,777.0,0.0,0,250.0,1
633,633,0.2785175042960425,0.3,0.0,0.0,357.0,729.0,0.0,1,714.0,1
634,634,-0.8042546119806906,-0.8,0.0,1.0,307.0,828.0,1.0,0,355.0,1
635,635,0.23579837780694268,0.2,0.0,0.0,253.0,781.0,0.0,1,896.0,1
636,636,-0.25095628707880147,-0.3,1.0,0.0,441.0,593.0,0.0,0,726.0,1
637,637,-0.3727697725544754,-0.4,0.0,1.0,455.0,587.0,1.0,0,1328.0,1
638,638,0.32730728450368585,0.3,1.0,1.0,363.0,688.0,1.0,1,439.0,1
639,639,0.42910541227480803,0.4,0.0,0.0,367.0,826.0,0.0,1,1317.0,1
640,640,0.6770670516019818,0.7,1.0,1.0,371.0,802.0,1.0,1,147.0,1
641,641,0.7332151902328977,0.7,1.0,1.0,381.0,756.0,1.0,1,153.0,1
642,642,0.8246023319669372,0.8,0.0,0.0,320.0,971.0,0.0,1,159.0,1
643,643,0.3674965940823457,0.4,0.0,0.0,263.0,916.0,0.0,1,771.0,1
644,644,-0.5629878397716135,-0.6,0.0,1.0,426.0,990.0,0.0,1,-326.0,0
645,645,-0.6849440063870357,-0.7,0.0,1.0,262.0,545.0,1.0,0,353.0,1
646,646,0.2806903510337947,0.3,1.0,1.0,458.0,924.0,1.0,1,348.0,1
647,647,-0.44249484282065726,-0.4,1.0,0.0,341.0,740.0,0.0,0,639.0,1
648,648,0.6773909765488159,0.7,1.0,1.0,318.0,881.0,1.0,1,101.0,1
649,649,-0.6736501476961381,-0.7,1.0,0.0,452.0,561.0,0.0,0,587.0,1
650,650,-0.09918344291432468,-0.1,1.0,0.0,408.0,750.0,0.0,0,502.0,1
651,651,-0.826787867546109,-0.8,1.0,0.0,459.0,595.0,0.0,0,356.0,1
652,652,-0.6211418647236018,-0.6,0.0,1.0,408.0,687.0,1.0,0,325.0,1
653,653,-0.07627229385029022,-0.1,1.0,0.0,401.0,714.0,0.0,0,1755.0,1
654,654,0.42477369432991485,0.4,0.0,0.0,410.0,948.0,0.0,1,592.0,1
655,655,-0.6839531677669205,-0.7,0.0,1.0,339.0,756.0,1.0,0,215.0,1
656,656,0.5069295991072676,0.5,1.0,1.0,480.0,998.0,1.0,1,322.0,1
657,657,0.18536930061004575,0.2,0.0,0.0,449.0,862.0,0.0,1,739.0,1
658,658,0.21731758907921883,0.2,1.0,1.0,284.0,849.0,1.0,1,357.0,1
659,659,0.6796181350548368,0.7,0.0,0.0,300.0,852.0,0.0,1,258.0,1
660,660,0.7534802964739812,0.8,0.0,0.0,463.0,757.0,0.0,1,920.0,1
661,661,-0.10676768626146549,-0.1,1.0,0.0,427.0,557.0,0.0,0,1276.0,1
662,662,0.18590883955804294,0.2,0.0,0.0,327.0,846.0,0.0,1,547.0,1
663,663,0.8680507444907654,0.9,1.0,1.0,256.0,544.0,1.0,1,300.0,1
664,664,-0.7474662869713052,-0.7,0.0,1.0,343.0,779.0,1.0,0,518.0,1
665,665,-0.27345173272943,-0.3,1.0,0.0,259.0,868.0,0.0,0,1513.0,1
666,666,0.18543547786562586,0.2,0.0,0.0,290.0,568.0,0.0,1,2142.0,1
667,667,-0.5631177046414161,-0.6,0.0,1.0,322.0,674.0,1.0,0,364.0,1
668,668,0.7563421625188044,0.8,1.0,1.0,470.0,668.0,1.0,1,142.0,1
669,669,-0.4502295020534879,-0.5,1.0,0.0,327.0,788.0,0.0,0,365.0,1
670,670,0.8163379741892159,0.8,0.0,0.0,255.0,605.0,0.0,1,310.0,1
671,671,-0.7508363075253978,-0.8,0.0,1.0,400.0,998.0,1.0,0,262.0,1
672,672,0.04566600456503711,0.0,0.0,0.0,377.0,624.0,1.0,0,1999.0,0
673,673,0.45865838292830075,0.5,0.0,0.0,432.0,633.0,0.0,1,385.0,1
674,674,0.6856480724817898,0.7,0.0,0.0,310.0,556.0,0.0,1,934.0,1
675,675,-0.12555300330875085,-0.1,1.0,0.0,336.0,803.0,0.0,0,1861.0,1
676,676,0.868212868467071,0.9,0.0,0.0,376.0,615.0,0.0,1,819.0,1
677,677,-0.3717248877648678,-0.4,0.0,1.0,343.0,528.0,1.0,0,429.0,1
678,678,0.3181971391874482,0.3,1.0,1.0,302.0,607.0,1.0,1,641.0,1
679,679,0.047498050117543156,0.0,0.0,0.0,472.0,582.0,0.0,1,1946.0,1
680,680,-0.8352105707339208,-0.8,0.0,1.0,309.0,771.0,1.0,0,500.0,1
681,681,0.4508931110533153,0.5,0.0,0.0,415.0,971.0,0.0,1,764.0,1
682,682,0.23735384428451523,0.2,1.0,1.0,296.0,759.0,1.0,1,-115.0,1
683,683,-0.8890494770021924,-0.9,0.0,1.0,407.0,574.0,1.0,0,339.0,1
684,684,-0.47503483368704674,-0.5,1.0,0.0,251.0,948.0,0.0,0,931.0,1
685,685,-0.6830866988262071,-0.7,0.0,1.0,391.0,668.0,1.0,0,361.0,1
686,686,0.226149284403243,0.2,0.0,0.0,430.0,780.0,0.0,1,1010.0,1
687,687,0.2362869222173517,0.2,1.0,1.0,486.0,875.0,1.0,1,619.0,1
688,688,0.49467566166912535,0.5,1.0,1.0,341.0,660.0,1.0,1,269.0,1
689,689,0.6062624663402091,0.6,0.0,0.0,381.0,721.0,0.0,1,548.0,1
690,690,0.12416186846669774,0.1,0.0,0.0,368.0,918.0,0.0,1,1714.0,1
691,691,0.378305642919908,0.4,1.0,1.0,355.0,608.0,1.0,1,397.0,1
692,692,0.04480230715969957,0.0,0.0,0.0,496.0,534.0,0.0,1,1970.0,1
693,693,0.8900556069054616,0.9,1.0,1.0,423.0,559.0,1.0,1,148.0,1
694,694,0.5714096760997674,0.6,0.0,0.0,435.0,848.0,0.0,1,217.0,1
695,695,-0.5319274073169828,-0.5,1.0,0.0,313.0,584.0,0.0,0,283.0,1
696,696,0.5147797865523541,0.5,1.0,1.0,330.0,557.0,1.0,1,403.0,1
697,697,-0.3422341266639878,-0.3,0.0,1.0,413.0,672.0,1.0,0,645.0,1
698,698,0.5657852589052249,0.6,1.0,1.0,442.0,944.0,1.0,1,224.0,1
699,699,-0.6208383774319353,-0.6,1.0,0.0,497.0,702.0,0.0,0,281.0,1
700,700,-0.24592610966991957,-0.2,0.0,1.0,264.0,906.0,1.0,0,560.0,1
701,701,-0.6068893712709005,-0.6,0.0,1.0,492.0,767.0,1.0,0,441.0,1
702,702,0.23426228372945623,0.2,0.0,0.0,323.0,782.0,0.0,1,1895.0,1
703,703,-0.7285397359420509,-0.7,0.0,1.0,433.0,512.0,1.0,0,715.0,1
704,704,-0.38664800062824844,-0.4,0.0,1.0,395.0,674.0,1.0,0,701.0,1
705,705,-0.325147099630811,-0.3,0.0,1.0,250.0,917.0,1.0,0,803.0,1
706,706,0.798995650169482,0.8,0.0,0.0,462.0,546.0,0.0,1,762.0,1
707,707,0.8436355233605844,0.8,0.0,0.0,383.0,534.0,0.0,1,333.0,1
708,708,0.8356251569420642,0.8,1.0,1.0,296.0,880.0,1.0,1,104.0,1
709,709,-0.15335995850213435,-0.2,1.0,0.0,474.0,955.0,0.0,0,1571.0,1
710,710,0.47782835228621157,0.5,1.0,1.0,287.0,625.0,1.0,1,678.0,1
711,711,0.1596669611508389,0.2,1.0,1.0,353.0,757.0,1.0,1,1330.0,1
712,712,0.8417336802963907,0.8,0.0,0.0,296.0,990.0,0.0,1,734.0,1
713,713,-0.4400798281817721,-0.4,0.0,1.0,433.0,617.0,1.0,0,280.0,1
714,714,-0.32287741865218267,-0.3,1.0,0.0,392.0,853.0,0.0,0,455.0,1
715,715,-0.5303937861097014,-0.5,1.0,0.0,367.0,566.0,0.0,0,427.0,1
716,716,-0.43312107668904704,-0.4,0.0,1.0,485.0,810.0,1.0,0,615.0,1
717,717,0.6662327951858408,0.7,0.0,0.0,492.0,944.0,0.0,1,424.0,1
718,718,0.4018441827081055,0.4,1.0,1.0,373.0,634.0,1.0,1,253.0,1
719,719,-0.20303595935622487,-0.2,0.0,1.0,382.0,963.0,1.0,0,525.0,1
720,720,-0.06073807072919368,-0.1,1.0,0.0,306.0,959.0,1.0,1,-225.0,0
721,721,0.05284166636283616,0.1,1.0,1.0,411.0,797.0,1.0,1,1512.0,1
722,722,0.5203924424929106,0.5,0.0,0.0,271.0,841.0,0.0,1,178.0,1
723,723,0.8808065478574344,0.9,0.0,0.0,356.0,760.0,0.0,1,274.0,1
724,724,0.3003322393350797,0.3,1.0,1.0,423.0,813.0,1.0,1,174.0,1
725,725,-0.7803084232499222,-0.8,0.0,1.0,476.0,884.0,1.0,0,350.0,1
726,726,-0.4734262521501544,-0.5,1.0,0.0,457.0,676.0,0.0,0,337.0,1
727,727,-0.6083808198846692,-0.6,1.0,0.0,346.0,669.0,0.0,0,735.0,1
728,728,-0.4910701728863633,-0.5,0.0,1.0,360.0,825.0,1.0,0,945.0,1
729,729,-0.4600456342641273,-0.5,0.0,1.0,274.0,630.0,1.0,0,586.0,1
730,730,0.2472762187016181,0.2,0.0,0.0,352.0,558.0,0.0,1,1150.0,1
731,731,0.3331162222043521,0.3,1.0,1.0,492.0,637.0,1.0,1,451.0,1
732,732,-0.7719188673677535,-0.8,0.0,1.0,336.0,993.0,1.0,0,251.0,1
733,733,0.38138214125880976,0.4,1.0,1.0,481.0,511.0,1.0,1,448.0,1
734,734,0.20118938479579718,0.2,1.0,1.0,438.0,991.0,1.0,1,-239.0,1
735,735,-0.7072132174635158,-0.7,1.0,0.0,361.0,518.0,0.0,0,2121.0,1
736,736,0.7295767240959371,0.7,1.0,1.0,251.0,543.0,1.0,1,86.0,1
737,737,-0.40066227047891717,-0.4,0.0,1.0,447.0,700.0,1.0,0,713.0,1
738,738,-0.5135644104271978,-0.5,1.0,0.0,496.0,592.0,0.0,0,562.0,1
739,739,0.08889553952675389,0.1,0.0,0.0,388.0,855.0,0.0,1,1277.0,1
740,740,-0.4351126041188392,-0.4,0.0,1.0,461.0,744.0,1.0,0,1155.0,1
741,741,-0.6475291983665035,-0.6,0.0,1.0,264.0,547.0,1.0,0,299.0,1
742,742,-0.059418183525509205,-0.1,1.0,0.0,468.0,683.0,0.0,0,609.0,1
743,743,0.02692527748772855,0.0,0.0,0.0,253.0,543.0,1.0,0,2204.0,0
744,744,0.610827798694947,0.6,1.0,1.0,472.0,970.0,1.0,1,448.0,1
745,745,-0.5459158280550391,-0.5,0.0,1.0,486.0,647.0,1.0,0,237.0,1
746,746,0.16663090352818644,0.2,1.0,1.0,445.0,787.0,1.0,1,378.0,1
747,747,0.5577351203636575,0.6,0.0,0.0,302.0,515.0,0.0,1,393.0,1
748,748,0.4993759067013105,0.5,0.0,0.0,319.0,832.0,0.0,1,529.0,1
749,749,-0.12073889755487521,-0.1,0.0,1.0,367.0,688.0,1.0,0,1635.0,1
750,750,0.10035739286296541,0.1,1.0,1.0,340.0,745.0,1.0,1,1915.0,1
751,751,0.8226495605277703,0.8,0.0,0.0,338.0,676.0,0.0,1,766.0,1
752,752,0.5365011546715405,0.5,1.0,1.0,381.0,721.0,1.0,1,488.0,1
753,753,0.504655074648389,0.5,0.0,0.0,479.0,892.0,0.0,1,409.0,1
754,754,-0.5006405664521836,-0.5,1.0,0.0,389.0,984.0,0.0,0,1127.0,1
755,755,-0.5233155210797397,-0.5,0.0,1.0,495.0,502.0,1.0,0,813.0,1
756,756,0.6364977469485161,0.6,1.0,1.0,453.0,618.0,1.0,1,379.0,1
757,757,0.7564966919486412,0.8,0.0,0.0,272.0,826.0,0.0,1,172.0,1
758,758,-0.6664983691544423,-0.7,0.0,1.0,339.0,625.0,1.0,0,346.0,1
759,759,0.059517424691621246,0.1,1.0,1.0,466.0,992.0,1.0,1,1542.0,1
760,760,0.480365437553547,0.5,0.0,0.0,345.0,987.0,0.0,1,278.0,1
761,761,-0.6185998043334718,-0.6,0.0,1.0,330.0,678.0,1.0,0,202.0,1
762,762,0.27433755163491036,0.3,0.0,0.0,301.0,953.0,0.0,1,1746.0,1
763,763,0.18041647584885434,0.2,1.0,1.0,304.0,905.0,1.0,1,501.0,1
764,764,-0.658508089904653,-0.7,1.0,0.0,293.0,886.0,0.0,0,271.0,1
765,765,0.2607251030292984,0.3,1.0,1.0,301.0,866.0,1.0,1,333.0,1
766,766,0.7599856722451949,0.8,1.0,1.0,356.0,666.0,1.0,1,148.0,1
767,767,0.1598455213161235,0.2,1.0,1.0,298.0,704.0,1.0,1,238.0,1
768,768,0.2699442069023664,0.3,1.0,1.0,305.0,887.0,1.0,1,298.0,1
769,769,0.6207021349524592,0.6,0.0,0.0,451.0,997.0,0.0,1,342.0,1
770,770,0.6699746203533196,0.7,1.0,1.0,361.0,896.0,1.0,1,-67.0,1
771,771,0.035476807664648,0.0,1.0,1.0,375.0,595.0,1.0,1,1600.0,1
772,772,-0.5938947970189199,-0.6,0.0,1.0,499.0,589.0,1.0,0,552.0,1
773,773,0.15839172624489872,0.2,1.0,1.0,382.0,868.0,1.0,1,1750.0,1
774,774,-0.6896280763700224,-0.7,1.0,0.0,346.0,824.0,0.0,0,150.0,1
775,775,0.609473807995739,0.6,0.0,0.0,340.0,921.0,0.0,1,389.0,1
776,776,-0.3479298043054522,-0.3,1.0,0.0,457.0,993.0,0.0,0,1260.0,1
777,777,-0.6080841849931486,-0.6,1.0,0.0,434.0,723.0,0.0,0,583.0,1
778,778,-0.7868267022580113,-0.8,1.0,0.0,490.0,695.0,0.0,0,855.0,1
779,779,-0.7967292096875612,-0.8,1.0,0.0,386.0,866.0,0.0,0,408.0,1
780,780,0.4615012825372783,0.5,0.0,0.0,447.0,625.0,0.0,1,1928.0,1
781,781,0.38907138506053685,0.4,1.0,1.0,376.0,977.0,1.0,1,677.0,1
782,782,-0.8437955367705561,-0.8,0.0,1.0,484.0,942.0,1.0,0,264.0,1
783,783,0.6157349316558488,0.6,1.0,1.0,478.0,858.0,1.0,1,184.0,1
784,784,-0.680403062810106,-0.7,0.0,1.0,410.0,581.0,1.0,0,189.0,1
785,785,-0.029509059482794364,-0.0,1.0,0.0,480.0,748.0,0.0,0,1772.0,1
786,786,-0.13505088211318417,-0.1,1.0,0.0,404.0,960.0,0.0,0,1636.0,1
787,787,-0.6441064251132229,-0.6,1.0,0.0,349.0,965.0,0.0,0,316.0,1
788,788,0.55823946878892,0.6,1.0,1.0,492.0,539.0,1.0,1,339.0,1
789,789,0.5579018480662502,0.6,1.0,1.0,454.0,749.0,1.0,1,437.0,1
790,790,0.5168324092721434,0.5,0.0,0.0,346.0,735.0,0.0,1,1249.0,1
791,791,0.1795585776107803,0.2,0.0,0.0,461.0,648.0,0.0,1,1891.0,1
792,792,-0.38119001300571975,-0.4,0.0,1.0,450.0,691.0,1.0,0,429.0,1
793,793,-0.5800755384372702,-0.6,1.0,0.0,325.0,573.0,0.0,0,892.0,1
794,794,0.8223287931639042,0.8,0.0,0.0,481.0,990.0,0.0,1,239.0,1
795,795,-0.45074971526152174,-0.5,1.0,0.0,423.0,870.0,0.0,0,757.0,1
796,796,-0.1434122941448549,-0.1,1.0,0.0,399.0,980.0,0.0,0,741.0,1
797,797,0.21524704664639904,0.2,1.0,1.0,265.0,752.0,1.0,1,823.0,1
798,798,0.2542258665687699,0.3,0.0,0.0,488.0,952.0,0.0,1,1470.0,1
799,799,-0.03758940193484528,-0.0,0.0,1.0,304.0,937.0,0.0,1,1759.0,0
800,800,0.3820925772393341,0.4,0.0,0.0,488.0,798.0,0.0,1,494.0,1
801,801,-0.4801559012450593,-0.5,1.0,0.0,275.0,691.0,0.0,0,184.0,1
802,802,-0.2920172151954402,-0.3,1.0,0.0,291.0,905.0,0.0,0,604.0,1
803,803,-0.7757400441933485,-0.8,0.0,1.0,487.0,899.0,1.0,0,104.0,1
804,804,0.6178539622641742,0.6,1.0,1.0,351.0,516.0,1.0,1,243.0,1
805,805,0.015071735770990191,0.0,0.0,0.0,354.0,701.0,1.0,0,1945.0,0
806,806,0.4751970629005692,0.5,0.0,0.0,297.0,595.0,0.0,1,1138.0,1
807,807,-0.3395509268390313,-0.3,1.0,0.0,271.0,627.0,0.0,0,512.0,1
808,808,-0.3767658557650233,-0.4,1.0,0.0,284.0,783.0,0.0,0,263.0,1
809,809,-0.08351489816083846,-0.1,0.0,1.0,318.0,530.0,1.0,0,1452.0,1
810,810,0.40103375188800483,0.4,1.0,1.0,296.0,608.0,1.0,1,426.0,1
811,811,0.20672827681752837,0.2,0.0,0.0,333.0,946.0,0.0,1,1231.0,1
812,812,-0.42481575069439653,-0.4,0.0,1.0,432.0,957.0,1.0,0,361.0,1
813,813,0.42807568666873086,0.4,1.0,1.0,406.0,859.0,1.0,1,325.0,1
814,814,-0.204843556225889,-0.2,1.0,0.0,371.0,714.0,0.0,0,1715.0,1
815,815,-0.7126596039648898,-0.7,1.0,0.0,318.0,915.0,0.0,0,287.0,1
816,816,-0.22527068929411276,-0.2,1.0,0.0,347.0,722.0,0.0,0,1931.0,1
817,817,0.6927582790103605,0.7,0.0,0.0,305.0,557.0,0.0,1,188.0,1
818,818,0.6791995818283153,0.7,1.0,1.0,389.0,728.0,1.0,1,353.0,1
819,819,0.3295955998538719,0.3,1.0,1.0,275.0,861.0,1.0,1,304.0,1
820,820,-0.7057831555572067,-0.7,1.0,0.0,386.0,869.0,0.0,0,365.0,1
821,821,0.5706917096094647,0.6,0.0,0.0,359.0,541.0,0.0,1,2100.0,1
822,822,0.11802418634956979,0.1,1.0,1.0,434.0,538.0,1.0,1,768.0,1
823,823,0.09483936032980145,0.1,1.0,1.0,371.0,719.0,1.0,1,1200.0,1
824,824,-0.3718769327730632,-0.4,0.0,1.0,387.0,899.0,1.0,0,304.0,1
825,825,0.8779376450501756,0.9,1.0,1.0,377.0,904.0,1.0,1,479.0,1
826,826,-0.29693925605854643,-0.3,1.0,0.0,481.0,959.0,0.0,0,950.0,1
827,827,0.41298550821002855,0.4,1.0,1.0,485.0,942.0,1.0,1,373.0,1
828,828,-0.229722019152919,-0.2,0.0,1.0,267.0,779.0,1.0,0,594.0,1
829,829,-0.1807654899064811,-0.2,0.0,1.0,480.0,728.0,1.0,0,1332.0,1
830,830,-0.5794260407940512,-0.6,1.0,0.0,395.0,911.0,0.0,0,1024.0,1
831,831,0.09299427249721592,0.1,0.0,0.0,288.0,826.0,0.0,1,906.0,1
832,832,0.2571853639051015,0.3,1.0,1.0,362.0,932.0,1.0,1,206.0,1
833,833,0.8648739780718123,0.9,0.0,0.0,270.0,915.0,0.0,1,705.0,1
834,834,-0.08058609839424946,-0.1,0.0,1.0,485.0,825.0,1.0,0,1210.0,1
835,835,0.2701609879281798,0.3,0.0,0.0,363.0,509.0,0.0,1,1038.0,1
836,836,-0.11515021952059368,-0.1,1.0,0.0,409.0,850.0,1.0,1,1461.0,0
837,837,0.7343342915438466,0.7,0.0,0.0,417.0,528.0,0.0,1,265.0,1
838,838,-0.28937156662648533,-0.3,0.0,1.0,391.0,542.0,1.0,0,1367.0,1
839,839,0.056154432080141814,0.1,1.0,1.0,390.0,937.0,1.0,1,1623.0,1
840,840,0.8179723028865936,0.8,0.0,0.0,293.0,864.0,0.0,1,253.0,1
841,841,0.12266613418663785,0.1,0.0,0.0,429.0,583.0,1.0,0,1988.0,0
842,842,-0.26158354076654977,-0.3,1.0,0.0,437.0,529.0,0.0,0,434.0,1
843,843,-0.1534220638603233,-0.2,1.0,0.0,414.0,700.0,1.0,1,-14.0,0
844,844,-0.27077272595604995,-0.3,1.0,0.0,342.0,595.0,0.0,0,1133.0,1
845,845,-0.5230930373364038,-0.5,1.0,0.0,440.0,691.0,0.0,0,289.0,1
846,846,0.6184849179832695,0.6,1.0,1.0,461.0,519.0,1.0,1,560.0,1
847,847,-0.3798754798288301,-0.4,0.0,1.0,299.0,500.0,1.0,0,501.0,1
848,848,0.6061721538699562,0.6,1.0,1.0,340.0,663.0,1.0,1,277.0,1
849,849,0.03293306956165931,0.0,0.0,0.0,252.0,599.0,0.0,1,2149.0,1
850,850,-0.5387356237100982,-0.5,1.0,0.0,473.0,819.0,0.0,0,358.0,1
851,851,-0.11843751311950279,-0.1,1.0,0.0,267.0,510.0,0.0,0,653.0,1
852,852,0.5811800833292465,0.6,0.0,0.0,263.0,526.0,0.0,1,1471.0,1
853,853,-0.4369667815163104,-0.4,1.0,0.0,430.0,861.0,0.0,0,839.0,1
854,854,-0.4101566622831007,-0.4,0.0,1.0,463.0,896.0,1.0,0,221.0,1
855,855,0.49331959967654104,0.5,1.0,1.0,316.0,967.0,1.0,1,497.0,1
856,856,0.7842622503239868,0.8,0.0,0.0,289.0,863.0,0.0,1,128.0,1
857,857,-0.08035266317341938,-0.1,1.0,0.0,404.0,619.0,0.0,0,1357.0,1
858,858,-0.005325821113585594,-0.0,1.0,0.0,386.0,596.0,1.0,1,2018.0,0
859,859,0.4061510281098005,0.4,1.0,1.0,420.0,908.0,1.0,1,182.0,1
860,860,0.23650052315707237,0.2,0.0,0.0,417.0,747.0,0.0,1,506.0,1
861,861,0.1441328988164966,0.1,0.0,0.0,445.0,919.0,0.0,1,566.0,1
862,862,0.3138503584460276,0.3,1.0,1.0,455.0,933.0,1.0,1,572.0,1
863,863,-0.8504209398706578,-0.9,0.0,1.0,449.0,709.0,1.0,0,382.0,1
864,864,-0.40793811604100066,-0.4,1.0,0.0,300.0,614.0,0.0,0,396.0,1
865,865,-0.8646712897802112,-0.9,0.0,1.0,432.0,657.0,1.0,0,281.0,1
866,866,0.2149148228401755,0.2,1.0,1.0,343.0,508.0,1.0,1,799.0,1
867,867,-0.35673888984419844,-0.4,0.0,1.0,393.0,907.0,1.0,0,540.0,1
868,868,-0.8174987173502615,-0.8,0.0,1.0,408.0,542.0,1.0,0,240.0,1
869,869,-0.45402062230593676,-0.5,1.0,0.0,466.0,502.0,0.0,0,882.0,1
870,870,-0.5937825814946731,-0.6,1.0,0.0,423.0,854.0,0.0,0,453.0,1
871,871,0.8633043152267236,0.9,1.0,1.0,299.0,780.0,1.0,1,201.0,1
872,872,-0.4841994445528963,-0.5,0.0,1.0,377.0,587.0,1.0,0,406.0,1
873,873,0.6606510258277462,0.7,0.0,0.0,337.0,642.0,0.0,1,511.0,1
874,874,0.3736756867941192,0.4,1.0,1.0,465.0,870.0,1.0,1,155.0,1
875,875,-0.8620658085823372,-0.9,1.0,0.0,494.0,773.0,0.0,0,303.0,1
876,876,0.8426932884164141,0.8,0.0,0.0,309.0,686.0,0.0,1,1485.0,1
877,877,-0.7381404089246145,-0.7,0.0,1.0,350.0,718.0,1.0,0,212.0,1
878,878,0.14777227439925966,0.1,1.0,1.0,292.0,596.0,1.0,1,1002.0,1
879,879,-0.17194224103942257,-0.2,1.0,0.0,453.0,530.0,0.0,0,1327.0,1
880,880,0.6278558501102355,0.6,0.0,0.0,410.0,751.0,0.0,1,539.0,1
881,881,-0.15467660499650038,-0.2,1.0,0.0,434.0,571.0,0.0,0,585.0,1
882,882,0.048460853471726795,0.0,1.0,1.0,426.0,905.0,1.0,1,889.0,1
883,883,-0.7161224883375482,-0.7,1.0,0.0,334.0,915.0,0.0,0,791.0,1
884,884,0.40320489227291156,0.4,1.0,1.0,440.0,907.0,1.0,1,323.0,1
885,885,-0.7347465549688896,-0.7,0.0,1.0,322.0,934.0,1.0,0,364.0,1
886,886,0.7654986025607645,0.8,0.0,0.0,495.0,672.0,0.0,1,323.0,1
887,887,-0.7628695721962747,-0.8,1.0,0.0,317.0,754.0,0.0,0,219.0,1
888,888,0.12360815444302153,0.1,0.0,0.0,404.0,969.0,0.0,1,1627.0,1
889,889,0.10134757667223637,0.1,1.0,1.0,303.0,975.0,1.0,1,772.0,1
890,890,0.03666801098032746,0.0,1.0,1.0,417.0,815.0,1.0,1,418.0,1
891,891,0.09082162417613104,0.1,0.0,0.0,306.0,647.0,0.0,1,2047.0,1
892,892,-0.5787928674208,-0.6,1.0,0.0,320.0,633.0,0.0,0,317.0,1
893,893,0.16229122754117975,0.2,1.0,1.0,352.0,670.0,1.0,1,408.0,1
894,894,0.40663257055736624,0.4,0.0,0.0,322.0,847.0,0.0,1,801.0,1
895,895,0.3007107860028809,0.3,0.0,0.0,384.0,892.0,0.0,1,1054.0,1
896,896,-0.6909935690980911,-0.7,0.0,1.0,481.0,613.0,1.0,0,366.0,1
897,897,-0.22118603540025528,-0.2,1.0,0.0,469.0,669.0,0.0,0,1102.0,1
898,898,0.7134825890455582,0.7,1.0,1.0,311.0,577.0,1.0,1,342.0,1
899,899,-0.6714096517562604,-0.7,1.0,0.0,393.0,551.0,0.0,0,326.0,1
900,900,0.8875902441085125,0.9,0.0,0.0,313.0,745.0,0.0,1,302.0,1
901,901,0.35835506405588224,0.4,0.0,0.0,264.0,714.0,0.0,1,292.0,1
902,902,0.24727305010770284,0.2,0.0,0.0,388.0,582.0,0.0,1,2030.0,1
903,903,0.001548288455757385,0.0,0.0,0.0,366.0,648.0,1.0,0,1376.0,0
904,904,-0.1625306136222734,-0.2,1.0,0.0,291.0,674.0,0.0,0,815.0,1
905,905,-0.6003969557816538,-0.6,1.0,0.0,391.0,679.0,0.0,0,450.0,1
906,906,-0.7629738026730578,-0.8,0.0,1.0,430.0,628.0,1.0,0,392.0,1
907,907,0.27446393874917263,0.3,0.0,0.0,279.0,739.0,0.0,1,452.0,1
908,908,-0.09640504997187627,-0.1,1.0,0.0,371.0,985.0,1.0,1,244.0,0
909,909,-0.2043479311760802,-0.2,0.0,1.0,439.0,975.0,1.0,0,1586.0,1
910,910,0.09122483721521546,0.1,1.0,1.0,380.0,735.0,1.0,1,1885.0,1
911,911,0.4372738038606615,0.4,0.0,0.0,300.0,546.0,0.0,1,2154.0,1
912,912,-0.580557552281652,-0.6,0.0,1.0,317.0,810.0,1.0,0,633.0,1
913,913,-0.0460110144657353,-0.0,1.0,0.0,345.0,745.0,0.0,0,1910.0,1
914,914,-0.10554516833448757,-0.1,0.0,1.0,269.0,961.0,1.0,0,1430.0,1
915,915,0.2515751161049541,0.3,1.0,1.0,452.0,710.0,1.0,1,658.0,1
916,916,0.3149897293235845,0.3,1.0,1.0,446.0,888.0,1.0,1,186.0,1
917,917,0.6874895777531648,0.7,0.0,0.0,340.0,782.0,0.0,1,188.0,1
918,918,-0.83327549953763,-0.8,1.0,0.0,362.0,700.0,0.0,0,548.0,1
919,919,-0.35997491657626,-0.4,0.0,1.0,375.0,581.0,1.0,0,564.0,1
920,920,-0.49660451393993477,-0.5,0.0,1.0,284.0,679.0,1.0,0,227.0,1
921,921,0.2675844101023547,0.3,1.0,1.0,380.0,997.0,1.0,1,1063.0,1
922,922,-0.47715321505853664,-0.5,1.0,0.0,339.0,735.0,0.0,0,296.0,1
923,923,0.8134707828321496,0.8,0.0,0.0,253.0,654.0,0.0,1,383.0,1
924,924,0.06715214077074294,0.1,1.0,1.0,377.0,674.0,1.0,1,39.0,1
925,925,0.5710554022493771,0.6,0.0,0.0,451.0,720.0,0.0,1,319.0,1
926,926,0.5191210547921773,0.5,1.0,1.0,326.0,864.0,1.0,1,260.0,1
927,927,0.2832695778806328,0.3,1.0,1.0,405.0,997.0,1.0,1,1028.0,1
928,928,0.5537398085277295,0.6,0.0,0.0,371.0,948.0,0.0,1,1401.0,1
929,929,0.22518313779820842,0.2,0.0,0.0,433.0,746.0,0.0,1,521.0,1
930,930,0.5855819683273472,0.6,1.0,1.0,393.0,680.0,1.0,1,67.0,1
931,931,0.20950702701076696,0.2,1.0,1.0,436.0,804.0,1.0,1,230.0,1
932,932,0.37542298121489137,0.4,1.0,1.0,373.0,886.0,1.0,1,291.0,1
933,933,-0.1703225305780448,-0.2,0.0,1.0,302.0,628.0,1.0,0,420.0,1
934,934,0.7626623240679745,0.8,0.0,0.0,453.0,990.0,0.0,1,257.0,1
935,935,-0.7802713184019678,-0.8,0.0,1.0,443.0,687.0,1.0,0,220.0,1
936,936,0.8126393931063159,0.8,1.0,1.0,402.0,734.0,1.0,1,134.0,1
937,937,-0.4006240038436193,-0.4,1.0,0.0,334.0,780.0,0.0,0,206.0,1
938,938,0.05682941315218448,0.1,0.0,0.0,468.0,714.0,1.0,0,1818.0,0
939,939,0.10685273163500753,0.1,1.0,1.0,353.0,996.0,1.0,1,731.0,1
940,940,0.45021088418197086,0.5,1.0,1.0,325.0,520.0,1.0,1,285.0,1
941,941,-0.1817731179729618,-0.2,1.0,0.0,365.0,519.0,0.0,0,2116.0,1
942,942,0.4499300032460646,0.4,0.0,0.0,279.0,670.0,0.0,1,511.0,1
943,943,-0.86660782312166,-0.9,0.0,1.0,442.0,658.0,1.0,0,240.0,1
944,944,0.43867302155413046,0.4,1.0,1.0,427.0,542.0,1.0,1,471.0,1
945,945,-0.6350932520535917,-0.6,1.0,0.0,499.0,815.0,0.0,0,316.0,1
946,946,0.6214178638342863,0.6,0.0,0.0,438.0,885.0,0.0,1,387.0,1
947,947,0.7830754875720992,0.8,0.0,0.0,444.0,535.0,0.0,1,571.0,1
948,948,0.5873582710685378,0.6,0.0,0.0,260.0,616.0,0.0,1,2124.0,1
949,949,0.31576949535265364,0.3,1.0,1.0,349.0,735.0,1.0,1,1226.0,1
950,950,-0.8107046410301662,-0.8,0.0,1.0,421.0,668.0,1.0,0,181.0,1
951,951,-0.8837985210245347,-0.9,0.0,1.0,425.0,993.0,1.0,0,432.0,1
952,952,-0.6968039336759198,-0.7,1.0,0.0,335.0,882.0,0.0,0,213.0,1
953,953,0.8049173690481172,0.8,0.0,0.0,300.0,705.0,0.0,1,215.0,1
954,954,-0.5187675200593227,-0.5,0.0,1.0,297.0,724.0,1.0,0,459.0,1
955,955,0.2687146384161271,0.3,0.0,0.0,412.0,616.0,0.0,1,1972.0,1
956,956,-0.7186583897965337,-0.7,1.0,0.0,287.0,722.0,0.0,0,381.0,1
957,957,-0.44916151713850994,-0.4,1.0,0.0,301.0,763.0,0.0,0,1006.0,1
958,958,0.15037792900728209,0.2,1.0,1.0,278.0,836.0,1.0,1,696.0,1
959,959,-0.3571651167148323,-0.4,0.0,1.0,250.0,671.0,1.0,0,189.0,1
960,960,0.39402142682771546,0.4,0.0,0.0,409.0,919.0,0.0,1,892.0,1
961,961,-0.12468308251482929,-0.1,0.0,1.0,389.0,853.0,1.0,0,1198.0,1
962,962,-0.353652530301781,-0.4,1.0,0.0,433.0,959.0,0.0,0,928.0,1
963,963,-0.05695243480163492,-0.1,1.0,0.0,415.0,831.0,1.0,1,1754.0,0
964,964,0.11355197389382499,0.1,0.0,0.0,252.0,675.0,0.0,1,2073.0,1
965,965,-0.7068435734837775,-0.7,0.0,1.0,260.0,849.0,1.0,0,201.0,1
966,966,-0.07905507018566804,-0.1,1.0,0.0,283.0,812.0,0.0,0,1905.0,1
967,967,-0.025089238507501,-0.0,1.0,0.0,417.0,800.0,1.0,1,1783.0,0
968,968,-0.4685798362327587,-0.5,1.0,0.0,407.0,814.0,0.0,0,349.0,1
969,969,-0.20126875573977399,-0.2,0.0,1.0,261.0,565.0,1.0,0,824.0,1
970,970,-0.4837929218247021,-0.5,0.0,1.0,482.0,625.0,1.0,0,503.0,1
971,971,0.5522462830411262,0.6,1.0,1.0,451.0,721.0,1.0,1,-432.0,1
972,972,-0.6127904909569144,-0.6,1.0,0.0,283.0,959.0,0.0,0,128.0,1
973,973,-0.3672498788980192,-0.4,1.0,0.0,351.0,618.0,0.0,0,781.0,1
974,974,-0.6161094213237084,-0.6,1.0,0.0,486.0,696.0,0.0,0,668.0,1
975,975,-0.07125613800553776,-0.1,0.0,1.0,495.0,674.0,1.0,0,1831.0,1
976,976,0.8985738826817132,0.9,1.0,1.0,487.0,640.0,1.0,1,243.0,1
977,977,0.7854373241814582,0.8,0.0,0.0,474.0,532.0,0.0,1,594.0,1
978,978,-0.6180717783375406,-0.6,0.0,1.0,318.0,956.0,1.0,0,546.0,1
979,979,0.6442793391902398,0.6,1.0,1.0,334.0,818.0,1.0,1,258.0,1
980,980,-0.8992276977676207,-0.9,1.0,0.0,405.0,948.0,1.0,1,-13.0,0
981,981,-0.27650369540411557,-0.3,0.0,1.0,345.0,863.0,1.0,0,1222.0,1
982,982,-0.6914805341590129,-0.7,1.0,0.0,345.0,999.0,0.0,0,656.0,1
983,983,-0.8438458262317181,-0.8,1.0,0.0,251.0,892.0,0.0,0,207.0,1
984,984,-0.04763442195320666,-0.0,1.0,0.0,300.0,555.0,1.0,1,2145.0,0
985,985,-0.8947162771119028,-0.9,0.0,1.0,418.0,579.0,1.0,0,223.0,1
986,986,0.08004150673017618,0.1,1.0,1.0,391.0,559.0,1.0,1,2050.0,1
987,987,-0.8756912474897256,-0.9,0.0,1.0,292.0,878.0,1.0,0,230.0,1
988,988,0.05320428035784197,0.1,1.0,1.0,296.0,876.0,1.0,1,918.0,1
989,989,-0.24399169008860622,-0.2,1.0,0.0,294.0,550.0,0.0,0,1066.0,1
990,990,-0.6571467863637239,-0.7,1.0,0.0,285.0,799.0,0.0,0,576.0,1
991,991,0.5464005712098844,0.5,0.0,0.0,451.0,589.0,0.0,1,680.0,1
992,992,0.5339153246447791,0.5,1.0,1.0,263.0,671.0,1.0,1,376.0,1
993,993,0.12856866895495467,0.1,0.0,0.0,395.0,912.0,0.0,1,1163.0,1
994,994,-0.17626297826103543,-0.2,1.0,0.0,301.0,970.0,0.0,0,989.0,1
995,995,-0.07737289271096648,-0.1,1.0,0.0,281.0,875.0,0.0,0,1844.0,1
996,996,0.09577234329169859,0.1,1.0,1.0,481.0,817.0,1.0,1,1062.0,1
997,997,0.1812507347659097,0.2,1.0,1.0,417.0,787.0,1.0,1,806.0,1
998,998,-0.5663215785373492,-0.6,0.0,1.0,403.0,893.0,1.0,0,284.0,1
999,999,-0.6170838695008438,-0.6,0.0,1.0,425.0,719.0,1.0,0,496.0,1
1000,1000,-0.7699521593139482,-0.8,0.0,1.0,279.0,705.0,1.0,0,156.0,1
1001,1001,0.640247490802902,0.6,0.0,0.0,329.0,937.0,0.0,1,104.0,1
1002,1002,0.5418718671439336,0.5,1.0,1.0,471.0,930.0,1.0,1,179.0,1
1003,1003,0.6712799806894901,0.7,0.0,0.0,482.0,908.0,0.0,1,500.0,1
1004,1004,0.2538890602116405,0.3,1.0,1.0,407.0,679.0,1.0,1,884.0,1
1005,1005,0.1931309373194915,0.2,0.0,0.0,338.0,641.0,0.0,1,2021.0,1
1006,1006,0.8529264584492934,0.9,1.0,1.0,449.0,613.0,1.0,1,88.0,1
1007,1007,0.24016460266008088,0.2,1.0,1.0,384.0,779.0,1.0,1,287.0,1
1008,1008,0.1254372147539521,0.1,0.0,0.0,492.0,924.0,0.0,1,1584.0,1
1009,1009,-0.18283684564782177,-0.2,0.0,1.0,423.0,557.0,1.0,0,290.0,1
1010,1010,-0.17274085093969627,-0.2,0.0,1.0,401.0,733.0,1.0,0,1336.0,1
1011,1011,-0.1514503057976364,-0.2,1.0,0.0,441.0,698.0,1.0,1,1861.0,0
1012,1012,-0.8562057328968216,-0.9,0.0,1.0,487.0,931.0,1.0,0,162.0,1
1013,1013,-0.8514752605652882,-0.9,1.0,0.0,372.0,763.0,0.0,0,355.0,1
1014,1014,-0.7953895577976622,-0.8,0.0,1.0,352.0,666.0,1.0,0,292.0,1
1015,1015,-0.5762155610048918,-0.6,0.0,1.0,308.0,669.0,1.0,0,583.0,1
1016,1016,0.3787266219020996,0.4,0.0,0.0,460.0,938.0,0.0,1,1572.0,1
1017,1017,-0.11215748494963318,-0.1,0.0,1.0,451.0,720.0,1.0,0,1829.0,1
1018,1018,-0.5609115129454405,-0.6,1.0,0.0,366.0,845.0,0.0,0,319.0,1
1019,1019,-0.3615322387767763,-0.4,1.0,0.0,306.0,594.0,0.0,0,940.0,1
1020,1020,0.4686210780465393,0.5,1.0,1.0,256.0,599.0,1.0,1,345.0,1
1021,1021,0.4176374798824972,0.4,0.0,0.0,280.0,832.0,0.0,1,1158.0,1
1022,1022,0.023143941349590857,0.0,0.0,0.0,250.0,769.0,1.0,0,931.0,0
1023,1023,-0.5855379836722949,-0.6,1.0,0.0,341.0,634.0,0.0,0,225.0,1
1024,1024,-0.5808352121356541,-0.6,0.0,1.0,434.0,782.0,1.0,0,514.0,1
1025,1025,-0.42359878314529453,-0.4,0.0,1.0,307.0,961.0,1.0,0,252.0,1
1026,1026,0.3013876843035884,0.3,0.0,0.0,414.0,515.0,0.0,1,1261.0,1
1027,1027,0.31830353514975884,0.3,1.0,1.0,276.0,737.0,1.0,1,407.0,1
1028,1028,0.7282137564116647,0.7,0.0,0.0,257.0,928.0,0.0,1,405.0,1
1029,1029,-0.06332792757365491,-0.1,1.0,0.0,482.0,853.0,0.0,0,1665.0,1
1030,1030,-0.37966740774541574,-0.4,1.0,0.0,489.0,832.0,0.0,0,399.0,1
1031,1031,-0.0863065664428061,-0.1,0.0,1.0,313.0,795.0,1.0,0,1312.0,1
1032,1032,0.3099722046958947,0.3,0.0,0.0,320.0,990.0,0.0,1,690.0,1
1033,1033,-0.8628757009158136,-0.9,1.0,0.0,374.0,866.0,0.0,0,220.0,1
1034,1034,0.012947157178285651,0.0,1.0,1.0,464.0,910.0,1.0,1,866.0,1
1035,1035,0.6547469308340531,0.7,0.0,0.0,263.0,999.0,0.0,1,368.0,1
1036,1036,-0.7922278709444566,-0.8,1.0,0.0,317.0,731.0,0.0,0,292.0,1
1037,1037,0.8762037305186882,0.9,1.0,1.0,400.0,594.0,1.0,1,66.0,1
1038,1038,0.6864639675888599,0.7,1.0,1.0,376.0,887.0,1.0,1,287.0,1
1039,1039,0.5017400869057774,0.5,1.0,1.0,431.0,614.0,1.0,1,215.0,1
1040,1040,0.49979649376015767,0.5,1.0,1.0,332.0,548.0,1.0,1,720.0,1
1041,1041,-0.0062512951847066844,-0.0,1.0,0.0,459.0,835.0,1.0,1,1246.0,0
1042,1042,0.7198373465323672,0.7,0.0,0.0,406.0,643.0,0.0,1,271.0,1
1043,1043,-0.48255498320538937,-0.5,1.0,0.0,316.0,511.0,0.0,0,833.0,1
1044,1044,-0.0005651880649675256,-0.0,1.0,0.0,452.0,892.0,0.0,0,1656.0,1
1045,1045,0.669694601984352,0.7,1.0,1.0,378.0,541.0,1.0,1,151.0,1
1046,1046,-0.7088979777469764,-0.7,1.0,0.0,458.0,721.0,0.0,0,311.0,1
1047,1047,0.1025747187274445,0.1,0.0,0.0,366.0,863.0,1.0,0,-119.0,0
1048,1048,-0.5402275906213774,-0.5,1.0,0.0,359.0,701.0,0.0,0,290.0,1
1049,1049,0.3132278363663671,0.3,1.0,1.0,337.0,975.0,1.0,1,268.0,1
1050,1050,0.5301634092144388,0.5,1.0,1.0,287.0,847.0,1.0,1,286.0,1
1051,1051,0.36148398340453236,0.4,1.0,1.0,497.0,992.0,1.0,1,471.0,1
1052,1052,-0.7618729027892799,-0.8,0.0,1.0,274.0,904.0,1.0,0,222.0,1
1053,1053,0.5860432613249226,0.6,1.0,1.0,357.0,899.0,1.0,1,314.0,1
1054,1054,0.18315545803811328,0.2,1.0,1.0,407.0,862.0,1.0,1,631.0,1
1055,1055,-0.7334016817211675,-0.7,1.0,0.0,470.0,952.0,0.0,0,528.0,1
1056,1056,-0.3562928417109248,-0.4,1.0,0.0,377.0,541.0,0.0,0,612.0,1
1057,1057,-0.7979198144002096,-0.8,1.0,0.0,485.0,939.0,0.0,0,1486.0,1
1058,1058,-0.26207899710129245,-0.3,1.0,0.0,329.0,586.0,0.0,0,1865.0,1
1059,1059,0.5166403645279297,0.5,1.0,1.0,387.0,847.0,1.0,1,826.0,1
1060,1060,0.4175979751187545,0.4,0.0,0.0,421.0,795.0,0.0,1,164.0,1
1061,1061,-0.10829455797289111,-0.1,0.0,1.0,296.0,642.0,1.0,0,672.0,1
1062,1062,-0.7769163705836536,-0.8,0.0,1.0,457.0,688.0,1.0,0,205.0,1
1063,1063,0.451457530847157,0.5,0.0,0.0,253.0,858.0,0.0,1,559.0,1
1064,1064,0.14088997338877352,0.1,1.0,1.0,290.0,993.0,1.0,1,-23.0,1
1065,1065,0.3580913938581437,0.4,1.0,1.0,402.0,643.0,1.0,1,525.0,1
1066,1066,0.8384987037570645,0.8,0.0,0.0,497.0,678.0,0.0,1,495.0,1
1067,1067,-0.003009539922396942,-0.0,1.0,0.0,452.0,526.0,1.0,1,962.0,0
1068,1068,-0.26018042692582577,-0.3,1.0,0.0,496.0,895.0,0.0,0,1609.0,1
1069,1069,0.34516742488584307,0.3,0.0,0.0,409.0,776.0,0.0,1,725.0,1
1070,1070,0.19897621184198655,0.2,0.0,0.0,366.0,998.0,0.0,1,446.0,1
1071,1071,0.8467374442862498,0.8,0.0,0.0,482.0,854.0,0.0,1,274.0,1
1072,1072,0.4832647326595688,0.5,0.0,0.0,380.0,565.0,0.0,1,1395.0,1
1073,1073,0.2903280420959734,0.3,0.0,0.0,303.0,928.0,0.0,1,389.0,1
1074,1074,0.8449789193255265,0.8,0.0,0.0,352.0,744.0,0.0,1,234.0,1
1075,1075,0.5161312093276723,0.5,1.0,1.0,316.0,630.0,1.0,1,674.0,1
1076,1076,0.5666786595048351,0.6,0.0,0.0,379.0,808.0,0.0,1,1813.0,1
1077,1077,-0.6218356847795573,-0.6,1.0,0.0,256.0,559.0,0.0,0,475.0,1
1078,1078,0.8296140489990186,0.8,0.0,0.0,303.0,598.0,0.0,1,239.0,1
1079,1079,-0.5974911008992412,-0.6,0.0,1.0,366.0,549.0,1.0,0,435.0,1
1080,1080,0.22922044708274447,0.2,0.0,0.0,367.0,744.0,0.0,1,419.0,1
1081,1081,0.16499911083747143,0.2,0.0,0.0,495.0,724.0,0.0,1,501.0,1
1082,1082,0.8419163369730408,0.8,0.0,0.0,426.0,905.0,0.0,1,369.0,1
1083,1083,0.24217851431838222,0.2,0.0,0.0,258.0,797.0,0.0,1,625.0,1
1084,1084,0.14172328117503363,0.1,0.0,0.0,307.0,957.0,0.0,1,1736.0,1
1085,1085,0.21331724531015095,0.2,1.0,1.0,353.0,857.0,1.0,1,400.0,1
1086,1086,0.8796473838221252,0.9,0.0,0.0,266.0,560.0,0.0,1,314.0,1
1087,1087,-0.22165273111867523,-0.2,1.0,0.0,341.0,784.0,0.0,0,1875.0,1
1088,1088,0.007036852639631275,0.0,0.0,0.0,348.0,940.0,0.0,1,1712.0,1
1089,1089,0.6080623791690573,0.6,1.0,1.0,401.0,909.0,1.0,1,580.0,1
1090,1090,0.28180806845348794,0.3,0.0,0.0,382.0,505.0,0.0,1,633.0,1
1091,1091,0.034217557069685545,0.0,1.0,1.0,449.0,554.0,1.0,1,977.0,1
1092,1092,-0.09325975178977408,-0.1,1.0,0.0,387.0,857.0,0.0,0,1756.0,1
1093,1093,-0.4151135782253535,-0.4,0.0,1.0,433.0,805.0,1.0,0,962.0,1
1094,1094,-0.813148111994766,-0.8,0.0,1.0,457.0,502.0,1.0,0,491.0,1
1095,1095,-0.586325088331467,-0.6,0.0,1.0,386.0,880.0,1.0,0,334.0,1
1096,1096,-0.10915641832529532,-0.1,0.0,1.0,266.0,740.0,1.0,0,1604.0,1
1097,1097,0.26511688507571674,0.3,0.0,0.0,323.0,746.0,0.0,1,1411.0,1
1098,1098,-0.41276427344008204,-0.4,0.0,1.0,326.0,731.0,1.0,0,393.0,1
1099,1099,-0.5364593701773519,-0.5,0.0,1.0,289.0,591.0,1.0,0,440.0,1
1100,1100,-0.10641133807523828,-0.1,0.0,1.0,445.0,765.0,1.0,0,1790.0,1
1101,1101,-0.8456305938126029,-0.8,1.0,0.0,451.0,612.0,0.0,0,237.0,1
1102,1102,0.29865576215015655,0.3,1.0,1.0,414.0,551.0,1.0,1,605.0,1
1103,1103,-0.692290019663769,-0.7,1.0,0.0,269.0,532.0,0.0,0,409.0,1
1104,1104,0.05094899981836609,0.1,0.0,0.0,271.0,999.0,0.0,1,-10.0,1
1105,1105,0.39666917723057005,0.4,0.0,0.0,309.0,923.0,0.0,1,628.0,1
1106,1106,-0.2522687200001037,-0.3,1.0,0.0,343.0,599.0,0.0,0,728.0,1
1107,1107,0.639390722359089,0.6,0.0,0.0,310.0,581.0,0.0,1,599.0,1
1108,1108,0.7942511296096274,0.8,0.0,0.0,286.0,539.0,0.0,1,155.0,1
1109,1109,0.6913241755160507,0.7,0.0,0.0,288.0,890.0,0.0,1,392.0,1
1110,1110,0.12868824976250648,0.1,1.0,1.0,392.0,607.0,1.0,1,761.0,1
1111,1111,0.8881184376724468,0.9,0.0,0.0,453.0,802.0,0.0,1,305.0,1
1112,1112,-0.593724263752961,-0.6,0.0,1.0,333.0,794.0,1.0,0,293.0,1
1113,1113,0.26244202538954686,0.3,0.0,0.0,498.0,567.0,0.0,1,855.0,1
1114,1114,-0.6027676361684642,-0.6,1.0,0.0,455.0,682.0,0.0,0,293.0,1
1115,1115,-0.10979727610893897,-0.1,1.0,0.0,261.0,600.0,0.0,0,1229.0,1
1116,1116,0.6681399562364173,0.7,0.0,0.0,283.0,737.0,0.0,1,1980.0,1
1117,1117,-0.44551486022242787,-0.4,0.0,1.0,253.0,942.0,1.0,0,255.0,1
1118,1118,-0.8043085761431926,-0.8,0.0,1.0,276.0,641.0,1.0,0,233.0,1
1119,1119,-0.4249514228354862,-0.4,0.0,1.0,315.0,586.0,1.0,0,199.0,1
1120,1120,0.17977343991422245,0.2,0.0,0.0,332.0,717.0,0.0,1,1871.0,1
1121,1121,-0.2946022488396878,-0.3,0.0,1.0,441.0,969.0,1.0,0,620.0,1
1122,1122,-0.5733157896428562,-0.6,1.0,0.0,298.0,907.0,0.0,0,195.0,1
1123,1123,-0.5139149247999673,-0.5,1.0,0.0,423.0,903.0,0.0,0,164.0,1
1124,1124,0.8054948918869701,0.8,0.0,0.0,304.0,689.0,0.0,1,327.0,1
1125,1125,0.2082941718795751,0.2,0.0,0.0,417.0,982.0,0.0,1,741.0,1
1126,1126,0.1720407211109768,0.2,1.0,1.0,324.0,828.0,1.0,1,688.0,1
1127,1127,0.03274333548137076,0.0,1.0,1.0,490.0,716.0,1.0,1,1794.0,1
1128,1128,0.3822736256807203,0.4,1.0,1.0,347.0,601.0,1.0,1,522.0,1
1129,1129,0.4321792168456676,0.4,0.0,0.0,372.0,521.0,0.0,1,1237.0,1
1130,1130,0.4490648897371693,0.4,1.0,1.0,407.0,809.0,1.0,1,534.0,1
1131,1131,-0.27821271734362873,-0.3,0.0,1.0,270.0,547.0,1.0,0,743.0,1
1132,1132,0.0181518125246789,0.0,0.0,0.0,478.0,756.0,1.0,0,1766.0,0
1133,1133,0.07269359129739206,0.1,1.0,1.0,349.0,806.0,1.0,1,1845.0,1
1134,1134,-0.7922200722282046,-0.8,0.0,1.0,275.0,644.0,1.0,0,271.0,1
1135,1135,0.3139920301683029,0.3,0.0,0.0,343.0,815.0,0.0,1,762.0,1
1136,1136,-0.7695307914212421,-0.8,0.0,1.0,440.0,853.0,1.0,0,227.0,1
1137,1137,-0.850048043086629,-0.9,0.0,1.0,480.0,970.0,1.0,0,260.0,1
1138,1138,-0.1221510623539992,-0.1,1.0,0.0,262.0,813.0,0.0,0,1925.0,1
1139,1139,0.35123890179619266,0.4,1.0,1.0,461.0,596.0,1.0,1,323.0,1
1140,1140,-0.7468643439866903,-0.7,1.0,0.0,402.0,979.0,0.0,0,99.0,1
1141,1141,-0.10222708439080319,-0.1,0.0,1.0,477.0,620.0,1.0,0,1363.0,1
1142,1142,0.16077075208992497,0.2,0.0,0.0,431.0,943.0,0.0,1,366.0,1
1143,1143,0.7962690243886695,0.8,0.0,0.0,382.0,866.0,0.0,1,282.0,1
1144,1144,-0.6004403602099129,-0.6,0.0,1.0,274.0,500.0,1.0,0,536.0,1
1145,1145,-0.01268177645688151,-0.0,1.0,0.0,405.0,997.0,0.0,0,1598.0,1
1146,1146,0.28796508061179493,0.3,1.0,1.0,475.0,659.0,1.0,1,326.0,1
1147,1147,-0.09315866490092051,-0.1,0.0,1.0,481.0,504.0,1.0,0,835.0,1
1148,1148,0.2622053643482002,0.3,1.0,1.0,482.0,959.0,1.0,1,479.0,1
1149,1149,-0.1425983486524962,-0.1,1.0,0.0,267.0,776.0,0.0,0,1957.0,1
1150,1150,0.6987475209317967,0.7,0.0,0.0,251.0,693.0,0.0,1,2056.0,1
1151,1151,-0.737648276740538,-0.7,0.0,1.0,485.0,639.0,1.0,0,296.0,1
1152,1152,-0.6688231371737623,-0.7,1.0,0.0,403.0,531.0,0.0,0,366.0,1
1153,1153,0.014326235354280015,0.0,1.0,1.0,376.0,859.0,1.0,1,1765.0,1
1154,1154,-0.5659938336343684,-0.6,1.0,0.0,468.0,729.0,0.0,0,703.0,1
1155,1155,-0.11089816740906588,-0.1,0.0,1.0,378.0,871.0,1.0,0,1751.0,1
1156,1156,-0.15945112808392048,-0.2,0.0,1.0,334.0,980.0,1.0,0,1126.0,1
1157,1157,0.4540616861571688,0.5,0.0,0.0,285.0,790.0,0.0,1,445.0,1
1158,1158,-0.241507123627546,-0.2,0.0,1.0,493.0,999.0,1.0,0,1158.0,1
1159,1159,0.2902447092053134,0.3,0.0,0.0,318.0,836.0,0.0,1,476.0,1
1160,1160,0.16205809757608935,0.2,1.0,1.0,325.0,536.0,1.0,1,449.0,1
1161,1161,-0.4905885127013247,-0.5,0.0,1.0,378.0,927.0,1.0,0,685.0,1
1162,1162,0.794285201028838,0.8,1.0,1.0,442.0,774.0,1.0,1,224.0,1
1163,1163,0.8345747657995798,0.8,0.0,0.0,253.0,737.0,0.0,1,330.0,1
1164,1164,-0.7136641036348638,-0.7,1.0,0.0,423.0,841.0,0.0,0,156.0,1
1165,1165,0.7705551475354283,0.8,1.0,1.0,400.0,708.0,1.0,1,152.0,1
1166,1166,0.02103464155782675,0.0,1.0,1.0,328.0,507.0,1.0,1,1305.0,1
1167,1167,-0.5777033695069695,-0.6,0.0,1.0,259.0,842.0,1.0,0,289.0,1
1168,1168,-0.8839208089901051,-0.9,0.0,1.0,439.0,542.0,1.0,0,349.0,1
1169,1169,-0.45107562206274177,-0.5,0.0,1.0,452.0,628.0,1.0,0,670.0,1
1170,1170,0.6915921048821275,0.7,0.0,0.0,433.0,525.0,0.0,1,2042.0,1
1171,1171,0.4026872986644109,0.4,1.0,1.0,418.0,936.0,1.0,1,276.0,1
1172,1172,0.0690936330046309,0.1,0.0,0.0,346.0,942.0,0.0,1,1712.0,1
1173,1173,0.5762950768612504,0.6,0.0,0.0,409.0,900.0,0.0,1,101.0,1
1174,1174,0.3771849593063551,0.4,0.0,0.0,270.0,862.0,0.0,1,348.0,1
1175,1175,-0.5237893831492008,-0.5,0.0,1.0,368.0,895.0,1.0,0,157.0,1
1176,1176,0.4149375079793266,0.4,0.0,0.0,377.0,830.0,0.0,1,463.0,1
1177,1177,-0.20189892386654662,-0.2,0.0,1.0,487.0,687.0,1.0,0,1546.0,1
1178,1178,0.5301541691581318,0.5,0.0,0.0,439.0,611.0,0.0,1,930.0,1
1179,1179,-0.24328427093329963,-0.2,1.0,0.0,440.0,728.0,0.0,0,692.0,1
1180,1180,0.14703550473809524,0.1,0.0,0.0,254.0,855.0,0.0,1,1891.0,1
1181,1181,0.3042197173228013,0.3,0.0,0.0,454.0,925.0,0.0,1,681.0,1
1182,1182,-0.36107801632170133,-0.4,1.0,0.0,444.0,711.0,0.0,0,505.0,1
1183,1183,-0.5283508451277908,-0.5,1.0,0.0,453.0,852.0,0.0,0,845.0,1
1184,1184,0.8877366835006949,0.9,0.0,0.0,392.0,776.0,0.0,1,262.0,1
1185,1185,0.1932439940218863,0.2,0.0,0.0,385.0,878.0,0.0,1,807.0,1
1186,1186,0.07774788398794674,0.1,0.0,0.0,258.0,902.0,1.0,0,1840.0,0
1187,1187,0.4299889546364154,0.4,0.0,0.0,255.0,916.0,0.0,1,679.0,1
1188,1188,0.8410679064460219,0.8,0.0,0.0,353.0,775.0,0.0,1,192.0,1
1189,1189,0.8729251149554859,0.9,0.0,0.0,381.0,663.0,0.0,1,236.0,1
1190,1190,0.37676669002553653,0.4,0.0,0.0,258.0,546.0,0.0,1,2196.0,1
1191,1191,0.3023369244698727,0.3,0.0,0.0,468.0,739.0,0.0,1,363.0,1
1192,1192,-0.5127789700297779,-0.5,1.0,0.0,333.0,650.0,0.0,0,147.0,1
1193,1193,0.44205616657245306,0.4,1.0,1.0,316.0,956.0,1.0,1,618.0,1
1194,1194,-0.45278716328734514,-0.5,1.0,0.0,385.0,992.0,0.0,0,183.0,1
1195,1195,-0.38085988756848155,-0.4,1.0,0.0,307.0,795.0,0.0,0,688.0,1
1196,1196,-0.17669491629011647,-0.2,1.0,0.0,280.0,822.0,0.0,0,1898.0,1
1197,1197,-0.6905085657224646,-0.7,0.0,1.0,423.0,965.0,1.0,0,262.0,1
1198,1198,0.7466977202355761,0.7,1.0,1.0,262.0,559.0,1.0,1,279.0,1
1199,1199,0.38898555325572437,0.4,0.0,0.0,331.0,843.0,0.0,1,576.0,1
1200,1200,-0.033059520298153955,-0.0,0.0,1.0,439.0,596.0,0.0,1,1965.0,0
1201,1201,0.3509194156857379,0.4,1.0,1.0,266.0,722.0,1.0,1,262.0,1
1202,1202,-0.362033786931262,-0.4,0.0,1.0,362.0,596.0,1.0,0,402.0,1
1203,1203,-0.09508832406924184,-0.1,1.0,0.0,478.0,842.0,0.0,0,1680.0,1
1204,1204,0.013690295973622368,0.0,0.0,0.0,309.0,538.0,0.0,1,2153.0,1
1205,1205,0.5920406219809548,0.6,1.0,1.0,454.0,989.0,1.0,1,257.0,1
1206,1206,-0.0793612716060138,-0.1,1.0,0.0,329.0,910.0,0.0,0,1331.0,1
1207,1207,0.17862989767164528,0.2,0.0,0.0,335.0,605.0,0.0,1,320.0,1
1208,1208,0.006401346492298621,0.0,0.0,0.0,450.0,756.0,0.0,1,1794.0,1
1209,1209,0.13183618761403137,0.1,1.0,1.0,441.0,788.0,1.0,1,1771.0,1
1210,1210,-0.15562276214691628,-0.2,1.0,0.0,444.0,954.0,0.0,0,532.0,1
1211,1211,0.6967224466000966,0.7,0.0,0.0,392.0,694.0,0.0,1,224.0,1
1212,1212,0.6403146865011032,0.6,0.0,0.0,458.0,780.0,0.0,1,562.0,1
1213,1213,0.563034468268058,0.6,0.0,0.0,474.0,849.0,0.0,1,287.0,1
1214,1214,0.7095550384181891,0.7,0.0,0.0,379.0,864.0,0.0,1,417.0,1
1215,1215,0.6034350087443127,0.6,0.0,0.0,425.0,656.0,0.0,1,339.0,1
1216,1216,-0.6885836193484243,-0.7,0.0,1.0,306.0,822.0,1.0,0,232.0,1
1217,1217,0.3672921888550754,0.4,0.0,0.0,467.0,729.0,0.0,1,944.0,1
1218,1218,-0.7744595969969905,-0.8,1.0,0.0,273.0,593.0,0.0,0,654.0,1
1219,1219,-0.37270890652215993,-0.4,1.0,0.0,462.0,982.0,0.0,0,456.0,1
1220,1220,-0.6375961631012204,-0.6,0.0,1.0,383.0,948.0,1.0,0,609.0,1
1221,1221,-0.3886847883126907,-0.4,1.0,0.0,290.0,613.0,0.0,0,657.0,1
1222,1222,0.46540960042911916,0.5,1.0,1.0,311.0,670.0,1.0,1,299.0,1
1223,1223,-0.27708360405275434,-0.3,1.0,0.0,355.0,982.0,0.0,0,993.0,1
1224,1224,0.7232820387380575,0.7,1.0,1.0,444.0,751.0,1.0,1,315.0,1
1225,1225,0.4381243703264758,0.4,1.0,1.0,300.0,533.0,1.0,1,257.0,1
1226,1226,0.47050751978658323,0.5,0.0,0.0,287.0,584.0,0.0,1,1089.0,1
1227,1227,0.7235480510983191,0.7,1.0,1.0,497.0,677.0,1.0,1,106.0,1
1228,1228,-0.6735354902714019,-0.7,1.0,0.0,276.0,798.0,0.0,0,176.0,1
1229,1229,0.020157612162169936,0.0,1.0,1.0,325.0,741.0,1.0,1,1934.0,1
1230,1230,-0.24856906603423745,-0.2,0.0,1.0,488.0,829.0,1.0,0,303.0,1
1231,1231,0.4086953103989611,0.4,0.0,0.0,405.0,625.0,0.0,1,260.0,1
1232,1232,0.7037145116004361,0.7,1.0,1.0,399.0,773.0,1.0,1,378.0,1
1233,1233,0.32913591236513595,0.3,1.0,1.0,340.0,523.0,1.0,1,577.0,1
1234,1234,0.5218733287451628,0.5,0.0,0.0,259.0,612.0,0.0,1,469.0,1
1235,1235,0.7427988528081492,0.7,0.0,0.0,439.0,917.0,0.0,1,234.0,1
1236,1236,0.31750124979951433,0.3,1.0,1.0,453.0,591.0,1.0,1,1136.0,1
1237,1237,0.750305639827037,0.8,1.0,1.0,313.0,868.0,1.0,1,49.0,1
1238,1238,-0.3772691558735136,-0.4,0.0,1.0,484.0,519.0,1.0,0,257.0,1
1239,1239,0.5980285309195327,0.6,1.0,1.0,385.0,726.0,1.0,1,249.0,1
1240,1240,0.37881032990365926,0.4,0.0,0.0,281.0,591.0,0.0,1,868.0,1
1241,1241,0.14726372625457207,0.1,1.0,1.0,327.0,818.0,1.0,1,425.0,1
1242,1242,-0.8263555134678047,-0.8,1.0,0.0,260.0,869.0,0.0,0,291.0,1
1243,1243,-0.5015280245264804,-0.5,1.0,0.0,467.0,531.0,0.0,0,762.0,1
1244,1244,-0.2640655568507916,-0.3,1.0,0.0,348.0,572.0,0.0,0,810.0,1
1245,1245,-0.1491395859186181,-0.1,1.0,0.0,447.0,717.0,0.0,0,766.0,1
1246,1246,-0.3226328427272984,-0.3,0.0,1.0,292.0,737.0,1.0,0,651.0,1
1247,1247,-0.2253330236059985,-0.2,0.0,1.0,446.0,728.0,1.0,0,616.0,1
1248,1248,-0.3678451552581953,-0.4,1.0,0.0,306.0,947.0,0.0,0,917.0,1
1249,1249,0.5645056469796826,0.6,1.0,1.0,412.0,746.0,1.0,1,332.0,1
1250,1250,-0.5973235627346206,-0.6,0.0,1.0,344.0,910.0,1.0,0,686.0,1
1251,1251,-0.8714746178991616,-0.9,0.0,1.0,289.0,674.0,1.0,0,177.0,1
1252,1252,0.11450278602337549,0.1,0.0,0.0,446.0,763.0,0.0,1,1791.0,1
1253,1253,-0.5880619474016529,-0.6,0.0,1.0,381.0,644.0,1.0,0,345.0,1
1254,1254,0.5681044963838425,0.6,1.0,1.0,381.0,674.0,1.0,1,515.0,1
1255,1255,0.13581926591691562,0.1,0.0,0.0,383.0,912.0,0.0,1,1175.0,1
1256,1256,-0.7357986762361511,-0.7,0.0,1.0,311.0,916.0,1.0,0,723.0,1
1257,1257,0.03405654606399888,0.0,0.0,0.0,492.0,618.0,0.0,1,1890.0,1
1258,1258,-0.13761008533763763,-0.1,1.0,0.0,492.0,956.0,0.0,0,972.0,1
1259,1259,0.5485710365100093,0.5,0.0,0.0,479.0,980.0,0.0,1,581.0,1
1260,1260,0.8944508201830274,0.9,0.0,0.0,453.0,740.0,0.0,1,417.0,1
1261,1261,0.07028045423173024,0.1,0.0,0.0,358.0,658.0,1.0,0,1984.0,0
1262,1262,0.2503959516103552,0.3,1.0,1.0,363.0,648.0,1.0,1,1429.0,1
1263,1263,-0.8103060385245261,-0.8,0.0,1.0,262.0,902.0,1.0,0,566.0,1
1264,1264,0.5141061783149442,0.5,0.0,0.0,436.0,807.0,0.0,1,577.0,1
1265,1265,-0.8076587140010183,-0.8,0.0,1.0,460.0,819.0,1.0,0,611.0,1
1266,1266,-0.27884227869587497,-0.3,1.0,0.0,461.0,869.0,0.0,0,1670.0,1
1267,1267,0.2982648831993343,0.3,0.0,0.0,464.0,946.0,0.0,1,1590.0,1
1268,1268,0.6840491588967809,0.7,1.0,1.0,283.0,548.0,1.0,1,229.0,1
1269,1269,0.5442186148689901,0.5,0.0,0.0,315.0,663.0,0.0,1,942.0,1
1270,1270,0.4036957894271934,0.4,1.0,1.0,278.0,529.0,1.0,1,693.0,1
1271,1271,-0.19594402120201848,-0.2,1.0,0.0,257.0,750.0,0.0,0,1903.0,1
1272,1272,-0.8459630177887696,-0.8,0.0,1.0,326.0,811.0,1.0,0,503.0,1
1273,1273,0.7114776667670161,0.7,1.0,1.0,369.0,621.0,1.0,1,250.0,1
1274,1274,0.6596887796946534,0.7,0.0,0.0,401.0,611.0,0.0,1,258.0,1
1275,1275,0.6153320154917387,0.6,1.0,1.0,264.0,657.0,1.0,1,309.0,1
1276,1276,-0.8737954690504659,-0.9,1.0,0.0,455.0,741.0,0.0,0,394.0,1
1277,1277,-0.24896501819266526,-0.2,1.0,0.0,353.0,548.0,0.0,0,1009.0,1
1278,1278,0.3432676811547176,0.3,0.0,0.0,434.0,936.0,0.0,1,1050.0,1
1279,1279,0.2320327389689304,0.2,0.0,0.0,269.0,866.0,0.0,1,1225.0,1
1280,1280,0.11146387508991096,0.1,0.0,0.0,405.0,531.0,0.0,1,2064.0,1
1281,1281,0.721395601097739,0.7,0.0,0.0,498.0,804.0,0.0,1,1118.0,1
1282,1282,0.30477810400868866,0.3,1.0,1.0,404.0,538.0,1.0,1,258.0,1
1283,1283,-0.19708085889441074,-0.2,0.0,1.0,263.0,814.0,1.0,0,-7.0,1
1284,1284,-0.001452112299852315,-0.0,0.0,1.0,462.0,815.0,1.0,0,1723.0,1
1285,1285,0.6604707185447706,0.7,0.0,0.0,434.0,668.0,0.0,1,378.0,1
1286,1286,-0.04331034449475546,-0.0,0.0,1.0,331.0,544.0,0.0,1,2035.0,0
1287,1287,-0.5546958380193037,-0.6,1.0,0.0,335.0,575.0,0.0,0,250.0,1
1288,1288,-0.11305724177757404,-0.1,0.0,1.0,268.0,856.0,1.0,0,1876.0,1
1289,1289,0.07279588372758194,0.1,0.0,0.0,456.0,533.0,0.0,1,2011.0,1
1290,1290,0.7210673411716352,0.7,1.0,1.0,258.0,780.0,1.0,1,2.0,1
1291,1291,-0.1083630039626099,-0.1,1.0,0.0,263.0,837.0,0.0,0,1100.0,1
1292,1292,-0.055213474509237526,-0.1,1.0,0.0,344.0,751.0,0.0,0,1905.0,1
1293,1293,-0.8832163679637817,-0.9,1.0,0.0,455.0,913.0,0.0,0,302.0,1
1294,1294,-0.7987228085564879,-0.8,1.0,0.0,374.0,592.0,0.0,0,834.0,1
1295,1295,0.43516455015572186,0.4,1.0,1.0,480.0,523.0,1.0,1,447.0,1
1296,1296,-0.6493230801060517,-0.6,0.0,1.0,426.0,547.0,1.0,0,447.0,1
1297,1297,0.6500710648925413,0.7,1.0,1.0,489.0,610.0,1.0,1,211.0,1
1298,1298,0.4037376941510483,0.4,1.0,1.0,417.0,547.0,1.0,1,216.0,1
1299,1299,0.15444845265452922,0.2,0.0,0.0,477.0,721.0,0.0,1,1412.0,1
1300,1300,0.010680302832328459,0.0,0.0,0.0,452.0,988.0,0.0,1,1560.0,1
1301,1301,-0.2531077866984257,-0.3,0.0,1.0,484.0,737.0,1.0,0,629.0,1
1302,1302,0.5679494126723402,0.6,1.0,1.0,348.0,796.0,1.0,1,156.0,1
1303,1303,-0.8631957107004085,-0.9,1.0,0.0,389.0,671.0,0.0,0,370.0,1
1304,1304,-0.13994334481486415,-0.1,0.0,1.0,340.0,771.0,1.0,0,1449.0,1
1305,1305,0.1318842561507908,0.1,0.0,0.0,328.0,699.0,0.0,1,1973.0,1
1306,1306,0.42300095569176255,0.4,0.0,0.0,253.0,602.0,0.0,1,795.0,1
1307,1307,-0.40712773612374586,-0.4,0.0,1.0,270.0,941.0,1.0,0,459.0,1
1308,1308,0.8475091573955057,0.8,1.0,1.0,258.0,962.0,1.0,1,160.0,1
1309,1309,-0.7740521181337626,-0.8,1.0,0.0,443.0,883.0,0.0,0,304.0,1
1310,1310,0.18421580714491614,0.2,0.0,0.0,341.0,910.0,0.0,1,249.0,1
1311,1311,-0.029855442821013156,-0.0,0.0,1.0,477.0,985.0,1.0,0,1538.0,1
1312,1312,0.778534127938289,0.8,1.0,1.0,493.0,857.0,1.0,1,230.0,1
1313,1313,-0.6744890834454688,-0.7,0.0,1.0,396.0,615.0,1.0,0,279.0,1
1314,1314,-0.4055249965658257,-0.4,1.0,0.0,259.0,589.0,0.0,0,222.0,1
1315,1315,0.1423798830658224,0.1,0.0,0.0,429.0,546.0,0.0,1,2025.0,1
1316,1316,-0.15215635307631037,-0.2,0.0,1.0,253.0,647.0,1.0,0,2100.0,1
1317,1317,0.6255162966473925,0.6,0.0,0.0,372.0,623.0,0.0,1,255.0,1
1318,1318,-0.6936388068661149,-0.7,0.0,1.0,342.0,964.0,1.0,0,294.0,1
1319,1319,0.42817024393268166,0.4,1.0,1.0,459.0,844.0,1.0,1,447.0,1
1320,1320,0.5501383106416994,0.6,1.0,1.0,399.0,573.0,1.0,1,348.0,1
1321,1321,-0.8711996075090109,-0.9,1.0,0.0,495.0,621.0,0.0,0,284.0,1
1322,1322,-0.4985150618028212,-0.5,0.0,1.0,382.0,636.0,1.0,0,422.0,1
1323,1323,0.4322376311489168,0.4,1.0,1.0,350.0,741.0,1.0,1,259.0,1
1324,1324,0.6647271465525902,0.7,0.0,0.0,476.0,737.0,0.0,1,257.0,1
1325,1325,-0.20314750108764068,-0.2,0.0,1.0,272.0,950.0,1.0,0,858.0,1
1326,1326,0.6476371179312089,0.6,1.0,1.0,394.0,955.0,1.0,1,131.0,1
1327,1327,-0.2646939431565233,-0.3,0.0,1.0,409.0,850.0,1.0,0,551.0,1
1328,1328,-0.5605436871876286,-0.6,0.0,1.0,418.0,744.0,1.0,0,638.0,1
1329,1329,0.6793444156692513,0.7,1.0,1.0,388.0,935.0,1.0,1,377.0,1
1330,1330,-0.6324399820063389,-0.6,0.0,1.0,481.0,833.0,1.0,0,296.0,1
1331,1331,-0.1001817431300307,-0.1,0.0,1.0,467.0,504.0,1.0,0,659.0,1
1332,1332,-0.2522329144049157,-0.3,1.0,0.0,479.0,722.0,0.0,0,1219.0,1
1333,1333,-0.2769265607524649,-0.3,0.0,1.0,482.0,630.0,1.0,0,508.0,1
1334,1334,-0.08953689537748954,-0.1,0.0,1.0,294.0,920.0,1.0,0,866.0,1
1335,1335,0.09687231577288702,0.1,0.0,0.0,498.0,972.0,0.0,1,1530.0,1
1336,1336,0.20943997502789646,0.2,1.0,1.0,474.0,727.0,1.0,1,1019.0,1
1337,1337,-0.15255513646359664,-0.2,0.0,1.0,350.0,785.0,1.0,0,1865.0,1
1338,1338,0.45192843878980005,0.5,0.0,0.0,306.0,867.0,0.0,1,837.0,1
1339,1339,0.4696017024463556,0.5,0.0,0.0,487.0,746.0,0.0,1,1767.0,1
1340,1340,-0.13191257924770272,-0.1,0.0,1.0,362.0,865.0,1.0,0,1773.0,1
1341,1341,-0.8914465509094163,-0.9,1.0,0.0,359.0,532.0,0.0,0,1799.0,1
1342,1342,-0.031146116365212695,-0.0,0.0,1.0,420.0,724.0,1.0,0,1856.0,1
1343,1343,-0.4480035859184333,-0.4,1.0,0.0,274.0,947.0,0.0,0,249.0,1
1344,1344,-0.1289931197705534,-0.1,1.0,0.0,482.0,664.0,0.0,0,1854.0,1
1345,1345,-0.4016449488509268,-0.4,1.0,0.0,371.0,688.0,0.0,0,661.0,1
1346,1346,-0.21219571623896183,-0.2,1.0,0.0,275.0,584.0,0.0,0,2141.0,1
1347,1347,-0.18200666628131423,-0.2,0.0,1.0,256.0,762.0,1.0,0,1172.0,1
1348,1348,0.5011663844887909,0.5,0.0,0.0,366.0,720.0,0.0,1,344.0,1
1349,1349,-0.17906358956830482,-0.2,0.0,1.0,493.0,972.0,1.0,0,445.0,1
1350,1350,-0.2381464146235005,-0.2,1.0,0.0,437.0,966.0,0.0,0,1137.0,1
1351,1351,0.05879999506377109,0.1,0.0,0.0,357.0,910.0,0.0,1,1733.0,1
1352,1352,-0.5147135742419364,-0.5,1.0,0.0,396.0,741.0,0.0,0,213.0,1
1353,1353,0.6640809708169352,0.7,0.0,0.0,287.0,915.0,0.0,1,248.0,1
1354,1354,0.8588188236392321,0.9,1.0,1.0,260.0,888.0,1.0,1,232.0,1
1355,1355,0.31670366899428715,0.3,1.0,1.0,332.0,987.0,1.0,1,191.0,1
1356,1356,0.7496268904224886,0.7,1.0,1.0,437.0,614.0,1.0,1,109.0,1
1357,1357,-0.31604068516571604,-0.3,0.0,1.0,299.0,729.0,1.0,0,162.0,1
1358,1358,-0.452577403362132,-0.5,1.0,0.0,288.0,626.0,0.0,0,626.0,1
1359,1359,-0.13525114609249622,-0.1,0.0,1.0,318.0,713.0,1.0,0,1939.0,1
1360,1360,-0.5024369426541226,-0.5,0.0,1.0,413.0,799.0,1.0,0,568.0,1
1361,1361,-0.32008257428312326,-0.3,1.0,0.0,387.0,717.0,0.0,0,816.0,1
1362,1362,0.3631502556564513,0.4,0.0,0.0,358.0,664.0,0.0,1,138.0,1
1363,1363,0.21621130656268173,0.2,1.0,1.0,443.0,506.0,1.0,1,1821.0,1
1364,1364,0.7340212699609515,0.7,0.0,0.0,389.0,641.0,0.0,1,400.0,1
1365,1365,0.1671251053201085,0.2,1.0,1.0,313.0,882.0,1.0,1,585.0,1
1366,1366,-0.6332706765221983,-0.6,0.0,1.0,435.0,990.0,1.0,0,305.0,1
1367,1367,-0.8852890518167494,-0.9,1.0,0.0,365.0,909.0,0.0,0,136.0,1
1368,1368,-0.25333474612018436,-0.3,0.0,1.0,439.0,911.0,1.0,0,690.0,1
1369,1369,-0.11230121934230741,-0.1,1.0,0.0,288.0,906.0,1.0,1,-54.0,0
1370,1370,0.210037717300939,0.2,0.0,0.0,468.0,847.0,0.0,1,255.0,1
1371,1371,-0.7362071005449761,-0.7,1.0,0.0,406.0,618.0,0.0,0,796.0,1
1372,1372,-0.41718235232411455,-0.4,1.0,0.0,442.0,889.0,0.0,0,809.0,1
1373,1373,0.043019286872307605,0.0,1.0,1.0,293.0,543.0,1.0,1,1494.0,1
1374,1374,0.1467133668863344,0.1,1.0,1.0,371.0,839.0,1.0,1,1790.0,1
1375,1375,-0.23532456861035644,-0.2,0.0,1.0,250.0,782.0,1.0,0,1188.0,1
1376,1376,-0.6376060693572108,-0.6,0.0,1.0,320.0,924.0,1.0,0,256.0,1
1377,1377,0.7059092041234628,0.7,0.0,0.0,330.0,831.0,0.0,1,349.0,1
1378,1378,0.7013326554056066,0.7,1.0,1.0,462.0,968.0,1.0,1,100.0,1
1379,1379,0.2899883066101562,0.3,1.0,1.0,300.0,949.0,1.0,1,421.0,1
1380,1380,0.38538641805832163,0.4,0.0,0.0,342.0,631.0,0.0,1,607.0,1
1381,1381,-0.06778303730518775,-0.1,0.0,1.0,368.0,578.0,0.0,1,2054.0,0
1382,1382,-0.044032349658071346,-0.0,1.0,0.0,317.0,932.0,1.0,1,581.0,0
1383,1383,0.6671360276869925,0.7,0.0,0.0,423.0,632.0,0.0,1,185.0,1
1384,1384,0.22498763010255185,0.2,0.0,0.0,475.0,832.0,0.0,1,443.0,1
1385,1385,0.21874820673407458,0.2,1.0,1.0,319.0,804.0,1.0,1,497.0,1
1386,1386,0.3302903861479046,0.3,1.0,1.0,471.0,813.0,1.0,1,406.0,1
1387,1387,-0.3188906981795664,-0.3,0.0,1.0,311.0,928.0,1.0,0,1011.0,1
1388,1388,-0.11805939832826806,-0.1,1.0,0.0,349.0,715.0,0.0,0,1936.0,1
1389,1389,0.741888891272949,0.7,0.0,0.0,491.0,611.0,0.0,1,438.0,1
1390,1390,0.5821260821845712,0.6,0.0,0.0,419.0,600.0,0.0,1,1391.0,1
1391,1391,0.3236387333431966,0.3,1.0,1.0,283.0,980.0,1.0,1,427.0,1
1392,1392,-0.26393791860954396,-0.3,0.0,1.0,481.0,879.0,1.0,0,260.0,1
1393,1393,-0.05669368184555512,-0.1,0.0,1.0,440.0,705.0,1.0,0,295.0,1
1394,1394,0.8853256755249698,0.9,1.0,1.0,313.0,660.0,1.0,1,277.0,1
1395,1395,-0.5323291405796078,-0.5,0.0,1.0,302.0,770.0,1.0,0,158.0,1
1396,1396,0.22954676568369392,0.2,1.0,1.0,302.0,786.0,1.0,1,382.0,1
1397,1397,0.4825348997203437,0.5,1.0,1.0,376.0,584.0,1.0,1,310.0,1
1398,1398,-0.44086729582898504,-0.4,1.0,0.0,485.0,825.0,0.0,0,650.0,1
1399,1399,-0.004138709342938696,-0.0,0.0,1.0,280.0,533.0,1.0,0,2167.0,1
1400,1400,0.674521702448117,0.7,1.0,1.0,437.0,635.0,1.0,1,228.0,1
1401,1401,0.17566169441094603,0.2,1.0,1.0,366.0,681.0,1.0,1,373.0,1
1402,1402,0.45289937234614863,0.5,0.0,0.0,402.0,912.0,0.0,1,1686.0,1
1403,1403,-0.671043434680298,-0.7,1.0,0.0,257.0,727.0,0.0,0,186.0,1
1404,1404,0.4037025070604111,0.4,1.0,1.0,278.0,921.0,1.0,1,241.0,1
1405,1405,0.024537968698055246,0.0,0.0,0.0,461.0,937.0,1.0,0,1602.0,0
1406,1406,0.8740267992909069,0.9,1.0,1.0,288.0,517.0,1.0,1,245.0,1
1407,1407,-0.6140993535806281,-0.6,1.0,0.0,427.0,750.0,1.0,1,23.0,0
1408,1408,0.5950031133449155,0.6,0.0,0.0,272.0,549.0,0.0,1,189.0,1
1409,1409,-0.2584828223907474,-0.3,0.0,1.0,451.0,988.0,1.0,0,521.0,1
1410,1410,-0.8284892001084252,-0.8,0.0,1.0,476.0,622.0,1.0,0,282.0,1
1411,1411,-0.29465886157767773,-0.3,0.0,1.0,406.0,635.0,1.0,0,1219.0,1
1412,1412,-0.435862678947946,-0.4,1.0,0.0,432.0,652.0,0.0,0,1076.0,1
1413,1413,-0.7327024091945585,-0.7,1.0,0.0,273.0,965.0,0.0,0,372.0,1
1414,1414,-0.20616309370114116,-0.2,0.0,1.0,313.0,615.0,1.0,0,1492.0,1
1415,1415,0.6425912139231528,0.6,0.0,0.0,353.0,622.0,0.0,1,275.0,1
1416,1416,-0.42473244464213766,-0.4,0.0,1.0,351.0,621.0,1.0,0,368.0,1
1417,1417,-0.7280271716453004,-0.7,0.0,1.0,354.0,776.0,1.0,0,80.0,1
1418,1418,0.5890005053334174,0.6,0.0,0.0,316.0,726.0,0.0,1,608.0,1
1419,1419,0.48348811154609683,0.5,1.0,1.0,252.0,856.0,1.0,1,562.0,1
1420,1420,0.005746928093671944,0.0,1.0,1.0,496.0,633.0,1.0,1,1871.0,1
1421,1421,-0.5338919107796578,-0.5,1.0,0.0,251.0,521.0,0.0,0,518.0,1
1422,1422,-0.25038809328934586,-0.3,0.0,1.0,432.0,740.0,1.0,0,568.0,1
1423,1423,0.3731712753688413,0.4,0.0,0.0,452.0,848.0,0.0,1,440.0,1
1424,1424,-0.11881064544453657,-0.1,0.0,1.0,251.0,964.0,1.0,0,1785.0,1
1425,1425,-0.7218325464556244,-0.7,1.0,0.0,260.0,879.0,0.0,0,771.0,1
1426,1426,-0.4416423335642824,-0.4,1.0,0.0,270.0,585.0,0.0,0,1425.0,1
1427,1427,-0.8440059550781535,-0.8,0.0,1.0,334.0,997.0,1.0,0,99.0,1
1428,1428,0.06869901674558054,0.1,0.0,0.0,449.0,869.0,0.0,1,1682.0,1
1429,1429,-0.8228932894363765,-0.8,0.0,1.0,424.0,633.0,1.0,0,333.0,1
1430,1430,0.3677341860957529,0.4,1.0,1.0,498.0,816.0,1.0,1,416.0,1
1431,1431,-0.46706977354512785,-0.5,1.0,0.0,291.0,660.0,0.0,0,559.0,1
1432,1432,0.5007278022994953,0.5,1.0,1.0,258.0,658.0,1.0,1,124.0,1
1433,1433,0.09520678728766263,0.1,0.0,0.0,386.0,730.0,0.0,1,1884.0,1
1434,1434,0.0993475486126073,0.1,1.0,1.0,487.0,792.0,1.0,1,561.0,1
1435,1435,0.3906824546406341,0.4,0.0,0.0,307.0,889.0,0.0,1,434.0,1
1436,1436,-0.4402906581103578,-0.4,1.0,0.0,453.0,729.0,0.0,0,528.0,1
1437,1437,-0.6177722116299526,-0.6,0.0,1.0,453.0,778.0,1.0,0,459.0,1
1438,1438,0.7866169902582402,0.8,1.0,1.0,439.0,608.0,1.0,1,183.0,1
1439,1439,-0.5918372150762112,-0.6,0.0,1.0,432.0,829.0,1.0,0,449.0,1
1440,1440,0.5391699061845611,0.5,1.0,1.0,283.0,772.0,1.0,1,245.0,1
1441,1441,-0.7341838628095725,-0.7,0.0,1.0,430.0,703.0,1.0,0,387.0,1
1442,1442,-0.7805239450094705,-0.8,0.0,1.0,493.0,686.0,1.0,0,301.0,1
1443,1443,-0.8457969264319728,-0.8,1.0,0.0,302.0,561.0,0.0,0,177.0,1
1444,1444,-0.6338347375953064,-0.6,1.0,0.0,418.0,645.0,0.0,0,347.0,1
1445,1445,-0.49990491361066913,-0.5,1.0,0.0,461.0,983.0,0.0,0,456.0,1
1446,1446,0.8630928741276461,0.9,1.0,1.0,455.0,995.0,1.0,1,170.0,1
1447,1447,0.05385753838257146,0.1,0.0,0.0,470.0,765.0,0.0,1,1125.0,1
1448,1448,0.06689720129564758,0.1,0.0,0.0,478.0,668.0,0.0,1,564.0,1
1449,1449,-0.23162529427585254,-0.2,0.0,1.0,491.0,590.0,1.0,0,399.0,1
1450,1450,-0.30184994802868526,-0.3,1.0,0.0,464.0,618.0,0.0,0,498.0,1
1451,1451,-0.5206651999297315,-0.5,0.0,1.0,318.0,544.0,1.0,0,498.0,1
1452,1452,-0.8957188069835827,-0.9,0.0,1.0,409.0,785.0,1.0,0,46.0,1
1453,1453,0.2226635919523795,0.2,1.0,1.0,353.0,638.0,1.0,1,319.0,1
1454,1454,-0.00848169407372068,-0.0,0.0,1.0,285.0,628.0,0.0,1,1247.0,0
1455,1455,0.553253237029892,0.6,0.0,0.0,327.0,790.0,0.0,1,463.0,1
1456,1456,-0.4390226280937369,-0.4,1.0,0.0,268.0,554.0,0.0,0,578.0,1
1457,1457,0.17336573479533668,0.2,0.0,0.0,480.0,654.0,0.0,1,506.0,1
1458,1458,-0.17810268634382687,-0.2,0.0,1.0,435.0,504.0,1.0,0,911.0,1
1459,1459,0.5919777677440959,0.6,1.0,1.0,429.0,663.0,1.0,1,258.0,1
1460,1460,0.8788296166024919,0.9,0.0,0.0,309.0,804.0,0.0,1,1267.0,1
1461,1461,0.8270955947992055,0.8,1.0,1.0,439.0,541.0,1.0,1,290.0,1
1462,1462,-0.14958353877681385,-0.1,1.0,0.0,322.0,906.0,0.0,0,1772.0,1
1463,1463,-0.4554543341318146,-0.5,0.0,1.0,407.0,975.0,1.0,0,588.0,1
1464,1464,-0.7887968914010887,-0.8,1.0,0.0,350.0,517.0,0.0,0,223.0,1
1465,1465,0.5943768592742719,0.6,1.0,1.0,382.0,665.0,1.0,1,303.0,1
1466,1466,-0.8425437949832985,-0.8,1.0,0.0,279.0,809.0,0.0,0,172.0,1
1467,1467,0.24126484057073172,0.2,0.0,0.0,330.0,565.0,0.0,1,665.0,1
1468,1468,-0.3462123866495169,-0.3,1.0,0.0,394.0,717.0,0.0,0,1609.0,1
1469,1469,-0.76194773217766,-0.8,0.0,1.0,462.0,856.0,1.0,0,392.0,1
1470,1470,-0.3888711881413601,-0.4,0.0,1.0,257.0,866.0,1.0,0,697.0,1
1471,1471,0.6092630956635089,0.6,0.0,0.0,333.0,738.0,0.0,1,449.0,1
1472,1472,0.6039486373866075,0.6,1.0,1.0,471.0,941.0,1.0,1,578.0,1
1473,1473,0.6786462202402744,0.7,1.0,1.0,255.0,693.0,1.0,1,342.0,1
1474,1474,-0.3330219561790382,-0.3,0.0,1.0,475.0,924.0,1.0,0,461.0,1
1475,1475,0.3701552532694842,0.4,0.0,0.0,357.0,691.0,0.0,1,1222.0,1
1476,1476,-0.8854708224035398,-0.9,1.0,0.0,345.0,676.0,0.0,0,309.0,1
1477,1477,0.7134777002727944,0.7,1.0,1.0,285.0,607.0,1.0,1,338.0,1
1478,1478,-0.4606590007509384,-0.5,0.0,1.0,377.0,812.0,1.0,0,321.0,1
1479,1479,0.19108456844611676,0.2,0.0,0.0,375.0,614.0,0.0,1,2011.0,1
1480,1480,-0.5956185968550919,-0.6,0.0,1.0,414.0,590.0,1.0,0,536.0,1
1481,1481,-0.12548902023094888,-0.1,1.0,0.0,312.0,676.0,0.0,0,2012.0,1
1482,1482,-0.8989810328733002,-0.9,1.0,0.0,378.0,580.0,0.0,0,412.0,1
1483,1483,-0.6609407540802784,-0.7,1.0,0.0,397.0,723.0,0.0,0,210.0,1
1484,1484,0.8718666461329091,0.9,0.0,0.0,370.0,594.0,0.0,1,166.0,1
1485,1485,0.6143233577085051,0.6,1.0,1.0,446.0,654.0,1.0,1,-30.0,1
1486,1486,-0.6472804927744311,-0.6,1.0,0.0,449.0,510.0,0.0,0,371.0,1
1487,1487,0.1620131103109249,0.2,1.0,1.0,378.0,833.0,1.0,1,1789.0,1
1488,1488,0.20382003511082647,0.2,1.0,1.0,446.0,678.0,1.0,1,1826.0,1
1489,1489,-0.8034408206433887,-0.8,1.0,0.0,280.0,503.0,0.0,0,277.0,1
