,trial,coherence,coherence_bin,green_side,correct_side,target_onset,checker_onset,decision,green_decision,decision_time,correct_decision
0,0,0.2925657573950745,0.3,0.0,0.0,387.0,956.0,0.0,1,957.0,1
1,1,-0.638155981009114,-0.6,1.0,0.0,327.0,560.0,0.0,0,283.0,1
2,2,0.8393406062574255,0.8,1.0,1.0,254.0,825.0,1.0,1,221.0,1
3,3,-0.792499077592218,-0.8,1.0,0.0,280.0,964.0,0.0,0,146.0,1
4,4,0.12986462104481478,0.1,1.0,1.0,299.0,896.0,1.0,1,985.0,1
5,5,-0.5221234529024412,-0.5,0.0,1.0,457.0,952.0,1.0,0,41.0,1
6,6,-0.5490491349221478,-0.5,1.0,0.0,346.0,715.0,0.0,0,339.0,1
7,7,-0.43013625366471403,-0.4,0.0,1.0,255.0,539.0,1.0,0,96.0,1
8,8,0.8195549580145024,0.8,0.0,0.0,361.0,621.0,0.0,1,198.0,1
9,9,0.4522756079161613,0.5,1.0,1.0,416.0,652.0,1.0,1,162.0,1
10,10,-0.5232449190445775,-0.5,0.0,1.0,478.0,520.0,1.0,0,392.0,1
11,11,0.529940166175691,0.5,0.0,0.0,255.0,973.0,0.0,1,482.0,1
12,12,-0.07161916429011128,-0.1,0.0,1.0,359.0,724.0,1.0,0,1917.0,1
13,13,-0.4058419861095067,-0.4,1.0,0.0,404.0,605.0,0.0,0,241.0,1
14,14,0.46680901717322854,0.5,1.0,1.0,388.0,535.0,1.0,1,407.0,1
15,15,0.31994795756694117,0.3,0.0,0.0,369.0,553.0,0.0,1,2078.0,1
16,16,-0.7456042881121273,-0.7,1.0,0.0,292.0,816.0,0.0,0,382.0,1
17,17,0.5890729985780522,0.6,0.0,0.0,463.0,773.0,0.0,1,334.0,1
18,18,0.5429524283864772,0.5,0.0,0.0,418.0,540.0,0.0,1,322.0,1
19,19,0.01613410333481269,0.0,1.0,1.0,362.0,921.0,1.0,1,1717.0,1
20,20,0.4259991265462132,0.4,0.0,0.0,439.0,904.0,0.0,1,207.0,1
21,21,-0.8915042379619504,-0.9,1.0,0.0,396.0,631.0,0.0,0,173.0,1
22,22,0.37420046161083087,0.4,1.0,1.0,314.0,968.0,1.0,1,498.0,1
23,23,0.3698619860168676,0.4,1.0,1.0,335.0,733.0,1.0,1,592.0,1
24,24,-0.3148995913888205,-0.3,1.0,0.0,488.0,842.0,0.0,0,520.0,1
25,25,-0.5237900453136473,-0.5,1.0,0.0,282.0,647.0,0.0,0,261.0,1
26,26,-0.8032992176416345,-0.8,1.0,0.0,418.0,889.0,0.0,0,173.0,1
27,27,-0.20824710127092017,-0.2,1.0,0.0,467.0,570.0,0.0,0,973.0,1
28,28,-0.057269151524973805,-0.1,1.0,0.0,366.0,857.0,0.0,0,1497.0,1
29,29,-0.2726771145350724,-0.3,0.0,1.0,401.0,757.0,1.0,0,522.0,1
30,30,0.17973966728141988,0.2,1.0,1.0,284.0,655.0,1.0,1,1021.0,1
31,31,0.5289120139049458,0.5,0.0,0.0,435.0,883.0,0.0,1,252.0,1
32,32,-0.11001679228283467,-0.1,1.0,0.0,491.0,736.0,0.0,0,1773.0,1
33,33,-0.05904175815457746,-0.1,1.0,0.0,447.0,987.0,0.0,0,1566.0,1
34,34,0.4971301383387684,0.5,1.0,1.0,413.0,755.0,1.0,1,132.0,1
35,35,0.6046448099191356,0.6,0.0,0.0,418.0,958.0,0.0,1,344.0,1
36,36,0.4849044840540869,0.5,1.0,1.0,307.0,963.0,0.0,0,-360.0,0
37,37,0.7633635725194502,0.8,0.0,0.0,475.0,647.0,0.0,1,348.0,1
38,38,-0.6363695302478162,-0.6,1.0,0.0,396.0,530.0,0.0,0,194.0,1
39,39,0.2698288615971812,0.3,0.0,0.0,407.0,843.0,0.0,1,480.0,1
40,40,-0.0679923582520876,-0.1,0.0,1.0,393.0,796.0,1.0,0,901.0,1
41,41,-0.03600245686382797,-0.0,1.0,0.0,379.0,646.0,0.0,0,1975.0,1
42,42,0.7805914744892709,0.8,1.0,1.0,442.0,731.0,1.0,1,297.0,1
43,43,0.1899791203554485,0.2,0.0,0.0,267.0,728.0,0.0,1,2005.0,1
44,44,0.629629991535087,0.6,0.0,0.0,443.0,694.0,0.0,1,263.0,1
45,45,0.8654726659850748,0.9,1.0,1.0,295.0,504.0,1.0,1,341.0,1
46,46,-0.09150215766581715,-0.1,0.0,1.0,289.0,853.0,1.0,0,378.0,1
47,47,-0.39811261638715634,-0.4,1.0,0.0,390.0,634.0,0.0,0,616.0,1
48,48,-0.7170814174076965,-0.7,0.0,1.0,351.0,796.0,1.0,0,273.0,1
49,49,0.5337832862181998,0.5,1.0,1.0,370.0,517.0,1.0,1,253.0,1
50,50,0.8330804827903208,0.8,0.0,0.0,449.0,535.0,0.0,1,166.0,1
51,51,0.7014448950269264,0.7,1.0,1.0,340.0,712.0,1.0,1,158.0,1
52,52,0.48581254361174897,0.5,1.0,1.0,365.0,516.0,1.0,1,329.0,1
53,53,-0.8396127233715234,-0.8,0.0,1.0,276.0,679.0,1.0,0,195.0,1
54,54,0.7170280933066256,0.7,1.0,1.0,294.0,537.0,1.0,1,249.0,1
55,55,0.2031590336460981,0.2,0.0,0.0,309.0,521.0,0.0,1,1320.0,1
56,56,0.013932990625124653,0.0,1.0,1.0,490.0,684.0,1.0,1,1826.0,1
57,57,-0.3609069437080953,-0.4,1.0,0.0,481.0,694.0,0.0,0,595.0,1
58,58,0.6667151877210201,0.7,1.0,1.0,269.0,710.0,1.0,1,211.0,1
59,59,-0.27005800022021687,-0.3,0.0,1.0,308.0,841.0,1.0,0,461.0,1
60,60,0.48020061709077944,0.5,1.0,1.0,493.0,751.0,1.0,1,246.0,1
61,61,-0.7142331301033491,-0.7,0.0,1.0,469.0,704.0,1.0,0,247.0,1
62,62,-0.7208195868118945,-0.7,1.0,0.0,426.0,966.0,0.0,0,408.0,1
63,63,0.7326076929378108,0.7,1.0,1.0,389.0,517.0,1.0,1,154.0,1
64,64,0.10442330864337157,0.1,1.0,1.0,378.0,760.0,1.0,1,782.0,1
65,65,-0.08169348178169011,-0.1,0.0,1.0,370.0,595.0,1.0,0,815.0,1
66,66,-0.7887319008941294,-0.8,1.0,0.0,388.0,918.0,0.0,0,224.0,1
67,67,-0.10255239222589174,-0.1,1.0,0.0,279.0,546.0,0.0,0,775.0,1
68,68,0.6453672982808508,0.6,0.0,0.0,372.0,591.0,0.0,1,497.0,1
69,69,-0.17474355595247615,-0.2,0.0,1.0,250.0,524.0,1.0,0,366.0,1
70,70,0.7524006918816036,0.8,0.0,0.0,316.0,833.0,0.0,1,151.0,1
71,71,0.8640798912063071,0.9,0.0,0.0,318.0,834.0,0.0,1,178.0,1
72,72,-0.25420820494522733,-0.3,1.0,0.0,340.0,815.0,0.0,0,625.0,1
73,73,0.19196429635645063,0.2,0.0,0.0,470.0,873.0,0.0,1,1427.0,1
74,74,0.08130774485699621,0.1,0.0,0.0,268.0,644.0,1.0,0,2088.0,0
75,75,-0.21047189203052374,-0.2,0.0,1.0,323.0,692.0,1.0,0,375.0,1
76,76,-0.2101580881787578,-0.2,1.0,0.0,252.0,842.0,0.0,0,636.0,1
77,77,-0.29636480925692177,-0.3,0.0,1.0,440.0,893.0,1.0,0,467.0,1
78,78,0.240009795123438,0.2,0.0,0.0,414.0,824.0,0.0,1,1152.0,1
79,79,0.2642961484756171,0.3,0.0,0.0,366.0,624.0,0.0,1,1670.0,1
80,80,-0.024576753453492306,-0.0,1.0,0.0,442.0,909.0,0.0,0,1649.0,1
81,81,-0.559574518024063,-0.6,0.0,1.0,315.0,660.0,1.0,0,175.0,1
82,82,-0.7784273906935782,-0.8,1.0,0.0,383.0,563.0,0.0,0,194.0,1
83,83,-0.17426619830414103,-0.2,0.0,1.0,470.0,842.0,1.0,0,1198.0,1
84,84,-0.8472576592869536,-0.8,1.0,0.0,492.0,555.0,0.0,0,423.0,1
85,85,0.5115108645178589,0.5,0.0,0.0,461.0,691.0,0.0,1,588.0,1
86,86,-0.49069109711210335,-0.5,1.0,0.0,281.0,652.0,0.0,0,207.0,1
87,87,-0.10482016442350484,-0.1,0.0,1.0,407.0,938.0,1.0,0,1655.0,1
88,88,-0.8916190769238868,-0.9,0.0,1.0,377.0,777.0,1.0,0,216.0,1
89,89,-0.1231030005590601,-0.1,1.0,0.0,256.0,832.0,0.0,0,1912.0,1
90,90,0.7437937512407674,0.7,0.0,0.0,266.0,734.0,0.0,1,600.0,1
91,91,0.6426374057100485,0.6,1.0,1.0,305.0,871.0,1.0,1,304.0,1
92,92,0.7912067431250817,0.8,0.0,0.0,457.0,950.0,0.0,1,263.0,1
93,93,0.40915429132729886,0.4,0.0,0.0,394.0,851.0,0.0,1,455.0,1
94,94,0.7406269767150061,0.7,1.0,1.0,488.0,534.0,1.0,1,138.0,1
95,95,-0.18000952913313528,-0.2,1.0,0.0,419.0,761.0,0.0,0,1820.0,1
96,96,0.08153452118411841,0.1,0.0,0.0,340.0,996.0,0.0,1,1664.0,1
97,97,0.05047645241696985,0.1,0.0,0.0,395.0,808.0,0.0,1,1797.0,1
98,98,-0.7643933333353469,-0.8,1.0,0.0,268.0,604.0,0.0,0,268.0,1
99,99,-0.257374711615484,-0.3,1.0,0.0,278.0,795.0,0.0,0,507.0,1
100,100,0.13961092581290446,0.1,1.0,1.0,317.0,513.0,1.0,1,2170.0,1
101,101,-0.4078209551252226,-0.4,1.0,0.0,436.0,849.0,0.0,0,255.0,1
102,102,-0.8522525643473529,-0.9,1.0,0.0,380.0,882.0,0.0,0,198.0,1
103,103,0.8216924785125387,0.8,1.0,1.0,346.0,846.0,1.0,1,98.0,1
104,104,0.07900715619209087,0.1,0.0,0.0,447.0,936.0,1.0,0,1617.0,0
105,105,0.2864371116356944,0.3,1.0,1.0,461.0,826.0,1.0,1,893.0,1
106,106,-0.6096248442969565,-0.6,1.0,0.0,363.0,808.0,0.0,0,339.0,1
107,107,0.003934359796511355,0.0,1.0,1.0,263.0,716.0,1.0,1,2021.0,1
108,108,0.8374862057450828,0.8,0.0,0.0,498.0,995.0,0.0,1,237.0,1
109,109,-0.13975694315213205,-0.1,1.0,0.0,412.0,550.0,0.0,0,1448.0,1
110,110,0.25957538036461514,0.3,0.0,0.0,411.0,584.0,0.0,1,745.0,1
111,111,0.37391658778938275,0.4,1.0,1.0,408.0,915.0,1.0,1,287.0,1
112,112,0.7398841816634697,0.7,0.0,0.0,337.0,660.0,0.0,1,83.0,1
113,113,-0.09197721873665143,-0.1,1.0,0.0,253.0,833.0,0.0,0,1914.0,1
114,114,-0.7084904350113436,-0.7,1.0,0.0,381.0,864.0,0.0,0,305.0,1
115,115,-0.41167266434820177,-0.4,0.0,1.0,360.0,862.0,1.0,0,328.0,1
116,116,-0.5331280491378265,-0.5,1.0,0.0,263.0,742.0,0.0,0,185.0,1
117,117,0.8029758581169323,0.8,1.0,1.0,309.0,933.0,1.0,1,318.0,1
118,118,0.6715722355929853,0.7,1.0,1.0,351.0,615.0,1.0,1,344.0,1
119,119,-0.6176603165704999,-0.6,0.0,1.0,256.0,546.0,1.0,0,298.0,1
120,120,0.017029818853027456,0.0,0.0,0.0,296.0,957.0,1.0,0,1747.0,0
121,121,-0.05236519128207351,-0.1,1.0,0.0,262.0,541.0,0.0,0,1697.0,1
122,122,0.27913474238594016,0.3,1.0,1.0,479.0,765.0,1.0,1,256.0,1
123,123,-0.8587283467640497,-0.9,1.0,0.0,270.0,905.0,0.0,0,85.0,1
124,124,-0.3437383451794429,-0.3,1.0,0.0,474.0,979.0,0.0,0,507.0,1
125,125,0.657727651835711,0.7,0.0,0.0,384.0,889.0,0.0,1,357.0,1
126,126,-0.33506033112061195,-0.3,1.0,0.0,374.0,922.0,0.0,0,664.0,1
127,127,-0.26118279420303814,-0.3,0.0,1.0,376.0,543.0,1.0,0,351.0,1
128,128,-0.30285303457445134,-0.3,1.0,0.0,321.0,975.0,1.0,1,-76.0,0
129,129,-0.38444678174842595,-0.4,1.0,0.0,400.0,601.0,0.0,0,849.0,1
130,130,-0.8698228490127163,-0.9,1.0,0.0,480.0,860.0,0.0,0,320.0,1
131,131,-0.8301690354307981,-0.8,1.0,0.0,264.0,799.0,0.0,0,397.0,1
132,132,-0.03342822612172147,-0.0,0.0,1.0,412.0,949.0,1.0,0,1639.0,1
133,133,0.6862506891806214,0.7,1.0,1.0,250.0,623.0,1.0,1,267.0,1
134,134,0.412895571638369,0.4,0.0,0.0,331.0,577.0,0.0,1,432.0,1
135,135,-0.46755908328501244,-0.5,0.0,1.0,439.0,781.0,1.0,0,370.0,1
136,136,-0.5128200786335357,-0.5,0.0,1.0,361.0,892.0,1.0,0,197.0,1
137,137,0.6695147641214308,0.7,0.0,0.0,381.0,811.0,0.0,1,308.0,1
138,138,-0.26736778329935773,-0.3,0.0,1.0,258.0,921.0,1.0,0,221.0,1
139,139,0.7505883881707053,0.8,0.0,0.0,267.0,652.0,0.0,1,251.0,1
140,140,-0.5651259173311323,-0.6,0.0,1.0,487.0,814.0,1.0,0,209.0,1
141,141,-0.6316384767966791,-0.6,1.0,0.0,457.0,584.0,0.0,0,259.0,1
142,142,-0.7717549510046962,-0.8,1.0,0.0,407.0,560.0,0.0,0,183.0,1
143,143,0.6397987770837986,0.6,1.0,1.0,450.0,815.0,1.0,1,275.0,1
144,144,-0.04380524009344233,-0.0,1.0,0.0,287.0,811.0,0.0,0,1902.0,1
145,145,-0.06040369257665701,-0.1,0.0,1.0,447.0,875.0,1.0,0,1658.0,1
146,146,-0.6392930901086624,-0.6,1.0,0.0,294.0,721.0,0.0,0,325.0,1
147,147,-0.47014628608180414,-0.5,1.0,0.0,463.0,601.0,0.0,0,716.0,1
148,148,0.48757129074282346,0.5,0.0,0.0,313.0,661.0,0.0,1,146.0,1
149,149,0.1794878287418199,0.2,0.0,0.0,356.0,953.0,0.0,1,1361.0,1
150,150,-0.4257438873408304,-0.4,0.0,1.0,304.0,736.0,1.0,0,470.0,1
151,151,-0.2011923317551605,-0.2,0.0,1.0,451.0,521.0,1.0,0,638.0,1
152,152,-0.4492595123537252,-0.4,0.0,1.0,496.0,628.0,1.0,0,126.0,1
153,153,-0.7237657799180719,-0.7,0.0,1.0,300.0,606.0,1.0,0,474.0,1
154,154,0.03266048212141215,0.0,0.0,0.0,342.0,507.0,1.0,0,2151.0,0
155,155,-0.8451971379478792,-0.8,1.0,0.0,495.0,720.0,0.0,0,305.0,1
156,156,0.11210848457610922,0.1,1.0,1.0,378.0,705.0,1.0,1,397.0,1
157,157,0.0453171123159688,0.0,1.0,1.0,343.0,839.0,1.0,1,738.0,1
158,158,0.6933305240454716,0.7,1.0,1.0,253.0,631.0,1.0,1,246.0,1
159,159,0.6141584002485011,0.6,0.0,0.0,462.0,841.0,0.0,1,377.0,1
160,160,0.48073110930422247,0.5,0.0,0.0,295.0,529.0,0.0,1,676.0,1
161,161,-0.35508231521846556,-0.4,1.0,0.0,382.0,777.0,0.0,0,1101.0,1
162,162,0.6159761929374429,0.6,1.0,1.0,299.0,974.0,1.0,1,347.0,1
163,163,0.04741320983829156,0.0,1.0,1.0,331.0,939.0,0.0,0,1730.0,0
164,164,-0.5890518113153151,-0.6,1.0,0.0,371.0,905.0,0.0,0,474.0,1
165,165,0.35330749237826875,0.4,1.0,1.0,311.0,916.0,1.0,1,103.0,1
166,166,-0.8797980651045832,-0.9,0.0,1.0,401.0,613.0,1.0,0,156.0,1
167,167,-0.39461838723501497,-0.4,0.0,1.0,278.0,912.0,1.0,0,190.0,1
168,168,0.5558013168311539,0.6,0.0,0.0,347.0,604.0,0.0,1,149.0,1
169,169,0.591856334190162,0.6,1.0,1.0,399.0,538.0,1.0,1,343.0,1
170,170,0.21483194170790798,0.2,0.0,0.0,370.0,658.0,0.0,1,1792.0,1
171,171,0.5028643342913369,0.5,1.0,1.0,260.0,871.0,1.0,1,159.0,1
172,172,-0.48017114294578245,-0.5,0.0,1.0,338.0,777.0,1.0,0,415.0,1
173,173,-0.88345599892086,-0.9,1.0,0.0,417.0,651.0,0.0,0,282.0,1
174,174,0.2818274866107252,0.3,1.0,1.0,360.0,875.0,1.0,1,935.0,1
175,175,0.714973083408985,0.7,0.0,0.0,387.0,774.0,0.0,1,619.0,1
176,176,-0.6686622780381406,-0.7,1.0,0.0,348.0,652.0,0.0,0,220.0,1
177,177,-0.38265562535397946,-0.4,1.0,0.0,346.0,751.0,0.0,0,703.0,1
178,178,0.2650621631239166,0.3,1.0,1.0,433.0,977.0,1.0,1,500.0,1
179,179,-0.7086579227360802,-0.7,1.0,0.0,414.0,954.0,0.0,0,152.0,1
180,180,-0.5959782359677142,-0.6,0.0,1.0,398.0,728.0,1.0,0,154.0,1
181,181,0.23949681225793784,0.2,0.0,0.0,335.0,681.0,0.0,1,794.0,1
182,182,0.7239582739097282,0.7,1.0,1.0,304.0,989.0,1.0,1,217.0,1
183,183,-0.2651886508490042,-0.3,0.0,1.0,267.0,640.0,1.0,0,453.0,1
184,184,0.0480844499592058,0.0,0.0,0.0,402.0,879.0,1.0,0,1719.0,0
185,185,-0.2683374450491992,-0.3,0.0,1.0,417.0,746.0,1.0,0,457.0,1
186,186,0.8500268638179197,0.9,1.0,1.0,336.0,588.0,1.0,1,116.0,1
187,187,-0.006363566271582299,-0.0,0.0,1.0,358.0,778.0,0.0,1,1864.0,0
188,188,0.08352587726046645,0.1,0.0,0.0,356.0,925.0,0.0,1,1719.0,1
189,189,0.393424257360803,0.4,1.0,1.0,492.0,513.0,1.0,1,265.0,1
190,190,-0.8083793573646814,-0.8,0.0,1.0,348.0,724.0,1.0,0,178.0,1
191,191,-0.5429108480408575,-0.5,0.0,1.0,276.0,824.0,1.0,0,340.0,1
192,192,-0.7354173679605124,-0.7,0.0,1.0,462.0,983.0,1.0,0,265.0,1
193,193,-0.49880482077827054,-0.5,0.0,1.0,477.0,617.0,1.0,0,306.0,1
194,194,0.5896031573911101,0.6,0.0,0.0,432.0,763.0,0.0,1,525.0,1
195,195,-0.7283059354289136,-0.7,1.0,0.0,469.0,776.0,0.0,0,355.0,1
196,196,0.37452593897528874,0.4,0.0,0.0,424.0,960.0,0.0,1,696.0,1
197,197,0.6038470235186041,0.6,1.0,1.0,268.0,778.0,1.0,1,234.0,1
198,198,-0.4898331174674891,-0.5,1.0,0.0,395.0,856.0,0.0,0,369.0,1
199,199,-0.4523855327015625,-0.5,1.0,0.0,452.0,615.0,0.0,0,213.0,1
200,200,-0.7041610488564443,-0.7,1.0,0.0,498.0,597.0,0.0,0,245.0,1
201,201,0.2527109835746123,0.3,1.0,1.0,373.0,972.0,1.0,1,305.0,1
202,202,0.8553166222217631,0.9,0.0,0.0,448.0,776.0,0.0,1,126.0,1
203,203,0.7351657702550819,0.7,0.0,0.0,479.0,821.0,0.0,1,340.0,1
204,204,0.44620762980684947,0.4,1.0,1.0,430.0,941.0,1.0,1,189.0,1
205,205,0.6798630181694182,0.7,0.0,0.0,272.0,730.0,0.0,1,788.0,1
206,206,-0.02334542217218205,-0.0,1.0,0.0,479.0,899.0,1.0,1,1622.0,0
207,207,-0.7655664687537574,-0.8,0.0,1.0,445.0,545.0,1.0,0,310.0,1
208,208,-0.148128722393005,-0.1,1.0,0.0,395.0,878.0,0.0,0,1017.0,1
209,209,0.4619915685372761,0.5,0.0,0.0,433.0,822.0,0.0,1,675.0,1
210,210,0.3946674763405592,0.4,1.0,1.0,336.0,540.0,1.0,1,374.0,1
211,211,-0.6315370566515701,-0.6,1.0,0.0,336.0,962.0,0.0,0,342.0,1
212,212,-0.8502793715322287,-0.9,0.0,1.0,347.0,957.0,1.0,0,236.0,1
213,213,0.5876399414003947,0.6,1.0,1.0,294.0,602.0,1.0,1,384.0,1
214,214,0.44990031171100464,0.4,1.0,1.0,261.0,505.0,1.0,1,724.0,1
215,215,-0.48360978877800126,-0.5,0.0,1.0,261.0,888.0,1.0,0,401.0,1
216,216,0.6264295527739633,0.6,0.0,0.0,453.0,612.0,0.0,1,255.0,1
217,217,-0.4529256581193828,-0.5,0.0,1.0,310.0,830.0,1.0,0,310.0,1
218,218,-0.8693874487470352,-0.9,0.0,1.0,293.0,668.0,1.0,0,229.0,1
219,219,0.32247415071192853,0.3,1.0,1.0,414.0,550.0,1.0,1,916.0,1
220,220,-0.8161814462121857,-0.8,1.0,0.0,395.0,613.0,0.0,0,352.0,1
221,221,-0.7461097407008607,-0.7,1.0,0.0,342.0,829.0,0.0,0,449.0,1
222,222,-0.4068708751051528,-0.4,1.0,0.0,252.0,559.0,0.0,0,549.0,1
223,223,0.8870661932323397,0.9,1.0,1.0,273.0,888.0,1.0,1,169.0,1
224,224,0.18806533944047132,0.2,0.0,0.0,258.0,546.0,0.0,1,1196.0,1
225,225,-0.5222897627757446,-0.5,0.0,1.0,257.0,508.0,1.0,0,395.0,1
226,226,-0.5152551961024555,-0.5,0.0,1.0,427.0,523.0,1.0,0,380.0,1
227,227,-0.2832165419787338,-0.3,1.0,0.0,291.0,689.0,0.0,0,1250.0,1
228,228,-0.6805417894440215,-0.7,1.0,0.0,479.0,875.0,0.0,0,226.0,1
229,229,0.8049301322733139,0.8,0.0,0.0,408.0,629.0,0.0,1,253.0,1
230,230,0.211288794883279,0.2,0.0,0.0,312.0,894.0,0.0,1,1794.0,1
231,231,-0.11481188044144308,-0.1,1.0,0.0,298.0,762.0,0.0,0,1940.0,1
232,232,0.24445849856732849,0.2,1.0,1.0,455.0,922.0,1.0,1,233.0,1
233,233,-0.4684551070942159,-0.5,0.0,1.0,480.0,815.0,1.0,0,245.0,1
234,234,0.8804200687037406,0.9,0.0,0.0,295.0,827.0,0.0,1,128.0,1
235,235,-0.845587248136012,-0.8,1.0,0.0,428.0,867.0,0.0,0,245.0,1
236,236,-0.6871753616102254,-0.7,0.0,1.0,407.0,590.0,1.0,0,353.0,1
237,237,-0.7939834351596187,-0.8,1.0,0.0,482.0,835.0,0.0,0,723.0,1
238,238,-0.8039774065992809,-0.8,1.0,0.0,411.0,686.0,0.0,0,253.0,1
239,239,-0.2740270428374313,-0.3,1.0,0.0,318.0,756.0,0.0,0,586.0,1
240,240,0.8873947167041015,0.9,1.0,1.0,342.0,637.0,1.0,1,311.0,1
241,241,0.4645301993759342,0.5,0.0,0.0,304.0,867.0,0.0,1,709.0,1
242,242,-0.7264552284099086,-0.7,1.0,0.0,318.0,601.0,0.0,0,381.0,1
243,243,-0.8363245806476645,-0.8,0.0,1.0,494.0,943.0,1.0,0,113.0,1
244,244,0.807738964729087,0.8,1.0,1.0,320.0,596.0,1.0,1,444.0,1
245,245,-0.09847002705590935,-0.1,0.0,1.0,390.0,895.0,1.0,0,1135.0,1
246,246,0.3855053679177084,0.4,1.0,1.0,287.0,601.0,1.0,1,272.0,1
247,247,-0.13458089796701433,-0.1,1.0,0.0,422.0,833.0,0.0,0,1745.0,1
248,248,0.41872527349364297,0.4,0.0,0.0,382.0,594.0,0.0,1,604.0,1
249,249,0.04715938296633304,0.0,1.0,1.0,422.0,812.0,1.0,1,1766.0,1
250,250,-0.11159617227956609,-0.1,0.0,1.0,281.0,914.0,1.0,0,135.0,1
251,251,-0.4264519139382093,-0.4,1.0,0.0,442.0,523.0,0.0,0,325.0,1
252,252,0.14867609371804746,0.1,0.0,0.0,293.0,562.0,0.0,1,2145.0,1
253,253,0.09192604016547468,0.1,0.0,0.0,479.0,947.0,1.0,0,1574.0,0
254,254,-0.5670584527423519,-0.6,1.0,0.0,490.0,575.0,0.0,0,435.0,1
255,255,0.767680997348969,0.8,1.0,1.0,292.0,680.0,1.0,1,168.0,1
256,256,0.5599811637165223,0.6,1.0,1.0,256.0,945.0,1.0,1,319.0,1
257,257,0.8565253003489882,0.9,1.0,1.0,441.0,895.0,1.0,1,174.0,1
258,258,0.3053472955076285,0.3,1.0,1.0,429.0,857.0,1.0,1,484.0,1
259,259,0.7704300785150685,0.8,1.0,1.0,336.0,666.0,1.0,1,238.0,1
260,260,-0.49624703162671746,-0.5,1.0,0.0,398.0,942.0,0.0,0,520.0,1
261,261,0.30462792347863765,0.3,0.0,0.0,362.0,748.0,0.0,1,510.0,1
262,262,0.7537764057774786,0.8,1.0,1.0,434.0,976.0,1.0,1,150.0,1
263,263,-0.34966983674234164,-0.3,1.0,0.0,276.0,885.0,0.0,0,909.0,1
264,264,0.8778388022995912,0.9,0.0,0.0,328.0,798.0,0.0,1,114.0,1
265,265,0.6932865854552169,0.7,0.0,0.0,361.0,516.0,0.0,1,293.0,1
266,266,0.4447769077842588,0.4,1.0,1.0,348.0,596.0,1.0,1,-114.0,1
267,267,-0.5929238744354649,-0.6,0.0,1.0,436.0,612.0,1.0,0,222.0,1
268,268,-0.6502523578758367,-0.7,0.0,1.0,318.0,861.0,1.0,0,591.0,1
269,269,0.05014561525682082,0.1,1.0,1.0,341.0,989.0,1.0,1,1520.0,1
270,270,-0.3267983442685869,-0.3,1.0,0.0,406.0,685.0,0.0,0,669.0,1
271,271,-0.3940090127393233,-0.4,1.0,0.0,362.0,753.0,0.0,0,1885.0,1
272,272,-0.48124169465513444,-0.5,1.0,0.0,396.0,680.0,0.0,0,324.0,1
273,273,-0.38978558459015344,-0.4,1.0,0.0,355.0,679.0,0.0,0,416.0,1
274,274,-0.27133844424625075,-0.3,0.0,1.0,339.0,827.0,1.0,0,514.0,1
275,275,0.08522574581425113,0.1,1.0,1.0,443.0,862.0,1.0,1,1695.0,1
276,276,0.287744178429416,0.3,1.0,1.0,395.0,996.0,1.0,1,1169.0,1
277,277,-0.5722580737237085,-0.6,0.0,1.0,340.0,984.0,1.0,0,306.0,1
278,278,0.5936130091782484,0.6,1.0,1.0,333.0,537.0,1.0,1,190.0,1
279,279,0.38429573444767196,0.4,1.0,1.0,295.0,508.0,1.0,1,457.0,1
280,280,-0.5308440993217269,-0.5,1.0,0.0,379.0,589.0,0.0,0,562.0,1
281,281,-0.06746524911131269,-0.1,1.0,0.0,319.0,615.0,0.0,0,2066.0,1
282,282,-0.20885551070312036,-0.2,1.0,0.0,415.0,847.0,0.0,0,1738.0,1
283,283,0.43612861872942144,0.4,0.0,0.0,456.0,519.0,0.0,1,225.0,1
284,284,0.6639194077911347,0.7,1.0,1.0,410.0,713.0,1.0,1,127.0,1
285,285,-0.6124207356888544,-0.6,0.0,1.0,338.0,546.0,1.0,0,456.0,1
286,286,-0.2273691607834255,-0.2,0.0,1.0,324.0,784.0,1.0,0,762.0,1
287,287,-0.1624718870642501,-0.2,0.0,1.0,397.0,553.0,1.0,0,920.0,1
288,288,-0.7205173798279307,-0.7,0.0,1.0,342.0,616.0,1.0,0,332.0,1
289,289,0.17506230102831,0.2,1.0,1.0,485.0,596.0,1.0,1,1329.0,1
290,290,0.7975204344473065,0.8,1.0,1.0,440.0,934.0,1.0,1,296.0,1
291,291,-0.2696037799934491,-0.3,1.0,0.0,280.0,886.0,0.0,0,874.0,1
292,292,0.2055885759763859,0.2,1.0,1.0,407.0,564.0,1.0,1,49.0,1
293,293,0.06816178922701421,0.1,1.0,1.0,260.0,819.0,1.0,1,1921.0,1
294,294,0.7042249147941689,0.7,0.0,0.0,492.0,579.0,0.0,1,299.0,1
295,295,0.59994398930493,0.6,1.0,1.0,431.0,536.0,1.0,1,183.0,1
296,296,0.23413478424622614,0.2,0.0,0.0,479.0,636.0,0.0,1,1095.0,1
297,297,0.6217583950227098,0.6,1.0,1.0,357.0,717.0,1.0,1,216.0,1
298,298,0.791656119560164,0.8,1.0,1.0,345.0,838.0,1.0,1,157.0,1
299,299,0.6051789145759644,0.6,0.0,0.0,283.0,616.0,0.0,1,361.0,1
300,300,-0.3848638065643828,-0.4,1.0,0.0,396.0,793.0,0.0,0,351.0,1
301,301,-0.25940506844040334,-0.3,0.0,1.0,424.0,776.0,1.0,0,840.0,1
302,302,-0.1977592538476145,-0.2,1.0,0.0,424.0,797.0,0.0,0,859.0,1
303,303,-0.7676671389914344,-0.8,0.0,1.0,409.0,655.0,1.0,0,396.0,1
304,304,0.6549177622890235,0.7,0.0,0.0,273.0,777.0,0.0,1,350.0,1
305,305,-0.6766524850223901,-0.7,1.0,0.0,331.0,715.0,0.0,0,264.0,1
306,306,0.22589028434633074,0.2,1.0,1.0,495.0,970.0,1.0,1,1395.0,1
307,307,-0.42547598954850396,-0.4,1.0,0.0,262.0,767.0,0.0,0,241.0,1
308,308,-0.7321313534868142,-0.7,0.0,1.0,496.0,575.0,1.0,0,429.0,1
309,309,-0.09467623269759895,-0.1,0.0,1.0,319.0,973.0,1.0,0,1708.0,1
310,310,-0.31061766241652833,-0.3,0.0,1.0,431.0,594.0,1.0,0,825.0,1
311,311,0.1572334959976559,0.2,1.0,1.0,479.0,623.0,1.0,1,538.0,1
312,312,0.2983717224070853,0.3,0.0,0.0,456.0,727.0,0.0,1,1817.0,1
313,313,0.6740143991898869,0.7,0.0,0.0,480.0,669.0,0.0,1,231.0,1
314,314,-0.46275015629472255,-0.5,0.0,1.0,477.0,956.0,1.0,0,57.0,1
315,315,0.43379678315661263,0.4,0.0,0.0,258.0,905.0,0.0,1,507.0,1
316,316,0.5037188054699547,0.5,0.0,0.0,446.0,747.0,0.0,1,527.0,1
317,317,-0.4234228917295308,-0.4,1.0,0.0,449.0,589.0,0.0,0,492.0,1
318,318,-0.7115369232408022,-0.7,0.0,1.0,307.0,680.0,1.0,0,103.0,1
319,319,0.7826111542564661,0.8,1.0,1.0,264.0,909.0,1.0,1,147.0,1
320,320,0.48666981781977003,0.5,1.0,1.0,369.0,666.0,1.0,1,195.0,1
321,321,0.6938055961321491,0.7,1.0,1.0,465.0,639.0,1.0,1,226.0,1
322,322,-0.08070391590365023,-0.1,0.0,1.0,472.0,736.0,1.0,0,412.0,1
323,323,0.8179908808804207,0.8,1.0,1.0,307.0,852.0,1.0,1,131.0,1
324,324,-0.3312562812289668,-0.3,0.0,1.0,456.0,573.0,1.0,0,291.0,1
325,325,-0.5956699828678587,-0.6,1.0,0.0,336.0,846.0,0.0,0,238.0,1
326,326,0.5768838043772503,0.6,0.0,0.0,494.0,795.0,0.0,1,251.0,1
327,327,-0.8961442470200659,-0.9,1.0,0.0,341.0,636.0,0.0,0,193.0,1
328,328,-0.3422377506901265,-0.3,1.0,0.0,428.0,583.0,0.0,0,1029.0,1
329,329,-0.12362021584478233,-0.1,0.0,1.0,284.0,540.0,1.0,0,606.0,1
330,330,-0.2702266934465043,-0.3,1.0,0.0,393.0,587.0,0.0,0,600.0,1
331,331,0.08060875763911712,0.1,1.0,1.0,334.0,569.0,1.0,1,2097.0,1
332,332,-0.08359216214937315,-0.1,0.0,1.0,384.0,851.0,1.0,0,1765.0,1
333,333,-0.08888519329754474,-0.1,1.0,0.0,322.0,636.0,1.0,1,2042.0,0
334,334,0.7038160877561147,0.7,1.0,1.0,465.0,715.0,1.0,1,210.0,1
335,335,0.8365535135850769,0.8,0.0,0.0,461.0,768.0,0.0,1,241.0,1
336,336,-0.8223931807824004,-0.8,0.0,1.0,481.0,757.0,1.0,0,202.0,1
337,337,-0.6494909690776498,-0.6,1.0,0.0,421.0,717.0,0.0,0,232.0,1
338,338,-0.46817680387841204,-0.5,1.0,0.0,429.0,653.0,0.0,0,798.0,1
339,339,0.6536185282852901,0.7,1.0,1.0,349.0,729.0,1.0,1,242.0,1
340,340,-0.14941058787256467,-0.1,0.0,1.0,408.0,628.0,1.0,0,1514.0,1
341,341,0.8660670469208486,0.9,1.0,1.0,340.0,829.0,1.0,1,281.0,1
342,342,0.18099470434921383,0.2,1.0,1.0,441.0,807.0,1.0,1,742.0,1
343,343,0.35338125030461687,0.4,1.0,1.0,329.0,852.0,1.0,1,559.0,1
344,344,-0.6045945015132574,-0.6,1.0,0.0,285.0,592.0,0.0,0,243.0,1
345,345,-0.4730180752761379,-0.5,0.0,1.0,277.0,972.0,1.0,0,61.0,1
346,346,0.5987405723428413,0.6,0.0,0.0,356.0,572.0,0.0,1,412.0,1
347,347,0.37049803533495285,0.4,1.0,1.0,262.0,821.0,1.0,1,367.0,1
348,348,-0.3905584258195822,-0.4,1.0,0.0,255.0,809.0,0.0,0,466.0,1
349,349,0.42756475444370345,0.4,0.0,0.0,395.0,647.0,0.0,1,288.0,1
350,350,-0.17576326782201357,-0.2,1.0,0.0,292.0,683.0,0.0,0,2025.0,1
351,351,-0.848784876205597,-0.8,1.0,0.0,314.0,968.0,0.0,0,198.0,1
352,352,-0.8201891625054005,-0.8,1.0,0.0,306.0,878.0,0.0,0,126.0,1
353,353,0.7089667109529535,0.7,0.0,0.0,344.0,720.0,0.0,1,376.0,1
354,354,0.27392827019287747,0.3,1.0,1.0,495.0,987.0,1.0,1,738.0,1
355,355,0.5494571065645483,0.5,1.0,1.0,413.0,504.0,1.0,1,123.0,1
356,356,0.32339850527979686,0.3,1.0,1.0,254.0,962.0,1.0,1,164.0,1
357,357,-0.35536449534702697,-0.4,1.0,0.0,309.0,766.0,0.0,0,325.0,1
358,358,0.3716747156529415,0.4,0.0,0.0,436.0,677.0,0.0,1,1227.0,1
359,359,0.7937066667979326,0.8,1.0,1.0,471.0,731.0,1.0,1,238.0,1
360,360,0.7158045545481498,0.7,0.0,0.0,474.0,654.0,0.0,1,142.0,1
361,361,-0.549298137889058,-0.5,0.0,1.0,259.0,680.0,1.0,0,301.0,1
362,362,-0.4260893771918212,-0.4,0.0,1.0,269.0,737.0,1.0,0,474.0,1
363,363,0.05595161841562479,0.1,0.0,0.0,374.0,691.0,0.0,1,1935.0,1
364,364,0.3308381177577481,0.3,0.0,0.0,476.0,998.0,0.0,1,666.0,1
365,365,-0.7432876872469493,-0.7,0.0,1.0,359.0,722.0,1.0,0,239.0,1
366,366,0.7994753601717429,0.8,0.0,0.0,453.0,962.0,0.0,1,195.0,1
367,367,0.18179248925581126,0.2,0.0,0.0,284.0,577.0,0.0,1,2139.0,1
368,368,0.2928936413893447,0.3,1.0,1.0,262.0,521.0,1.0,1,1027.0,1
369,369,-0.7221024580418799,-0.7,1.0,0.0,481.0,629.0,0.0,0,170.0,1
370,370,-0.04667264209219424,-0.0,0.0,1.0,350.0,957.0,1.0,0,723.0,1
371,371,-0.5947633075975582,-0.6,0.0,1.0,456.0,967.0,1.0,0,137.0,1
372,372,-0.17111554884068159,-0.2,0.0,1.0,293.0,998.0,1.0,0,1489.0,1
373,373,0.6635115244192683,0.7,0.0,0.0,418.0,896.0,0.0,1,326.0,1
374,374,-0.5182946582218746,-0.5,0.0,1.0,330.0,949.0,1.0,0,131.0,1
375,375,-0.41564904595503277,-0.4,0.0,1.0,261.0,997.0,1.0,0,342.0,1
376,376,0.8780563764107211,0.9,0.0,0.0,288.0,682.0,0.0,1,220.0,1
377,377,-0.2296010765627221,-0.2,1.0,0.0,490.0,833.0,0.0,0,367.0,1
378,378,-0.7368335832728341,-0.7,1.0,0.0,269.0,734.0,0.0,0,217.0,1
379,379,0.16142960364932113,0.2,0.0,0.0,364.0,863.0,0.0,1,1773.0,1
380,380,-0.651058930408119,-0.7,1.0,0.0,292.0,706.0,0.0,0,362.0,1
381,381,0.1887049585321049,0.2,1.0,1.0,477.0,820.0,1.0,1,1053.0,1
382,382,0.8802447208820906,0.9,0.0,0.0,494.0,822.0,0.0,1,304.0,1
383,383,-0.03765700591510068,-0.0,1.0,0.0,429.0,605.0,0.0,0,1966.0,1
384,384,0.2621409560681843,0.3,1.0,1.0,474.0,659.0,1.0,1,1057.0,1
385,385,-0.3144956232704724,-0.3,1.0,0.0,479.0,856.0,0.0,0,495.0,1
386,386,0.773094249682024,0.8,0.0,0.0,424.0,589.0,0.0,1,297.0,1
387,387,0.2792089220840718,0.3,1.0,1.0,416.0,879.0,1.0,1,535.0,1
388,388,0.26883206875125965,0.3,0.0,0.0,357.0,507.0,0.0,1,616.0,1
389,389,-0.3635533460123118,-0.4,1.0,0.0,303.0,852.0,0.0,0,435.0,1
390,390,0.39595649995686044,0.4,0.0,0.0,403.0,865.0,0.0,1,302.0,1
391,391,0.03328729915019846,0.0,1.0,1.0,448.0,612.0,1.0,1,1940.0,1
392,392,0.2139831941237521,0.2,1.0,1.0,330.0,996.0,1.0,1,244.0,1
393,393,-0.07169042697742645,-0.1,1.0,0.0,272.0,946.0,1.0,1,1782.0,0
394,394,0.06517804040613895,0.1,1.0,1.0,255.0,728.0,1.0,1,2017.0,1
395,395,-0.6772523274452413,-0.7,0.0,1.0,272.0,875.0,1.0,0,193.0,1
396,396,0.8259661482731674,0.8,0.0,0.0,386.0,538.0,0.0,1,236.0,1
397,397,0.273286876925405,0.3,0.0,0.0,392.0,987.0,0.0,1,881.0,1
398,398,-0.8483380860297045,-0.8,0.0,1.0,272.0,635.0,1.0,0,323.0,1
399,399,0.3233167285742956,0.3,0.0,0.0,312.0,538.0,0.0,1,570.0,1
400,400,-0.5364196920533373,-0.5,0.0,1.0,414.0,909.0,1.0,0,167.0,1
401,401,0.231606234085859,0.2,1.0,1.0,442.0,632.0,1.0,1,466.0,1
402,402,0.11051751548606747,0.1,1.0,1.0,451.0,542.0,1.0,1,1537.0,1
403,403,0.8157857564875476,0.8,0.0,0.0,329.0,879.0,0.0,1,152.0,1
404,404,0.48600992928755915,0.5,0.0,0.0,302.0,906.0,0.0,1,462.0,1
405,405,-0.3552904680462152,-0.4,0.0,1.0,272.0,510.0,1.0,0,278.0,1
406,406,0.4595280275064907,0.5,1.0,1.0,449.0,635.0,1.0,1,386.0,1
407,407,-0.4375783885417717,-0.4,1.0,0.0,378.0,737.0,0.0,0,295.0,1
408,408,-0.7551951016912914,-0.8,1.0,0.0,290.0,714.0,0.0,0,356.0,1
409,409,-0.5068483660535446,-0.5,0.0,1.0,371.0,930.0,1.0,0,59.0,1
410,410,-0.4563640017623624,-0.5,0.0,1.0,408.0,542.0,1.0,0,620.0,1
411,411,-0.28830481826596965,-0.3,1.0,0.0,422.0,601.0,0.0,0,1197.0,1
412,412,-0.6072307523907448,-0.6,1.0,0.0,454.0,971.0,0.0,0,575.0,1
413,413,0.2865573077728044,0.3,0.0,0.0,251.0,598.0,0.0,1,2151.0,1
414,414,0.39182035480258015,0.4,1.0,1.0,290.0,839.0,1.0,1,351.0,1
415,415,0.056776558290622337,0.1,0.0,0.0,495.0,698.0,0.0,1,1807.0,1
416,416,0.7710064664290425,0.8,0.0,0.0,290.0,658.0,0.0,1,402.0,1
417,417,-0.2387769101524735,-0.2,1.0,0.0,405.0,639.0,0.0,0,526.0,1
418,418,0.7809896015767538,0.8,0.0,0.0,340.0,997.0,0.0,1,283.0,1
419,419,0.44921895006867485,0.4,0.0,0.0,358.0,810.0,0.0,1,472.0,1
420,420,-0.34222074920738943,-0.3,1.0,0.0,381.0,599.0,0.0,0,740.0,1
421,421,0.3382392889391411,0.3,0.0,0.0,483.0,577.0,0.0,1,580.0,1
422,422,-0.7677805591019604,-0.8,1.0,0.0,317.0,753.0,0.0,0,300.0,1
423,423,-0.8093254249417235,-0.8,1.0,0.0,346.0,582.0,0.0,0,222.0,1
424,424,0.17519577308165235,0.2,1.0,1.0,291.0,521.0,1.0,1,1298.0,1
425,425,0.36554943811381835,0.4,1.0,1.0,430.0,531.0,1.0,1,299.0,1
426,426,0.30729784486085665,0.3,0.0,0.0,308.0,696.0,0.0,1,816.0,1
427,427,0.0881886178147765,0.1,0.0,0.0,411.0,960.0,0.0,1,1619.0,1
428,428,0.7101967379626962,0.7,1.0,1.0,461.0,874.0,1.0,1,65.0,1
429,429,0.795983582245925,0.8,1.0,1.0,318.0,863.0,1.0,1,239.0,1
430,430,-0.4178127287708109,-0.4,1.0,0.0,378.0,516.0,0.0,0,686.0,1
431,431,0.13062283978306788,0.1,1.0,1.0,273.0,812.0,1.0,1,755.0,1
432,432,0.8452138780521113,0.8,1.0,1.0,461.0,919.0,1.0,1,210.0,1
433,433,0.5074499427355247,0.5,1.0,1.0,377.0,738.0,1.0,1,255.0,1
434,434,-0.16665761085168473,-0.2,0.0,1.0,368.0,912.0,1.0,0,570.0,1
435,435,-0.6979843868779096,-0.7,1.0,0.0,394.0,795.0,0.0,0,421.0,1
436,436,0.06902417336841382,0.1,1.0,1.0,306.0,885.0,1.0,1,749.0,1
437,437,-0.7512730196201886,-0.8,1.0,0.0,307.0,927.0,0.0,0,246.0,1
438,438,0.8593115511788209,0.9,1.0,1.0,338.0,735.0,1.0,1,187.0,1
439,439,-0.07720758082155066,-0.1,1.0,0.0,307.0,538.0,0.0,0,2155.0,1
440,440,-0.8746505139950685,-0.9,0.0,1.0,421.0,890.0,1.0,0,249.0,1
441,441,0.7619861788479932,0.8,1.0,1.0,457.0,558.0,1.0,1,225.0,1
442,442,-0.19459261596338828,-0.2,1.0,0.0,486.0,567.0,0.0,0,547.0,1
443,443,-0.5346732574853872,-0.5,1.0,0.0,394.0,686.0,0.0,0,230.0,1
444,444,0.1479890319143401,0.1,0.0,0.0,386.0,614.0,1.0,0,2000.0,0
445,445,0.21587777247292228,0.2,0.0,0.0,421.0,624.0,0.0,1,1955.0,1
446,446,-0.7193069795485532,-0.7,1.0,0.0,333.0,883.0,0.0,0,224.0,1
447,447,-0.4759088894037467,-0.5,0.0,1.0,481.0,874.0,1.0,0,-165.0,1
448,448,-0.18459260952256085,-0.2,0.0,1.0,324.0,793.0,1.0,0,943.0,1
449,449,0.8251957634801136,0.8,0.0,0.0,301.0,726.0,0.0,1,413.0,1
450,450,-0.32090071601364856,-0.3,0.0,1.0,308.0,945.0,1.0,0,447.0,1
451,451,0.8962892398154122,0.9,0.0,0.0,457.0,507.0,0.0,1,256.0,1
452,452,0.48747355837835615,0.5,1.0,1.0,401.0,852.0,1.0,1,447.0,1
453,453,0.693045594591606,0.7,0.0,0.0,270.0,974.0,0.0,1,216.0,1
454,454,0.7857453839371035,0.8,1.0,1.0,486.0,648.0,1.0,1,106.0,1
455,455,0.8895950095488224,0.9,1.0,1.0,475.0,708.0,1.0,1,257.0,1
456,456,0.35871188949646327,0.4,0.0,0.0,369.0,919.0,0.0,1,202.0,1
457,457,0.44541523480113965,0.4,1.0,1.0,329.0,692.0,1.0,1,589.0,1
458,458,0.8641720388807282,0.9,1.0,1.0,392.0,564.0,1.0,1,504.0,1
459,459,-0.11601138805574973,-0.1,1.0,0.0,436.0,544.0,0.0,0,790.0,1
460,460,0.5391886671585181,0.5,1.0,1.0,482.0,966.0,1.0,1,542.0,1
461,461,0.5791387917791319,0.6,0.0,0.0,359.0,889.0,0.0,1,272.0,1
462,462,-0.3693590512410988,-0.4,0.0,1.0,316.0,701.0,1.0,0,493.0,1
463,463,0.45544610132991925,0.5,0.0,0.0,288.0,607.0,0.0,1,335.0,1
464,464,-0.3081270766671744,-0.3,1.0,0.0,489.0,621.0,0.0,0,950.0,1
465,465,-0.7614390102623283,-0.8,1.0,0.0,363.0,707.0,0.0,0,390.0,1
466,466,0.33714053687512935,0.3,0.0,0.0,268.0,889.0,0.0,1,1703.0,1
467,467,-0.24126032348935955,-0.2,1.0,0.0,493.0,876.0,0.0,0,261.0,1
468,468,0.8872728178038453,0.9,0.0,0.0,278.0,640.0,0.0,1,202.0,1
469,469,-0.11427653325133158,-0.1,0.0,1.0,425.0,939.0,1.0,0,476.0,1
470,470,0.09403796930355257,0.1,1.0,1.0,399.0,859.0,1.0,1,602.0,1
471,471,0.4564601522997832,0.5,1.0,1.0,356.0,658.0,1.0,1,296.0,1
472,472,0.4561581218263503,0.5,0.0,0.0,276.0,635.0,0.0,1,1339.0,1
473,473,-0.1478958946918123,-0.1,1.0,0.0,291.0,718.0,0.0,0,1101.0,1
474,474,0.7680459202084912,0.8,1.0,1.0,383.0,680.0,1.0,1,257.0,1
475,475,-0.1187838243416599,-0.1,1.0,0.0,473.0,656.0,0.0,0,421.0,1
476,476,-0.545322918205066,-0.5,0.0,1.0,434.0,659.0,1.0,0,277.0,1
477,477,0.19023377424027232,0.2,0.0,0.0,338.0,625.0,0.0,1,2037.0,1
478,478,0.5485048874931645,0.5,1.0,1.0,443.0,660.0,1.0,1,547.0,1
479,479,-0.4195983105832778,-0.4,1.0,0.0,445.0,794.0,0.0,0,381.0,1
480,480,0.1463274013092276,0.1,1.0,1.0,302.0,649.0,1.0,1,249.0,1
481,481,0.025801387174304358,0.0,1.0,1.0,413.0,793.0,1.0,1,1794.0,1
482,482,0.17978809676761498,0.2,1.0,1.0,426.0,764.0,1.0,1,510.0,1
483,483,0.17006683255921284,0.2,0.0,0.0,399.0,766.0,0.0,1,1835.0,1
484,484,0.8106369590317325,0.8,1.0,1.0,340.0,668.0,1.0,1,282.0,1
485,485,0.587588452371773,0.6,0.0,0.0,480.0,869.0,0.0,1,351.0,1
486,486,0.783407718644808,0.8,0.0,0.0,364.0,916.0,0.0,1,310.0,1
487,487,0.11877002976314743,0.1,1.0,1.0,499.0,911.0,1.0,1,910.0,1
488,488,0.7374198178542991,0.7,0.0,0.0,312.0,948.0,0.0,1,280.0,1
489,489,0.23131607636927531,0.2,0.0,0.0,395.0,819.0,0.0,1,1786.0,1
490,490,-0.5357829620612784,-0.5,1.0,0.0,316.0,851.0,0.0,0,183.0,1
491,491,0.15955544761759188,0.2,0.0,0.0,444.0,988.0,0.0,1,1568.0,1
492,492,0.8069772463130088,0.8,1.0,1.0,351.0,875.0,1.0,1,304.0,1
493,493,-0.2384737579908326,-0.2,0.0,1.0,379.0,739.0,1.0,0,1562.0,1
494,494,0.5079206897806191,0.5,1.0,1.0,376.0,993.0,1.0,1,261.0,1
495,495,0.023555503294623636,0.0,1.0,1.0,460.0,915.0,1.0,1,855.0,1
496,496,0.13013516369801426,0.1,0.0,0.0,480.0,633.0,0.0,1,1887.0,1
497,497,-0.45381252952826184,-0.5,0.0,1.0,441.0,516.0,1.0,0,233.0,1
498,498,0.5929035183154748,0.6,0.0,0.0,430.0,503.0,0.0,1,517.0,1
499,499,-0.5208032872617401,-0.5,0.0,1.0,333.0,730.0,1.0,0,517.0,1
500,500,-0.60363711150191,-0.6,1.0,0.0,455.0,923.0,0.0,0,272.0,1
501,501,0.7043520388181389,0.7,0.0,0.0,279.0,872.0,0.0,1,339.0,1
502,502,0.19179261033646788,0.2,0.0,0.0,342.0,877.0,0.0,1,491.0,1
503,503,-0.5398018823915784,-0.5,0.0,1.0,308.0,838.0,1.0,0,174.0,1
504,504,0.2949097267917088,0.3,0.0,0.0,393.0,671.0,0.0,1,1706.0,1
505,505,-0.4511249777777933,-0.5,1.0,0.0,495.0,734.0,0.0,0,461.0,1
506,506,-0.37528535949547015,-0.4,0.0,1.0,366.0,556.0,1.0,0,698.0,1
507,507,0.8291874093205157,0.8,1.0,1.0,396.0,522.0,1.0,1,142.0,1
508,508,0.7614318056930663,0.8,1.0,1.0,381.0,685.0,1.0,1,404.0,1
509,509,0.5085264642700839,0.5,0.0,0.0,258.0,910.0,0.0,1,352.0,1
510,510,-0.6898112746744152,-0.7,1.0,0.0,495.0,734.0,0.0,0,511.0,1
511,511,-0.0023132475091193205,-0.0,0.0,1.0,479.0,854.0,1.0,0,1667.0,1
512,512,0.7217434282327998,0.7,0.0,0.0,321.0,983.0,0.0,1,316.0,1
513,513,0.30199663955137057,0.3,0.0,0.0,326.0,653.0,0.0,1,551.0,1
514,514,-0.5050009897027694,-0.5,0.0,1.0,266.0,914.0,1.0,0,400.0,1
515,515,0.05555509752609922,0.1,1.0,1.0,475.0,777.0,1.0,1,1418.0,1
516,516,-0.538101768012082,-0.5,0.0,1.0,418.0,629.0,1.0,0,313.0,1
517,517,-0.713422520448973,-0.7,1.0,0.0,369.0,723.0,0.0,0,158.0,1
518,518,-0.12015799027640983,-0.1,0.0,1.0,287.0,656.0,1.0,0,927.0,1
519,519,-0.05557279978096219,-0.1,0.0,1.0,464.0,968.0,1.0,0,1568.0,1
520,520,-0.5673266424781853,-0.6,0.0,1.0,477.0,777.0,1.0,0,416.0,1
521,521,-0.22869971837537284,-0.2,1.0,0.0,255.0,710.0,0.0,0,345.0,1
522,522,0.8990666504744368,0.9,1.0,1.0,464.0,816.0,0.0,0,-330.0,0
523,523,-0.5868524768913275,-0.6,1.0,0.0,270.0,940.0,0.0,0,350.0,1
524,524,-0.41613936187665707,-0.4,1.0,0.0,369.0,575.0,0.0,0,336.0,1
525,525,0.41218320866472846,0.4,0.0,0.0,467.0,687.0,0.0,1,486.0,1
526,526,-0.42881214047719335,-0.4,1.0,0.0,295.0,954.0,0.0,0,371.0,1
527,527,-0.5949647766167256,-0.6,1.0,0.0,303.0,793.0,0.0,0,484.0,1
528,528,0.5895862175725121,0.6,1.0,1.0,368.0,761.0,1.0,1,281.0,1
529,529,-0.12372000235941183,-0.1,1.0,0.0,368.0,753.0,0.0,0,1879.0,1
530,530,-0.18127270791304873,-0.2,1.0,0.0,485.0,768.0,0.0,0,1717.0,1
531,531,0.47876075660318806,0.5,1.0,1.0,404.0,578.0,1.0,1,518.0,1
532,532,-0.24927974942129616,-0.2,1.0,0.0,493.0,768.0,0.0,0,159.0,1
533,533,-0.03635481033670751,-0.0,1.0,0.0,456.0,772.0,1.0,1,542.0,0
534,534,-0.8149595664092427,-0.8,1.0,0.0,492.0,917.0,0.0,0,231.0,1
535,535,-0.5882002407597171,-0.6,1.0,0.0,312.0,684.0,0.0,0,374.0,1
536,536,0.7535771214055608,0.8,1.0,1.0,318.0,828.0,1.0,1,244.0,1
537,537,-0.594966418756617,-0.6,1.0,0.0,430.0,956.0,0.0,0,184.0,1
538,538,0.3496079101625368,0.3,1.0,1.0,407.0,840.0,1.0,1,253.0,1
539,539,-0.03702179800296879,-0.0,1.0,0.0,322.0,969.0,0.0,0,1709.0,1
540,540,-0.8536639715363944,-0.9,0.0,1.0,398.0,750.0,1.0,0,152.0,1
541,541,-0.46742443088384045,-0.5,0.0,1.0,426.0,844.0,1.0,0,690.0,1
542,542,-0.5454566439241786,-0.5,0.0,1.0,475.0,873.0,1.0,0,322.0,1
543,543,0.3718173973792932,0.4,0.0,0.0,413.0,793.0,0.0,1,454.0,1
544,544,-0.7166621746509498,-0.7,0.0,1.0,471.0,811.0,1.0,0,158.0,1
545,545,-0.759697912626586,-0.8,1.0,0.0,389.0,784.0,0.0,0,587.0,1
546,546,-0.11332947653235026,-0.1,1.0,0.0,345.0,953.0,0.0,0,1702.0,1
547,547,-0.40868347909915564,-0.4,0.0,1.0,461.0,501.0,1.0,0,468.0,1
548,548,-0.11476770602069697,-0.1,1.0,0.0,304.0,685.0,0.0,0,1631.0,1
549,549,0.7395326613349095,0.7,1.0,1.0,278.0,744.0,1.0,1,338.0,1
550,550,0.2207855374574651,0.2,0.0,0.0,432.0,993.0,0.0,1,1575.0,1
551,551,-0.7997629851472694,-0.8,0.0,1.0,354.0,539.0,1.0,0,227.0,1
552,552,-0.16625723234409218,-0.2,1.0,0.0,431.0,579.0,0.0,0,770.0,1
553,553,-0.5408890502976855,-0.5,1.0,0.0,341.0,551.0,0.0,0,308.0,1
554,554,0.1911146585446183,0.2,0.0,0.0,455.0,733.0,0.0,1,1792.0,1
555,555,0.0901944755010079,0.1,0.0,0.0,432.0,604.0,0.0,1,1964.0,1
556,556,0.06275578850106445,0.1,1.0,1.0,397.0,918.0,1.0,1,1685.0,1
557,557,0.36660952553018655,0.4,1.0,1.0,380.0,857.0,1.0,1,743.0,1
558,558,0.01967782568596621,0.0,0.0,0.0,377.0,517.0,1.0,0,2106.0,0
559,559,0.24256415540995258,0.2,1.0,1.0,421.0,787.0,1.0,1,412.0,1
560,560,0.562165531867496,0.6,0.0,0.0,439.0,801.0,0.0,1,260.0,1
561,561,-0.6472510297604938,-0.6,0.0,1.0,477.0,850.0,1.0,0,373.0,1
562,562,0.4737760213488459,0.5,0.0,0.0,400.0,650.0,0.0,1,310.0,1
563,563,0.2810050713469546,0.3,0.0,0.0,402.0,623.0,0.0,1,1405.0,1
564,564,-0.6396967765720968,-0.6,0.0,1.0,381.0,715.0,1.0,0,254.0,1
565,565,-0.8239507539653713,-0.8,1.0,0.0,391.0,524.0,0.0,0,515.0,1
566,566,-0.6819333589535963,-0.7,0.0,1.0,274.0,895.0,1.0,0,171.0,1
567,567,0.2517313889015883,0.3,1.0,1.0,434.0,887.0,1.0,1,999.0,1
568,568,0.48040698793519476,0.5,0.0,0.0,424.0,717.0,0.0,1,429.0,1
569,569,-0.27235233304021567,-0.3,0.0,1.0,355.0,540.0,1.0,0,595.0,1
570,570,-0.411552606283665,-0.4,1.0,0.0,264.0,694.0,0.0,0,712.0,1
571,571,0.5312585400276503,0.5,0.0,0.0,477.0,672.0,0.0,1,201.0,1
572,572,-0.24930355807659765,-0.2,1.0,0.0,372.0,779.0,0.0,0,449.0,1
573,573,-0.19332743043580192,-0.2,0.0,1.0,280.0,741.0,1.0,0,229.0,1
574,574,-0.8951272021871587,-0.9,1.0,0.0,430.0,706.0,0.0,0,134.0,1
575,575,-0.3889655845442297,-0.4,0.0,1.0,318.0,752.0,1.0,0,490.0,1
576,576,-0.6056297633756045,-0.6,1.0,0.0,294.0,878.0,0.0,0,468.0,1
577,577,-0.38773400502484967,-0.4,0.0,1.0,465.0,712.0,1.0,0,303.0,1
578,578,-0.24890296867676487,-0.2,0.0,1.0,344.0,826.0,1.0,0,910.0,1
579,579,0.7000809266729583,0.7,1.0,1.0,446.0,547.0,1.0,1,357.0,1
580,580,-0.0310856323963149,-0.0,0.0,1.0,450.0,578.0,1.0,0,1812.0,1
581,581,0.5641512988468108,0.6,1.0,1.0,297.0,822.0,1.0,1,201.0,1
582,582,-0.6326335226080608,-0.6,1.0,0.0,480.0,852.0,0.0,0,388.0,1
583,583,0.5268421507017939,0.5,1.0,1.0,303.0,710.0,1.0,1,267.0,1
584,584,-0.4233960344003677,-0.4,0.0,1.0,325.0,582.0,1.0,0,533.0,1
585,585,-0.6815895508321147,-0.7,1.0,0.0,388.0,585.0,0.0,0,287.0,1
586,586,-0.6131052117301924,-0.6,1.0,0.0,328.0,767.0,0.0,0,215.0,1
587,587,0.3725217423567798,0.4,1.0,1.0,482.0,770.0,1.0,1,258.0,1
588,588,0.731185120264145,0.7,1.0,1.0,288.0,547.0,1.0,1,285.0,1
589,589,-0.30397300930771953,-0.3,0.0,1.0,296.0,611.0,1.0,0,523.0,1
590,590,0.43665179796373865,0.4,1.0,1.0,388.0,856.0,1.0,1,316.0,1
591,591,-0.4373735588457929,-0.4,0.0,1.0,496.0,920.0,1.0,0,424.0,1
592,592,-0.39087920593021586,-0.4,1.0,0.0,416.0,750.0,0.0,0,474.0,1
593,593,-0.7265766327163041,-0.7,1.0,0.0,381.0,549.0,0.0,0,370.0,1
594,594,0.5913669530062468,0.6,0.0,0.0,442.0,896.0,0.0,1,642.0,1
595,595,0.7187251586457376,0.7,0.0,0.0,296.0,879.0,0.0,1,255.0,1
596,596,-0.5535462455601818,-0.6,1.0,0.0,280.0,727.0,0.0,0,533.0,1
597,597,0.6563614388459124,0.7,1.0,1.0,446.0,711.0,1.0,1,223.0,1
598,598,0.21428351893384312,0.2,1.0,1.0,305.0,602.0,1.0,1,303.0,1
599,599,-0.60270599651671,-0.6,1.0,0.0,436.0,666.0,0.0,0,498.0,1
600,600,0.8483101904942684,0.8,1.0,1.0,422.0,835.0,1.0,1,223.0,1
601,601,-0.6703896363948849,-0.7,1.0,0.0,433.0,958.0,0.0,0,289.0,1
602,602,-0.831541880126369,-0.8,0.0,1.0,486.0,557.0,1.0,0,307.0,1
603,603,-0.03484100644917065,-0.0,1.0,0.0,444.0,722.0,0.0,0,1834.0,1
604,604,0.1746852696517226,0.2,1.0,1.0,420.0,670.0,1.0,1,1720.0,1
605,605,0.20074151398172269,0.2,1.0,1.0,272.0,628.0,1.0,1,760.0,1
606,606,0.32453008412920636,0.3,1.0,1.0,262.0,515.0,1.0,1,413.0,1
607,607,0.35222339207599684,0.4,1.0,1.0,464.0,569.0,1.0,1,1157.0,1
608,608,-0.7309433388548328,-0.7,1.0,0.0,375.0,627.0,0.0,0,288.0,1
609,609,-0.19087525166760044,-0.2,1.0,0.0,490.0,567.0,0.0,0,1343.0,1
610,610,-0.04423755048006661,-0.0,1.0,0.0,422.0,658.0,0.0,0,1920.0,1
611,611,-0.7389418958859486,-0.7,1.0,0.0,297.0,753.0,0.0,0,210.0,1
612,612,-0.47666633462562163,-0.5,0.0,1.0,332.0,533.0,1.0,0,445.0,1
613,613,0.10656083530224814,0.1,1.0,1.0,407.0,982.0,1.0,1,1081.0,1
614,614,0.3494242514289697,0.3,1.0,1.0,361.0,697.0,1.0,1,352.0,1
615,615,-0.12088142615085473,-0.1,1.0,0.0,259.0,799.0,0.0,0,1942.0,1
616,616,-0.8866504821781651,-0.9,0.0,1.0,347.0,726.0,1.0,0,147.0,1
617,617,0.2888435959276835,0.3,1.0,1.0,382.0,628.0,1.0,1,890.0,1
618,618,-0.12016766029237225,-0.1,1.0,0.0,318.0,665.0,0.0,0,2017.0,1
619,619,-0.2718654342114988,-0.3,1.0,0.0,273.0,764.0,0.0,0,1083.0,1
620,620,0.562215054233329,0.6,0.0,0.0,418.0,768.0,0.0,1,454.0,1
621,621,-0.3654982752018231,-0.4,1.0,0.0,259.0,812.0,0.0,0,699.0,1
622,622,-0.11125601300064603,-0.1,1.0,0.0,484.0,631.0,0.0,0,1885.0,1
623,623,0.6911989406428979,0.7,1.0,1.0,360.0,550.0,1.0,1,120.0,1
624,624,-0.4599648906443728,-0.5,1.0,0.0,296.0,940.0,0.0,0,284.0,1
625,625,0.5414920175584278,0.5,1.0,1.0,427.0,750.0,1.0,1,53.0,1
626,626,0.6542349966460287,0.7,0.0,0.0,348.0,796.0,0.0,1,466.0,1
627,627,-0.07258680990419897,-0.1,0.0,1.0,271.0,879.0,1.0,0,1850.0,1
628,628,-0.10303076499436892,-0.1,0.0,1.0,480.0,976.0,1.0,0,1034.0,1
629,629,-0.5980141111896106,-0.6,0.0,1.0,469.0,666.0,1.0,0,225.0,1
630,630,0.7859735211520958,0.8,0.0,0.0,342.0,924.0,0.0,1,294.0,1
631,631,0.2907188431750126,0.3,1.0,1.0,393.0,565.0,1.0,1,312.0,1
632,632,0.1579799431195571,0.2,0.0,0.0,444.0,708.0,0.0,1,558.0,1
633,633,-0.6076216724713542,-0.6,0.0,1.0,307.0,996.0,1.0,0,267.0,1
634,634,0.43699872020441466,0.4,0.0,0.0,404.0,954.0,0.0,1,952.0,1
635,635,0.31612935688722776,0.3,1.0,1.0,423.0,956.0,1.0,1,651.0,1
636,636,-0.5067228752252879,-0.5,0.0,1.0,438.0,723.0,1.0,0,279.0,1
637,637,-0.8776712259308862,-0.9,1.0,0.0,390.0,802.0,0.0,0,188.0,1
638,638,-0.5030859576005742,-0.5,1.0,0.0,423.0,807.0,0.0,0,240.0,1
639,639,-0.10230684938027912,-0.1,1.0,0.0,422.0,733.0,0.0,0,465.0,1
640,640,0.745701778061565,0.7,0.0,0.0,250.0,870.0,0.0,1,410.0,1
641,641,0.7864776764474787,0.8,1.0,1.0,286.0,787.0,1.0,1,257.0,1
642,642,-0.218647093966715,-0.2,0.0,1.0,422.0,627.0,1.0,0,841.0,1
643,643,-0.2927050901387883,-0.3,0.0,1.0,407.0,810.0,1.0,0,643.0,1
644,644,-0.5590414972327067,-0.6,0.0,1.0,462.0,788.0,1.0,0,90.0,1
645,645,0.578755263833702,0.6,0.0,0.0,395.0,965.0,0.0,1,810.0,1
646,646,-0.6903472393161894,-0.7,1.0,0.0,367.0,935.0,0.0,0,208.0,1
647,647,0.26346480779435943,0.3,0.0,0.0,433.0,533.0,0.0,1,2034.0,1
648,648,0.3428335619944053,0.3,0.0,0.0,285.0,940.0,0.0,1,1775.0,1
649,649,0.7924657974563311,0.8,1.0,1.0,442.0,622.0,1.0,1,116.0,1
650,650,-0.29186478721005416,-0.3,0.0,1.0,475.0,869.0,1.0,0,706.0,1
651,651,0.34097674835770986,0.3,1.0,1.0,321.0,875.0,1.0,1,264.0,1
652,652,0.442977022794416,0.4,1.0,1.0,254.0,920.0,1.0,1,186.0,1
653,653,-0.053541787913842454,-0.1,0.0,1.0,397.0,625.0,1.0,0,1568.0,1
654,654,0.7849849396669023,0.8,1.0,1.0,474.0,590.0,1.0,1,226.0,1
655,655,0.15150201458234835,0.2,0.0,0.0,291.0,829.0,0.0,1,1880.0,1
656,656,0.11300235848861628,0.1,0.0,0.0,472.0,935.0,0.0,1,1593.0,1
657,657,0.2952789614523622,0.3,1.0,1.0,441.0,720.0,1.0,1,269.0,1
658,658,-0.24977856814475685,-0.2,1.0,0.0,453.0,640.0,0.0,0,1467.0,1
659,659,-0.8336895193013859,-0.8,0.0,1.0,403.0,891.0,1.0,0,166.0,1
660,660,0.16484897701602408,0.2,0.0,0.0,463.0,891.0,0.0,1,1646.0,1
661,661,0.3082237978444028,0.3,0.0,0.0,386.0,904.0,0.0,1,1710.0,1
662,662,0.8632709893448055,0.9,1.0,1.0,491.0,746.0,1.0,1,213.0,1
663,663,0.28410621213327036,0.3,0.0,0.0,456.0,808.0,0.0,1,596.0,1
664,664,0.2766397598217093,0.3,1.0,1.0,414.0,880.0,1.0,1,966.0,1
665,665,0.6817944582447185,0.7,1.0,1.0,355.0,838.0,1.0,1,207.0,1
666,666,0.599900335160619,0.6,1.0,1.0,313.0,637.0,1.0,1,310.0,1
667,667,-0.7569423265563556,-0.8,1.0,0.0,326.0,687.0,0.0,0,507.0,1
668,668,0.03850031101713125,0.0,0.0,0.0,475.0,791.0,1.0,0,1734.0,0
669,669,-0.11302845766722558,-0.1,0.0,1.0,359.0,701.0,1.0,0,650.0,1
670,670,0.7334516803174657,0.7,1.0,1.0,393.0,709.0,1.0,1,158.0,1
671,671,0.4799610801134916,0.5,0.0,0.0,413.0,647.0,0.0,1,310.0,1
672,672,-0.4200106565473131,-0.4,1.0,0.0,410.0,596.0,0.0,0,414.0,1
673,673,0.03950695186147868,0.0,0.0,0.0,463.0,986.0,1.0,0,1551.0,0
674,674,0.5891224287329667,0.6,1.0,1.0,454.0,714.0,1.0,1,302.0,1
675,675,0.8645534226049362,0.9,1.0,1.0,355.0,696.0,1.0,1,159.0,1
676,676,-0.6889442622512476,-0.7,1.0,0.0,290.0,604.0,0.0,0,316.0,1
677,677,-0.48664757937288217,-0.5,1.0,0.0,278.0,906.0,0.0,0,286.0,1
678,678,-0.8318810373058418,-0.8,1.0,0.0,258.0,996.0,0.0,0,186.0,1
679,679,-0.5148846625925131,-0.5,1.0,0.0,391.0,875.0,0.0,0,644.0,1
680,680,-0.27590584836123677,-0.3,0.0,1.0,348.0,936.0,1.0,0,496.0,1
681,681,0.8876748158155022,0.9,1.0,1.0,491.0,999.0,1.0,1,140.0,1
682,682,-0.41102850399559754,-0.4,1.0,0.0,400.0,890.0,0.0,0,420.0,1
683,683,0.7695193372772721,0.8,0.0,0.0,427.0,690.0,1.0,0,-277.0,0
684,684,0.09949488777010518,0.1,0.0,0.0,451.0,821.0,1.0,0,1728.0,0
685,685,-0.39936310990998813,-0.4,1.0,0.0,440.0,990.0,0.0,0,270.0,1
686,686,-0.8558821660292651,-0.9,1.0,0.0,347.0,601.0,0.0,0,402.0,1
687,687,-0.8859743142345782,-0.9,0.0,1.0,365.0,900.0,1.0,0,95.0,1
688,688,0.10126197899973588,0.1,1.0,1.0,342.0,511.0,1.0,1,1717.0,1
689,689,-0.8274986382013418,-0.8,0.0,1.0,421.0,737.0,1.0,0,252.0,1
690,690,-0.062433732054122504,-0.1,0.0,1.0,445.0,795.0,1.0,0,770.0,1
691,691,0.8527591401123124,0.9,0.0,0.0,309.0,740.0,0.0,1,111.0,1
692,692,0.8800680604343948,0.9,1.0,1.0,267.0,568.0,1.0,1,185.0,1
693,693,0.3453311845474253,0.3,0.0,0.0,400.0,655.0,0.0,1,535.0,1
694,694,0.15364759766903868,0.2,1.0,1.0,357.0,952.0,1.0,1,1001.0,1
695,695,0.8796437998866758,0.9,1.0,1.0,343.0,678.0,1.0,1,169.0,1
696,696,-0.08362351474592677,-0.1,0.0,1.0,395.0,738.0,1.0,0,1437.0,1
697,697,0.8096933098870681,0.8,1.0,1.0,481.0,638.0,1.0,1,211.0,1
698,698,-0.0769018551703251,-0.1,0.0,1.0,366.0,952.0,1.0,0,1522.0,1
699,699,0.22435829109772787,0.2,0.0,0.0,285.0,819.0,0.0,1,1896.0,1
700,700,0.2204595198179854,0.2,1.0,1.0,391.0,753.0,1.0,1,896.0,1
701,701,-0.6220218226021261,-0.6,0.0,1.0,481.0,777.0,1.0,0,162.0,1
702,702,0.4731355348712766,0.5,1.0,1.0,288.0,565.0,1.0,1,347.0,1
703,703,0.36016359762136163,0.4,0.0,0.0,334.0,799.0,0.0,1,697.0,1
704,704,-0.7860379232450231,-0.8,1.0,0.0,401.0,899.0,0.0,0,290.0,1
705,705,5.562253307123122e-05,0.0,1.0,1.0,414.0,824.0,1.0,1,1762.0,1
706,706,0.20226751764901796,0.2,1.0,1.0,289.0,641.0,1.0,1,620.0,1
707,707,-0.35667172067221975,-0.4,1.0,0.0,288.0,557.0,0.0,0,455.0,1
708,708,0.5803773328471157,0.6,0.0,0.0,434.0,989.0,0.0,1,317.0,1
709,709,-0.22062797333254225,-0.2,0.0,1.0,317.0,958.0,1.0,0,185.0,1
710,710,0.07668666729955342,0.1,0.0,0.0,450.0,863.0,1.0,0,1687.0,0
711,711,0.00369878797532186,0.0,1.0,1.0,301.0,719.0,0.0,0,1980.0,0
712,712,0.6129524415366231,0.6,0.0,0.0,287.0,660.0,0.0,1,543.0,1
713,713,0.0031946475676241093,0.0,0.0,0.0,259.0,585.0,1.0,0,2156.0,0
714,714,-0.33215041436267245,-0.3,0.0,1.0,431.0,596.0,1.0,0,923.0,1
715,715,0.5366458943774658,0.5,1.0,1.0,455.0,677.0,1.0,1,198.0,1
716,716,0.017497425120580057,0.0,0.0,0.0,379.0,986.0,1.0,0,1635.0,0
717,717,0.5841360893497393,0.6,0.0,0.0,353.0,944.0,0.0,1,193.0,1
718,718,-0.7311766160732796,-0.7,1.0,0.0,414.0,550.0,0.0,0,346.0,1
719,719,-0.38179957075064663,-0.4,0.0,1.0,402.0,906.0,1.0,0,452.0,1
720,720,0.4495586569366231,0.4,1.0,1.0,483.0,524.0,1.0,1,613.0,1
721,721,-0.3354956552863658,-0.3,0.0,1.0,283.0,583.0,1.0,0,384.0,1
722,722,-0.03345809508916531,-0.0,0.0,1.0,293.0,660.0,1.0,0,2047.0,1
723,723,0.15215911173867702,0.2,0.0,0.0,479.0,795.0,1.0,0,-54.0,0
724,724,-0.11553164479750311,-0.1,0.0,1.0,343.0,917.0,1.0,0,1740.0,1
725,725,-0.1137578586807737,-0.1,1.0,0.0,352.0,769.0,0.0,0,689.0,1
726,726,0.0687883374312358,0.1,1.0,1.0,306.0,927.0,1.0,1,1767.0,1
727,727,0.24111259825521503,0.2,0.0,0.0,408.0,777.0,0.0,1,395.0,1
728,728,-0.5776031372071004,-0.6,0.0,1.0,378.0,830.0,1.0,0,272.0,1
729,729,-0.3239081577841474,-0.3,0.0,1.0,356.0,589.0,1.0,0,265.0,1
730,730,0.5551287265894665,0.6,1.0,1.0,310.0,911.0,1.0,1,109.0,1
731,731,-0.5609842911359398,-0.6,0.0,1.0,435.0,765.0,1.0,0,430.0,1
732,732,-0.5601053943536101,-0.6,0.0,1.0,370.0,526.0,1.0,0,324.0,1
733,733,0.3040696071763739,0.3,1.0,1.0,337.0,558.0,1.0,1,635.0,1
734,734,-0.14799789851045142,-0.1,0.0,1.0,473.0,990.0,1.0,0,1537.0,1
735,735,-0.26605766219265914,-0.3,1.0,0.0,251.0,729.0,0.0,0,740.0,1
736,736,-0.8670051040860947,-0.9,0.0,1.0,358.0,591.0,1.0,0,231.0,1
737,737,-0.14635900562966975,-0.1,1.0,0.0,331.0,759.0,0.0,0,1270.0,1
738,738,-0.8116392606580406,-0.8,1.0,0.0,381.0,513.0,0.0,0,226.0,1
739,739,-0.862140693294745,-0.9,1.0,0.0,252.0,766.0,0.0,0,372.0,1
740,740,0.6470526794247359,0.6,1.0,1.0,365.0,868.0,1.0,1,207.0,1
741,741,0.14594038379542373,0.1,0.0,0.0,256.0,536.0,0.0,1,2208.0,1
742,742,0.042467508209055094,0.0,0.0,0.0,370.0,620.0,1.0,0,2010.0,0
743,743,0.8789238707498547,0.9,1.0,1.0,433.0,952.0,1.0,1,115.0,1
744,744,0.5220864094670788,0.5,0.0,0.0,467.0,837.0,0.0,1,576.0,1
745,745,-0.4058080831432847,-0.4,0.0,1.0,325.0,644.0,1.0,0,391.0,1
746,746,-0.6226323619236187,-0.6,1.0,0.0,389.0,658.0,0.0,0,273.0,1
747,747,-0.7222608690967183,-0.7,0.0,1.0,386.0,602.0,1.0,0,182.0,1
748,748,0.5548892914734697,0.6,0.0,0.0,250.0,663.0,0.0,1,217.0,1
749,749,-0.16668320592702324,-0.2,1.0,0.0,391.0,793.0,0.0,0,686.0,1
750,750,-0.8380560326611635,-0.8,1.0,0.0,265.0,675.0,0.0,0,600.0,1
751,751,0.5505694561367444,0.6,0.0,0.0,281.0,606.0,0.0,1,323.0,1
752,752,0.8254236352133358,0.8,1.0,1.0,465.0,719.0,1.0,1,76.0,1
753,753,-0.0318533903148327,-0.0,1.0,0.0,336.0,764.0,1.0,1,1900.0,0
754,754,0.1396935195386516,0.1,0.0,0.0,464.0,761.0,0.0,1,1775.0,1
755,755,-0.8945847314599469,-0.9,0.0,1.0,301.0,727.0,1.0,0,322.0,1
756,756,-0.21784952499533194,-0.2,1.0,0.0,259.0,899.0,0.0,0,1382.0,1
757,757,-0.6455931003188033,-0.6,1.0,0.0,431.0,998.0,0.0,0,141.0,1
758,758,-0.5077326282293653,-0.5,1.0,0.0,338.0,541.0,0.0,0,821.0,1
759,759,-0.16293132913252206,-0.2,1.0,0.0,426.0,877.0,0.0,0,1697.0,1
760,760,-0.4846178495883035,-0.5,1.0,0.0,426.0,988.0,0.0,0,326.0,1
761,761,-0.8375718338386898,-0.8,1.0,0.0,300.0,848.0,0.0,0,342.0,1
762,762,0.5170531418327281,0.5,1.0,1.0,440.0,987.0,1.0,1,173.0,1
763,763,-0.8841724009237598,-0.9,1.0,0.0,442.0,709.0,0.0,0,259.0,1
764,764,0.7849211655558014,0.8,1.0,1.0,471.0,526.0,1.0,1,123.0,1
765,765,-0.7317053364464076,-0.7,1.0,0.0,344.0,708.0,0.0,0,288.0,1
766,766,0.2428422868915986,0.2,0.0,0.0,282.0,705.0,0.0,1,1553.0,1
767,767,-0.8378685249978994,-0.8,1.0,0.0,265.0,744.0,0.0,0,361.0,1
768,768,-0.050050258299249695,-0.1,1.0,0.0,431.0,797.0,0.0,0,42.0,1
769,769,0.3301407978320724,0.3,1.0,1.0,312.0,754.0,1.0,1,364.0,1
770,770,-0.2950761530258662,-0.3,1.0,0.0,463.0,689.0,0.0,0,668.0,1
771,771,0.7497931950923612,0.7,1.0,1.0,336.0,907.0,1.0,1,137.0,1
772,772,-0.301556961529751,-0.3,0.0,1.0,393.0,608.0,1.0,0,769.0,1
773,773,0.13807376609780497,0.1,1.0,1.0,334.0,725.0,1.0,1,891.0,1
774,774,0.7622551105928793,0.8,0.0,0.0,373.0,752.0,0.0,1,365.0,1
775,775,0.4151182556792915,0.4,1.0,1.0,437.0,786.0,1.0,1,807.0,1
776,776,-0.6248576798902303,-0.6,1.0,0.0,419.0,777.0,0.0,0,174.0,1
777,777,-0.38598718736488236,-0.4,1.0,0.0,494.0,662.0,0.0,0,564.0,1
778,778,0.3964860973223837,0.4,0.0,0.0,314.0,590.0,0.0,1,546.0,1
779,779,-0.8714597848884525,-0.9,1.0,0.0,474.0,852.0,0.0,0,204.0,1
780,780,0.2955614925110118,0.3,0.0,0.0,305.0,579.0,0.0,1,966.0,1
781,781,0.6972552662737067,0.7,0.0,0.0,307.0,883.0,0.0,1,210.0,1
782,782,-0.16210877931800538,-0.2,0.0,1.0,328.0,689.0,1.0,0,733.0,1
783,783,-0.3800876926065442,-0.4,0.0,1.0,430.0,735.0,1.0,0,325.0,1
784,784,-0.44001846974725506,-0.4,0.0,1.0,276.0,663.0,1.0,0,201.0,1
785,785,0.7755148476133574,0.8,1.0,1.0,262.0,959.0,1.0,1,159.0,1
786,786,-0.6377174279286003,-0.6,1.0,0.0,426.0,778.0,0.0,0,196.0,1
787,787,0.5873654854638667,0.6,1.0,1.0,374.0,528.0,1.0,1,318.0,1
788,788,-0.07218234757190156,-0.1,0.0,1.0,334.0,937.0,1.0,0,1729.0,1
789,789,0.6098932626945325,0.6,1.0,1.0,382.0,703.0,1.0,1,195.0,1
790,790,0.29422724470873607,0.3,1.0,1.0,309.0,560.0,1.0,1,531.0,1
791,791,0.8738915308264673,0.9,1.0,1.0,285.0,525.0,1.0,1,180.0,1
792,792,0.2557857083990832,0.3,0.0,0.0,282.0,798.0,0.0,1,840.0,1
793,793,0.8596405858635822,0.9,0.0,0.0,285.0,652.0,0.0,1,333.0,1
794,794,-0.6447832408472276,-0.6,1.0,0.0,411.0,860.0,0.0,0,179.0,1
795,795,-0.44081003399127694,-0.4,0.0,1.0,463.0,961.0,1.0,0,296.0,1
796,796,-0.5962173691226018,-0.6,1.0,0.0,416.0,777.0,0.0,0,327.0,1
797,797,-0.42654585535076267,-0.4,0.0,1.0,379.0,811.0,1.0,0,450.0,1
798,798,0.255640005717945,0.3,0.0,0.0,424.0,846.0,0.0,1,1730.0,1
799,799,0.4825211403271933,0.5,0.0,0.0,323.0,591.0,0.0,1,326.0,1
800,800,0.12207887559574104,0.1,0.0,0.0,368.0,723.0,0.0,1,1909.0,1
801,801,0.033077607999400516,0.0,0.0,0.0,420.0,782.0,1.0,0,1798.0,0
802,802,-0.8016323693132422,-0.8,1.0,0.0,479.0,503.0,0.0,0,278.0,1
803,803,0.8497278724880101,0.8,1.0,1.0,270.0,932.0,1.0,1,218.0,1
804,804,-0.5422509110098057,-0.5,0.0,1.0,435.0,668.0,1.0,0,217.0,1
805,805,0.32400713796287783,0.3,0.0,0.0,292.0,502.0,0.0,1,336.0,1
806,806,0.4007913929559942,0.4,0.0,0.0,350.0,519.0,0.0,1,591.0,1
807,807,-0.6890609813321268,-0.7,0.0,1.0,387.0,742.0,1.0,0,211.0,1
808,808,0.09429284216014422,0.1,1.0,1.0,293.0,918.0,1.0,1,989.0,1
809,809,0.033301520824985054,0.0,1.0,1.0,259.0,672.0,1.0,1,1729.0,1
810,810,-0.4614678812343609,-0.5,1.0,0.0,493.0,758.0,0.0,0,489.0,1
811,811,-0.17673255338496774,-0.2,1.0,0.0,385.0,662.0,1.0,1,1953.0,0
812,812,-0.48243468921348276,-0.5,1.0,0.0,371.0,862.0,0.0,0,317.0,1
813,813,0.06768315823868853,0.1,1.0,1.0,381.0,924.0,1.0,1,1295.0,1
814,814,-0.8774797267460743,-0.9,0.0,1.0,363.0,702.0,1.0,0,105.0,1
815,815,-0.08429886429844335,-0.1,0.0,1.0,295.0,720.0,1.0,0,105.0,1
816,816,-0.6777159291583752,-0.7,0.0,1.0,477.0,944.0,1.0,0,439.0,1
817,817,0.6752253159588174,0.7,1.0,1.0,447.0,830.0,1.0,1,213.0,1
818,818,-0.3663819279012912,-0.4,0.0,1.0,470.0,964.0,1.0,0,496.0,1
819,819,0.7378542200100252,0.7,0.0,0.0,297.0,772.0,0.0,1,381.0,1
820,820,-0.7536527170274225,-0.8,0.0,1.0,425.0,817.0,1.0,0,408.0,1
821,821,-0.12862852648946954,-0.1,0.0,1.0,491.0,673.0,1.0,0,476.0,1
822,822,0.007152740117865042,0.0,0.0,0.0,443.0,520.0,1.0,0,1887.0,0
823,823,0.07660943878527238,0.1,0.0,0.0,438.0,786.0,0.0,1,1776.0,1
824,824,-0.10328693009645229,-0.1,1.0,0.0,386.0,677.0,1.0,1,1937.0,0
825,825,0.17122723932236295,0.2,0.0,0.0,440.0,785.0,0.0,1,1775.0,1
826,826,-0.8699409356134936,-0.9,1.0,0.0,301.0,512.0,0.0,0,157.0,1
827,827,0.5990597935998118,0.6,0.0,0.0,351.0,948.0,0.0,1,451.0,1
828,828,-0.4981120944131923,-0.5,1.0,0.0,499.0,579.0,0.0,0,552.0,1
829,829,-0.5583296953099832,-0.6,0.0,1.0,416.0,515.0,1.0,0,139.0,1
830,830,-0.616822161330822,-0.6,1.0,0.0,347.0,720.0,0.0,0,1003.0,1
831,831,0.1966640664309861,0.2,0.0,0.0,309.0,951.0,0.0,1,990.0,1
832,832,0.6152113457032252,0.6,0.0,0.0,308.0,694.0,0.0,1,608.0,1
833,833,-0.185173157961375,-0.2,1.0,0.0,475.0,987.0,0.0,0,-82.0,1
834,834,0.8473068030062082,0.8,0.0,0.0,321.0,778.0,0.0,1,281.0,1
835,835,0.5966842119855219,0.6,0.0,0.0,499.0,569.0,0.0,1,252.0,1
836,836,-0.7602572847318942,-0.8,0.0,1.0,481.0,993.0,1.0,0,296.0,1
837,837,0.2609607571975937,0.3,0.0,0.0,428.0,721.0,0.0,1,1071.0,1
838,838,0.4263344454389323,0.4,0.0,0.0,270.0,877.0,0.0,1,373.0,1
839,839,-0.7407037539112222,-0.7,0.0,1.0,312.0,709.0,1.0,0,239.0,1
840,840,0.05001588675960145,0.1,1.0,1.0,322.0,776.0,1.0,1,1902.0,1
841,841,-0.18540727439191762,-0.2,1.0,0.0,307.0,642.0,0.0,0,2051.0,1
842,842,0.34850837465924334,0.3,1.0,1.0,342.0,673.0,1.0,1,395.0,1
843,843,0.7531169997984847,0.8,0.0,0.0,285.0,804.0,0.0,1,321.0,1
844,844,-0.6776628009431724,-0.7,1.0,0.0,282.0,995.0,0.0,0,173.0,1
845,845,-0.4334029974474328,-0.4,1.0,0.0,469.0,577.0,0.0,0,534.0,1
846,846,0.7192713410874235,0.7,1.0,1.0,336.0,871.0,1.0,1,113.0,1
847,847,0.6526818260745105,0.7,0.0,0.0,381.0,799.0,0.0,1,380.0,1
848,848,-0.6397472522519159,-0.6,0.0,1.0,331.0,519.0,1.0,0,180.0,1
849,849,-0.19060084473776584,-0.2,1.0,0.0,317.0,626.0,0.0,0,1407.0,1
850,850,0.6041981591311142,0.6,1.0,1.0,427.0,853.0,1.0,1,310.0,1
851,851,0.30543943155076303,0.3,0.0,0.0,430.0,944.0,0.0,1,726.0,1
852,852,0.6520360677811409,0.7,0.0,0.0,271.0,542.0,0.0,1,257.0,1
853,853,-0.5062330581216716,-0.5,0.0,1.0,430.0,786.0,1.0,0,314.0,1
854,854,0.014029878928687456,0.0,1.0,1.0,274.0,842.0,1.0,1,1884.0,1
855,855,0.861463278938465,0.9,0.0,0.0,262.0,641.0,0.0,1,187.0,1
856,856,0.8044986323312483,0.8,1.0,1.0,374.0,709.0,1.0,1,157.0,1
857,857,0.2531137507613247,0.3,0.0,0.0,348.0,598.0,0.0,1,1214.0,1
858,858,0.1337194037516919,0.1,0.0,0.0,260.0,886.0,0.0,1,1854.0,1
859,859,-0.7916281412570995,-0.8,0.0,1.0,477.0,980.0,1.0,0,83.0,1
860,860,0.430148063407196,0.4,1.0,1.0,365.0,819.0,1.0,1,616.0,1
861,861,-0.5563605577061419,-0.6,1.0,0.0,314.0,785.0,0.0,0,351.0,1
862,862,-0.20151460956499734,-0.2,1.0,0.0,316.0,828.0,0.0,0,1146.0,1
863,863,-0.2282982519118072,-0.2,0.0,1.0,283.0,928.0,1.0,0,1019.0,1
864,864,0.7980890303372242,0.8,0.0,0.0,435.0,791.0,0.0,1,154.0,1
865,865,-0.11129159473559547,-0.1,0.0,1.0,476.0,794.0,1.0,0,580.0,1
866,866,-0.22456790495712675,-0.2,0.0,1.0,320.0,957.0,1.0,0,663.0,1
867,867,-0.4923186809134851,-0.5,0.0,1.0,407.0,530.0,1.0,0,323.0,1
868,868,0.7181312754784427,0.7,1.0,1.0,390.0,681.0,1.0,1,149.0,1
869,869,0.7394573333629081,0.7,0.0,0.0,491.0,831.0,0.0,1,668.0,1
870,870,-0.8286197729563066,-0.8,1.0,0.0,288.0,879.0,0.0,0,523.0,1
871,871,-0.48536055466771083,-0.5,1.0,0.0,448.0,625.0,0.0,0,397.0,1
872,872,-0.11161092245084825,-0.1,1.0,0.0,302.0,947.0,1.0,1,1751.0,0
873,873,-0.7298692864745264,-0.7,0.0,1.0,347.0,757.0,1.0,0,316.0,1
874,874,0.2131557694284184,0.2,1.0,1.0,359.0,848.0,1.0,1,793.0,1
875,875,-0.7529326520059114,-0.8,1.0,0.0,400.0,792.0,0.0,0,458.0,1
876,876,-0.5095173225058967,-0.5,1.0,0.0,462.0,824.0,0.0,0,314.0,1
877,877,0.7427729235133745,0.7,1.0,1.0,339.0,975.0,1.0,1,186.0,1
878,878,0.7844055960150061,0.8,1.0,1.0,296.0,727.0,1.0,1,187.0,1
879,879,-0.6280126397993498,-0.6,0.0,1.0,451.0,693.0,1.0,0,196.0,1
880,880,-0.5938384046974368,-0.6,1.0,0.0,363.0,800.0,0.0,0,77.0,1
881,881,0.052294805470040506,0.1,0.0,0.0,281.0,781.0,1.0,0,1938.0,0
882,882,0.7994826510944749,0.8,1.0,1.0,368.0,622.0,1.0,1,260.0,1
883,883,0.6369579039037349,0.6,1.0,1.0,485.0,767.0,1.0,1,198.0,1
884,884,0.3405020938051494,0.3,1.0,1.0,445.0,558.0,1.0,1,447.0,1
885,885,-0.34966159585387013,-0.3,1.0,0.0,276.0,946.0,0.0,0,1298.0,1
886,886,-0.4448144558093173,-0.4,0.0,1.0,401.0,903.0,1.0,0,276.0,1
887,887,0.3901515376144148,0.4,1.0,1.0,366.0,836.0,1.0,1,678.0,1
888,888,0.7007503825160634,0.7,1.0,1.0,406.0,635.0,1.0,1,169.0,1
889,889,0.6192567517418136,0.6,1.0,1.0,251.0,775.0,1.0,1,174.0,1
890,890,-0.01596783403520441,-0.0,1.0,0.0,444.0,508.0,0.0,0,2048.0,1
891,891,-0.6188995844574179,-0.6,1.0,0.0,347.0,590.0,0.0,0,493.0,1
892,892,-0.2121388177520278,-0.2,0.0,1.0,337.0,890.0,1.0,0,523.0,1
893,893,0.588328772730642,0.6,0.0,0.0,429.0,893.0,0.0,1,328.0,1
894,894,0.3499042113272609,0.3,1.0,1.0,267.0,577.0,1.0,1,1136.0,1
895,895,-0.5579837217765775,-0.6,1.0,0.0,355.0,714.0,0.0,0,801.0,1
896,896,0.7087940054078067,0.7,0.0,0.0,467.0,569.0,0.0,1,214.0,1
897,897,-0.34810460696736467,-0.3,0.0,1.0,321.0,655.0,1.0,0,464.0,1
898,898,-0.7490287019484122,-0.7,1.0,0.0,344.0,787.0,0.0,0,259.0,1
899,899,0.15783921822422686,0.2,1.0,1.0,482.0,768.0,1.0,1,770.0,1
900,900,-0.004496844223385921,-0.0,0.0,1.0,332.0,618.0,1.0,0,2050.0,1
901,901,-0.48227371700489324,-0.5,1.0,0.0,457.0,760.0,0.0,0,373.0,1
902,902,0.4557839763044572,0.5,0.0,0.0,384.0,560.0,0.0,1,926.0,1
903,903,-0.35426315268237807,-0.4,0.0,1.0,424.0,983.0,1.0,0,463.0,1
904,904,0.0784746589441685,0.1,1.0,1.0,324.0,610.0,1.0,1,1946.0,1
905,905,-0.8854655185726028,-0.9,0.0,1.0,387.0,822.0,1.0,0,411.0,1
906,906,0.46644500809815115,0.5,1.0,1.0,276.0,611.0,1.0,1,473.0,1
907,907,-0.42359974771238174,-0.4,1.0,0.0,328.0,781.0,0.0,0,181.0,1
908,908,0.1543870399852808,0.2,0.0,0.0,390.0,938.0,0.0,1,1402.0,1
909,909,0.41761133847875864,0.4,1.0,1.0,424.0,562.0,1.0,1,384.0,1
910,910,0.4083666971763037,0.4,0.0,0.0,425.0,662.0,0.0,1,523.0,1
911,911,0.5646345120704314,0.6,0.0,0.0,320.0,834.0,0.0,1,226.0,1
912,912,0.08683900704604985,0.1,0.0,0.0,269.0,824.0,0.0,1,1907.0,1
913,913,0.4919396944533604,0.5,1.0,1.0,421.0,631.0,1.0,1,268.0,1
914,914,-0.47994435377112016,-0.5,1.0,0.0,454.0,755.0,0.0,0,311.0,1
915,915,0.8912370777467641,0.9,0.0,0.0,370.0,862.0,0.0,1,478.0,1
916,916,0.5448257019053994,0.5,0.0,0.0,409.0,883.0,0.0,1,148.0,1
917,917,0.3509220037507651,0.4,0.0,0.0,256.0,601.0,0.0,1,2143.0,1
918,918,-0.3062706811629693,-0.3,0.0,1.0,391.0,682.0,1.0,0,577.0,1
919,919,-0.3892134318850705,-0.4,0.0,1.0,461.0,653.0,1.0,0,476.0,1
920,920,-0.3245392739799825,-0.3,1.0,0.0,454.0,571.0,0.0,0,155.0,1
921,921,0.6588419832043045,0.7,0.0,0.0,432.0,881.0,0.0,1,417.0,1
922,922,-0.8692461450113246,-0.9,0.0,1.0,285.0,761.0,1.0,0,124.0,1
923,923,0.7520787857095442,0.8,1.0,1.0,279.0,632.0,1.0,1,269.0,1
924,924,0.6265950393475236,0.6,0.0,0.0,426.0,850.0,0.0,1,344.0,1
925,925,-0.5397565321463469,-0.5,0.0,1.0,461.0,693.0,1.0,0,196.0,1
926,926,-0.7579348236608283,-0.8,1.0,0.0,464.0,747.0,0.0,0,199.0,1
927,927,-0.14381388402026574,-0.1,1.0,0.0,490.0,780.0,0.0,0,990.0,1
928,928,0.2792617990032874,0.3,0.0,0.0,268.0,932.0,0.0,1,1080.0,1
929,929,-0.2656731385369744,-0.3,1.0,0.0,280.0,896.0,0.0,0,1124.0,1
930,930,-0.3975236691622741,-0.4,0.0,1.0,306.0,664.0,1.0,0,210.0,1
931,931,0.6046130523956602,0.6,0.0,0.0,280.0,505.0,0.0,1,255.0,1
932,932,0.7581568792811778,0.8,0.0,0.0,274.0,679.0,0.0,1,287.0,1
933,933,-0.5170019159132906,-0.5,1.0,0.0,256.0,986.0,0.0,0,658.0,1
934,934,0.4226180094219233,0.4,1.0,1.0,355.0,694.0,1.0,1,341.0,1
935,935,0.4447829473750574,0.4,1.0,1.0,492.0,788.0,1.0,1,530.0,1
936,936,0.7065988713773567,0.7,1.0,1.0,344.0,530.0,1.0,1,186.0,1
937,937,0.196370337394146,0.2,0.0,0.0,379.0,666.0,0.0,1,1105.0,1
938,938,0.5628705420378727,0.6,0.0,0.0,355.0,977.0,0.0,1,298.0,1
939,939,-0.3196261481455053,-0.3,0.0,1.0,368.0,703.0,1.0,0,399.0,1
940,940,-0.6849155241700314,-0.7,0.0,1.0,296.0,670.0,1.0,0,44.0,1
941,941,0.13268879231108321,0.1,0.0,0.0,487.0,769.0,0.0,1,1494.0,1
942,942,0.022213440858809497,0.0,0.0,0.0,251.0,754.0,0.0,1,1995.0,1
943,943,-0.029425328511727744,-0.0,0.0,1.0,300.0,568.0,1.0,0,2032.0,1
944,944,0.7196817465081323,0.7,0.0,0.0,474.0,944.0,0.0,1,202.0,1
945,945,0.5381555472822114,0.5,0.0,0.0,335.0,604.0,0.0,1,321.0,1
946,946,-0.8004856586930345,-0.8,0.0,1.0,349.0,855.0,1.0,0,126.0,1
947,947,-0.1635869952234944,-0.2,1.0,0.0,328.0,922.0,0.0,0,970.0,1
948,948,-0.6118216749694914,-0.6,0.0,1.0,296.0,963.0,0.0,1,-119.0,0
949,949,-0.13165237313146594,-0.1,1.0,0.0,336.0,977.0,0.0,0,1687.0,1
950,950,0.086965564157935,0.1,0.0,0.0,311.0,913.0,1.0,0,1776.0,0
951,951,-0.13433954375990464,-0.1,1.0,0.0,399.0,831.0,0.0,0,440.0,1
952,952,-0.21775387275807567,-0.2,1.0,0.0,313.0,640.0,0.0,0,1127.0,1
953,953,-0.46030173438450817,-0.5,0.0,1.0,364.0,615.0,1.0,0,191.0,1
954,954,-0.5750906582737543,-0.6,0.0,1.0,372.0,979.0,1.0,0,209.0,1
955,955,0.579315749986146,0.6,0.0,0.0,446.0,732.0,1.0,0,-78.0,0
956,956,0.38616630701039856,0.4,1.0,1.0,334.0,842.0,1.0,1,154.0,1
957,957,0.1559813770215076,0.2,1.0,1.0,483.0,886.0,1.0,1,681.0,1
958,958,-0.7245535362127287,-0.7,0.0,1.0,303.0,752.0,1.0,0,225.0,1
959,959,0.18639187890907494,0.2,0.0,0.0,462.0,593.0,0.0,1,1405.0,1
960,960,0.26511993308098025,0.3,0.0,0.0,288.0,922.0,0.0,1,1020.0,1
961,961,-0.005930951566842646,-0.0,1.0,0.0,309.0,704.0,0.0,0,1987.0,1
962,962,0.33376094071090734,0.3,1.0,1.0,298.0,535.0,1.0,1,1007.0,1
963,963,-0.6285813888597455,-0.6,1.0,0.0,377.0,784.0,0.0,0,219.0,1
964,964,-0.3779383697323543,-0.4,0.0,1.0,410.0,740.0,1.0,0,410.0,1
965,965,0.6570942802064611,0.7,0.0,0.0,287.0,868.0,0.0,1,155.0,1
966,966,-0.3603289910342605,-0.4,0.0,1.0,481.0,746.0,1.0,0,233.0,1
967,967,0.7810375831817641,0.8,1.0,1.0,479.0,917.0,1.0,1,254.0,1
968,968,0.20799021066625356,0.2,1.0,1.0,332.0,545.0,1.0,1,653.0,1
969,969,0.36297550878782514,0.4,0.0,0.0,369.0,662.0,0.0,1,819.0,1
970,970,0.8170558418862027,0.8,1.0,1.0,422.0,502.0,1.0,1,256.0,1
971,971,-0.7272668277686642,-0.7,0.0,1.0,255.0,660.0,1.0,0,375.0,1
972,972,-0.04730248655803704,-0.0,0.0,1.0,368.0,969.0,1.0,0,473.0,1
973,973,0.8087975777486635,0.8,1.0,1.0,446.0,624.0,1.0,1,370.0,1
974,974,-0.3468397895906745,-0.3,0.0,1.0,369.0,802.0,1.0,0,339.0,1
975,975,0.36100358644476194,0.4,0.0,0.0,332.0,704.0,0.0,1,1444.0,1
976,976,0.5422777980060584,0.5,0.0,0.0,345.0,512.0,0.0,1,393.0,1
977,977,-0.37108946905215157,-0.4,1.0,0.0,275.0,616.0,0.0,0,399.0,1
978,978,-0.5171836829734061,-0.5,1.0,0.0,305.0,647.0,0.0,0,398.0,1
979,979,-0.07492146741538486,-0.1,0.0,1.0,408.0,839.0,1.0,0,1383.0,1
980,980,-0.8580145674541106,-0.9,1.0,0.0,331.0,823.0,0.0,0,116.0,1
981,981,-0.4512689725774829,-0.5,0.0,1.0,430.0,549.0,1.0,0,181.0,1
982,982,0.05555476592678421,0.1,0.0,0.0,290.0,530.0,1.0,0,2180.0,0
983,983,-0.7726352615035935,-0.8,0.0,1.0,303.0,681.0,1.0,0,106.0,1
984,984,0.7154085703958003,0.7,1.0,1.0,366.0,796.0,1.0,1,228.0,1
985,985,-0.7311711597151294,-0.7,0.0,1.0,478.0,739.0,1.0,0,253.0,1
986,986,-0.21742753523730585,-0.2,0.0,1.0,477.0,779.0,1.0,0,584.0,1
987,987,0.801138383830072,0.8,1.0,1.0,460.0,879.0,1.0,1,241.0,1
988,988,-0.4971195103483781,-0.5,1.0,0.0,330.0,690.0,0.0,0,660.0,1
989,989,-0.5850216428042723,-0.6,1.0,0.0,347.0,885.0,0.0,0,258.0,1
990,990,0.5510679739280934,0.6,0.0,0.0,454.0,929.0,0.0,1,617.0,1
991,991,0.5465915985740205,0.5,1.0,1.0,433.0,726.0,1.0,1,121.0,1
992,992,0.7509995607268339,0.8,1.0,1.0,390.0,706.0,1.0,1,124.0,1
993,993,0.7240812091773586,0.7,1.0,1.0,418.0,970.0,1.0,1,162.0,1
994,994,-0.6432055664570473,-0.6,0.0,1.0,431.0,699.0,1.0,0,220.0,1
995,995,-0.78289271068935,-0.8,0.0,1.0,458.0,676.0,1.0,0,356.0,1
996,996,-0.3025070435980052,-0.3,0.0,1.0,474.0,731.0,1.0,0,235.0,1
997,997,0.7711957389381371,0.8,0.0,0.0,349.0,723.0,0.0,1,358.0,1
998,998,-0.6312612835099883,-0.6,1.0,0.0,329.0,527.0,0.0,0,294.0,1
999,999,0.28318733369660765,0.3,0.0,0.0,418.0,614.0,0.0,1,498.0,1
1000,1000,0.31187238888815016,0.3,1.0,1.0,392.0,966.0,1.0,1,222.0,1
1001,1001,0.47632262609993126,0.5,1.0,1.0,366.0,682.0,1.0,1,302.0,1
1002,1002,-0.2645773992216838,-0.3,0.0,1.0,472.0,687.0,1.0,0,351.0,1
1003,1003,-0.7455504657044909,-0.7,1.0,0.0,412.0,654.0,0.0,0,204.0,1
1004,1004,-0.0941406768440125,-0.1,1.0,0.0,298.0,815.0,0.0,0,1887.0,1
1005,1005,0.5294375179807466,0.5,0.0,0.0,345.0,567.0,0.0,1,338.0,1
1006,1006,0.46912867347471876,0.5,1.0,1.0,318.0,672.0,1.0,1,260.0,1
1007,1007,-0.6971996454761623,-0.7,0.0,1.0,359.0,900.0,1.0,0,181.0,1
1008,1008,-0.600759563846184,-0.6,0.0,1.0,468.0,670.0,1.0,0,232.0,1
1009,1009,0.0754732698451287,0.1,1.0,1.0,453.0,559.0,1.0,1,1398.0,1
1010,1010,-0.013860506450158683,-0.0,1.0,0.0,351.0,843.0,1.0,1,1806.0,0
1011,1011,-0.19383358411332774,-0.2,1.0,0.0,464.0,913.0,0.0,0,473.0,1
1012,1012,-0.216150117690874,-0.2,0.0,1.0,296.0,554.0,1.0,0,1020.0,1
1013,1013,0.47768593776505697,0.5,1.0,1.0,258.0,624.0,1.0,1,258.0,1
1014,1014,0.5263248638824604,0.5,1.0,1.0,468.0,651.0,1.0,1,121.0,1
1015,1015,0.4002166914207216,0.4,0.0,0.0,420.0,566.0,0.0,1,924.0,1
1016,1016,0.1768458714665765,0.2,0.0,0.0,260.0,967.0,0.0,1,1773.0,1
1017,1017,0.7331011616370643,0.7,1.0,1.0,388.0,595.0,1.0,1,157.0,1
1018,1018,0.6438920509460518,0.6,0.0,0.0,460.0,502.0,0.0,1,318.0,1
1019,1019,-0.8655823162003241,-0.9,0.0,1.0,362.0,583.0,1.0,0,275.0,1
1020,1020,0.4072884358337018,0.4,0.0,0.0,432.0,763.0,0.0,1,1015.0,1
1021,1021,-0.7551107995582295,-0.8,0.0,1.0,366.0,887.0,1.0,0,127.0,1
1022,1022,0.3212812330084779,0.3,1.0,1.0,377.0,792.0,1.0,1,471.0,1
1023,1023,0.804295260409729,0.8,0.0,0.0,393.0,724.0,0.0,1,403.0,1
1024,1024,-0.04515503150227762,-0.0,0.0,1.0,377.0,724.0,0.0,1,1899.0,0
1025,1025,0.7981002135411516,0.8,1.0,1.0,343.0,611.0,1.0,1,586.0,1
1026,1026,0.14861759851234357,0.1,1.0,1.0,493.0,894.0,1.0,1,653.0,1
1027,1027,-0.4580634988477434,-0.5,1.0,0.0,316.0,875.0,0.0,0,509.0,1
1028,1028,-0.5914248343129112,-0.6,1.0,0.0,259.0,669.0,0.0,0,342.0,1
1029,1029,0.7922253507030649,0.8,1.0,1.0,263.0,850.0,1.0,1,247.0,1
1030,1030,0.47755533602245304,0.5,1.0,1.0,382.0,801.0,1.0,1,407.0,1
1031,1031,-0.3521382131861024,-0.4,1.0,0.0,263.0,612.0,0.0,0,565.0,1
1032,1032,0.6660452833089371,0.7,1.0,1.0,432.0,814.0,1.0,1,174.0,1
1033,1033,-0.7114193122262822,-0.7,1.0,0.0,456.0,987.0,0.0,0,97.0,1
1034,1034,0.11897884307911977,0.1,1.0,1.0,413.0,870.0,1.0,1,1637.0,1
1035,1035,0.5575050034829739,0.6,0.0,0.0,301.0,882.0,0.0,1,297.0,1
1036,1036,0.0792610937954773,0.1,0.0,0.0,301.0,745.0,1.0,0,1954.0,0
1037,1037,-0.13108403512053834,-0.1,1.0,0.0,492.0,521.0,0.0,0,1717.0,1
1038,1038,0.20866274036183563,0.2,0.0,0.0,346.0,747.0,0.0,1,1787.0,1
1039,1039,-0.30311217592901785,-0.3,0.0,1.0,281.0,866.0,1.0,0,333.0,1
1040,1040,-0.5225457520051897,-0.5,1.0,0.0,322.0,910.0,0.0,0,248.0,1
1041,1041,0.5684483227594487,0.6,1.0,1.0,359.0,711.0,1.0,1,340.0,1
1042,1042,-0.8580909523747058,-0.9,1.0,0.0,338.0,502.0,0.0,0,290.0,1
1043,1043,-0.3937218310728422,-0.4,1.0,0.0,270.0,943.0,0.0,0,577.0,1
1044,1044,-0.8134663118890708,-0.8,1.0,0.0,299.0,733.0,0.0,0,98.0,1
1045,1045,0.5072611678044062,0.5,0.0,0.0,436.0,970.0,0.0,1,244.0,1
1046,1046,0.5513572662000527,0.6,0.0,0.0,453.0,662.0,0.0,1,375.0,1
1047,1047,0.8259922709015804,0.8,0.0,0.0,330.0,681.0,0.0,1,169.0,1
1048,1048,0.4560632840084754,0.5,1.0,1.0,303.0,674.0,1.0,1,653.0,1
1049,1049,-0.11344755785509875,-0.1,0.0,1.0,433.0,932.0,1.0,0,935.0,1
1050,1050,-0.7560170282929248,-0.8,0.0,1.0,260.0,904.0,1.0,0,186.0,1
1051,1051,-0.4316659318962064,-0.4,1.0,0.0,287.0,989.0,0.0,0,494.0,1
1052,1052,-0.7513070395031964,-0.8,0.0,1.0,417.0,683.0,1.0,0,230.0,1
1053,1053,0.2873261508027617,0.3,0.0,0.0,468.0,605.0,0.0,1,1927.0,1
1054,1054,-0.730227660524917,-0.7,1.0,0.0,476.0,805.0,0.0,0,269.0,1
1055,1055,-0.893173631864636,-0.9,1.0,0.0,343.0,920.0,0.0,0,97.0,1
1056,1056,0.5828900292868918,0.6,1.0,1.0,408.0,950.0,1.0,1,122.0,1
1057,1057,0.36561305807386957,0.4,0.0,0.0,268.0,691.0,0.0,1,531.0,1
1058,1058,-0.5930940290106563,-0.6,1.0,0.0,493.0,980.0,0.0,0,207.0,1
1059,1059,-0.19140608720925756,-0.2,0.0,1.0,498.0,759.0,1.0,0,1743.0,1
1060,1060,-0.04985623886956703,-0.0,0.0,1.0,434.0,647.0,1.0,0,1919.0,1
1061,1061,-0.14811414956291113,-0.1,1.0,0.0,480.0,594.0,0.0,0,1926.0,1
1062,1062,0.7642126363502136,0.8,1.0,1.0,372.0,870.0,1.0,1,328.0,1
1063,1063,-0.6021205523832514,-0.6,1.0,0.0,366.0,513.0,0.0,0,171.0,1
1064,1064,-0.32377034830004836,-0.3,0.0,1.0,489.0,749.0,1.0,0,322.0,1
1065,1065,-0.5805071141730276,-0.6,0.0,1.0,420.0,706.0,1.0,0,414.0,1
1066,1066,-0.7265077400436285,-0.7,0.0,1.0,261.0,766.0,1.0,0,113.0,1
1067,1067,0.15367092012159478,0.2,0.0,0.0,438.0,636.0,0.0,1,826.0,1
1068,1068,-0.2606002592436869,-0.3,1.0,0.0,310.0,864.0,0.0,0,846.0,1
1069,1069,0.236869208029432,0.2,0.0,0.0,486.0,904.0,0.0,1,1610.0,1
1070,1070,0.6854536467394242,0.7,0.0,0.0,285.0,576.0,0.0,1,259.0,1
1071,1071,-0.10459530002919748,-0.1,1.0,0.0,407.0,768.0,1.0,1,1825.0,0
1072,1072,-0.10517074888742739,-0.1,1.0,0.0,344.0,810.0,0.0,0,1846.0,1
1073,1073,-0.8596305613550038,-0.9,0.0,1.0,487.0,681.0,1.0,0,362.0,1
1074,1074,0.31985270321289183,0.3,1.0,1.0,373.0,817.0,1.0,1,290.0,1
1075,1075,0.8372344830261161,0.8,0.0,0.0,301.0,520.0,0.0,1,259.0,1
1076,1076,-0.46175983438515406,-0.5,1.0,0.0,478.0,942.0,0.0,0,210.0,1
1077,1077,0.20765050486570746,0.2,1.0,1.0,379.0,579.0,1.0,1,532.0,1
1078,1078,0.24669675072723096,0.2,0.0,0.0,475.0,623.0,0.0,1,1222.0,1
1079,1079,0.4651028317692726,0.5,1.0,1.0,265.0,501.0,1.0,1,334.0,1
1080,1080,-0.7477004209706201,-0.7,0.0,1.0,467.0,580.0,1.0,0,203.0,1
1081,1081,0.8070348608518306,0.8,0.0,0.0,361.0,789.0,0.0,1,260.0,1
1082,1082,-0.3273478721637636,-0.3,0.0,1.0,266.0,503.0,1.0,0,391.0,1
1083,1083,-0.7194853744512127,-0.7,1.0,0.0,432.0,713.0,0.0,0,345.0,1
1084,1084,0.8799516347642292,0.9,0.0,0.0,322.0,880.0,0.0,1,168.0,1
1085,1085,0.3386095173559901,0.3,1.0,1.0,253.0,515.0,1.0,1,422.0,1
1086,1086,0.29432846035908533,0.3,1.0,1.0,437.0,818.0,1.0,1,515.0,1
1087,1087,-0.7464305790539754,-0.7,1.0,0.0,390.0,763.0,0.0,0,327.0,1
1088,1088,-0.4501720141586662,-0.5,1.0,0.0,340.0,817.0,0.0,0,603.0,1
1089,1089,-0.8074206884883172,-0.8,1.0,0.0,423.0,930.0,0.0,0,257.0,1
1090,1090,0.18840771062690276,0.2,1.0,1.0,271.0,646.0,1.0,1,763.0,1
1091,1091,0.6413084767641083,0.6,0.0,0.0,281.0,656.0,0.0,1,653.0,1
1092,1092,0.7336405736764374,0.7,1.0,1.0,447.0,670.0,1.0,1,113.0,1
1093,1093,-0.5004125528857797,-0.5,1.0,0.0,382.0,860.0,0.0,0,248.0,1
1094,1094,-0.7975500997026949,-0.8,0.0,1.0,361.0,783.0,1.0,0,446.0,1
1095,1095,0.0076042843864831955,0.0,1.0,1.0,401.0,607.0,1.0,1,692.0,1
1096,1096,-0.6249862849564898,-0.6,1.0,0.0,296.0,543.0,0.0,0,221.0,1
1097,1097,-0.26267867947514834,-0.3,1.0,0.0,267.0,510.0,0.0,0,733.0,1
1098,1098,-0.47366983337733315,-0.5,0.0,1.0,257.0,521.0,1.0,0,402.0,1
1099,1099,0.1536190747528664,0.2,0.0,0.0,431.0,604.0,0.0,1,1965.0,1
1100,1100,-0.6100032432544604,-0.6,1.0,0.0,461.0,972.0,0.0,0,297.0,1
1101,1101,-0.48370917195067453,-0.5,0.0,1.0,422.0,732.0,1.0,0,226.0,1
1102,1102,-0.5017196367504113,-0.5,1.0,0.0,460.0,696.0,0.0,0,464.0,1
1103,1103,-0.33487005510987,-0.3,1.0,0.0,320.0,590.0,0.0,0,590.0,1
1104,1104,0.6744027783440497,0.7,0.0,0.0,460.0,734.0,0.0,1,386.0,1
1105,1105,-0.07137378299618746,-0.1,1.0,0.0,464.0,516.0,0.0,0,2010.0,1
1106,1106,-0.06875931369766042,-0.1,0.0,1.0,422.0,699.0,1.0,0,629.0,1
1107,1107,0.41536939331434,0.4,1.0,1.0,321.0,568.0,1.0,1,351.0,1
1108,1108,0.3047071289036275,0.3,0.0,0.0,366.0,657.0,0.0,1,367.0,1
1109,1109,-0.2514233087840212,-0.3,1.0,0.0,317.0,777.0,0.0,0,846.0,1
1110,1110,0.17423860682961456,0.2,1.0,1.0,328.0,738.0,1.0,1,514.0,1
1111,1111,-0.026394075581292253,-0.0,1.0,0.0,480.0,645.0,0.0,0,1875.0,1
1112,1112,-0.4703983147271405,-0.5,1.0,0.0,478.0,529.0,0.0,0,493.0,1
1113,1113,0.12985517494479348,0.1,0.0,0.0,250.0,891.0,0.0,1,1859.0,1
1114,1114,0.6075439019653645,0.6,0.0,0.0,327.0,617.0,0.0,1,486.0,1
1115,1115,-0.6455666178382748,-0.6,1.0,0.0,419.0,589.0,0.0,0,312.0,1
1116,1116,-0.07807230410119592,-0.1,0.0,1.0,495.0,820.0,1.0,0,365.0,1
1117,1117,0.2608897486995895,0.3,0.0,0.0,258.0,768.0,0.0,1,634.0,1
1118,1118,-0.11841245969775505,-0.1,0.0,1.0,478.0,611.0,1.0,0,891.0,1
1119,1119,-0.05507610476238223,-0.1,1.0,0.0,405.0,946.0,0.0,0,1649.0,1
1120,1120,0.3737903671168509,0.4,1.0,1.0,342.0,581.0,1.0,1,257.0,1
1121,1121,-0.08315155614623626,-0.1,0.0,1.0,287.0,603.0,1.0,0,2110.0,1
1122,1122,0.3432528667873921,0.3,0.0,0.0,384.0,703.0,0.0,1,1733.0,1
1123,1123,0.24590338109708043,0.2,0.0,0.0,322.0,930.0,0.0,1,428.0,1
1124,1124,0.5474637449378007,0.5,1.0,1.0,274.0,647.0,1.0,1,249.0,1
1125,1125,0.636313791192617,0.6,0.0,0.0,346.0,551.0,0.0,1,303.0,1
1126,1126,0.3251469480271535,0.3,1.0,1.0,258.0,943.0,1.0,1,669.0,1
1127,1127,0.6257014145657219,0.6,1.0,1.0,297.0,728.0,1.0,1,205.0,1
1128,1128,0.7230636442855197,0.7,0.0,0.0,493.0,673.0,0.0,1,294.0,1
1129,1129,0.8641661780497368,0.9,0.0,0.0,426.0,654.0,0.0,1,290.0,1
1130,1130,-0.4430322663645591,-0.4,1.0,0.0,333.0,901.0,0.0,0,316.0,1
1131,1131,0.5291251361444064,0.5,0.0,0.0,250.0,930.0,0.0,1,410.0,1
1132,1132,-0.7920838587788159,-0.8,0.0,1.0,414.0,716.0,1.0,0,250.0,1
1133,1133,-0.2014994396283173,-0.2,0.0,1.0,283.0,540.0,1.0,0,837.0,1
1134,1134,-0.5525458728664856,-0.6,1.0,0.0,386.0,662.0,0.0,0,412.0,1
1135,1135,-0.188358407212039,-0.2,1.0,0.0,402.0,833.0,0.0,0,525.0,1
1136,1136,0.5973610079188215,0.6,0.0,0.0,320.0,544.0,0.0,1,386.0,1
1137,1137,0.13432901324775515,0.1,1.0,1.0,326.0,950.0,1.0,1,594.0,1
1138,1138,-0.6822551234808594,-0.7,1.0,0.0,450.0,689.0,0.0,0,731.0,1
1139,1139,0.3240558720215668,0.3,0.0,0.0,313.0,794.0,0.0,1,493.0,1
1140,1140,-0.1959438257056697,-0.2,1.0,0.0,292.0,904.0,0.0,0,1804.0,1
1141,1141,0.7325158393446877,0.7,1.0,1.0,433.0,701.0,1.0,1,206.0,1
1142,1142,-0.04636359216460595,-0.0,1.0,0.0,273.0,559.0,1.0,1,2168.0,0
1143,1143,0.07696702240133402,0.1,0.0,0.0,298.0,723.0,0.0,1,1979.0,1
1144,1144,-0.04655892544809059,-0.0,0.0,1.0,470.0,984.0,1.0,0,1546.0,1
1145,1145,0.8859901263174178,0.9,0.0,0.0,340.0,634.0,0.0,1,156.0,1
1146,1146,-0.7016961301946939,-0.7,1.0,0.0,462.0,621.0,0.0,0,187.0,1
1147,1147,0.6525707264280852,0.7,0.0,0.0,460.0,724.0,0.0,1,486.0,1
1148,1148,0.5320679392761164,0.5,1.0,1.0,479.0,651.0,1.0,1,330.0,1
1149,1149,0.08497654956300305,0.1,0.0,0.0,279.0,775.0,1.0,0,1946.0,0
1150,1150,-0.1255190012277836,-0.1,0.0,1.0,448.0,929.0,1.0,0,523.0,1
1151,1151,-0.5638403308234949,-0.6,0.0,1.0,284.0,951.0,1.0,0,165.0,1
1152,1152,-0.02046378724792497,-0.0,1.0,0.0,269.0,527.0,0.0,0,2204.0,1
1153,1153,-0.5660370626110489,-0.6,0.0,1.0,435.0,939.0,1.0,0,376.0,1
1154,1154,0.04155490821429797,0.0,0.0,0.0,497.0,530.0,1.0,0,1973.0,0
1155,1155,0.7501655663517489,0.8,1.0,1.0,259.0,746.0,1.0,1,135.0,1
1156,1156,0.18269177811147175,0.2,1.0,1.0,316.0,521.0,1.0,1,643.0,1
1157,1157,0.5247264665764207,0.5,0.0,0.0,431.0,574.0,0.0,1,325.0,1
1158,1158,0.8660403548861767,0.9,0.0,0.0,314.0,794.0,0.0,1,272.0,1
1159,1159,-0.7934708746770406,-0.8,0.0,1.0,445.0,789.0,1.0,0,246.0,1
1160,1160,-0.45034422463879065,-0.5,0.0,1.0,262.0,699.0,1.0,0,359.0,1
1161,1161,-0.3608301682583098,-0.4,1.0,0.0,370.0,699.0,0.0,0,211.0,1
1162,1162,0.5845460956227858,0.6,1.0,1.0,410.0,972.0,1.0,1,118.0,1
1163,1163,-0.6930651474499161,-0.7,1.0,0.0,485.0,886.0,0.0,0,279.0,1
1164,1164,0.7150956147528466,0.7,1.0,1.0,357.0,785.0,1.0,1,318.0,1
1165,1165,0.7990869413091982,0.8,0.0,0.0,336.0,945.0,0.0,1,229.0,1
1166,1166,-0.5618445169257065,-0.6,1.0,0.0,419.0,680.0,0.0,0,191.0,1
1167,1167,-0.861801514580961,-0.9,1.0,0.0,385.0,866.0,0.0,0,199.0,1
1168,1168,-0.8153020700911977,-0.8,1.0,0.0,304.0,827.0,0.0,0,529.0,1
1169,1169,0.5041713389939636,0.5,0.0,0.0,264.0,796.0,0.0,1,680.0,1
1170,1170,-0.5364331646424714,-0.5,1.0,0.0,449.0,707.0,0.0,0,274.0,1
1171,1171,0.23709874732174663,0.2,1.0,1.0,396.0,678.0,1.0,1,436.0,1
1172,1172,-0.8903064315451903,-0.9,0.0,1.0,488.0,804.0,1.0,0,328.0,1
1173,1173,-0.1592028506796489,-0.2,0.0,1.0,327.0,596.0,1.0,0,627.0,1
1174,1174,-0.6048975145679223,-0.6,0.0,1.0,256.0,647.0,1.0,0,257.0,1
1175,1175,-0.13544550194857252,-0.1,1.0,0.0,353.0,585.0,0.0,0,1042.0,1
1176,1176,0.25788338430259705,0.3,1.0,1.0,348.0,745.0,1.0,1,677.0,1
1177,1177,0.06402228734024595,0.1,1.0,1.0,425.0,824.0,1.0,1,1751.0,1
1178,1178,-0.12871360924275255,-0.1,0.0,1.0,308.0,680.0,1.0,0,892.0,1
1179,1179,-0.34584586829115405,-0.3,1.0,0.0,302.0,918.0,0.0,0,400.0,1
1180,1180,-0.07076040693837216,-0.1,1.0,0.0,432.0,582.0,0.0,0,1986.0,1
1181,1181,0.13132171643881396,0.1,0.0,0.0,256.0,631.0,1.0,0,2113.0,0
1182,1182,0.3752544266394403,0.4,1.0,1.0,338.0,615.0,1.0,1,427.0,1
1183,1183,-0.5743874560784028,-0.6,0.0,1.0,438.0,653.0,1.0,0,529.0,1
1184,1184,0.13262918068304697,0.1,1.0,1.0,391.0,880.0,1.0,1,669.0,1
1185,1185,0.7154658426442294,0.7,1.0,1.0,328.0,723.0,1.0,1,289.0,1
1186,1186,0.8086466957928934,0.8,1.0,1.0,399.0,674.0,1.0,1,137.0,1
1187,1187,-0.4214147589070892,-0.4,1.0,0.0,382.0,728.0,0.0,0,740.0,1
1188,1188,-0.19884900102125302,-0.2,1.0,0.0,281.0,723.0,0.0,0,1996.0,1
1189,1189,-0.02961753102977993,-0.0,1.0,0.0,339.0,665.0,0.0,0,1996.0,1
1190,1190,-0.4429508611162413,-0.4,0.0,1.0,481.0,625.0,1.0,0,524.0,1
1191,1191,-0.8399543579701223,-0.8,1.0,0.0,433.0,615.0,0.0,0,202.0,1
1192,1192,0.6476017150367023,0.6,1.0,1.0,310.0,561.0,1.0,1,439.0,1
1193,1193,0.004623562973603668,0.0,0.0,0.0,320.0,888.0,0.0,1,1792.0,1
1194,1194,0.7929364150399792,0.8,1.0,1.0,269.0,642.0,1.0,1,409.0,1
1195,1195,-0.7304943816735117,-0.7,1.0,0.0,417.0,614.0,0.0,0,319.0,1
1196,1196,-0.43864758897086703,-0.4,1.0,0.0,388.0,563.0,0.0,0,279.0,1
1197,1197,-0.4980172736820748,-0.5,0.0,1.0,322.0,789.0,1.0,0,279.0,1
1198,1198,0.6851458447869269,0.7,1.0,1.0,325.0,697.0,1.0,1,178.0,1
1199,1199,-0.5141529154026293,-0.5,0.0,1.0,405.0,684.0,1.0,0,391.0,1
1200,1200,-0.6456761792405875,-0.6,0.0,1.0,417.0,505.0,1.0,0,488.0,1
1201,1201,-0.13630262090372025,-0.1,0.0,1.0,419.0,670.0,1.0,0,781.0,1
1202,1202,0.7188613729292413,0.7,0.0,0.0,491.0,845.0,0.0,1,254.0,1
1203,1203,-0.5721832654994561,-0.6,1.0,0.0,379.0,824.0,0.0,0,317.0,1
1204,1204,0.5387528308997932,0.5,0.0,0.0,297.0,512.0,0.0,1,451.0,1
1205,1205,0.3229216943872645,0.3,0.0,0.0,491.0,705.0,0.0,1,1374.0,1
1206,1206,-0.5907926561806158,-0.6,1.0,0.0,348.0,844.0,0.0,0,228.0,1
1207,1207,-0.3381633276687749,-0.3,0.0,1.0,374.0,919.0,1.0,0,337.0,1
1208,1208,0.08397022741300775,0.1,1.0,1.0,288.0,846.0,1.0,1,786.0,1
1209,1209,0.7490086067826621,0.7,0.0,0.0,380.0,926.0,0.0,1,284.0,1
1210,1210,0.04110942700860376,0.0,0.0,0.0,476.0,773.0,1.0,0,1751.0,0
1211,1211,0.5328981458475391,0.5,1.0,1.0,392.0,510.0,1.0,1,328.0,1
1212,1212,-0.7199770843025097,-0.7,0.0,1.0,437.0,656.0,1.0,0,307.0,1
1213,1213,0.3248375301009506,0.3,0.0,0.0,433.0,736.0,0.0,1,711.0,1
1214,1214,-0.8986710835635996,-0.9,0.0,1.0,476.0,945.0,1.0,0,209.0,1
1215,1215,0.6575862517174643,0.7,1.0,1.0,402.0,567.0,1.0,1,191.0,1
1216,1216,-0.059151625427899535,-0.1,1.0,0.0,434.0,681.0,1.0,1,1855.0,0
1217,1217,0.03667081386506155,0.0,1.0,1.0,476.0,735.0,0.0,0,1789.0,0
1218,1218,-0.1869006864909557,-0.2,1.0,0.0,379.0,812.0,0.0,0,1809.0,1
1219,1219,-0.5150490970099837,-0.5,0.0,1.0,476.0,888.0,1.0,0,186.0,1
1220,1220,-0.7514258657106665,-0.8,0.0,1.0,325.0,623.0,1.0,0,122.0,1
1221,1221,-0.6714528906481102,-0.7,0.0,1.0,274.0,967.0,1.0,0,169.0,1
1222,1222,-0.21583731402966777,-0.2,0.0,1.0,384.0,553.0,1.0,0,1023.0,1
1223,1223,0.7747525171867072,0.8,0.0,0.0,306.0,599.0,0.0,1,215.0,1
1224,1224,-0.0726237908456977,-0.1,1.0,0.0,316.0,637.0,0.0,0,1647.0,1
1225,1225,0.7563787550470745,0.8,0.0,0.0,273.0,784.0,0.0,1,303.0,1
1226,1226,0.3965207982777178,0.4,0.0,0.0,362.0,714.0,0.0,1,764.0,1
1227,1227,0.7356944818412453,0.7,0.0,0.0,258.0,881.0,0.0,1,331.0,1
1228,1228,0.09786167913762278,0.1,0.0,0.0,390.0,695.0,0.0,1,1915.0,1
1229,1229,0.8775268001519333,0.9,1.0,1.0,431.0,796.0,1.0,1,103.0,1
1230,1230,0.4093199614048125,0.4,1.0,1.0,277.0,551.0,1.0,1,442.0,1
1231,1231,-0.724920251200544,-0.7,0.0,1.0,365.0,859.0,1.0,0,166.0,1
1232,1232,0.07210845628874074,0.1,1.0,1.0,418.0,626.0,1.0,1,1406.0,1
1233,1233,-0.4469004156834681,-0.4,0.0,1.0,348.0,717.0,1.0,0,325.0,1
1234,1234,0.442350275363966,0.4,1.0,1.0,495.0,674.0,1.0,1,241.0,1
1235,1235,-0.886099791720086,-0.9,1.0,0.0,324.0,979.0,0.0,0,327.0,1
1236,1236,0.23363850243774043,0.2,1.0,1.0,423.0,501.0,1.0,1,586.0,1
1237,1237,0.28099288936090694,0.3,1.0,1.0,368.0,629.0,1.0,1,713.0,1
1238,1238,0.7800761695189883,0.8,0.0,0.0,400.0,795.0,0.0,1,325.0,1
1239,1239,0.49068512273543285,0.5,1.0,1.0,401.0,533.0,1.0,1,336.0,1
1240,1240,0.7904138193179345,0.8,0.0,0.0,361.0,515.0,0.0,1,254.0,1
1241,1241,-0.6767368291840886,-0.7,0.0,1.0,389.0,728.0,1.0,0,93.0,1
1242,1242,-0.5070922496088329,-0.5,1.0,0.0,384.0,850.0,0.0,0,366.0,1
1243,1243,-0.7537757278895931,-0.8,1.0,0.0,348.0,559.0,0.0,0,263.0,1
1244,1244,0.26948848221423216,0.3,0.0,0.0,489.0,969.0,0.0,1,1542.0,1
1245,1245,-0.7166312252796643,-0.7,0.0,1.0,334.0,705.0,1.0,0,321.0,1
1246,1246,-0.6111426091571137,-0.6,0.0,1.0,470.0,571.0,1.0,0,449.0,1
1247,1247,0.40768992444781016,0.4,1.0,1.0,274.0,886.0,1.0,1,340.0,1
1248,1248,-0.6889655034457729,-0.7,1.0,0.0,467.0,506.0,0.0,0,577.0,1
1249,1249,0.2230591932881355,0.2,1.0,1.0,316.0,546.0,1.0,1,38.0,1
1250,1250,0.6758630616970233,0.7,1.0,1.0,305.0,754.0,1.0,1,131.0,1
1251,1251,-0.37817696385391397,-0.4,0.0,1.0,343.0,500.0,1.0,0,187.0,1
1252,1252,-0.04913220810290708,-0.0,0.0,1.0,253.0,924.0,1.0,0,893.0,1
1253,1253,-0.8277544287645712,-0.8,1.0,0.0,316.0,537.0,0.0,0,147.0,1
1254,1254,-0.1750367963106476,-0.2,1.0,0.0,384.0,813.0,0.0,0,853.0,1
1255,1255,0.20465849507587663,0.2,1.0,1.0,284.0,642.0,1.0,1,784.0,1
1256,1256,0.18954818526153094,0.2,1.0,1.0,366.0,976.0,1.0,1,628.0,1
1257,1257,0.43858032132717384,0.4,1.0,1.0,280.0,746.0,1.0,1,104.0,1
1258,1258,0.8664622135000882,0.9,0.0,0.0,400.0,966.0,0.0,1,214.0,1
1259,1259,0.08619089922507994,0.1,1.0,1.0,345.0,539.0,1.0,1,1986.0,1
1260,1260,-0.09543696893982367,-0.1,1.0,0.0,260.0,714.0,1.0,1,2026.0,0
1261,1261,0.5975476728843817,0.6,0.0,0.0,322.0,862.0,0.0,1,276.0,1
1262,1262,0.6241295824057677,0.6,0.0,0.0,463.0,672.0,0.0,1,275.0,1
1263,1263,0.877920978957382,0.9,0.0,0.0,398.0,899.0,0.0,1,403.0,1
1264,1264,-0.5522313390814417,-0.6,0.0,1.0,492.0,574.0,1.0,0,414.0,1
1265,1265,0.7000018427476172,0.7,0.0,0.0,339.0,725.0,0.0,1,236.0,1
1266,1266,-0.2158975757104109,-0.2,0.0,1.0,455.0,781.0,1.0,0,634.0,1
1267,1267,0.6798120570003133,0.7,1.0,1.0,425.0,753.0,1.0,1,132.0,1
1268,1268,0.18164652353922117,0.2,1.0,1.0,381.0,725.0,1.0,1,1894.0,1
1269,1269,0.1036026045034305,0.1,0.0,0.0,406.0,826.0,0.0,1,1768.0,1
1270,1270,0.7167266478690725,0.7,1.0,1.0,471.0,974.0,1.0,1,305.0,1
1271,1271,0.5489626515826399,0.5,1.0,1.0,393.0,723.0,1.0,1,104.0,1
1272,1272,-0.438505498878189,-0.4,0.0,1.0,411.0,808.0,1.0,0,251.0,1
1273,1273,0.7295987162734013,0.7,0.0,0.0,458.0,819.0,0.0,1,243.0,1
1274,1274,-0.639662832010456,-0.6,1.0,0.0,376.0,922.0,0.0,0,412.0,1
1275,1275,0.11278239737182638,0.1,1.0,1.0,473.0,516.0,1.0,1,1441.0,1
1276,1276,0.8990416546079766,0.9,1.0,1.0,264.0,869.0,1.0,1,157.0,1
1277,1277,0.4153440931539131,0.4,0.0,0.0,311.0,569.0,0.0,1,1510.0,1
1278,1278,-0.1370354685498546,-0.1,1.0,0.0,381.0,883.0,0.0,0,1736.0,1
1279,1279,0.8851374930800041,0.9,1.0,1.0,425.0,721.0,1.0,1,184.0,1
1280,1280,-0.41733762349895054,-0.4,0.0,1.0,498.0,806.0,1.0,0,216.0,1
1281,1281,-0.052556000103783584,-0.1,1.0,0.0,428.0,919.0,0.0,0,1653.0,1
1282,1282,-0.6622247281287078,-0.7,1.0,0.0,454.0,830.0,0.0,0,296.0,1
1283,1283,0.6171981217434793,0.6,0.0,0.0,320.0,943.0,0.0,1,457.0,1
1284,1284,-0.005768390756152875,-0.0,1.0,0.0,255.0,711.0,0.0,0,2034.0,1
1285,1285,0.32049063263218536,0.3,0.0,0.0,496.0,620.0,0.0,1,794.0,1
1286,1286,0.07081963147784776,0.1,0.0,0.0,282.0,651.0,0.0,1,2067.0,1
1287,1287,0.17787090788531257,0.2,0.0,0.0,444.0,749.0,0.0,1,1807.0,1
1288,1288,0.6747178913635844,0.7,0.0,0.0,255.0,854.0,0.0,1,181.0,1
1289,1289,0.7292562466719518,0.7,1.0,1.0,296.0,792.0,1.0,1,122.0,1
1290,1290,-0.07202342365799086,-0.1,0.0,1.0,328.0,918.0,1.0,0,404.0,1
1291,1291,0.6285438642303219,0.6,0.0,0.0,404.0,960.0,0.0,1,266.0,1
1292,1292,0.6687258804898161,0.7,1.0,1.0,284.0,644.0,1.0,1,152.0,1
1293,1293,-0.8052626385461988,-0.8,0.0,1.0,446.0,702.0,1.0,0,422.0,1
1294,1294,0.01867980199985242,0.0,0.0,0.0,270.0,915.0,0.0,1,1815.0,1
1295,1295,0.7572517565867393,0.8,0.0,0.0,347.0,900.0,0.0,1,193.0,1
1296,1296,0.6473179530826877,0.6,0.0,0.0,423.0,722.0,0.0,1,395.0,1
1297,1297,0.09051872461146815,0.1,1.0,1.0,270.0,985.0,1.0,1,1745.0,1
1298,1298,-0.049872139579138386,-0.0,0.0,1.0,356.0,515.0,1.0,0,2129.0,1
1299,1299,0.5921900013198312,0.6,0.0,0.0,332.0,754.0,0.0,1,214.0,1
1300,1300,0.5044781319975801,0.5,1.0,1.0,306.0,916.0,1.0,1,268.0,1
1301,1301,-0.3239326464620961,-0.3,1.0,0.0,275.0,940.0,0.0,0,315.0,1
1302,1302,0.3335529588456486,0.3,1.0,1.0,433.0,982.0,1.0,1,285.0,1
1303,1303,0.0028588218940551746,0.0,1.0,1.0,266.0,988.0,1.0,1,1746.0,1
1304,1304,-0.6425886594734911,-0.6,0.0,1.0,373.0,924.0,1.0,0,93.0,1
1305,1305,0.06951929050488737,0.1,0.0,0.0,490.0,900.0,1.0,0,1610.0,0
1306,1306,-0.30356253830185775,-0.3,0.0,1.0,343.0,722.0,1.0,0,375.0,1
1307,1307,0.34301196581449533,0.3,1.0,1.0,436.0,583.0,1.0,1,101.0,1
1308,1308,0.06372107386795356,0.1,0.0,0.0,454.0,888.0,0.0,1,1658.0,1
1309,1309,-0.7023295027201637,-0.7,0.0,1.0,309.0,884.0,1.0,0,197.0,1
1310,1310,-0.16577572984006028,-0.2,0.0,1.0,461.0,992.0,1.0,0,947.0,1
1311,1311,-0.12333487598127135,-0.1,0.0,1.0,437.0,753.0,1.0,0,1070.0,1
1312,1312,-0.3508373645091245,-0.4,0.0,1.0,330.0,752.0,1.0,0,408.0,1
1313,1313,0.6095498198042059,0.6,1.0,1.0,265.0,878.0,1.0,1,487.0,1
1314,1314,0.8509770182072244,0.9,1.0,1.0,382.0,552.0,1.0,1,226.0,1
1315,1315,-0.19467625577002934,-0.2,0.0,1.0,460.0,745.0,1.0,0,1735.0,1
1316,1316,0.6394178332748156,0.6,0.0,0.0,354.0,781.0,0.0,1,265.0,1
1317,1317,-0.7297673496138899,-0.7,1.0,0.0,395.0,978.0,0.0,0,187.0,1
1318,1318,0.25304905562937596,0.3,0.0,0.0,452.0,778.0,0.0,1,1770.0,1
1319,1319,-0.21415784545096672,-0.2,1.0,0.0,442.0,532.0,0.0,0,456.0,1
1320,1320,0.2750115156505669,0.3,1.0,1.0,472.0,608.0,1.0,1,480.0,1
1321,1321,-0.3117137315598273,-0.3,0.0,1.0,266.0,898.0,1.0,0,206.0,1
1322,1322,-0.7598905674787896,-0.8,0.0,1.0,273.0,501.0,1.0,0,386.0,1
1323,1323,-0.0376588814405463,-0.0,0.0,1.0,278.0,560.0,1.0,0,2162.0,1
1324,1324,0.8797519197102678,0.9,1.0,1.0,386.0,852.0,1.0,1,272.0,1
1325,1325,-0.6181286523556928,-0.6,0.0,1.0,391.0,838.0,1.0,0,361.0,1
1326,1326,-0.3020324237972102,-0.3,1.0,0.0,263.0,796.0,0.0,0,631.0,1
1327,1327,0.38213874066989917,0.4,0.0,0.0,286.0,840.0,0.0,1,334.0,1
1328,1328,-0.49091515228753624,-0.5,0.0,1.0,427.0,550.0,1.0,0,693.0,1
1329,1329,0.8429343030768045,0.8,0.0,0.0,440.0,847.0,0.0,1,303.0,1
1330,1330,0.5382320899768712,0.5,0.0,0.0,278.0,706.0,0.0,1,1086.0,1
1331,1331,0.07010020283753038,0.1,0.0,0.0,424.0,990.0,0.0,1,1586.0,1
1332,1332,0.6539786949452852,0.7,1.0,1.0,397.0,760.0,1.0,1,223.0,1
1333,1333,0.23413670661144048,0.2,1.0,1.0,410.0,762.0,1.0,1,818.0,1
1334,1334,-0.7161773585893259,-0.7,0.0,1.0,316.0,596.0,1.0,0,198.0,1
1335,1335,-0.5108514742934771,-0.5,1.0,0.0,462.0,592.0,0.0,0,146.0,1
1336,1336,-0.7611582742835925,-0.8,0.0,1.0,347.0,595.0,1.0,0,268.0,1
1337,1337,0.7123005692765162,0.7,0.0,0.0,265.0,694.0,0.0,1,291.0,1
1338,1338,0.8874998798531354,0.9,1.0,1.0,445.0,951.0,1.0,1,64.0,1
1339,1339,-0.6367185849446506,-0.6,1.0,0.0,376.0,622.0,0.0,0,292.0,1
1340,1340,-0.4735842706119499,-0.5,1.0,0.0,400.0,928.0,0.0,0,382.0,1
1341,1341,0.7443269708987214,0.7,1.0,1.0,404.0,698.0,1.0,1,238.0,1
1342,1342,0.3660748218596138,0.4,1.0,1.0,269.0,619.0,1.0,1,612.0,1
1343,1343,-0.16452114292826325,-0.2,1.0,0.0,437.0,648.0,0.0,0,695.0,1
1344,1344,-0.7407737160390038,-0.7,1.0,0.0,253.0,831.0,0.0,0,246.0,1
1345,1345,-0.5269009632825763,-0.5,0.0,1.0,435.0,568.0,1.0,0,257.0,1
1346,1346,0.024524911884344802,0.0,0.0,0.0,309.0,827.0,1.0,0,1864.0,0
1347,1347,0.27095455824785264,0.3,0.0,0.0,429.0,712.0,0.0,1,1859.0,1
1348,1348,-0.030887047564781667,-0.0,0.0,1.0,323.0,720.0,1.0,0,1957.0,1
1349,1349,0.1171539169859096,0.1,0.0,0.0,386.0,784.0,1.0,0,1830.0,0
1350,1350,0.3870639407356703,0.4,0.0,0.0,290.0,846.0,0.0,1,944.0,1
1351,1351,-0.7201923175522265,-0.7,1.0,0.0,423.0,622.0,0.0,0,415.0,1
1352,1352,0.7509871230133139,0.8,0.0,0.0,286.0,792.0,0.0,1,292.0,1
1353,1353,-0.8738345327693613,-0.9,0.0,1.0,381.0,531.0,1.0,0,128.0,1
1354,1354,0.7004543559286948,0.7,1.0,1.0,377.0,946.0,1.0,1,147.0,1
1355,1355,-0.55017280523682,-0.6,1.0,0.0,325.0,624.0,0.0,0,491.0,1
1356,1356,-0.8010510100490279,-0.8,0.0,1.0,439.0,772.0,1.0,0,329.0,1
1357,1357,-0.8024097042745405,-0.8,0.0,1.0,267.0,852.0,1.0,0,281.0,1
1358,1358,-0.15937236266221178,-0.2,0.0,1.0,389.0,767.0,1.0,0,1334.0,1
1359,1359,0.7135098650192663,0.7,1.0,1.0,486.0,799.0,1.0,1,235.0,1
1360,1360,0.7023728764835303,0.7,0.0,0.0,393.0,630.0,0.0,1,207.0,1
1361,1361,0.6621369155414881,0.7,0.0,0.0,489.0,844.0,0.0,1,497.0,1
1362,1362,-0.4225530248105477,-0.4,1.0,0.0,486.0,785.0,0.0,0,269.0,1
1363,1363,0.8097985172409609,0.8,0.0,0.0,402.0,868.0,0.0,1,150.0,1
1364,1364,0.6296948692786767,0.6,1.0,1.0,343.0,690.0,1.0,1,407.0,1
1365,1365,-0.2598208391676723,-0.3,1.0,0.0,365.0,638.0,0.0,0,517.0,1
1366,1366,0.18275494528864134,0.2,1.0,1.0,369.0,795.0,1.0,1,1376.0,1
1367,1367,-0.5140397680196607,-0.5,1.0,0.0,483.0,983.0,0.0,0,284.0,1
1368,1368,-0.4302974650037959,-0.4,0.0,1.0,377.0,960.0,1.0,0,593.0,1
1369,1369,-0.7481454606731788,-0.7,1.0,0.0,413.0,551.0,0.0,0,296.0,1
1370,1370,0.8279162855100491,0.8,1.0,1.0,297.0,726.0,1.0,1,277.0,1
1371,1371,0.19372468480686889,0.2,1.0,1.0,406.0,504.0,1.0,1,350.0,1
1372,1372,0.4536017230002273,0.5,0.0,0.0,320.0,825.0,0.0,1,1855.0,1
1373,1373,0.2778616722250219,0.3,0.0,0.0,311.0,787.0,0.0,1,1192.0,1
1374,1374,0.11325372453428273,0.1,1.0,1.0,407.0,906.0,1.0,1,377.0,1
1375,1375,0.3987639311540331,0.4,1.0,1.0,380.0,717.0,1.0,1,763.0,1
1376,1376,-0.06003147146077159,-0.1,1.0,0.0,415.0,909.0,0.0,0,1676.0,1
1377,1377,-0.25412706683867037,-0.3,1.0,0.0,420.0,624.0,0.0,0,576.0,1
1378,1378,-0.30786949978485745,-0.3,0.0,1.0,485.0,908.0,1.0,0,307.0,1
1379,1379,-0.697100573449692,-0.7,1.0,0.0,477.0,970.0,0.0,0,403.0,1
1380,1380,-0.4821759225977488,-0.5,0.0,1.0,459.0,898.0,1.0,0,363.0,1
1381,1381,0.029264262099033544,0.0,0.0,0.0,365.0,584.0,1.0,0,2051.0,0
1382,1382,0.46407907904553436,0.5,1.0,1.0,320.0,715.0,1.0,1,405.0,1
1383,1383,0.6473273913276542,0.6,0.0,0.0,492.0,635.0,0.0,1,313.0,1
1384,1384,0.8319349149350216,0.8,1.0,1.0,491.0,587.0,1.0,1,192.0,1
1385,1385,0.4224458942132997,0.4,1.0,1.0,292.0,509.0,1.0,1,479.0,1
1386,1386,-0.21310514490548227,-0.2,1.0,0.0,419.0,621.0,0.0,0,540.0,1
1387,1387,0.007394872215767068,0.0,1.0,1.0,401.0,527.0,1.0,1,2072.0,1
1388,1388,-0.3449797272085642,-0.3,1.0,0.0,286.0,674.0,0.0,0,280.0,1
1389,1389,0.06168474778651112,0.1,0.0,0.0,415.0,537.0,1.0,0,1018.0,0
1390,1390,0.30507844592876376,0.3,0.0,0.0,426.0,837.0,0.0,1,817.0,1
1391,1391,-0.4346252436679468,-0.4,1.0,0.0,304.0,588.0,0.0,0,368.0,1
1392,1392,0.8959185941633617,0.9,1.0,1.0,296.0,649.0,1.0,1,275.0,1
1393,1393,0.6052312999173824,0.6,0.0,0.0,452.0,730.0,0.0,1,308.0,1
1394,1394,-0.15264764489732452,-0.2,1.0,0.0,325.0,718.0,0.0,0,757.0,1
1395,1395,0.21587780703233006,0.2,1.0,1.0,430.0,837.0,1.0,1,413.0,1
1396,1396,0.6343573654271454,0.6,0.0,0.0,323.0,980.0,0.0,1,367.0,1
1397,1397,-0.3403445568177951,-0.3,1.0,0.0,425.0,906.0,0.0,0,519.0,1
1398,1398,-0.043915483977407854,-0.0,1.0,0.0,331.0,665.0,1.0,1,2004.0,0
1399,1399,0.4210932730757909,0.4,1.0,1.0,345.0,855.0,1.0,1,430.0,1
1400,1400,0.12857606558744739,0.1,0.0,0.0,260.0,788.0,1.0,0,1952.0,0
1401,1401,0.4114479456612453,0.4,1.0,1.0,299.0,800.0,1.0,1,631.0,1
1402,1402,0.12653548125254488,0.1,1.0,1.0,481.0,995.0,1.0,1,474.0,1
1403,1403,-0.8000015027482544,-0.8,0.0,1.0,367.0,796.0,1.0,0,187.0,1
1404,1404,0.1588747354834631,0.2,1.0,1.0,329.0,948.0,1.0,1,1143.0,1
1405,1405,0.12845654169014697,0.1,0.0,0.0,459.0,817.0,0.0,1,1724.0,1
1406,1406,-0.1739314394371524,-0.2,0.0,1.0,445.0,848.0,1.0,0,1457.0,1
1407,1407,-0.5306820936922436,-0.5,1.0,0.0,326.0,529.0,0.0,0,495.0,1
1408,1408,0.5503072972353503,0.6,1.0,1.0,465.0,951.0,1.0,1,214.0,1
1409,1409,-0.12900831493544873,-0.1,0.0,1.0,440.0,703.0,1.0,0,1087.0,1
1410,1410,0.7554587315620688,0.8,0.0,0.0,398.0,984.0,0.0,1,288.0,1
1411,1411,-0.851306307906897,-0.9,1.0,0.0,341.0,690.0,0.0,0,279.0,1
1412,1412,0.1544628395115123,0.2,1.0,1.0,277.0,542.0,1.0,1,1041.0,1
1413,1413,0.7954915602904918,0.8,1.0,1.0,393.0,768.0,1.0,1,179.0,1
1414,1414,0.45641679110996025,0.5,0.0,0.0,310.0,897.0,0.0,1,683.0,1
1415,1415,0.025788583604766546,0.0,0.0,0.0,490.0,734.0,1.0,0,1776.0,0
1416,1416,0.5976419943462211,0.6,0.0,0.0,288.0,933.0,0.0,1,449.0,1
1417,1417,0.005483069506733496,0.0,1.0,1.0,364.0,903.0,1.0,1,1733.0,1
1418,1418,-0.4044060009384352,-0.4,1.0,0.0,483.0,944.0,0.0,0,483.0,1
1419,1419,-0.4683303011702539,-0.5,1.0,0.0,380.0,637.0,0.0,0,93.0,1
1420,1420,-0.06349230157786356,-0.1,0.0,1.0,265.0,635.0,1.0,0,770.0,1
1421,1421,0.5537439535865581,0.6,0.0,0.0,436.0,825.0,0.0,1,549.0,1
1422,1422,-0.19802084700126987,-0.2,0.0,1.0,266.0,623.0,1.0,0,951.0,1
1423,1423,-0.8847942499414065,-0.9,0.0,1.0,468.0,926.0,1.0,0,326.0,1
1424,1424,0.07858791487244143,0.1,0.0,0.0,310.0,605.0,0.0,1,2085.0,1
1425,1425,0.778691048133611,0.8,0.0,0.0,498.0,569.0,0.0,1,243.0,1
1426,1426,0.051063954696583425,0.1,0.0,0.0,330.0,665.0,1.0,0,2005.0,0
1427,1427,0.70051046712351,0.7,0.0,0.0,438.0,519.0,0.0,1,373.0,1
1428,1428,-0.32334386371339474,-0.3,0.0,1.0,363.0,915.0,1.0,0,342.0,1
1429,1429,0.13101455666675654,0.1,0.0,0.0,481.0,567.0,0.0,1,1952.0,1
1430,1430,0.7140094675211438,0.7,0.0,0.0,367.0,637.0,0.0,1,446.0,1
1431,1431,-0.4051618492304422,-0.4,1.0,0.0,333.0,605.0,0.0,0,572.0,1
1432,1432,-0.5060632384725365,-0.5,1.0,0.0,434.0,735.0,0.0,0,511.0,1
1433,1433,-0.6077333616556371,-0.6,1.0,0.0,413.0,710.0,0.0,0,337.0,1
1434,1434,0.545640823568449,0.5,0.0,0.0,396.0,831.0,0.0,1,413.0,1
1435,1435,0.5694041046224226,0.6,0.0,0.0,253.0,932.0,0.0,1,415.0,1
1436,1436,-0.6953993590694487,-0.7,0.0,1.0,383.0,939.0,1.0,0,218.0,1
1437,1437,-0.7933825736791164,-0.8,1.0,0.0,257.0,613.0,0.0,0,260.0,1
1438,1438,-0.8561230328863354,-0.9,0.0,1.0,466.0,969.0,1.0,0,135.0,1
1439,1439,0.45649068102116963,0.5,1.0,1.0,388.0,783.0,1.0,1,299.0,1
1440,1440,0.18628851938824031,0.2,0.0,0.0,317.0,658.0,0.0,1,2025.0,1
1441,1441,-0.509781738598506,-0.5,0.0,1.0,257.0,933.0,1.0,0,350.0,1
1442,1442,-0.28169152188122515,-0.3,0.0,1.0,328.0,662.0,1.0,0,320.0,1
1443,1443,-0.012909285501278456,-0.0,0.0,1.0,282.0,703.0,1.0,0,2015.0,1
1444,1444,0.7389534458000274,0.7,1.0,1.0,269.0,662.0,1.0,1,539.0,1
1445,1445,-0.6832461296160424,-0.7,0.0,1.0,329.0,835.0,1.0,0,216.0,1
1446,1446,-0.750362475532036,-0.8,1.0,0.0,269.0,784.0,0.0,0,177.0,1
1447,1447,-0.4602034728647187,-0.5,1.0,0.0,484.0,775.0,0.0,0,241.0,1
1448,1448,0.7600513085717345,0.8,0.0,0.0,309.0,702.0,0.0,1,549.0,1
1449,1449,-0.18004240872814858,-0.2,1.0,0.0,303.0,667.0,0.0,0,1790.0,1
1450,1450,-0.8061408471358527,-0.8,1.0,0.0,252.0,756.0,0.0,0,202.0,1
1451,1451,0.02787442927685957,0.0,0.0,0.0,424.0,876.0,1.0,0,1700.0,0
1452,1452,0.11569097866185774,0.1,0.0,0.0,377.0,996.0,0.0,1,1627.0,1
1453,1453,0.30794609528248806,0.3,1.0,1.0,254.0,878.0,1.0,1,708.0,1
1454,1454,-0.4293840131190855,-0.4,0.0,1.0,299.0,738.0,1.0,0,333.0,1
1455,1455,-0.026559343759881116,-0.0,0.0,1.0,448.0,617.0,1.0,0,1935.0,1
1456,1456,0.5342476870973966,0.5,0.0,0.0,318.0,674.0,0.0,1,478.0,1
1457,1457,0.22787840160823702,0.2,0.0,0.0,297.0,912.0,0.0,1,1791.0,1
1458,1458,-0.24746570189814632,-0.2,1.0,0.0,263.0,810.0,0.0,0,907.0,1
1459,1459,-0.06395639143700471,-0.1,1.0,0.0,410.0,711.0,0.0,0,1879.0,1
1460,1460,-0.573305456185985,-0.6,1.0,0.0,294.0,556.0,0.0,0,390.0,1
1461,1461,0.6561920890714942,0.7,0.0,0.0,329.0,691.0,0.0,1,410.0,1
1462,1462,0.004178724663781219,0.0,1.0,1.0,451.0,530.0,0.0,0,2019.0,0
1463,1463,-0.3544119014154835,-0.4,0.0,1.0,268.0,602.0,1.0,0,500.0,1
1464,1464,0.4248808836476822,0.4,0.0,0.0,418.0,704.0,0.0,1,328.0,1
1465,1465,-0.8960154381874035,-0.9,1.0,0.0,487.0,990.0,0.0,0,223.0,1
1466,1466,-0.8647566173377731,-0.9,0.0,1.0,490.0,897.0,1.0,0,143.0,1
1467,1467,-0.03402133162633203,-0.0,1.0,0.0,366.0,605.0,1.0,1,2029.0,0
1468,1468,-0.48865374077153756,-0.5,1.0,0.0,281.0,694.0,0.0,0,305.0,1
1469,1469,0.1510090689454967,0.2,0.0,0.0,306.0,824.0,0.0,1,1870.0,1
1470,1470,0.5312270530084223,0.5,0.0,0.0,330.0,948.0,0.0,1,262.0,1
1471,1471,0.5719777429839755,0.6,0.0,0.0,470.0,852.0,0.0,1,768.0,1
1472,1472,-0.2464420292430266,-0.2,0.0,1.0,310.0,714.0,1.0,0,696.0,1
1473,1473,-0.5351614279425714,-0.5,0.0,1.0,393.0,869.0,1.0,0,498.0,1
1474,1474,-0.03078192275732161,-0.0,1.0,0.0,315.0,873.0,0.0,0,1812.0,1
1475,1475,0.557567300601035,0.6,0.0,0.0,492.0,998.0,0.0,1,350.0,1
1476,1476,0.5265871066384925,0.5,0.0,0.0,418.0,590.0,0.0,1,342.0,1
1477,1477,0.825067702632914,0.8,0.0,0.0,337.0,777.0,0.0,1,366.0,1
1478,1478,0.8431191891369582,0.8,1.0,1.0,404.0,779.0,1.0,1,157.0,1
1479,1479,0.4983138454530128,0.5,1.0,1.0,286.0,949.0,1.0,1,285.0,1
1480,1480,-0.05066690272716756,-0.1,0.0,1.0,441.0,998.0,1.0,0,1561.0,1
1481,1481,-0.2024244986093724,-0.2,1.0,0.0,489.0,932.0,0.0,0,1039.0,1
1482,1482,0.6954850640790403,0.7,1.0,1.0,335.0,645.0,1.0,1,250.0,1
1483,1483,-0.7866115148606058,-0.8,1.0,0.0,439.0,917.0,0.0,0,294.0,1
1484,1484,-0.11596734019975186,-0.1,0.0,1.0,449.0,793.0,1.0,0,1318.0,1
1485,1485,0.24389706936249123,0.2,0.0,0.0,447.0,600.0,0.0,1,883.0,1
1486,1486,0.04987565251011794,0.0,1.0,1.0,454.0,682.0,0.0,0,1864.0,0
1487,1487,0.8933328841092546,0.9,0.0,0.0,404.0,602.0,0.0,1,344.0,1
1488,1488,-0.3760161886707727,-0.4,0.0,1.0,420.0,952.0,1.0,0,288.0,1
1489,1489,0.010699976600529792,0.0,1.0,1.0,322.0,650.0,1.0,1,2028.0,1
