,trial,coherence,coherence_bin,green_side,correct_side,target_onset,checker_onset,decision,green_decision,decision_time,correct_decision
0,0,-0.521566185887478,-0.5,0.0,1.0,449.0,800.0,1.0,0,721.0,1
1,1,-0.11562679523882091,-0.1,1.0,0.0,294.0,812.0,0.0,0,1524.0,1
2,2,-0.24232391981218004,-0.2,1.0,0.0,429.0,942.0,0.0,0,699.0,1
3,3,0.10652276606610311,0.1,0.0,0.0,312.0,693.0,0.0,1,1765.0,1
4,4,0.3394458670853998,0.3,0.0,0.0,493.0,997.0,0.0,1,-500.0,1
5,5,-0.10464997601274173,-0.1,1.0,0.0,462.0,692.0,0.0,0,1556.0,1
6,6,0.23650262358827578,0.2,1.0,1.0,391.0,692.0,1.0,1,1607.0,1
7,7,-0.6940424973025067,-0.7,1.0,0.0,453.0,634.0,0.0,0,153.0,1
8,8,-0.8217047765844558,-0.8,1.0,0.0,479.0,779.0,0.0,0,262.0,1
9,9,-0.7780462552464732,-0.8,1.0,0.0,359.0,677.0,0.0,0,374.0,1
10,10,0.46843716388478185,0.5,0.0,0.0,477.0,751.0,0.0,1,502.0,1
11,11,0.6996472891631059,0.7,1.0,1.0,470.0,643.0,1.0,1,187.0,1
12,12,0.5477319529222205,0.5,0.0,0.0,494.0,682.0,0.0,1,214.0,1
13,13,-0.2969740670470854,-0.3,1.0,0.0,260.0,591.0,0.0,0,579.0,1
14,14,-0.2680252870636186,-0.3,0.0,1.0,392.0,530.0,1.0,0,808.0,1
15,15,0.4165933133861329,0.4,1.0,1.0,372.0,749.0,1.0,1,209.0,1
16,16,-0.20114389166427682,-0.2,1.0,0.0,360.0,975.0,0.0,0,575.0,1
17,17,-0.7037752719237638,-0.7,1.0,0.0,286.0,645.0,0.0,0,169.0,1
18,18,0.032994722880372085,0.0,0.0,0.0,467.0,629.0,0.0,1,2434.0,1
19,19,0.5720205123089989,0.6,1.0,1.0,410.0,678.0,0.0,0,-298.0,0
20,20,0.4783821492634063,0.5,0.0,0.0,258.0,764.0,0.0,1,158.0,1
21,21,0.5569716345372465,0.6,0.0,0.0,426.0,962.0,0.0,1,412.0,1
22,22,0.04121001730647467,0.0,0.0,0.0,285.0,687.0,0.0,1,1338.0,1
23,23,0.36228082741953427,0.4,1.0,1.0,421.0,691.0,1.0,1,258.0,1
24,24,-0.1239209640798572,-0.1,1.0,0.0,276.0,955.0,0.0,0,709.0,1
25,25,0.27996682792314875,0.3,0.0,0.0,337.0,628.0,0.0,1,395.0,1
26,26,-0.4591662551197868,-0.5,1.0,0.0,266.0,648.0,0.0,0,476.0,1
27,27,-0.23155817998006445,-0.2,1.0,0.0,270.0,944.0,0.0,0,806.0,1
28,28,-0.0765441748714859,-0.1,1.0,0.0,374.0,814.0,0.0,0,3812.0,1
29,29,0.25888080387795565,0.3,0.0,0.0,371.0,548.0,0.0,1,841.0,1
30,30,0.08665546184855977,0.1,1.0,1.0,490.0,741.0,1.0,1,629.0,1
31,31,-0.06633799188047329,-0.1,0.0,1.0,436.0,738.0,0.0,1,-64.0,0
32,32,-0.7977158574603411,-0.8,1.0,0.0,360.0,557.0,0.0,0,163.0,1
33,33,-0.7413714701916294,-0.7,0.0,1.0,432.0,671.0,1.0,0,387.0,1
34,34,0.46310391355121283,0.5,0.0,0.0,393.0,882.0,0.0,1,45.0,1
35,35,-0.4202934415152696,-0.4,0.0,1.0,461.0,940.0,1.0,0,309.0,1
36,36,0.039608744301178556,0.0,0.0,0.0,346.0,562.0,1.0,0,4092.0,0
37,37,-0.6189246664920445,-0.6,0.0,1.0,474.0,854.0,0.0,1,-208.0,0
38,38,0.1407832688434708,0.1,0.0,0.0,346.0,656.0,0.0,1,1328.0,1
39,39,-0.2764810124928351,-0.3,1.0,0.0,285.0,631.0,0.0,0,64.0,1
40,40,0.8827963401374114,0.9,0.0,0.0,282.0,943.0,0.0,1,-45.0,1
41,41,0.6240928476997892,0.6,1.0,1.0,408.0,842.0,1.0,1,140.0,1
42,42,-0.6467999300305274,-0.6,1.0,0.0,413.0,886.0,0.0,0,211.0,1
43,43,-0.0204142044784017,-0.0,1.0,0.0,365.0,917.0,1.0,1,-72.0,0
44,44,0.4190202821670709,0.4,0.0,0.0,300.0,900.0,0.0,1,440.0,1
45,45,0.38575299425743814,0.4,1.0,1.0,393.0,834.0,1.0,1,443.0,1
46,46,-0.13566312215619858,-0.1,1.0,0.0,273.0,601.0,0.0,0,1536.0,1
47,47,-0.5754793735227828,-0.6,0.0,1.0,390.0,848.0,1.0,0,1182.0,1
48,48,-0.4890347887587718,-0.5,0.0,1.0,485.0,853.0,1.0,0,432.0,1
49,49,-0.3404448912339527,-0.3,0.0,1.0,434.0,610.0,1.0,0,706.0,1
50,50,0.2857488400314304,0.3,0.0,0.0,368.0,747.0,0.0,1,605.0,1
51,51,0.8022503355372309,0.8,0.0,0.0,497.0,671.0,0.0,1,132.0,1
52,52,-0.29052128092412477,-0.3,1.0,0.0,350.0,738.0,0.0,0,382.0,1
53,53,0.8839120583837782,0.9,0.0,0.0,448.0,536.0,0.0,1,186.0,1
54,54,0.36539566226592723,0.4,1.0,1.0,438.0,513.0,1.0,1,299.0,1
55,55,0.6949078038209401,0.7,1.0,1.0,380.0,954.0,1.0,1,166.0,1
56,56,-0.27425805305420703,-0.3,1.0,0.0,262.0,510.0,0.0,0,128.0,1
57,57,-0.21051376943852795,-0.2,1.0,0.0,496.0,728.0,0.0,0,446.0,1
58,58,0.723399562185468,0.7,1.0,1.0,490.0,953.0,1.0,1,577.0,1
59,59,-0.01679237298981473,-0.0,0.0,1.0,303.0,899.0,1.0,0,3798.0,1
60,60,-0.7968937370721335,-0.8,0.0,1.0,422.0,540.0,1.0,0,278.0,1
61,61,-0.7628032629225728,-0.8,1.0,0.0,477.0,997.0,0.0,0,266.0,1
62,62,-0.15987810234595334,-0.2,0.0,1.0,410.0,760.0,1.0,0,780.0,1
63,63,0.6768135774531666,0.7,1.0,1.0,254.0,553.0,1.0,1,403.0,1
64,64,0.08613686400684939,0.1,1.0,1.0,261.0,716.0,1.0,1,4023.0,1
65,65,-0.7548957653263084,-0.8,0.0,1.0,464.0,630.0,1.0,0,346.0,1
66,66,0.8310408616667192,0.8,0.0,0.0,302.0,514.0,0.0,1,204.0,1
67,67,-0.6197852019602674,-0.6,1.0,0.0,393.0,738.0,0.0,0,339.0,1
68,68,0.8595144599189705,0.9,1.0,1.0,263.0,730.0,1.0,1,247.0,1
69,69,0.8899160903106546,0.9,0.0,0.0,473.0,866.0,0.0,1,111.0,1
70,70,-0.5685682467948221,-0.6,0.0,1.0,336.0,914.0,1.0,0,950.0,1
71,71,0.7579653088803201,0.8,1.0,1.0,403.0,624.0,1.0,1,303.0,1
72,72,0.7405534601597533,0.7,0.0,0.0,285.0,829.0,0.0,1,196.0,1
73,73,-0.5929905273293004,-0.6,1.0,0.0,424.0,579.0,0.0,0,427.0,1
74,74,0.16118980235745306,0.2,0.0,0.0,489.0,560.0,0.0,1,261.0,1
75,75,0.1909209991377302,0.2,1.0,1.0,437.0,538.0,1.0,1,1585.0,1
76,76,-0.40464293846737365,-0.4,1.0,0.0,395.0,878.0,0.0,0,277.0,1
77,77,0.8227552214937787,0.8,1.0,1.0,487.0,534.0,1.0,1,129.0,1
78,78,0.4451303846645608,0.4,1.0,1.0,414.0,924.0,1.0,1,182.0,1
79,79,-0.5496768228163293,-0.5,0.0,1.0,293.0,580.0,1.0,0,297.0,1
80,80,0.41986387872161635,0.4,0.0,0.0,392.0,537.0,0.0,1,181.0,1
81,81,-0.06247693026543555,-0.1,0.0,1.0,334.0,690.0,0.0,1,3976.0,0
82,82,0.09144793402366735,0.1,1.0,1.0,471.0,508.0,1.0,1,1371.0,1
83,83,0.16082690406199174,0.2,1.0,1.0,409.0,919.0,1.0,1,1182.0,1
84,84,-0.07624230849663016,-0.1,1.0,0.0,420.0,961.0,0.0,0,2889.0,1
85,85,-0.7927756077816435,-0.8,0.0,1.0,479.0,642.0,1.0,0,209.0,1
86,86,-0.08377826253385978,-0.1,0.0,1.0,327.0,823.0,1.0,0,3850.0,1
87,87,-0.24095294316743932,-0.2,1.0,0.0,321.0,997.0,1.0,1,-148.0,0
88,88,-0.11398397808453353,-0.1,0.0,1.0,478.0,624.0,0.0,1,3898.0,0
89,89,-0.07991172087690712,-0.1,1.0,0.0,322.0,937.0,0.0,0,421.0,1
90,90,0.23688379580441998,0.2,0.0,0.0,390.0,621.0,0.0,1,599.0,1
91,91,-0.5024782479773096,-0.5,1.0,0.0,305.0,974.0,0.0,0,161.0,1
92,92,0.5500663586232754,0.6,1.0,1.0,322.0,978.0,1.0,1,460.0,1
93,93,0.6271124897980745,0.6,1.0,1.0,329.0,900.0,1.0,1,321.0,1
94,94,-0.6676727288601001,-0.7,1.0,0.0,484.0,631.0,0.0,0,-95.0,1
95,95,0.32901268389172234,0.3,0.0,0.0,326.0,746.0,0.0,1,198.0,1
96,96,-0.8207863705838029,-0.8,1.0,0.0,315.0,814.0,0.0,0,111.0,1
97,97,-0.09165494953925135,-0.1,0.0,1.0,359.0,545.0,0.0,1,4096.0,0
98,98,-0.13897659167944687,-0.1,1.0,0.0,351.0,648.0,0.0,0,471.0,1
99,99,-0.2776779888612536,-0.3,0.0,1.0,285.0,648.0,1.0,0,327.0,1
100,100,-0.7195316051512581,-0.7,1.0,0.0,252.0,792.0,0.0,0,416.0,1
101,101,0.5694269602831433,0.6,1.0,1.0,334.0,827.0,1.0,1,399.0,1
102,102,0.8895693781076067,0.9,1.0,1.0,333.0,819.0,1.0,1,168.0,1
103,103,0.3167011254443143,0.3,1.0,1.0,342.0,571.0,1.0,1,247.0,1
104,104,-0.3743266448291811,-0.4,0.0,1.0,463.0,722.0,1.0,0,725.0,1
105,105,0.28891697840029396,0.3,1.0,1.0,321.0,873.0,1.0,1,816.0,1
106,106,0.2515691063438613,0.3,1.0,1.0,415.0,750.0,1.0,1,775.0,1
107,107,0.33603428561445525,0.3,0.0,0.0,362.0,570.0,0.0,1,698.0,1
108,108,-0.5556972143986207,-0.6,0.0,1.0,409.0,514.0,1.0,0,467.0,1
109,109,0.09862367950477491,0.1,0.0,0.0,260.0,515.0,0.0,1,3475.0,1
110,110,0.16029932275404823,0.2,1.0,1.0,367.0,513.0,1.0,1,1570.0,1
111,111,-0.6453729235251771,-0.6,0.0,1.0,357.0,660.0,1.0,0,543.0,1
112,112,0.7023863294275844,0.7,1.0,1.0,267.0,874.0,1.0,1,239.0,1
113,113,-0.4512010698461763,-0.5,0.0,1.0,453.0,849.0,1.0,0,198.0,1
114,114,-0.8155467752794328,-0.8,0.0,1.0,295.0,645.0,1.0,0,800.0,1
115,115,-0.47332510770598246,-0.5,1.0,0.0,274.0,862.0,0.0,0,384.0,1
116,116,-0.419261096684893,-0.4,1.0,0.0,283.0,974.0,0.0,0,193.0,1
117,117,0.5209655008825264,0.5,1.0,1.0,462.0,973.0,1.0,1,455.0,1
118,118,-0.39511416154791235,-0.4,1.0,0.0,495.0,724.0,0.0,0,381.0,1
119,119,-0.7772037966993406,-0.8,0.0,1.0,347.0,637.0,1.0,0,226.0,1
120,120,-0.36103892385938974,-0.4,0.0,1.0,279.0,776.0,1.0,0,525.0,1
121,121,-0.049361984546922644,-0.0,1.0,0.0,444.0,709.0,0.0,0,2107.0,1
122,122,0.06616705274642665,0.1,0.0,0.0,257.0,658.0,0.0,1,665.0,1
123,123,0.7568672220141882,0.8,1.0,1.0,475.0,923.0,1.0,1,62.0,1
124,124,0.5127857351679056,0.5,1.0,1.0,268.0,556.0,1.0,1,286.0,1
125,125,-0.1064525611843643,-0.1,0.0,1.0,405.0,985.0,1.0,0,3210.0,1
126,126,0.7338264538493081,0.7,1.0,1.0,355.0,650.0,1.0,1,435.0,1
127,127,-0.17035623330752925,-0.2,1.0,0.0,346.0,701.0,0.0,0,823.0,1
128,128,-0.7435631986403012,-0.7,1.0,0.0,383.0,568.0,0.0,0,179.0,1
129,129,-0.3125228211612784,-0.3,0.0,1.0,481.0,551.0,1.0,0,538.0,1
130,130,-0.3843733120312609,-0.4,0.0,1.0,395.0,877.0,1.0,0,1198.0,1
131,131,0.25842317165981343,0.3,0.0,0.0,302.0,931.0,0.0,1,787.0,1
132,132,0.38950745895901273,0.4,1.0,1.0,383.0,687.0,1.0,1,760.0,1
133,133,-0.7955262998269256,-0.8,1.0,0.0,411.0,528.0,0.0,0,161.0,1
134,134,0.7137401215737246,0.7,1.0,1.0,345.0,958.0,1.0,1,817.0,1
135,135,0.3979689522910138,0.4,0.0,0.0,454.0,638.0,0.0,1,388.0,1
136,136,0.514180702587464,0.5,0.0,0.0,457.0,973.0,0.0,1,280.0,1
137,137,-0.24444882917920963,-0.2,1.0,0.0,300.0,510.0,0.0,0,430.0,1
138,138,-0.07967112283390143,-0.1,1.0,0.0,444.0,551.0,0.0,0,1665.0,1
139,139,-0.6995074551646476,-0.7,1.0,0.0,306.0,831.0,0.0,0,163.0,1
140,140,0.7335415281972985,0.7,0.0,0.0,327.0,919.0,0.0,1,384.0,1
141,141,0.5775017482385508,0.6,0.0,0.0,257.0,825.0,0.0,1,278.0,1
142,142,0.7725718352236387,0.8,1.0,1.0,278.0,773.0,1.0,1,229.0,1
143,143,0.23434661798731649,0.2,1.0,1.0,369.0,886.0,1.0,1,145.0,1
144,144,-0.4072550068247899,-0.4,0.0,1.0,312.0,606.0,1.0,0,582.0,1
145,145,-0.30169011276666347,-0.3,1.0,0.0,293.0,616.0,0.0,0,391.0,1
146,146,-0.05930877490791453,-0.1,1.0,0.0,281.0,537.0,0.0,0,3362.0,1
147,147,-0.8577562527704115,-0.9,1.0,0.0,383.0,809.0,0.0,0,28.0,1
148,148,0.5836305186909444,0.6,1.0,1.0,480.0,693.0,1.0,1,497.0,1
149,149,-0.1791556495723785,-0.2,1.0,0.0,447.0,763.0,0.0,0,440.0,1
150,150,-0.881115360424073,-0.9,0.0,1.0,479.0,925.0,1.0,0,546.0,1
151,151,0.08494434511432047,0.1,1.0,1.0,488.0,584.0,1.0,1,1498.0,1
152,152,-0.14046720639854238,-0.1,1.0,0.0,388.0,751.0,0.0,0,581.0,1
153,153,0.2741746400378601,0.3,1.0,1.0,271.0,814.0,0.0,0,-165.0,0
154,154,0.774158712241844,0.8,0.0,0.0,473.0,952.0,0.0,1,275.0,1
155,155,-0.23708056613921646,-0.2,0.0,1.0,461.0,834.0,1.0,0,695.0,1
156,156,0.4294971141007705,0.4,0.0,0.0,446.0,544.0,0.0,1,110.0,1
157,157,-0.13902514824857792,-0.1,1.0,0.0,383.0,656.0,0.0,0,521.0,1
158,158,0.3640736857923018,0.4,0.0,0.0,481.0,517.0,0.0,1,1032.0,1
159,159,0.1445471938990096,0.1,1.0,1.0,303.0,583.0,1.0,1,2194.0,1
160,160,0.17817166669960438,0.2,1.0,1.0,409.0,737.0,1.0,1,844.0,1
161,161,-0.26887066958834216,-0.3,0.0,1.0,435.0,883.0,1.0,0,322.0,1
162,162,-0.017427376114106163,-0.0,1.0,0.0,400.0,526.0,0.0,0,2244.0,1
163,163,-0.6982698114829816,-0.7,1.0,0.0,446.0,970.0,0.0,0,144.0,1
164,164,0.2786776638763294,0.3,1.0,1.0,426.0,889.0,1.0,1,405.0,1
165,165,-0.7195097657996801,-0.7,1.0,0.0,464.0,893.0,0.0,0,163.0,1
166,166,-0.486218860194862,-0.5,0.0,1.0,418.0,650.0,1.0,0,432.0,1
167,167,0.1241609137425227,0.1,1.0,1.0,395.0,919.0,1.0,1,1906.0,1
168,168,0.7980086775629395,0.8,0.0,0.0,457.0,746.0,0.0,1,167.0,1
169,169,-0.6041941196600888,-0.6,1.0,0.0,429.0,616.0,0.0,0,325.0,1
170,170,-0.6640702594061965,-0.7,0.0,1.0,415.0,756.0,1.0,0,429.0,1
171,171,0.1876496978150014,0.2,0.0,0.0,271.0,725.0,0.0,1,474.0,1
172,172,-0.40818334012841206,-0.4,1.0,0.0,443.0,938.0,0.0,0,439.0,1
173,173,0.5386874496765771,0.5,0.0,0.0,454.0,878.0,0.0,1,128.0,1
174,174,0.7241313075695565,0.7,1.0,1.0,271.0,734.0,1.0,1,75.0,1
175,175,-0.3811661310527731,-0.4,1.0,0.0,315.0,677.0,0.0,0,318.0,1
176,176,-0.5936181829317492,-0.6,0.0,1.0,324.0,947.0,1.0,0,159.0,1
177,177,-0.595365985972063,-0.6,0.0,1.0,414.0,768.0,1.0,0,348.0,1
178,178,-0.7780104453539072,-0.8,0.0,1.0,266.0,720.0,1.0,0,464.0,1
179,179,0.06384986581178753,0.1,1.0,1.0,308.0,941.0,1.0,1,2911.0,1
180,180,-0.8486858190833227,-0.8,0.0,1.0,483.0,551.0,1.0,0,196.0,1
181,181,-0.45310718483365636,-0.5,1.0,0.0,266.0,825.0,0.0,0,369.0,1
182,182,0.6350648221228933,0.6,0.0,0.0,382.0,834.0,0.0,1,384.0,1
183,183,0.8646768784079796,0.9,0.0,0.0,488.0,652.0,0.0,1,110.0,1
184,184,-0.28327108153159775,-0.3,0.0,1.0,398.0,785.0,1.0,0,677.0,1
185,185,0.46022146864548563,0.5,0.0,0.0,255.0,553.0,0.0,1,492.0,1
186,186,-0.10045512187864503,-0.1,1.0,0.0,469.0,982.0,0.0,0,799.0,1
187,187,-0.8785023515631712,-0.9,1.0,0.0,333.0,777.0,0.0,0,240.0,1
188,188,-0.21728746673325605,-0.2,0.0,1.0,371.0,533.0,1.0,0,906.0,1
189,189,0.20868859946908935,0.2,0.0,0.0,451.0,544.0,0.0,1,285.0,1
190,190,0.8393101387918668,0.8,1.0,1.0,308.0,876.0,1.0,1,136.0,1
191,191,-0.34927451449095825,-0.3,1.0,0.0,371.0,938.0,0.0,0,341.0,1
192,192,-0.12248292979693609,-0.1,1.0,0.0,379.0,995.0,0.0,0,2416.0,1
193,193,0.5158962800337635,0.5,1.0,1.0,456.0,708.0,1.0,1,466.0,1
194,194,-0.0922947582449577,-0.1,1.0,0.0,364.0,972.0,0.0,0,744.0,1
195,195,0.20724450757978163,0.2,0.0,0.0,383.0,539.0,0.0,1,348.0,1
196,196,-0.8693841277253513,-0.9,1.0,0.0,434.0,901.0,0.0,0,245.0,1
197,197,0.10188612252129403,0.1,0.0,0.0,469.0,742.0,0.0,1,799.0,1
198,198,-0.20386557637459224,-0.2,0.0,1.0,464.0,654.0,1.0,0,1862.0,1
199,199,0.6818259925117262,0.7,1.0,1.0,491.0,687.0,1.0,1,352.0,1
200,200,0.7267288912850162,0.7,0.0,0.0,253.0,848.0,0.0,1,179.0,1
201,201,0.2203902087624684,0.2,1.0,1.0,407.0,655.0,1.0,1,1148.0,1
202,202,0.7386385628290745,0.7,0.0,0.0,432.0,505.0,0.0,1,193.0,1
203,203,-0.6018052158430227,-0.6,0.0,1.0,256.0,938.0,1.0,0,456.0,1
204,204,-0.029079968300882553,-0.0,1.0,0.0,473.0,959.0,0.0,0,3568.0,1
205,205,0.6889731699208012,0.7,0.0,0.0,254.0,829.0,0.0,1,257.0,1
206,206,0.837743563083473,0.8,0.0,0.0,427.0,694.0,0.0,1,309.0,1
207,207,-0.12419513408369443,-0.1,0.0,1.0,395.0,928.0,1.0,0,2157.0,1
208,208,-0.869025752204337,-0.9,1.0,0.0,419.0,805.0,0.0,0,256.0,1
209,209,-0.19110403662640862,-0.2,0.0,1.0,271.0,739.0,1.0,0,3990.0,1
210,210,-0.5359850887865907,-0.5,0.0,1.0,467.0,855.0,1.0,0,568.0,1
211,211,0.28075458613219106,0.3,0.0,0.0,430.0,777.0,0.0,1,353.0,1
212,212,0.1663973462773175,0.2,0.0,0.0,312.0,859.0,0.0,1,2209.0,1
213,213,0.45783196732486264,0.5,1.0,1.0,260.0,648.0,1.0,1,352.0,1
214,214,0.3424430131613031,0.3,1.0,1.0,391.0,517.0,1.0,1,452.0,1
215,215,-0.3821027090544812,-0.4,1.0,0.0,292.0,518.0,0.0,0,400.0,1
216,216,-0.06580512612773826,-0.1,1.0,0.0,354.0,969.0,0.0,0,777.0,1
217,217,-0.5645531137768363,-0.6,1.0,0.0,305.0,784.0,0.0,0,231.0,1
218,218,-0.7710509546768964,-0.8,0.0,1.0,321.0,879.0,1.0,0,320.0,1
219,219,-0.3761492710742679,-0.4,0.0,1.0,311.0,784.0,1.0,0,765.0,1
220,220,0.07562794076747881,0.1,0.0,0.0,453.0,661.0,0.0,1,356.0,1
221,221,0.19283696059955824,0.2,1.0,1.0,448.0,777.0,1.0,1,545.0,1
222,222,0.3779518876639353,0.4,1.0,1.0,260.0,989.0,1.0,1,891.0,1
223,223,0.3321486168349904,0.3,1.0,1.0,363.0,723.0,1.0,1,284.0,1
224,224,-0.16443485545563385,-0.2,0.0,1.0,345.0,596.0,0.0,1,29.0,0
225,225,-0.008149986869905423,-0.0,0.0,1.0,487.0,890.0,0.0,1,1743.0,0
226,226,-0.5115808659748933,-0.5,0.0,1.0,310.0,643.0,1.0,0,307.0,1
227,227,-0.19598395541777502,-0.2,0.0,1.0,282.0,833.0,1.0,0,625.0,1
228,228,-0.7396826224245384,-0.7,0.0,1.0,379.0,508.0,1.0,0,933.0,1
229,229,0.22247912203039377,0.2,0.0,0.0,349.0,801.0,0.0,1,830.0,1
230,230,-0.1241838816249019,-0.1,1.0,0.0,305.0,935.0,0.0,0,790.0,1
231,231,0.5627312542442081,0.6,1.0,1.0,466.0,791.0,1.0,1,313.0,1
232,232,0.25345364394851233,0.3,1.0,1.0,364.0,873.0,1.0,1,903.0,1
233,233,0.05107473714742372,0.1,1.0,1.0,318.0,780.0,1.0,1,3902.0,1
234,234,0.7026345090452485,0.7,1.0,1.0,337.0,881.0,1.0,1,302.0,1
235,235,-0.13548909441025514,-0.1,1.0,0.0,267.0,563.0,0.0,0,-100.0,1
236,236,0.8536413351628253,0.9,0.0,0.0,254.0,834.0,0.0,1,102.0,1
237,237,0.19019972629368198,0.2,0.0,0.0,417.0,963.0,0.0,1,370.0,1
238,238,0.5385510152131695,0.5,0.0,0.0,279.0,516.0,0.0,1,525.0,1
239,239,0.29452024674605204,0.3,1.0,1.0,423.0,903.0,1.0,1,784.0,1
240,240,-0.7631615832687757,-0.8,0.0,1.0,455.0,515.0,1.0,0,700.0,1
241,241,0.7442447280628682,0.7,0.0,0.0,469.0,793.0,0.0,1,178.0,1
242,242,0.8930920132957639,0.9,0.0,0.0,343.0,943.0,0.0,1,194.0,1
243,243,-0.4299597554031101,-0.4,1.0,0.0,294.0,695.0,0.0,0,321.0,1
244,244,0.7792702539465609,0.8,1.0,1.0,320.0,717.0,1.0,1,423.0,1
245,245,-0.0908278098960208,-0.1,0.0,1.0,264.0,769.0,0.0,1,3967.0,0
246,246,0.6141763439285922,0.6,1.0,1.0,354.0,726.0,1.0,1,430.0,1
247,247,-0.7695735444413563,-0.8,1.0,0.0,416.0,500.0,0.0,0,224.0,1
248,248,0.5706672610434563,0.6,0.0,0.0,271.0,839.0,0.0,1,220.0,1
249,249,-0.1665687355913943,-0.2,1.0,0.0,432.0,882.0,0.0,0,1216.0,1
250,250,0.6028018023389708,0.6,0.0,0.0,405.0,880.0,0.0,1,205.0,1
251,251,-0.09580225036510459,-0.1,0.0,1.0,494.0,671.0,1.0,0,3835.0,1
252,252,0.25789003073245953,0.3,1.0,1.0,394.0,759.0,1.0,1,1287.0,1
253,253,0.7877921784642413,0.8,1.0,1.0,317.0,936.0,1.0,1,167.0,1
254,254,0.7042164636137437,0.7,0.0,0.0,281.0,569.0,0.0,1,360.0,1
255,255,0.3245974241665798,0.3,1.0,1.0,421.0,653.0,1.0,1,146.0,1
256,256,-0.6934217790308157,-0.7,1.0,0.0,264.0,714.0,0.0,0,152.0,1
257,257,-0.6215959085627317,-0.6,0.0,1.0,408.0,903.0,1.0,0,129.0,1
258,258,0.39133823905613696,0.4,1.0,1.0,300.0,975.0,1.0,1,265.0,1
259,259,0.8338530319080958,0.8,1.0,1.0,381.0,909.0,1.0,1,320.0,1
260,260,-0.8431016073018484,-0.8,0.0,1.0,396.0,761.0,1.0,0,263.0,1
261,261,0.5290012549987945,0.5,0.0,0.0,384.0,794.0,0.0,1,92.0,1
262,262,0.8175608110029314,0.8,0.0,0.0,412.0,812.0,0.0,1,196.0,1
263,263,0.27506567400034465,0.3,1.0,1.0,290.0,727.0,1.0,1,1273.0,1
264,264,-0.7955470765036716,-0.8,1.0,0.0,419.0,933.0,0.0,0,198.0,1
265,265,0.5168597365676145,0.5,0.0,0.0,321.0,673.0,0.0,1,186.0,1
266,266,-0.6154402449790132,-0.6,0.0,1.0,426.0,785.0,1.0,0,209.0,1
267,267,-0.7031160182095193,-0.7,0.0,1.0,345.0,517.0,1.0,0,358.0,1
268,268,0.16285118255970132,0.2,1.0,1.0,365.0,540.0,1.0,1,925.0,1
269,269,-0.0034327052723748253,-0.0,0.0,1.0,340.0,755.0,0.0,1,1335.0,0
270,270,-0.17753517200647928,-0.2,1.0,0.0,328.0,940.0,0.0,0,132.0,1
271,271,-0.6372313396877007,-0.6,1.0,0.0,277.0,973.0,0.0,0,250.0,1
272,272,-0.13938822733999567,-0.1,0.0,1.0,489.0,559.0,1.0,0,412.0,1
273,273,0.36069691397823067,0.4,0.0,0.0,353.0,559.0,0.0,1,488.0,1
274,274,0.013398341758941945,0.0,0.0,0.0,374.0,792.0,0.0,1,824.0,1
275,275,-0.24855985520030166,-0.2,0.0,1.0,456.0,700.0,1.0,0,604.0,1
276,276,0.8719148558910167,0.9,1.0,1.0,389.0,705.0,1.0,1,126.0,1
277,277,0.5288902861746457,0.5,0.0,0.0,309.0,850.0,0.0,1,661.0,1
278,278,0.4882341057438625,0.5,0.0,0.0,317.0,539.0,0.0,1,424.0,1
279,279,0.1547360400142367,0.2,0.0,0.0,305.0,933.0,0.0,1,2312.0,1
280,280,-0.6185808272942683,-0.6,1.0,0.0,260.0,566.0,0.0,0,144.0,1
281,281,0.5285652929395611,0.5,1.0,1.0,326.0,813.0,1.0,1,561.0,1
282,282,-0.4301712940587835,-0.4,0.0,1.0,347.0,510.0,1.0,0,303.0,1
283,283,-0.5053095554350592,-0.5,0.0,1.0,456.0,912.0,1.0,0,362.0,1
284,284,0.6712144355750559,0.7,1.0,1.0,359.0,811.0,1.0,1,310.0,1
285,285,0.8488124200068078,0.8,0.0,0.0,357.0,601.0,0.0,1,222.0,1
286,286,-0.6192150252144908,-0.6,1.0,0.0,277.0,907.0,0.0,0,276.0,1
287,287,-0.10569498446302505,-0.1,1.0,0.0,262.0,976.0,0.0,0,3522.0,1
288,288,-0.3652834263121384,-0.4,0.0,1.0,303.0,706.0,1.0,0,241.0,1
289,289,-0.46589489333205913,-0.5,0.0,1.0,407.0,800.0,1.0,0,383.0,1
290,290,-0.0394331186617376,-0.0,1.0,0.0,253.0,619.0,0.0,0,4128.0,1
291,291,-0.7818159971306506,-0.8,1.0,0.0,424.0,912.0,0.0,0,334.0,1
292,292,0.02882027032475032,0.0,0.0,0.0,464.0,939.0,0.0,1,527.0,1
293,293,0.09237363702803814,0.1,0.0,0.0,484.0,700.0,0.0,1,1336.0,1
294,294,-0.14078886703072946,-0.1,1.0,0.0,372.0,611.0,0.0,0,617.0,1
295,295,0.7883626215714569,0.8,0.0,0.0,288.0,803.0,0.0,1,239.0,1
296,296,-0.026283710329341514,-0.0,0.0,1.0,256.0,827.0,0.0,1,3917.0,0
297,297,0.26518233303974814,0.3,0.0,0.0,498.0,554.0,0.0,1,648.0,1
298,298,-0.1960218254182553,-0.2,1.0,0.0,449.0,785.0,0.0,0,1646.0,1
299,299,-0.5231039958354372,-0.5,1.0,0.0,388.0,567.0,0.0,0,375.0,1
300,300,0.7309265582610996,0.7,0.0,0.0,318.0,698.0,0.0,1,234.0,1
301,301,-0.36956251852773536,-0.4,1.0,0.0,454.0,992.0,0.0,0,284.0,1
302,302,0.8983528100008061,0.9,0.0,0.0,431.0,748.0,0.0,1,291.0,1
303,303,-0.7055683651417655,-0.7,0.0,1.0,458.0,874.0,1.0,0,288.0,1
304,304,0.25744528986216697,0.3,0.0,0.0,386.0,992.0,0.0,1,292.0,1
305,305,0.12605598498916237,0.1,1.0,1.0,335.0,975.0,1.0,1,1500.0,1
306,306,-0.020269514459020477,-0.0,1.0,0.0,333.0,724.0,0.0,0,3943.0,1
307,307,-0.04583513928712879,-0.0,0.0,1.0,412.0,947.0,0.0,1,3641.0,0
308,308,-0.45281124659708,-0.5,0.0,1.0,383.0,512.0,1.0,0,405.0,1
309,309,0.14811376007874133,0.1,1.0,1.0,253.0,521.0,1.0,1,746.0,1
310,310,-0.5464997223218935,-0.5,0.0,1.0,408.0,750.0,1.0,0,522.0,1
311,311,0.7024068807646312,0.7,0.0,0.0,445.0,898.0,0.0,1,177.0,1
312,312,-0.48556659317485623,-0.5,0.0,1.0,384.0,865.0,1.0,0,271.0,1
313,313,-0.38291213651944167,-0.4,1.0,0.0,302.0,966.0,0.0,0,262.0,1
314,314,0.43535726108113526,0.4,0.0,0.0,331.0,508.0,0.0,1,691.0,1
315,315,-0.8515920004411718,-0.9,0.0,1.0,464.0,685.0,1.0,0,331.0,1
316,316,-0.8900181669257674,-0.9,0.0,1.0,431.0,539.0,1.0,0,260.0,1
317,317,0.8692725613379672,0.9,1.0,1.0,270.0,532.0,1.0,1,318.0,1
318,318,-0.6827371974204999,-0.7,0.0,1.0,400.0,520.0,1.0,0,230.0,1
319,319,0.6160370792106106,0.6,1.0,1.0,255.0,919.0,1.0,1,276.0,1
320,320,0.7094076336855352,0.7,0.0,0.0,335.0,571.0,0.0,1,534.0,1
321,321,-0.4645129579913524,-0.5,1.0,0.0,442.0,720.0,0.0,0,398.0,1
322,322,-0.5027981179215202,-0.5,1.0,0.0,480.0,510.0,0.0,0,420.0,1
323,323,0.5854586442209077,0.6,0.0,0.0,259.0,638.0,0.0,1,203.0,1
324,324,-0.3908872623279558,-0.4,0.0,1.0,499.0,819.0,1.0,0,482.0,1
325,325,0.036273576488465964,0.0,1.0,1.0,344.0,914.0,1.0,1,712.0,1
326,326,0.7673331021665856,0.8,1.0,1.0,306.0,651.0,1.0,1,253.0,1
327,327,-0.5263586918865211,-0.5,0.0,1.0,420.0,602.0,1.0,0,388.0,1
328,328,-0.8072121402479507,-0.8,0.0,1.0,375.0,738.0,1.0,0,417.0,1
329,329,-0.471744999854742,-0.5,1.0,0.0,435.0,656.0,0.0,0,139.0,1
330,330,0.2089226537044354,0.2,0.0,0.0,346.0,814.0,0.0,1,480.0,1
331,331,-0.2566373383130838,-0.3,0.0,1.0,333.0,652.0,1.0,0,885.0,1
332,332,0.005922956002646695,0.0,1.0,1.0,366.0,857.0,1.0,1,1237.0,1
333,333,0.24995417029770162,0.2,1.0,1.0,256.0,613.0,1.0,1,801.0,1
334,334,-0.8033155136215498,-0.8,0.0,1.0,402.0,568.0,1.0,0,230.0,1
335,335,0.17690793747792466,0.2,1.0,1.0,348.0,628.0,1.0,1,624.0,1
336,336,-0.09227394951146306,-0.1,1.0,0.0,450.0,815.0,0.0,0,2085.0,1
337,337,-0.12540809504405703,-0.1,0.0,1.0,477.0,749.0,1.0,0,1824.0,1
338,338,-0.2538567920630259,-0.3,0.0,1.0,339.0,845.0,1.0,0,1156.0,1
339,339,0.2526605391587685,0.3,0.0,0.0,471.0,515.0,0.0,1,234.0,1
340,340,0.023803260141868732,0.0,1.0,1.0,323.0,535.0,1.0,1,4142.0,1
341,341,0.39700323596600484,0.4,1.0,1.0,355.0,861.0,1.0,1,504.0,1
342,342,0.09996963326726882,0.1,0.0,0.0,472.0,624.0,0.0,1,354.0,1
343,343,0.4096495467251665,0.4,1.0,1.0,315.0,730.0,1.0,1,265.0,1
344,344,-0.5333410979634838,-0.5,0.0,1.0,254.0,978.0,1.0,0,918.0,1
345,345,-0.13034916791736628,-0.1,0.0,1.0,284.0,609.0,1.0,0,1137.0,1
346,346,0.15078791346028309,0.2,1.0,1.0,352.0,555.0,1.0,1,1873.0,1
347,347,-0.44257366709238066,-0.4,1.0,0.0,316.0,543.0,0.0,0,531.0,1
348,348,0.7194774280310666,0.7,0.0,0.0,254.0,506.0,0.0,1,210.0,1
349,349,-0.7818802274904995,-0.8,1.0,0.0,384.0,892.0,0.0,0,204.0,1
350,350,-0.7499932121209592,-0.7,1.0,0.0,377.0,550.0,0.0,0,233.0,1
351,351,0.39177805387616116,0.4,1.0,1.0,368.0,674.0,1.0,1,1378.0,1
352,352,-0.3379518811063035,-0.3,0.0,1.0,454.0,673.0,1.0,0,673.0,1
353,353,-0.7815236592996757,-0.8,0.0,1.0,324.0,529.0,1.0,0,197.0,1
354,354,-0.2982020525722183,-0.3,1.0,0.0,343.0,716.0,0.0,0,161.0,1
355,355,0.527469836768533,0.5,0.0,0.0,314.0,920.0,0.0,1,256.0,1
356,356,0.26202604971691434,0.3,0.0,0.0,455.0,957.0,0.0,1,898.0,1
357,357,-0.7066212902725449,-0.7,1.0,0.0,451.0,762.0,0.0,0,257.0,1
358,358,-0.34884887048419677,-0.3,0.0,1.0,430.0,754.0,1.0,0,536.0,1
359,359,-0.6125650087373988,-0.6,0.0,1.0,460.0,529.0,1.0,0,461.0,1
360,360,0.7100472193207764,0.7,1.0,1.0,299.0,509.0,1.0,1,232.0,1
361,361,0.2494374177150701,0.2,0.0,0.0,262.0,786.0,0.0,1,462.0,1
362,362,0.5662887931966408,0.6,0.0,0.0,410.0,592.0,0.0,1,438.0,1
363,363,-0.8685436420231256,-0.9,0.0,1.0,345.0,862.0,1.0,0,753.0,1
364,364,-0.11336884831400251,-0.1,1.0,0.0,381.0,559.0,0.0,0,760.0,1
365,365,-0.16015356648595058,-0.2,1.0,0.0,297.0,615.0,0.0,0,1278.0,1
366,366,0.04128998716499721,0.0,1.0,1.0,397.0,732.0,0.0,0,1441.0,0
367,367,0.0457988609785559,0.0,1.0,1.0,294.0,587.0,0.0,0,4119.0,0
368,368,0.8593678052468526,0.9,0.0,0.0,334.0,871.0,0.0,1,205.0,1
369,369,-0.6998942364386891,-0.7,0.0,1.0,462.0,960.0,1.0,0,298.0,1
370,370,-0.33123093013983707,-0.3,0.0,1.0,418.0,783.0,1.0,0,329.0,1
371,371,0.6708074514878072,0.7,0.0,0.0,448.0,947.0,0.0,1,205.0,1
372,372,0.5095868627586081,0.5,1.0,1.0,334.0,842.0,1.0,1,174.0,1
373,373,-0.8118709783755887,-0.8,0.0,1.0,446.0,565.0,1.0,0,139.0,1
374,374,0.8734030677199326,0.9,0.0,0.0,441.0,670.0,0.0,1,39.0,1
375,375,-0.6821799075925807,-0.7,0.0,1.0,396.0,922.0,1.0,0,342.0,1
376,376,0.7419414815816273,0.7,0.0,0.0,413.0,588.0,0.0,1,379.0,1
377,377,-0.4495001874404791,-0.4,1.0,0.0,344.0,910.0,0.0,0,276.0,1
378,378,0.0032783766292342476,0.0,0.0,0.0,456.0,909.0,0.0,1,1495.0,1
379,379,0.16389957970114966,0.2,0.0,0.0,331.0,581.0,0.0,1,878.0,1
380,380,-0.31403696017779104,-0.3,1.0,0.0,414.0,852.0,0.0,0,494.0,1
381,381,-0.6305751791328621,-0.6,1.0,0.0,324.0,824.0,0.0,0,142.0,1
382,382,-0.16598927607437086,-0.2,1.0,0.0,332.0,504.0,0.0,0,1464.0,1
383,383,-0.11372623203680243,-0.1,0.0,1.0,415.0,535.0,1.0,0,1840.0,1
384,384,-0.6020690111597535,-0.6,0.0,1.0,415.0,906.0,1.0,0,649.0,1
385,385,0.3427086176400961,0.3,1.0,1.0,412.0,860.0,1.0,1,408.0,1
386,386,0.5540116320535021,0.6,1.0,1.0,374.0,891.0,1.0,1,145.0,1
387,387,0.38456316848559247,0.4,0.0,0.0,375.0,670.0,0.0,1,85.0,1
388,388,0.6352550950323016,0.6,1.0,1.0,408.0,783.0,1.0,1,639.0,1
389,389,0.7568003015919881,0.8,0.0,0.0,393.0,806.0,0.0,1,261.0,1
390,390,0.888337546403643,0.9,1.0,1.0,278.0,700.0,1.0,1,152.0,1
391,391,0.5296372941317188,0.5,1.0,1.0,456.0,536.0,1.0,1,178.0,1
392,392,0.46249424641976444,0.5,1.0,1.0,254.0,779.0,1.0,1,407.0,1
393,393,-0.7556518256462363,-0.8,0.0,1.0,483.0,676.0,1.0,0,951.0,1
394,394,0.5015331974682705,0.5,1.0,1.0,310.0,561.0,1.0,1,219.0,1
395,395,0.15107522919240723,0.2,0.0,0.0,404.0,568.0,0.0,1,1168.0,1
396,396,-0.12934063344921254,-0.1,0.0,1.0,328.0,571.0,1.0,0,1151.0,1
397,397,-0.33047333072700114,-0.3,0.0,1.0,266.0,719.0,1.0,0,525.0,1
398,398,0.5175534248501473,0.5,0.0,0.0,383.0,901.0,0.0,1,406.0,1
399,399,0.26537894817608876,0.3,0.0,0.0,450.0,744.0,0.0,1,146.0,1
400,400,0.09276577757928395,0.1,0.0,0.0,429.0,804.0,0.0,1,1997.0,1
401,401,-0.6713678420168748,-0.7,0.0,1.0,400.0,898.0,1.0,0,212.0,1
402,402,0.19070318056430657,0.2,1.0,1.0,276.0,713.0,1.0,1,341.0,1
403,403,-0.4717581941056109,-0.5,1.0,0.0,374.0,588.0,0.0,0,238.0,1
404,404,-0.7007314475796335,-0.7,0.0,1.0,493.0,833.0,1.0,0,294.0,1
405,405,-0.37070996060349726,-0.4,0.0,1.0,387.0,700.0,1.0,0,1453.0,1
406,406,0.23849352256607637,0.2,1.0,1.0,377.0,701.0,1.0,1,502.0,1
407,407,0.5630132718523552,0.6,1.0,1.0,268.0,977.0,1.0,1,285.0,1
408,408,-0.6725186058998333,-0.7,1.0,0.0,491.0,949.0,0.0,0,240.0,1
409,409,0.12198957177871772,0.1,1.0,1.0,276.0,739.0,1.0,1,2005.0,1
410,410,-0.3334992962072377,-0.3,0.0,1.0,341.0,826.0,1.0,0,1123.0,1
411,411,0.6268201331031013,0.6,0.0,0.0,476.0,587.0,0.0,1,177.0,1
412,412,0.8156913045893438,0.8,0.0,0.0,252.0,612.0,0.0,1,206.0,1
413,413,-0.23151134311654786,-0.2,1.0,0.0,301.0,843.0,0.0,0,1056.0,1
414,414,-0.7066291470248989,-0.7,1.0,0.0,404.0,961.0,0.0,0,185.0,1
415,415,-0.2137071682613001,-0.2,1.0,0.0,332.0,629.0,0.0,0,799.0,1
416,416,-0.2018474892870984,-0.2,0.0,1.0,436.0,732.0,1.0,0,272.0,1
417,417,-0.7965044274337545,-0.8,0.0,1.0,497.0,937.0,1.0,0,456.0,1
418,418,0.34503400454529876,0.3,1.0,1.0,406.0,854.0,1.0,1,90.0,1
419,419,0.17932072733683146,0.2,0.0,0.0,406.0,873.0,0.0,1,951.0,1
420,420,0.37167713604551145,0.4,0.0,0.0,261.0,736.0,0.0,1,393.0,1
421,421,0.4178480556198728,0.4,1.0,1.0,257.0,993.0,1.0,1,340.0,1
422,422,0.3551986095458991,0.4,1.0,1.0,326.0,580.0,1.0,1,834.0,1
423,423,-0.16830643937442213,-0.2,0.0,1.0,399.0,584.0,1.0,0,2257.0,1
424,424,-0.8790754064584935,-0.9,1.0,0.0,479.0,776.0,0.0,0,285.0,1
425,425,0.251012431396484,0.3,1.0,1.0,489.0,800.0,1.0,1,521.0,1
426,426,0.6013722205009847,0.6,1.0,1.0,359.0,710.0,1.0,1,221.0,1
427,427,-0.24780281568734197,-0.2,0.0,1.0,313.0,897.0,1.0,0,1630.0,1
428,428,-0.13697101059128225,-0.1,1.0,0.0,464.0,894.0,0.0,0,502.0,1
429,429,0.6334631926105673,0.6,1.0,1.0,290.0,927.0,1.0,1,183.0,1
430,430,-0.760836673561735,-0.8,1.0,0.0,382.0,694.0,0.0,0,214.0,1
431,431,-0.4058834824881358,-0.4,0.0,1.0,443.0,526.0,1.0,0,621.0,1
432,432,-0.11171365738138095,-0.1,0.0,1.0,447.0,767.0,1.0,0,3726.0,1
433,433,-0.8412007369630137,-0.8,0.0,1.0,486.0,995.0,1.0,0,579.0,1
434,434,0.46698390068824425,0.5,0.0,0.0,370.0,903.0,0.0,1,447.0,1
435,435,-0.25400240541261865,-0.3,0.0,1.0,348.0,940.0,1.0,0,1132.0,1
436,436,-0.45493465575013275,-0.5,0.0,1.0,477.0,822.0,1.0,0,331.0,1
437,437,0.4035570754251515,0.4,1.0,1.0,280.0,903.0,1.0,1,17.0,1
438,438,0.8929340272901486,0.9,0.0,0.0,313.0,682.0,0.0,1,95.0,1
439,439,-0.7023966467005162,-0.7,1.0,0.0,417.0,571.0,0.0,0,142.0,1
440,440,0.5470244603111437,0.5,0.0,0.0,318.0,619.0,0.0,1,373.0,1
441,441,-0.58550803396926,-0.6,1.0,0.0,373.0,848.0,0.0,0,269.0,1
442,442,-0.15689226656461863,-0.2,0.0,1.0,418.0,791.0,1.0,0,2751.0,1
443,443,-0.5948674631181814,-0.6,1.0,0.0,319.0,709.0,0.0,0,142.0,1
444,444,0.4325415557907143,0.4,1.0,1.0,493.0,984.0,1.0,1,233.0,1
445,445,-0.5570083616013306,-0.6,0.0,1.0,304.0,672.0,1.0,0,174.0,1
446,446,0.040290627261059475,0.0,0.0,0.0,428.0,946.0,0.0,1,986.0,1
447,447,0.5131784564607945,0.5,0.0,0.0,374.0,656.0,0.0,1,420.0,1
448,448,-0.6488775306067229,-0.6,1.0,0.0,396.0,619.0,0.0,0,275.0,1
449,449,-0.834708999366704,-0.8,0.0,1.0,316.0,558.0,1.0,0,416.0,1
450,450,-0.15896426688997012,-0.2,0.0,1.0,410.0,560.0,1.0,0,4030.0,1
451,451,-0.6055673898466749,-0.6,1.0,0.0,474.0,511.0,0.0,0,205.0,1
452,452,-0.6209622048225576,-0.6,1.0,0.0,452.0,893.0,0.0,0,255.0,1
453,453,0.33528195479657363,0.3,1.0,1.0,481.0,923.0,1.0,1,366.0,1
454,454,-0.6908690984771308,-0.7,0.0,1.0,319.0,805.0,1.0,0,276.0,1
455,455,-0.12827513264953838,-0.1,0.0,1.0,468.0,805.0,1.0,0,1397.0,1
456,456,-0.05023921276466903,-0.1,1.0,0.0,342.0,636.0,0.0,0,1432.0,1
457,457,-0.6056034309061724,-0.6,0.0,1.0,407.0,849.0,1.0,0,494.0,1
458,458,0.38031506898104406,0.4,0.0,0.0,476.0,586.0,0.0,1,158.0,1
459,459,-0.38986962502602174,-0.4,1.0,0.0,257.0,725.0,0.0,0,258.0,1
460,460,-0.06983510016056127,-0.1,1.0,0.0,444.0,727.0,0.0,0,2479.0,1
461,461,-0.31918573955406726,-0.3,1.0,0.0,495.0,879.0,0.0,0,416.0,1
462,462,-0.06466840418492936,-0.1,0.0,1.0,370.0,552.0,1.0,0,3608.0,1
463,463,0.5223227660942708,0.5,1.0,1.0,431.0,824.0,1.0,1,205.0,1
464,464,0.5125912271620608,0.5,1.0,1.0,268.0,912.0,1.0,1,320.0,1
465,465,0.5265878018899836,0.5,0.0,0.0,486.0,924.0,0.0,1,90.0,1
466,466,-0.7314310032449635,-0.7,0.0,1.0,314.0,869.0,1.0,0,147.0,1
467,467,-0.21817754790550148,-0.2,0.0,1.0,376.0,666.0,1.0,0,1618.0,1
468,468,0.7869887831634969,0.8,1.0,1.0,421.0,597.0,1.0,1,282.0,1
469,469,-0.21792394958553662,-0.2,0.0,1.0,480.0,766.0,1.0,0,1004.0,1
470,470,-0.06838574063694458,-0.1,0.0,1.0,314.0,830.0,1.0,0,2536.0,1
471,471,0.8554002896664309,0.9,0.0,0.0,291.0,596.0,0.0,1,273.0,1
472,472,0.022356182828634386,0.0,0.0,0.0,451.0,513.0,1.0,0,4036.0,0
473,473,-0.5906251955760362,-0.6,0.0,1.0,268.0,934.0,1.0,0,948.0,1
474,474,0.10894948686822137,0.1,0.0,0.0,452.0,728.0,0.0,1,90.0,1
475,475,0.07323113317994301,0.1,1.0,1.0,373.0,737.0,1.0,1,540.0,1
476,476,-0.1750929828005513,-0.2,0.0,1.0,308.0,569.0,1.0,0,743.0,1
477,477,0.15141624888927596,0.2,0.0,0.0,325.0,762.0,0.0,1,2053.0,1
478,478,0.6214328741865512,0.6,1.0,1.0,340.0,591.0,1.0,1,129.0,1
479,479,-0.1353448544970971,-0.1,1.0,0.0,443.0,737.0,0.0,0,1680.0,1
480,480,0.1994645437212671,0.2,0.0,0.0,440.0,958.0,0.0,1,742.0,1
481,481,-0.16840254349771577,-0.2,1.0,0.0,304.0,915.0,0.0,0,1011.0,1
482,482,-0.8696259197808274,-0.9,0.0,1.0,266.0,702.0,1.0,0,202.0,1
483,483,0.6102932922091023,0.6,1.0,1.0,459.0,692.0,1.0,1,329.0,1
484,484,-0.6787242355198309,-0.7,0.0,1.0,322.0,544.0,1.0,0,314.0,1
485,485,0.4566702789354934,0.5,1.0,1.0,252.0,668.0,1.0,1,500.0,1
486,486,0.5460067135039671,0.5,0.0,0.0,432.0,657.0,0.0,1,151.0,1
487,487,0.04741494166159421,0.0,1.0,1.0,428.0,578.0,1.0,1,3994.0,1
488,488,-0.8189836179707743,-0.8,1.0,0.0,324.0,501.0,0.0,0,335.0,1
489,489,-0.10844387766243813,-0.1,1.0,0.0,281.0,813.0,0.0,0,836.0,1
490,490,0.31934475577275945,0.3,0.0,0.0,490.0,943.0,0.0,1,507.0,1
491,491,-0.27851888168644656,-0.3,1.0,0.0,311.0,599.0,0.0,0,620.0,1
492,492,0.44388817399175384,0.4,1.0,1.0,466.0,617.0,1.0,1,337.0,1
493,493,0.22848820716620633,0.2,0.0,0.0,280.0,896.0,0.0,1,-146.0,1
494,494,-0.7480747024454457,-0.7,0.0,1.0,334.0,506.0,1.0,0,720.0,1
495,495,-0.6664412360579077,-0.7,1.0,0.0,396.0,936.0,0.0,0,288.0,1
496,496,0.5184515226546168,0.5,0.0,0.0,279.0,791.0,0.0,1,420.0,1
497,497,-0.32775962841631856,-0.3,1.0,0.0,341.0,674.0,0.0,0,295.0,1
498,498,-0.8715046937802856,-0.9,1.0,0.0,264.0,614.0,0.0,0,112.0,1
499,499,-0.30312674415236973,-0.3,0.0,1.0,346.0,768.0,1.0,0,556.0,1
500,500,-0.24601985938998938,-0.2,1.0,0.0,287.0,868.0,0.0,0,1785.0,1
501,501,0.2881028419081971,0.3,0.0,0.0,477.0,763.0,0.0,1,410.0,1
502,502,0.08278809013815869,0.1,1.0,1.0,302.0,502.0,1.0,1,4196.0,1
503,503,0.1023722126902854,0.1,0.0,0.0,383.0,542.0,0.0,1,235.0,1
504,504,0.7903528750729342,0.8,1.0,1.0,427.0,526.0,1.0,1,537.0,1
505,505,0.5939441476897022,0.6,1.0,1.0,405.0,635.0,1.0,1,140.0,1
506,506,0.1491806610726959,0.1,0.0,0.0,359.0,591.0,0.0,1,2180.0,1
507,507,-0.2178831342707479,-0.2,0.0,1.0,269.0,690.0,1.0,0,1091.0,1
508,508,-0.40868048531079204,-0.4,1.0,0.0,494.0,734.0,0.0,0,182.0,1
509,509,0.1658912417363786,0.2,1.0,1.0,278.0,984.0,1.0,1,358.0,1
510,510,0.640327173637358,0.6,1.0,1.0,294.0,557.0,1.0,1,149.0,1
511,511,-0.2962156646237467,-0.3,0.0,1.0,385.0,617.0,1.0,0,488.0,1
512,512,0.8911814749670001,0.9,1.0,1.0,347.0,600.0,1.0,1,263.0,1
513,513,-0.40832813824904063,-0.4,1.0,0.0,496.0,557.0,0.0,0,457.0,1
514,514,0.18662200774258852,0.2,1.0,1.0,355.0,901.0,1.0,1,-46.0,1
515,515,0.27213769121911746,0.3,1.0,1.0,382.0,763.0,0.0,0,35.0,0
516,516,0.3928181024681249,0.4,1.0,1.0,269.0,961.0,1.0,1,750.0,1
517,517,0.797317836708357,0.8,1.0,1.0,293.0,550.0,1.0,1,127.0,1
518,518,0.572386985907471,0.6,1.0,1.0,287.0,878.0,1.0,1,245.0,1
519,519,-0.8956402212468985,-0.9,0.0,1.0,465.0,681.0,1.0,0,454.0,1
520,520,-0.23233659875514812,-0.2,0.0,1.0,463.0,740.0,1.0,0,1087.0,1
521,521,-0.6732919033492241,-0.7,0.0,1.0,309.0,668.0,1.0,0,393.0,1
522,522,0.7413718413091132,0.7,1.0,1.0,284.0,991.0,1.0,1,615.0,1
523,523,-0.7005099697495522,-0.7,0.0,1.0,335.0,701.0,1.0,0,224.0,1
524,524,-0.2516385327509688,-0.3,0.0,1.0,272.0,513.0,1.0,0,505.0,1
525,525,-0.27405488236085584,-0.3,0.0,1.0,462.0,563.0,1.0,0,465.0,1
526,526,0.274589153274874,0.3,0.0,0.0,297.0,908.0,0.0,1,865.0,1
527,527,-0.09216962786807348,-0.1,0.0,1.0,395.0,988.0,1.0,0,1107.0,1
528,528,-0.11517835890521966,-0.1,0.0,1.0,264.0,723.0,1.0,0,2353.0,1
529,529,-0.33237704949195934,-0.3,1.0,0.0,346.0,573.0,0.0,0,271.0,1
530,530,-0.2453663679970579,-0.2,1.0,0.0,381.0,874.0,0.0,0,365.0,1
531,531,0.41767789446705084,0.4,0.0,0.0,297.0,598.0,0.0,1,345.0,1
532,532,0.08955467764386194,0.1,0.0,0.0,495.0,986.0,0.0,1,1139.0,1
533,533,-0.41383713246505544,-0.4,1.0,0.0,293.0,917.0,0.0,0,390.0,1
534,534,0.23510244273626724,0.2,1.0,1.0,321.0,961.0,1.0,1,728.0,1
535,535,0.08417331015751073,0.1,1.0,1.0,429.0,972.0,1.0,1,839.0,1
536,536,-0.19375643220586225,-0.2,1.0,0.0,336.0,560.0,0.0,0,1584.0,1
537,537,-0.5311161419970625,-0.5,1.0,0.0,317.0,953.0,0.0,0,140.0,1
538,538,-0.09350124158597184,-0.1,0.0,1.0,259.0,567.0,1.0,0,1904.0,1
539,539,0.3640237981852982,0.4,1.0,1.0,339.0,634.0,1.0,1,267.0,1
540,540,-0.4905237677572591,-0.5,0.0,1.0,258.0,911.0,1.0,0,531.0,1
541,541,0.6676790630130028,0.7,0.0,0.0,254.0,770.0,0.0,1,296.0,1
542,542,-0.8782362187796537,-0.9,1.0,0.0,463.0,511.0,0.0,0,146.0,1
543,543,0.3941173552622247,0.4,1.0,1.0,353.0,742.0,1.0,1,805.0,1
544,544,0.07812270393131304,0.1,0.0,0.0,376.0,638.0,0.0,1,1446.0,1
545,545,0.19413027438773012,0.2,1.0,1.0,397.0,670.0,1.0,1,1333.0,1
546,546,0.6717687774120772,0.7,0.0,0.0,263.0,896.0,0.0,1,291.0,1
547,547,0.2640923933927416,0.3,0.0,0.0,357.0,565.0,0.0,1,598.0,1
548,548,-0.2135653899695047,-0.2,1.0,0.0,424.0,782.0,0.0,0,504.0,1
549,549,0.7058584455297424,0.7,1.0,1.0,335.0,990.0,0.0,0,-595.0,0
550,550,0.14708115783681375,0.1,1.0,1.0,438.0,656.0,1.0,1,926.0,1
551,551,0.49578191935794325,0.5,1.0,1.0,367.0,897.0,1.0,1,336.0,1
552,552,0.7206606789311577,0.7,1.0,1.0,457.0,710.0,1.0,1,173.0,1
553,553,-0.7331893990992294,-0.7,1.0,0.0,270.0,790.0,0.0,0,170.0,1
554,554,-0.7670871824338102,-0.8,0.0,1.0,465.0,819.0,1.0,0,1276.0,1
555,555,0.7448543448649009,0.7,1.0,1.0,397.0,597.0,1.0,1,516.0,1
556,556,0.46255076304195064,0.5,0.0,0.0,476.0,578.0,0.0,1,216.0,1
557,557,-0.3689637353693377,-0.4,1.0,0.0,382.0,523.0,0.0,0,465.0,1
558,558,-0.7474609460544964,-0.7,1.0,0.0,316.0,696.0,0.0,0,258.0,1
559,559,-0.012258277406512974,-0.0,0.0,1.0,403.0,767.0,0.0,1,3830.0,0
560,560,-0.7666358572545418,-0.8,0.0,1.0,457.0,808.0,1.0,0,295.0,1
561,561,0.17251296580599418,0.2,1.0,1.0,317.0,916.0,0.0,0,-253.0,0
562,562,-0.08343855600767636,-0.1,0.0,1.0,494.0,855.0,1.0,0,1591.0,1
563,563,-0.021878404737504575,-0.0,1.0,0.0,484.0,757.0,0.0,0,3759.0,1
564,564,-0.29147972253291254,-0.3,0.0,1.0,469.0,769.0,1.0,0,1132.0,1
565,565,0.07676878376032237,0.1,1.0,1.0,395.0,858.0,1.0,1,2727.0,1
566,566,0.1608542940004395,0.2,0.0,0.0,490.0,674.0,0.0,1,806.0,1
567,567,0.10026790998864776,0.1,0.0,0.0,413.0,901.0,0.0,1,1666.0,1
568,568,0.6531442066426639,0.7,1.0,1.0,304.0,808.0,1.0,1,118.0,1
569,569,0.7251386552575331,0.7,0.0,0.0,472.0,804.0,0.0,1,124.0,1
570,570,-0.22295763952284353,-0.2,1.0,0.0,460.0,661.0,0.0,0,949.0,1
571,571,-0.1458095586658985,-0.1,1.0,0.0,460.0,705.0,0.0,0,2035.0,1
572,572,-0.04066575182340293,-0.0,1.0,0.0,321.0,834.0,0.0,0,1705.0,1
573,573,0.7429633681870166,0.7,1.0,1.0,392.0,566.0,1.0,1,242.0,1
574,574,-0.23773533880606434,-0.2,1.0,0.0,316.0,528.0,0.0,0,156.0,1
575,575,-0.7723618944031837,-0.8,1.0,0.0,419.0,591.0,0.0,0,250.0,1
576,576,0.2750563810502379,0.3,0.0,0.0,408.0,692.0,0.0,1,240.0,1
577,577,-0.5353734957568506,-0.5,1.0,0.0,351.0,855.0,0.0,0,304.0,1
578,578,0.6650072983937979,0.7,1.0,1.0,493.0,673.0,1.0,1,224.0,1
579,579,-0.8116736999530754,-0.8,0.0,1.0,324.0,607.0,1.0,0,759.0,1
580,580,-0.3540045178495329,-0.4,1.0,0.0,373.0,627.0,0.0,0,650.0,1
581,581,0.6584071344735091,0.7,0.0,0.0,372.0,851.0,0.0,1,77.0,1
582,582,0.8362896706831201,0.8,0.0,0.0,250.0,578.0,0.0,1,382.0,1
583,583,-0.8387082266451927,-0.8,1.0,0.0,469.0,803.0,0.0,0,208.0,1
584,584,0.16705828896354313,0.2,0.0,0.0,307.0,859.0,0.0,1,964.0,1
585,585,-0.8213588602266565,-0.8,0.0,1.0,490.0,542.0,1.0,0,398.0,1
586,586,0.8536754780607326,0.9,0.0,0.0,496.0,869.0,0.0,1,295.0,1
587,587,0.30781529570413657,0.3,1.0,1.0,381.0,849.0,1.0,1,430.0,1
588,588,-0.536450142584725,-0.5,1.0,0.0,278.0,727.0,0.0,0,335.0,1
589,589,5.2684774589195627e-05,0.0,0.0,0.0,388.0,963.0,0.0,1,1029.0,1
590,590,0.7382183610077356,0.7,0.0,0.0,278.0,993.0,0.0,1,249.0,1
591,591,-0.8407996176587315,-0.8,0.0,1.0,460.0,947.0,1.0,0,253.0,1
592,592,0.7570581994612368,0.8,0.0,0.0,347.0,889.0,0.0,1,264.0,1
593,593,0.09872930702785943,0.1,1.0,1.0,380.0,968.0,1.0,1,1472.0,1
594,594,0.5037227457140544,0.5,1.0,1.0,439.0,880.0,1.0,1,81.0,1
595,595,-0.5508263966066396,-0.6,0.0,1.0,354.0,745.0,1.0,0,641.0,1
596,596,-0.37574627626968804,-0.4,0.0,1.0,428.0,984.0,1.0,0,508.0,1
597,597,-0.5208298885241838,-0.5,1.0,0.0,440.0,650.0,0.0,0,190.0,1
598,598,0.7527202185230536,0.8,0.0,0.0,278.0,538.0,0.0,1,114.0,1
599,599,0.8381934255711286,0.8,0.0,0.0,481.0,757.0,0.0,1,112.0,1
600,600,0.211327380816153,0.2,0.0,0.0,275.0,908.0,0.0,1,967.0,1
601,601,0.40297659176848566,0.4,0.0,0.0,391.0,522.0,0.0,1,437.0,1
602,602,-0.24943835510812418,-0.2,0.0,1.0,318.0,638.0,1.0,0,1624.0,1
603,603,0.5193022174580361,0.5,1.0,1.0,291.0,552.0,1.0,1,427.0,1
604,604,0.3233088645920582,0.3,0.0,0.0,384.0,644.0,0.0,1,422.0,1
605,605,-0.18039258997651142,-0.2,0.0,1.0,448.0,722.0,0.0,1,0.0,0
606,606,0.22755971261022967,0.2,1.0,1.0,314.0,971.0,1.0,1,505.0,1
607,607,0.8803509274258304,0.9,0.0,0.0,444.0,968.0,0.0,1,108.0,1
608,608,0.20585992883859439,0.2,1.0,1.0,496.0,671.0,1.0,1,493.0,1
609,609,-0.6580108109112706,-0.7,0.0,1.0,288.0,910.0,1.0,0,482.0,1
610,610,-0.6378812267088041,-0.6,1.0,0.0,473.0,599.0,0.0,0,328.0,1
611,611,-0.14350163573871777,-0.1,1.0,0.0,307.0,924.0,0.0,0,-171.0,1
612,612,-0.3709090482392039,-0.4,0.0,1.0,431.0,646.0,1.0,0,623.0,1
613,613,-0.036931848462835926,-0.0,1.0,0.0,479.0,555.0,0.0,0,2426.0,1
614,614,-0.40631116346734125,-0.4,0.0,1.0,368.0,980.0,1.0,0,922.0,1
615,615,0.6801966365355824,0.7,0.0,0.0,279.0,888.0,0.0,1,243.0,1
616,616,0.8604444948003712,0.9,0.0,0.0,385.0,850.0,0.0,1,265.0,1
617,617,0.21044219006818932,0.2,0.0,0.0,448.0,893.0,0.0,1,469.0,1
618,618,0.1824692490697165,0.2,0.0,0.0,415.0,543.0,0.0,1,332.0,1
619,619,-0.08422028517671387,-0.1,0.0,1.0,322.0,868.0,1.0,0,3810.0,1
620,620,-0.13726960584665848,-0.1,1.0,0.0,337.0,940.0,0.0,0,1653.0,1
621,621,0.8593665256192903,0.9,0.0,0.0,408.0,961.0,0.0,1,261.0,1
622,622,-0.25959747886925644,-0.3,1.0,0.0,427.0,913.0,0.0,0,220.0,1
623,623,-0.02982275941583412,-0.0,1.0,0.0,287.0,737.0,0.0,0,2686.0,1
624,624,0.6632686286617261,0.7,1.0,1.0,326.0,756.0,1.0,1,318.0,1
625,625,-0.4090344686016803,-0.4,0.0,1.0,398.0,611.0,1.0,0,1031.0,1
626,626,-0.26616471994517055,-0.3,0.0,1.0,273.0,583.0,1.0,0,424.0,1
627,627,-0.6916185750622442,-0.7,0.0,1.0,339.0,882.0,1.0,0,189.0,1
628,628,-0.6432457764589006,-0.6,0.0,1.0,308.0,558.0,1.0,0,194.0,1
629,629,-0.6673582241907666,-0.7,1.0,0.0,452.0,590.0,0.0,0,208.0,1
630,630,-0.5376766009540734,-0.5,0.0,1.0,373.0,659.0,1.0,0,308.0,1
631,631,0.6313359294021669,0.6,1.0,1.0,355.0,871.0,1.0,1,264.0,1
632,632,-0.29059739803697504,-0.3,1.0,0.0,258.0,960.0,0.0,0,162.0,1
633,633,0.8559845891773977,0.9,1.0,1.0,404.0,834.0,1.0,1,272.0,1
634,634,-0.14577648786435993,-0.1,0.0,1.0,303.0,790.0,1.0,0,2157.0,1
635,635,-0.7760067410210864,-0.8,1.0,0.0,435.0,911.0,0.0,0,134.0,1
636,636,-0.4872346115523817,-0.5,1.0,0.0,401.0,987.0,0.0,0,122.0,1
637,637,0.1453024731081286,0.1,0.0,0.0,282.0,889.0,0.0,1,389.0,1
638,638,-0.5654333004733028,-0.6,0.0,1.0,483.0,818.0,1.0,0,379.0,1
639,639,0.21551597761274943,0.2,0.0,0.0,406.0,990.0,0.0,1,1224.0,1
640,640,-0.7800345127932767,-0.8,0.0,1.0,437.0,909.0,1.0,0,394.0,1
641,641,-0.3349674931823817,-0.3,0.0,1.0,480.0,615.0,1.0,0,545.0,1
642,642,-0.8670470198612628,-0.9,1.0,0.0,449.0,936.0,0.0,0,235.0,1
643,643,0.8163471761761701,0.8,1.0,1.0,460.0,525.0,1.0,1,555.0,1
644,644,-0.43700537636115383,-0.4,1.0,0.0,318.0,735.0,0.0,0,637.0,1
645,645,0.10145880385811645,0.1,0.0,0.0,434.0,508.0,0.0,1,4058.0,1
646,646,-0.2062391161962056,-0.2,1.0,0.0,447.0,627.0,0.0,0,476.0,1
647,647,-0.4008343945274238,-0.4,1.0,0.0,273.0,739.0,0.0,0,188.0,1
648,648,0.17465146554616073,0.2,1.0,1.0,442.0,690.0,1.0,1,108.0,1
649,649,-0.0006806377310626388,-0.0,1.0,0.0,449.0,629.0,0.0,0,3922.0,1
650,650,-0.35374008954097036,-0.4,1.0,0.0,295.0,661.0,0.0,0,394.0,1
651,651,-0.3114759873391332,-0.3,0.0,1.0,348.0,865.0,1.0,0,647.0,1
652,652,0.767729477093254,0.8,0.0,0.0,346.0,553.0,0.0,1,171.0,1
653,653,0.3404663894381269,0.3,0.0,0.0,417.0,549.0,0.0,1,194.0,1
654,654,0.2726951655913147,0.3,0.0,0.0,312.0,878.0,0.0,1,940.0,1
655,655,-0.6836516326128392,-0.7,0.0,1.0,347.0,737.0,1.0,0,446.0,1
656,656,0.007422964117613229,0.0,1.0,1.0,439.0,913.0,0.0,0,3648.0,0
657,657,0.7525689444767248,0.8,1.0,1.0,390.0,958.0,1.0,1,382.0,1
658,658,-0.34282393326623817,-0.3,0.0,1.0,462.0,928.0,1.0,0,620.0,1
659,659,-0.380388384675572,-0.4,0.0,1.0,336.0,675.0,1.0,0,399.0,1
660,660,-0.44285801937878194,-0.4,1.0,0.0,397.0,628.0,0.0,0,175.0,1
661,661,-0.564228092679613,-0.6,0.0,1.0,251.0,546.0,1.0,0,983.0,1
662,662,0.3317576914413237,0.3,1.0,1.0,356.0,526.0,1.0,1,988.0,1
663,663,-0.6762842889254818,-0.7,0.0,1.0,438.0,866.0,1.0,0,256.0,1
664,664,0.1239082526557419,0.1,0.0,0.0,445.0,550.0,0.0,1,475.0,1
665,665,0.28001345637870323,0.3,0.0,0.0,356.0,946.0,0.0,1,478.0,1
666,666,-0.1439250248964833,-0.1,1.0,0.0,301.0,697.0,0.0,0,242.0,1
667,667,-0.20619425946952152,-0.2,1.0,0.0,390.0,793.0,0.0,0,747.0,1
668,668,-0.26297182346335946,-0.3,0.0,1.0,376.0,512.0,1.0,0,502.0,1
669,669,-0.3798723026036199,-0.4,0.0,1.0,298.0,981.0,1.0,0,281.0,1
670,670,0.11407971964630759,0.1,0.0,0.0,284.0,780.0,0.0,1,1086.0,1
671,671,-0.6936186696952391,-0.7,1.0,0.0,293.0,699.0,0.0,0,218.0,1
672,672,0.05004769210956195,0.1,0.0,0.0,264.0,918.0,0.0,1,1068.0,1
673,673,0.2879355584435933,0.3,1.0,1.0,258.0,695.0,1.0,1,437.0,1
674,674,0.34996487949304245,0.3,0.0,0.0,313.0,626.0,0.0,1,171.0,1
675,675,0.24683519176733848,0.2,1.0,1.0,374.0,941.0,1.0,1,835.0,1
676,676,0.6751000487508968,0.7,0.0,0.0,453.0,527.0,0.0,1,230.0,1
677,677,0.6722825756297829,0.7,0.0,0.0,274.0,828.0,0.0,1,168.0,1
678,678,-0.32546876785152945,-0.3,1.0,0.0,355.0,930.0,0.0,0,845.0,1
679,679,-0.415348835179206,-0.4,0.0,1.0,360.0,650.0,1.0,0,420.0,1
680,680,0.7412951541530878,0.7,1.0,1.0,292.0,915.0,1.0,1,283.0,1
681,681,-0.2672393830909837,-0.3,1.0,0.0,425.0,745.0,1.0,1,-20.0,0
682,682,-0.6334762274044499,-0.6,0.0,1.0,461.0,605.0,1.0,0,284.0,1
683,683,-0.21537207009260562,-0.2,1.0,0.0,388.0,966.0,0.0,0,996.0,1
684,684,0.18353623938298147,0.2,0.0,0.0,292.0,733.0,0.0,1,865.0,1
685,685,0.7120493819790595,0.7,1.0,1.0,359.0,784.0,1.0,1,147.0,1
686,686,-0.2053898430245702,-0.2,0.0,1.0,397.0,835.0,1.0,0,1268.0,1
687,687,0.7385732385264775,0.7,0.0,0.0,266.0,697.0,0.0,1,197.0,1
688,688,0.630554060879532,0.6,0.0,0.0,294.0,616.0,0.0,1,170.0,1
689,689,0.7716486122043386,0.8,0.0,0.0,389.0,734.0,0.0,1,107.0,1
690,690,0.29328601203073423,0.3,1.0,1.0,327.0,697.0,1.0,1,786.0,1
691,691,0.29216380871111014,0.3,1.0,1.0,447.0,667.0,1.0,1,736.0,1
692,692,0.8467179653051186,0.8,0.0,0.0,455.0,633.0,0.0,1,242.0,1
693,693,-0.8317822954034952,-0.8,1.0,0.0,332.0,817.0,0.0,0,421.0,1
694,694,-0.661026315160699,-0.7,0.0,1.0,387.0,798.0,1.0,0,225.0,1
695,695,0.7031047567083549,0.7,0.0,0.0,428.0,621.0,0.0,1,131.0,1
696,696,0.14724783009248765,0.1,1.0,1.0,335.0,684.0,1.0,1,561.0,1
697,697,0.5443549885262117,0.5,0.0,0.0,293.0,784.0,0.0,1,213.0,1
698,698,0.8011617055478993,0.8,1.0,1.0,256.0,506.0,1.0,1,288.0,1
699,699,0.7453992319686683,0.7,1.0,1.0,474.0,630.0,1.0,1,476.0,1
700,700,-0.32763208544031974,-0.3,1.0,0.0,359.0,805.0,0.0,0,466.0,1
701,701,0.405857254216338,0.4,0.0,0.0,290.0,920.0,0.0,1,280.0,1
702,702,-0.5896700341127135,-0.6,1.0,0.0,420.0,802.0,0.0,0,378.0,1
703,703,-0.009632820693222355,-0.0,1.0,0.0,257.0,683.0,1.0,1,4060.0,0
704,704,0.3334605755755905,0.3,1.0,1.0,497.0,819.0,1.0,1,784.0,1
705,705,-0.4338840608222104,-0.4,0.0,1.0,473.0,993.0,1.0,0,654.0,1
706,706,-0.6323239088042956,-0.6,1.0,0.0,392.0,831.0,0.0,0,417.0,1
707,707,-0.07996955454844146,-0.1,1.0,0.0,267.0,598.0,0.0,0,945.0,1
708,708,0.42829761691892665,0.4,1.0,1.0,498.0,942.0,1.0,1,160.0,1
709,709,0.6395660607108397,0.6,0.0,0.0,307.0,828.0,0.0,1,295.0,1
710,710,-0.24108905744981635,-0.2,1.0,0.0,439.0,547.0,0.0,0,754.0,1
711,711,0.17663566553993493,0.2,0.0,0.0,315.0,696.0,0.0,1,399.0,1
712,712,0.5046513519572032,0.5,0.0,0.0,337.0,923.0,0.0,1,220.0,1
713,713,0.2180658869241422,0.2,0.0,0.0,348.0,667.0,0.0,1,985.0,1
714,714,-0.5749780599845153,-0.6,0.0,1.0,356.0,977.0,1.0,0,-413.0,1
715,715,0.3770002796750914,0.4,0.0,0.0,269.0,684.0,0.0,1,207.0,1
716,716,-0.4765383188799311,-0.5,1.0,0.0,453.0,947.0,0.0,0,440.0,1
717,717,-0.11147715045457784,-0.1,0.0,1.0,340.0,662.0,1.0,0,3998.0,1
718,718,-0.2924247951724571,-0.3,0.0,1.0,397.0,562.0,1.0,0,371.0,1
719,719,0.07257505805756337,0.1,0.0,0.0,282.0,569.0,0.0,1,699.0,1
720,720,-0.3078485595840643,-0.3,1.0,0.0,387.0,612.0,0.0,0,711.0,1
721,721,0.6265491579132986,0.6,1.0,1.0,432.0,996.0,1.0,1,92.0,1
722,722,0.7667118561885288,0.8,1.0,1.0,366.0,612.0,1.0,1,212.0,1
723,723,0.08442005246352424,0.1,1.0,1.0,285.0,934.0,1.0,1,3051.0,1
724,724,-0.8432876331470212,-0.8,1.0,0.0,257.0,770.0,0.0,0,53.0,1
725,725,0.20191324759458118,0.2,0.0,0.0,257.0,964.0,0.0,1,279.0,1
726,726,0.714016885928494,0.7,0.0,0.0,427.0,724.0,0.0,1,329.0,1
727,727,0.5651301135309524,0.6,1.0,1.0,405.0,763.0,1.0,1,352.0,1
728,728,-0.20189545267729891,-0.2,0.0,1.0,422.0,527.0,1.0,0,2721.0,1
729,729,0.2557413640641545,0.3,0.0,0.0,323.0,676.0,0.0,1,521.0,1
730,730,0.32644659386883246,0.3,1.0,1.0,268.0,717.0,1.0,1,415.0,1
731,731,0.7072732844573691,0.7,1.0,1.0,300.0,975.0,1.0,1,-15.0,1
732,732,0.6480393191706245,0.6,1.0,1.0,284.0,699.0,1.0,1,357.0,1
733,733,-0.64811572022068,-0.6,1.0,0.0,384.0,921.0,0.0,0,205.0,1
734,734,-0.45190877814600017,-0.5,1.0,0.0,398.0,604.0,0.0,0,458.0,1
735,735,-0.7919743098160513,-0.8,0.0,1.0,294.0,855.0,1.0,0,221.0,1
736,736,-0.7866609297882471,-0.8,1.0,0.0,322.0,580.0,0.0,0,-152.0,1
737,737,0.7721288548321338,0.8,1.0,1.0,471.0,720.0,1.0,1,389.0,1
738,738,-0.7807048959524233,-0.8,0.0,1.0,351.0,888.0,1.0,0,511.0,1
739,739,0.24551743059493425,0.2,1.0,1.0,254.0,919.0,1.0,1,447.0,1
740,740,-0.3127894276091846,-0.3,0.0,1.0,332.0,794.0,1.0,0,314.0,1
741,741,-0.8180538714246186,-0.8,1.0,0.0,251.0,839.0,0.0,0,320.0,1
742,742,-0.21587028148602128,-0.2,0.0,1.0,376.0,849.0,1.0,0,1695.0,1
743,743,-0.7539922411851462,-0.8,0.0,1.0,387.0,783.0,1.0,0,270.0,1
744,744,-0.7429737719267939,-0.7,0.0,1.0,283.0,976.0,1.0,0,481.0,1
745,745,0.608077919906734,0.6,0.0,0.0,348.0,905.0,0.0,1,197.0,1
746,746,0.0759535346379645,0.1,0.0,0.0,442.0,936.0,0.0,1,452.0,1
747,747,-0.2400733189643166,-0.2,1.0,0.0,413.0,712.0,0.0,0,575.0,1
748,748,-0.7854012485354682,-0.8,0.0,1.0,466.0,938.0,1.0,0,246.0,1
749,749,0.3049935242838301,0.3,1.0,1.0,452.0,836.0,1.0,1,722.0,1
750,750,0.75988512410342,0.8,0.0,0.0,438.0,619.0,0.0,1,133.0,1
751,751,0.08339342329426702,0.1,0.0,0.0,405.0,539.0,0.0,1,1206.0,1
752,752,-0.3990213943384664,-0.4,0.0,1.0,337.0,947.0,1.0,0,566.0,1
753,753,0.3085976297059113,0.3,0.0,0.0,332.0,692.0,0.0,1,696.0,1
754,754,-0.6587611968498636,-0.7,0.0,1.0,371.0,622.0,1.0,0,387.0,1
755,755,-0.322750954869936,-0.3,0.0,1.0,372.0,917.0,1.0,0,1161.0,1
756,756,0.015082962614354933,0.0,0.0,0.0,486.0,837.0,0.0,1,1857.0,1
757,757,0.38782676409646755,0.4,1.0,1.0,420.0,647.0,1.0,1,143.0,1
758,758,-0.2656583605743381,-0.3,0.0,1.0,471.0,844.0,1.0,0,595.0,1
759,759,-0.4109193891015717,-0.4,0.0,1.0,452.0,738.0,1.0,0,-10.0,1
760,760,-0.6819753691153236,-0.7,1.0,0.0,283.0,967.0,0.0,0,250.0,1
761,761,0.22306082963172014,0.2,0.0,0.0,395.0,731.0,0.0,1,454.0,1
762,762,0.8215761283836581,0.8,1.0,1.0,282.0,715.0,1.0,1,283.0,1
763,763,-0.034452099949850656,-0.0,0.0,1.0,470.0,907.0,0.0,1,1863.0,0
764,764,-0.4703704186371713,-0.5,1.0,0.0,376.0,710.0,0.0,0,444.0,1
765,765,0.4234348161882565,0.4,0.0,0.0,334.0,809.0,0.0,1,57.0,1
766,766,0.6524780867609928,0.7,1.0,1.0,467.0,941.0,1.0,1,322.0,1
767,767,-0.06691134918943886,-0.1,1.0,0.0,290.0,810.0,0.0,0,2000.0,1
768,768,-0.2348956617252902,-0.2,1.0,0.0,270.0,892.0,0.0,0,618.0,1
769,769,0.4604096346550536,0.5,0.0,0.0,408.0,998.0,0.0,1,304.0,1
770,770,0.323548337330409,0.3,0.0,0.0,479.0,643.0,0.0,1,158.0,1
771,771,-0.3148404079225747,-0.3,0.0,1.0,473.0,640.0,1.0,0,67.0,1
772,772,-0.34870095944268975,-0.3,1.0,0.0,270.0,761.0,0.0,0,279.0,1
773,773,-0.13603135347357886,-0.1,1.0,0.0,434.0,711.0,0.0,0,2165.0,1
774,774,-0.47636226545562493,-0.5,0.0,1.0,477.0,621.0,1.0,0,772.0,1
775,775,-0.04361729821269211,-0.0,0.0,1.0,499.0,540.0,0.0,1,2881.0,0
776,776,0.5009651749151635,0.5,1.0,1.0,356.0,877.0,1.0,1,397.0,1
777,777,0.428560016431199,0.4,0.0,0.0,340.0,751.0,0.0,1,189.0,1
778,778,0.43681331714046434,0.4,0.0,0.0,475.0,747.0,0.0,1,288.0,1
779,779,-0.769729584106788,-0.8,1.0,0.0,461.0,805.0,0.0,0,164.0,1
780,780,-0.003918436113132917,-0.0,0.0,1.0,254.0,973.0,0.0,1,1453.0,0
781,781,0.17645126755599316,0.2,0.0,0.0,368.0,956.0,0.0,1,126.0,1
782,782,-0.6385113492823671,-0.6,1.0,0.0,431.0,574.0,0.0,0,325.0,1
783,783,0.7447183972973169,0.7,1.0,1.0,421.0,695.0,1.0,1,374.0,1
784,784,-0.8557555711559437,-0.9,0.0,1.0,271.0,566.0,1.0,0,463.0,1
785,785,0.20289989756813231,0.2,0.0,0.0,261.0,557.0,0.0,1,952.0,1
786,786,0.6494744719677646,0.6,1.0,1.0,484.0,629.0,1.0,1,257.0,1
787,787,0.07347277271830388,0.1,1.0,1.0,284.0,689.0,1.0,1,1177.0,1
788,788,-0.7531271922184328,-0.8,1.0,0.0,321.0,706.0,0.0,0,313.0,1
789,789,-0.09547416762484473,-0.1,1.0,0.0,466.0,893.0,0.0,0,2671.0,1
790,790,0.14303754098483445,0.1,1.0,1.0,258.0,742.0,1.0,1,1630.0,1
791,791,0.32540040408600446,0.3,0.0,0.0,441.0,899.0,0.0,1,320.0,1
792,792,0.12326996880143926,0.1,0.0,0.0,326.0,810.0,0.0,1,184.0,1
793,793,0.7355290648773675,0.7,0.0,0.0,374.0,896.0,0.0,1,220.0,1
794,794,-0.6266068508115419,-0.6,0.0,1.0,490.0,832.0,1.0,0,158.0,1
795,795,0.8028721932319404,0.8,1.0,1.0,427.0,796.0,1.0,1,187.0,1
796,796,0.38685083269140874,0.4,1.0,1.0,429.0,521.0,1.0,1,620.0,1
797,797,0.6695677576531079,0.7,1.0,1.0,398.0,626.0,1.0,1,156.0,1
798,798,0.7674561408134061,0.8,1.0,1.0,453.0,834.0,1.0,1,383.0,1
799,799,0.808969427502081,0.8,0.0,0.0,425.0,533.0,0.0,1,192.0,1
800,800,0.4258579535050825,0.4,0.0,0.0,266.0,682.0,0.0,1,432.0,1
801,801,-0.5691008073453343,-0.6,0.0,1.0,279.0,653.0,1.0,0,378.0,1
802,802,0.3725308269963282,0.4,0.0,0.0,274.0,688.0,0.0,1,308.0,1
803,803,0.48943962480005176,0.5,1.0,1.0,393.0,631.0,1.0,1,416.0,1
804,804,0.3033881041559271,0.3,0.0,0.0,293.0,675.0,0.0,1,192.0,1
805,805,-0.790522896388484,-0.8,0.0,1.0,341.0,522.0,1.0,0,367.0,1
806,806,0.7046510755810919,0.7,1.0,1.0,303.0,673.0,1.0,1,194.0,1
807,807,0.4336637027715976,0.4,0.0,0.0,311.0,928.0,0.0,1,211.0,1
808,808,-0.747411267436972,-0.7,1.0,0.0,321.0,524.0,0.0,0,255.0,1
809,809,-0.27688494761821125,-0.3,0.0,1.0,478.0,894.0,1.0,0,878.0,1
810,810,0.3759247112462306,0.4,0.0,0.0,308.0,963.0,0.0,1,389.0,1
811,811,-0.7834406918151002,-0.8,1.0,0.0,488.0,506.0,0.0,0,106.0,1
812,812,-0.08995762692819953,-0.1,0.0,1.0,391.0,565.0,1.0,0,2494.0,1
813,813,0.026273935487755473,0.0,1.0,1.0,419.0,555.0,0.0,0,836.0,0
814,814,0.27553925135627966,0.3,1.0,1.0,374.0,937.0,1.0,1,1299.0,1
815,815,0.6614278396075678,0.7,1.0,1.0,376.0,971.0,1.0,1,303.0,1
816,816,-0.4748620400860059,-0.5,1.0,0.0,483.0,943.0,0.0,0,164.0,1
817,817,0.13223762112415482,0.1,0.0,0.0,319.0,529.0,0.0,1,1302.0,1
818,818,-0.39255053319618516,-0.4,1.0,0.0,292.0,751.0,0.0,0,357.0,1
819,819,0.09632945503066148,0.1,1.0,1.0,380.0,830.0,1.0,1,2470.0,1
820,820,0.12765941987214402,0.1,1.0,1.0,421.0,971.0,1.0,1,2038.0,1
821,821,-0.37607828719976066,-0.4,0.0,1.0,270.0,926.0,1.0,0,554.0,1
822,822,-0.7777864697586767,-0.8,1.0,0.0,461.0,779.0,0.0,0,170.0,1
823,823,-0.41509205745104705,-0.4,0.0,1.0,448.0,776.0,1.0,0,556.0,1
824,824,0.08588946416910048,0.1,1.0,1.0,432.0,762.0,1.0,1,3806.0,1
825,825,0.7350678456995162,0.7,0.0,0.0,269.0,512.0,0.0,1,139.0,1
826,826,-0.1733874725765675,-0.2,0.0,1.0,399.0,789.0,1.0,0,3122.0,1
827,827,0.4387105670110062,0.4,0.0,0.0,466.0,888.0,0.0,1,416.0,1
828,828,0.40955501726790244,0.4,1.0,1.0,315.0,692.0,1.0,1,223.0,1
829,829,-0.34188611389315826,-0.3,0.0,1.0,364.0,722.0,1.0,0,664.0,1
830,830,-0.8108279149519921,-0.8,1.0,0.0,330.0,868.0,0.0,0,202.0,1
831,831,0.20041161123528217,0.2,1.0,1.0,383.0,647.0,1.0,1,520.0,1
832,832,-0.5905116557460489,-0.6,0.0,1.0,387.0,993.0,1.0,0,260.0,1
833,833,-0.16526751723304356,-0.2,0.0,1.0,471.0,555.0,1.0,0,1044.0,1
834,834,0.6378421144990213,0.6,0.0,0.0,347.0,820.0,0.0,1,123.0,1
835,835,0.4698056562141476,0.5,0.0,0.0,496.0,650.0,0.0,1,714.0,1
836,836,-0.6275575670508717,-0.6,0.0,1.0,288.0,883.0,1.0,0,89.0,1
837,837,-0.05927580621590445,-0.1,1.0,0.0,431.0,997.0,0.0,0,2452.0,1
838,838,0.7545714752258209,0.8,0.0,0.0,278.0,880.0,0.0,1,152.0,1
839,839,0.19268144401031762,0.2,0.0,0.0,391.0,880.0,0.0,1,1099.0,1
840,840,-0.06663290690831136,-0.1,0.0,1.0,430.0,799.0,1.0,0,2731.0,1
841,841,0.018160310435624827,0.0,1.0,1.0,416.0,920.0,1.0,1,3194.0,1
842,842,-0.09323488926567536,-0.1,1.0,0.0,460.0,804.0,0.0,0,2646.0,1
843,843,-0.696711821735922,-0.7,1.0,0.0,312.0,735.0,0.0,0,213.0,1
844,844,0.12670401851182211,0.1,1.0,1.0,334.0,786.0,1.0,1,3880.0,1
845,845,-0.86198989064878,-0.9,1.0,0.0,489.0,966.0,0.0,0,125.0,1
846,846,0.4181710729493574,0.4,0.0,0.0,336.0,958.0,0.0,1,306.0,1
847,847,-0.8460053291628647,-0.8,1.0,0.0,349.0,897.0,0.0,0,174.0,1
848,848,-0.30415901339266094,-0.3,0.0,1.0,374.0,842.0,1.0,0,1384.0,1
849,849,0.5702136270226049,0.6,0.0,0.0,354.0,644.0,0.0,1,122.0,1
850,850,0.30986795157703273,0.3,0.0,0.0,340.0,604.0,0.0,1,336.0,1
851,851,0.5435796040997231,0.5,0.0,0.0,475.0,826.0,0.0,1,169.0,1
852,852,-0.8813652148388001,-0.9,1.0,0.0,493.0,816.0,0.0,0,331.0,1
853,853,0.07895268185429682,0.1,0.0,0.0,458.0,518.0,0.0,1,774.0,1
854,854,-0.5571068287862615,-0.6,1.0,0.0,432.0,988.0,0.0,0,290.0,1
855,855,-0.24321129778320294,-0.2,1.0,0.0,365.0,678.0,0.0,0,597.0,1
856,856,-0.48118467677470955,-0.5,1.0,0.0,396.0,731.0,0.0,0,313.0,1
857,857,-0.37577279528899643,-0.4,0.0,1.0,423.0,813.0,1.0,0,1094.0,1
858,858,-0.03583843428907807,-0.0,1.0,0.0,462.0,577.0,0.0,0,141.0,1
859,859,0.7668219969723097,0.8,0.0,0.0,365.0,893.0,0.0,1,242.0,1
860,860,-0.26643190540490913,-0.3,1.0,0.0,337.0,971.0,0.0,0,1122.0,1
861,861,-0.21889515355968014,-0.2,1.0,0.0,466.0,660.0,0.0,0,404.0,1
862,862,-0.6731349940684132,-0.7,1.0,0.0,253.0,571.0,0.0,0,176.0,1
863,863,0.33885230079112405,0.3,1.0,1.0,289.0,757.0,1.0,1,594.0,1
864,864,0.33334323145567823,0.3,1.0,1.0,382.0,680.0,1.0,1,58.0,1
865,865,-0.12353740358804355,-0.1,0.0,1.0,412.0,804.0,0.0,1,-346.0,0
866,866,0.5670123929173018,0.6,1.0,1.0,304.0,725.0,1.0,1,291.0,1
867,867,-0.6017691819499462,-0.6,1.0,0.0,323.0,576.0,0.0,0,261.0,1
868,868,-0.23292355563090128,-0.2,0.0,1.0,273.0,530.0,1.0,0,807.0,1
869,869,-0.27319341234279126,-0.3,1.0,0.0,371.0,731.0,0.0,0,188.0,1
870,870,-0.8845499253233254,-0.9,1.0,0.0,478.0,932.0,0.0,0,210.0,1
871,871,0.07184182056242361,0.1,0.0,0.0,473.0,990.0,0.0,1,267.0,1
872,872,0.4503646194337484,0.5,1.0,1.0,470.0,930.0,1.0,1,520.0,1
873,873,0.7659683338829578,0.8,0.0,0.0,325.0,967.0,0.0,1,208.0,1
874,874,-0.5270904943469559,-0.5,0.0,1.0,275.0,758.0,1.0,0,367.0,1
875,875,-0.6856257704990271,-0.7,0.0,1.0,286.0,803.0,1.0,0,331.0,1
876,876,-0.20044023664681232,-0.2,0.0,1.0,333.0,657.0,1.0,0,630.0,1
877,877,-0.28151366624416874,-0.3,0.0,1.0,394.0,971.0,1.0,0,465.0,1
878,878,0.3339636791730428,0.3,0.0,0.0,491.0,548.0,0.0,1,281.0,1
879,879,0.6973821389492522,0.7,0.0,0.0,493.0,527.0,0.0,1,640.0,1
880,880,0.5129773079827263,0.5,0.0,0.0,302.0,941.0,0.0,1,47.0,1
881,881,0.7268944335418724,0.7,0.0,0.0,332.0,966.0,0.0,1,152.0,1
882,882,-0.10590721368211575,-0.1,1.0,0.0,476.0,575.0,0.0,0,1129.0,1
883,883,-0.650668906343472,-0.7,1.0,0.0,423.0,969.0,0.0,0,178.0,1
884,884,0.19109708935188963,0.2,0.0,0.0,447.0,850.0,0.0,1,1253.0,1
885,885,-0.6864004701447302,-0.7,1.0,0.0,356.0,581.0,0.0,0,113.0,1
886,886,0.28914959650174354,0.3,1.0,1.0,430.0,772.0,1.0,1,1208.0,1
887,887,-0.008336397603769585,-0.0,1.0,0.0,469.0,719.0,0.0,0,3812.0,1
888,888,0.5656584982613971,0.6,1.0,1.0,285.0,661.0,1.0,1,454.0,1
889,889,-0.5316712381109283,-0.5,0.0,1.0,475.0,538.0,1.0,0,287.0,1
890,890,0.5391855311132346,0.5,1.0,1.0,413.0,938.0,1.0,1,409.0,1
891,891,0.8826714138397368,0.9,1.0,1.0,285.0,685.0,1.0,1,310.0,1
892,892,0.6178739458513981,0.6,1.0,1.0,461.0,890.0,1.0,1,599.0,1
893,893,0.24500565905025085,0.2,1.0,1.0,306.0,795.0,1.0,1,1109.0,1
894,894,0.4270520127954124,0.4,1.0,1.0,358.0,700.0,1.0,1,442.0,1
895,895,0.12853798140485673,0.1,0.0,0.0,403.0,708.0,0.0,1,219.0,1
896,896,-0.651633892612362,-0.7,1.0,0.0,420.0,813.0,0.0,0,207.0,1
897,897,-0.6808046565547159,-0.7,0.0,1.0,284.0,508.0,1.0,0,238.0,1
898,898,-0.22609235171889497,-0.2,0.0,1.0,414.0,558.0,1.0,0,1388.0,1
899,899,-0.5167623327229679,-0.5,1.0,0.0,276.0,812.0,0.0,0,172.0,1
900,900,0.3881357132271782,0.4,0.0,0.0,253.0,630.0,0.0,1,537.0,1
901,901,-0.7439473722824408,-0.7,1.0,0.0,486.0,644.0,0.0,0,180.0,1
902,902,0.7663975203867591,0.8,0.0,0.0,332.0,809.0,0.0,1,219.0,1
903,903,0.03239773202991625,0.0,0.0,0.0,460.0,562.0,0.0,1,508.0,1
904,904,-0.7699154570465752,-0.8,1.0,0.0,370.0,923.0,0.0,0,87.0,1
905,905,0.6472460313165159,0.6,0.0,0.0,461.0,956.0,0.0,1,383.0,1
906,906,0.544766022771585,0.5,1.0,1.0,263.0,539.0,1.0,1,278.0,1
907,907,0.863246941804357,0.9,0.0,0.0,474.0,937.0,0.0,1,149.0,1
908,908,-0.6967640075112304,-0.7,0.0,1.0,360.0,681.0,1.0,0,189.0,1
909,909,0.40763535616057955,0.4,0.0,0.0,444.0,864.0,0.0,1,-538.0,1
910,910,0.40151356573176555,0.4,1.0,1.0,423.0,641.0,1.0,1,166.0,1
911,911,-0.2697773790256248,-0.3,0.0,1.0,354.0,604.0,1.0,0,3012.0,1
912,912,-0.038721298955808336,-0.0,1.0,0.0,364.0,892.0,0.0,0,1124.0,1
913,913,0.8409725553632886,0.8,0.0,0.0,354.0,843.0,0.0,1,333.0,1
914,914,0.002086759418095663,0.0,1.0,1.0,392.0,608.0,0.0,0,1750.0,0
915,915,0.7988123390506198,0.8,0.0,0.0,323.0,502.0,0.0,1,235.0,1
916,916,0.07998030444262427,0.1,1.0,1.0,373.0,835.0,1.0,1,1142.0,1
917,917,-0.8156893395766742,-0.8,1.0,0.0,334.0,922.0,0.0,0,304.0,1
918,918,-0.5046646803565533,-0.5,1.0,0.0,291.0,625.0,0.0,0,214.0,1
919,919,-0.2790716048771891,-0.3,0.0,1.0,255.0,936.0,1.0,0,799.0,1
920,920,0.5181994802939361,0.5,0.0,0.0,493.0,991.0,0.0,1,276.0,1
921,921,0.7666229522841436,0.8,0.0,0.0,383.0,905.0,0.0,1,272.0,1
922,922,0.5582069691421693,0.6,1.0,1.0,399.0,556.0,1.0,1,325.0,1
923,923,-0.162779701050058,-0.2,0.0,1.0,376.0,874.0,0.0,1,-160.0,0
924,924,0.44793726633538433,0.4,0.0,0.0,333.0,912.0,0.0,1,545.0,1
925,925,0.014524680340798568,0.0,0.0,0.0,479.0,613.0,0.0,1,2998.0,1
926,926,0.4146447185904997,0.4,1.0,1.0,392.0,600.0,1.0,1,348.0,1
927,927,-0.5796652812459657,-0.6,1.0,0.0,258.0,766.0,0.0,0,186.0,1
928,928,-0.6958577875878627,-0.7,0.0,1.0,416.0,900.0,1.0,0,404.0,1
929,929,-0.31978617479494476,-0.3,1.0,0.0,332.0,945.0,0.0,0,643.0,1
930,930,-0.881580017620201,-0.9,0.0,1.0,385.0,707.0,1.0,0,388.0,1
931,931,-0.1665125115041558,-0.2,0.0,1.0,493.0,653.0,1.0,0,1394.0,1
932,932,-0.0441691471988489,-0.0,1.0,0.0,413.0,685.0,0.0,0,2622.0,1
933,933,0.8911117771378213,0.9,0.0,0.0,323.0,840.0,0.0,1,127.0,1
934,934,0.15178976068848093,0.2,0.0,0.0,262.0,662.0,0.0,1,456.0,1
935,935,0.5505861835808975,0.6,1.0,1.0,384.0,604.0,1.0,1,992.0,1
936,936,0.4056522281629956,0.4,0.0,0.0,438.0,963.0,0.0,1,459.0,1
937,937,-0.09332142820920875,-0.1,0.0,1.0,347.0,769.0,1.0,0,3054.0,1
938,938,0.2950523649890394,0.3,0.0,0.0,468.0,762.0,0.0,1,250.0,1
939,939,-0.24232797007903473,-0.2,1.0,0.0,296.0,556.0,0.0,0,968.0,1
940,940,-0.8326588029011562,-0.8,1.0,0.0,298.0,761.0,0.0,0,111.0,1
941,941,0.5384323536120396,0.5,0.0,0.0,264.0,741.0,0.0,1,245.0,1
942,942,-0.657114935978795,-0.7,0.0,1.0,454.0,918.0,1.0,0,208.0,1
943,943,-0.48734149332780663,-0.5,1.0,0.0,480.0,935.0,0.0,0,155.0,1
944,944,-0.7696832136404493,-0.8,1.0,0.0,463.0,868.0,0.0,0,239.0,1
945,945,-0.33986352818008736,-0.3,0.0,1.0,454.0,919.0,1.0,0,357.0,1
946,946,-0.14857221440813317,-0.1,1.0,0.0,292.0,553.0,0.0,0,1955.0,1
947,947,0.7891979998708624,0.8,0.0,0.0,485.0,931.0,0.0,1,164.0,1
948,948,-0.5882702460512795,-0.6,0.0,1.0,430.0,874.0,1.0,0,276.0,1
949,949,-0.47739755977193027,-0.5,0.0,1.0,497.0,773.0,1.0,0,490.0,1
950,950,-0.4169380833885569,-0.4,1.0,0.0,463.0,567.0,0.0,0,460.0,1
951,951,-0.18495188864864553,-0.2,1.0,0.0,466.0,748.0,0.0,0,1476.0,1
952,952,0.4336150422015289,0.4,1.0,1.0,288.0,667.0,1.0,1,855.0,1
953,953,-0.07612093178940449,-0.1,0.0,1.0,456.0,565.0,0.0,1,3979.0,0
954,954,0.8211071632332171,0.8,1.0,1.0,411.0,586.0,1.0,1,153.0,1
955,955,-0.8029028359133591,-0.8,0.0,1.0,270.0,723.0,1.0,0,107.0,1
956,956,-0.05868650320572322,-0.1,0.0,1.0,468.0,924.0,1.0,0,3608.0,1
957,957,-0.10641116858431154,-0.1,1.0,0.0,365.0,523.0,0.0,0,1902.0,1
958,958,0.3061720330930101,0.3,0.0,0.0,269.0,563.0,0.0,1,318.0,1
959,959,0.16528211501122236,0.2,0.0,0.0,321.0,516.0,0.0,1,983.0,1
960,960,0.26350011671137985,0.3,1.0,1.0,361.0,513.0,1.0,1,1586.0,1
961,961,0.406382550933546,0.4,1.0,1.0,270.0,966.0,1.0,1,594.0,1
962,962,-0.6222660447768582,-0.6,0.0,1.0,257.0,722.0,1.0,0,211.0,1
963,963,0.1639027531004641,0.2,1.0,1.0,409.0,574.0,1.0,1,1577.0,1
964,964,-0.746977803119182,-0.7,0.0,1.0,254.0,567.0,1.0,0,309.0,1
965,965,0.14033716996769974,0.1,1.0,1.0,381.0,960.0,1.0,1,2959.0,1
966,966,0.18113921181553605,0.2,1.0,1.0,483.0,655.0,1.0,1,222.0,1
967,967,-0.1721990721702008,-0.2,0.0,1.0,258.0,773.0,1.0,0,3409.0,1
968,968,0.40190639788915405,0.4,1.0,1.0,421.0,820.0,1.0,1,349.0,1
969,969,-0.4584042311442578,-0.5,0.0,1.0,426.0,761.0,1.0,0,1353.0,1
970,970,0.0959932892287092,0.1,1.0,1.0,341.0,531.0,1.0,1,688.0,1
971,971,-0.4247380273492003,-0.4,0.0,1.0,379.0,800.0,1.0,0,541.0,1
972,972,0.5450552908093743,0.5,0.0,0.0,374.0,829.0,0.0,1,47.0,1
973,973,-0.3798631780612385,-0.4,0.0,1.0,266.0,753.0,1.0,0,431.0,1
974,974,0.4042910792019868,0.4,1.0,1.0,375.0,776.0,1.0,1,589.0,1
975,975,0.8245028409579628,0.8,0.0,0.0,267.0,810.0,0.0,1,193.0,1
976,976,-0.4448231047660703,-0.4,0.0,1.0,386.0,894.0,1.0,0,420.0,1
977,977,0.626689445137666,0.6,0.0,0.0,402.0,632.0,0.0,1,216.0,1
978,978,-0.41704254613997,-0.4,0.0,1.0,255.0,625.0,1.0,0,490.0,1
979,979,-0.2134357943809042,-0.2,1.0,0.0,292.0,794.0,0.0,0,1044.0,1
980,980,-0.18825383305094934,-0.2,0.0,1.0,265.0,569.0,1.0,0,1596.0,1
981,981,0.24118143149812787,0.2,1.0,1.0,380.0,950.0,1.0,1,1510.0,1
982,982,-0.6020399223078798,-0.6,1.0,0.0,416.0,708.0,0.0,0,216.0,1
983,983,0.26388351905203866,0.3,1.0,1.0,458.0,742.0,1.0,1,560.0,1
984,984,-0.00957276678999508,-0.0,1.0,0.0,344.0,678.0,0.0,0,3978.0,1
985,985,-0.5627426210037376,-0.6,0.0,1.0,379.0,998.0,1.0,0,203.0,1
986,986,-0.8077326902099874,-0.8,1.0,0.0,287.0,933.0,0.0,0,110.0,1
987,987,-0.4529146520553388,-0.5,0.0,1.0,393.0,621.0,1.0,0,606.0,1
988,988,-0.3117500151605732,-0.3,0.0,1.0,367.0,659.0,1.0,0,1004.0,1
989,989,-0.5360714130657351,-0.5,0.0,1.0,454.0,589.0,1.0,0,227.0,1
990,990,0.0185091851189767,0.0,0.0,0.0,323.0,651.0,0.0,1,4026.0,1
991,991,0.5781894797598529,0.6,1.0,1.0,443.0,566.0,1.0,1,161.0,1
992,992,-0.08899852974342426,-0.1,1.0,0.0,415.0,851.0,0.0,0,1494.0,1
993,993,-0.5294467972684354,-0.5,1.0,0.0,410.0,859.0,0.0,0,221.0,1
994,994,-0.5449154014241656,-0.5,0.0,1.0,269.0,542.0,1.0,0,1039.0,1
995,995,-0.8424743250964268,-0.8,0.0,1.0,442.0,521.0,1.0,0,307.0,1
996,996,-0.02168986970189135,-0.0,0.0,1.0,369.0,959.0,0.0,1,132.0,0
997,997,-0.26764724595773015,-0.3,1.0,0.0,359.0,621.0,0.0,0,620.0,1
998,998,-0.8068497507568466,-0.8,0.0,1.0,354.0,935.0,1.0,0,521.0,1
999,999,-0.6227479477679497,-0.6,1.0,0.0,313.0,628.0,0.0,0,219.0,1
1000,1000,0.7974178154652424,0.8,1.0,1.0,425.0,669.0,1.0,1,536.0,1
1001,1001,-0.48683641312009984,-0.5,1.0,0.0,436.0,503.0,0.0,0,281.0,1
1002,1002,0.1662084970084895,0.2,1.0,1.0,409.0,638.0,1.0,1,1043.0,1
1003,1003,-0.767864224731519,-0.8,1.0,0.0,313.0,832.0,0.0,0,265.0,1
1004,1004,0.39607219656513226,0.4,1.0,1.0,275.0,725.0,1.0,1,710.0,1
1005,1005,0.4035967869000002,0.4,0.0,0.0,327.0,866.0,0.0,1,497.0,1
1006,1006,-0.5142862646283517,-0.5,1.0,0.0,397.0,871.0,0.0,0,432.0,1
1007,1007,-0.4119137355513018,-0.4,0.0,1.0,306.0,841.0,1.0,0,93.0,1
1008,1008,-0.40154323217556986,-0.4,0.0,1.0,379.0,521.0,1.0,0,270.0,1
1009,1009,-0.4893212845191275,-0.5,1.0,0.0,260.0,665.0,0.0,0,365.0,1
1010,1010,0.37938975373877126,0.4,0.0,0.0,296.0,700.0,0.0,1,124.0,1
1011,1011,0.7068149169712076,0.7,0.0,0.0,313.0,784.0,0.0,1,173.0,1
1012,1012,-0.877885632169443,-0.9,0.0,1.0,298.0,940.0,1.0,0,162.0,1
1013,1013,0.6732056009356463,0.7,1.0,1.0,354.0,564.0,1.0,1,422.0,1
1014,1014,-0.5024626862889319,-0.5,0.0,1.0,446.0,742.0,1.0,0,262.0,1
1015,1015,-0.6805875227159048,-0.7,1.0,0.0,458.0,811.0,0.0,0,621.0,1
1016,1016,-0.6487215686609337,-0.6,0.0,1.0,401.0,525.0,1.0,0,114.0,1
1017,1017,0.26396884890586125,0.3,0.0,0.0,298.0,603.0,0.0,1,459.0,1
1018,1018,-0.10298913220401118,-0.1,0.0,1.0,326.0,988.0,1.0,0,836.0,1
1019,1019,-0.7289627692969329,-0.7,0.0,1.0,291.0,603.0,1.0,0,856.0,1
1020,1020,0.07294410058884271,0.1,0.0,0.0,250.0,667.0,0.0,1,293.0,1
1021,1021,-0.20248561419624644,-0.2,0.0,1.0,342.0,626.0,1.0,0,652.0,1
1022,1022,-0.40698229562386057,-0.4,0.0,1.0,475.0,539.0,1.0,0,446.0,1
1023,1023,0.3307447814968364,0.3,0.0,0.0,279.0,794.0,0.0,1,287.0,1
1024,1024,0.12943926868567968,0.1,0.0,0.0,480.0,761.0,0.0,1,469.0,1
1025,1025,0.32621446423776146,0.3,0.0,0.0,474.0,565.0,0.0,1,131.0,1
1026,1026,0.4081207590562447,0.4,1.0,1.0,360.0,562.0,1.0,1,58.0,1
1027,1027,0.5442055860959759,0.5,0.0,0.0,452.0,683.0,0.0,1,225.0,1
1028,1028,0.1587065835569278,0.2,0.0,0.0,324.0,829.0,0.0,1,1037.0,1
1029,1029,-0.09782640952665456,-0.1,0.0,1.0,321.0,994.0,1.0,0,3685.0,1
1030,1030,0.5019621318797066,0.5,1.0,1.0,379.0,787.0,1.0,1,644.0,1
1031,1031,-0.053561314469840915,-0.1,0.0,1.0,398.0,769.0,1.0,0,3833.0,1
1032,1032,-0.40776868743813055,-0.4,0.0,1.0,445.0,617.0,1.0,0,1138.0,1
1033,1033,0.7811381258937234,0.8,1.0,1.0,411.0,628.0,1.0,1,161.0,1
1034,1034,0.2718557423606064,0.3,0.0,0.0,493.0,887.0,0.0,1,190.0,1
1035,1035,0.46672971259619167,0.5,1.0,1.0,474.0,923.0,1.0,1,193.0,1
1036,1036,-0.10684686121108733,-0.1,0.0,1.0,319.0,716.0,1.0,0,3765.0,1
1037,1037,0.4524613737432305,0.5,1.0,1.0,449.0,501.0,1.0,1,510.0,1
1038,1038,-0.2576919598111299,-0.3,1.0,0.0,389.0,641.0,0.0,0,530.0,1
1039,1039,0.5270044939820234,0.5,1.0,1.0,332.0,695.0,1.0,1,113.0,1
1040,1040,0.01221308992866077,0.0,1.0,1.0,473.0,750.0,0.0,0,3707.0,0
1041,1041,-0.7367200434664837,-0.7,0.0,1.0,356.0,660.0,1.0,0,624.0,1
1042,1042,0.4731075879692611,0.5,0.0,0.0,255.0,956.0,0.0,1,469.0,1
1043,1043,-0.5330370976209511,-0.5,1.0,0.0,256.0,888.0,0.0,0,266.0,1
1044,1044,0.8190249512051427,0.8,1.0,1.0,338.0,687.0,1.0,1,335.0,1
1045,1045,-0.2864623667347246,-0.3,1.0,0.0,440.0,699.0,0.0,0,331.0,1
1046,1046,-0.46868317701889045,-0.5,0.0,1.0,466.0,555.0,1.0,0,559.0,1
1047,1047,-0.1365832299263504,-0.1,1.0,0.0,334.0,821.0,0.0,0,1025.0,1
1048,1048,0.6809618507651504,0.7,1.0,1.0,421.0,759.0,1.0,1,370.0,1
1049,1049,-0.2956034121124481,-0.3,0.0,1.0,252.0,916.0,1.0,0,962.0,1
1050,1050,-0.47808727537666,-0.5,0.0,1.0,425.0,924.0,1.0,0,271.0,1
1051,1051,-0.56069923759994,-0.6,1.0,0.0,359.0,930.0,0.0,0,111.0,1
1052,1052,0.045469038284338015,0.0,0.0,0.0,391.0,682.0,0.0,1,647.0,1
1053,1053,0.20806032285891785,0.2,1.0,1.0,261.0,549.0,1.0,1,540.0,1
1054,1054,0.5444075992678458,0.5,1.0,1.0,313.0,706.0,1.0,1,281.0,1
1055,1055,0.0675622959815041,0.1,1.0,1.0,409.0,567.0,0.0,0,4024.0,0
1056,1056,0.3436821320414284,0.3,0.0,0.0,420.0,616.0,0.0,1,144.0,1
1057,1057,-0.1562580717258809,-0.2,1.0,0.0,454.0,587.0,0.0,0,789.0,1
1058,1058,-0.011055450026741354,-0.0,0.0,1.0,484.0,794.0,0.0,1,3722.0,0
1059,1059,0.7344929716837721,0.7,0.0,0.0,352.0,673.0,0.0,1,105.0,1
1060,1060,-0.4669962379431886,-0.5,0.0,1.0,426.0,581.0,1.0,0,543.0,1
1061,1061,0.7399880982993555,0.7,1.0,1.0,288.0,615.0,1.0,1,227.0,1
1062,1062,-0.796945068131545,-0.8,1.0,0.0,477.0,510.0,0.0,0,293.0,1
1063,1063,0.15218656171647582,0.2,1.0,1.0,277.0,539.0,1.0,1,654.0,1
1064,1064,-0.40818124875995665,-0.4,0.0,1.0,389.0,831.0,0.0,1,-10.0,0
1065,1065,-0.5018185751866915,-0.5,1.0,0.0,393.0,929.0,0.0,0,308.0,1
1066,1066,-0.892666505513272,-0.9,0.0,1.0,382.0,726.0,1.0,0,462.0,1
1067,1067,-0.20568669703003328,-0.2,1.0,0.0,371.0,801.0,0.0,0,418.0,1
1068,1068,0.4311008289483159,0.4,1.0,1.0,284.0,969.0,1.0,1,267.0,1
1069,1069,0.3982862804520887,0.4,0.0,0.0,468.0,657.0,0.0,1,225.0,1
1070,1070,0.14554520934625048,0.1,0.0,0.0,273.0,574.0,0.0,1,1193.0,1
1071,1071,0.802961842342547,0.8,0.0,0.0,416.0,593.0,0.0,1,151.0,1
1072,1072,-0.12700056126693637,-0.1,1.0,0.0,341.0,556.0,0.0,0,993.0,1
1073,1073,0.6144083317684638,0.6,1.0,1.0,263.0,659.0,1.0,1,368.0,1
1074,1074,0.23344348733816,0.2,0.0,0.0,379.0,947.0,0.0,1,424.0,1
1075,1075,-0.015944422425895555,-0.0,1.0,0.0,395.0,983.0,0.0,0,182.0,1
1076,1076,-0.3769011710446656,-0.4,0.0,1.0,270.0,525.0,1.0,0,1205.0,1
1077,1077,-0.1333084309835455,-0.1,0.0,1.0,257.0,620.0,1.0,0,2403.0,1
1078,1078,0.01668194447365401,0.0,1.0,1.0,264.0,694.0,1.0,1,1062.0,1
1079,1079,-0.8800926455516335,-0.9,0.0,1.0,469.0,886.0,1.0,0,415.0,1
1080,1080,-0.09979887618729388,-0.1,0.0,1.0,377.0,547.0,0.0,1,2386.0,0
1081,1081,-0.751127974251263,-0.8,1.0,0.0,322.0,669.0,0.0,0,229.0,1
1082,1082,-0.7685241097081635,-0.8,1.0,0.0,280.0,589.0,0.0,0,271.0,1
1083,1083,-0.3038447002425031,-0.3,1.0,0.0,465.0,740.0,0.0,0,175.0,1
1084,1084,-0.8768725769210655,-0.9,1.0,0.0,326.0,979.0,0.0,0,-465.0,1
1085,1085,-0.07881492336132434,-0.1,1.0,0.0,270.0,504.0,1.0,1,4226.0,0
1086,1086,0.2595797887412562,0.3,1.0,1.0,259.0,623.0,1.0,1,208.0,1
1087,1087,0.2831818478623319,0.3,0.0,0.0,367.0,999.0,0.0,1,184.0,1
1088,1088,-0.3161768770743595,-0.3,1.0,0.0,435.0,644.0,0.0,0,371.0,1
1089,1089,0.39020759413645323,0.4,0.0,0.0,404.0,942.0,0.0,1,634.0,1
1090,1090,0.04819046058929921,0.0,0.0,0.0,381.0,729.0,0.0,1,3040.0,1
1091,1091,-0.5301609608396074,-0.5,0.0,1.0,475.0,752.0,1.0,0,183.0,1
1092,1092,0.20846803251646462,0.2,1.0,1.0,315.0,887.0,1.0,1,188.0,1
1093,1093,0.49073953920439994,0.5,1.0,1.0,344.0,635.0,1.0,1,301.0,1
1094,1094,-0.5425162290151538,-0.5,0.0,1.0,471.0,524.0,1.0,0,515.0,1
1095,1095,-0.1697820248864359,-0.2,0.0,1.0,323.0,962.0,1.0,0,1685.0,1
1096,1096,0.7121873362029282,0.7,0.0,0.0,463.0,986.0,0.0,1,241.0,1
1097,1097,0.5859039165779975,0.6,1.0,1.0,471.0,672.0,1.0,1,237.0,1
1098,1098,-0.511948022846395,-0.5,1.0,0.0,285.0,941.0,0.0,0,74.0,1
1099,1099,-0.6268209719390614,-0.6,1.0,0.0,275.0,866.0,0.0,0,339.0,1
1100,1100,0.680572785169305,0.7,1.0,1.0,297.0,569.0,1.0,1,224.0,1
1101,1101,0.8793195347604522,0.9,1.0,1.0,462.0,988.0,1.0,1,170.0,1
1102,1102,0.6845171680087111,0.7,0.0,0.0,329.0,949.0,0.0,1,402.0,1
1103,1103,-0.6781220959126947,-0.7,0.0,1.0,449.0,683.0,1.0,0,368.0,1
1104,1104,0.2422606714910086,0.2,1.0,1.0,298.0,745.0,1.0,1,997.0,1
1105,1105,0.2188619257168446,0.2,1.0,1.0,267.0,542.0,1.0,1,421.0,1
1106,1106,-0.08362035210868968,-0.1,0.0,1.0,262.0,762.0,1.0,0,3976.0,1
1107,1107,0.53837649421604,0.5,1.0,1.0,293.0,994.0,1.0,1,213.0,1
1108,1108,-0.8684035493445407,-0.9,1.0,0.0,468.0,721.0,0.0,0,281.0,1
1109,1109,0.3884409897789408,0.4,1.0,1.0,399.0,787.0,1.0,1,434.0,1
1110,1110,0.6129536533679271,0.6,1.0,1.0,455.0,811.0,1.0,1,624.0,1
1111,1111,0.008257450407877731,0.0,0.0,0.0,409.0,625.0,0.0,1,3966.0,1
1112,1112,-0.5822627952406045,-0.6,0.0,1.0,462.0,869.0,1.0,0,419.0,1
1113,1113,-0.37705032375552794,-0.4,1.0,0.0,255.0,769.0,0.0,0,176.0,1
1114,1114,-0.2900225641822456,-0.3,1.0,0.0,392.0,557.0,0.0,0,311.0,1
1115,1115,-0.3024326516839755,-0.3,1.0,0.0,499.0,523.0,0.0,0,458.0,1
1116,1116,0.5174890816599774,0.5,1.0,1.0,306.0,951.0,1.0,1,303.0,1
1117,1117,-0.3005306393245939,-0.3,0.0,1.0,379.0,570.0,1.0,0,781.0,1
1118,1118,-0.795563803778111,-0.8,1.0,0.0,383.0,638.0,0.0,0,279.0,1
1119,1119,0.26735407253393373,0.3,1.0,1.0,498.0,785.0,1.0,1,757.0,1
1120,1120,0.7123195567616004,0.7,1.0,1.0,366.0,766.0,1.0,1,228.0,1
1121,1121,-0.1343507346864118,-0.1,0.0,1.0,465.0,820.0,1.0,0,1465.0,1
1122,1122,-0.5996924544360173,-0.6,0.0,1.0,496.0,916.0,1.0,0,698.0,1
1123,1123,-0.8514552086601294,-0.9,0.0,1.0,499.0,806.0,1.0,0,325.0,1
1124,1124,0.19941934458668087,0.2,1.0,1.0,412.0,909.0,1.0,1,269.0,1
1125,1125,0.29619648462823644,0.3,0.0,0.0,420.0,838.0,0.0,1,502.0,1
1126,1126,0.6546703937411537,0.7,0.0,0.0,329.0,504.0,0.0,1,287.0,1
1127,1127,-0.7452889772539089,-0.7,0.0,1.0,289.0,588.0,1.0,0,383.0,1
1128,1128,-0.048507902438507,-0.0,0.0,1.0,496.0,937.0,0.0,1,3567.0,0
1129,1129,0.19292936318822262,0.2,0.0,0.0,427.0,740.0,0.0,1,953.0,1
1130,1130,-0.7428071585165786,-0.7,1.0,0.0,471.0,800.0,0.0,0,149.0,1
1131,1131,-0.36047776045020163,-0.4,1.0,0.0,287.0,692.0,0.0,0,361.0,1
1132,1132,0.5749020592583215,0.6,0.0,0.0,286.0,584.0,0.0,1,140.0,1
1133,1133,0.6004166890100185,0.6,1.0,1.0,457.0,832.0,1.0,1,181.0,1
1134,1134,0.8172592365632866,0.8,0.0,0.0,448.0,576.0,0.0,1,226.0,1
1135,1135,0.5762532882806072,0.6,1.0,1.0,373.0,931.0,1.0,1,216.0,1
1136,1136,-0.13591137838943912,-0.1,0.0,1.0,330.0,549.0,1.0,0,1301.0,1
1137,1137,-0.26515159488503426,-0.3,0.0,1.0,346.0,661.0,1.0,0,703.0,1
1138,1138,0.8280501744355057,0.8,1.0,1.0,259.0,747.0,1.0,1,244.0,1
1139,1139,0.21941376853161254,0.2,1.0,1.0,396.0,912.0,1.0,1,782.0,1
1140,1140,0.2737365077942372,0.3,1.0,1.0,349.0,599.0,1.0,1,412.0,1
1141,1141,-0.190252351990148,-0.2,0.0,1.0,399.0,970.0,1.0,0,851.0,1
1142,1142,0.1419480122393587,0.1,0.0,0.0,462.0,622.0,0.0,1,876.0,1
1143,1143,-0.5584257286062676,-0.6,1.0,0.0,463.0,660.0,0.0,0,107.0,1
1144,1144,-0.5318552219002846,-0.5,0.0,1.0,448.0,887.0,1.0,0,535.0,1
1145,1145,0.6328545316744328,0.6,0.0,0.0,291.0,840.0,0.0,1,529.0,1
1146,1146,-0.3513882560592053,-0.4,0.0,1.0,494.0,896.0,1.0,0,740.0,1
1147,1147,0.586437618081148,0.6,0.0,0.0,390.0,893.0,0.0,1,67.0,1
1148,1148,-0.5687536407723273,-0.6,0.0,1.0,382.0,625.0,1.0,0,403.0,1
1149,1149,-0.08596023565291933,-0.1,1.0,0.0,422.0,943.0,0.0,0,1935.0,1
1150,1150,0.25686004799867346,0.3,0.0,0.0,262.0,950.0,0.0,1,158.0,1
1151,1151,0.2293760123620906,0.2,0.0,0.0,313.0,688.0,0.0,1,219.0,1
1152,1152,0.7141894962921153,0.7,1.0,1.0,379.0,941.0,1.0,1,430.0,1
1153,1153,0.5768618824943675,0.6,0.0,0.0,460.0,832.0,0.0,1,258.0,1
1154,1154,0.12483767229040954,0.1,0.0,0.0,363.0,789.0,0.0,1,708.0,1
1155,1155,0.5722093610829112,0.6,0.0,0.0,469.0,805.0,0.0,1,136.0,1
1156,1156,-0.41924910678722166,-0.4,1.0,0.0,277.0,686.0,0.0,0,267.0,1
1157,1157,0.7905784538205264,0.8,1.0,1.0,325.0,972.0,1.0,1,183.0,1
1158,1158,-0.35766610606315363,-0.4,1.0,0.0,329.0,641.0,0.0,0,340.0,1
1159,1159,-0.3080489707517916,-0.3,0.0,1.0,494.0,771.0,1.0,0,555.0,1
1160,1160,-0.1661988043996152,-0.2,1.0,0.0,350.0,658.0,0.0,0,682.0,1
1161,1161,0.40149864539640434,0.4,0.0,0.0,343.0,819.0,0.0,1,258.0,1
1162,1162,-0.4352090407900472,-0.4,1.0,0.0,317.0,534.0,0.0,0,299.0,1
1163,1163,0.5338226029264174,0.5,1.0,1.0,398.0,660.0,1.0,1,462.0,1
1164,1164,0.5308782663531614,0.5,1.0,1.0,443.0,672.0,1.0,1,245.0,1
1165,1165,-0.415360912923084,-0.4,1.0,0.0,468.0,841.0,0.0,0,51.0,1
1166,1166,0.060106941420464466,0.1,1.0,1.0,360.0,971.0,1.0,1,2959.0,1
1167,1167,-0.13377717014310075,-0.1,1.0,0.0,329.0,977.0,0.0,0,1834.0,1
1168,1168,0.20347631545544986,0.2,0.0,0.0,288.0,735.0,0.0,1,377.0,1
1169,1169,0.21511915160467254,0.2,0.0,0.0,350.0,736.0,0.0,1,264.0,1
1170,1170,0.48925960654603207,0.5,0.0,0.0,426.0,948.0,0.0,1,266.0,1
1171,1171,0.3264094133203893,0.3,0.0,0.0,386.0,979.0,0.0,1,375.0,1
1172,1172,0.6807688024809663,0.7,0.0,0.0,263.0,950.0,0.0,1,167.0,1
1173,1173,-0.2888647886448905,-0.3,0.0,1.0,381.0,824.0,1.0,0,445.0,1
1174,1174,-0.4514854849179705,-0.5,1.0,0.0,291.0,924.0,0.0,0,825.0,1
1175,1175,-0.1661192694435083,-0.2,0.0,1.0,365.0,900.0,1.0,0,1905.0,1
1176,1176,-0.7228130729372502,-0.7,0.0,1.0,435.0,804.0,1.0,0,141.0,1
1177,1177,0.4887167076835487,0.5,0.0,0.0,268.0,926.0,0.0,1,186.0,1
1178,1178,0.5384792299923015,0.5,1.0,1.0,384.0,936.0,1.0,1,300.0,1
1179,1179,0.06918921589193439,0.1,1.0,1.0,371.0,792.0,1.0,1,1897.0,1
1180,1180,0.2980025320122178,0.3,0.0,0.0,471.0,927.0,0.0,1,672.0,1
1181,1181,-0.5318021982499086,-0.5,1.0,0.0,475.0,531.0,0.0,0,284.0,1
1182,1182,0.5291195403762944,0.5,0.0,0.0,289.0,521.0,0.0,1,370.0,1
1183,1183,-0.6811572330730257,-0.7,1.0,0.0,418.0,757.0,0.0,0,205.0,1
1184,1184,-0.4630434240969035,-0.5,0.0,1.0,372.0,932.0,1.0,0,346.0,1
1185,1185,0.7014746860904942,0.7,1.0,1.0,313.0,527.0,1.0,1,260.0,1
1186,1186,-0.7910325510722205,-0.8,1.0,0.0,458.0,947.0,0.0,0,95.0,1
1187,1187,0.8070435923730365,0.8,1.0,1.0,456.0,981.0,1.0,1,43.0,1
1188,1188,-0.03759814352919888,-0.0,1.0,0.0,492.0,545.0,0.0,0,3963.0,1
1189,1189,0.1256535090684977,0.1,0.0,0.0,415.0,655.0,0.0,1,1310.0,1
1190,1190,0.5922772207880881,0.6,1.0,1.0,439.0,745.0,1.0,1,226.0,1
1191,1191,0.4398762766588854,0.4,1.0,1.0,402.0,883.0,1.0,1,145.0,1
1192,1192,0.4556254796247782,0.5,1.0,1.0,469.0,723.0,1.0,1,418.0,1
1193,1193,-0.3823919999987375,-0.4,0.0,1.0,272.0,620.0,1.0,0,678.0,1
1194,1194,0.13032057544370101,0.1,1.0,1.0,376.0,903.0,1.0,1,1591.0,1
1195,1195,-0.3198293591430834,-0.3,1.0,0.0,483.0,513.0,0.0,0,334.0,1
1196,1196,0.5169919378391751,0.5,1.0,1.0,264.0,669.0,1.0,1,787.0,1
1197,1197,0.6947219854535435,0.7,1.0,1.0,371.0,782.0,1.0,1,167.0,1
1198,1198,0.8002049589567598,0.8,0.0,0.0,302.0,903.0,0.0,1,295.0,1
1199,1199,0.5443304080992809,0.5,1.0,1.0,303.0,775.0,1.0,1,332.0,1
1200,1200,0.22548284492966364,0.2,0.0,0.0,294.0,925.0,0.0,1,881.0,1
1201,1201,0.8197971332782777,0.8,0.0,0.0,382.0,771.0,0.0,1,457.0,1
1202,1202,-0.29420060570809314,-0.3,1.0,0.0,400.0,689.0,0.0,0,581.0,1
1203,1203,-0.8957419745488975,-0.9,0.0,1.0,381.0,906.0,1.0,0,413.0,1
1204,1204,-0.8376489455889845,-0.8,0.0,1.0,401.0,554.0,1.0,0,85.0,1
1205,1205,-0.5127145443782405,-0.5,0.0,1.0,295.0,693.0,1.0,0,342.0,1
1206,1206,-0.2652837655623188,-0.3,1.0,0.0,430.0,615.0,0.0,0,215.0,1
1207,1207,-0.03817333452027216,-0.0,1.0,0.0,430.0,981.0,0.0,0,3589.0,1
1208,1208,-0.191425609099931,-0.2,0.0,1.0,313.0,728.0,1.0,0,1039.0,1
1209,1209,0.1722176195660653,0.2,0.0,0.0,375.0,718.0,0.0,1,1007.0,1
1210,1210,-0.14115037875939007,-0.1,0.0,1.0,319.0,885.0,1.0,0,1346.0,1
1211,1211,-0.8113838083017695,-0.8,1.0,0.0,273.0,702.0,0.0,0,135.0,1
1212,1212,0.37786392005870895,0.4,1.0,1.0,344.0,832.0,1.0,1,584.0,1
1213,1213,-0.49093419413388595,-0.5,0.0,1.0,470.0,980.0,1.0,0,390.0,1
1214,1214,-0.11814494955898502,-0.1,0.0,1.0,258.0,918.0,1.0,0,1504.0,1
1215,1215,-0.11220516285847015,-0.1,1.0,0.0,283.0,930.0,0.0,0,3787.0,1
1216,1216,0.1376692484978218,0.1,1.0,1.0,273.0,913.0,1.0,1,904.0,1
1217,1217,-0.649873626115768,-0.6,1.0,0.0,432.0,681.0,0.0,0,267.0,1
1218,1218,0.1339425749508899,0.1,0.0,0.0,431.0,688.0,0.0,1,2811.0,1
1219,1219,-0.13927443107134374,-0.1,0.0,1.0,406.0,854.0,1.0,0,2250.0,1
1220,1220,0.424207416958856,0.4,1.0,1.0,301.0,700.0,1.0,1,139.0,1
1221,1221,-0.4916111183028609,-0.5,1.0,0.0,292.0,505.0,0.0,0,643.0,1
1222,1222,-0.5742997149025513,-0.6,0.0,1.0,456.0,967.0,1.0,0,357.0,1
1223,1223,-0.7302301044701764,-0.7,0.0,1.0,391.0,954.0,1.0,0,275.0,1
1224,1224,0.8873312263417451,0.9,1.0,1.0,408.0,783.0,1.0,1,589.0,1
1225,1225,-0.13531144602504142,-0.1,0.0,1.0,399.0,904.0,1.0,0,3307.0,1
1226,1226,0.814271483107612,0.8,0.0,0.0,475.0,809.0,0.0,1,186.0,1
1227,1227,-0.5488204923155479,-0.5,1.0,0.0,339.0,655.0,0.0,0,236.0,1
1228,1228,0.06300528289726648,0.1,0.0,0.0,379.0,895.0,0.0,1,536.0,1
1229,1229,0.6872317314114688,0.7,1.0,1.0,443.0,863.0,1.0,1,174.0,1
1230,1230,0.08438969309477662,0.1,1.0,1.0,486.0,649.0,1.0,1,1315.0,1
1231,1231,0.0075506383714609715,0.0,0.0,0.0,396.0,628.0,0.0,1,3976.0,1
1232,1232,-0.13088209390516836,-0.1,1.0,0.0,420.0,709.0,0.0,0,1221.0,1
1233,1233,-0.27212303043278263,-0.3,0.0,1.0,393.0,771.0,0.0,1,66.0,0
1234,1234,0.571967222555447,0.6,0.0,0.0,397.0,604.0,0.0,1,279.0,1
1235,1235,-0.2097017348070901,-0.2,1.0,0.0,429.0,765.0,0.0,0,296.0,1
1236,1236,0.3267030349039587,0.3,0.0,0.0,287.0,897.0,0.0,1,676.0,1
1237,1237,-0.41564487845668835,-0.4,1.0,0.0,405.0,679.0,0.0,0,506.0,1
1238,1238,0.8928229898832288,0.9,1.0,1.0,328.0,662.0,1.0,1,480.0,1
1239,1239,-0.37447281606016825,-0.4,1.0,0.0,344.0,608.0,0.0,0,818.0,1
1240,1240,0.8025260113035174,0.8,0.0,0.0,463.0,754.0,0.0,1,203.0,1
1241,1241,0.502716616983594,0.5,1.0,1.0,383.0,825.0,0.0,0,-228.0,0
1242,1242,-0.17329892374642952,-0.2,0.0,1.0,273.0,702.0,1.0,0,1325.0,1
1243,1243,-0.45291053202786047,-0.5,1.0,0.0,379.0,537.0,0.0,0,144.0,1
1244,1244,-0.7226489597133354,-0.7,0.0,1.0,449.0,867.0,1.0,0,354.0,1
1245,1245,0.8838841090501725,0.9,1.0,1.0,370.0,882.0,1.0,1,138.0,1
1246,1246,0.48343885479883586,0.5,0.0,0.0,297.0,878.0,0.0,1,275.0,1
1247,1247,0.8350938997505798,0.8,0.0,0.0,263.0,611.0,0.0,1,186.0,1
1248,1248,-0.7368873618192943,-0.7,0.0,1.0,495.0,924.0,1.0,0,831.0,1
1249,1249,-0.21629930631041983,-0.2,0.0,1.0,295.0,998.0,1.0,0,767.0,1
1250,1250,0.7182028318079391,0.7,1.0,1.0,329.0,535.0,1.0,1,396.0,1
1251,1251,-0.5703235478610758,-0.6,1.0,0.0,257.0,508.0,0.0,0,285.0,1
1252,1252,-0.15488976446661495,-0.2,1.0,0.0,346.0,504.0,0.0,0,580.0,1
1253,1253,0.29415319045046695,0.3,1.0,1.0,366.0,701.0,1.0,1,793.0,1
1254,1254,-0.06644872705552063,-0.1,1.0,0.0,326.0,675.0,0.0,0,409.0,1
1255,1255,-0.25186611270983006,-0.3,1.0,0.0,425.0,977.0,0.0,0,538.0,1
1256,1256,-0.5170220957839634,-0.5,0.0,1.0,333.0,728.0,1.0,0,629.0,1
1257,1257,-0.6862230424155611,-0.7,1.0,0.0,348.0,655.0,0.0,0,267.0,1
1258,1258,0.4078705119093152,0.4,0.0,0.0,253.0,878.0,0.0,1,309.0,1
1259,1259,-0.8436338243847061,-0.8,1.0,0.0,261.0,560.0,0.0,0,199.0,1
1260,1260,0.5524736620229614,0.6,0.0,0.0,431.0,729.0,0.0,1,180.0,1
1261,1261,0.06374662675630838,0.1,0.0,0.0,323.0,536.0,0.0,1,1701.0,1
1262,1262,0.06995383708970482,0.1,1.0,1.0,452.0,719.0,1.0,1,3829.0,1
1263,1263,0.8350379485134299,0.8,0.0,0.0,446.0,632.0,0.0,1,82.0,1
1264,1264,-0.24696191298998305,-0.2,0.0,1.0,352.0,839.0,1.0,0,2599.0,1
1265,1265,-0.33697986504839994,-0.3,0.0,1.0,423.0,536.0,1.0,0,491.0,1
1266,1266,0.15498746907861094,0.2,0.0,0.0,309.0,669.0,0.0,1,1012.0,1
1267,1267,-0.31004513084562557,-0.3,0.0,1.0,463.0,688.0,1.0,0,649.0,1
1268,1268,0.4838942380463248,0.5,1.0,1.0,254.0,534.0,1.0,1,452.0,1
1269,1269,-0.1684982454956725,-0.2,0.0,1.0,305.0,564.0,1.0,0,4131.0,1
1270,1270,0.6952547968849184,0.7,1.0,1.0,297.0,713.0,1.0,1,130.0,1
1271,1271,0.11228777993269856,0.1,1.0,1.0,371.0,638.0,1.0,1,1421.0,1
1272,1272,0.7162492170064801,0.7,0.0,0.0,331.0,608.0,0.0,1,201.0,1
1273,1273,0.7917196945487702,0.8,1.0,1.0,392.0,983.0,1.0,1,545.0,1
1274,1274,0.2810411321094505,0.3,1.0,1.0,391.0,819.0,1.0,1,1740.0,1
1275,1275,0.6835938342410696,0.7,1.0,1.0,443.0,894.0,1.0,1,173.0,1
1276,1276,0.7665449744131875,0.8,1.0,1.0,434.0,773.0,1.0,1,283.0,1
1277,1277,-0.5398399966289862,-0.5,0.0,1.0,282.0,532.0,1.0,0,866.0,1
1278,1278,-0.3790454472394419,-0.4,1.0,0.0,253.0,561.0,0.0,0,186.0,1
1279,1279,0.3309353018623785,0.3,0.0,0.0,342.0,688.0,0.0,1,160.0,1
1280,1280,0.7045395004645693,0.7,0.0,0.0,382.0,523.0,0.0,1,385.0,1
1281,1281,-0.12479109824544832,-0.1,1.0,0.0,461.0,522.0,0.0,0,497.0,1
1282,1282,0.1945582107131244,0.2,0.0,0.0,276.0,983.0,0.0,1,1811.0,1
1283,1283,-0.8134812090555716,-0.8,0.0,1.0,484.0,798.0,1.0,0,398.0,1
1284,1284,0.20549044600561162,0.2,1.0,1.0,366.0,745.0,1.0,1,959.0,1
1285,1285,0.8090672241184099,0.8,1.0,1.0,320.0,552.0,1.0,1,358.0,1
1286,1286,0.7502126747459951,0.8,1.0,1.0,347.0,897.0,0.0,0,-144.0,0
1287,1287,0.8499793638246907,0.8,0.0,0.0,461.0,888.0,0.0,1,91.0,1
1288,1288,-0.5400103831876386,-0.5,1.0,0.0,407.0,744.0,0.0,0,149.0,1
1289,1289,-0.2580930206949429,-0.3,1.0,0.0,443.0,862.0,0.0,0,735.0,1
1290,1290,-0.24298768906862167,-0.2,1.0,0.0,253.0,738.0,0.0,0,1019.0,1
1291,1291,0.02003461985673105,0.0,1.0,1.0,276.0,673.0,0.0,0,601.0,0
1292,1292,0.5765273320532344,0.6,0.0,0.0,339.0,788.0,0.0,1,163.0,1
1293,1293,0.4968991371797927,0.5,1.0,1.0,386.0,909.0,1.0,1,475.0,1
1294,1294,0.5986470597258507,0.6,0.0,0.0,347.0,613.0,0.0,1,390.0,1
1295,1295,0.826192344207212,0.8,1.0,1.0,389.0,706.0,0.0,0,-375.0,0
1296,1296,-0.743889028141321,-0.7,0.0,1.0,290.0,799.0,1.0,0,251.0,1
1297,1297,0.1426997335700516,0.1,1.0,1.0,418.0,594.0,1.0,1,2018.0,1
1298,1298,0.36971079715468036,0.4,0.0,0.0,420.0,748.0,0.0,1,532.0,1
1299,1299,-0.5920088032774988,-0.6,1.0,0.0,318.0,529.0,0.0,0,293.0,1
1300,1300,-0.16617940404671827,-0.2,1.0,0.0,410.0,981.0,0.0,0,1799.0,1
1301,1301,0.15795236457655715,0.2,0.0,0.0,349.0,857.0,0.0,1,-56.0,1
1302,1302,0.8511136887476672,0.9,1.0,1.0,271.0,904.0,1.0,1,175.0,1
1303,1303,0.7093771826645682,0.7,1.0,1.0,441.0,928.0,1.0,1,281.0,1
1304,1304,0.664410013933013,0.7,0.0,0.0,342.0,787.0,0.0,1,291.0,1
1305,1305,-0.8559731154424128,-0.9,0.0,1.0,373.0,722.0,1.0,0,515.0,1
1306,1306,0.8254420487177746,0.8,0.0,0.0,324.0,763.0,0.0,1,133.0,1
1307,1307,0.6164769104639299,0.6,0.0,0.0,331.0,803.0,0.0,1,246.0,1
1308,1308,0.45355722788199826,0.5,1.0,1.0,413.0,793.0,1.0,1,364.0,1
1309,1309,-0.2223852529576189,-0.2,0.0,1.0,378.0,913.0,1.0,0,899.0,1
1310,1310,0.32168219320360414,0.3,1.0,1.0,393.0,679.0,1.0,1,768.0,1
1311,1311,-0.813626386382862,-0.8,1.0,0.0,399.0,994.0,0.0,0,267.0,1
1312,1312,0.2635194852204986,0.3,1.0,1.0,271.0,530.0,1.0,1,939.0,1
1313,1313,0.4735914993597984,0.5,0.0,0.0,268.0,658.0,0.0,1,534.0,1
1314,1314,0.15066589196390068,0.2,1.0,1.0,293.0,620.0,1.0,1,477.0,1
1315,1315,0.1299886340566635,0.1,1.0,1.0,486.0,772.0,1.0,1,542.0,1
1316,1316,0.09830927561507874,0.1,1.0,1.0,432.0,804.0,1.0,1,3764.0,1
1317,1317,-0.5120009710131648,-0.5,0.0,1.0,351.0,545.0,1.0,0,434.0,1
1318,1318,-0.22269151380053498,-0.2,1.0,0.0,257.0,865.0,0.0,0,828.0,1
1319,1319,0.865578159875298,0.9,1.0,1.0,266.0,707.0,1.0,1,177.0,1
1320,1320,0.3209688809546555,0.3,1.0,1.0,315.0,811.0,1.0,1,84.0,1
1321,1321,0.8010245535065693,0.8,0.0,0.0,330.0,803.0,0.0,1,117.0,1
1322,1322,-0.08591021260722564,-0.1,1.0,0.0,438.0,507.0,0.0,0,4055.0,1
1323,1323,0.49390974757126493,0.5,1.0,1.0,362.0,984.0,1.0,1,354.0,1
1324,1324,-0.6982001238634122,-0.7,1.0,0.0,422.0,847.0,0.0,0,161.0,1
1325,1325,-0.8971254400378119,-0.9,1.0,0.0,357.0,857.0,0.0,0,136.0,1
1326,1326,0.2893126032512833,0.3,1.0,1.0,484.0,745.0,1.0,1,131.0,1
1327,1327,-0.6193200124163989,-0.6,1.0,0.0,303.0,776.0,0.0,0,261.0,1
1328,1328,0.03486921987705882,0.0,0.0,0.0,378.0,628.0,0.0,1,2004.0,1
1329,1329,-0.19946640704168672,-0.2,0.0,1.0,344.0,961.0,1.0,0,925.0,1
1330,1330,0.6391499965321347,0.6,0.0,0.0,365.0,878.0,0.0,1,267.0,1
1331,1331,-0.4821201706877773,-0.5,0.0,1.0,376.0,912.0,1.0,0,522.0,1
1332,1332,-0.11241026050980518,-0.1,1.0,0.0,328.0,982.0,0.0,0,300.0,1
1333,1333,-0.483266315279282,-0.5,1.0,0.0,435.0,781.0,0.0,0,264.0,1
1334,1334,0.33238380055020966,0.3,0.0,0.0,434.0,661.0,0.0,1,355.0,1
1335,1335,-0.8821479811403148,-0.9,0.0,1.0,464.0,840.0,1.0,0,196.0,1
1336,1336,0.4089892923276678,0.4,1.0,1.0,429.0,935.0,1.0,1,366.0,1
1337,1337,-0.7132836057037909,-0.7,1.0,0.0,323.0,776.0,0.0,0,271.0,1
1338,1338,0.8296602685077651,0.8,0.0,0.0,474.0,747.0,0.0,1,149.0,1
1339,1339,0.22859078524949406,0.2,0.0,0.0,449.0,636.0,0.0,1,185.0,1
1340,1340,0.26931157647163617,0.3,0.0,0.0,343.0,645.0,0.0,1,322.0,1
1341,1341,0.3157335725432385,0.3,1.0,1.0,315.0,850.0,1.0,1,645.0,1
1342,1342,0.2039375390274668,0.2,1.0,1.0,261.0,758.0,1.0,1,811.0,1
1343,1343,-0.18783773359846356,-0.2,1.0,0.0,263.0,751.0,0.0,0,1046.0,1
1344,1344,-0.21006867810055596,-0.2,0.0,1.0,347.0,856.0,1.0,0,967.0,1
1345,1345,-0.3291079807500945,-0.3,1.0,0.0,267.0,783.0,0.0,0,480.0,1
1346,1346,0.8334802457818776,0.8,1.0,1.0,412.0,575.0,1.0,1,323.0,1
1347,1347,-0.05965178360615486,-0.1,1.0,0.0,262.0,597.0,0.0,0,4141.0,1
1348,1348,0.6963377570882053,0.7,0.0,0.0,389.0,615.0,0.0,1,116.0,1
1349,1349,0.5874352934888,0.6,0.0,0.0,488.0,936.0,0.0,1,266.0,1
1350,1350,0.7993114175703347,0.8,1.0,1.0,293.0,975.0,1.0,1,2.0,1
1351,1351,-0.07818286267018493,-0.1,0.0,1.0,331.0,651.0,0.0,1,4018.0,0
1352,1352,0.8424774981980195,0.8,1.0,1.0,396.0,520.0,1.0,1,104.0,1
1353,1353,0.575635229151518,0.6,1.0,1.0,284.0,919.0,1.0,1,207.0,1
1354,1354,-0.06655777513809114,-0.1,0.0,1.0,496.0,980.0,0.0,1,3524.0,0
1355,1355,0.35989055936152703,0.4,1.0,1.0,458.0,500.0,1.0,1,422.0,1
1356,1356,-0.300070873143652,-0.3,0.0,1.0,460.0,781.0,1.0,0,329.0,1
1357,1357,-0.720126250813379,-0.7,0.0,1.0,424.0,810.0,1.0,0,176.0,1
1358,1358,0.2198100943803688,0.2,0.0,0.0,432.0,680.0,0.0,1,948.0,1
1359,1359,-0.038789166861897595,-0.0,1.0,0.0,297.0,848.0,0.0,0,385.0,1
1360,1360,-0.7895286840271208,-0.8,0.0,1.0,467.0,680.0,1.0,0,243.0,1
1361,1361,-0.4089616227275926,-0.4,1.0,0.0,257.0,870.0,0.0,0,223.0,1
1362,1362,-0.6948490843144911,-0.7,1.0,0.0,361.0,522.0,0.0,0,147.0,1
1363,1363,-0.8841007899919316,-0.9,0.0,1.0,456.0,804.0,1.0,0,240.0,1
1364,1364,0.5030929355780039,0.5,1.0,1.0,431.0,952.0,1.0,1,337.0,1
1365,1365,-0.5135611631488766,-0.5,0.0,1.0,328.0,943.0,1.0,0,449.0,1
1366,1366,0.3871586727906272,0.4,1.0,1.0,479.0,700.0,1.0,1,511.0,1
1367,1367,0.032256050263255065,0.0,1.0,1.0,378.0,916.0,1.0,1,1346.0,1
1368,1368,-0.5988550408312396,-0.6,1.0,0.0,301.0,704.0,0.0,0,295.0,1
1369,1369,-0.5720760534849311,-0.6,1.0,0.0,254.0,911.0,0.0,0,415.0,1
1370,1370,-0.568680762415815,-0.6,1.0,0.0,390.0,767.0,0.0,0,93.0,1
1371,1371,-0.6371035818472977,-0.6,0.0,1.0,281.0,676.0,1.0,0,593.0,1
1372,1372,0.6342503690533053,0.6,0.0,0.0,367.0,744.0,0.0,1,219.0,1
1373,1373,-0.5064098315772811,-0.5,1.0,0.0,296.0,567.0,0.0,0,397.0,1
1374,1374,0.389515042779668,0.4,0.0,0.0,491.0,895.0,0.0,1,214.0,1
1375,1375,-0.6525268267637793,-0.7,1.0,0.0,319.0,880.0,0.0,0,181.0,1
1376,1376,-0.6228112823019218,-0.6,0.0,1.0,251.0,693.0,1.0,0,186.0,1
1377,1377,0.19015222375264818,0.2,1.0,1.0,277.0,972.0,1.0,1,1121.0,1
1378,1378,-0.8266903446163184,-0.8,1.0,0.0,311.0,851.0,0.0,0,178.0,1
1379,1379,-0.18071450024750446,-0.2,0.0,1.0,339.0,778.0,1.0,0,1973.0,1
1380,1380,0.48409551911076665,0.5,1.0,1.0,317.0,967.0,1.0,1,366.0,1
1381,1381,0.7745776043611087,0.8,1.0,1.0,467.0,688.0,1.0,1,1325.0,1
1382,1382,-0.5832800477935886,-0.6,1.0,0.0,319.0,840.0,0.0,0,151.0,1
1383,1383,0.7682553089064216,0.8,1.0,1.0,296.0,838.0,1.0,1,346.0,1
1384,1384,0.7463767353301202,0.7,1.0,1.0,432.0,700.0,1.0,1,158.0,1
1385,1385,-0.5444280729091073,-0.5,1.0,0.0,358.0,804.0,0.0,0,238.0,1
1386,1386,0.30857417839681,0.3,0.0,0.0,476.0,981.0,0.0,1,303.0,1
1387,1387,-0.3416463292807165,-0.3,1.0,0.0,451.0,850.0,0.0,0,139.0,1
1388,1388,0.8127834144568628,0.8,1.0,1.0,418.0,872.0,1.0,1,290.0,1
1389,1389,-0.7421320961870814,-0.7,0.0,1.0,359.0,649.0,1.0,0,312.0,1
1390,1390,-0.42351874732867734,-0.4,1.0,0.0,375.0,992.0,0.0,0,333.0,1
1391,1391,0.8146196519140761,0.8,0.0,0.0,308.0,575.0,0.0,1,287.0,1
1392,1392,-0.2979361162988632,-0.3,0.0,1.0,453.0,765.0,1.0,0,2132.0,1
1393,1393,-0.15889753048011268,-0.2,0.0,1.0,327.0,564.0,1.0,0,209.0,1
1394,1394,-0.09250345250382375,-0.1,0.0,1.0,467.0,971.0,1.0,0,3562.0,1
1395,1395,-0.7875426783389837,-0.8,0.0,1.0,466.0,528.0,1.0,0,226.0,1
1396,1396,-0.09213140536549447,-0.1,0.0,1.0,370.0,977.0,1.0,0,2873.0,1
1397,1397,0.6953661628821862,0.7,1.0,1.0,326.0,709.0,1.0,1,345.0,1
1398,1398,-0.41520180315679595,-0.4,1.0,0.0,412.0,646.0,0.0,0,532.0,1
1399,1399,0.7608575822811542,0.8,0.0,0.0,338.0,846.0,0.0,1,116.0,1
1400,1400,-0.10563946669710222,-0.1,1.0,0.0,457.0,705.0,0.0,0,1068.0,1
1401,1401,0.7169268182955638,0.7,0.0,0.0,277.0,557.0,0.0,1,426.0,1
1402,1402,-0.36920450779793557,-0.4,1.0,0.0,342.0,523.0,0.0,0,315.0,1
1403,1403,0.34319236527426733,0.3,0.0,0.0,402.0,701.0,0.0,1,327.0,1
1404,1404,-0.6162911892839935,-0.6,0.0,1.0,260.0,509.0,1.0,0,191.0,1
1405,1405,0.346322323926857,0.3,1.0,1.0,393.0,998.0,1.0,1,229.0,1
1406,1406,-0.15413829558986403,-0.2,0.0,1.0,258.0,964.0,1.0,0,598.0,1
1407,1407,-0.05565194025730391,-0.1,0.0,1.0,409.0,630.0,1.0,0,3961.0,1
1408,1408,0.8816296303787302,0.9,1.0,1.0,255.0,514.0,1.0,1,151.0,1
1409,1409,0.04145015525221507,0.0,0.0,0.0,295.0,950.0,0.0,1,3065.0,1
1410,1410,-0.24764880516863064,-0.2,0.0,1.0,265.0,966.0,1.0,0,359.0,1
1411,1411,0.1536112429243911,0.2,0.0,0.0,439.0,973.0,0.0,1,118.0,1
1412,1412,-0.7950010829826116,-0.8,1.0,0.0,401.0,517.0,0.0,0,222.0,1
1413,1413,0.5667418745980163,0.6,0.0,0.0,294.0,626.0,0.0,1,180.0,1
1414,1414,-0.4747248013153326,-0.5,1.0,0.0,378.0,693.0,0.0,0,229.0,1
1415,1415,0.7326697469678171,0.7,0.0,0.0,305.0,817.0,0.0,1,268.0,1
1416,1416,0.7996155152160339,0.8,0.0,0.0,302.0,592.0,0.0,1,246.0,1
1417,1417,0.08143483719043831,0.1,0.0,0.0,359.0,677.0,0.0,1,3964.0,1
1418,1418,-0.3069274506676296,-0.3,1.0,0.0,271.0,929.0,0.0,0,670.0,1
1419,1419,0.3541976357088735,0.4,1.0,1.0,319.0,531.0,1.0,1,510.0,1
1420,1420,-0.30878743300473166,-0.3,1.0,0.0,312.0,786.0,0.0,0,372.0,1
1421,1421,0.7518460279320004,0.8,1.0,1.0,422.0,907.0,1.0,1,261.0,1
1422,1422,-0.588906206190535,-0.6,0.0,1.0,364.0,528.0,1.0,0,388.0,1
1423,1423,-0.542027306444987,-0.5,1.0,0.0,286.0,911.0,0.0,0,73.0,1
1424,1424,0.40216163956445194,0.4,0.0,0.0,474.0,901.0,0.0,1,345.0,1
1425,1425,0.18957020893069576,0.2,1.0,1.0,340.0,992.0,1.0,1,448.0,1
1426,1426,0.8628570433897523,0.9,1.0,1.0,324.0,544.0,1.0,1,242.0,1
1427,1427,0.08527604202308314,0.1,1.0,1.0,474.0,636.0,1.0,1,1110.0,1
1428,1428,-0.8046716248213672,-0.8,0.0,1.0,407.0,614.0,1.0,0,499.0,1
1429,1429,-0.4203052172910153,-0.4,0.0,1.0,367.0,995.0,1.0,0,408.0,1
1430,1430,0.8414837049158409,0.8,0.0,0.0,456.0,844.0,0.0,1,160.0,1
1431,1431,-0.5214622853144695,-0.5,0.0,1.0,291.0,598.0,1.0,0,221.0,1
1432,1432,0.5563378541608818,0.6,0.0,0.0,385.0,942.0,0.0,1,153.0,1
1433,1433,0.3430550939629443,0.3,1.0,1.0,462.0,992.0,1.0,1,406.0,1
1434,1434,0.00795632547392,0.0,1.0,1.0,321.0,945.0,0.0,0,3734.0,0
1435,1435,-0.2469746374555144,-0.2,1.0,0.0,463.0,620.0,0.0,0,297.0,1
1436,1436,0.5466608744296707,0.5,0.0,0.0,271.0,949.0,0.0,1,270.0,1
1437,1437,0.2982345957022262,0.3,0.0,0.0,418.0,833.0,0.0,1,859.0,1
1438,1438,0.36619413398752954,0.4,1.0,1.0,272.0,740.0,1.0,1,238.0,1
1439,1439,-0.7713408398565103,-0.8,0.0,1.0,332.0,696.0,1.0,0,282.0,1
1440,1440,-0.2713186788712231,-0.3,1.0,0.0,310.0,944.0,0.0,0,146.0,1
1441,1441,0.6375945130363599,0.6,1.0,1.0,423.0,506.0,1.0,1,161.0,1
1442,1442,-0.3916876692471728,-0.4,0.0,1.0,439.0,524.0,1.0,0,937.0,1
1443,1443,0.25732998387656647,0.3,0.0,0.0,268.0,821.0,0.0,1,81.0,1
1444,1444,0.45353353386693496,0.5,0.0,0.0,486.0,786.0,0.0,1,408.0,1
1445,1445,0.8328168104376218,0.8,0.0,0.0,277.0,825.0,0.0,1,358.0,1
1446,1446,0.03789850657103977,0.0,1.0,1.0,280.0,763.0,1.0,1,1857.0,1
1447,1447,0.5574729729736946,0.6,0.0,0.0,265.0,828.0,0.0,1,7.0,1
1448,1448,0.6852796276993453,0.7,1.0,1.0,314.0,659.0,1.0,1,497.0,1
1449,1449,0.10152158326102534,0.1,0.0,0.0,436.0,574.0,0.0,1,1010.0,1
1450,1450,-0.8273201596065967,-0.8,0.0,1.0,482.0,825.0,1.0,0,353.0,1
1451,1451,0.008463407785618937,0.0,0.0,0.0,488.0,968.0,0.0,1,1754.0,1
1452,1452,0.7330568724585472,0.7,0.0,0.0,264.0,633.0,0.0,1,163.0,1
1453,1453,0.17580621517881145,0.2,1.0,1.0,418.0,640.0,1.0,1,1242.0,1
1454,1454,0.46695905394629544,0.5,1.0,1.0,466.0,962.0,1.0,1,122.0,1
1455,1455,0.39591467813390746,0.4,1.0,1.0,455.0,571.0,1.0,1,304.0,1
1456,1456,0.8146316317082628,0.8,0.0,0.0,391.0,625.0,0.0,1,134.0,1
1457,1457,0.8764893335751499,0.9,0.0,0.0,322.0,534.0,0.0,1,24.0,1
1458,1458,-0.46567202803816493,-0.5,0.0,1.0,450.0,843.0,1.0,0,1097.0,1
1459,1459,-0.5526547920023416,-0.6,1.0,0.0,351.0,668.0,0.0,0,151.0,1
1460,1460,0.7804667476290209,0.8,1.0,1.0,251.0,886.0,1.0,1,193.0,1
1461,1461,0.3503176523504389,0.4,0.0,0.0,330.0,718.0,0.0,1,42.0,1
1462,1462,0.20782388864775958,0.2,1.0,1.0,300.0,999.0,1.0,1,-309.0,1
1463,1463,-0.6571628426049028,-0.7,1.0,0.0,441.0,911.0,1.0,1,-282.0,0
1464,1464,0.7939445866810025,0.8,0.0,0.0,342.0,729.0,0.0,1,279.0,1
1465,1465,-0.634740916220845,-0.6,1.0,0.0,472.0,807.0,0.0,0,201.0,1
1466,1466,0.13164486745828297,0.1,0.0,0.0,329.0,809.0,0.0,1,172.0,1
1467,1467,-0.41545849795989326,-0.4,0.0,1.0,290.0,757.0,1.0,0,453.0,1
1468,1468,-0.7248244378212422,-0.7,0.0,1.0,412.0,874.0,1.0,0,334.0,1
1469,1469,0.10291928415665763,0.1,1.0,1.0,457.0,972.0,1.0,1,1251.0,1
1470,1470,-0.5107236467004161,-0.5,1.0,0.0,445.0,983.0,0.0,0,122.0,1
1471,1471,0.05145147804206607,0.1,1.0,1.0,427.0,798.0,1.0,1,1455.0,1
1472,1472,0.30364623833641813,0.3,0.0,0.0,267.0,761.0,0.0,1,-108.0,1
1473,1473,-0.4318585376619494,-0.4,0.0,1.0,454.0,651.0,1.0,0,625.0,1
1474,1474,0.7516987507836498,0.8,1.0,1.0,424.0,672.0,1.0,1,74.0,1
1475,1475,0.39383075863968087,0.4,1.0,1.0,482.0,690.0,1.0,1,438.0,1
1476,1476,0.5759521653668641,0.6,1.0,1.0,422.0,851.0,1.0,1,287.0,1
1477,1477,-0.008917811580629986,-0.0,0.0,1.0,310.0,881.0,1.0,0,1089.0,1
1478,1478,0.8786819900146304,0.9,0.0,0.0,375.0,825.0,0.0,1,180.0,1
1479,1479,-0.36385114005013286,-0.4,1.0,0.0,267.0,737.0,0.0,0,276.0,1
1480,1480,-0.3607010519721825,-0.4,0.0,1.0,425.0,506.0,1.0,0,449.0,1
1481,1481,-0.37118309286295836,-0.4,0.0,1.0,470.0,968.0,1.0,0,632.0,1
1482,1482,0.5167166335420322,0.5,1.0,1.0,480.0,551.0,1.0,1,569.0,1
1483,1483,0.561308110068692,0.6,1.0,1.0,389.0,877.0,1.0,1,234.0,1
1484,1484,-0.2796891898974957,-0.3,0.0,1.0,264.0,713.0,1.0,0,1063.0,1
1485,1485,0.01171771986028558,0.0,1.0,1.0,473.0,816.0,1.0,1,3711.0,1
1486,1486,0.10865867377815974,0.1,1.0,1.0,341.0,885.0,1.0,1,1744.0,1
1487,1487,0.5404929560768187,0.5,1.0,1.0,471.0,940.0,1.0,1,199.0,1
1488,1488,0.11958823170590105,0.1,1.0,1.0,426.0,559.0,1.0,1,4015.0,1
1489,1489,0.3665697452764548,0.4,1.0,1.0,442.0,561.0,1.0,1,467.0,1
