,trial,coherence,coherence_bin,green_side,correct_side,target_onset,checker_onset,decision,green_decision,decision_time,correct_decision
0,0,0.7185112345080925,0.7,1.0,1.0,381.0,688.0,0.0,0,1931.0,0
1,1,-0.4257564561593062,-0.4,0.0,1.0,355.0,626.0,0.0,1,2019.0,0
2,2,0.3970620135636639,0.4,0.0,0.0,278.0,660.0,0.0,1,2062.0,1
3,3,0.07312899296421616,0.1,0.0,0.0,366.0,624.0,0.0,1,2010.0,1
4,4,-0.3952060142631638,-0.4,0.0,1.0,383.0,880.0,0.0,1,1737.0,0
5,5,0.24815001518213486,0.2,0.0,0.0,498.0,619.0,0.0,1,1883.0,1
6,6,-0.20520113496980896,-0.2,0.0,1.0,263.0,610.0,0.0,1,2127.0,0
7,7,0.49042799829726247,0.5,0.0,0.0,262.0,831.0,0.0,1,1907.0,1
8,8,-0.025524462721357,-0.0,1.0,0.0,363.0,530.0,0.0,0,2107.0,1
9,9,-0.8530610579191118,-0.9,1.0,0.0,499.0,556.0,0.0,0,1945.0,1
10,10,-0.28727094022461463,-0.3,0.0,1.0,431.0,897.0,0.0,1,1672.0,0
11,11,-0.044602565180713705,-0.0,1.0,0.0,368.0,772.0,0.0,0,1860.0,1
12,12,0.25151485772756377,0.3,0.0,0.0,358.0,991.0,0.0,1,1651.0,1
13,13,-0.7635185383267677,-0.8,0.0,1.0,495.0,605.0,0.0,1,1900.0,0
14,14,-0.8082031192452787,-0.8,0.0,1.0,427.0,707.0,0.0,1,1866.0,0
15,15,-0.8625463626315006,-0.9,0.0,1.0,257.0,748.0,0.0,1,1995.0,0
16,16,-0.5016473410682215,-0.5,1.0,0.0,258.0,601.0,0.0,0,2141.0,1
17,17,-0.21379189416389566,-0.2,0.0,1.0,436.0,938.0,0.0,1,1626.0,0
18,18,-0.021352471477115498,-0.0,1.0,0.0,270.0,948.0,0.0,0,1782.0,1
19,19,-0.11758629179293156,-0.1,0.0,1.0,419.0,804.0,0.0,1,1777.0,0
20,20,-0.06992972086441229,-0.1,1.0,0.0,455.0,693.0,0.0,0,-1148.0,1
21,21,0.4459422209306082,0.4,0.0,0.0,424.0,541.0,0.0,1,2035.0,1
22,22,0.04653456348510787,0.0,0.0,0.0,309.0,956.0,0.0,1,1735.0,1
23,23,0.24865270907728887,0.2,0.0,0.0,355.0,504.0,0.0,1,2141.0,1
24,24,0.004366081691590473,0.0,1.0,1.0,460.0,663.0,1.0,1,-1083.0,1
25,25,0.6699181066818017,0.7,1.0,1.0,443.0,775.0,0.0,0,1782.0,0
26,26,0.2342635797684841,0.2,0.0,0.0,280.0,718.0,0.0,1,2002.0,1
27,27,0.0842595829215097,0.1,0.0,0.0,337.0,620.0,0.0,1,2043.0,1
28,28,0.1933491584242989,0.2,0.0,0.0,291.0,983.0,0.0,1,1726.0,1
29,29,-0.15478212986472561,-0.2,1.0,0.0,438.0,563.0,0.0,0,1999.0,1
30,30,-0.5806090791361891,-0.6,0.0,1.0,489.0,679.0,0.0,1,1832.0,0
31,31,0.6129940422569385,0.6,0.0,0.0,460.0,508.0,0.0,1,2032.0,1
32,32,-0.7025727095150677,-0.7,1.0,0.0,369.0,863.0,0.0,0,1768.0,1
33,33,0.8116023615098865,0.8,0.0,0.0,306.0,955.0,0.0,1,1739.0,1
34,34,0.23971059358685942,0.2,0.0,0.0,485.0,959.0,0.0,1,1556.0,1
35,35,0.7795130155488904,0.8,0.0,0.0,316.0,584.0,0.0,1,2100.0,1
36,36,0.5788387899483073,0.6,1.0,1.0,326.0,955.0,0.0,0,1719.0,0
37,37,0.5318510436672378,0.5,1.0,1.0,403.0,971.0,0.0,0,1626.0,0
38,38,0.8503769122478525,0.9,0.0,0.0,339.0,934.0,0.0,1,1727.0,1
39,39,0.10307134645049365,0.1,0.0,0.0,468.0,702.0,0.0,1,1830.0,1
40,40,-0.2725311390337586,-0.3,0.0,1.0,268.0,921.0,0.0,1,1811.0,0
41,41,-0.5643934585492081,-0.6,0.0,1.0,253.0,839.0,0.0,1,1908.0,0
42,42,-0.8009076273649304,-0.8,0.0,1.0,471.0,629.0,0.0,1,1900.0,0
43,43,0.24458215610704748,0.2,0.0,0.0,476.0,505.0,0.0,1,2019.0,1
44,44,0.04939090397056778,0.0,1.0,1.0,256.0,937.0,0.0,0,1807.0,0
45,45,0.7215895539117846,0.7,1.0,1.0,355.0,629.0,0.0,0,2016.0,0
46,46,-0.13068910126699584,-0.1,1.0,0.0,300.0,816.0,0.0,0,1884.0,1
47,47,0.09364392126917687,0.1,0.0,0.0,271.0,547.0,0.0,1,2182.0,1
48,48,0.10218837562834093,0.1,0.0,0.0,499.0,516.0,0.0,1,1985.0,1
49,49,-0.3331553416053563,-0.3,1.0,0.0,469.0,850.0,0.0,0,1681.0,1
50,50,-0.6567847043337742,-0.7,1.0,0.0,352.0,740.0,0.0,0,1908.0,1
51,51,0.7833245551821325,0.8,1.0,1.0,460.0,651.0,0.0,0,1889.0,0
52,52,-0.17367152958628485,-0.2,0.0,1.0,470.0,970.0,0.0,1,1560.0,0
53,53,0.3475442740939173,0.3,0.0,0.0,481.0,952.0,0.0,1,1567.0,1
54,54,-0.6255796310990915,-0.6,0.0,1.0,320.0,948.0,0.0,1,-1218.0,0
55,55,-0.711219368161519,-0.7,0.0,1.0,390.0,508.0,0.0,1,2102.0,0
56,56,-0.48887842226091816,-0.5,0.0,1.0,484.0,762.0,0.0,1,1754.0,0
57,57,0.8982469879257174,0.9,1.0,1.0,376.0,773.0,0.0,0,1851.0,0
58,58,-0.11522311861695034,-0.1,1.0,0.0,313.0,941.0,0.0,0,1746.0,1
59,59,0.8604991800988592,0.9,1.0,1.0,426.0,564.0,1.0,1,-950.0,1
60,60,0.6471523502961652,0.6,0.0,0.0,430.0,989.0,0.0,1,1581.0,1
61,61,-0.6536650277950182,-0.7,0.0,1.0,318.0,973.0,0.0,1,1709.0,0
62,62,-0.47048857912316877,-0.5,0.0,1.0,363.0,899.0,0.0,1,1738.0,0
63,63,-0.49618156069773145,-0.5,0.0,1.0,349.0,773.0,0.0,1,1878.0,0
64,64,-0.2443167554688297,-0.2,1.0,0.0,317.0,707.0,1.0,1,-794.0,0
65,65,0.5684761658331373,0.6,0.0,0.0,474.0,794.0,0.0,1,1732.0,1
66,66,-0.0851076252517452,-0.1,1.0,0.0,342.0,916.0,0.0,0,1742.0,1
67,67,0.8690379026418577,0.9,0.0,0.0,358.0,723.0,0.0,1,1919.0,1
68,68,-0.03899538184308304,-0.0,0.0,1.0,352.0,985.0,0.0,1,1663.0,0
69,69,0.7400134445739498,0.7,0.0,0.0,268.0,564.0,0.0,1,2168.0,1
70,70,0.2615010278286499,0.3,0.0,0.0,427.0,773.0,0.0,1,1800.0,1
71,71,-0.14146092220972162,-0.1,1.0,0.0,319.0,992.0,0.0,0,1689.0,1
72,72,0.8814117651797152,0.9,1.0,1.0,400.0,530.0,0.0,0,2070.0,0
73,73,0.7578488381127918,0.8,1.0,1.0,350.0,948.0,0.0,0,1702.0,0
74,74,-0.7704719826459434,-0.8,0.0,1.0,496.0,953.0,0.0,1,1551.0,0
75,75,0.7445297021144354,0.7,0.0,0.0,389.0,747.0,0.0,1,1864.0,1
76,76,-0.09255152888447227,-0.1,1.0,0.0,312.0,641.0,0.0,0,2047.0,1
77,77,0.43319475170843547,0.4,1.0,1.0,476.0,625.0,0.0,0,1899.0,0
78,78,0.8572154161901969,0.9,1.0,1.0,362.0,869.0,0.0,0,1769.0,0
79,79,-0.24651886446044569,-0.2,0.0,1.0,382.0,831.0,0.0,1,1787.0,0
80,80,-0.6240296322451448,-0.6,1.0,0.0,400.0,624.0,1.0,1,-964.0,0
81,81,0.7788009264598287,0.8,1.0,1.0,439.0,755.0,0.0,0,1806.0,0
82,82,0.0027481241179703186,0.0,0.0,0.0,424.0,793.0,0.0,1,1783.0,1
83,83,-0.37097114726522806,-0.4,0.0,1.0,272.0,529.0,0.0,1,2199.0,0
84,84,-0.787538215626757,-0.8,1.0,0.0,259.0,963.0,0.0,0,1778.0,1
85,85,-0.42748014012377233,-0.4,0.0,1.0,338.0,568.0,0.0,1,2094.0,0
86,86,-0.578348212316058,-0.6,1.0,0.0,398.0,831.0,0.0,0,1771.0,1
87,87,0.4844159133888747,0.5,1.0,1.0,356.0,905.0,0.0,0,1739.0,0
88,88,0.7229217084737635,0.7,1.0,1.0,262.0,637.0,0.0,0,2101.0,0
89,89,-0.02211488187177435,-0.0,0.0,1.0,428.0,603.0,0.0,1,1969.0,0
90,90,-0.8204834431430813,-0.8,0.0,1.0,305.0,945.0,0.0,1,1750.0,0
91,91,0.16749301281027018,0.2,1.0,1.0,475.0,996.0,0.0,0,-1411.0,0
92,92,0.1169943704159565,0.1,1.0,1.0,366.0,834.0,0.0,0,1800.0,0
93,93,-0.5951556516998554,-0.6,0.0,1.0,339.0,831.0,0.0,1,1830.0,0
94,94,0.0913856088701519,0.1,0.0,0.0,393.0,625.0,0.0,1,1982.0,1
95,95,0.1358846731862936,0.1,1.0,1.0,408.0,931.0,0.0,0,1661.0,0
96,96,-0.831017698385828,-0.8,0.0,1.0,471.0,952.0,0.0,1,1577.0,0
97,97,0.030437129232414706,0.0,0.0,0.0,309.0,763.0,0.0,1,1928.0,1
98,98,0.7304022182923476,0.7,1.0,1.0,382.0,723.0,0.0,0,1895.0,0
99,99,0.037668632421330894,0.0,1.0,1.0,459.0,939.0,0.0,0,1602.0,0
100,100,-0.7816157377047227,-0.8,0.0,1.0,351.0,579.0,0.0,1,2070.0,0
101,101,-0.7975019423283863,-0.8,0.0,1.0,422.0,728.0,0.0,1,1850.0,0
102,102,0.6502542213334453,0.7,1.0,1.0,352.0,621.0,0.0,0,2027.0,0
103,103,-0.49164525516690527,-0.5,0.0,1.0,467.0,949.0,0.0,1,1584.0,0
104,104,-0.2525873839160152,-0.3,1.0,0.0,307.0,621.0,0.0,0,2072.0,1
105,105,0.7450790032461806,0.7,1.0,1.0,257.0,927.0,1.0,1,-1104.0,1
106,106,-0.535432700517539,-0.5,1.0,0.0,383.0,505.0,0.0,0,2112.0,1
107,107,0.8887562821193341,0.9,0.0,0.0,405.0,537.0,0.0,1,2058.0,1
108,108,0.7096063861846668,0.7,0.0,0.0,476.0,958.0,0.0,1,1566.0,1
109,109,-0.6588282552310627,-0.7,0.0,1.0,277.0,900.0,0.0,1,1823.0,0
110,110,-0.6511041139193958,-0.7,0.0,1.0,455.0,705.0,0.0,1,1840.0,0
111,111,0.5329471008013339,0.5,0.0,0.0,316.0,696.0,0.0,1,1988.0,1
112,112,-0.48466671354187946,-0.5,1.0,0.0,257.0,992.0,0.0,0,1751.0,1
113,113,0.6776250655826365,0.7,0.0,0.0,292.0,837.0,0.0,1,1871.0,1
114,114,-0.21897206920201684,-0.2,0.0,1.0,342.0,632.0,0.0,1,2026.0,0
115,115,-0.8240012944413962,-0.8,0.0,1.0,388.0,551.0,0.0,1,2061.0,0
116,116,0.6670969356763287,0.7,0.0,0.0,335.0,865.0,0.0,1,1800.0,1
117,117,-0.3186452180416124,-0.3,0.0,1.0,365.0,545.0,0.0,1,2090.0,0
118,118,0.029892545442610663,0.0,1.0,1.0,429.0,703.0,0.0,0,1868.0,0
119,119,-0.16473986782982875,-0.2,1.0,0.0,396.0,520.0,0.0,0,2084.0,1
120,120,0.7116917133301134,0.7,0.0,0.0,307.0,594.0,0.0,1,2099.0,1
121,121,-0.06291005313837017,-0.1,1.0,0.0,405.0,678.0,0.0,0,1917.0,1
122,122,-0.03691386672965746,-0.0,1.0,0.0,414.0,783.0,0.0,0,1803.0,1
123,123,0.5352000692762712,0.5,0.0,0.0,253.0,533.0,0.0,1,2214.0,1
124,124,-0.5822435442922289,-0.6,1.0,0.0,407.0,909.0,0.0,0,1684.0,1
125,125,0.4493251693871946,0.4,0.0,0.0,368.0,823.0,0.0,1,1809.0,1
126,126,-0.8150200205200073,-0.8,1.0,0.0,382.0,780.0,0.0,0,1838.0,1
127,127,0.7762010123839992,0.8,0.0,0.0,348.0,966.0,0.0,1,1686.0,1
128,128,-0.8471250531031277,-0.8,0.0,1.0,320.0,651.0,0.0,1,2029.0,0
129,129,-0.10190613696699591,-0.1,0.0,1.0,277.0,824.0,0.0,1,1899.0,0
130,130,-0.7388875465783499,-0.7,0.0,1.0,479.0,560.0,0.0,1,1961.0,0
131,131,0.5551004749835361,0.6,1.0,1.0,447.0,596.0,0.0,0,-1043.0,0
132,132,-0.8000073573125004,-0.8,0.0,1.0,250.0,620.0,0.0,1,2130.0,0
133,133,0.7106500929401814,0.7,0.0,0.0,255.0,871.0,0.0,1,1874.0,1
134,134,0.3176662549299668,0.3,1.0,1.0,282.0,552.0,0.0,0,2166.0,0
135,135,-0.420121640679437,-0.4,1.0,0.0,282.0,643.0,0.0,0,2075.0,1
136,136,0.06347076884939451,0.1,0.0,0.0,260.0,526.0,0.0,1,2214.0,1
137,137,-0.33379645673585145,-0.3,1.0,0.0,276.0,701.0,1.0,1,-977.0,0
138,138,0.3165848997044888,0.3,1.0,1.0,253.0,963.0,0.0,0,1784.0,0
139,139,-0.27145120756532903,-0.3,0.0,1.0,457.0,604.0,0.0,1,1939.0,0
140,140,0.8026283641204314,0.8,0.0,0.0,461.0,720.0,0.0,1,1819.0,1
141,141,0.6942628322139216,0.7,1.0,1.0,327.0,552.0,0.0,0,2121.0,0
142,142,-0.2778306371413505,-0.3,1.0,0.0,292.0,979.0,0.0,0,1729.0,1
143,143,-0.13440415389851135,-0.1,1.0,0.0,416.0,820.0,0.0,0,1764.0,1
144,144,-0.7979843048666585,-0.8,0.0,1.0,315.0,612.0,0.0,1,2073.0,0
145,145,0.43065570540757114,0.4,0.0,0.0,397.0,728.0,0.0,1,1875.0,1
146,146,0.1975582987632193,0.2,1.0,1.0,471.0,892.0,0.0,0,1637.0,0
147,147,0.7239458894919367,0.7,0.0,0.0,444.0,726.0,0.0,1,1830.0,1
148,148,0.03914526784711059,0.0,0.0,0.0,319.0,916.0,0.0,1,1765.0,1
149,149,-0.664497857591122,-0.7,0.0,1.0,331.0,641.0,0.0,1,2028.0,0
150,150,0.5606519800134856,0.6,1.0,1.0,476.0,697.0,0.0,0,1827.0,0
151,151,0.29876148141756753,0.3,1.0,1.0,400.0,528.0,0.0,0,2072.0,0
152,152,0.034188757506264045,0.0,1.0,1.0,363.0,618.0,0.0,0,2019.0,0
153,153,-0.6836761847668995,-0.7,0.0,1.0,291.0,736.0,1.0,0,-1027.0,1
154,154,0.3385988374105088,0.3,1.0,1.0,305.0,923.0,0.0,0,1772.0,0
155,155,0.8787217451775052,0.9,0.0,0.0,376.0,789.0,0.0,1,1835.0,1
156,156,-0.8048199657256444,-0.8,1.0,0.0,385.0,724.0,0.0,0,1891.0,1
157,157,0.8534041473996609,0.9,1.0,1.0,409.0,916.0,0.0,0,1675.0,0
158,158,0.8164666398095514,0.8,0.0,0.0,390.0,593.0,0.0,1,2017.0,1
159,159,0.3937535945452638,0.4,0.0,0.0,369.0,540.0,0.0,1,2091.0,1
160,160,-0.622513627662586,-0.6,1.0,0.0,430.0,656.0,0.0,0,1914.0,1
161,161,0.38835378107120067,0.4,1.0,1.0,254.0,946.0,0.0,0,1800.0,0
162,162,-0.19416988393127643,-0.2,0.0,1.0,331.0,765.0,0.0,1,1904.0,0
163,163,0.4987006803103545,0.5,0.0,0.0,486.0,946.0,0.0,1,1568.0,1
164,164,0.024905310369165656,0.0,0.0,0.0,268.0,652.0,0.0,1,2080.0,1
165,165,-0.15423443926416724,-0.2,0.0,1.0,385.0,534.0,0.0,1,2081.0,0
166,166,0.36723447296904255,0.4,1.0,1.0,319.0,602.0,0.0,0,2079.0,0
167,167,-0.8596320087904489,-0.9,1.0,0.0,293.0,728.0,0.0,0,1979.0,1
168,168,-0.109857348534944,-0.1,0.0,1.0,429.0,802.0,0.0,1,1769.0,0
169,169,0.7211057886267803,0.7,0.0,0.0,276.0,664.0,0.0,1,2060.0,1
170,170,0.2286463614184483,0.2,1.0,1.0,399.0,898.0,0.0,0,1703.0,0
171,171,-0.6271577428879074,-0.6,0.0,1.0,367.0,822.0,0.0,1,1811.0,0
172,172,0.8899529382036712,0.9,0.0,0.0,397.0,794.0,0.0,1,1809.0,1
173,173,0.48195256183635904,0.5,1.0,1.0,458.0,739.0,0.0,0,1803.0,0
174,174,0.69967185116343,0.7,1.0,1.0,499.0,697.0,0.0,0,1804.0,0
175,175,0.24580092979692691,0.2,1.0,1.0,441.0,529.0,0.0,0,2030.0,0
176,176,-0.5931615632216569,-0.6,1.0,0.0,253.0,954.0,0.0,0,-1177.0,1
177,177,0.6746552747158211,0.7,0.0,0.0,270.0,729.0,0.0,1,2001.0,1
178,178,-0.8234857761053058,-0.8,1.0,0.0,386.0,776.0,0.0,0,1838.0,1
179,179,-0.8795289159600878,-0.9,0.0,1.0,256.0,707.0,0.0,1,2037.0,0
180,180,0.685883496250398,0.7,0.0,0.0,391.0,768.0,0.0,1,1841.0,1
181,181,-0.7969309284584761,-0.8,1.0,0.0,490.0,702.0,0.0,0,1808.0,1
182,182,-0.7313562419304284,-0.7,1.0,0.0,443.0,989.0,0.0,0,1568.0,1
183,183,0.24326072217555061,0.2,1.0,1.0,431.0,832.0,0.0,0,1737.0,0
184,184,-0.4966147802926553,-0.5,0.0,1.0,371.0,825.0,0.0,1,1804.0,0
185,185,0.22115075969179954,0.2,1.0,1.0,286.0,660.0,0.0,0,2054.0,0
186,186,-0.7699013594345819,-0.8,0.0,1.0,295.0,889.0,0.0,1,1816.0,0
187,187,0.795026636138194,0.8,0.0,0.0,372.0,548.0,0.0,1,2080.0,1
188,188,-0.12931570056606645,-0.1,1.0,0.0,254.0,890.0,0.0,0,1856.0,1
189,189,-0.44305035641978613,-0.4,1.0,0.0,298.0,550.0,0.0,0,2152.0,1
190,190,-0.7757665535879372,-0.8,0.0,1.0,415.0,914.0,0.0,1,1671.0,0
191,191,-0.20607247275728824,-0.2,1.0,0.0,405.0,867.0,0.0,0,1728.0,1
192,192,-0.5037271596238841,-0.5,1.0,0.0,250.0,857.0,0.0,0,1893.0,1
193,193,-0.4119991456820647,-0.4,0.0,1.0,312.0,542.0,0.0,1,2146.0,0
194,194,-0.5373409017897881,-0.5,1.0,0.0,413.0,664.0,0.0,0,1923.0,1
195,195,0.39443794019378153,0.4,1.0,1.0,286.0,989.0,0.0,0,1725.0,0
196,196,0.3810092346835773,0.4,1.0,1.0,275.0,567.0,0.0,0,2158.0,0
197,197,0.2384061260488709,0.2,0.0,0.0,451.0,542.0,0.0,1,2007.0,1
198,198,0.8292888736814638,0.8,0.0,0.0,343.0,835.0,0.0,1,1822.0,1
199,199,0.5555325398970182,0.6,0.0,0.0,489.0,567.0,0.0,1,1944.0,1
200,200,0.5134835158032128,0.5,1.0,1.0,304.0,956.0,0.0,0,1740.0,0
201,201,-0.485476536525081,-0.5,1.0,0.0,343.0,723.0,0.0,0,-916.0,1
202,202,-0.2238789320286223,-0.2,0.0,1.0,278.0,620.0,0.0,1,2102.0,0
203,203,-0.4870532883421069,-0.5,1.0,0.0,462.0,583.0,0.0,0,1955.0,1
204,204,-0.6229384895556316,-0.6,0.0,1.0,377.0,880.0,0.0,1,1743.0,0
205,205,-0.500478712863212,-0.5,1.0,0.0,469.0,664.0,0.0,0,1867.0,1
206,206,0.637507470691906,0.6,0.0,0.0,394.0,891.0,0.0,1,1715.0,1
207,207,0.3709650619035457,0.4,1.0,1.0,403.0,760.0,0.0,0,1837.0,0
208,208,-0.46757078599529067,-0.5,0.0,1.0,494.0,983.0,0.0,1,-1457.0,0
209,209,-0.28562641770458586,-0.3,0.0,1.0,322.0,554.0,0.0,1,2124.0,0
210,210,-0.7222980935132787,-0.7,1.0,0.0,427.0,702.0,0.0,0,1871.0,1
211,211,-0.6262980867516016,-0.6,0.0,1.0,498.0,588.0,0.0,1,1914.0,0
212,212,-0.39152772715537476,-0.4,1.0,0.0,271.0,864.0,0.0,0,1865.0,1
213,213,-0.4594399526671283,-0.5,0.0,1.0,347.0,643.0,0.0,1,2010.0,0
214,214,-0.203208787532975,-0.2,1.0,0.0,254.0,817.0,0.0,0,1929.0,1
215,215,0.14194241225976445,0.1,0.0,0.0,398.0,541.0,0.0,1,2061.0,1
216,216,-0.06572287408963917,-0.1,1.0,0.0,408.0,928.0,0.0,0,1664.0,1
217,217,0.47336627302469736,0.5,1.0,1.0,288.0,573.0,0.0,0,2139.0,0
218,218,0.12096641952764531,0.1,0.0,0.0,371.0,932.0,0.0,1,1697.0,1
219,219,0.727130130154359,0.7,1.0,1.0,341.0,565.0,0.0,0,2094.0,0
220,220,0.7089278777676268,0.7,1.0,1.0,385.0,530.0,0.0,0,2085.0,0
221,221,-0.3940855054762792,-0.4,0.0,1.0,380.0,717.0,0.0,1,1903.0,0
222,222,0.021933423957912757,0.0,0.0,0.0,279.0,896.0,0.0,1,1825.0,1
223,223,-0.2833311678039352,-0.3,0.0,1.0,468.0,631.0,0.0,1,1901.0,0
224,224,-0.605804646660743,-0.6,1.0,0.0,444.0,956.0,0.0,0,1600.0,1
225,225,-0.8822117343584946,-0.9,1.0,0.0,348.0,973.0,0.0,0,-1251.0,1
226,226,-0.17010345081999745,-0.2,1.0,0.0,306.0,619.0,0.0,0,2075.0,1
227,227,-0.48422147792687203,-0.5,1.0,0.0,281.0,997.0,0.0,0,1722.0,1
228,228,0.6443167074284751,0.6,1.0,1.0,378.0,776.0,0.0,0,1846.0,0
229,229,0.06152027460283882,0.1,0.0,0.0,362.0,905.0,0.0,1,1733.0,1
230,230,-0.23198441199990916,-0.2,0.0,1.0,250.0,861.0,0.0,1,1889.0,0
231,231,-0.6212740019928649,-0.6,1.0,0.0,466.0,745.0,0.0,0,-1161.0,1
232,232,0.7048014279843436,0.7,1.0,1.0,440.0,982.0,0.0,0,1578.0,0
233,233,-0.19029835269826612,-0.2,0.0,1.0,498.0,589.0,0.0,1,1913.0,0
234,234,-0.2085520615141343,-0.2,1.0,0.0,294.0,611.0,0.0,0,2095.0,1
235,235,-0.005240106751363549,-0.0,1.0,0.0,458.0,621.0,0.0,0,1921.0,1
236,236,-0.7712227423270077,-0.8,0.0,1.0,264.0,676.0,0.0,1,2060.0,0
237,237,-0.7205614688078427,-0.7,0.0,1.0,487.0,565.0,0.0,1,1948.0,0
238,238,-0.5764647080389772,-0.6,0.0,1.0,384.0,985.0,0.0,1,1631.0,0
239,239,0.36284681820469766,0.4,1.0,1.0,418.0,723.0,0.0,0,1859.0,0
240,240,0.8378420385278843,0.8,1.0,1.0,261.0,779.0,0.0,0,1960.0,0
241,241,0.7278241598413614,0.7,0.0,0.0,304.0,530.0,0.0,1,2166.0,1
242,242,-0.06725092281532852,-0.1,0.0,1.0,298.0,550.0,0.0,1,2152.0,0
243,243,-0.3830936521139695,-0.4,1.0,0.0,275.0,916.0,0.0,0,1809.0,1
244,244,-0.5422176484949504,-0.5,0.0,1.0,461.0,862.0,0.0,1,1677.0,0
245,245,0.05382225789667405,0.1,0.0,0.0,461.0,878.0,0.0,1,1661.0,1
246,246,-0.2393981392655209,-0.2,0.0,1.0,407.0,519.0,0.0,1,2074.0,0
247,247,-0.5943995937195308,-0.6,0.0,1.0,347.0,914.0,0.0,1,1739.0,0
248,248,-0.2192597039613018,-0.2,1.0,0.0,487.0,703.0,0.0,0,1810.0,1
249,249,0.7447869126923178,0.7,0.0,0.0,271.0,630.0,0.0,1,2099.0,1
250,250,-0.7284716917880762,-0.7,1.0,0.0,355.0,556.0,0.0,0,2089.0,1
251,251,0.1498872642298804,0.1,1.0,1.0,360.0,952.0,0.0,0,1688.0,0
252,252,0.2334877105587233,0.2,0.0,0.0,335.0,822.0,0.0,1,1843.0,1
253,253,0.20090487421775782,0.2,1.0,1.0,445.0,647.0,0.0,0,1908.0,0
254,254,-0.708646520654701,-0.7,1.0,0.0,375.0,917.0,0.0,0,1708.0,1
255,255,-0.11806919488009382,-0.1,1.0,0.0,404.0,550.0,0.0,0,2046.0,1
256,256,0.6438449687518727,0.6,0.0,0.0,385.0,877.0,0.0,1,1738.0,1
257,257,0.7142208403486373,0.7,0.0,0.0,447.0,712.0,0.0,1,1841.0,1
258,258,0.8023482716232629,0.8,0.0,0.0,414.0,736.0,0.0,1,1850.0,1
259,259,-0.21212380666267305,-0.2,0.0,1.0,360.0,811.0,0.0,1,1829.0,0
260,260,-0.24178850806523156,-0.2,0.0,1.0,322.0,595.0,0.0,1,2083.0,0
261,261,-0.3736125336439614,-0.4,0.0,1.0,412.0,867.0,0.0,1,1721.0,0
262,262,0.12889594550931316,0.1,0.0,0.0,314.0,522.0,0.0,1,2164.0,1
263,263,0.6187699470731486,0.6,0.0,0.0,285.0,595.0,0.0,1,2120.0,1
264,264,0.47916000227619004,0.5,0.0,0.0,321.0,963.0,0.0,1,1716.0,1
265,265,-0.6613736790578151,-0.7,1.0,0.0,383.0,774.0,0.0,0,1843.0,1
266,266,0.8873426635098985,0.9,1.0,1.0,294.0,794.0,0.0,0,1912.0,0
267,267,0.8683406189156139,0.9,1.0,1.0,417.0,865.0,0.0,0,1718.0,0
268,268,-0.6968052100880407,-0.7,1.0,0.0,441.0,685.0,0.0,0,1874.0,1
269,269,0.5993349300684926,0.6,0.0,0.0,476.0,628.0,1.0,0,-1054.0,0
270,270,0.8356718946610336,0.8,0.0,0.0,376.0,668.0,0.0,1,1956.0,1
271,271,-0.6063929535967585,-0.6,1.0,0.0,263.0,930.0,0.0,0,1807.0,1
272,272,0.033071121014485616,0.0,0.0,0.0,397.0,808.0,0.0,1,1795.0,1
273,273,-0.7028945598642017,-0.7,1.0,0.0,369.0,858.0,0.0,0,1773.0,1
274,274,-0.07715614816062988,-0.1,1.0,0.0,256.0,629.0,0.0,0,2115.0,1
275,275,-0.8110835925069325,-0.8,0.0,1.0,485.0,787.0,0.0,1,1728.0,0
276,276,0.8574280874059707,0.9,1.0,1.0,362.0,557.0,0.0,0,2081.0,0
277,277,0.534102029806193,0.5,0.0,0.0,290.0,512.0,0.0,1,2198.0,1
278,278,0.8315737271003064,0.8,0.0,0.0,304.0,897.0,0.0,1,-1071.0,1
279,279,-0.5449469660295319,-0.5,1.0,0.0,494.0,625.0,0.0,0,1881.0,1
280,280,-0.7098444650821187,-0.7,1.0,0.0,354.0,746.0,0.0,0,1900.0,1
281,281,-0.5138556685922353,-0.5,1.0,0.0,343.0,853.0,0.0,0,1804.0,1
282,282,0.4038300275093575,0.4,1.0,1.0,334.0,600.0,0.0,0,2066.0,0
283,283,-0.47800085262245745,-0.5,0.0,1.0,354.0,648.0,0.0,1,1998.0,0
284,284,0.679058048728444,0.7,1.0,1.0,355.0,727.0,0.0,0,1918.0,0
285,285,-0.276377357636334,-0.3,0.0,1.0,483.0,721.0,0.0,1,1796.0,0
286,286,-0.3630602496864357,-0.4,1.0,0.0,306.0,684.0,0.0,0,2010.0,1
287,287,-0.6764506061946526,-0.7,1.0,0.0,473.0,984.0,0.0,0,1543.0,1
288,288,0.6260324570165626,0.6,0.0,0.0,284.0,674.0,0.0,1,2042.0,1
289,289,-0.2149927670490005,-0.2,0.0,1.0,379.0,650.0,0.0,1,1971.0,0
290,290,0.14437462586058414,0.1,1.0,1.0,360.0,818.0,0.0,0,1822.0,0
291,291,0.8081089891997543,0.8,0.0,0.0,440.0,888.0,0.0,1,1672.0,1
292,292,-0.042247516390408024,-0.0,1.0,0.0,318.0,526.0,0.0,0,2156.0,1
293,293,-0.47158361092457624,-0.5,0.0,1.0,408.0,986.0,0.0,1,1606.0,0
294,294,0.3527572557234785,0.4,1.0,1.0,431.0,956.0,0.0,0,1613.0,0
295,295,0.65381207022112,0.7,1.0,1.0,254.0,643.0,0.0,0,2103.0,0
296,296,-0.6031545304119951,-0.6,1.0,0.0,421.0,950.0,0.0,0,1629.0,1
297,297,-0.3785739488995762,-0.4,0.0,1.0,379.0,788.0,0.0,1,1833.0,0
298,298,-0.8740757821050413,-0.9,0.0,1.0,360.0,501.0,0.0,1,2139.0,0
299,299,0.5520348864975401,0.6,1.0,1.0,349.0,835.0,0.0,0,1816.0,0
300,300,-0.03149504155182947,-0.0,0.0,1.0,420.0,722.0,0.0,1,1858.0,0
301,301,0.5568242678539014,0.6,1.0,1.0,369.0,568.0,0.0,0,2063.0,0
302,302,0.33196539330200425,0.3,1.0,1.0,423.0,958.0,0.0,0,1619.0,0
303,303,0.016238565371444746,0.0,1.0,1.0,431.0,606.0,0.0,0,1963.0,0
304,304,0.27841427505653493,0.3,1.0,1.0,279.0,622.0,0.0,0,2099.0,0
305,305,0.32285607888840395,0.3,0.0,0.0,334.0,535.0,1.0,0,-739.0,0
306,306,0.29059730077080637,0.3,1.0,1.0,262.0,527.0,0.0,0,2211.0,0
307,307,0.4750240541115528,0.5,0.0,0.0,459.0,562.0,0.0,1,1979.0,1
308,308,0.23869112250997204,0.2,0.0,0.0,310.0,735.0,0.0,1,1955.0,1
309,309,0.26024802587658524,0.3,0.0,0.0,267.0,539.0,0.0,1,2194.0,1
310,310,0.26725970390883125,0.3,0.0,0.0,268.0,535.0,0.0,1,2197.0,1
311,311,0.046140772955477916,0.0,1.0,1.0,259.0,699.0,0.0,0,2042.0,0
312,312,0.6334711306018425,0.6,0.0,0.0,268.0,873.0,0.0,1,1859.0,1
313,313,0.4546221139174701,0.5,0.0,0.0,375.0,865.0,0.0,1,1760.0,1
314,314,-0.7196987193235664,-0.7,0.0,1.0,486.0,982.0,0.0,1,1532.0,0
315,315,0.7674828390846292,0.8,0.0,0.0,436.0,982.0,0.0,1,1582.0,1
316,316,-0.00663379435893674,-0.0,1.0,0.0,463.0,509.0,0.0,0,2028.0,1
317,317,0.8841653251178018,0.9,1.0,1.0,327.0,572.0,0.0,0,2101.0,0
318,318,-0.4326779598270067,-0.4,1.0,0.0,492.0,705.0,0.0,0,1803.0,1
319,319,0.8244490858609982,0.8,1.0,1.0,282.0,668.0,0.0,0,2050.0,0
320,320,0.1049061765051903,0.1,1.0,1.0,448.0,875.0,0.0,0,1677.0,0
321,321,0.43432128722063335,0.4,0.0,0.0,496.0,766.0,0.0,1,1738.0,1
322,322,-0.07600513870149539,-0.1,1.0,0.0,306.0,507.0,0.0,0,2187.0,1
323,323,0.8840643566964882,0.9,0.0,0.0,263.0,850.0,0.0,1,1887.0,1
324,324,0.5458349117654234,0.5,0.0,0.0,454.0,702.0,0.0,1,1844.0,1
325,325,-0.20916452215774217,-0.2,1.0,0.0,283.0,746.0,1.0,1,-819.0,0
326,326,0.4740317838374407,0.5,0.0,0.0,400.0,893.0,0.0,1,1707.0,1
327,327,0.5781330356820039,0.6,0.0,0.0,331.0,847.0,0.0,1,1822.0,1
328,328,-0.7886081904350553,-0.8,0.0,1.0,382.0,992.0,0.0,1,1626.0,0
329,329,-0.23417949950225636,-0.2,1.0,0.0,418.0,814.0,0.0,0,1768.0,1
330,330,-0.7303351709906215,-0.7,1.0,0.0,271.0,740.0,0.0,0,1989.0,1
331,331,0.5386564681627585,0.5,1.0,1.0,262.0,771.0,0.0,0,1967.0,0
332,332,-0.20392104946896616,-0.2,0.0,1.0,413.0,540.0,0.0,1,2047.0,0
333,333,0.20985299903711374,0.2,0.0,0.0,316.0,706.0,0.0,1,1978.0,1
334,334,-0.5071538615279177,-0.5,0.0,1.0,359.0,902.0,0.0,1,1739.0,0
335,335,-0.4034842661874679,-0.4,0.0,1.0,389.0,953.0,0.0,1,1658.0,0
336,336,-0.2958036635950193,-0.3,1.0,0.0,295.0,639.0,0.0,0,2066.0,1
337,337,-0.0860676673323918,-0.1,0.0,1.0,262.0,717.0,0.0,1,2021.0,0
338,338,0.16097984488681527,0.2,1.0,1.0,422.0,653.0,0.0,0,1925.0,0
339,339,0.7001537344735517,0.7,1.0,1.0,324.0,821.0,0.0,0,1855.0,0
340,340,0.7115055052457627,0.7,0.0,0.0,307.0,801.0,0.0,1,1892.0,1
341,341,0.6639685741531615,0.7,1.0,1.0,434.0,544.0,0.0,0,2022.0,0
342,342,-0.8650128441219194,-0.9,0.0,1.0,420.0,616.0,0.0,1,1964.0,0
343,343,0.17312627515449608,0.2,1.0,1.0,350.0,534.0,0.0,0,2116.0,0
344,344,-0.07179090976877078,-0.1,1.0,0.0,306.0,764.0,0.0,0,1930.0,1
345,345,0.5892715156429803,0.6,0.0,0.0,321.0,788.0,0.0,1,1891.0,1
346,346,0.8839799624059997,0.9,0.0,0.0,327.0,676.0,0.0,1,1997.0,1
347,347,-0.887850143221551,-0.9,0.0,1.0,300.0,522.0,0.0,1,2178.0,0
348,348,0.5160826482155426,0.5,0.0,0.0,389.0,868.0,0.0,1,-1097.0,1
349,349,-0.4756483975821226,-0.5,1.0,0.0,302.0,599.0,0.0,0,2099.0,1
350,350,0.7781964833813221,0.8,1.0,1.0,274.0,733.0,0.0,0,1993.0,0
351,351,0.2087041589311519,0.2,0.0,0.0,410.0,503.0,0.0,1,2087.0,1
352,352,-0.7671311396147634,-0.8,0.0,1.0,330.0,875.0,0.0,1,1795.0,0
353,353,0.03158140275363708,0.0,1.0,1.0,267.0,652.0,0.0,0,2081.0,0
354,354,0.022978851100543318,0.0,1.0,1.0,360.0,981.0,0.0,0,1659.0,0
355,355,-0.8008595037803292,-0.8,1.0,0.0,364.0,914.0,0.0,0,1722.0,1
356,356,-0.8972401666335614,-0.9,1.0,0.0,306.0,729.0,0.0,0,1965.0,1
357,357,0.7788238512009426,0.8,0.0,0.0,465.0,962.0,0.0,1,1573.0,1
358,358,0.29268025240518136,0.3,1.0,1.0,271.0,984.0,0.0,0,1745.0,0
359,359,-0.7475450646366755,-0.7,0.0,1.0,484.0,789.0,0.0,1,1727.0,0
360,360,0.4841578336084936,0.5,1.0,1.0,295.0,854.0,0.0,0,1851.0,0
361,361,0.7775591290237408,0.8,0.0,0.0,352.0,560.0,0.0,1,2088.0,1
362,362,-0.14008584169759464,-0.1,1.0,0.0,450.0,623.0,1.0,1,-1053.0,0
363,363,-0.11953895936359615,-0.1,0.0,1.0,378.0,930.0,0.0,1,1692.0,0
364,364,-0.39483547068102764,-0.4,0.0,1.0,375.0,637.0,0.0,1,1988.0,0
365,365,0.1001017797079814,0.1,1.0,1.0,353.0,943.0,0.0,0,1704.0,0
366,366,0.71163674124395,0.7,1.0,1.0,268.0,521.0,0.0,0,2211.0,0
367,367,-0.0894423823469549,-0.1,0.0,1.0,318.0,843.0,0.0,1,1839.0,0
368,368,0.45519609612882983,0.5,1.0,1.0,329.0,564.0,0.0,0,2107.0,0
369,369,-0.7427740745277885,-0.7,0.0,1.0,343.0,637.0,0.0,1,2020.0,0
370,370,0.4293893089080568,0.4,0.0,0.0,365.0,527.0,0.0,1,2108.0,1
371,371,-0.31670219062780536,-0.3,0.0,1.0,448.0,733.0,0.0,1,1819.0,0
372,372,-0.10783831362015206,-0.1,1.0,0.0,491.0,754.0,0.0,0,1755.0,1
373,373,-0.18206334931413248,-0.2,0.0,1.0,394.0,849.0,0.0,1,1757.0,0
374,374,0.46575728462781296,0.5,0.0,0.0,416.0,603.0,1.0,0,-909.0,0
375,375,0.7977234546508364,0.8,1.0,1.0,434.0,504.0,0.0,0,-848.0,0
376,376,-0.0030909219072682292,-0.0,0.0,1.0,267.0,766.0,0.0,1,1967.0,0
377,377,0.14749258271936105,0.1,0.0,0.0,486.0,898.0,0.0,1,1616.0,1
378,378,0.33011838701739504,0.3,1.0,1.0,433.0,904.0,0.0,0,1663.0,0
379,379,-0.5433078225484438,-0.5,1.0,0.0,259.0,926.0,0.0,0,1815.0,1
380,380,-0.5648669922073595,-0.6,0.0,1.0,419.0,903.0,0.0,1,1678.0,0
381,381,-0.10914581588983452,-0.1,1.0,0.0,494.0,846.0,0.0,0,1660.0,1
382,382,0.35028825815467146,0.4,1.0,1.0,344.0,778.0,0.0,0,1878.0,0
383,383,-0.4847895838903142,-0.5,0.0,1.0,292.0,651.0,0.0,1,2057.0,0
384,384,-0.8975090493352196,-0.9,1.0,0.0,257.0,826.0,0.0,0,1917.0,1
385,385,-0.4997270975722619,-0.5,1.0,0.0,337.0,539.0,0.0,0,2124.0,1
386,386,0.0565530133530463,0.1,1.0,1.0,478.0,909.0,0.0,0,1613.0,0
387,387,0.008236243089846496,0.0,1.0,1.0,321.0,718.0,0.0,0,1961.0,0
388,388,-0.585637099362261,-0.6,0.0,1.0,352.0,795.0,0.0,1,1853.0,0
389,389,0.8785172684905694,0.9,1.0,1.0,400.0,635.0,0.0,0,-825.0,0
390,390,0.43482429402596867,0.4,0.0,0.0,331.0,615.0,0.0,1,2054.0,1
391,391,0.08797461347165292,0.1,1.0,1.0,303.0,962.0,0.0,0,1735.0,0
392,392,-0.36182610278682936,-0.4,1.0,0.0,406.0,811.0,1.0,1,-1207.0,0
393,393,-0.6038844867360353,-0.6,0.0,1.0,361.0,964.0,1.0,0,-1305.0,1
394,394,-0.5745850435617241,-0.6,1.0,0.0,330.0,984.0,0.0,0,1686.0,1
395,395,0.49348765906874037,0.5,0.0,0.0,285.0,923.0,0.0,1,1792.0,1
396,396,0.4323883042261568,0.4,1.0,1.0,370.0,839.0,0.0,0,1791.0,0
397,397,-0.15616041515269408,-0.2,1.0,0.0,268.0,857.0,0.0,0,-975.0,1
398,398,0.2379326289369249,0.2,1.0,1.0,386.0,616.0,0.0,0,1998.0,0
399,399,-0.888339510113691,-0.9,0.0,1.0,359.0,574.0,0.0,1,2067.0,0
400,400,0.4635315479160008,0.5,0.0,0.0,339.0,767.0,0.0,1,1894.0,1
401,401,-0.2273603351749549,-0.2,1.0,0.0,438.0,977.0,0.0,0,1585.0,1
402,402,0.6074700768284776,0.6,0.0,0.0,325.0,856.0,0.0,1,1819.0,1
403,403,-0.7553641956914092,-0.8,0.0,1.0,423.0,817.0,0.0,1,1760.0,0
404,404,-0.0337815641950725,-0.0,0.0,1.0,472.0,926.0,0.0,1,1602.0,0
405,405,0.1657284351359941,0.2,1.0,1.0,487.0,902.0,0.0,0,1611.0,0
406,406,-0.6313961775256116,-0.6,1.0,0.0,460.0,913.0,0.0,0,1627.0,1
407,407,-0.3765770619341522,-0.4,1.0,0.0,276.0,802.0,0.0,0,1922.0,1
408,408,-0.6423183959062527,-0.6,1.0,0.0,301.0,642.0,0.0,0,2057.0,1
409,409,0.3132033507814035,0.3,0.0,0.0,463.0,974.0,0.0,1,1563.0,1
410,410,-0.13290119919234422,-0.1,0.0,1.0,474.0,606.0,0.0,1,1920.0,0
411,411,-0.44784719460008454,-0.4,1.0,0.0,271.0,963.0,0.0,0,1766.0,1
412,412,0.031955817880050974,0.0,0.0,0.0,357.0,608.0,0.0,1,2035.0,1
413,413,0.604597491570556,0.6,0.0,0.0,489.0,604.0,0.0,1,1907.0,1
414,414,-0.30280267743634337,-0.3,1.0,0.0,347.0,924.0,0.0,0,1729.0,1
415,415,0.28318023485177546,0.3,0.0,0.0,407.0,945.0,0.0,1,1648.0,1
416,416,0.8576035626076798,0.9,1.0,1.0,424.0,807.0,0.0,0,1769.0,0
417,417,-0.5630940621796898,-0.6,1.0,0.0,456.0,627.0,0.0,0,1917.0,1
418,418,0.6016641094826759,0.6,1.0,1.0,362.0,530.0,0.0,0,2108.0,0
419,419,-0.7497208444640497,-0.7,0.0,1.0,492.0,765.0,0.0,1,1743.0,0
420,420,-0.17311860344419328,-0.2,0.0,1.0,284.0,968.0,0.0,1,1748.0,0
421,421,-0.5919742966638852,-0.6,0.0,1.0,349.0,500.0,0.0,1,-659.0,0
422,422,-0.2717434999725119,-0.3,1.0,0.0,352.0,890.0,0.0,0,1758.0,1
423,423,-0.6145486402986216,-0.6,0.0,1.0,338.0,997.0,0.0,1,-1265.0,0
424,424,-0.0019158833572850975,-0.0,0.0,1.0,309.0,566.0,0.0,1,2125.0,0
425,425,0.7546500211216894,0.8,1.0,1.0,359.0,619.0,0.0,0,2022.0,0
426,426,-0.47182335620177135,-0.5,1.0,0.0,301.0,904.0,0.0,0,1795.0,1
427,427,0.7756593266037136,0.8,1.0,1.0,378.0,747.0,0.0,0,1875.0,0
428,428,0.8570664025538507,0.9,1.0,1.0,405.0,836.0,0.0,0,1759.0,0
429,429,0.8415053958404924,0.8,1.0,1.0,367.0,616.0,0.0,0,2017.0,0
430,430,-0.5542836127833712,-0.6,0.0,1.0,371.0,923.0,0.0,1,1706.0,0
431,431,0.1075001070381193,0.1,0.0,0.0,431.0,745.0,0.0,1,1824.0,1
432,432,0.8574880425232815,0.9,1.0,1.0,268.0,655.0,0.0,0,2077.0,0
433,433,-0.4691746042072679,-0.5,0.0,1.0,455.0,688.0,0.0,1,1857.0,0
434,434,-0.46254820554086323,-0.5,0.0,1.0,497.0,846.0,0.0,1,1657.0,0
435,435,-0.6978916543507816,-0.7,0.0,1.0,301.0,897.0,0.0,1,1802.0,0
436,436,0.7019983109047571,0.7,1.0,1.0,346.0,983.0,0.0,0,1671.0,0
437,437,0.41737919805629187,0.4,0.0,0.0,302.0,778.0,0.0,1,1920.0,1
438,438,-0.5951856307695961,-0.6,1.0,0.0,427.0,619.0,0.0,0,1954.0,1
439,439,-0.7115452565664577,-0.7,1.0,0.0,281.0,505.0,0.0,0,2214.0,1
440,440,0.37630026899946223,0.4,0.0,0.0,424.0,929.0,0.0,1,1647.0,1
441,441,0.1514806612756291,0.2,1.0,1.0,256.0,659.0,0.0,0,2085.0,0
442,442,-0.3422968848448812,-0.3,0.0,1.0,390.0,639.0,0.0,1,1971.0,0
443,443,-0.6855041292908745,-0.7,0.0,1.0,459.0,519.0,0.0,1,2022.0,0
444,444,0.7363104028527584,0.7,1.0,1.0,323.0,746.0,0.0,0,1931.0,0
445,445,0.011692443501550187,0.0,0.0,0.0,470.0,867.0,0.0,1,1663.0,1
446,446,0.5581486035806514,0.6,0.0,0.0,395.0,550.0,0.0,1,2055.0,1
447,447,-0.3644705262236657,-0.4,1.0,0.0,439.0,701.0,0.0,0,1860.0,1
448,448,0.26073517047309325,0.3,1.0,1.0,346.0,732.0,0.0,0,1922.0,0
449,449,0.6469006827115437,0.6,1.0,1.0,449.0,992.0,0.0,0,1559.0,0
450,450,0.2668659119568598,0.3,0.0,0.0,460.0,881.0,0.0,1,1659.0,1
451,451,0.2558761246977569,0.3,1.0,1.0,385.0,754.0,0.0,0,1861.0,0
452,452,-0.26919300004487223,-0.3,1.0,0.0,319.0,866.0,0.0,0,1815.0,1
453,453,-0.4563678250549973,-0.5,1.0,0.0,260.0,912.0,0.0,0,1828.0,1
454,454,0.7234534919600847,0.7,0.0,0.0,400.0,640.0,0.0,1,1960.0,1
455,455,-0.8810608753822763,-0.9,0.0,1.0,416.0,581.0,0.0,1,2003.0,0
456,456,0.12988942415572813,0.1,0.0,0.0,430.0,708.0,0.0,1,1862.0,1
457,457,-0.2948906590253675,-0.3,1.0,0.0,468.0,836.0,0.0,0,-1274.0,1
458,458,0.23625968421813492,0.2,0.0,0.0,439.0,862.0,0.0,1,1699.0,1
459,459,0.22482277190873046,0.2,0.0,0.0,322.0,999.0,0.0,1,1679.0,1
460,460,-0.10278236810169006,-0.1,1.0,0.0,390.0,921.0,0.0,0,1689.0,1
461,461,0.6216734135723759,0.6,1.0,1.0,394.0,523.0,0.0,0,2083.0,0
462,462,0.05112476828618984,0.1,1.0,1.0,307.0,998.0,0.0,0,1695.0,0
463,463,-0.5894831547717323,-0.6,0.0,1.0,385.0,584.0,0.0,1,2031.0,0
464,464,-0.2788930504378041,-0.3,1.0,0.0,477.0,827.0,0.0,0,1696.0,1
465,465,-0.48353041647584727,-0.5,1.0,0.0,398.0,634.0,0.0,0,1968.0,1
466,466,-0.5140494703165203,-0.5,1.0,0.0,421.0,579.0,0.0,0,2000.0,1
467,467,-0.21820236886588362,-0.2,0.0,1.0,353.0,512.0,0.0,1,2135.0,0
468,468,-0.14079220764085865,-0.1,0.0,1.0,279.0,763.0,1.0,0,-982.0,1
469,469,-0.8479252708570152,-0.8,0.0,1.0,397.0,705.0,0.0,1,1898.0,0
470,470,-0.10219761215678669,-0.1,0.0,1.0,419.0,629.0,0.0,1,1952.0,0
471,471,-0.8747511002557125,-0.9,1.0,0.0,369.0,716.0,0.0,0,1915.0,1
472,472,0.682790346213409,0.7,1.0,1.0,351.0,756.0,0.0,0,1893.0,0
473,473,0.09660385031693364,0.1,1.0,1.0,447.0,782.0,0.0,0,1771.0,0
474,474,0.4890105430934356,0.5,1.0,1.0,358.0,634.0,0.0,0,2008.0,0
475,475,-0.5797972108438507,-0.6,1.0,0.0,478.0,535.0,0.0,0,1987.0,1
476,476,0.24415405137915636,0.2,0.0,0.0,326.0,969.0,0.0,1,1705.0,1
477,477,0.36797741351412194,0.4,0.0,0.0,277.0,616.0,0.0,1,2107.0,1
478,478,-0.8398349692236841,-0.8,1.0,0.0,383.0,854.0,0.0,0,1763.0,1
479,479,-0.37365163524955736,-0.4,0.0,1.0,476.0,552.0,0.0,1,1972.0,0
480,480,0.48999288185988565,0.5,0.0,0.0,477.0,615.0,0.0,1,1908.0,1
481,481,0.36427508768753125,0.4,1.0,1.0,327.0,625.0,0.0,0,2048.0,0
482,482,0.6703058077555973,0.7,0.0,0.0,315.0,734.0,0.0,1,1951.0,1
483,483,-0.5058762072876468,-0.5,0.0,1.0,340.0,638.0,0.0,1,2022.0,0
484,484,-0.8479291808107806,-0.8,0.0,1.0,317.0,820.0,0.0,1,1863.0,0
485,485,-0.7243539569993216,-0.7,1.0,0.0,469.0,572.0,0.0,0,1959.0,1
486,486,0.20628309751521023,0.2,1.0,1.0,463.0,558.0,0.0,0,1979.0,0
487,487,0.5616950982553884,0.6,1.0,1.0,489.0,907.0,0.0,0,1604.0,0
488,488,0.5394597292189646,0.5,0.0,0.0,419.0,502.0,0.0,1,2079.0,1
489,489,-0.5276486609730748,-0.5,1.0,0.0,322.0,513.0,0.0,0,-775.0,1
490,490,0.8285290166409146,0.8,0.0,0.0,467.0,603.0,0.0,1,1930.0,1
491,491,-0.399791859149212,-0.4,1.0,0.0,261.0,933.0,0.0,0,1806.0,1
492,492,0.10729433463298121,0.1,0.0,0.0,362.0,579.0,0.0,1,2059.0,1
493,493,0.8294381399887875,0.8,0.0,0.0,296.0,635.0,0.0,1,-881.0,1
494,494,-0.46103877289020323,-0.5,0.0,1.0,377.0,591.0,0.0,1,2032.0,0
495,495,0.3709746236297865,0.4,1.0,1.0,498.0,916.0,0.0,0,1586.0,0
496,496,-0.848049529049781,-0.8,1.0,0.0,264.0,955.0,1.0,1,-1139.0,0
497,497,0.5953767751207454,0.6,1.0,1.0,422.0,866.0,0.0,0,1712.0,0
498,498,-0.6039940485948738,-0.6,0.0,1.0,433.0,823.0,0.0,1,1744.0,0
499,499,-0.5351710053296019,-0.5,0.0,1.0,330.0,667.0,0.0,1,2003.0,0
500,500,-0.6981996617801951,-0.7,1.0,0.0,274.0,964.0,0.0,0,1762.0,1
501,501,0.5843043995380383,0.6,0.0,0.0,279.0,888.0,0.0,1,1833.0,1
502,502,0.7809890269191718,0.8,1.0,1.0,289.0,768.0,0.0,0,1943.0,0
503,503,0.09676241164227428,0.1,1.0,1.0,409.0,886.0,0.0,0,1705.0,0
504,504,-0.36340799116070177,-0.4,0.0,1.0,328.0,999.0,0.0,1,1673.0,0
505,505,-0.3522002484148161,-0.4,1.0,0.0,342.0,714.0,0.0,0,1944.0,1
506,506,-0.7334299785913246,-0.7,0.0,1.0,406.0,816.0,0.0,1,-1112.0,0
507,507,0.1356877558777171,0.1,0.0,0.0,417.0,646.0,0.0,1,1937.0,1
508,508,0.03304897705899701,0.0,1.0,1.0,434.0,921.0,0.0,0,1645.0,0
509,509,-0.0678925217479861,-0.1,1.0,0.0,385.0,504.0,0.0,0,2111.0,1
510,510,0.2679035848240724,0.3,1.0,1.0,462.0,674.0,0.0,0,1864.0,0
511,511,0.45020144310834953,0.5,1.0,1.0,261.0,890.0,0.0,0,1849.0,0
512,512,0.8491866003052208,0.8,0.0,0.0,448.0,551.0,0.0,1,2001.0,1
513,513,-0.17997104971053868,-0.2,0.0,1.0,274.0,719.0,0.0,1,2007.0,0
514,514,-0.4166322738819989,-0.4,0.0,1.0,289.0,802.0,0.0,1,1909.0,0
515,515,0.021092726729656786,0.0,0.0,0.0,394.0,589.0,0.0,1,2017.0,1
516,516,0.5291378573206477,0.5,1.0,1.0,339.0,690.0,0.0,0,1971.0,0
517,517,0.7985382794530734,0.8,1.0,1.0,415.0,899.0,0.0,0,1686.0,0
518,518,-0.5404985630808714,-0.5,0.0,1.0,459.0,879.0,0.0,1,1662.0,0
519,519,-0.8027566872065265,-0.8,0.0,1.0,397.0,902.0,0.0,1,1701.0,0
520,520,-0.8419262105053956,-0.8,0.0,1.0,334.0,869.0,0.0,1,1797.0,0
521,521,0.18558602233719135,0.2,1.0,1.0,307.0,599.0,0.0,0,2094.0,0
522,522,0.39242393010778487,0.4,1.0,1.0,302.0,744.0,0.0,0,1954.0,0
523,523,-0.33074995392154427,-0.3,1.0,0.0,307.0,733.0,0.0,0,1960.0,1
524,524,0.6350756351114629,0.6,0.0,0.0,418.0,547.0,0.0,1,2035.0,1
525,525,0.3656423773707672,0.4,1.0,1.0,340.0,766.0,0.0,0,1894.0,0
526,526,-0.6733405841036991,-0.7,0.0,1.0,404.0,953.0,0.0,1,1643.0,0
527,527,-0.4181520399740293,-0.4,0.0,1.0,288.0,721.0,0.0,1,1991.0,0
528,528,-0.17180609791565038,-0.2,0.0,1.0,360.0,535.0,0.0,1,-865.0,0
529,529,0.879123216778693,0.9,0.0,0.0,326.0,940.0,0.0,1,1734.0,1
530,530,-0.6162344252181078,-0.6,0.0,1.0,379.0,974.0,0.0,1,1647.0,0
531,531,0.6379154158905388,0.6,0.0,0.0,416.0,878.0,0.0,1,1706.0,1
532,532,-0.6097922646062846,-0.6,0.0,1.0,385.0,983.0,0.0,1,1632.0,0
533,533,-0.2403809562644421,-0.2,1.0,0.0,471.0,873.0,0.0,0,1656.0,1
534,534,0.30870913536324507,0.3,1.0,1.0,498.0,648.0,0.0,0,1854.0,0
535,535,-0.22431032244115467,-0.2,1.0,0.0,447.0,717.0,0.0,0,1836.0,1
536,536,0.3407527663815967,0.3,0.0,0.0,478.0,736.0,0.0,1,1786.0,1
537,537,-0.3344909783130968,-0.3,0.0,1.0,282.0,663.0,0.0,1,2055.0,0
538,538,-0.849752842492935,-0.8,0.0,1.0,267.0,647.0,0.0,1,2086.0,0
539,539,0.31240482629641286,0.3,1.0,1.0,364.0,632.0,0.0,0,2004.0,0
540,540,-0.21425291395994106,-0.2,0.0,1.0,494.0,720.0,0.0,1,1786.0,0
541,541,0.438064348856695,0.4,0.0,0.0,372.0,868.0,0.0,1,1760.0,1
542,542,0.8835325442649936,0.9,1.0,1.0,461.0,687.0,0.0,0,1852.0,0
543,543,-0.35099113428357587,-0.4,1.0,0.0,309.0,942.0,0.0,0,-1221.0,1
544,544,0.4308009097414375,0.4,1.0,1.0,474.0,893.0,0.0,0,1633.0,0
545,545,0.7230364618159867,0.7,1.0,1.0,444.0,817.0,0.0,0,1739.0,0
546,546,0.47789043584565294,0.5,0.0,0.0,345.0,696.0,0.0,1,1959.0,1
547,547,-0.05551798002993025,-0.1,0.0,1.0,352.0,750.0,0.0,1,1898.0,0
548,548,-0.8491507074724535,-0.8,1.0,0.0,316.0,825.0,0.0,0,1859.0,1
549,549,0.3094769358817083,0.3,1.0,1.0,434.0,522.0,0.0,0,2044.0,0
550,550,0.3053841326697996,0.3,0.0,0.0,333.0,659.0,0.0,1,2008.0,1
551,551,-0.6397065769247829,-0.6,0.0,1.0,388.0,884.0,0.0,1,1728.0,0
552,552,0.5244495136419373,0.5,0.0,0.0,366.0,975.0,0.0,1,1659.0,1
553,553,-0.12869817755809188,-0.1,0.0,1.0,484.0,847.0,0.0,1,1669.0,0
554,554,-0.010909531260912542,-0.0,0.0,1.0,414.0,600.0,0.0,1,1986.0,0
555,555,-0.21850795920420052,-0.2,1.0,0.0,393.0,744.0,0.0,0,1863.0,1
556,556,0.26217640529218855,0.3,0.0,0.0,426.0,785.0,0.0,1,1789.0,1
557,557,0.4322676314061137,0.4,0.0,0.0,398.0,895.0,0.0,1,1707.0,1
558,558,-0.13119782325459672,-0.1,1.0,0.0,286.0,518.0,0.0,0,2196.0,1
559,559,0.30791862303402817,0.3,1.0,1.0,489.0,878.0,0.0,0,1633.0,0
560,560,-0.4079035572543281,-0.4,1.0,0.0,408.0,618.0,0.0,0,1974.0,1
561,561,-0.29493628273449757,-0.3,0.0,1.0,470.0,903.0,0.0,1,1627.0,0
562,562,-0.5070985217980504,-0.5,0.0,1.0,396.0,536.0,0.0,1,2068.0,0
563,563,0.298097787105413,0.3,1.0,1.0,495.0,970.0,1.0,1,-1425.0,1
564,564,0.6341388199528813,0.6,0.0,0.0,365.0,944.0,0.0,1,1691.0,1
565,565,0.8857075354625811,0.9,0.0,0.0,479.0,612.0,0.0,1,1909.0,1
566,566,0.2317248391757093,0.2,0.0,0.0,442.0,875.0,0.0,1,1683.0,1
567,567,0.14843836529939425,0.1,0.0,0.0,293.0,612.0,0.0,1,2095.0,1
568,568,-0.11756872845097022,-0.1,1.0,0.0,361.0,916.0,0.0,0,1723.0,1
569,569,-0.6717416963734751,-0.7,1.0,0.0,295.0,688.0,0.0,0,2017.0,1
570,570,-0.40315580104715726,-0.4,1.0,0.0,443.0,529.0,0.0,0,2028.0,1
571,571,0.8395619167290665,0.8,0.0,0.0,452.0,657.0,0.0,1,1891.0,1
572,572,-0.5222695778779827,-0.5,0.0,1.0,331.0,926.0,0.0,1,1743.0,0
573,573,0.7945727189781485,0.8,0.0,0.0,291.0,775.0,0.0,1,1934.0,1
574,574,-0.3769777522260971,-0.4,0.0,1.0,374.0,762.0,0.0,1,1864.0,0
575,575,0.2497735530430284,0.2,1.0,1.0,316.0,866.0,0.0,0,1818.0,0
576,576,0.5435714835252693,0.5,0.0,0.0,268.0,691.0,0.0,1,2041.0,1
577,577,-0.7745379183953143,-0.8,1.0,0.0,481.0,690.0,0.0,0,1829.0,1
578,578,0.3617044941403752,0.4,0.0,0.0,263.0,637.0,0.0,1,2100.0,1
579,579,-0.6578884002509906,-0.7,1.0,0.0,270.0,668.0,0.0,0,2062.0,1
580,580,0.7012144232822909,0.7,1.0,1.0,465.0,667.0,0.0,0,1868.0,0
581,581,0.77815700188341,0.8,0.0,0.0,277.0,665.0,0.0,1,2058.0,1
582,582,-0.6367974883438914,-0.6,0.0,1.0,267.0,969.0,0.0,1,1764.0,0
583,583,-0.6171127513292141,-0.6,0.0,1.0,382.0,715.0,0.0,1,1903.0,0
584,584,0.3863813828652666,0.4,0.0,0.0,362.0,923.0,0.0,1,1715.0,1
585,585,0.8217808348909762,0.8,0.0,0.0,311.0,791.0,0.0,1,1898.0,1
586,586,-0.1787145751762228,-0.2,1.0,0.0,377.0,673.0,0.0,0,1950.0,1
587,587,0.25810016760758814,0.3,0.0,0.0,424.0,552.0,0.0,1,2024.0,1
588,588,0.6795219369942961,0.7,1.0,1.0,409.0,608.0,0.0,0,1983.0,0
589,589,-0.7432010778649083,-0.7,0.0,1.0,286.0,745.0,0.0,1,1969.0,0
590,590,0.17566117484307087,0.2,0.0,0.0,421.0,595.0,0.0,1,1984.0,1
591,591,-0.754551755011633,-0.8,0.0,1.0,360.0,504.0,0.0,1,2136.0,0
592,592,0.11463671465066916,0.1,1.0,1.0,497.0,856.0,0.0,0,1647.0,0
593,593,-0.6978112031797937,-0.7,1.0,0.0,408.0,528.0,0.0,0,2064.0,1
594,594,0.0978541230779244,0.1,1.0,1.0,477.0,855.0,0.0,0,1668.0,0
595,595,-0.0004668334476307656,-0.0,0.0,1.0,282.0,811.0,0.0,1,1907.0,0
596,596,-0.44830676174702255,-0.4,1.0,0.0,315.0,837.0,0.0,0,1848.0,1
597,597,0.13376542962950955,0.1,1.0,1.0,285.0,807.0,1.0,1,-992.0,1
598,598,-0.31221852852929577,-0.3,1.0,0.0,313.0,982.0,0.0,0,1705.0,1
599,599,-0.1837278372692247,-0.2,0.0,1.0,432.0,790.0,0.0,1,1778.0,0
600,600,0.606542023930671,0.6,0.0,0.0,320.0,828.0,0.0,1,1852.0,1
601,601,0.4321918593501516,0.4,0.0,0.0,335.0,745.0,0.0,1,1920.0,1
602,602,0.7964732150330412,0.8,0.0,0.0,470.0,573.0,0.0,1,1957.0,1
603,603,-0.63791663506812,-0.6,1.0,0.0,275.0,840.0,0.0,0,1885.0,1
604,604,-0.13099473329645506,-0.1,1.0,0.0,264.0,864.0,0.0,0,1872.0,1
605,605,0.2933210321022882,0.3,0.0,0.0,341.0,705.0,0.0,1,1954.0,1
606,606,0.2834529895877428,0.3,0.0,0.0,362.0,718.0,0.0,1,1920.0,1
607,607,0.8910290699817008,0.9,1.0,1.0,353.0,970.0,1.0,1,-1303.0,1
608,608,0.7074229453891915,0.7,0.0,0.0,298.0,809.0,0.0,1,1893.0,1
609,609,-0.3294130451006386,-0.3,1.0,0.0,489.0,943.0,0.0,0,-1292.0,1
610,610,0.05074938606386736,0.1,1.0,1.0,386.0,574.0,0.0,0,2040.0,0
611,611,-0.15785183051290974,-0.2,1.0,0.0,267.0,780.0,0.0,0,1953.0,1
612,612,0.7464269946354524,0.7,1.0,1.0,324.0,721.0,0.0,0,1955.0,0
613,613,-0.533788628787168,-0.5,1.0,0.0,385.0,748.0,0.0,0,1867.0,1
614,614,0.8331452410520609,0.8,0.0,0.0,318.0,566.0,0.0,1,2116.0,1
615,615,-0.23764036300731428,-0.2,0.0,1.0,307.0,683.0,0.0,1,2010.0,0
616,616,-0.5522377163479892,-0.6,1.0,0.0,281.0,803.0,0.0,0,1916.0,1
617,617,0.5228389928600629,0.5,1.0,1.0,423.0,825.0,0.0,0,1752.0,0
618,618,-0.8304122899435605,-0.8,0.0,1.0,434.0,543.0,0.0,1,2023.0,0
619,619,0.16265310701520008,0.2,1.0,1.0,499.0,832.0,0.0,0,1669.0,0
620,620,0.012719745692151396,0.0,0.0,0.0,315.0,594.0,0.0,1,2091.0,1
621,621,-0.21420307890798052,-0.2,1.0,0.0,365.0,892.0,0.0,0,1743.0,1
622,622,0.7867781278865992,0.8,1.0,1.0,312.0,793.0,0.0,0,1895.0,0
623,623,-0.7135008410312097,-0.7,1.0,0.0,282.0,607.0,0.0,0,2111.0,1
624,624,-0.8977100602554746,-0.9,0.0,1.0,291.0,550.0,0.0,1,2159.0,0
625,625,0.7377801986460552,0.7,0.0,0.0,421.0,994.0,0.0,1,1585.0,1
626,626,-0.8668239180825291,-0.9,0.0,1.0,284.0,883.0,0.0,1,1833.0,0
627,627,0.33948123202824687,0.3,1.0,1.0,349.0,984.0,0.0,0,1667.0,0
628,628,0.3782218234983753,0.4,1.0,1.0,450.0,812.0,1.0,1,-1122.0,1
629,629,-0.4664475240803278,-0.5,1.0,0.0,378.0,747.0,0.0,0,1875.0,1
630,630,0.15640118508501832,0.2,0.0,0.0,306.0,663.0,0.0,1,2031.0,1
631,631,0.6254645156715072,0.6,0.0,0.0,273.0,873.0,1.0,0,-1146.0,0
632,632,0.1763583332244888,0.2,1.0,1.0,466.0,551.0,0.0,0,1983.0,0
633,633,0.23451310643412138,0.2,1.0,1.0,405.0,703.0,0.0,0,1892.0,0
634,634,0.035898165709342233,0.0,0.0,0.0,474.0,555.0,1.0,0,-959.0,0
635,635,-0.49952738388410284,-0.5,1.0,0.0,315.0,560.0,0.0,0,2125.0,1
636,636,-0.2185895685881074,-0.2,1.0,0.0,435.0,968.0,0.0,0,1597.0,1
637,637,0.5548992678471548,0.6,1.0,1.0,343.0,989.0,0.0,0,1668.0,0
638,638,0.6097570136617362,0.6,1.0,1.0,344.0,733.0,0.0,0,1923.0,0
639,639,-0.14311291801150672,-0.1,1.0,0.0,256.0,696.0,0.0,0,2048.0,1
640,640,-0.5878026461009487,-0.6,0.0,1.0,365.0,734.0,0.0,1,1901.0,0
641,641,-0.89063190928655,-0.9,1.0,0.0,367.0,694.0,0.0,0,1939.0,1
642,642,0.8246497695002192,0.8,1.0,1.0,328.0,534.0,0.0,0,2138.0,0
643,643,-0.23062237068011482,-0.2,0.0,1.0,371.0,504.0,1.0,0,-745.0,1
644,644,0.8457530501789875,0.8,1.0,1.0,378.0,824.0,0.0,0,1798.0,0
645,645,-0.5024880836277423,-0.5,0.0,1.0,408.0,643.0,0.0,1,1949.0,0
646,646,0.246014916956261,0.2,1.0,1.0,487.0,870.0,0.0,0,1643.0,0
647,647,0.6283909630997776,0.6,0.0,0.0,378.0,609.0,0.0,1,2013.0,1
648,648,-0.2768674269679313,-0.3,1.0,0.0,469.0,863.0,0.0,0,1668.0,1
649,649,0.5177394218131516,0.5,0.0,0.0,447.0,692.0,0.0,1,1861.0,1
650,650,-0.4399045444112181,-0.4,0.0,1.0,479.0,668.0,0.0,1,1853.0,0
651,651,0.14468937510323643,0.1,1.0,1.0,366.0,912.0,0.0,0,1722.0,0
652,652,-0.20616599141180358,-0.2,1.0,0.0,473.0,651.0,0.0,0,1876.0,1
653,653,0.6284981616105635,0.6,0.0,0.0,347.0,611.0,0.0,1,2042.0,1
654,654,-0.2899762247851305,-0.3,0.0,1.0,384.0,732.0,0.0,1,1884.0,0
655,655,0.036429133540345604,0.0,0.0,0.0,331.0,629.0,0.0,1,2040.0,1
656,656,0.3947096595332277,0.4,0.0,0.0,330.0,605.0,0.0,1,2065.0,1
657,657,-0.7584152430081126,-0.8,0.0,1.0,456.0,883.0,0.0,1,1661.0,0
658,658,0.021283903344760935,0.0,0.0,0.0,361.0,572.0,0.0,1,2067.0,1
659,659,-0.46126664432432035,-0.5,1.0,0.0,496.0,565.0,0.0,0,1939.0,1
660,660,0.5314866740933474,0.5,0.0,0.0,498.0,684.0,0.0,1,1818.0,1
661,661,0.5221113716640776,0.5,1.0,1.0,459.0,986.0,0.0,0,1555.0,0
662,662,0.547095043010012,0.5,0.0,0.0,322.0,794.0,0.0,1,1884.0,1
663,663,-0.1457723445336272,-0.1,0.0,1.0,412.0,621.0,0.0,1,1967.0,0
664,664,-0.8559192870895616,-0.9,1.0,0.0,393.0,645.0,0.0,0,1962.0,1
665,665,0.4554621895591767,0.5,1.0,1.0,341.0,585.0,0.0,0,2074.0,0
666,666,0.5316624011537227,0.5,1.0,1.0,281.0,740.0,0.0,0,1979.0,0
667,667,-0.7778783707051651,-0.8,1.0,0.0,459.0,760.0,0.0,0,1781.0,1
668,668,-0.3830825836950388,-0.4,0.0,1.0,458.0,841.0,0.0,1,1701.0,0
669,669,0.21645438854828825,0.2,0.0,0.0,376.0,624.0,0.0,1,2000.0,1
670,670,-0.5759154842996413,-0.6,1.0,0.0,312.0,989.0,0.0,0,1699.0,1
671,671,-0.30908240572097345,-0.3,0.0,1.0,256.0,581.0,0.0,1,2163.0,0
672,672,-0.3472301964939052,-0.3,1.0,0.0,466.0,909.0,0.0,0,1625.0,1
673,673,-0.6827122446827734,-0.7,0.0,1.0,492.0,645.0,0.0,1,1863.0,0
674,674,0.2232431970660761,0.2,0.0,0.0,300.0,687.0,0.0,1,2013.0,1
675,675,-0.05029931082344519,-0.1,0.0,1.0,268.0,891.0,0.0,1,1841.0,0
676,676,-0.24584763040352464,-0.2,1.0,0.0,495.0,966.0,0.0,0,1539.0,1
677,677,-0.65356899590187,-0.7,1.0,0.0,275.0,609.0,0.0,0,2116.0,1
678,678,-0.8390163465522561,-0.8,1.0,0.0,499.0,850.0,0.0,0,1651.0,1
679,679,-0.6983614157526709,-0.7,1.0,0.0,303.0,858.0,0.0,0,1839.0,1
680,680,-0.2708315134732934,-0.3,0.0,1.0,350.0,506.0,0.0,1,2144.0,0
681,681,-0.8081719388319561,-0.8,1.0,0.0,343.0,809.0,1.0,1,-1132.0,0
682,682,0.5226269000366354,0.5,1.0,1.0,386.0,920.0,0.0,0,1694.0,0
683,683,0.8565479156717205,0.9,1.0,1.0,276.0,800.0,0.0,0,1924.0,0
684,684,-0.07781015315777862,-0.1,1.0,0.0,278.0,730.0,0.0,0,1992.0,1
685,685,0.3579545782443424,0.4,1.0,1.0,391.0,628.0,0.0,0,1981.0,0
686,686,0.17439819189044858,0.2,0.0,0.0,432.0,997.0,0.0,1,1571.0,1
687,687,0.7889424879674122,0.8,0.0,0.0,377.0,540.0,0.0,1,2083.0,1
688,688,-0.8507590492145798,-0.9,0.0,1.0,402.0,855.0,0.0,1,1743.0,0
689,689,-0.3867318455960216,-0.4,1.0,0.0,470.0,979.0,0.0,0,1551.0,1
690,690,-0.5756689621042902,-0.6,1.0,0.0,344.0,760.0,0.0,0,1896.0,1
691,691,0.3963981444305319,0.4,0.0,0.0,328.0,514.0,0.0,1,2158.0,1
692,692,0.39741636801390856,0.4,0.0,0.0,264.0,712.0,0.0,1,2024.0,1
693,693,0.6218053978812185,0.6,0.0,0.0,366.0,783.0,0.0,1,-1139.0,1
694,694,0.8330463047988453,0.8,0.0,0.0,455.0,758.0,0.0,1,1787.0,1
695,695,-0.6169145919238029,-0.6,1.0,0.0,298.0,759.0,0.0,0,1943.0,1
696,696,-0.0815385733011268,-0.1,1.0,0.0,375.0,527.0,0.0,0,2098.0,1
697,697,-0.6749024318198295,-0.7,0.0,1.0,288.0,672.0,0.0,1,2040.0,0
698,698,0.8712860317214409,0.9,1.0,1.0,292.0,933.0,0.0,0,-1225.0,0
699,699,0.47001912937661106,0.5,0.0,0.0,416.0,691.0,0.0,1,1893.0,1
700,700,-0.2107984901734945,-0.2,0.0,1.0,480.0,609.0,0.0,1,1911.0,0
701,701,0.2806806287910605,0.3,0.0,0.0,343.0,500.0,0.0,1,2157.0,1
702,702,0.03710237233862357,0.0,0.0,0.0,410.0,656.0,0.0,1,1934.0,1
703,703,-0.380255786522501,-0.4,0.0,1.0,480.0,829.0,1.0,0,-1299.0,1
704,704,0.7994346749537403,0.8,0.0,0.0,315.0,552.0,0.0,1,2133.0,1
705,705,-0.4985808858710388,-0.5,1.0,0.0,266.0,774.0,0.0,0,1960.0,1
706,706,0.8931340750058815,0.9,0.0,0.0,355.0,541.0,0.0,1,2104.0,1
707,707,-0.584382865068427,-0.6,0.0,1.0,394.0,817.0,0.0,1,1789.0,0
708,708,-0.541151780370812,-0.5,1.0,0.0,264.0,576.0,0.0,0,2160.0,1
709,709,-0.008897087170632423,-0.0,0.0,1.0,466.0,676.0,1.0,0,-1082.0,1
710,710,-0.7801945661123127,-0.8,1.0,0.0,433.0,723.0,0.0,0,1844.0,1
711,711,0.01618924478326844,0.0,1.0,1.0,290.0,859.0,0.0,0,1851.0,0
712,712,0.4887802597375882,0.5,1.0,1.0,310.0,932.0,0.0,0,1758.0,0
713,713,0.2639017216536016,0.3,0.0,0.0,252.0,560.0,0.0,1,2188.0,1
714,714,-0.4526738806635518,-0.5,1.0,0.0,403.0,928.0,0.0,0,1669.0,1
715,715,0.2604836623802188,0.3,0.0,0.0,498.0,544.0,0.0,1,1958.0,1
716,716,0.3821932982628885,0.4,0.0,0.0,451.0,645.0,0.0,1,1904.0,1
717,717,0.8243766818867347,0.8,0.0,0.0,344.0,682.0,0.0,1,1974.0,1
718,718,0.038350257897383444,0.0,1.0,1.0,486.0,861.0,0.0,0,1653.0,0
719,719,-0.1320137327502019,-0.1,0.0,1.0,310.0,971.0,0.0,1,1719.0,0
720,720,0.10081923085633282,0.1,1.0,1.0,429.0,972.0,0.0,0,1599.0,0
721,721,-0.30390191927681376,-0.3,0.0,1.0,495.0,530.0,0.0,1,1975.0,0
722,722,0.38112737060292246,0.4,0.0,0.0,453.0,849.0,0.0,1,1698.0,1
723,723,0.3067153348550281,0.3,1.0,1.0,262.0,692.0,0.0,0,2046.0,0
724,724,-0.7139633091385988,-0.7,0.0,1.0,389.0,673.0,0.0,1,1938.0,0
725,725,0.0010025595521140351,0.0,1.0,1.0,401.0,618.0,1.0,1,-979.0,1
726,726,-0.39005723237383416,-0.4,1.0,0.0,362.0,709.0,0.0,0,1929.0,1
727,727,-0.4256080594791963,-0.4,1.0,0.0,387.0,985.0,0.0,0,1628.0,1
728,728,-0.3841621178265493,-0.4,1.0,0.0,293.0,513.0,0.0,0,2194.0,1
729,729,-0.7196751861375454,-0.7,1.0,0.0,431.0,594.0,0.0,0,1975.0,1
730,730,0.6926898128855142,0.7,0.0,0.0,339.0,709.0,0.0,1,1952.0,1
731,731,0.40622626228635494,0.4,0.0,0.0,454.0,993.0,0.0,1,-1327.0,1
732,732,-0.4168683044585122,-0.4,0.0,1.0,466.0,531.0,0.0,1,2003.0,0
733,733,0.5469486840696555,0.5,0.0,0.0,256.0,834.0,0.0,1,1910.0,1
734,734,-0.011865364168693993,-0.0,1.0,0.0,271.0,717.0,0.0,0,2012.0,1
735,735,0.8280670733035921,0.8,1.0,1.0,433.0,846.0,0.0,0,1721.0,0
736,736,0.6809358289819657,0.7,1.0,1.0,372.0,516.0,0.0,0,2112.0,0
737,737,0.4101749475898512,0.4,0.0,0.0,479.0,646.0,0.0,1,1875.0,1
738,738,0.6886080715301003,0.7,1.0,1.0,483.0,621.0,0.0,0,1896.0,0
739,739,0.4196420411029088,0.4,1.0,1.0,489.0,614.0,0.0,0,1897.0,0
740,740,0.569926848718659,0.6,1.0,1.0,284.0,721.0,0.0,0,1995.0,0
741,741,0.7628988098665662,0.8,0.0,0.0,451.0,652.0,0.0,1,1897.0,1
742,742,-0.6550678388819758,-0.7,1.0,0.0,342.0,538.0,0.0,0,2120.0,1
743,743,0.6166053415846234,0.6,1.0,1.0,425.0,922.0,1.0,1,-1347.0,1
744,744,0.4623784375172765,0.5,1.0,1.0,451.0,908.0,0.0,0,1641.0,0
745,745,-0.6078115818566883,-0.6,1.0,0.0,261.0,967.0,0.0,0,1772.0,1
746,746,-0.8269740639113898,-0.8,0.0,1.0,377.0,513.0,0.0,1,2110.0,0
747,747,-0.29723321493990207,-0.3,1.0,0.0,391.0,741.0,0.0,0,1868.0,1
748,748,-0.22421868570149206,-0.2,0.0,1.0,429.0,703.0,0.0,1,1868.0,0
749,749,0.7322160470829769,0.7,0.0,0.0,436.0,644.0,0.0,1,1920.0,1
750,750,0.029166704187383874,0.0,0.0,0.0,403.0,664.0,0.0,1,1933.0,1
751,751,0.1966716002902501,0.2,0.0,0.0,403.0,908.0,0.0,1,1689.0,1
752,752,-0.054455037029096376,-0.1,0.0,1.0,389.0,976.0,0.0,1,1635.0,0
753,753,0.8395938706394518,0.8,1.0,1.0,451.0,879.0,1.0,1,-1300.0,1
754,754,0.40584429411851664,0.4,0.0,0.0,437.0,594.0,0.0,1,1969.0,1
755,755,-0.6172669322576878,-0.6,0.0,1.0,397.0,728.0,0.0,1,1875.0,0
756,756,0.5615835737664808,0.6,0.0,0.0,280.0,561.0,0.0,1,2159.0,1
757,757,0.5961060109346398,0.6,1.0,1.0,382.0,621.0,0.0,0,1997.0,0
758,758,-0.35550952142744974,-0.4,0.0,1.0,496.0,949.0,0.0,1,1555.0,0
759,759,0.016233659261038147,0.0,0.0,0.0,449.0,633.0,0.0,1,1918.0,1
760,760,0.27222093705320993,0.3,0.0,0.0,390.0,599.0,0.0,1,2011.0,1
761,761,-0.8799862746793983,-0.9,1.0,0.0,481.0,873.0,0.0,0,1646.0,1
762,762,-0.6658975964518512,-0.7,0.0,1.0,405.0,815.0,0.0,1,1780.0,0
763,763,-0.8157633062350013,-0.8,0.0,1.0,283.0,774.0,0.0,1,1943.0,0
764,764,0.2105127107190795,0.2,1.0,1.0,454.0,598.0,1.0,1,-1002.0,1
765,765,-0.8528746124866484,-0.9,0.0,1.0,425.0,653.0,0.0,1,1922.0,0
766,766,-0.8280522840585886,-0.8,1.0,0.0,459.0,567.0,0.0,0,1974.0,1
767,767,-0.17030377250022233,-0.2,1.0,0.0,486.0,800.0,0.0,0,1714.0,1
768,768,0.722788207334706,0.7,1.0,1.0,317.0,939.0,0.0,0,1744.0,0
769,769,-0.5723560229878041,-0.6,0.0,1.0,428.0,597.0,0.0,1,1975.0,0
770,770,0.05004907955563964,0.1,1.0,1.0,313.0,948.0,0.0,0,1739.0,0
771,771,-0.3599860574945122,-0.4,0.0,1.0,288.0,827.0,0.0,1,1885.0,0
772,772,0.30962559405545764,0.3,0.0,0.0,387.0,952.0,0.0,1,1661.0,1
773,773,-0.5031366528221691,-0.5,0.0,1.0,314.0,871.0,0.0,1,1815.0,0
774,774,0.7001334801684164,0.7,0.0,0.0,370.0,654.0,0.0,1,1976.0,1
775,775,0.5101446360504082,0.5,0.0,0.0,376.0,614.0,0.0,1,2010.0,1
776,776,-0.44851267038138065,-0.4,0.0,1.0,392.0,611.0,0.0,1,1997.0,0
777,777,-0.8766491234684721,-0.9,0.0,1.0,408.0,553.0,0.0,1,2039.0,0
778,778,-0.3380629917495841,-0.3,1.0,0.0,484.0,706.0,0.0,0,1810.0,1
779,779,-0.8010110524494032,-0.8,0.0,1.0,445.0,877.0,0.0,1,1678.0,0
780,780,-0.7900484899304205,-0.8,1.0,0.0,477.0,695.0,0.0,0,1828.0,1
781,781,0.8241460249516962,0.8,1.0,1.0,291.0,683.0,0.0,0,2026.0,0
782,782,0.7600912717747453,0.8,0.0,0.0,385.0,935.0,0.0,1,1680.0,1
783,783,0.4806068314184019,0.5,1.0,1.0,427.0,598.0,0.0,0,1975.0,0
784,784,-0.3786025450504822,-0.4,0.0,1.0,408.0,841.0,0.0,1,1751.0,0
785,785,0.6409283887952079,0.6,1.0,1.0,306.0,538.0,0.0,0,2156.0,0
786,786,0.7571399038632786,0.8,0.0,0.0,275.0,732.0,0.0,1,1993.0,1
787,787,-0.2663674830296221,-0.3,0.0,1.0,283.0,633.0,0.0,1,2084.0,0
788,788,-0.08825007100124727,-0.1,0.0,1.0,325.0,952.0,0.0,1,1723.0,0
789,789,0.35878981983306824,0.4,1.0,1.0,325.0,529.0,0.0,0,2146.0,0
790,790,-0.2487205779974092,-0.2,0.0,1.0,307.0,987.0,0.0,1,1706.0,0
791,791,-0.24105347237159414,-0.2,0.0,1.0,423.0,812.0,0.0,1,1765.0,0
792,792,0.8619308645963611,0.9,0.0,0.0,287.0,573.0,0.0,1,2140.0,1
793,793,0.11243380593342744,0.1,0.0,0.0,342.0,618.0,0.0,1,2040.0,1
794,794,-0.6623221040332636,-0.7,1.0,0.0,423.0,625.0,0.0,0,1952.0,1
795,795,0.49758553801293204,0.5,1.0,1.0,374.0,831.0,0.0,0,1795.0,0
796,796,0.5444775451851825,0.5,0.0,0.0,482.0,648.0,0.0,1,1870.0,1
797,797,-0.8087863015995886,-0.8,0.0,1.0,435.0,942.0,1.0,0,-1277.0,1
798,798,0.5893955596744037,0.6,1.0,1.0,376.0,754.0,0.0,0,1870.0,0
799,799,-0.2892838420192656,-0.3,1.0,0.0,379.0,707.0,0.0,0,1914.0,1
800,800,0.2425489450017032,0.2,0.0,0.0,428.0,694.0,0.0,1,1878.0,1
801,801,0.13378527488215342,0.1,0.0,0.0,450.0,519.0,0.0,1,2031.0,1
802,802,0.23841887735587142,0.2,1.0,1.0,373.0,939.0,0.0,0,1688.0,0
803,803,-0.4261828837541653,-0.4,1.0,0.0,451.0,517.0,0.0,0,2032.0,1
804,804,-0.7706230510226338,-0.8,1.0,0.0,424.0,771.0,0.0,0,1805.0,1
805,805,0.12954714847784754,0.1,1.0,1.0,339.0,555.0,0.0,0,2106.0,0
806,806,0.6399476324295913,0.6,0.0,0.0,263.0,518.0,0.0,1,2219.0,1
807,807,0.8792429785175017,0.9,1.0,1.0,338.0,674.0,0.0,0,1988.0,0
808,808,-0.8053743062768739,-0.8,1.0,0.0,423.0,824.0,0.0,0,1753.0,1
809,809,-0.21523563026577675,-0.2,1.0,0.0,323.0,651.0,0.0,0,2026.0,1
810,810,-0.13078907386713157,-0.1,0.0,1.0,399.0,861.0,1.0,0,-1240.0,1
811,811,-0.16242082100591793,-0.2,0.0,1.0,265.0,692.0,0.0,1,2043.0,0
812,812,0.853434189589431,0.9,1.0,1.0,322.0,627.0,0.0,0,2051.0,0
813,813,-0.1531039177141429,-0.2,0.0,1.0,384.0,530.0,0.0,1,2086.0,0
814,814,-0.08407920606040764,-0.1,1.0,0.0,445.0,755.0,0.0,0,1800.0,1
815,815,-0.4261583786557888,-0.4,0.0,1.0,367.0,754.0,0.0,1,1879.0,0
816,816,-0.261841321380883,-0.3,1.0,0.0,390.0,507.0,0.0,0,2103.0,1
817,817,0.14975100209065528,0.1,0.0,0.0,352.0,837.0,0.0,1,1811.0,1
818,818,0.42646173062081216,0.4,0.0,0.0,289.0,889.0,0.0,1,1822.0,1
819,819,-0.23350430705965664,-0.2,1.0,0.0,418.0,927.0,0.0,0,1655.0,1
820,820,-0.035415913942801414,-0.0,0.0,1.0,257.0,843.0,0.0,1,1900.0,0
821,821,0.7268780881006901,0.7,1.0,1.0,360.0,674.0,0.0,0,1966.0,0
822,822,0.38552062420448385,0.4,1.0,1.0,384.0,942.0,0.0,0,1674.0,0
823,823,-0.469676021880313,-0.5,0.0,1.0,444.0,876.0,0.0,1,1680.0,0
824,824,0.308294058772954,0.3,0.0,0.0,294.0,779.0,0.0,1,1927.0,1
825,825,-0.45408962685609144,-0.5,0.0,1.0,375.0,677.0,0.0,1,1948.0,0
826,826,-0.007145641578826911,-0.0,0.0,1.0,383.0,947.0,0.0,1,1670.0,0
827,827,-0.7635023837724833,-0.8,1.0,0.0,381.0,830.0,0.0,0,1789.0,1
828,828,-0.4564418473950142,-0.5,0.0,1.0,366.0,611.0,0.0,1,2023.0,0
829,829,-0.5519604435139854,-0.6,0.0,1.0,343.0,664.0,0.0,1,1993.0,0
830,830,-0.6779244902186079,-0.7,0.0,1.0,351.0,985.0,0.0,1,1664.0,0
831,831,-0.8578916529524486,-0.9,1.0,0.0,435.0,630.0,0.0,0,1935.0,1
832,832,-0.6521953516324175,-0.7,1.0,0.0,401.0,854.0,0.0,0,1745.0,1
833,833,0.8761609049564819,0.9,1.0,1.0,264.0,814.0,0.0,0,1922.0,0
834,834,-0.33474124974315145,-0.3,1.0,0.0,338.0,768.0,0.0,0,1894.0,1
835,835,-0.6660798131520455,-0.7,1.0,0.0,342.0,615.0,0.0,0,-867.0,1
836,836,0.2541045324512706,0.3,0.0,0.0,480.0,689.0,1.0,0,-1119.0,0
837,837,0.31436965392306504,0.3,0.0,0.0,342.0,558.0,0.0,1,2100.0,1
838,838,0.22456677220481336,0.2,1.0,1.0,345.0,844.0,0.0,0,1811.0,0
839,839,-0.5978870635625386,-0.6,0.0,1.0,318.0,814.0,0.0,1,1868.0,0
840,840,0.842985298904514,0.8,0.0,0.0,266.0,939.0,0.0,1,1795.0,1
841,841,0.3208869579104673,0.3,1.0,1.0,270.0,514.0,0.0,0,2216.0,0
842,842,0.30658311851017406,0.3,1.0,1.0,300.0,785.0,0.0,0,1915.0,0
843,843,-0.5757022750678908,-0.6,1.0,0.0,314.0,581.0,0.0,0,2105.0,1
844,844,-0.8673030919204975,-0.9,0.0,1.0,256.0,800.0,0.0,1,1944.0,0
845,845,-0.18737485837103218,-0.2,1.0,0.0,493.0,741.0,1.0,1,-1194.0,0
846,846,0.2638435088259833,0.3,0.0,0.0,478.0,549.0,0.0,1,1973.0,1
847,847,0.03730346737020773,0.0,1.0,1.0,270.0,549.0,0.0,0,-739.0,0
848,848,-0.5258464752625736,-0.5,0.0,1.0,458.0,727.0,0.0,1,1815.0,0
849,849,0.679402076951572,0.7,0.0,0.0,341.0,886.0,0.0,1,-1187.0,1
850,850,0.5873325908082935,0.6,1.0,1.0,301.0,622.0,0.0,0,2077.0,0
851,851,0.3489533534063064,0.3,1.0,1.0,363.0,911.0,0.0,0,1726.0,0
852,852,0.6915920167951709,0.7,0.0,0.0,348.0,632.0,0.0,1,2020.0,1
853,853,0.633203759918812,0.6,1.0,1.0,321.0,863.0,0.0,0,1816.0,0
854,854,0.4996268823286262,0.5,0.0,0.0,470.0,618.0,0.0,1,1912.0,1
855,855,-0.17203242540914365,-0.2,0.0,1.0,334.0,636.0,0.0,1,2030.0,0
856,856,-0.18952178464668779,-0.2,0.0,1.0,406.0,791.0,0.0,1,1803.0,0
857,857,-0.5625499514339007,-0.6,1.0,0.0,317.0,784.0,0.0,0,1899.0,1
858,858,0.6712339295565278,0.7,0.0,0.0,494.0,647.0,0.0,1,1859.0,1
859,859,0.14660167924215972,0.1,0.0,0.0,313.0,701.0,0.0,1,1986.0,1
860,860,0.6726815501793911,0.7,1.0,1.0,488.0,633.0,0.0,0,1879.0,0
861,861,0.24056776455248718,0.2,1.0,1.0,482.0,500.0,0.0,0,2018.0,0
862,862,0.31604086338331594,0.3,1.0,1.0,420.0,651.0,0.0,0,1929.0,0
863,863,-0.6992036331395082,-0.7,1.0,0.0,337.0,611.0,0.0,0,2052.0,1
864,864,-0.8307740370809272,-0.8,1.0,0.0,318.0,894.0,0.0,0,1788.0,1
865,865,0.07111491309912654,0.1,1.0,1.0,389.0,957.0,0.0,0,1654.0,0
866,866,0.7288870986497461,0.7,1.0,1.0,465.0,526.0,0.0,0,2009.0,0
867,867,-0.27213100595690654,-0.3,0.0,1.0,404.0,884.0,1.0,0,-1198.0,1
868,868,0.19177540339023957,0.2,1.0,1.0,431.0,830.0,0.0,0,1739.0,0
869,869,0.3145373434857234,0.3,1.0,1.0,389.0,817.0,0.0,0,1794.0,0
870,870,0.5283789992135103,0.5,1.0,1.0,475.0,668.0,0.0,0,1857.0,0
871,871,0.24724383866751232,0.2,0.0,0.0,480.0,609.0,0.0,1,1911.0,1
872,872,-0.1494582449097448,-0.1,0.0,1.0,435.0,768.0,0.0,1,1797.0,0
873,873,0.6790211449414504,0.7,1.0,1.0,433.0,930.0,0.0,0,1637.0,0
874,874,0.8424688964323811,0.8,0.0,0.0,266.0,762.0,0.0,1,1972.0,1
875,875,-0.20621786237991158,-0.2,0.0,1.0,478.0,945.0,0.0,1,1577.0,0
876,876,0.29648593945948865,0.3,1.0,1.0,401.0,726.0,0.0,0,1873.0,0
877,877,0.1649528944542148,0.2,0.0,0.0,339.0,580.0,0.0,1,2081.0,1
878,878,-0.7229900815179591,-0.7,0.0,1.0,373.0,998.0,0.0,1,1629.0,0
879,879,-0.4757282644312556,-0.5,0.0,1.0,360.0,596.0,0.0,1,2044.0,0
880,880,0.5202809150341144,0.5,0.0,0.0,363.0,663.0,1.0,0,-916.0,0
881,881,-0.734208402509459,-0.7,0.0,1.0,445.0,763.0,0.0,1,1792.0,0
882,882,-0.25397038467971367,-0.3,0.0,1.0,414.0,793.0,0.0,1,1793.0,0
883,883,0.17470189268553982,0.2,1.0,1.0,485.0,857.0,0.0,0,1658.0,0
884,884,0.7852163985990764,0.8,1.0,1.0,357.0,964.0,0.0,0,1679.0,0
885,885,0.38690616444663284,0.4,0.0,0.0,374.0,965.0,0.0,1,1661.0,1
886,886,-0.5114133889486357,-0.5,1.0,0.0,285.0,697.0,0.0,0,2018.0,1
887,887,0.498396187852426,0.5,0.0,0.0,387.0,521.0,0.0,1,2092.0,1
888,888,0.7307682116371835,0.7,1.0,1.0,372.0,520.0,0.0,0,2108.0,0
889,889,0.03298197606372233,0.0,1.0,1.0,391.0,517.0,0.0,0,2092.0,0
890,890,-0.2736855971954897,-0.3,1.0,0.0,468.0,626.0,0.0,0,1906.0,1
891,891,-0.4869620495757127,-0.5,0.0,1.0,355.0,924.0,0.0,1,1721.0,0
892,892,-0.3975298650440744,-0.4,0.0,1.0,475.0,869.0,0.0,1,1656.0,0
893,893,0.527460527085423,0.5,0.0,0.0,412.0,696.0,0.0,1,1892.0,1
894,894,-0.7529667349995776,-0.8,0.0,1.0,414.0,873.0,0.0,1,1713.0,0
895,895,0.6557849084261523,0.7,0.0,0.0,264.0,663.0,0.0,1,2073.0,1
896,896,0.2849803039216129,0.3,0.0,0.0,499.0,737.0,0.0,1,1764.0,1
897,897,0.05851166433412036,0.1,1.0,1.0,310.0,946.0,0.0,0,1744.0,0
898,898,0.4267063539578476,0.4,1.0,1.0,263.0,539.0,0.0,0,2198.0,0
899,899,-0.05581186326408971,-0.1,1.0,0.0,401.0,750.0,0.0,0,1849.0,1
900,900,-0.6062435689919847,-0.6,1.0,0.0,491.0,873.0,1.0,1,-1174.0,0
901,901,-0.22633228279678896,-0.2,1.0,0.0,437.0,552.0,0.0,0,2011.0,1
902,902,-0.6526135518893774,-0.7,0.0,1.0,450.0,673.0,0.0,1,1877.0,0
903,903,-0.7296678556753852,-0.7,1.0,0.0,391.0,625.0,0.0,0,1984.0,1
904,904,-0.47178527660852254,-0.5,0.0,1.0,306.0,830.0,0.0,1,-1076.0,0
905,905,0.38074344572084173,0.4,0.0,0.0,355.0,515.0,0.0,1,2130.0,1
906,906,0.5302594136088842,0.5,1.0,1.0,376.0,724.0,0.0,0,1900.0,0
907,907,0.028350360090639404,0.0,0.0,0.0,493.0,633.0,0.0,1,1874.0,1
908,908,0.8749202110917859,0.9,1.0,1.0,452.0,981.0,0.0,0,1567.0,0
909,909,0.6651889668774537,0.7,1.0,1.0,328.0,625.0,0.0,0,2047.0,0
910,910,0.6149068624754027,0.6,0.0,0.0,331.0,624.0,0.0,1,2045.0,1
911,911,0.7706978454221715,0.8,0.0,0.0,315.0,824.0,0.0,1,1861.0,1
912,912,0.5053664011531979,0.5,0.0,0.0,467.0,733.0,0.0,1,1800.0,1
913,913,-0.6870065866887423,-0.7,0.0,1.0,357.0,832.0,0.0,1,1811.0,0
914,914,0.1376373393488829,0.1,0.0,0.0,482.0,997.0,0.0,1,1521.0,1
915,915,-0.5231487247136828,-0.5,1.0,0.0,384.0,976.0,0.0,0,1640.0,1
916,916,0.12727411989974857,0.1,1.0,1.0,444.0,785.0,0.0,0,1771.0,0
917,917,-0.43479851610127945,-0.4,0.0,1.0,368.0,959.0,0.0,1,1673.0,0
918,918,-0.8515980765180238,-0.9,1.0,0.0,252.0,945.0,0.0,0,1803.0,1
919,919,0.6280170525547099,0.6,1.0,1.0,461.0,779.0,0.0,0,1760.0,0
920,920,0.18211234306081459,0.2,1.0,1.0,410.0,974.0,0.0,0,1616.0,0
921,921,-0.6245819825287744,-0.6,0.0,1.0,319.0,945.0,0.0,1,1736.0,0
922,922,0.5195601343662971,0.5,1.0,1.0,477.0,771.0,0.0,0,1752.0,0
923,923,-0.09270882621036192,-0.1,0.0,1.0,304.0,939.0,0.0,1,1757.0,0
924,924,-0.02219300152149939,-0.0,0.0,1.0,262.0,621.0,1.0,0,-883.0,1
925,925,0.1154373338310567,0.1,0.0,0.0,308.0,714.0,0.0,1,1978.0,1
926,926,0.5447757080950145,0.5,0.0,0.0,435.0,914.0,0.0,1,1651.0,1
927,927,-0.07496641997385345,-0.1,1.0,0.0,444.0,866.0,0.0,0,1690.0,1
928,928,-0.34605310494781094,-0.3,1.0,0.0,381.0,509.0,0.0,0,2110.0,1
929,929,-0.7431940621281261,-0.7,0.0,1.0,447.0,541.0,0.0,1,2012.0,0
930,930,-0.14125666847825724,-0.1,1.0,0.0,432.0,803.0,0.0,0,1765.0,1
931,931,0.4402050655311399,0.4,0.0,0.0,388.0,776.0,0.0,1,1836.0,1
932,932,-0.6849830691411607,-0.7,0.0,1.0,373.0,786.0,0.0,1,1841.0,0
933,933,-0.6251217913217347,-0.6,1.0,0.0,323.0,699.0,0.0,0,-982.0,1
934,934,0.05686927920156337,0.1,1.0,1.0,453.0,557.0,0.0,0,-950.0,0
935,935,0.31462899588194804,0.3,1.0,1.0,359.0,997.0,0.0,0,1644.0,0
936,936,0.7291110844298615,0.7,1.0,1.0,412.0,521.0,0.0,0,2067.0,0
937,937,-0.655871551265365,-0.7,1.0,0.0,297.0,913.0,0.0,0,1790.0,1
938,938,-0.3240277999789062,-0.3,0.0,1.0,262.0,878.0,0.0,1,1860.0,0
939,939,-0.18751986496207507,-0.2,1.0,0.0,345.0,943.0,0.0,0,1712.0,1
940,940,-0.5876634857990617,-0.6,1.0,0.0,356.0,570.0,0.0,0,-826.0,1
941,941,0.3021902435407843,0.3,0.0,0.0,447.0,552.0,0.0,1,2001.0,1
942,942,-0.23426066004274837,-0.2,0.0,1.0,304.0,879.0,0.0,1,-1053.0,0
943,943,0.6690072582759764,0.7,1.0,1.0,445.0,523.0,0.0,0,2032.0,0
944,944,-0.6626597327907342,-0.7,0.0,1.0,417.0,854.0,0.0,1,1729.0,0
945,945,-0.20357530650110867,-0.2,0.0,1.0,359.0,627.0,0.0,1,2014.0,0
946,946,-0.6732947498562243,-0.7,0.0,1.0,340.0,766.0,0.0,1,1894.0,0
947,947,-0.20055879763452455,-0.2,0.0,1.0,487.0,630.0,0.0,1,1883.0,0
948,948,-0.23868142826791938,-0.2,0.0,1.0,361.0,708.0,0.0,1,1931.0,0
949,949,-0.7993851070686985,-0.8,0.0,1.0,257.0,826.0,0.0,1,1917.0,0
950,950,-0.4229810329502828,-0.4,0.0,1.0,342.0,953.0,0.0,1,1705.0,0
951,951,-0.4332584336147062,-0.4,0.0,1.0,285.0,790.0,0.0,1,1925.0,0
952,952,0.8040767869538313,0.8,1.0,1.0,366.0,746.0,0.0,0,1888.0,0
953,953,-0.057080065268009794,-0.1,0.0,1.0,393.0,646.0,0.0,1,1961.0,0
954,954,0.6547885735908964,0.7,1.0,1.0,316.0,842.0,0.0,0,1842.0,0
955,955,-0.6168055254531815,-0.6,0.0,1.0,379.0,673.0,0.0,1,1948.0,0
956,956,0.06798958035246805,0.1,0.0,0.0,360.0,948.0,0.0,1,1692.0,1
957,957,-0.4753746538555143,-0.5,0.0,1.0,447.0,559.0,0.0,1,1994.0,0
958,958,-0.00896948962343136,-0.0,1.0,0.0,360.0,566.0,0.0,0,2074.0,1
959,959,-0.6052142489136263,-0.6,0.0,1.0,359.0,735.0,0.0,1,1906.0,0
960,960,-0.09226024229577556,-0.1,1.0,0.0,345.0,566.0,0.0,0,2089.0,1
961,961,-0.2854247638947792,-0.3,0.0,1.0,257.0,889.0,0.0,1,1854.0,0
962,962,-0.12972073138624207,-0.1,1.0,0.0,322.0,829.0,0.0,0,1849.0,1
963,963,0.8729164852870371,0.9,0.0,0.0,341.0,832.0,0.0,1,1827.0,1
964,964,0.11403953187721794,0.1,0.0,0.0,307.0,691.0,0.0,1,-948.0,1
965,965,-0.3983657275599697,-0.4,0.0,1.0,263.0,912.0,0.0,1,1825.0,0
966,966,0.26671241479612784,0.3,0.0,0.0,426.0,865.0,0.0,1,1709.0,1
967,967,-0.1461850209947556,-0.1,0.0,1.0,468.0,710.0,0.0,1,1822.0,0
968,968,0.1446745325679878,0.1,1.0,1.0,298.0,863.0,0.0,0,1839.0,0
969,969,-0.4232588530872287,-0.4,1.0,0.0,443.0,930.0,0.0,0,1627.0,1
970,970,0.25159712993402905,0.3,0.0,0.0,251.0,925.0,0.0,1,1824.0,1
971,971,-0.7096153462112357,-0.7,1.0,0.0,392.0,654.0,0.0,0,1954.0,1
972,972,-0.45730375124998074,-0.5,0.0,1.0,262.0,911.0,0.0,1,1827.0,0
973,973,0.25378817852029456,0.3,1.0,1.0,435.0,906.0,0.0,0,1659.0,0
974,974,0.8892285113637121,0.9,0.0,0.0,325.0,778.0,0.0,1,1897.0,1
975,975,-0.4086643125270097,-0.4,0.0,1.0,469.0,887.0,0.0,1,1644.0,0
976,976,0.21035629997775518,0.2,1.0,1.0,379.0,754.0,0.0,0,1867.0,0
977,977,-0.704631543555915,-0.7,0.0,1.0,417.0,791.0,0.0,1,1792.0,0
978,978,-0.06349136690135937,-0.1,0.0,1.0,397.0,526.0,0.0,1,2077.0,0
979,979,-0.8362532080888254,-0.8,1.0,0.0,263.0,730.0,0.0,0,2007.0,1
980,980,0.8188666053442445,0.8,1.0,1.0,487.0,917.0,0.0,0,1596.0,0
981,981,-0.14119729737725462,-0.1,1.0,0.0,454.0,870.0,0.0,0,1676.0,1
982,982,-0.19316604446126173,-0.2,1.0,0.0,334.0,993.0,0.0,0,1673.0,1
983,983,0.07925676654380565,0.1,1.0,1.0,374.0,921.0,0.0,0,1705.0,0
984,984,-0.3807587997184665,-0.4,0.0,1.0,299.0,776.0,0.0,1,1925.0,0
985,985,-0.304681620146502,-0.3,0.0,1.0,438.0,688.0,0.0,1,1874.0,0
986,986,-0.5688222848667639,-0.6,0.0,1.0,355.0,736.0,0.0,1,1909.0,0
987,987,0.804365882906709,0.8,1.0,1.0,393.0,824.0,0.0,0,1783.0,0
988,988,-0.2896528928178723,-0.3,1.0,0.0,358.0,760.0,0.0,0,1882.0,1
989,989,-0.04645027535254731,-0.0,1.0,0.0,253.0,964.0,0.0,0,-1017.0,1
990,990,-0.12620375729837785,-0.1,1.0,0.0,462.0,817.0,0.0,0,1721.0,1
991,991,0.1322105121158098,0.1,0.0,0.0,385.0,829.0,0.0,1,1786.0,1
992,992,-0.07727155097876681,-0.1,0.0,1.0,317.0,599.0,0.0,1,2084.0,0
993,993,0.7450187095576682,0.7,1.0,1.0,271.0,672.0,0.0,0,2057.0,0
994,994,-0.07476276878410515,-0.1,1.0,0.0,416.0,634.0,0.0,0,1950.0,1
995,995,-0.3714664465216554,-0.4,0.0,1.0,361.0,634.0,0.0,1,2005.0,0
996,996,-0.5231487754738368,-0.5,0.0,1.0,320.0,526.0,0.0,1,2154.0,0
997,997,0.3942201833458133,0.4,1.0,1.0,372.0,570.0,1.0,1,-872.0,1
998,998,0.7495517782911575,0.7,0.0,0.0,293.0,592.0,0.0,1,2115.0,1
999,999,0.5933289441705684,0.6,0.0,0.0,493.0,575.0,0.0,1,1932.0,1
1000,1000,-0.32162534863292447,-0.3,1.0,0.0,498.0,953.0,0.0,0,1549.0,1
1001,1001,0.19066972897469892,0.2,1.0,1.0,257.0,853.0,0.0,0,1890.0,0
1002,1002,-0.6512134607151299,-0.7,0.0,1.0,431.0,883.0,0.0,1,1686.0,0
1003,1003,0.5923518492234477,0.6,1.0,1.0,368.0,704.0,0.0,0,1928.0,0
1004,1004,-0.3025558645587788,-0.3,1.0,0.0,469.0,583.0,0.0,0,-982.0,1
1005,1005,0.3727731100435697,0.4,1.0,1.0,485.0,843.0,0.0,0,1672.0,0
1006,1006,0.3348165834548663,0.3,0.0,0.0,330.0,910.0,0.0,1,1760.0,1
1007,1007,-0.8902469344424497,-0.9,1.0,0.0,295.0,545.0,0.0,0,2160.0,1
1008,1008,-0.8706998627146413,-0.9,1.0,0.0,384.0,616.0,0.0,0,2000.0,1
1009,1009,0.39409916731022665,0.4,0.0,0.0,480.0,919.0,0.0,1,1601.0,1
1010,1010,-0.07183571499960828,-0.1,1.0,0.0,375.0,544.0,0.0,0,2081.0,1
1011,1011,-0.6740935689768277,-0.7,0.0,1.0,284.0,800.0,0.0,1,1916.0,0
1012,1012,0.26767777837184725,0.3,0.0,0.0,439.0,804.0,0.0,1,1757.0,1
1013,1013,-0.8809973616172719,-0.9,1.0,0.0,416.0,652.0,0.0,0,1932.0,1
1014,1014,-0.27611578010681004,-0.3,1.0,0.0,470.0,535.0,0.0,0,1995.0,1
1015,1015,-0.0635923304606354,-0.1,1.0,0.0,316.0,899.0,0.0,0,1785.0,1
1016,1016,-0.1852523714101686,-0.2,0.0,1.0,467.0,503.0,0.0,1,2030.0,0
1017,1017,-0.3481899755188612,-0.3,0.0,1.0,334.0,995.0,0.0,1,1671.0,0
1018,1018,-0.5453991242520175,-0.5,1.0,0.0,378.0,913.0,1.0,1,-1131.0,0
1019,1019,0.15451202377385542,0.2,0.0,0.0,383.0,732.0,0.0,1,1885.0,1
1020,1020,-0.17992123340221522,-0.2,0.0,1.0,424.0,768.0,0.0,1,1808.0,0
1021,1021,-0.3943478772123177,-0.4,1.0,0.0,321.0,506.0,0.0,0,2173.0,1
1022,1022,-0.07131651697245,-0.1,0.0,1.0,311.0,801.0,0.0,1,1888.0,0
1023,1023,-0.5090527659482755,-0.5,0.0,1.0,323.0,820.0,0.0,1,1857.0,0
1024,1024,0.6303193662962144,0.6,1.0,1.0,404.0,898.0,0.0,0,1698.0,0
1025,1025,0.09396977788422978,0.1,1.0,1.0,397.0,767.0,0.0,0,1836.0,0
1026,1026,-0.45125559454355785,-0.5,0.0,1.0,383.0,628.0,0.0,1,1989.0,0
1027,1027,-0.7617607983767729,-0.8,0.0,1.0,341.0,726.0,0.0,1,1933.0,0
1028,1028,-0.5309936748590305,-0.5,1.0,0.0,310.0,712.0,0.0,0,1978.0,1
1029,1029,0.24379359565129877,0.2,0.0,0.0,450.0,994.0,0.0,1,1556.0,1
1030,1030,0.5520180050460762,0.6,1.0,1.0,400.0,985.0,0.0,0,-1285.0,0
1031,1031,-0.31872485523565963,-0.3,1.0,0.0,475.0,982.0,0.0,0,1543.0,1
1032,1032,-0.8674966996341488,-0.9,0.0,1.0,368.0,709.0,0.0,1,1923.0,0
1033,1033,-0.7572541240492138,-0.8,0.0,1.0,406.0,925.0,0.0,1,1669.0,0
1034,1034,-0.7439310125755734,-0.7,1.0,0.0,386.0,603.0,0.0,0,2011.0,1
1035,1035,-0.3744752525356432,-0.4,1.0,0.0,318.0,753.0,0.0,0,1929.0,1
1036,1036,0.35191237423358845,0.4,1.0,1.0,341.0,798.0,0.0,0,1861.0,0
1037,1037,-0.45711848052914694,-0.5,1.0,0.0,415.0,772.0,0.0,0,1813.0,1
1038,1038,-0.2809562395921068,-0.3,0.0,1.0,377.0,917.0,0.0,1,1706.0,0
1039,1039,-0.6826207615813104,-0.7,0.0,1.0,277.0,529.0,0.0,1,-806.0,0
1040,1040,-0.10534329369437889,-0.1,0.0,1.0,369.0,564.0,1.0,0,-913.0,1
1041,1041,-0.0058619227151293085,-0.0,1.0,0.0,385.0,918.0,0.0,0,1697.0,1
1042,1042,-0.3900181227122643,-0.4,0.0,1.0,368.0,858.0,0.0,1,1774.0,0
1043,1043,-0.5700166616888551,-0.6,0.0,1.0,498.0,836.0,0.0,1,1666.0,0
1044,1044,-0.5064213445609251,-0.5,1.0,0.0,437.0,751.0,0.0,0,1812.0,1
1045,1045,-0.6086445121908322,-0.6,1.0,0.0,440.0,533.0,0.0,0,2027.0,1
1046,1046,0.7142798477784279,0.7,0.0,0.0,265.0,771.0,0.0,1,1964.0,1
1047,1047,0.31716376468767715,0.3,0.0,0.0,276.0,569.0,0.0,1,2155.0,1
1048,1048,0.0882090779121858,0.1,1.0,1.0,348.0,721.0,0.0,0,1931.0,0
1049,1049,0.37420361966061655,0.4,1.0,1.0,497.0,561.0,0.0,0,1942.0,0
1050,1050,0.26483256693565316,0.3,1.0,1.0,361.0,846.0,0.0,0,1793.0,0
1051,1051,0.1638419922294697,0.2,1.0,1.0,434.0,975.0,0.0,0,1591.0,0
1052,1052,-0.04102570648246173,-0.0,0.0,1.0,460.0,508.0,0.0,1,2032.0,0
1053,1053,-0.20945811321497232,-0.2,0.0,1.0,301.0,608.0,0.0,1,2091.0,0
1054,1054,0.24445267011409666,0.2,1.0,1.0,253.0,868.0,0.0,0,1879.0,0
1055,1055,-0.3644912603113658,-0.4,1.0,0.0,410.0,978.0,0.0,0,1612.0,1
1056,1056,0.0024079885497899634,0.0,1.0,1.0,279.0,942.0,0.0,0,1779.0,0
1057,1057,0.7741220865258657,0.8,0.0,0.0,436.0,714.0,0.0,1,1850.0,1
1058,1058,-0.04854391523895507,-0.0,1.0,0.0,315.0,567.0,0.0,0,2118.0,1
1059,1059,-0.8815572190664392,-0.9,0.0,1.0,333.0,612.0,0.0,1,2055.0,0
1060,1060,-0.03643238631242174,-0.0,0.0,1.0,311.0,994.0,0.0,1,1695.0,0
1061,1061,-0.6863341924461204,-0.7,1.0,0.0,371.0,868.0,0.0,0,1761.0,1
1062,1062,-0.36503351136658524,-0.4,1.0,0.0,310.0,634.0,0.0,0,2056.0,1
1063,1063,-0.5313412500672327,-0.5,1.0,0.0,458.0,827.0,0.0,0,1715.0,1
1064,1064,-0.8474358326855587,-0.8,1.0,0.0,259.0,649.0,0.0,0,2092.0,1
1065,1065,0.48734135073647955,0.5,1.0,1.0,292.0,671.0,0.0,0,2037.0,0
1066,1066,0.18303712159110808,0.2,1.0,1.0,328.0,675.0,0.0,0,1997.0,0
1067,1067,-0.5067390168298044,-0.5,1.0,0.0,284.0,988.0,0.0,0,1728.0,1
1068,1068,-0.567044668752031,-0.6,0.0,1.0,337.0,633.0,0.0,1,-940.0,0
1069,1069,-0.3116564719505346,-0.3,0.0,1.0,447.0,644.0,0.0,1,1909.0,0
1070,1070,0.4477852058784274,0.4,1.0,1.0,495.0,660.0,0.0,0,1845.0,0
1071,1071,0.15514352092158268,0.2,1.0,1.0,290.0,900.0,0.0,0,1810.0,0
1072,1072,0.3012668360723717,0.3,0.0,0.0,295.0,969.0,0.0,1,1736.0,1
1073,1073,-0.654073694975091,-0.7,0.0,1.0,413.0,625.0,0.0,1,1962.0,0
1074,1074,-0.04255301288766278,-0.0,0.0,1.0,445.0,877.0,0.0,1,1678.0,0
1075,1075,0.1659850796838439,0.2,1.0,1.0,253.0,910.0,0.0,0,1837.0,0
1076,1076,-0.1425990472395,-0.1,0.0,1.0,478.0,824.0,0.0,1,1698.0,0
1077,1077,0.45473081970342066,0.5,1.0,1.0,346.0,928.0,0.0,0,1726.0,0
1078,1078,0.7892049852981297,0.8,0.0,0.0,361.0,713.0,0.0,1,1926.0,1
1079,1079,0.3929990209530624,0.4,0.0,0.0,322.0,727.0,0.0,1,1951.0,1
1080,1080,0.8958402546863257,0.9,1.0,1.0,287.0,995.0,0.0,0,1718.0,0
1081,1081,-0.030377823773990342,-0.0,1.0,0.0,356.0,631.0,0.0,0,-967.0,1
1082,1082,-0.41860587060639776,-0.4,0.0,1.0,310.0,668.0,0.0,1,2022.0,0
1083,1083,-0.136745259065717,-0.1,0.0,1.0,454.0,945.0,0.0,1,1601.0,0
1084,1084,0.22488185590040255,0.2,0.0,0.0,491.0,844.0,0.0,1,1665.0,1
1085,1085,0.3518713279976303,0.4,1.0,1.0,342.0,815.0,0.0,0,1843.0,0
1086,1086,-0.1420992198476312,-0.1,1.0,0.0,320.0,613.0,0.0,0,2067.0,1
1087,1087,-0.009439226177573201,-0.0,0.0,1.0,324.0,961.0,0.0,1,1715.0,0
1088,1088,-0.7764227913016578,-0.8,1.0,0.0,372.0,788.0,0.0,0,1840.0,1
1089,1089,-0.8483494768115556,-0.8,1.0,0.0,357.0,540.0,0.0,0,2103.0,1
1090,1090,0.8270410022392581,0.8,1.0,1.0,335.0,590.0,0.0,0,2075.0,0
1091,1091,0.3248901161066432,0.3,0.0,0.0,415.0,996.0,0.0,1,1589.0,1
1092,1092,0.6375452063713468,0.6,1.0,1.0,321.0,913.0,0.0,0,1766.0,0
1093,1093,-0.429231626299844,-0.4,0.0,1.0,486.0,780.0,0.0,1,1734.0,0
1094,1094,0.16151622090722106,0.2,1.0,1.0,301.0,629.0,0.0,0,2070.0,0
1095,1095,0.5435051899573157,0.5,1.0,1.0,396.0,880.0,0.0,0,1724.0,0
1096,1096,-0.5853858149012603,-0.6,1.0,0.0,395.0,838.0,0.0,0,1767.0,1
1097,1097,0.38084713535996484,0.4,0.0,0.0,303.0,837.0,0.0,1,1860.0,1
1098,1098,-0.2381400563062972,-0.2,0.0,1.0,362.0,789.0,0.0,1,1849.0,0
1099,1099,0.033483478958437285,0.0,1.0,1.0,251.0,903.0,0.0,0,1846.0,0
1100,1100,0.2752959501808262,0.3,1.0,1.0,408.0,907.0,0.0,0,1685.0,0
1101,1101,-0.5081941323193122,-0.5,0.0,1.0,426.0,726.0,0.0,1,1848.0,0
1102,1102,-0.644561188673334,-0.6,0.0,1.0,309.0,936.0,0.0,1,1755.0,0
1103,1103,0.16871964817862584,0.2,1.0,1.0,333.0,769.0,0.0,0,1898.0,0
1104,1104,0.8992142504676265,0.9,0.0,0.0,372.0,503.0,0.0,1,2125.0,1
1105,1105,-0.08922949347037579,-0.1,1.0,0.0,393.0,612.0,0.0,0,1995.0,1
1106,1106,-0.15279422911381568,-0.2,0.0,1.0,473.0,791.0,0.0,1,1736.0,0
1107,1107,-0.6812782636293547,-0.7,1.0,0.0,361.0,566.0,1.0,1,-887.0,0
1108,1108,-0.13205712371183198,-0.1,1.0,0.0,342.0,980.0,0.0,0,1678.0,1
1109,1109,-0.7007841028613235,-0.7,0.0,1.0,321.0,727.0,0.0,1,1952.0,0
1110,1110,-0.3085592157253908,-0.3,0.0,1.0,361.0,746.0,0.0,1,1893.0,0
1111,1111,0.6822642925002279,0.7,0.0,0.0,286.0,690.0,0.0,1,2024.0,1
1112,1112,0.8747893524220963,0.9,0.0,0.0,459.0,958.0,0.0,1,1583.0,1
1113,1113,-0.11477358667205184,-0.1,1.0,0.0,303.0,968.0,0.0,0,1729.0,1
1114,1114,0.6684110781802065,0.7,0.0,0.0,383.0,534.0,0.0,1,2083.0,1
1115,1115,0.6076152067222308,0.6,1.0,1.0,344.0,699.0,0.0,0,1957.0,0
1116,1116,-0.1347782133175579,-0.1,0.0,1.0,318.0,584.0,0.0,1,2098.0,0
1117,1117,0.23835284412671764,0.2,0.0,0.0,257.0,677.0,0.0,1,2066.0,1
1118,1118,0.5554866989251511,0.6,0.0,0.0,402.0,616.0,0.0,1,1982.0,1
1119,1119,-0.830984844584887,-0.8,0.0,1.0,392.0,956.0,0.0,1,1652.0,0
1120,1120,-0.39026196162719917,-0.4,0.0,1.0,479.0,502.0,0.0,1,2019.0,0
1121,1121,-0.20544260723053287,-0.2,1.0,0.0,444.0,988.0,0.0,0,1568.0,1
1122,1122,0.6991283912265066,0.7,1.0,1.0,394.0,945.0,0.0,0,1661.0,0
1123,1123,0.09349975398137078,0.1,1.0,1.0,439.0,651.0,0.0,0,-1030.0,0
1124,1124,-0.07884875163367011,-0.1,1.0,0.0,470.0,899.0,0.0,0,1631.0,1
1125,1125,0.2610765249736414,0.3,1.0,1.0,412.0,610.0,0.0,0,1978.0,0
1126,1126,0.27374340206061254,0.3,1.0,1.0,493.0,884.0,0.0,0,1623.0,0
1127,1127,-0.570112456950064,-0.6,0.0,1.0,381.0,684.0,1.0,0,-945.0,1
1128,1128,0.0621845293580493,0.1,1.0,1.0,316.0,998.0,0.0,0,1686.0,0
1129,1129,-0.5883312955208218,-0.6,0.0,1.0,390.0,741.0,0.0,1,1869.0,0
1130,1130,0.5194904337574883,0.5,1.0,1.0,420.0,707.0,0.0,0,1873.0,0
1131,1131,-0.6524728837057615,-0.7,0.0,1.0,280.0,713.0,0.0,1,2007.0,0
1132,1132,0.7653634070436025,0.8,0.0,0.0,427.0,954.0,0.0,1,1619.0,1
1133,1133,-0.2966259414576241,-0.3,1.0,0.0,422.0,863.0,0.0,0,1715.0,1
1134,1134,-0.25314535250336867,-0.3,0.0,1.0,316.0,524.0,0.0,1,2160.0,0
1135,1135,0.5731921706147732,0.6,0.0,0.0,296.0,596.0,0.0,1,2108.0,1
1136,1136,-0.35398111639870533,-0.4,1.0,0.0,368.0,829.0,0.0,0,1803.0,1
1137,1137,-0.16189582089342291,-0.2,1.0,0.0,436.0,974.0,0.0,0,1590.0,1
1138,1138,-0.6779855553360014,-0.7,0.0,1.0,372.0,754.0,0.0,1,1874.0,0
1139,1139,0.8696619066281327,0.9,0.0,0.0,347.0,544.0,0.0,1,-871.0,1
1140,1140,0.28002458954977627,0.3,0.0,0.0,431.0,937.0,0.0,1,1632.0,1
1141,1141,-0.09074367745825584,-0.1,1.0,0.0,350.0,630.0,0.0,0,2020.0,1
1142,1142,-0.3287432325267471,-0.3,1.0,0.0,369.0,717.0,0.0,0,1914.0,1
1143,1143,0.6766363356502995,0.7,1.0,1.0,270.0,872.0,0.0,0,1858.0,0
1144,1144,0.251499937566663,0.3,0.0,0.0,308.0,781.0,0.0,1,1911.0,1
1145,1145,-0.824088533037287,-0.8,0.0,1.0,309.0,995.0,0.0,1,1696.0,0
1146,1146,0.7389667999942987,0.7,0.0,0.0,496.0,801.0,0.0,1,1703.0,1
1147,1147,0.10262778271039796,0.1,1.0,1.0,325.0,531.0,0.0,0,2144.0,0
1148,1148,0.6838081571845446,0.7,1.0,1.0,490.0,609.0,0.0,0,1901.0,0
1149,1149,-0.8231459622753665,-0.8,1.0,0.0,456.0,676.0,0.0,0,1868.0,1
1150,1150,-0.7457700134110481,-0.7,0.0,1.0,447.0,720.0,0.0,1,1833.0,0
1151,1151,0.4564954428861808,0.5,0.0,0.0,316.0,822.0,0.0,1,1862.0,1
1152,1152,-0.16941544615258408,-0.2,1.0,0.0,487.0,615.0,0.0,0,1898.0,1
1153,1153,0.05803741707783461,0.1,0.0,0.0,472.0,913.0,0.0,1,1615.0,1
1154,1154,0.4465165214128658,0.4,1.0,1.0,431.0,705.0,1.0,1,-946.0,1
1155,1155,-0.8756212939317107,-0.9,0.0,1.0,422.0,553.0,0.0,1,2025.0,0
1156,1156,0.04865535343746252,0.0,0.0,0.0,374.0,533.0,0.0,1,2093.0,1
1157,1157,0.041603619521302204,0.0,0.0,0.0,407.0,549.0,0.0,1,2044.0,1
1158,1158,-0.23040326197904426,-0.2,0.0,1.0,269.0,540.0,0.0,1,2191.0,0
1159,1159,-0.7522410516288278,-0.8,1.0,0.0,346.0,691.0,0.0,0,-1037.0,1
1160,1160,0.6157854511767044,0.6,0.0,0.0,489.0,691.0,0.0,1,1820.0,1
1161,1161,-0.6560052841302771,-0.7,1.0,0.0,423.0,711.0,0.0,0,1866.0,1
1162,1162,0.5016912964511976,0.5,1.0,1.0,421.0,895.0,0.0,0,1684.0,0
1163,1163,0.07980559278999078,0.1,0.0,0.0,427.0,699.0,0.0,1,1874.0,1
1164,1164,-0.7226976346126563,-0.7,0.0,1.0,332.0,962.0,0.0,1,1706.0,0
1165,1165,-0.24762077919292413,-0.2,0.0,1.0,470.0,987.0,0.0,1,1543.0,0
1166,1166,0.8823713825517182,0.9,0.0,0.0,296.0,779.0,0.0,1,1925.0,1
1167,1167,0.7324014858150697,0.7,1.0,1.0,473.0,667.0,0.0,0,1860.0,0
1168,1168,-0.6602822025073514,-0.7,0.0,1.0,341.0,600.0,0.0,1,2059.0,0
1169,1169,-0.6827181607709,-0.7,0.0,1.0,479.0,893.0,0.0,1,1628.0,0
1170,1170,0.4704752933199511,0.5,0.0,0.0,390.0,845.0,0.0,1,1765.0,1
1171,1171,0.516877192849981,0.5,1.0,1.0,487.0,531.0,0.0,0,1982.0,0
1172,1172,0.36306919642105806,0.4,1.0,1.0,454.0,747.0,0.0,0,1799.0,0
1173,1173,-0.6800215322062901,-0.7,1.0,0.0,434.0,972.0,0.0,0,1594.0,1
1174,1174,-0.5037052431406993,-0.5,0.0,1.0,351.0,845.0,0.0,1,1804.0,0
1175,1175,-0.6079827955936143,-0.6,0.0,1.0,392.0,995.0,0.0,1,1613.0,0
1176,1176,-0.13796208754596806,-0.1,0.0,1.0,329.0,848.0,0.0,1,1823.0,0
1177,1177,0.676160791618568,0.7,1.0,1.0,318.0,824.0,0.0,0,1858.0,0
1178,1178,0.6759014418445514,0.7,1.0,1.0,288.0,621.0,0.0,0,2091.0,0
1179,1179,-0.6180109110160605,-0.6,1.0,0.0,303.0,700.0,0.0,0,1997.0,1
1180,1180,-0.4507185974778537,-0.5,1.0,0.0,353.0,902.0,0.0,0,1745.0,1
1181,1181,0.21227521826918994,0.2,0.0,0.0,259.0,882.0,0.0,1,1859.0,1
1182,1182,-0.30815308341265835,-0.3,0.0,1.0,491.0,649.0,0.0,1,1860.0,0
1183,1183,-0.546589279023596,-0.5,1.0,0.0,430.0,555.0,0.0,0,-985.0,1
1184,1184,0.63895055041281,0.6,0.0,0.0,423.0,934.0,0.0,1,-1327.0,1
1185,1185,-0.4557383390611282,-0.5,1.0,0.0,261.0,927.0,0.0,0,1812.0,1
1186,1186,-0.34815936768046396,-0.3,1.0,0.0,427.0,966.0,1.0,1,-1333.0,0
1187,1187,0.0314308316964792,0.0,0.0,0.0,455.0,767.0,0.0,1,1778.0,1
1188,1188,-0.3099875303882669,-0.3,0.0,1.0,300.0,870.0,0.0,1,1830.0,0
1189,1189,0.47899731732765083,0.5,1.0,1.0,327.0,672.0,0.0,0,2001.0,0
1190,1190,-0.22567951229654848,-0.2,0.0,1.0,394.0,978.0,0.0,1,1628.0,0
1191,1191,0.14858099886006226,0.1,1.0,1.0,310.0,581.0,0.0,0,2109.0,0
1192,1192,0.32369402173530915,0.3,0.0,0.0,335.0,875.0,0.0,1,1790.0,1
1193,1193,0.6590636370610116,0.7,0.0,0.0,457.0,732.0,0.0,1,1811.0,1
1194,1194,-0.011866636044308043,-0.0,1.0,0.0,403.0,842.0,0.0,0,1755.0,1
1195,1195,0.4729298238703171,0.5,0.0,0.0,345.0,720.0,0.0,1,1935.0,1
1196,1196,-0.6587847944079357,-0.7,0.0,1.0,481.0,797.0,0.0,1,1722.0,0
1197,1197,-0.7359161064205,-0.7,1.0,0.0,281.0,672.0,0.0,0,2047.0,1
1198,1198,0.19750726682832098,0.2,0.0,0.0,442.0,847.0,0.0,1,1711.0,1
1199,1199,-0.2830710873273491,-0.3,1.0,0.0,344.0,779.0,0.0,0,-1003.0,1
1200,1200,0.19222917158184705,0.2,0.0,0.0,473.0,889.0,0.0,1,1638.0,1
1201,1201,-0.1938445394397138,-0.2,0.0,1.0,397.0,880.0,0.0,1,1723.0,0
1202,1202,0.32132250216143865,0.3,1.0,1.0,286.0,664.0,0.0,0,2050.0,0
1203,1203,0.6587631467774847,0.7,1.0,1.0,452.0,862.0,0.0,0,1686.0,0
1204,1204,-0.5732351657302319,-0.6,1.0,0.0,293.0,573.0,0.0,0,2134.0,1
1205,1205,-0.6003109015983369,-0.6,1.0,0.0,305.0,778.0,0.0,0,1917.0,1
1206,1206,0.07532998580033423,0.1,1.0,1.0,451.0,880.0,0.0,0,1669.0,0
1207,1207,-0.7717096879874449,-0.8,0.0,1.0,286.0,821.0,0.0,1,1893.0,0
1208,1208,0.8078776153426407,0.8,1.0,1.0,391.0,700.0,0.0,0,1909.0,0
1209,1209,-0.2530799276984683,-0.3,1.0,0.0,382.0,535.0,0.0,0,2083.0,1
1210,1210,0.740059761836788,0.7,0.0,0.0,418.0,740.0,0.0,1,1842.0,1
1211,1211,0.7418942070959621,0.7,1.0,1.0,260.0,604.0,0.0,0,2136.0,0
1212,1212,0.7676525229265491,0.8,0.0,0.0,262.0,507.0,0.0,1,2231.0,1
1213,1213,-0.8059324245472185,-0.8,0.0,1.0,293.0,842.0,0.0,1,1865.0,0
1214,1214,0.20991268495705706,0.2,0.0,0.0,401.0,830.0,0.0,1,-1161.0,1
1215,1215,0.6029968796932651,0.6,0.0,0.0,394.0,637.0,0.0,1,1969.0,1
1216,1216,0.06418238239295693,0.1,0.0,0.0,328.0,544.0,0.0,1,2128.0,1
1217,1217,-0.7398047634362344,-0.7,0.0,1.0,379.0,511.0,0.0,1,2110.0,0
1218,1218,-0.40577596533075416,-0.4,1.0,0.0,410.0,574.0,0.0,0,2016.0,1
1219,1219,-0.6075815112317565,-0.6,1.0,0.0,374.0,751.0,0.0,0,1875.0,1
1220,1220,0.513325946126144,0.5,0.0,0.0,470.0,888.0,1.0,0,-1288.0,0
1221,1221,0.3450738188420027,0.3,1.0,1.0,314.0,742.0,0.0,0,1944.0,0
1222,1222,-0.14762502664448074,-0.1,0.0,1.0,482.0,709.0,0.0,1,1809.0,0
1223,1223,-0.5595915568484751,-0.6,0.0,1.0,456.0,799.0,0.0,1,1745.0,0
1224,1224,-0.3066422470933753,-0.3,1.0,0.0,280.0,828.0,0.0,0,1892.0,1
1225,1225,-0.8923076052534198,-0.9,1.0,0.0,406.0,992.0,0.0,0,1602.0,1
1226,1226,0.36620809943316834,0.4,1.0,1.0,255.0,735.0,1.0,1,-990.0,1
1227,1227,0.7160158357567071,0.7,1.0,1.0,477.0,943.0,0.0,0,1580.0,0
1228,1228,-0.1358108296781938,-0.1,0.0,1.0,396.0,614.0,0.0,1,1990.0,0
1229,1229,0.6415106732173671,0.6,0.0,0.0,419.0,808.0,0.0,1,1773.0,1
1230,1230,-0.6916512517785192,-0.7,1.0,0.0,432.0,667.0,0.0,0,1901.0,1
1231,1231,-0.505431181798897,-0.5,1.0,0.0,347.0,586.0,0.0,0,-913.0,1
1232,1232,0.5786750049108579,0.6,1.0,1.0,251.0,955.0,0.0,0,1794.0,0
1233,1233,0.31243807920099853,0.3,1.0,1.0,293.0,637.0,0.0,0,-900.0,0
1234,1234,0.8142407092517775,0.8,1.0,1.0,473.0,578.0,0.0,0,1949.0,0
1235,1235,0.016739413284589943,0.0,0.0,0.0,388.0,813.0,0.0,1,1799.0,1
1236,1236,-0.8203777296034934,-0.8,1.0,0.0,417.0,551.0,0.0,0,2032.0,1
1237,1237,0.7824036505040918,0.8,0.0,0.0,487.0,859.0,0.0,1,1654.0,1
1238,1238,-0.20319499742923564,-0.2,1.0,0.0,252.0,583.0,0.0,0,2165.0,1
1239,1239,0.7100430502391623,0.7,0.0,0.0,387.0,866.0,0.0,1,1747.0,1
1240,1240,-0.7648112409079024,-0.8,1.0,0.0,433.0,869.0,0.0,0,1698.0,1
1241,1241,-0.5241481316323582,-0.5,1.0,0.0,366.0,869.0,0.0,0,1765.0,1
1242,1242,0.24459632998794156,0.2,0.0,0.0,381.0,525.0,1.0,0,-866.0,0
1243,1243,-0.21806734715965337,-0.2,1.0,0.0,436.0,682.0,0.0,0,-1108.0,1
1244,1244,-0.26842601527352217,-0.3,1.0,0.0,490.0,522.0,0.0,0,1988.0,1
1245,1245,-0.35638283766546675,-0.4,0.0,1.0,312.0,516.0,0.0,1,2172.0,0
1246,1246,0.5097867530526407,0.5,1.0,1.0,274.0,854.0,0.0,0,1872.0,0
1247,1247,-0.6472971980361593,-0.6,1.0,0.0,390.0,820.0,0.0,0,1790.0,1
1248,1248,0.22750892737655903,0.2,0.0,0.0,380.0,684.0,0.0,1,1936.0,1
1249,1249,-0.4050874676126495,-0.4,0.0,1.0,370.0,582.0,0.0,1,2048.0,0
1250,1250,-0.07844940649778798,-0.1,0.0,1.0,261.0,528.0,0.0,1,2211.0,0
1251,1251,-0.09518972603086728,-0.1,0.0,1.0,300.0,682.0,0.0,1,2018.0,0
1252,1252,0.3678843536770554,0.4,0.0,0.0,451.0,511.0,0.0,1,2038.0,1
1253,1253,0.19822098473486427,0.2,1.0,1.0,272.0,974.0,0.0,0,1754.0,0
1254,1254,0.3919077839988364,0.4,1.0,1.0,402.0,964.0,0.0,0,1634.0,0
1255,1255,-0.1821705977751953,-0.2,1.0,0.0,290.0,887.0,0.0,0,1823.0,1
1256,1256,-0.16652231492330405,-0.2,1.0,0.0,307.0,974.0,0.0,0,1719.0,1
1257,1257,0.6092726784317583,0.6,1.0,1.0,496.0,820.0,0.0,0,1684.0,0
1258,1258,0.21607671898204484,0.2,0.0,0.0,486.0,604.0,0.0,1,1910.0,1
1259,1259,-0.5485479094932744,-0.5,0.0,1.0,322.0,528.0,0.0,1,-630.0,0
1260,1260,0.6747931988954655,0.7,1.0,1.0,281.0,889.0,0.0,0,1830.0,0
1261,1261,-0.6320955048701502,-0.6,0.0,1.0,414.0,586.0,0.0,1,2000.0,0
1262,1262,0.6662450180650282,0.7,1.0,1.0,421.0,689.0,0.0,0,1890.0,0
1263,1263,-0.10070115844417282,-0.1,1.0,0.0,458.0,501.0,0.0,0,2041.0,1
1264,1264,0.6196577560232378,0.6,0.0,0.0,367.0,527.0,0.0,1,2106.0,1
1265,1265,0.29324176627854126,0.3,0.0,0.0,266.0,986.0,0.0,1,1748.0,1
1266,1266,0.4134644720718731,0.4,1.0,1.0,459.0,750.0,0.0,0,1791.0,0
1267,1267,0.7718766418233342,0.8,1.0,1.0,442.0,984.0,0.0,0,1574.0,0
1268,1268,-0.4171472542355508,-0.4,1.0,0.0,402.0,883.0,0.0,0,1715.0,1
1269,1269,0.08929659721408623,0.1,1.0,1.0,392.0,600.0,0.0,0,2008.0,0
1270,1270,0.5833640820490139,0.6,0.0,0.0,486.0,750.0,0.0,1,1764.0,1
1271,1271,0.3329120172164136,0.3,0.0,0.0,333.0,963.0,0.0,1,1704.0,1
1272,1272,0.8349558197148205,0.8,1.0,1.0,285.0,543.0,0.0,0,2172.0,0
1273,1273,-0.0755983489099945,-0.1,1.0,0.0,325.0,596.0,0.0,0,2079.0,1
1274,1274,-0.4197137019456578,-0.4,0.0,1.0,339.0,535.0,0.0,1,2126.0,0
1275,1275,-0.8530641720317234,-0.9,0.0,1.0,438.0,518.0,0.0,1,-886.0,0
1276,1276,0.4772952501961464,0.5,0.0,0.0,442.0,700.0,0.0,1,1858.0,1
1277,1277,0.6053134935644745,0.6,1.0,1.0,438.0,649.0,0.0,0,1913.0,0
1278,1278,-0.39163936589065274,-0.4,1.0,0.0,487.0,525.0,0.0,0,1988.0,1
1279,1279,0.2800865788708621,0.3,0.0,0.0,371.0,801.0,0.0,1,1828.0,1
1280,1280,-0.5601661600849452,-0.6,0.0,1.0,407.0,917.0,0.0,1,1676.0,0
1281,1281,-0.7788597375356737,-0.8,1.0,0.0,267.0,895.0,0.0,0,1838.0,1
1282,1282,0.1123285066310512,0.1,0.0,0.0,496.0,878.0,0.0,1,1626.0,1
1283,1283,0.8647256347624473,0.9,1.0,1.0,393.0,876.0,0.0,0,1731.0,0
1284,1284,0.44909522623045384,0.4,0.0,0.0,487.0,649.0,0.0,1,1864.0,1
1285,1285,-0.05549342518012812,-0.1,1.0,0.0,438.0,513.0,0.0,0,2049.0,1
1286,1286,-0.08788436367509522,-0.1,1.0,0.0,382.0,648.0,0.0,0,1970.0,1
1287,1287,-0.5578917611764189,-0.6,1.0,0.0,259.0,892.0,0.0,0,1849.0,1
1288,1288,-0.7627100326528973,-0.8,1.0,0.0,325.0,778.0,0.0,0,1897.0,1
1289,1289,-0.6144092860994407,-0.6,0.0,1.0,311.0,638.0,0.0,1,2051.0,0
1290,1290,-0.5573063814141943,-0.6,1.0,0.0,468.0,854.0,0.0,0,-1252.0,1
1291,1291,-0.5282955586318334,-0.5,1.0,0.0,336.0,759.0,0.0,0,1905.0,1
1292,1292,-0.5424858163126689,-0.5,1.0,0.0,489.0,581.0,0.0,0,1930.0,1
1293,1293,0.7894315838665716,0.8,1.0,1.0,332.0,959.0,0.0,0,1709.0,0
1294,1294,0.17774954581768776,0.2,0.0,0.0,324.0,815.0,0.0,1,1861.0,1
1295,1295,0.11475792178327893,0.1,1.0,1.0,338.0,603.0,0.0,0,2059.0,0
1296,1296,0.1660463491429941,0.2,0.0,0.0,382.0,703.0,0.0,1,1915.0,1
1297,1297,-0.8346294204931815,-0.8,1.0,0.0,462.0,566.0,0.0,0,1972.0,1
1298,1298,-0.712469105062248,-0.7,1.0,0.0,390.0,779.0,0.0,0,1831.0,1
1299,1299,-0.3431391217941985,-0.3,0.0,1.0,482.0,731.0,0.0,1,1787.0,0
1300,1300,0.6209087317493766,0.6,0.0,0.0,328.0,903.0,0.0,1,1769.0,1
1301,1301,0.08450771731764972,0.1,1.0,1.0,327.0,534.0,0.0,0,2139.0,0
1302,1302,-0.4488827008574891,-0.4,0.0,1.0,488.0,878.0,0.0,1,1634.0,0
1303,1303,-0.1331293913051933,-0.1,1.0,0.0,279.0,866.0,0.0,0,1855.0,1
1304,1304,0.5373396782795389,0.5,0.0,0.0,483.0,818.0,0.0,1,1699.0,1
1305,1305,-0.39722771859240735,-0.4,0.0,1.0,344.0,979.0,0.0,1,1677.0,0
1306,1306,-0.289506969526547,-0.3,0.0,1.0,381.0,716.0,0.0,1,1903.0,0
1307,1307,0.5625792280358298,0.6,0.0,0.0,329.0,566.0,0.0,1,2105.0,1
1308,1308,0.1027474975935797,0.1,1.0,1.0,390.0,754.0,0.0,0,1856.0,0
1309,1309,-0.4208919016304575,-0.4,0.0,1.0,308.0,936.0,0.0,1,1756.0,0
1310,1310,0.0777217510281385,0.1,1.0,1.0,291.0,746.0,0.0,0,1963.0,0
1311,1311,0.26478373548635836,0.3,0.0,0.0,386.0,947.0,0.0,1,1667.0,1
1312,1312,-0.7061991069496473,-0.7,0.0,1.0,495.0,901.0,0.0,1,1604.0,0
1313,1313,-0.6324299658817141,-0.6,1.0,0.0,412.0,740.0,0.0,0,1848.0,1
1314,1314,-0.39899607890159106,-0.4,1.0,0.0,271.0,841.0,0.0,0,1888.0,1
1315,1315,-0.8042200437115202,-0.8,1.0,0.0,460.0,976.0,0.0,0,1564.0,1
1316,1316,0.7743645513166247,0.8,0.0,0.0,329.0,685.0,0.0,1,1986.0,1
1317,1317,0.08579359848424983,0.1,0.0,0.0,374.0,715.0,0.0,1,1911.0,1
1318,1318,-0.029922281681223573,-0.0,1.0,0.0,355.0,659.0,0.0,0,1986.0,1
1319,1319,0.3770577281823765,0.4,0.0,0.0,372.0,841.0,0.0,1,1787.0,1
1320,1320,0.00724348065957825,0.0,0.0,0.0,292.0,981.0,0.0,1,1727.0,1
1321,1321,0.8267515876132033,0.8,0.0,0.0,283.0,654.0,0.0,1,2063.0,1
1322,1322,-0.2980480266327853,-0.3,1.0,0.0,399.0,775.0,0.0,0,1826.0,1
1323,1323,0.16103218538150854,0.2,0.0,0.0,383.0,575.0,0.0,1,2042.0,1
1324,1324,0.08038229268582275,0.1,1.0,1.0,403.0,969.0,0.0,0,1628.0,0
1325,1325,-0.33184490718576864,-0.3,1.0,0.0,339.0,547.0,0.0,0,2114.0,1
1326,1326,0.15956045743063274,0.2,1.0,1.0,291.0,515.0,0.0,0,2194.0,0
1327,1327,-0.37548679518633143,-0.4,0.0,1.0,365.0,559.0,0.0,1,2076.0,0
1328,1328,-0.6616342453035281,-0.7,0.0,1.0,377.0,825.0,0.0,1,1798.0,0
1329,1329,-0.3790314810462607,-0.4,0.0,1.0,288.0,510.0,0.0,1,2202.0,0
1330,1330,-0.7870359080770959,-0.8,0.0,1.0,374.0,983.0,0.0,1,1643.0,0
1331,1331,0.8573973798470279,0.9,0.0,0.0,462.0,566.0,0.0,1,1972.0,1
1332,1332,-0.3104747559471075,-0.3,0.0,1.0,344.0,610.0,0.0,1,2046.0,0
1333,1333,0.012297333264841948,0.0,0.0,0.0,484.0,604.0,0.0,1,1912.0,1
1334,1334,0.8571755020195383,0.9,0.0,0.0,446.0,735.0,0.0,1,1819.0,1
1335,1335,0.7870240831389091,0.8,0.0,0.0,299.0,688.0,0.0,1,2013.0,1
1336,1336,0.5479981660008789,0.5,0.0,0.0,296.0,823.0,0.0,1,1881.0,1
1337,1337,0.15969088519385155,0.2,0.0,0.0,391.0,504.0,0.0,1,-855.0,1
1338,1338,-0.46396409540191413,-0.5,1.0,0.0,374.0,970.0,0.0,0,1656.0,1
1339,1339,0.48197827249060354,0.5,1.0,1.0,483.0,992.0,0.0,0,1525.0,0
1340,1340,0.6784252912067107,0.7,0.0,0.0,494.0,587.0,0.0,1,1919.0,1
1341,1341,-0.4599122599245053,-0.5,1.0,0.0,426.0,603.0,0.0,0,1971.0,1
1342,1342,0.5067913708543202,0.5,0.0,0.0,493.0,996.0,0.0,1,1511.0,1
1343,1343,0.24328469329826408,0.2,0.0,0.0,466.0,679.0,0.0,1,-995.0,1
1344,1344,-0.25657123508122726,-0.3,1.0,0.0,270.0,605.0,0.0,0,2125.0,1
1345,1345,-0.0016595694371295266,-0.0,0.0,1.0,389.0,517.0,0.0,1,2094.0,0
1346,1346,-0.42458759969227705,-0.4,0.0,1.0,465.0,802.0,0.0,1,1733.0,0
1347,1347,0.035607306712131304,0.0,0.0,0.0,314.0,593.0,0.0,1,2093.0,1
1348,1348,-0.6734818964085163,-0.7,1.0,0.0,385.0,723.0,0.0,0,1892.0,1
1349,1349,0.23092002218006902,0.2,0.0,0.0,322.0,936.0,0.0,1,1742.0,1
1350,1350,-0.7470189723014483,-0.7,1.0,0.0,313.0,569.0,0.0,0,2118.0,1
1351,1351,-0.37499049968088327,-0.4,0.0,1.0,334.0,637.0,0.0,1,2029.0,0
1352,1352,0.600540745846197,0.6,1.0,1.0,340.0,808.0,0.0,0,1852.0,0
1353,1353,0.13368846725622008,0.1,0.0,0.0,389.0,550.0,0.0,1,2061.0,1
1354,1354,0.724494560712129,0.7,1.0,1.0,340.0,760.0,0.0,0,1900.0,0
1355,1355,-0.09714153345595966,-0.1,0.0,1.0,497.0,774.0,0.0,1,1729.0,0
1356,1356,-0.543132032386655,-0.5,1.0,0.0,460.0,755.0,0.0,0,1785.0,1
1357,1357,-0.009051861155173535,-0.0,1.0,0.0,296.0,959.0,0.0,0,1745.0,1
1358,1358,-0.6005824066472127,-0.6,0.0,1.0,488.0,705.0,0.0,1,1807.0,0
1359,1359,-0.6264349170551302,-0.6,0.0,1.0,333.0,889.0,0.0,1,1778.0,0
1360,1360,0.7029489542975828,0.7,1.0,1.0,316.0,565.0,0.0,0,2119.0,0
1361,1361,0.013036935114221104,0.0,0.0,0.0,488.0,773.0,0.0,1,1739.0,1
1362,1362,-0.8772006546085341,-0.9,1.0,0.0,483.0,550.0,0.0,0,1967.0,1
1363,1363,-0.16042155069618547,-0.2,1.0,0.0,475.0,892.0,0.0,0,1633.0,1
1364,1364,-0.09461503907845803,-0.1,0.0,1.0,457.0,819.0,0.0,1,1724.0,0
1365,1365,0.25316860662456986,0.3,0.0,0.0,495.0,599.0,0.0,1,1906.0,1
1366,1366,0.749220094187565,0.7,0.0,0.0,302.0,907.0,0.0,1,1791.0,1
1367,1367,0.12330063246908407,0.1,1.0,1.0,480.0,571.0,0.0,0,1949.0,0
1368,1368,-0.7136207059282774,-0.7,0.0,1.0,292.0,801.0,0.0,1,1907.0,0
1369,1369,0.7892123287516087,0.8,1.0,1.0,284.0,828.0,0.0,0,1888.0,0
1370,1370,0.12144978155870112,0.1,1.0,1.0,273.0,661.0,0.0,0,2066.0,0
1371,1371,-0.8223060984512971,-0.8,0.0,1.0,321.0,657.0,1.0,0,-958.0,1
1372,1372,0.8433392866055099,0.8,1.0,1.0,295.0,787.0,0.0,0,1918.0,0
1373,1373,0.603590109419874,0.6,1.0,1.0,456.0,613.0,0.0,0,1931.0,0
1374,1374,0.3343459523832616,0.3,0.0,0.0,348.0,560.0,0.0,1,2092.0,1
1375,1375,-0.8032216967513977,-0.8,0.0,1.0,255.0,948.0,0.0,1,1797.0,0
1376,1376,0.8596049918809862,0.9,0.0,0.0,480.0,584.0,0.0,1,1936.0,1
1377,1377,0.1307647502015551,0.1,0.0,0.0,330.0,760.0,0.0,1,1910.0,1
1378,1378,0.4323307883851767,0.4,1.0,1.0,396.0,927.0,0.0,0,1677.0,0
1379,1379,0.3322391463480113,0.3,1.0,1.0,290.0,868.0,0.0,0,1842.0,0
1380,1380,-0.11163115519948297,-0.1,0.0,1.0,429.0,555.0,0.0,1,2016.0,0
1381,1381,0.8865364445836649,0.9,1.0,1.0,274.0,630.0,0.0,0,-784.0,0
1382,1382,-0.15541549153431178,-0.2,0.0,1.0,405.0,524.0,0.0,1,2071.0,0
1383,1383,-0.11812492380210504,-0.1,1.0,0.0,286.0,508.0,0.0,0,2206.0,1
1384,1384,0.04525194349052841,0.0,0.0,0.0,262.0,667.0,0.0,1,2071.0,1
1385,1385,0.005146254106084491,0.0,0.0,0.0,436.0,520.0,1.0,0,-786.0,0
1386,1386,0.3598211181151082,0.4,1.0,1.0,407.0,800.0,0.0,0,1793.0,0
1387,1387,-0.6046857802210106,-0.6,0.0,1.0,406.0,531.0,0.0,1,2063.0,0
1388,1388,0.25529032151419984,0.3,1.0,1.0,292.0,513.0,0.0,0,2195.0,0
1389,1389,-0.10383763628728782,-0.1,1.0,0.0,250.0,812.0,0.0,0,1938.0,1
1390,1390,0.7878119698207585,0.8,1.0,1.0,379.0,974.0,0.0,0,1647.0,0
1391,1391,0.571775787936509,0.6,1.0,1.0,487.0,644.0,0.0,0,1869.0,0
1392,1392,0.558019334292888,0.6,0.0,0.0,392.0,702.0,0.0,1,1906.0,1
1393,1393,-0.7024090331178467,-0.7,1.0,0.0,454.0,663.0,0.0,0,-1087.0,1
1394,1394,0.33026322840379974,0.3,0.0,0.0,251.0,836.0,0.0,1,1913.0,1
1395,1395,-0.8707208164200868,-0.9,1.0,0.0,473.0,758.0,0.0,0,1769.0,1
1396,1396,0.4186243498303267,0.4,0.0,0.0,376.0,896.0,0.0,1,1728.0,1
1397,1397,-0.4589437368492764,-0.5,1.0,0.0,397.0,572.0,0.0,0,2031.0,1
1398,1398,-0.3654445414754215,-0.4,0.0,1.0,480.0,880.0,0.0,1,1640.0,0
1399,1399,-0.4047468694577209,-0.4,1.0,0.0,331.0,779.0,0.0,0,1890.0,1
1400,1400,0.8981466476694163,0.9,1.0,1.0,499.0,675.0,0.0,0,1826.0,0
1401,1401,0.3191348376341404,0.3,0.0,0.0,281.0,620.0,0.0,1,2099.0,1
1402,1402,-0.5996967287606108,-0.6,1.0,0.0,482.0,572.0,0.0,0,-1024.0,1
1403,1403,0.7279012335042235,0.7,0.0,0.0,297.0,940.0,0.0,1,1763.0,1
1404,1404,-0.1503147455996885,-0.2,1.0,0.0,395.0,628.0,1.0,1,-923.0,0
1405,1405,0.6718655732430977,0.7,1.0,1.0,419.0,975.0,0.0,0,1606.0,0
1406,1406,0.41174854818291295,0.4,0.0,0.0,408.0,703.0,0.0,1,1889.0,1
1407,1407,0.19702030281125593,0.2,0.0,0.0,458.0,539.0,0.0,1,2003.0,1
1408,1408,-0.42132388407692245,-0.4,1.0,0.0,383.0,723.0,0.0,0,1894.0,1
1409,1409,0.20698223576576036,0.2,0.0,0.0,332.0,553.0,0.0,1,2115.0,1
1410,1410,0.7186982250284896,0.7,1.0,1.0,345.0,950.0,0.0,0,1705.0,0
1411,1411,-0.4258538535799436,-0.4,0.0,1.0,367.0,542.0,0.0,1,2091.0,0
1412,1412,-0.6017079445128518,-0.6,0.0,1.0,344.0,554.0,0.0,1,2102.0,0
1413,1413,0.4567948586126299,0.5,1.0,1.0,373.0,681.0,0.0,0,1946.0,0
1414,1414,0.6285571459474558,0.6,1.0,1.0,388.0,565.0,0.0,0,2047.0,0
1415,1415,0.32671441707425586,0.3,1.0,1.0,314.0,792.0,0.0,0,1894.0,0
1416,1416,0.19410278700374184,0.2,1.0,1.0,415.0,648.0,0.0,0,1937.0,0
1417,1417,-0.2527652232892368,-0.3,1.0,0.0,431.0,956.0,0.0,0,1613.0,1
1418,1418,-0.7707513600989176,-0.8,1.0,0.0,370.0,855.0,0.0,0,1775.0,1
1419,1419,0.3072376311015098,0.3,1.0,1.0,384.0,716.0,0.0,0,1900.0,0
1420,1420,0.6403894992563456,0.6,1.0,1.0,281.0,518.0,0.0,0,2201.0,0
1421,1421,-0.34159240228773735,-0.3,0.0,1.0,441.0,534.0,0.0,1,2025.0,0
1422,1422,-0.8133876312243735,-0.8,1.0,0.0,313.0,665.0,0.0,0,2022.0,1
1423,1423,0.26785541159672144,0.3,1.0,1.0,274.0,993.0,0.0,0,1733.0,0
1424,1424,0.09413938278113598,0.1,0.0,0.0,262.0,847.0,0.0,1,1891.0,1
1425,1425,0.6111530843856302,0.6,0.0,0.0,289.0,908.0,0.0,1,1803.0,1
1426,1426,-0.3133184205599495,-0.3,1.0,0.0,437.0,836.0,0.0,0,1727.0,1
1427,1427,0.7574441735552536,0.8,1.0,1.0,392.0,739.0,0.0,0,1869.0,0
1428,1428,-0.8422698161165215,-0.8,0.0,1.0,492.0,565.0,0.0,1,1943.0,0
1429,1429,0.4692385666853026,0.5,1.0,1.0,357.0,870.0,0.0,0,1773.0,0
1430,1430,-0.5363046335656544,-0.5,0.0,1.0,465.0,607.0,0.0,1,1928.0,0
1431,1431,-0.6502466447801758,-0.7,1.0,0.0,265.0,652.0,0.0,0,2083.0,1
1432,1432,0.23427046160886456,0.2,1.0,1.0,344.0,534.0,0.0,0,2122.0,0
1433,1433,-0.571711131232844,-0.6,0.0,1.0,292.0,866.0,1.0,0,-1108.0,1
1434,1434,0.844095968050003,0.8,0.0,0.0,317.0,537.0,0.0,1,2146.0,1
1435,1435,0.054990268926406904,0.1,0.0,0.0,425.0,904.0,0.0,1,1671.0,1
1436,1436,0.629660597997514,0.6,0.0,0.0,258.0,915.0,0.0,1,-1043.0,1
1437,1437,-0.32752886588240504,-0.3,0.0,1.0,457.0,841.0,0.0,1,-1258.0,0
1438,1438,-0.8090338340667521,-0.8,0.0,1.0,263.0,666.0,0.0,1,2071.0,0
1439,1439,-0.042332437762178876,-0.0,1.0,0.0,350.0,587.0,0.0,0,2063.0,1
1440,1440,0.5347631607829536,0.5,1.0,1.0,402.0,622.0,0.0,0,1976.0,0
1441,1441,-0.2165191051561054,-0.2,1.0,0.0,287.0,691.0,0.0,0,2022.0,1
1442,1442,0.41543426445570575,0.4,1.0,1.0,275.0,955.0,0.0,0,1770.0,0
1443,1443,0.5017638715963927,0.5,1.0,1.0,450.0,836.0,1.0,1,-1206.0,1
1444,1444,0.584943956914396,0.6,0.0,0.0,385.0,968.0,0.0,1,1647.0,1
1445,1445,0.03875488879081179,0.0,0.0,0.0,389.0,590.0,0.0,1,2021.0,1
1446,1446,-0.8099797109802834,-0.8,1.0,0.0,410.0,850.0,0.0,0,1740.0,1
1447,1447,0.6695786936652769,0.7,0.0,0.0,308.0,992.0,0.0,1,1700.0,1
1448,1448,-0.6008212166848355,-0.6,0.0,1.0,328.0,928.0,0.0,1,1744.0,0
1449,1449,0.8929495574548477,0.9,1.0,1.0,252.0,638.0,0.0,0,2110.0,0
1450,1450,0.6836038369218899,0.7,1.0,1.0,423.0,880.0,0.0,0,-1243.0,0
1451,1451,-0.16580823476252549,-0.2,0.0,1.0,303.0,622.0,0.0,1,2075.0,0
1452,1452,-0.5870689546254254,-0.6,0.0,1.0,279.0,663.0,0.0,1,2058.0,0
1453,1453,-0.5737694014087166,-0.6,1.0,0.0,424.0,846.0,0.0,0,1730.0,1
1454,1454,-0.36295952540063614,-0.4,1.0,0.0,309.0,651.0,0.0,0,2040.0,1
1455,1455,0.15703606541541537,0.2,0.0,0.0,291.0,576.0,0.0,1,2133.0,1
1456,1456,0.7572997173592765,0.8,1.0,1.0,415.0,882.0,0.0,0,1703.0,0
1457,1457,-0.7329111065437571,-0.7,0.0,1.0,454.0,790.0,0.0,1,1756.0,0
1458,1458,-0.5547476616774096,-0.6,0.0,1.0,399.0,732.0,0.0,1,1869.0,0
1459,1459,-0.47114306799474864,-0.5,1.0,0.0,291.0,899.0,0.0,0,1810.0,1
1460,1460,-0.42079559899911445,-0.4,1.0,0.0,360.0,751.0,0.0,0,1889.0,1
1461,1461,-0.49968122646392077,-0.5,0.0,1.0,283.0,924.0,0.0,1,1793.0,0
1462,1462,0.5149540256243635,0.5,0.0,0.0,359.0,786.0,0.0,1,1855.0,1
1463,1463,-0.5041876891802372,-0.5,0.0,1.0,360.0,763.0,1.0,0,-1113.0,1
1464,1464,-0.19483772906360908,-0.2,1.0,0.0,315.0,863.0,0.0,0,1822.0,1
1465,1465,-0.5087214508937854,-0.5,0.0,1.0,460.0,704.0,0.0,1,1836.0,0
1466,1466,-0.7577487937439683,-0.8,1.0,0.0,483.0,612.0,0.0,0,1905.0,1
1467,1467,0.7197392002421955,0.7,0.0,0.0,488.0,732.0,0.0,1,1780.0,1
1468,1468,0.2575182772630441,0.3,1.0,1.0,293.0,798.0,0.0,0,1909.0,0
1469,1469,0.7870593309248354,0.8,0.0,0.0,354.0,550.0,1.0,0,-864.0,0
1470,1470,-0.3181893141231341,-0.3,0.0,1.0,408.0,515.0,0.0,1,2077.0,0
