,trial,coherence,coherence_bin,green_side,correct_side,target_onset,checker_onset,decision,green_decision,decision_time,correct_decision
0,0,-0.25329995721628096,-0.3,1.0,0.0,393.0,809.0,1.0,1,-1082.0,0
1,1,0.14644056416413165,0.1,1.0,1.0,459.0,866.0,0.0,0,-1115.0,0
2,2,-0.3717171073994643,-0.4,1.0,0.0,324.0,875.0,0.0,0,-1199.0,1
3,3,0.495087062570588,0.5,0.0,0.0,461.0,975.0,1.0,0,-866.0,0
4,4,-0.7208439500346543,-0.7,0.0,1.0,310.0,545.0,0.0,1,-415.0,0
5,5,-0.6187757290688896,-0.6,0.0,1.0,395.0,599.0,0.0,1,966.0,0
6,6,0.7208055419668983,0.7,1.0,1.0,257.0,969.0,1.0,1,1254.0,1
7,7,-0.8306368506010341,-0.8,1.0,0.0,354.0,570.0,1.0,1,996.0,0
8,8,-0.062370090481356555,-0.1,1.0,0.0,266.0,674.0,0.0,0,890.0,1
9,9,0.6866437478920137,0.7,1.0,1.0,429.0,754.0,1.0,1,-993.0,1
10,10,0.36490685991056904,0.4,0.0,0.0,271.0,851.0,1.0,0,-932.0,0
11,11,0.4442816160503106,0.4,1.0,1.0,394.0,777.0,0.0,0,349.0,0
12,12,0.3963078744152987,0.4,1.0,1.0,333.0,647.0,1.0,1,-760.0,1
13,13,0.46591521460203655,0.5,1.0,1.0,304.0,909.0,0.0,0,907.0,0
14,14,0.7129305773397193,0.7,0.0,0.0,375.0,564.0,1.0,0,-919.0,0
15,15,0.07604012686333994,0.1,0.0,0.0,298.0,761.0,1.0,0,-1059.0,0
16,16,-0.17432899840346172,-0.2,1.0,0.0,258.0,908.0,1.0,1,-756.0,0
17,17,0.8122018313920673,0.8,0.0,0.0,364.0,517.0,0.0,1,2119.0,1
18,18,-0.001008272848645242,-0.0,0.0,1.0,271.0,915.0,1.0,0,-396.0,1
19,19,0.7027222300903077,0.7,0.0,0.0,409.0,916.0,1.0,0,1185.0,0
20,20,0.03994148803397768,0.0,1.0,1.0,472.0,912.0,0.0,0,1116.0,0
21,21,-0.04891355448772705,-0.0,1.0,0.0,460.0,533.0,0.0,0,-923.0,1
22,22,0.8197233567756571,0.8,0.0,0.0,328.0,549.0,1.0,0,1413.0,0
23,23,-0.14609701204221248,-0.1,1.0,0.0,315.0,535.0,1.0,1,100.0,0
24,24,0.5141103596118318,0.5,1.0,1.0,457.0,652.0,0.0,0,1461.0,0
25,25,-0.6567066536310565,-0.7,0.0,1.0,415.0,899.0,0.0,1,-664.0,0
26,26,-0.610931834555885,-0.6,0.0,1.0,456.0,504.0,1.0,0,-300.0,1
27,27,-0.025871573690463334,-0.0,1.0,0.0,497.0,603.0,0.0,0,-320.0,1
28,28,0.3471068103187708,0.3,0.0,0.0,277.0,844.0,1.0,0,-851.0,0
29,29,0.6412907873470642,0.6,0.0,0.0,328.0,660.0,0.0,1,-348.0,1
30,30,0.3928062994160303,0.4,1.0,1.0,268.0,881.0,1.0,1,991.0,1
31,31,0.2725793910202866,0.3,1.0,1.0,327.0,941.0,1.0,1,-158.0,1
32,32,0.7862678713034509,0.8,1.0,1.0,478.0,986.0,0.0,0,416.0,0
33,33,0.18238945113231353,0.2,1.0,1.0,487.0,684.0,0.0,0,1379.0,0
34,34,0.019132811290244245,0.0,1.0,1.0,290.0,803.0,0.0,0,-603.0,0
35,35,-0.05963642525683854,-0.1,0.0,1.0,357.0,925.0,1.0,0,-1152.0,1
36,36,0.06774635642118432,0.1,0.0,0.0,366.0,980.0,1.0,0,-296.0,0
37,37,-0.631148404668793,-0.6,1.0,0.0,260.0,501.0,0.0,0,429.0,1
38,38,0.4784682107732946,0.5,1.0,1.0,407.0,683.0,0.0,0,1100.0,0
39,39,0.3013736200163516,0.3,1.0,1.0,453.0,587.0,0.0,0,340.0,0
40,40,0.7965693103748169,0.8,0.0,0.0,417.0,755.0,0.0,1,-562.0,1
41,41,-0.8972498132106584,-0.9,0.0,1.0,355.0,706.0,0.0,1,309.0,0
42,42,-0.4999598493744723,-0.5,1.0,0.0,370.0,574.0,0.0,0,626.0,1
43,43,0.10098847592969717,0.1,0.0,0.0,484.0,952.0,1.0,0,-946.0,0
44,44,-0.644848910562474,-0.6,1.0,0.0,437.0,782.0,0.0,0,1781.0,1
45,45,-0.73284683424037,-0.7,1.0,0.0,305.0,842.0,0.0,0,-987.0,1
46,46,0.10313899141511584,0.1,0.0,0.0,435.0,976.0,1.0,0,-251.0,0
47,47,0.8186603671652349,0.8,0.0,0.0,345.0,799.0,1.0,0,-744.0,0
48,48,-0.6149098648942029,-0.6,1.0,0.0,410.0,693.0,1.0,1,-1093.0,0
49,49,-0.22996006568945604,-0.2,1.0,0.0,485.0,568.0,1.0,1,-383.0,0
50,50,-0.6948214139338622,-0.7,1.0,0.0,255.0,915.0,0.0,0,1680.0,1
51,51,-0.7372773302528453,-0.7,1.0,0.0,295.0,768.0,0.0,0,-1003.0,1
52,52,0.36401324281778125,0.4,1.0,1.0,456.0,697.0,0.0,0,-593.0,0
53,53,0.7018330205630995,0.7,0.0,0.0,322.0,703.0,1.0,0,345.0,0
54,54,0.8739889475803838,0.9,0.0,0.0,252.0,827.0,0.0,1,-739.0,1
55,55,0.598229045345333,0.6,1.0,1.0,284.0,742.0,0.0,0,-916.0,0
56,56,0.6839607469548664,0.7,1.0,1.0,278.0,782.0,0.0,0,-990.0,0
57,57,-0.14847773256312702,-0.1,1.0,0.0,290.0,840.0,0.0,0,-240.0,1
58,58,0.3543277597380107,0.4,1.0,1.0,257.0,776.0,1.0,1,-433.0,1
59,59,0.6385780826386892,0.6,0.0,0.0,331.0,564.0,0.0,1,145.0,1
60,60,0.8161141462330649,0.8,0.0,0.0,482.0,803.0,0.0,1,-1235.0,1
61,61,-0.5582183969186221,-0.6,1.0,0.0,405.0,710.0,1.0,1,1885.0,0
62,62,0.5225480163925097,0.5,1.0,1.0,271.0,566.0,1.0,1,1903.0,1
63,63,-0.07699673167013765,-0.1,0.0,1.0,287.0,697.0,1.0,0,-514.0,1
64,64,-0.6721470701899408,-0.7,0.0,1.0,429.0,990.0,0.0,1,-1409.0,0
65,65,0.8144781101278283,0.8,0.0,0.0,337.0,751.0,0.0,1,-38.0,1
66,66,-0.6757730097815339,-0.7,1.0,0.0,412.0,705.0,1.0,1,-307.0,0
67,67,-0.07403854369689633,-0.1,1.0,0.0,299.0,657.0,0.0,0,-396.0,1
68,68,0.2869779040390884,0.3,0.0,0.0,395.0,549.0,0.0,1,-944.0,1
69,69,0.8813047752048643,0.9,1.0,1.0,483.0,736.0,0.0,0,581.0,0
70,70,0.8807749403971566,0.9,0.0,0.0,319.0,659.0,0.0,1,1132.0,1
71,71,0.7094625312646649,0.7,1.0,1.0,469.0,576.0,1.0,1,1265.0,1
72,72,-0.5762912953960091,-0.6,1.0,0.0,265.0,912.0,0.0,0,973.0,1
73,73,0.20630915134415073,0.2,0.0,0.0,446.0,643.0,1.0,0,-269.0,0
74,74,0.45680140245565026,0.5,1.0,1.0,371.0,772.0,1.0,1,-363.0,1
75,75,0.0643113210302606,0.1,0.0,0.0,329.0,529.0,1.0,0,-548.0,0
76,76,0.19478154651539892,0.2,0.0,0.0,301.0,919.0,1.0,0,-1050.0,0
77,77,0.04247426365357465,0.0,0.0,0.0,271.0,641.0,0.0,1,18.0,1
78,78,-0.707209013348217,-0.7,1.0,0.0,443.0,780.0,1.0,1,1547.0,0
79,79,-0.2162394628815948,-0.2,0.0,1.0,346.0,665.0,1.0,0,-711.0,1
80,80,-0.8090863529206687,-0.8,0.0,1.0,406.0,994.0,1.0,0,-1210.0,1
81,81,0.30599971523607283,0.3,0.0,0.0,399.0,726.0,1.0,0,885.0,0
82,82,0.8660353311611534,0.9,1.0,1.0,489.0,974.0,1.0,1,-1383.0,1
83,83,-0.2893236614747965,-0.3,0.0,1.0,424.0,772.0,1.0,0,-976.0,1
84,84,-0.2054396451782774,-0.2,0.0,1.0,326.0,853.0,0.0,1,-319.0,0
85,85,-0.7712013502221302,-0.8,1.0,0.0,437.0,868.0,1.0,1,1025.0,0
86,86,0.6788612754792801,0.7,0.0,0.0,339.0,802.0,0.0,1,-51.0,1
87,87,-0.5210327714114709,-0.5,1.0,0.0,287.0,612.0,0.0,0,931.0,1
88,88,0.8993597538959616,0.9,1.0,1.0,382.0,600.0,0.0,0,-402.0,0
89,89,-0.6923001468139175,-0.7,0.0,1.0,258.0,524.0,1.0,0,1218.0,1
90,90,0.46047555699906295,0.5,1.0,1.0,254.0,866.0,0.0,0,750.0,0
91,91,-0.06121992750259708,-0.1,0.0,1.0,436.0,921.0,1.0,0,-1087.0,1
92,92,0.4616023978429359,0.5,1.0,1.0,442.0,631.0,1.0,1,1417.0,1
93,93,-0.7766975156533498,-0.8,1.0,0.0,398.0,581.0,1.0,1,661.0,0
94,94,0.7030013317714084,0.7,0.0,0.0,416.0,550.0,0.0,1,2034.0,1
95,95,0.65980651622483,0.7,0.0,0.0,284.0,552.0,1.0,0,44.0,0
96,96,-0.8200183985827464,-0.8,1.0,0.0,389.0,667.0,0.0,0,-596.0,1
97,97,-0.50346201838285,-0.5,0.0,1.0,474.0,934.0,1.0,0,-838.0,1
98,98,-0.03283395196502048,-0.0,0.0,1.0,270.0,911.0,1.0,0,899.0,1
99,99,-0.47357255058012426,-0.5,1.0,0.0,291.0,813.0,1.0,1,-1084.0,0
100,100,0.23673686799087867,0.2,0.0,0.0,478.0,521.0,0.0,1,-339.0,1
101,101,-0.7703056855841615,-0.8,1.0,0.0,334.0,696.0,1.0,1,-720.0,0
102,102,-0.6384345442182467,-0.6,0.0,1.0,253.0,558.0,1.0,0,-521.0,1
103,103,0.857044832548942,0.9,1.0,1.0,255.0,763.0,0.0,0,1352.0,0
104,104,-0.17689359778554625,-0.2,1.0,0.0,264.0,863.0,1.0,1,-807.0,0
105,105,0.817232133293588,0.8,1.0,1.0,356.0,980.0,1.0,1,-906.0,1
106,106,-0.7561244502342975,-0.8,1.0,0.0,461.0,533.0,0.0,0,-984.0,1
107,107,-0.004573771835083673,-0.0,0.0,1.0,308.0,582.0,1.0,0,480.0,1
108,108,0.10718986797775909,0.1,0.0,0.0,343.0,834.0,1.0,0,-1007.0,0
109,109,-0.6760011878492012,-0.7,0.0,1.0,308.0,805.0,0.0,1,-703.0,0
110,110,0.7176185408283778,0.7,0.0,0.0,282.0,775.0,1.0,0,13.0,0
111,111,0.10914862561891037,0.1,1.0,1.0,482.0,824.0,1.0,1,-136.0,1
112,112,0.764751752601834,0.8,1.0,1.0,282.0,944.0,1.0,1,-1176.0,1
113,113,-0.8045247830626975,-0.8,0.0,1.0,341.0,779.0,1.0,0,-1070.0,1
114,114,0.6967736471175666,0.7,1.0,1.0,411.0,570.0,0.0,0,-731.0,0
115,115,-0.68071518638094,-0.7,0.0,1.0,383.0,778.0,0.0,1,-211.0,0
116,116,-0.44631236326533225,-0.4,1.0,0.0,406.0,762.0,1.0,1,1832.0,0
117,117,-0.7050076245127826,-0.7,1.0,0.0,302.0,963.0,1.0,1,-755.0,0
118,118,0.24968442840409388,0.2,1.0,1.0,263.0,940.0,1.0,1,-933.0,1
119,119,-0.10619152009791255,-0.1,1.0,0.0,401.0,861.0,0.0,0,-1262.0,1
120,120,0.7234343954978394,0.7,1.0,1.0,403.0,591.0,0.0,0,2006.0,0
121,121,-0.49976228602115885,-0.5,1.0,0.0,482.0,628.0,1.0,1,-1020.0,0
122,122,-0.4928955313363414,-0.5,0.0,1.0,266.0,678.0,0.0,1,-884.0,0
123,123,-0.4505815935720134,-0.5,1.0,0.0,309.0,617.0,1.0,1,-756.0,0
124,124,-0.15299161908305825,-0.2,1.0,0.0,372.0,916.0,0.0,0,-1118.0,1
125,125,0.14388020863984818,0.1,1.0,1.0,283.0,734.0,1.0,1,383.0,1
126,126,0.6903217186358773,0.7,1.0,1.0,305.0,560.0,1.0,1,-185.0,1
127,127,-0.4305623262191181,-0.4,1.0,0.0,310.0,849.0,0.0,0,1621.0,1
128,128,0.80461755752386,0.8,1.0,1.0,298.0,588.0,1.0,1,-516.0,1
129,129,-0.5442449477372626,-0.5,1.0,0.0,490.0,600.0,1.0,1,-80.0,0
130,130,-0.008980846737747794,-0.0,1.0,0.0,273.0,778.0,0.0,0,1949.0,1
131,131,0.8712648896091907,0.9,0.0,0.0,377.0,963.0,0.0,1,-500.0,1
132,132,0.2226515166957702,0.2,1.0,1.0,344.0,881.0,0.0,0,-235.0,0
133,133,0.1519968856684567,0.2,1.0,1.0,359.0,739.0,1.0,1,-198.0,1
134,134,-0.5083833865220639,-0.5,0.0,1.0,288.0,859.0,1.0,0,753.0,1
135,135,-0.16809741430504999,-0.2,1.0,0.0,342.0,871.0,0.0,0,-663.0,1
136,136,-0.5263420868910609,-0.5,1.0,0.0,300.0,906.0,0.0,0,-586.0,1
137,137,0.7821999403249617,0.8,0.0,0.0,297.0,632.0,0.0,1,2071.0,1
138,138,0.7332851641483941,0.7,0.0,0.0,439.0,622.0,0.0,1,79.0,1
139,139,0.6159229267283927,0.6,1.0,1.0,392.0,823.0,1.0,1,-975.0,1
140,140,0.5207696444823448,0.5,1.0,1.0,339.0,870.0,1.0,1,111.0,1
141,141,0.1427506741083574,0.1,0.0,0.0,390.0,832.0,1.0,0,-722.0,0
142,142,-0.04994647777088268,-0.0,1.0,0.0,375.0,612.0,1.0,1,1613.0,0
143,143,-0.7710370615981083,-0.8,0.0,1.0,490.0,806.0,1.0,0,-766.0,1
144,144,0.2870835625479934,0.3,1.0,1.0,339.0,942.0,1.0,1,-1121.0,1
145,145,0.5751944317097694,0.6,1.0,1.0,293.0,540.0,0.0,0,-43.0,0
146,146,-0.1289721146807159,-0.1,1.0,0.0,265.0,828.0,0.0,0,-963.0,1
147,147,0.06278382229270696,0.1,0.0,0.0,263.0,646.0,0.0,1,-499.0,1
148,148,-0.03844199567199569,-0.0,0.0,1.0,253.0,979.0,1.0,0,-1202.0,1
149,149,0.5773250449963919,0.6,0.0,0.0,442.0,590.0,1.0,0,-62.0,0
150,150,0.801082219657944,0.8,1.0,1.0,476.0,987.0,1.0,1,1237.0,1
151,151,0.6298072477375928,0.6,0.0,0.0,363.0,526.0,0.0,1,1581.0,1
152,152,-0.2461941611041366,-0.2,1.0,0.0,482.0,765.0,1.0,1,-1187.0,0
153,153,-0.6882357748599011,-0.7,1.0,0.0,428.0,587.0,1.0,1,435.0,0
154,154,-0.2654499660990498,-0.3,0.0,1.0,447.0,580.0,1.0,0,-677.0,1
155,155,0.5440740510323575,0.5,1.0,1.0,397.0,940.0,1.0,1,603.0,1
156,156,0.5266888869226737,0.5,1.0,1.0,338.0,618.0,1.0,1,-746.0,1
157,157,-0.3611237930707517,-0.4,1.0,0.0,347.0,776.0,1.0,1,-373.0,0
158,158,0.3509422724941599,0.4,0.0,0.0,389.0,733.0,0.0,1,-392.0,1
159,159,-0.6159638827981095,-0.6,0.0,1.0,341.0,789.0,1.0,0,1740.0,1
160,160,0.7447006828609536,0.7,1.0,1.0,280.0,536.0,0.0,0,-786.0,0
161,161,-0.5640444333283535,-0.6,1.0,0.0,492.0,994.0,1.0,1,-1006.0,0
162,162,-0.5765659752470096,-0.6,1.0,0.0,496.0,712.0,1.0,1,-888.0,0
163,163,0.17978314402727336,0.2,0.0,0.0,437.0,872.0,1.0,0,1211.0,0
164,164,0.7424198933929634,0.7,0.0,0.0,437.0,660.0,1.0,0,1043.0,0
165,165,0.38867450720370067,0.4,0.0,0.0,289.0,729.0,1.0,0,-318.0,0
166,166,-0.6496010754925083,-0.6,1.0,0.0,350.0,546.0,1.0,1,114.0,0
167,167,0.6122473512736949,0.6,1.0,1.0,471.0,861.0,0.0,0,-872.0,0
168,168,-0.6904632280477185,-0.7,0.0,1.0,429.0,525.0,0.0,1,446.0,0
169,169,0.515405834892756,0.5,1.0,1.0,310.0,511.0,1.0,1,-561.0,1
170,170,-0.08500852729509034,-0.1,0.0,1.0,442.0,510.0,1.0,0,18.0,1
171,171,0.30609897413018416,0.3,0.0,0.0,355.0,872.0,1.0,0,-727.0,0
172,172,0.4322561508566739,0.4,0.0,0.0,465.0,828.0,0.0,1,-1223.0,1
173,173,0.7137739498360315,0.7,0.0,0.0,469.0,969.0,1.0,0,-1078.0,0
174,174,-0.1597563397248073,-0.2,0.0,1.0,267.0,850.0,0.0,1,-667.0,0
175,175,0.5517989676454039,0.6,1.0,1.0,261.0,615.0,0.0,0,-726.0,0
176,176,-0.08251697793734147,-0.1,1.0,0.0,497.0,711.0,1.0,1,-1188.0,0
177,177,-0.6465522199265759,-0.6,1.0,0.0,399.0,654.0,0.0,0,-613.0,1
178,178,0.5710656856699329,0.6,1.0,1.0,359.0,781.0,1.0,1,-150.0,1
179,179,-0.25369556770299995,-0.3,1.0,0.0,426.0,868.0,1.0,1,-464.0,0
180,180,0.6052191212652248,0.6,1.0,1.0,347.0,871.0,0.0,0,-1218.0,0
181,181,0.8501478248876081,0.9,1.0,1.0,476.0,547.0,0.0,0,-563.0,0
182,182,-0.250527247115202,-0.3,1.0,0.0,444.0,995.0,0.0,0,191.0,1
183,183,0.7984716258372625,0.8,0.0,0.0,368.0,617.0,0.0,1,-965.0,1
184,184,-0.21764545084304032,-0.2,0.0,1.0,456.0,842.0,0.0,1,-1168.0,0
185,185,0.15159927969409737,0.2,1.0,1.0,429.0,846.0,1.0,1,265.0,1
186,186,0.8236310096615423,0.8,1.0,1.0,418.0,822.0,1.0,1,-1230.0,1
187,187,-0.7936661025683065,-0.8,1.0,0.0,496.0,721.0,1.0,1,-987.0,0
188,188,0.12433715547482949,0.1,1.0,1.0,352.0,745.0,1.0,1,553.0,1
189,189,-0.08805063595327778,-0.1,0.0,1.0,422.0,824.0,1.0,0,-656.0,1
190,190,-0.5314444322957558,-0.5,0.0,1.0,360.0,706.0,1.0,0,294.0,1
191,191,-0.6386087985852937,-0.6,1.0,0.0,437.0,778.0,0.0,0,-1015.0,1
192,192,-0.858839155371265,-0.9,0.0,1.0,408.0,979.0,0.0,1,-97.0,0
193,193,-0.768228819559852,-0.8,1.0,0.0,314.0,797.0,1.0,1,-931.0,0
194,194,0.030111727720352754,0.0,0.0,0.0,268.0,638.0,1.0,0,-806.0,0
195,195,-0.5644071243235764,-0.6,1.0,0.0,263.0,585.0,0.0,0,562.0,1
196,196,0.0835483192130122,0.1,1.0,1.0,476.0,887.0,0.0,0,267.0,0
197,197,-0.6692140805085374,-0.7,0.0,1.0,349.0,792.0,0.0,1,-231.0,0
198,198,0.2175458298761611,0.2,1.0,1.0,315.0,880.0,1.0,1,-555.0,1
199,199,-0.5796030293262132,-0.6,0.0,1.0,412.0,520.0,1.0,0,1348.0,1
200,200,-0.6700106813186346,-0.7,1.0,0.0,409.0,508.0,1.0,1,-887.0,0
201,201,0.773445579701458,0.8,1.0,1.0,364.0,706.0,1.0,1,1650.0,1
202,202,-0.14737544040417383,-0.1,1.0,0.0,274.0,805.0,0.0,0,91.0,1
203,203,-0.3202147120329265,-0.3,1.0,0.0,423.0,967.0,1.0,1,-880.0,0
204,204,0.7217527912646918,0.7,1.0,1.0,366.0,578.0,1.0,1,2056.0,1
205,205,-0.5429949816075268,-0.5,0.0,1.0,465.0,577.0,1.0,0,-202.0,1
206,206,0.27116202098837927,0.3,0.0,0.0,381.0,520.0,1.0,0,-511.0,0
207,207,0.5666769010522278,0.6,1.0,1.0,343.0,635.0,0.0,0,-778.0,0
208,208,0.0964156477563205,0.1,0.0,0.0,354.0,855.0,1.0,0,-839.0,0
209,209,0.4532769643087772,0.5,0.0,0.0,307.0,623.0,1.0,0,-400.0,0
210,210,-0.39748307701721963,-0.4,1.0,0.0,297.0,603.0,1.0,1,-810.0,0
211,211,-0.4921968875039272,-0.5,1.0,0.0,314.0,757.0,0.0,0,-221.0,1
212,212,-0.3593144536122356,-0.4,1.0,0.0,364.0,634.0,0.0,0,-328.0,1
213,213,-0.8451500752076021,-0.8,1.0,0.0,360.0,813.0,1.0,1,457.0,0
214,214,-0.6168811569088197,-0.6,1.0,0.0,252.0,657.0,1.0,1,651.0,0
215,215,0.7770302001045316,0.8,0.0,0.0,356.0,560.0,1.0,0,-176.0,0
216,216,-0.2872844319672607,-0.3,1.0,0.0,346.0,694.0,1.0,1,-520.0,0
217,217,-0.14275368465800886,-0.1,1.0,0.0,481.0,926.0,0.0,0,1593.0,1
218,218,-0.4798098562626672,-0.5,0.0,1.0,426.0,575.0,0.0,1,-441.0,0
219,219,-0.5306089762565702,-0.5,0.0,1.0,379.0,954.0,0.0,1,-1333.0,0
220,220,0.4597175432460471,0.5,0.0,0.0,276.0,961.0,1.0,0,-1227.0,0
221,221,0.6521655792676183,0.7,0.0,0.0,407.0,974.0,0.0,1,-411.0,1
222,222,-0.6998739351767387,-0.7,1.0,0.0,463.0,668.0,1.0,1,-891.0,0
223,223,-0.6778205524642162,-0.7,1.0,0.0,437.0,586.0,1.0,1,-933.0,0
224,224,-0.09909469534492177,-0.1,0.0,1.0,271.0,724.0,1.0,0,-635.0,1
225,225,0.5317348983348623,0.5,0.0,0.0,484.0,834.0,1.0,0,32.0,0
226,226,-0.6649611231358808,-0.7,0.0,1.0,360.0,679.0,1.0,0,-1019.0,1
227,227,-0.7544182064573544,-0.8,0.0,1.0,358.0,901.0,1.0,0,141.0,1
228,228,-0.28433659037151027,-0.3,1.0,0.0,497.0,708.0,1.0,1,-1015.0,0
229,229,0.3998756862740155,0.4,0.0,0.0,331.0,705.0,0.0,1,-686.0,1
230,230,-0.320181584928779,-0.3,0.0,1.0,273.0,637.0,0.0,1,2090.0,0
231,231,-0.750916442040293,-0.8,1.0,0.0,276.0,965.0,0.0,0,-111.0,1
232,232,0.6625371882853951,0.7,0.0,0.0,384.0,999.0,0.0,1,-1043.0,1
233,233,-0.7633738692657586,-0.8,1.0,0.0,325.0,757.0,0.0,0,-1042.0,1
234,234,0.048805331671116114,0.0,0.0,0.0,449.0,681.0,0.0,1,-1040.0,1
235,235,-0.8074522648855306,-0.8,0.0,1.0,468.0,900.0,0.0,1,-278.0,0
236,236,-0.6142638581490056,-0.6,1.0,0.0,276.0,968.0,1.0,1,-774.0,0
237,237,-0.08925104231512115,-0.1,0.0,1.0,302.0,685.0,0.0,1,-927.0,0
238,238,0.6517836349027782,0.7,1.0,1.0,316.0,730.0,0.0,0,-956.0,0
239,239,0.8942446316511875,0.9,0.0,0.0,267.0,571.0,0.0,1,-688.0,1
240,240,0.17569097585357973,0.2,1.0,1.0,422.0,657.0,1.0,1,1781.0,1
241,241,-0.8228154646191891,-0.8,1.0,0.0,440.0,828.0,0.0,0,-1008.0,1
242,242,-0.7344088995655242,-0.7,1.0,0.0,271.0,912.0,0.0,0,-953.0,1
243,243,-0.5569849233137607,-0.6,1.0,0.0,390.0,743.0,0.0,0,-843.0,1
244,244,-0.27923042009293075,-0.3,1.0,0.0,287.0,635.0,0.0,0,-282.0,1
245,245,-0.47722358436131285,-0.5,1.0,0.0,428.0,962.0,1.0,1,1610.0,0
246,246,0.02839022268008229,0.0,0.0,0.0,271.0,606.0,0.0,1,-167.0,1
247,247,0.7170592145355567,0.7,0.0,0.0,436.0,711.0,1.0,0,-427.0,0
248,248,-0.304176297855004,-0.3,1.0,0.0,467.0,609.0,0.0,0,-686.0,1
249,249,0.853901648335588,0.9,0.0,0.0,456.0,645.0,0.0,1,-381.0,1
250,250,-0.4691818182222737,-0.5,1.0,0.0,282.0,771.0,0.0,0,337.0,1
251,251,0.2867826983913352,0.3,1.0,1.0,430.0,916.0,1.0,1,-1096.0,1
252,252,-0.23454364411175632,-0.2,0.0,1.0,419.0,855.0,1.0,0,-1054.0,1
253,253,-0.7338785771938228,-0.7,1.0,0.0,304.0,883.0,1.0,1,43.0,0
254,254,0.7276185416546762,0.7,0.0,0.0,313.0,583.0,0.0,1,464.0,1
255,255,-0.8214223557075834,-0.8,1.0,0.0,347.0,962.0,1.0,1,661.0,0
256,256,-0.005464880086421542,-0.0,0.0,1.0,259.0,703.0,0.0,1,928.0,0
257,257,0.3051840291906326,0.3,0.0,0.0,475.0,899.0,0.0,1,-854.0,1
258,258,0.0006579638820306544,0.0,1.0,1.0,495.0,664.0,0.0,0,-429.0,0
259,259,0.8597484047890479,0.9,0.0,0.0,338.0,880.0,0.0,1,-598.0,1
260,260,-0.358740077756182,-0.4,0.0,1.0,493.0,707.0,0.0,1,-330.0,0
261,261,-0.2566961542471099,-0.3,0.0,1.0,336.0,796.0,1.0,0,-992.0,1
262,262,-0.84608955697334,-0.8,1.0,0.0,251.0,869.0,0.0,0,-1060.0,1
263,263,0.2521135612681439,0.3,1.0,1.0,352.0,750.0,0.0,0,-322.0,0
264,264,0.6544769667102598,0.7,0.0,0.0,361.0,571.0,1.0,0,-732.0,0
265,265,-0.693115068394361,-0.7,1.0,0.0,413.0,594.0,1.0,1,-817.0,0
266,266,0.3795475484942842,0.4,1.0,1.0,412.0,659.0,1.0,1,-151.0,1
267,267,-0.13522972760823604,-0.1,1.0,0.0,309.0,950.0,0.0,0,-779.0,1
268,268,-0.5570848281330614,-0.6,1.0,0.0,300.0,506.0,1.0,1,-56.0,0
269,269,0.114623538408961,0.1,0.0,0.0,408.0,785.0,1.0,0,-1183.0,0
270,270,-0.5229793678197258,-0.5,1.0,0.0,430.0,642.0,0.0,0,-792.0,1
271,271,-0.8469842191172562,-0.8,1.0,0.0,464.0,914.0,0.0,0,-1048.0,1
272,272,-0.30782834214981536,-0.3,0.0,1.0,299.0,809.0,1.0,0,-28.0,1
273,273,0.4075326628614021,0.4,1.0,1.0,371.0,746.0,1.0,1,-387.0,1
274,274,0.7521541145285257,0.8,0.0,0.0,468.0,524.0,0.0,1,2008.0,1
275,275,0.8541585428590851,0.9,0.0,0.0,265.0,723.0,1.0,0,2012.0,0
276,276,-0.5517174679076502,-0.6,0.0,1.0,493.0,776.0,1.0,0,-1249.0,1
277,277,0.43671363597237034,0.4,0.0,0.0,391.0,838.0,1.0,0,211.0,0
278,278,-0.4341185763980728,-0.4,1.0,0.0,428.0,639.0,1.0,1,893.0,0
279,279,0.7567830759913189,0.8,1.0,1.0,465.0,588.0,0.0,0,-573.0,0
280,280,-0.775140742896886,-0.8,0.0,1.0,294.0,513.0,0.0,1,-127.0,0
281,281,0.5523223792282789,0.6,0.0,0.0,363.0,867.0,1.0,0,-490.0,0
282,282,-0.8417349438485225,-0.8,1.0,0.0,364.0,646.0,1.0,1,140.0,0
283,283,0.8790933246482965,0.9,0.0,0.0,264.0,980.0,0.0,1,-324.0,1
284,284,-0.4935993799625195,-0.5,0.0,1.0,419.0,708.0,0.0,1,1873.0,0
285,285,0.5084562392104798,0.5,1.0,1.0,470.0,609.0,1.0,1,-829.0,1
286,286,0.5701370214107143,0.6,0.0,0.0,284.0,572.0,0.0,1,944.0,1
287,287,-0.37607861370590123,-0.4,0.0,1.0,328.0,879.0,0.0,1,-847.0,0
288,288,0.6616522930231831,0.7,1.0,1.0,465.0,526.0,1.0,1,-131.0,1
289,289,0.11873705112013322,0.1,1.0,1.0,347.0,769.0,1.0,1,-676.0,1
290,290,0.00912348382397632,0.0,1.0,1.0,436.0,731.0,0.0,0,-327.0,0
291,291,-0.1778801272070164,-0.2,0.0,1.0,251.0,527.0,1.0,0,2222.0,1
292,292,0.09075842410410173,0.1,1.0,1.0,434.0,664.0,0.0,0,1902.0,0
293,293,-0.8185524522111232,-0.8,1.0,0.0,361.0,954.0,0.0,0,-335.0,1
294,294,-0.31631560541689707,-0.3,1.0,0.0,300.0,749.0,0.0,0,-939.0,1
295,295,-0.33001683111470015,-0.3,0.0,1.0,262.0,568.0,1.0,0,2170.0,1
296,296,-0.07852889685455633,-0.1,1.0,0.0,264.0,751.0,1.0,1,-845.0,0
297,297,0.49937896978419494,0.5,0.0,0.0,327.0,932.0,0.0,1,-1149.0,1
298,298,0.8763733412015761,0.9,0.0,0.0,271.0,815.0,1.0,0,334.0,0
299,299,0.6851095855545309,0.7,1.0,1.0,412.0,986.0,0.0,0,-738.0,0
300,300,0.1958934068441346,0.2,0.0,0.0,422.0,871.0,1.0,0,-123.0,0
301,301,0.2965796880308399,0.3,1.0,1.0,344.0,621.0,0.0,0,2035.0,0
302,302,0.4416196513649929,0.4,0.0,0.0,454.0,826.0,1.0,0,-1220.0,0
303,303,0.21243361774669556,0.2,1.0,1.0,424.0,505.0,0.0,0,-909.0,0
304,304,0.18830592366621512,0.2,1.0,1.0,272.0,654.0,1.0,1,-136.0,1
305,305,0.6416085473382919,0.6,1.0,1.0,333.0,907.0,1.0,1,-1230.0,1
306,306,-0.4531432495915201,-0.5,0.0,1.0,408.0,731.0,0.0,1,-949.0,0
307,307,0.008600991687088833,0.0,1.0,1.0,272.0,998.0,0.0,0,-250.0,0
308,308,-0.37776960168331575,-0.4,1.0,0.0,274.0,797.0,1.0,1,-911.0,0
309,309,-0.38174970028571376,-0.4,0.0,1.0,449.0,635.0,1.0,0,-684.0,1
310,310,-0.013034062545106195,-0.0,0.0,1.0,450.0,715.0,0.0,1,-595.0,0
311,311,0.5459493639166718,0.5,1.0,1.0,393.0,779.0,0.0,0,-672.0,0
312,312,0.6072727821015155,0.6,1.0,1.0,439.0,771.0,0.0,0,-250.0,0
313,313,0.289897092822473,0.3,0.0,0.0,397.0,948.0,1.0,0,215.0,0
314,314,0.5205194698276555,0.5,1.0,1.0,492.0,679.0,1.0,1,-1141.0,1
315,315,0.7685612651257107,0.8,0.0,0.0,260.0,659.0,0.0,1,111.0,1
316,316,-0.21440085141193443,-0.2,0.0,1.0,258.0,530.0,0.0,1,382.0,0
317,317,-0.7653664747252784,-0.8,0.0,1.0,375.0,775.0,1.0,0,460.0,1
318,318,0.695098203166331,0.7,0.0,0.0,458.0,551.0,0.0,1,171.0,1
319,319,-0.5957830067706229,-0.6,1.0,0.0,421.0,914.0,0.0,0,105.0,1
320,320,-0.4551219253561197,-0.5,1.0,0.0,293.0,950.0,0.0,0,647.0,1
321,321,0.04373248003468555,0.0,1.0,1.0,361.0,745.0,0.0,0,-1096.0,0
322,322,-0.24610873464636174,-0.2,1.0,0.0,253.0,996.0,1.0,1,1751.0,0
323,323,-0.20170384967882815,-0.2,1.0,0.0,393.0,667.0,1.0,1,-320.0,0
324,324,0.014001110804199413,0.0,0.0,0.0,273.0,586.0,1.0,0,1281.0,0
325,325,0.6834830553772767,0.7,0.0,0.0,394.0,702.0,1.0,0,-416.0,0
326,326,-0.4113342795089633,-0.4,0.0,1.0,440.0,769.0,1.0,0,501.0,1
327,327,-0.02162267653334915,-0.0,0.0,1.0,463.0,989.0,1.0,0,-982.0,1
328,328,-0.8577339323905621,-0.9,0.0,1.0,431.0,576.0,1.0,0,-917.0,1
329,329,0.3682393398901237,0.4,0.0,0.0,301.0,936.0,1.0,0,-1057.0,0
330,330,0.5593820829852066,0.6,1.0,1.0,424.0,630.0,0.0,0,-694.0,0
331,331,-0.5970328434580348,-0.6,0.0,1.0,356.0,617.0,1.0,0,-873.0,1
332,332,-0.33081689501116796,-0.3,1.0,0.0,252.0,748.0,0.0,0,30.0,1
333,333,0.3009422454192908,0.3,0.0,0.0,254.0,980.0,1.0,0,-814.0,0
334,334,0.43207765709954427,0.4,1.0,1.0,321.0,502.0,1.0,1,117.0,1
335,335,-0.44137278604017277,-0.4,1.0,0.0,315.0,508.0,0.0,0,-73.0,1
336,336,0.7815654244600535,0.8,1.0,1.0,373.0,595.0,1.0,1,-678.0,1
337,337,-0.5800723472292014,-0.6,0.0,1.0,492.0,526.0,0.0,1,-558.0,0
338,338,0.28975268650751296,0.3,1.0,1.0,411.0,752.0,1.0,1,1247.0,1
339,339,-0.4645453335355603,-0.5,1.0,0.0,300.0,730.0,0.0,0,-490.0,1
340,340,-0.2132853160057192,-0.2,1.0,0.0,411.0,892.0,1.0,1,-143.0,0
341,341,-0.5125102625043891,-0.5,1.0,0.0,277.0,874.0,1.0,1,-1141.0,0
342,342,-0.007379804442921412,-0.0,1.0,0.0,258.0,800.0,1.0,1,1322.0,0
343,343,-0.6186942985871815,-0.6,0.0,1.0,365.0,511.0,1.0,0,184.0,1
344,344,0.7389376739539385,0.7,1.0,1.0,328.0,833.0,0.0,0,799.0,0
345,345,0.045938217072795884,0.0,1.0,1.0,468.0,838.0,0.0,0,-76.0,0
346,346,0.18667114598605294,0.2,0.0,0.0,443.0,952.0,1.0,0,-1375.0,0
347,347,0.7301271157997397,0.7,1.0,1.0,363.0,784.0,1.0,1,-617.0,1
348,348,-0.025022148554848078,-0.0,1.0,0.0,291.0,907.0,0.0,0,572.0,1
349,349,0.2671549597858335,0.3,0.0,0.0,348.0,972.0,0.0,1,-1140.0,1
350,350,-0.12881314220031603,-0.1,0.0,1.0,428.0,559.0,1.0,0,1563.0,1
351,351,0.25337579845626423,0.3,1.0,1.0,460.0,598.0,0.0,0,-508.0,0
352,352,0.33129446274659224,0.3,0.0,0.0,494.0,958.0,0.0,1,-732.0,1
353,353,-0.8688635199124094,-0.9,1.0,0.0,432.0,989.0,0.0,0,-1351.0,1
354,354,-0.06068507070240958,-0.1,1.0,0.0,439.0,588.0,1.0,1,-907.0,0
355,355,-0.007908334457676025,-0.0,0.0,1.0,397.0,510.0,1.0,0,-187.0,1
356,356,-0.7318799869841883,-0.7,1.0,0.0,467.0,748.0,1.0,1,-195.0,0
357,357,-0.881105022250192,-0.9,1.0,0.0,370.0,755.0,0.0,0,315.0,1
358,358,0.4070371450636,0.4,1.0,1.0,258.0,691.0,1.0,1,-699.0,1
359,359,-0.6953461825853714,-0.7,0.0,1.0,438.0,798.0,1.0,0,-916.0,1
360,360,-0.8264763163378152,-0.8,0.0,1.0,476.0,994.0,1.0,0,-830.0,1
361,361,0.14048737218867868,0.1,1.0,1.0,394.0,924.0,1.0,1,-808.0,1
362,362,-0.2189514434671176,-0.2,1.0,0.0,342.0,931.0,0.0,0,-913.0,1
363,363,0.4050185338889959,0.4,1.0,1.0,302.0,953.0,1.0,1,-1065.0,1
364,364,-0.2562642053125648,-0.3,1.0,0.0,404.0,591.0,1.0,1,165.0,0
365,365,0.14059391762561868,0.1,0.0,0.0,320.0,833.0,0.0,1,-1073.0,1
366,366,-0.4756150890153978,-0.5,0.0,1.0,410.0,828.0,0.0,1,322.0,0
367,367,0.8320140318873684,0.8,1.0,1.0,463.0,627.0,1.0,1,-1040.0,1
368,368,0.8606318072517364,0.9,0.0,0.0,350.0,846.0,0.0,1,-636.0,1
369,369,0.7842470987797988,0.8,1.0,1.0,363.0,779.0,1.0,1,938.0,1
370,370,-0.3771130168883764,-0.4,1.0,0.0,310.0,827.0,0.0,0,-887.0,1
371,371,0.41132315026569277,0.4,1.0,1.0,433.0,955.0,0.0,0,1272.0,0
372,372,0.8184958670613586,0.8,1.0,1.0,314.0,567.0,1.0,1,-831.0,1
373,373,0.7922129598666018,0.8,0.0,0.0,448.0,687.0,1.0,0,-85.0,0
374,374,-0.5173776958717449,-0.5,0.0,1.0,440.0,988.0,0.0,1,-278.0,0
375,375,0.43991115443577045,0.4,1.0,1.0,361.0,854.0,0.0,0,685.0,0
376,376,-0.28007500260293416,-0.3,1.0,0.0,442.0,807.0,1.0,1,-1079.0,0
377,377,-0.29997508154639263,-0.3,0.0,1.0,269.0,883.0,0.0,1,-1152.0,0
378,378,-0.21117270391425347,-0.2,0.0,1.0,464.0,725.0,1.0,0,-59.0,1
379,379,-0.6309433707330894,-0.6,1.0,0.0,317.0,955.0,1.0,1,-322.0,0
380,380,-0.45084067741192485,-0.5,0.0,1.0,324.0,694.0,0.0,1,-898.0,0
381,381,-0.19099614104349438,-0.2,0.0,1.0,465.0,708.0,1.0,0,1827.0,1
382,382,0.2438759308384123,0.2,1.0,1.0,346.0,731.0,1.0,1,423.0,1
383,383,0.7810109521240886,0.8,1.0,1.0,333.0,628.0,0.0,0,-641.0,0
384,384,0.06411386433139543,0.1,0.0,0.0,353.0,635.0,1.0,0,-978.0,0
385,385,0.8469723898503428,0.8,0.0,0.0,470.0,930.0,1.0,0,-1320.0,0
386,386,-0.7907149537706442,-0.8,0.0,1.0,283.0,907.0,0.0,1,-320.0,0
387,387,-0.8660474866753706,-0.9,1.0,0.0,351.0,727.0,1.0,1,-1068.0,0
388,388,-0.24203731114933724,-0.2,1.0,0.0,456.0,721.0,0.0,0,-897.0,1
389,389,-0.1617288325834887,-0.2,0.0,1.0,359.0,515.0,0.0,1,296.0,0
390,390,-0.683366575382411,-0.7,0.0,1.0,324.0,886.0,1.0,0,-930.0,1
391,391,0.8179123345457181,0.8,0.0,0.0,286.0,569.0,1.0,0,-45.0,0
392,392,0.6689634698777199,0.7,1.0,1.0,337.0,799.0,1.0,1,1864.0,1
393,393,-0.8359616944615742,-0.8,0.0,1.0,264.0,945.0,1.0,0,-739.0,1
394,394,-0.5811787235541224,-0.6,0.0,1.0,363.0,615.0,1.0,0,12.0,1
395,395,0.5443544353052242,0.5,0.0,0.0,283.0,932.0,0.0,1,-1165.0,1
396,396,0.2677325954796713,0.3,1.0,1.0,351.0,531.0,0.0,0,868.0,0
397,397,0.6905105104569685,0.7,0.0,0.0,460.0,629.0,0.0,1,-379.0,1
398,398,0.8432454298989053,0.8,1.0,1.0,438.0,913.0,0.0,0,-1291.0,0
399,399,0.6071634164203122,0.6,1.0,1.0,389.0,881.0,1.0,1,110.0,1
400,400,-0.8368311349981453,-0.8,1.0,0.0,497.0,844.0,0.0,0,-401.0,1
401,401,-0.4723080809607224,-0.5,1.0,0.0,374.0,585.0,0.0,0,-569.0,1
402,402,0.5238692798687067,0.5,1.0,1.0,404.0,620.0,0.0,0,656.0,0
403,403,-0.02023440017179312,-0.0,1.0,0.0,272.0,536.0,0.0,0,-618.0,1
404,404,0.4384560266713987,0.4,1.0,1.0,255.0,702.0,0.0,0,-607.0,0
405,405,-0.4678960405337523,-0.5,1.0,0.0,357.0,770.0,1.0,1,-967.0,0
406,406,-0.30727994433793715,-0.3,1.0,0.0,426.0,928.0,0.0,0,366.0,1
407,407,0.6331525808712309,0.6,1.0,1.0,397.0,616.0,1.0,1,217.0,1
408,408,0.17416855370502782,0.2,0.0,0.0,427.0,622.0,1.0,0,1951.0,0
409,409,-0.2789246539328113,-0.3,1.0,0.0,463.0,601.0,0.0,0,1566.0,1
410,410,0.3577588884288193,0.4,1.0,1.0,283.0,602.0,0.0,0,75.0,0
411,411,0.5804463156068428,0.6,0.0,0.0,362.0,547.0,0.0,1,-549.0,1
412,412,0.48785623751881835,0.5,0.0,0.0,442.0,709.0,1.0,0,1849.0,0
413,413,-0.06189967349891812,-0.1,1.0,0.0,332.0,884.0,0.0,0,-826.0,1
414,414,0.0007674238386150556,0.0,0.0,0.0,270.0,688.0,0.0,1,-738.0,1
415,415,-0.42159606853664217,-0.4,1.0,0.0,381.0,968.0,1.0,1,-919.0,0
416,416,0.09344911912717846,0.1,1.0,1.0,385.0,997.0,1.0,1,-622.0,1
417,417,-0.4815994508820019,-0.5,0.0,1.0,404.0,753.0,0.0,1,-97.0,0
418,418,-0.37925073363472994,-0.4,1.0,0.0,328.0,598.0,1.0,1,-366.0,0
419,419,-0.8956866552307522,-0.9,0.0,1.0,427.0,708.0,1.0,0,1735.0,1
420,420,0.6205720331525494,0.6,1.0,1.0,493.0,589.0,0.0,0,258.0,0
421,421,0.8095337540528921,0.8,0.0,0.0,457.0,700.0,1.0,0,-547.0,0
422,422,-0.8811210328211243,-0.9,1.0,0.0,315.0,754.0,1.0,1,-559.0,0
423,423,0.08565362612380023,0.1,1.0,1.0,310.0,644.0,1.0,1,-404.0,1
424,424,0.7704204632625523,0.8,0.0,0.0,399.0,543.0,1.0,0,2058.0,0
425,425,0.41045093636827945,0.4,0.0,0.0,335.0,714.0,1.0,0,-189.0,0
426,426,-0.39397265623873223,-0.4,1.0,0.0,335.0,754.0,1.0,1,-769.0,0
427,427,0.2860950115542126,0.3,1.0,1.0,422.0,533.0,0.0,0,485.0,0
428,428,0.20672584101237146,0.2,0.0,0.0,432.0,600.0,1.0,0,-722.0,0
429,429,-0.3593904412600004,-0.4,1.0,0.0,307.0,769.0,1.0,1,-436.0,0
430,430,0.6535065053241561,0.7,1.0,1.0,340.0,696.0,0.0,0,-536.0,0
431,431,-0.7039405801279925,-0.7,0.0,1.0,307.0,750.0,1.0,0,1063.0,1
432,432,-0.7785242705301019,-0.8,0.0,1.0,381.0,891.0,1.0,0,-662.0,1
433,433,0.7010654871048255,0.7,1.0,1.0,264.0,900.0,1.0,1,1816.0,1
434,434,-0.08951027969415393,-0.1,1.0,0.0,281.0,959.0,1.0,1,-780.0,0
435,435,0.11076761714050487,0.1,0.0,0.0,272.0,980.0,1.0,0,-982.0,0
436,436,0.36306167442629145,0.4,1.0,1.0,477.0,878.0,1.0,1,225.0,1
437,437,-0.5214194167224171,-0.5,1.0,0.0,486.0,791.0,1.0,1,-327.0,0
438,438,-0.0536450419022364,-0.1,1.0,0.0,294.0,948.0,1.0,1,-992.0,0
439,439,0.07305838611018878,0.1,1.0,1.0,439.0,761.0,1.0,1,-600.0,1
440,440,-0.2947263867920521,-0.3,0.0,1.0,470.0,751.0,1.0,0,289.0,1
441,441,0.13497178821743117,0.1,0.0,0.0,363.0,509.0,1.0,0,-862.0,0
442,442,-0.8556877157140765,-0.9,0.0,1.0,424.0,648.0,0.0,1,-552.0,0
443,443,-0.23574067425236478,-0.2,0.0,1.0,382.0,842.0,1.0,0,1126.0,1
444,444,0.783119488440489,0.8,0.0,0.0,389.0,528.0,1.0,0,-727.0,0
445,445,0.5657466431902839,0.6,0.0,0.0,485.0,671.0,1.0,0,1844.0,0
446,446,-0.7296410655289884,-0.7,0.0,1.0,376.0,650.0,1.0,0,-1026.0,1
447,447,0.47326855937064416,0.5,1.0,1.0,405.0,723.0,1.0,1,1382.0,1
448,448,-0.5146019433657727,-0.5,0.0,1.0,488.0,709.0,0.0,1,-387.0,0
449,449,0.8741653577309677,0.9,0.0,0.0,344.0,810.0,1.0,0,-714.0,0
450,450,-0.5373379168215591,-0.5,1.0,0.0,355.0,640.0,0.0,0,-765.0,1
451,451,0.21302115553990786,0.2,0.0,0.0,376.0,680.0,0.0,1,-896.0,1
452,452,0.7318377574920335,0.7,1.0,1.0,358.0,909.0,1.0,1,-1117.0,1
453,453,0.7183263948556583,0.7,0.0,0.0,347.0,708.0,1.0,0,1365.0,0
454,454,-0.3330856405863166,-0.3,0.0,1.0,445.0,645.0,0.0,1,-340.0,0
455,455,-0.0014519387874982748,-0.0,0.0,1.0,336.0,552.0,1.0,0,-198.0,1
456,456,0.5389201137710641,0.5,1.0,1.0,490.0,858.0,0.0,0,-418.0,0
457,457,-0.6439913312075495,-0.6,0.0,1.0,358.0,932.0,1.0,0,-1210.0,1
458,458,-0.6807291736645726,-0.7,1.0,0.0,259.0,782.0,1.0,1,-851.0,0
459,459,0.7242327692260969,0.7,0.0,0.0,467.0,898.0,1.0,0,-1365.0,0
460,460,0.7047175527095532,0.7,0.0,0.0,358.0,758.0,1.0,0,-56.0,0
461,461,-0.07719608616453966,-0.1,1.0,0.0,330.0,744.0,1.0,1,-884.0,0
462,462,-0.494235337255253,-0.5,1.0,0.0,426.0,733.0,1.0,1,-709.0,0
463,463,-0.047699303585155395,-0.0,0.0,1.0,471.0,552.0,0.0,1,1567.0,0
464,464,-0.29869030811718966,-0.3,1.0,0.0,391.0,761.0,1.0,1,1278.0,0
465,465,0.22870694829015126,0.2,1.0,1.0,470.0,780.0,1.0,1,-1080.0,1
466,466,0.7858711821903387,0.8,0.0,0.0,364.0,850.0,1.0,0,-424.0,0
467,467,-0.29082204606573303,-0.3,1.0,0.0,269.0,598.0,0.0,0,-427.0,1
468,468,0.32885826540740404,0.3,0.0,0.0,387.0,620.0,1.0,0,53.0,0
469,469,0.7408986263503846,0.7,1.0,1.0,281.0,522.0,1.0,1,717.0,1
470,470,0.2263236965207044,0.2,1.0,1.0,465.0,641.0,0.0,0,-916.0,0
471,471,0.024247580357260823,0.0,1.0,1.0,282.0,757.0,0.0,0,-1029.0,0
472,472,0.5384932733402849,0.5,0.0,0.0,307.0,846.0,0.0,1,-1113.0,1
473,473,-0.6355447813967844,-0.6,1.0,0.0,433.0,686.0,1.0,1,-1069.0,0
474,474,0.8698944275467585,0.9,1.0,1.0,281.0,617.0,1.0,1,2102.0,1
475,475,0.6907229975833268,0.7,1.0,1.0,489.0,968.0,1.0,1,-967.0,1
476,476,0.35157321757216253,0.4,0.0,0.0,478.0,743.0,0.0,1,1659.0,1
477,477,0.6778531309287438,0.7,1.0,1.0,332.0,966.0,0.0,0,-738.0,0
478,478,-0.44104055287198046,-0.4,1.0,0.0,348.0,737.0,1.0,1,-1055.0,0
479,479,-0.14974833430244272,-0.1,1.0,0.0,303.0,995.0,0.0,0,-1238.0,1
480,480,0.18573309583676656,0.2,1.0,1.0,312.0,889.0,1.0,1,-931.0,1
481,481,0.7819485394873008,0.8,1.0,1.0,471.0,844.0,1.0,1,-1255.0,1
482,482,0.6658595261457744,0.7,1.0,1.0,470.0,655.0,0.0,0,-135.0,0
483,483,0.1839359178514105,0.2,0.0,0.0,311.0,977.0,1.0,0,-278.0,0
484,484,-0.655778629512344,-0.7,1.0,0.0,461.0,956.0,0.0,0,-1267.0,1
485,485,0.23293615198969408,0.2,0.0,0.0,277.0,502.0,1.0,0,2221.0,0
486,486,0.1599406726945446,0.2,0.0,0.0,400.0,756.0,0.0,1,-1086.0,1
487,487,-0.09541164776943023,-0.1,1.0,0.0,391.0,701.0,0.0,0,1738.0,1
488,488,0.10126196121637021,0.1,0.0,0.0,453.0,881.0,1.0,0,-554.0,0
489,489,-0.03879456010511939,-0.0,1.0,0.0,417.0,684.0,0.0,0,-201.0,1
490,490,-0.6344796800569289,-0.6,1.0,0.0,317.0,616.0,0.0,0,87.0,1
491,491,-0.875354329715176,-0.9,1.0,0.0,481.0,886.0,1.0,1,1093.0,0
492,492,-0.8250111045903541,-0.8,0.0,1.0,377.0,585.0,0.0,1,918.0,0
493,493,0.09432282452914775,0.1,1.0,1.0,491.0,684.0,0.0,0,1675.0,0
494,494,0.8195741465385881,0.8,1.0,1.0,499.0,678.0,0.0,0,493.0,0
495,495,-0.21808948531683459,-0.2,0.0,1.0,266.0,609.0,1.0,0,-635.0,1
496,496,-0.7823806795951528,-0.8,1.0,0.0,287.0,898.0,1.0,1,-215.0,0
497,497,0.28293609468885583,0.3,0.0,0.0,434.0,776.0,1.0,0,-600.0,0
498,498,0.668548630571213,0.7,0.0,0.0,426.0,703.0,1.0,0,-1069.0,0
499,499,0.3684210232243229,0.4,0.0,0.0,326.0,918.0,0.0,1,-854.0,1
500,500,-0.8168172497885027,-0.8,1.0,0.0,369.0,779.0,0.0,0,-58.0,1
501,501,0.8044437685280849,0.8,1.0,1.0,491.0,562.0,0.0,0,1437.0,0
502,502,-0.2691204657527173,-0.3,0.0,1.0,454.0,606.0,0.0,1,-860.0,0
503,503,0.6647415860544371,0.7,1.0,1.0,326.0,723.0,1.0,1,191.0,1
504,504,0.5125203530466355,0.5,0.0,0.0,479.0,907.0,1.0,0,-1016.0,0
505,505,0.2216524656318496,0.2,1.0,1.0,332.0,973.0,1.0,1,-605.0,1
506,506,0.0863591062518192,0.1,0.0,0.0,295.0,566.0,0.0,1,-781.0,1
507,507,-0.7093641776621777,-0.7,1.0,0.0,471.0,899.0,0.0,0,-830.0,1
508,508,-0.6606812965793014,-0.7,1.0,0.0,389.0,863.0,1.0,1,-852.0,0
509,509,-0.467393168555041,-0.5,1.0,0.0,436.0,544.0,1.0,1,-380.0,0
510,510,0.4041717066689773,0.4,1.0,1.0,302.0,896.0,1.0,1,-1128.0,1
511,511,0.11648907634437455,0.1,0.0,0.0,430.0,953.0,1.0,0,1617.0,0
512,512,0.5189893607046531,0.5,0.0,0.0,409.0,920.0,1.0,0,1671.0,0
513,513,-0.1701792928212672,-0.2,1.0,0.0,262.0,546.0,1.0,1,-778.0,0
514,514,0.48326501628836527,0.5,0.0,0.0,373.0,860.0,1.0,0,-103.0,0
515,515,-0.7998445087066711,-0.8,1.0,0.0,443.0,957.0,1.0,1,-1170.0,0
516,516,0.326072750894986,0.3,1.0,1.0,349.0,760.0,0.0,0,-289.0,0
517,517,0.09881550019507601,0.1,0.0,0.0,395.0,647.0,1.0,0,-592.0,0
518,518,0.014928263162146793,0.0,0.0,0.0,262.0,929.0,0.0,1,-821.0,1
519,519,0.17766190147849936,0.2,1.0,1.0,410.0,702.0,1.0,1,168.0,1
520,520,0.1937156820138134,0.2,1.0,1.0,449.0,642.0,0.0,0,-641.0,0
521,521,0.5196095696278314,0.5,1.0,1.0,416.0,940.0,1.0,1,-1306.0,1
522,522,-0.2134314962596403,-0.2,0.0,1.0,266.0,996.0,0.0,1,318.0,0
523,523,-0.28958480132774045,-0.3,0.0,1.0,335.0,786.0,0.0,1,39.0,0
524,524,-0.0805556821630794,-0.1,0.0,1.0,478.0,769.0,1.0,0,-777.0,1
525,525,0.3933533550973062,0.4,0.0,0.0,498.0,574.0,1.0,0,-1022.0,0
526,526,0.23405562742984964,0.2,1.0,1.0,490.0,836.0,0.0,0,-1276.0,0
527,527,-0.6211467588456592,-0.6,1.0,0.0,343.0,932.0,1.0,1,-855.0,0
528,528,-0.7906557682274797,-0.8,1.0,0.0,426.0,602.0,1.0,1,-1028.0,0
529,529,-0.7148062476857711,-0.7,1.0,0.0,371.0,647.0,0.0,0,1322.0,1
530,530,0.0804647382135033,0.1,0.0,0.0,276.0,996.0,0.0,1,-632.0,1
531,531,-0.12437758283207967,-0.1,0.0,1.0,452.0,771.0,0.0,1,-1143.0,0
532,532,-0.6470640920329699,-0.6,0.0,1.0,480.0,914.0,1.0,0,886.0,1
533,533,0.05828306906604941,0.1,1.0,1.0,333.0,915.0,0.0,0,132.0,0
534,534,-0.021253536839378917,-0.0,0.0,1.0,327.0,802.0,0.0,1,-879.0,0
535,535,0.07852196426443792,0.1,0.0,0.0,445.0,580.0,0.0,1,655.0,1
536,536,-0.19042342045416238,-0.2,1.0,0.0,491.0,535.0,0.0,0,-816.0,1
537,537,-0.5727659116492574,-0.6,0.0,1.0,440.0,664.0,1.0,0,266.0,1
538,538,0.7745104337580336,0.8,1.0,1.0,250.0,951.0,1.0,1,-891.0,1
539,539,0.6719224304918002,0.7,0.0,0.0,395.0,977.0,0.0,1,-1242.0,1
540,540,-0.2748496252661373,-0.3,1.0,0.0,437.0,900.0,1.0,1,-647.0,0
541,541,-0.881608778337146,-0.9,1.0,0.0,285.0,670.0,0.0,0,2045.0,1
542,542,0.30662188698855586,0.3,1.0,1.0,355.0,946.0,1.0,1,-1191.0,1
543,543,-0.5862223965297446,-0.6,0.0,1.0,377.0,913.0,1.0,0,-980.0,1
544,544,0.34840960757040274,0.3,0.0,0.0,310.0,524.0,0.0,1,2166.0,1
545,545,-0.046897644928014626,-0.0,0.0,1.0,364.0,545.0,0.0,1,-199.0,0
546,546,-0.11972930040449303,-0.1,0.0,1.0,352.0,861.0,0.0,1,-593.0,0
547,547,0.23099007812754102,0.2,0.0,0.0,348.0,917.0,0.0,1,1735.0,1
548,548,0.5924492029993228,0.6,1.0,1.0,317.0,922.0,0.0,0,-789.0,0
549,549,-0.18239512345733122,-0.2,0.0,1.0,282.0,780.0,0.0,1,798.0,0
550,550,0.6794886825567786,0.7,1.0,1.0,276.0,760.0,0.0,0,1764.0,0
551,551,0.5246702008437999,0.5,0.0,0.0,428.0,952.0,1.0,0,-1150.0,0
552,552,-0.7182559554065558,-0.7,0.0,1.0,347.0,507.0,1.0,0,376.0,1
553,553,-0.6838510645424848,-0.7,1.0,0.0,277.0,583.0,1.0,1,-640.0,0
554,554,0.13176649574965416,0.1,1.0,1.0,431.0,959.0,0.0,0,-1170.0,0
555,555,-0.04401158001221561,-0.0,1.0,0.0,281.0,654.0,1.0,1,-395.0,0
556,556,-0.34639804721116707,-0.3,0.0,1.0,270.0,946.0,1.0,0,354.0,1
557,557,0.39714379351839135,0.4,1.0,1.0,376.0,806.0,0.0,0,-902.0,0
558,558,0.22730762281978156,0.2,0.0,0.0,375.0,900.0,1.0,0,-985.0,0
559,559,-0.5678381648145623,-0.6,1.0,0.0,316.0,565.0,0.0,0,-341.0,1
560,560,0.260701694468758,0.3,0.0,0.0,369.0,596.0,1.0,0,2035.0,0
561,561,0.5043415018173333,0.5,0.0,0.0,410.0,521.0,0.0,1,1539.0,1
562,562,0.6519183239456318,0.7,0.0,0.0,251.0,668.0,1.0,0,-909.0,0
563,563,-0.5911460850527372,-0.6,0.0,1.0,398.0,777.0,1.0,0,-1125.0,1
564,564,0.8422068763398706,0.8,1.0,1.0,366.0,850.0,1.0,1,-626.0,1
565,565,0.2406682408962143,0.2,0.0,0.0,292.0,659.0,1.0,0,1769.0,0
566,566,0.3101317750905418,0.3,0.0,0.0,447.0,991.0,0.0,1,1562.0,1
567,567,0.3481257317634262,0.3,0.0,0.0,457.0,517.0,1.0,0,156.0,0
568,568,0.11300225838611977,0.1,1.0,1.0,314.0,939.0,1.0,1,-1073.0,1
569,569,0.6923684539251743,0.7,0.0,0.0,411.0,588.0,1.0,0,-749.0,0
570,570,0.8893932138947397,0.9,1.0,1.0,292.0,697.0,1.0,1,241.0,1
571,571,-0.3881222099073993,-0.4,1.0,0.0,419.0,946.0,0.0,0,-1345.0,1
572,572,-0.11146291379708484,-0.1,1.0,0.0,457.0,578.0,0.0,0,-135.0,1
573,573,0.18736669242035597,0.2,1.0,1.0,364.0,734.0,0.0,0,-1058.0,0
574,574,-0.31556660214655996,-0.3,0.0,1.0,328.0,531.0,1.0,0,271.0,1
575,575,0.7771986274425199,0.8,1.0,1.0,434.0,548.0,0.0,0,-262.0,0
576,576,-0.2943517625506915,-0.3,0.0,1.0,301.0,926.0,1.0,0,-687.0,1
577,577,0.7481262416922777,0.7,0.0,0.0,495.0,902.0,0.0,1,383.0,1
578,578,-0.707747098965894,-0.7,0.0,1.0,275.0,968.0,1.0,0,-503.0,1
579,579,-0.19980918253121138,-0.2,0.0,1.0,431.0,815.0,1.0,0,1754.0,1
580,580,-0.4052634354649492,-0.4,1.0,0.0,269.0,980.0,0.0,0,-519.0,1
581,581,-0.7403478888269824,-0.7,0.0,1.0,257.0,928.0,0.0,1,-385.0,0
582,582,0.25546202623868386,0.3,0.0,0.0,401.0,525.0,1.0,0,2074.0,0
583,583,-0.591849427801882,-0.6,1.0,0.0,273.0,876.0,1.0,1,-189.0,0
584,584,-0.765925847492466,-0.8,1.0,0.0,433.0,748.0,1.0,1,789.0,0
585,585,0.3358457448119704,0.3,1.0,1.0,495.0,898.0,0.0,0,437.0,0
586,586,0.8337880178513416,0.8,1.0,1.0,450.0,787.0,1.0,1,1423.0,1
587,587,0.4337714888268104,0.4,0.0,0.0,292.0,996.0,0.0,1,-1228.0,1
588,588,0.38498382976593815,0.4,0.0,0.0,475.0,639.0,0.0,1,-684.0,1
589,589,-0.854035969186097,-0.9,1.0,0.0,309.0,660.0,1.0,1,731.0,0
590,590,0.8743599922767004,0.9,0.0,0.0,279.0,556.0,1.0,0,-735.0,0
591,591,-0.07235900280839536,-0.1,0.0,1.0,345.0,645.0,0.0,1,-670.0,0
592,592,-0.626425998694023,-0.6,0.0,1.0,448.0,683.0,0.0,1,-331.0,0
593,593,0.46119697421685346,0.5,0.0,0.0,492.0,516.0,1.0,0,-298.0,0
594,594,0.05377350969588923,0.1,0.0,0.0,357.0,556.0,1.0,0,317.0,0
595,595,-0.7664544800715429,-0.8,0.0,1.0,443.0,929.0,0.0,1,-1132.0,0
596,596,0.5753190633478823,0.6,1.0,1.0,393.0,527.0,0.0,0,-80.0,0
597,597,0.0002926537134994023,0.0,0.0,0.0,412.0,526.0,1.0,0,1532.0,0
598,598,-0.2388794898518689,-0.2,1.0,0.0,445.0,897.0,1.0,1,-642.0,0
599,599,0.37401442475105806,0.4,1.0,1.0,350.0,881.0,1.0,1,-951.0,1
600,600,-0.4650660281137863,-0.5,0.0,1.0,489.0,899.0,0.0,1,1612.0,0
601,601,0.11282600986302882,0.1,1.0,1.0,371.0,698.0,0.0,0,701.0,0
602,602,-0.4167437526049325,-0.4,1.0,0.0,391.0,572.0,1.0,1,-953.0,0
603,603,-0.24302697022770137,-0.2,0.0,1.0,285.0,600.0,1.0,0,-685.0,1
604,604,0.7724044728592413,0.8,1.0,1.0,255.0,708.0,1.0,1,-953.0,1
605,605,-0.7815280473479712,-0.8,0.0,1.0,355.0,527.0,1.0,0,-32.0,1
606,606,-0.3690257568665387,-0.4,0.0,1.0,282.0,535.0,1.0,0,-757.0,1
607,607,-0.04609672277907306,-0.0,1.0,0.0,323.0,582.0,1.0,1,-65.0,0
608,608,0.28833533976439385,0.3,1.0,1.0,283.0,872.0,0.0,0,-225.0,0
609,609,0.8409711220133494,0.8,0.0,0.0,431.0,543.0,1.0,0,1436.0,0
610,610,-0.07733782953739843,-0.1,1.0,0.0,331.0,586.0,1.0,1,53.0,0
611,611,-0.3549649701416845,-0.4,0.0,1.0,392.0,987.0,0.0,1,-1179.0,0
612,612,-0.8896804373714928,-0.9,1.0,0.0,293.0,521.0,1.0,1,-424.0,0
613,613,-0.6463722453398492,-0.6,1.0,0.0,311.0,864.0,0.0,0,-1035.0,1
614,614,-0.8621649106966817,-0.9,0.0,1.0,353.0,892.0,1.0,0,-1185.0,1
615,615,-0.38078713023850475,-0.4,1.0,0.0,331.0,805.0,0.0,0,-1016.0,1
616,616,0.3366570181647356,0.3,0.0,0.0,255.0,863.0,1.0,0,1882.0,0
617,617,0.6809499246024578,0.7,0.0,0.0,343.0,702.0,1.0,0,-605.0,0
618,618,0.6979442644675694,0.7,1.0,1.0,270.0,670.0,0.0,0,450.0,0
619,619,0.6290374465273721,0.6,1.0,1.0,382.0,845.0,1.0,1,-1187.0,1
620,620,0.13275712493274427,0.1,1.0,1.0,413.0,648.0,0.0,0,1429.0,0
621,621,-0.28590147783586695,-0.3,0.0,1.0,383.0,758.0,0.0,1,-1011.0,0
622,622,0.3628983245927243,0.4,0.0,0.0,427.0,556.0,1.0,0,-493.0,0
623,623,0.381013318401462,0.4,1.0,1.0,425.0,758.0,1.0,1,-373.0,1
624,624,0.3329481736551151,0.3,0.0,0.0,441.0,965.0,1.0,0,-586.0,0
625,625,-0.42592706197410624,-0.4,1.0,0.0,341.0,628.0,0.0,0,-449.0,1
626,626,0.18080532903697943,0.2,0.0,0.0,357.0,846.0,0.0,1,-583.0,1
627,627,-0.7029406224735743,-0.7,1.0,0.0,336.0,896.0,1.0,1,-672.0,0
628,628,0.08706022310626949,0.1,0.0,0.0,372.0,545.0,0.0,1,-7.0,1
629,629,-0.7129541025031186,-0.7,1.0,0.0,449.0,563.0,0.0,0,1988.0,1
630,630,-0.635041121360469,-0.6,0.0,1.0,367.0,532.0,0.0,1,721.0,0
631,631,-0.7923023023396096,-0.8,1.0,0.0,418.0,660.0,0.0,0,-558.0,1
632,632,-0.15971509188180955,-0.2,1.0,0.0,476.0,784.0,0.0,0,0.0,1
633,633,0.5129034742657429,0.5,1.0,1.0,264.0,590.0,0.0,0,1276.0,0
634,634,-0.5718703440689585,-0.6,0.0,1.0,328.0,529.0,0.0,1,-727.0,0
635,635,0.15384134295176588,0.2,1.0,1.0,343.0,540.0,0.0,0,-823.0,0
636,636,0.8419697498429911,0.8,0.0,0.0,457.0,589.0,1.0,0,1954.0,0
637,637,-0.6912658981415462,-0.7,1.0,0.0,426.0,635.0,1.0,1,1299.0,0
638,638,-0.16944863321535275,-0.2,0.0,1.0,378.0,594.0,0.0,1,-962.0,0
639,639,-0.21074231247349517,-0.2,1.0,0.0,282.0,666.0,0.0,0,-908.0,1
640,640,-0.07536887738892262,-0.1,1.0,0.0,364.0,625.0,1.0,1,2011.0,0
641,641,-0.29994431941194266,-0.3,1.0,0.0,457.0,673.0,1.0,1,-670.0,0
642,642,-0.6847724299000766,-0.7,1.0,0.0,283.0,643.0,0.0,0,-486.0,1
643,643,0.8526538991085185,0.9,0.0,0.0,257.0,782.0,0.0,1,-319.0,1
644,644,-0.47539004089691433,-0.5,1.0,0.0,390.0,780.0,0.0,0,170.0,1
645,645,0.8428584555229942,0.8,1.0,1.0,405.0,560.0,1.0,1,-25.0,1
646,646,-0.8781668162548142,-0.9,0.0,1.0,269.0,988.0,1.0,0,463.0,1
647,647,0.7985284785545671,0.8,0.0,0.0,420.0,539.0,1.0,0,-699.0,0
648,648,-0.0581004378539276,-0.1,0.0,1.0,351.0,587.0,1.0,0,-8.0,1
649,649,-0.6856545221433022,-0.7,0.0,1.0,395.0,725.0,1.0,0,-480.0,1
650,650,-0.6924092283627792,-0.7,0.0,1.0,349.0,725.0,1.0,0,1146.0,1
651,651,-0.7446927404193132,-0.7,0.0,1.0,376.0,773.0,0.0,1,-809.0,0
652,652,-0.8533935866040914,-0.9,0.0,1.0,489.0,581.0,0.0,1,-930.0,0
653,653,0.3174163933543229,0.3,1.0,1.0,473.0,599.0,1.0,1,518.0,1
654,654,-0.44160183454498386,-0.4,1.0,0.0,277.0,748.0,1.0,1,655.0,0
655,655,0.5297674071576014,0.5,0.0,0.0,370.0,617.0,1.0,0,403.0,0
656,656,-0.08534714542901656,-0.1,1.0,0.0,351.0,756.0,1.0,1,-1077.0,0
657,657,0.3982839304785116,0.4,0.0,0.0,438.0,939.0,0.0,1,-1067.0,1
658,658,0.6850302917276895,0.7,1.0,1.0,412.0,974.0,0.0,0,-1186.0,0
659,659,-0.814892614676208,-0.8,1.0,0.0,353.0,834.0,0.0,0,-1157.0,1
660,660,-0.7197299236101249,-0.7,1.0,0.0,313.0,965.0,1.0,1,-268.0,0
661,661,0.6266678795267798,0.6,1.0,1.0,439.0,715.0,0.0,0,-1124.0,0
662,662,0.06683691969278949,0.1,0.0,0.0,438.0,654.0,1.0,0,-972.0,0
663,663,0.4866370250770894,0.5,1.0,1.0,461.0,589.0,0.0,0,-100.0,0
664,664,-0.8435090674241695,-0.8,1.0,0.0,453.0,740.0,1.0,1,1807.0,0
665,665,0.06774372255917649,0.1,0.0,0.0,367.0,599.0,1.0,0,-66.0,0
666,666,0.44477607714978984,0.4,0.0,0.0,401.0,617.0,1.0,0,-438.0,0
667,667,-0.5604229130108359,-0.6,1.0,0.0,272.0,966.0,0.0,0,92.0,1
668,668,0.872398667408847,0.9,0.0,0.0,398.0,523.0,0.0,1,-471.0,1
669,669,0.7306762046765499,0.7,1.0,1.0,395.0,892.0,0.0,0,-1277.0,0
670,670,0.6146006873569659,0.6,0.0,0.0,382.0,884.0,0.0,1,-1156.0,1
671,671,0.8689683593608811,0.9,1.0,1.0,474.0,767.0,0.0,0,-1191.0,0
672,672,-0.5458524291318771,-0.5,0.0,1.0,371.0,605.0,1.0,0,1544.0,1
673,673,0.6906521342390538,0.7,0.0,0.0,481.0,797.0,1.0,0,-1058.0,0
674,674,-0.11016469465979162,-0.1,0.0,1.0,405.0,531.0,0.0,1,-116.0,0
675,675,0.3858444717177413,0.4,1.0,1.0,337.0,884.0,1.0,1,-551.0,1
676,676,-0.4600718060940104,-0.5,1.0,0.0,317.0,726.0,1.0,1,1957.0,0
677,677,-0.1669272850894381,-0.2,0.0,1.0,263.0,974.0,0.0,1,-697.0,0
678,678,-0.4549459478543011,-0.5,0.0,1.0,333.0,645.0,0.0,1,602.0,0
679,679,0.7716461732617051,0.8,1.0,1.0,402.0,558.0,1.0,1,-720.0,1
680,680,-0.06088937768722935,-0.1,1.0,0.0,486.0,669.0,1.0,1,-1125.0,0
681,681,0.21610008522117508,0.2,0.0,0.0,260.0,635.0,1.0,0,195.0,0
682,682,0.4725015403811753,0.5,0.0,0.0,332.0,564.0,1.0,0,344.0,0
683,683,-0.03459967540735387,-0.0,0.0,1.0,327.0,583.0,0.0,1,1300.0,0
684,684,-0.7679509395764731,-0.8,0.0,1.0,341.0,845.0,1.0,0,1814.0,1
685,685,-0.5457212312434281,-0.5,1.0,0.0,341.0,877.0,0.0,0,-208.0,1
686,686,-0.2045138142584494,-0.2,1.0,0.0,455.0,903.0,1.0,1,1642.0,0
687,687,-0.10029485551577755,-0.1,0.0,1.0,367.0,619.0,0.0,1,-826.0,0
688,688,0.23209660341465288,0.2,1.0,1.0,280.0,944.0,0.0,0,-994.0,0
689,689,-0.2260291318127564,-0.2,1.0,0.0,389.0,766.0,1.0,1,1605.0,0
690,690,0.1888647136324485,0.2,0.0,0.0,350.0,716.0,0.0,1,54.0,1
691,691,-0.1912398408166096,-0.2,1.0,0.0,411.0,825.0,0.0,0,1764.0,1
692,692,-0.8648581556490786,-0.9,1.0,0.0,454.0,871.0,1.0,1,-1315.0,0
693,693,-0.5213326280957711,-0.5,0.0,1.0,380.0,729.0,1.0,0,-749.0,1
694,694,-0.20101299110113469,-0.2,1.0,0.0,252.0,575.0,0.0,0,1393.0,1
695,695,-0.6961954756634846,-0.7,1.0,0.0,343.0,638.0,0.0,0,-971.0,1
696,696,0.31170036197077533,0.3,1.0,1.0,341.0,893.0,0.0,0,276.0,0
697,697,-0.6046327658841639,-0.6,1.0,0.0,433.0,690.0,0.0,0,1877.0,1
698,698,0.8704264440164141,0.9,1.0,1.0,264.0,705.0,0.0,0,181.0,0
699,699,0.7083448743058006,0.7,0.0,0.0,497.0,642.0,1.0,0,-979.0,0
700,700,-0.673323802276791,-0.7,0.0,1.0,405.0,574.0,0.0,1,1501.0,0
701,701,-0.32468272168887924,-0.3,0.0,1.0,435.0,757.0,0.0,1,-1142.0,0
702,702,0.15927226117079962,0.2,0.0,0.0,279.0,732.0,0.0,1,-601.0,1
703,703,0.6078657769529093,0.6,1.0,1.0,296.0,678.0,0.0,0,-694.0,0
704,704,0.5293176607890885,0.5,0.0,0.0,251.0,700.0,0.0,1,-821.0,1
705,705,-0.4263914935692427,-0.4,0.0,1.0,452.0,632.0,0.0,1,-1054.0,0
706,706,0.4755627704269966,0.5,0.0,0.0,302.0,870.0,1.0,0,-902.0,0
707,707,0.6568879475157617,0.7,0.0,0.0,391.0,759.0,1.0,0,1850.0,0
708,708,-0.7154357396395663,-0.7,0.0,1.0,471.0,743.0,0.0,1,-414.0,0
709,709,0.06306653701313403,0.1,1.0,1.0,282.0,728.0,1.0,1,-480.0,1
710,710,0.78470862582517,0.8,1.0,1.0,368.0,972.0,0.0,0,-130.0,0
711,711,-0.8531140806892605,-0.9,0.0,1.0,368.0,704.0,0.0,1,8.0,0
712,712,-0.14527486521655464,-0.1,1.0,0.0,296.0,944.0,1.0,1,-1230.0,0
713,713,0.7814717665716516,0.8,1.0,1.0,326.0,561.0,0.0,0,223.0,0
714,714,-0.6128765318508742,-0.6,1.0,0.0,301.0,614.0,1.0,1,1215.0,0
715,715,-0.3306823136437679,-0.3,0.0,1.0,388.0,729.0,0.0,1,783.0,0
716,716,0.4924375927231469,0.5,1.0,1.0,286.0,996.0,1.0,1,-672.0,1
717,717,0.35810421349273736,0.4,0.0,0.0,488.0,725.0,1.0,0,-263.0,0
718,718,0.7755266329327518,0.8,1.0,1.0,418.0,967.0,1.0,1,-415.0,1
719,719,-0.4996686089592117,-0.5,0.0,1.0,389.0,753.0,1.0,0,-802.0,1
720,720,0.28520485525766415,0.3,1.0,1.0,365.0,782.0,0.0,0,-1077.0,0
721,721,-0.5715406172258775,-0.6,0.0,1.0,436.0,694.0,0.0,1,1020.0,0
722,722,0.8067192300120739,0.8,1.0,1.0,488.0,843.0,1.0,1,1669.0,1
723,723,-0.5200730116996792,-0.5,0.0,1.0,429.0,682.0,1.0,0,-411.0,1
724,724,0.6942460764858106,0.7,1.0,1.0,421.0,855.0,1.0,1,1724.0,1
725,725,-0.4592763293248324,-0.5,0.0,1.0,466.0,785.0,0.0,1,1459.0,0
726,726,0.6181904804926709,0.6,1.0,1.0,332.0,782.0,0.0,0,1886.0,0
727,727,-0.6764163165197217,-0.7,1.0,0.0,476.0,679.0,1.0,1,-845.0,0
728,728,-0.4057601482655458,-0.4,1.0,0.0,486.0,962.0,1.0,1,-918.0,0
729,729,0.34782504539938797,0.3,1.0,1.0,427.0,700.0,1.0,1,-667.0,1
730,730,-0.778203529808195,-0.8,0.0,1.0,492.0,890.0,1.0,0,-1262.0,1
731,731,-0.31170783623506504,-0.3,1.0,0.0,353.0,799.0,0.0,0,-1062.0,1
732,732,0.7186412400486105,0.7,1.0,1.0,480.0,975.0,1.0,1,665.0,1
733,733,-0.254777409824934,-0.3,0.0,1.0,484.0,567.0,0.0,1,459.0,0
734,734,0.03849249116752962,0.0,1.0,1.0,429.0,729.0,1.0,1,-1158.0,1
735,735,-0.7215426432421543,-0.7,0.0,1.0,382.0,524.0,0.0,1,1844.0,0
736,736,-0.18293836366257943,-0.2,0.0,1.0,322.0,856.0,1.0,0,1822.0,1
737,737,0.6303877136176929,0.6,1.0,1.0,460.0,773.0,0.0,0,1207.0,0
738,738,-0.4675670156901296,-0.5,0.0,1.0,411.0,559.0,1.0,0,-120.0,1
739,739,0.174693518972442,0.2,1.0,1.0,277.0,642.0,0.0,0,-819.0,0
740,740,0.30288171495801797,0.3,1.0,1.0,265.0,570.0,0.0,0,-355.0,0
741,741,-0.1353767131603617,-0.1,0.0,1.0,393.0,945.0,1.0,0,1662.0,1
742,742,0.4615832313254996,0.5,1.0,1.0,497.0,510.0,1.0,1,-907.0,1
743,743,-0.02362978395908355,-0.0,1.0,0.0,393.0,758.0,0.0,0,-971.0,1
744,744,0.6721963934861136,0.7,1.0,1.0,390.0,534.0,0.0,0,-904.0,0
745,745,-0.5854010077517908,-0.6,0.0,1.0,438.0,771.0,1.0,0,-909.0,1
746,746,0.4337810883991834,0.4,0.0,0.0,378.0,569.0,0.0,1,-947.0,1
747,747,-0.7171064110495459,-0.7,0.0,1.0,348.0,802.0,0.0,1,-770.0,0
748,748,-0.8022800367061602,-0.8,0.0,1.0,409.0,914.0,1.0,0,-3.0,1
749,749,-0.08350838755209855,-0.1,1.0,0.0,256.0,901.0,0.0,0,1843.0,1
750,750,0.301425813114237,0.3,1.0,1.0,437.0,795.0,1.0,1,-992.0,1
751,751,0.7748228075916795,0.8,1.0,1.0,279.0,652.0,1.0,1,-901.0,1
752,752,-0.624425381406008,-0.6,0.0,1.0,486.0,757.0,1.0,0,357.0,1
753,753,-0.18802402313259725,-0.2,1.0,0.0,458.0,964.0,0.0,0,-1042.0,1
754,754,-0.10866777344715184,-0.1,0.0,1.0,466.0,777.0,1.0,0,-993.0,1
755,755,0.08977385007762229,0.1,1.0,1.0,420.0,657.0,0.0,0,203.0,0
756,756,-0.6423053117718704,-0.6,1.0,0.0,472.0,779.0,1.0,1,1429.0,0
757,757,0.42504575371382225,0.4,0.0,0.0,339.0,791.0,1.0,0,1870.0,0
758,758,0.13987435015191607,0.1,0.0,0.0,279.0,661.0,0.0,1,700.0,1
759,759,0.1246641773699132,0.1,1.0,1.0,384.0,551.0,0.0,0,-545.0,0
760,760,-0.6318046548216012,-0.6,1.0,0.0,287.0,803.0,0.0,0,1630.0,1
761,761,-0.16750732147899072,-0.2,0.0,1.0,253.0,832.0,1.0,0,-845.0,1
762,762,0.335210331456847,0.3,0.0,0.0,339.0,554.0,1.0,0,67.0,0
763,763,0.3278846849643672,0.3,0.0,0.0,484.0,913.0,0.0,1,-227.0,1
764,764,0.42165799181505836,0.4,1.0,1.0,269.0,760.0,0.0,0,-299.0,0
765,765,-0.026913084833228074,-0.0,1.0,0.0,451.0,904.0,0.0,0,-1205.0,1
766,766,0.37062862917893347,0.4,1.0,1.0,268.0,690.0,1.0,1,-928.0,1
767,767,-0.021155963398436173,-0.0,0.0,1.0,331.0,525.0,0.0,1,-136.0,0
768,768,0.7784963825709431,0.8,0.0,0.0,268.0,564.0,1.0,0,-822.0,0
769,769,-0.005748707899416394,-0.0,0.0,1.0,440.0,978.0,1.0,0,-1378.0,1
770,770,0.24725951076001096,0.2,1.0,1.0,319.0,700.0,1.0,1,-999.0,1
771,771,0.42744516571359525,0.4,1.0,1.0,283.0,589.0,1.0,1,-752.0,1
772,772,0.6611652570264718,0.7,0.0,0.0,357.0,698.0,1.0,0,-755.0,0
773,773,-0.31475746141267713,-0.3,0.0,1.0,328.0,853.0,0.0,1,-371.0,0
774,774,0.8985624005014193,0.9,1.0,1.0,261.0,580.0,1.0,1,-741.0,1
775,775,0.6694012479141599,0.7,1.0,1.0,393.0,655.0,1.0,1,-738.0,1
776,776,-0.800391587068289,-0.8,0.0,1.0,332.0,672.0,0.0,1,-1004.0,0
777,777,0.0343401289886911,0.0,0.0,0.0,402.0,618.0,1.0,0,-290.0,0
778,778,-0.056945489546114225,-0.1,0.0,1.0,253.0,647.0,0.0,1,-890.0,0
779,779,0.6528235173050595,0.7,0.0,0.0,258.0,555.0,0.0,1,347.0,1
780,780,-0.37146166777777256,-0.4,0.0,1.0,308.0,571.0,0.0,1,-279.0,0
781,781,0.17466622911185425,0.2,1.0,1.0,304.0,963.0,0.0,0,613.0,0
782,782,-0.3898418759987329,-0.4,0.0,1.0,291.0,674.0,0.0,1,745.0,0
783,783,0.3469393925597243,0.3,0.0,0.0,285.0,554.0,1.0,0,-369.0,0
784,784,-0.563741026583676,-0.6,0.0,1.0,446.0,651.0,1.0,0,-7.0,1
785,785,-0.37769271006678085,-0.4,0.0,1.0,268.0,683.0,0.0,1,319.0,0
786,786,0.8554294122981835,0.9,1.0,1.0,275.0,996.0,1.0,1,739.0,1
787,787,0.17966989681547407,0.2,0.0,0.0,331.0,634.0,0.0,1,-775.0,1
788,788,0.5736629543461039,0.6,1.0,1.0,333.0,629.0,0.0,0,1478.0,0
789,789,-0.6688160387767197,-0.7,1.0,0.0,393.0,528.0,1.0,1,309.0,0
790,790,0.21872911089432379,0.2,0.0,0.0,265.0,804.0,1.0,0,-869.0,0
791,791,0.7369286919766577,0.7,1.0,1.0,341.0,926.0,1.0,1,263.0,1
792,792,0.8368153282066432,0.8,1.0,1.0,330.0,666.0,0.0,0,-986.0,0
793,793,0.1985774066683822,0.2,1.0,1.0,410.0,779.0,0.0,0,-899.0,0
794,794,0.22874161011203553,0.2,1.0,1.0,300.0,541.0,1.0,1,-191.0,1
795,795,0.6016351076547138,0.6,1.0,1.0,320.0,709.0,1.0,1,411.0,1
796,796,0.00514847301712007,0.0,1.0,1.0,329.0,718.0,0.0,0,-877.0,0
797,797,-0.02895779388158648,-0.0,0.0,1.0,323.0,738.0,0.0,1,1939.0,0
798,798,-0.7557018082032636,-0.8,0.0,1.0,461.0,895.0,0.0,1,-646.0,0
799,799,-0.7232473112824098,-0.7,1.0,0.0,486.0,600.0,1.0,1,844.0,0
800,800,-0.14170254418465844,-0.1,0.0,1.0,468.0,980.0,0.0,1,562.0,0
801,801,0.34063126065303184,0.3,0.0,0.0,364.0,853.0,0.0,1,-517.0,1
802,802,0.43776084786074987,0.4,0.0,0.0,373.0,665.0,1.0,0,-568.0,0
803,803,-0.1971301698998289,-0.2,1.0,0.0,468.0,793.0,0.0,0,1209.0,1
804,804,-0.13562017261770953,-0.1,0.0,1.0,320.0,983.0,1.0,0,-933.0,1
805,805,-0.12959254993334834,-0.1,0.0,1.0,477.0,877.0,0.0,1,-814.0,0
806,806,-0.6780828502505382,-0.7,1.0,0.0,376.0,885.0,1.0,1,-501.0,0
807,807,0.05820103785079034,0.1,0.0,0.0,441.0,544.0,1.0,0,-445.0,0
808,808,0.5286917916868569,0.5,1.0,1.0,490.0,737.0,1.0,1,1773.0,1
809,809,-0.7320412347997922,-0.7,1.0,0.0,368.0,671.0,0.0,0,111.0,1
810,810,0.5261766176784431,0.5,1.0,1.0,376.0,659.0,1.0,1,-765.0,1
811,811,0.0997786282449924,0.1,1.0,1.0,365.0,884.0,0.0,0,961.0,0
812,812,-0.2590113450413165,-0.3,0.0,1.0,499.0,649.0,1.0,0,-908.0,1
813,813,-0.7885928201934591,-0.8,1.0,0.0,351.0,550.0,1.0,1,-651.0,0
814,814,0.11570465121015261,0.1,1.0,1.0,393.0,564.0,0.0,0,-47.0,0
815,815,0.476269378870419,0.5,1.0,1.0,304.0,729.0,1.0,1,1687.0,1
816,816,-0.31633529431903795,-0.3,1.0,0.0,391.0,913.0,0.0,0,166.0,1
817,817,-0.863355335465695,-0.9,0.0,1.0,322.0,647.0,1.0,0,2031.0,1
818,818,0.18283014587860025,0.2,0.0,0.0,262.0,542.0,1.0,0,476.0,0
819,819,-0.7919901465886598,-0.8,1.0,0.0,475.0,825.0,1.0,1,-1210.0,0
820,820,-0.41506554729828926,-0.4,0.0,1.0,318.0,513.0,1.0,0,669.0,1
821,821,0.10546928950820156,0.1,0.0,0.0,424.0,553.0,1.0,0,43.0,0
822,822,-0.823518741548304,-0.8,0.0,1.0,254.0,622.0,1.0,0,-866.0,1
823,823,-0.38906943365087987,-0.4,1.0,0.0,443.0,863.0,1.0,1,-446.0,0
824,824,-0.6078636899825067,-0.6,0.0,1.0,427.0,936.0,1.0,0,-493.0,1
825,825,-0.35022480284996993,-0.4,1.0,0.0,399.0,818.0,1.0,1,-837.0,0
826,826,0.5647345876718787,0.6,1.0,1.0,254.0,538.0,1.0,1,1108.0,1
827,827,-0.07720423306339141,-0.1,1.0,0.0,338.0,750.0,1.0,1,-1048.0,0
828,828,0.5976778163513384,0.6,1.0,1.0,428.0,990.0,0.0,0,-1278.0,0
829,829,0.3462662784918161,0.3,1.0,1.0,286.0,795.0,1.0,1,479.0,1
830,830,0.4005666517446015,0.4,1.0,1.0,471.0,993.0,1.0,1,-1024.0,1
831,831,0.4755043093142911,0.5,1.0,1.0,355.0,641.0,0.0,0,2004.0,0
832,832,-0.45984146578716795,-0.5,0.0,1.0,255.0,620.0,1.0,0,375.0,1
833,833,0.5105246910303062,0.5,1.0,1.0,438.0,715.0,1.0,1,-493.0,1
834,834,-0.7215135654441209,-0.7,1.0,0.0,492.0,838.0,0.0,0,-790.0,1
835,835,-0.3736620906382466,-0.4,1.0,0.0,442.0,540.0,0.0,0,-252.0,1
836,836,0.557769106130151,0.6,1.0,1.0,306.0,778.0,0.0,0,-644.0,0
837,837,-0.8315631187556924,-0.8,0.0,1.0,428.0,906.0,1.0,0,-1164.0,1
838,838,0.2525912087461847,0.3,1.0,1.0,485.0,848.0,1.0,1,-993.0,1
839,839,-0.5970785757044206,-0.6,0.0,1.0,312.0,647.0,1.0,0,-769.0,1
840,840,0.04536464563674547,0.0,0.0,0.0,497.0,521.0,1.0,0,-258.0,0
841,841,-0.5013181688153502,-0.5,0.0,1.0,388.0,798.0,1.0,0,-1046.0,1
842,842,-0.5053125684760824,-0.5,1.0,0.0,322.0,760.0,0.0,0,-142.0,1
843,843,0.5461210557363688,0.5,0.0,0.0,377.0,768.0,0.0,1,-395.0,1
844,844,-0.7787707952126951,-0.8,1.0,0.0,422.0,726.0,0.0,0,-438.0,1
845,845,0.11799265852281382,0.1,0.0,0.0,461.0,851.0,0.0,1,-852.0,1
846,846,0.3759854786749187,0.4,1.0,1.0,334.0,924.0,1.0,1,-238.0,1
847,847,0.29898961185578277,0.3,0.0,0.0,340.0,679.0,1.0,0,1061.0,0
848,848,-0.701982485944781,-0.7,0.0,1.0,392.0,838.0,1.0,0,-520.0,1
849,849,-5.58370260543839e-05,-0.0,1.0,0.0,259.0,869.0,1.0,1,-978.0,0
850,850,0.4449407882285533,0.4,1.0,1.0,489.0,646.0,0.0,0,-715.0,0
851,851,0.2402692395651599,0.2,1.0,1.0,335.0,894.0,0.0,0,-739.0,0
852,852,0.4248472504418993,0.4,1.0,1.0,424.0,607.0,0.0,0,-181.0,0
853,853,0.547722334939747,0.5,1.0,1.0,362.0,647.0,1.0,1,-469.0,1
854,854,0.5614679080222694,0.6,1.0,1.0,476.0,515.0,0.0,0,-961.0,0
855,855,0.00030811338290548385,0.0,0.0,0.0,410.0,606.0,0.0,1,-116.0,1
856,856,-0.45422484540667657,-0.5,1.0,0.0,327.0,675.0,0.0,0,1998.0,1
857,857,0.6050538711133143,0.6,1.0,1.0,277.0,532.0,1.0,1,-609.0,1
858,858,0.7837939946758096,0.8,0.0,0.0,267.0,845.0,0.0,1,1578.0,1
859,859,0.8108383665622106,0.8,0.0,0.0,363.0,952.0,0.0,1,-1085.0,1
860,860,-0.743434527342268,-0.7,1.0,0.0,489.0,611.0,0.0,0,-910.0,1
861,861,0.4117104280847331,0.4,0.0,0.0,437.0,680.0,0.0,1,-1067.0,1
862,862,-0.42054160603201046,-0.4,0.0,1.0,477.0,562.0,0.0,1,761.0,0
863,863,-0.19213897292608106,-0.2,1.0,0.0,396.0,788.0,0.0,0,-1184.0,1
864,864,0.2816789901536948,0.3,0.0,0.0,278.0,926.0,1.0,0,6.0,0
865,865,0.8157533945624075,0.8,0.0,0.0,390.0,841.0,1.0,0,1559.0,0
866,866,0.16507450240053967,0.2,1.0,1.0,298.0,562.0,0.0,0,-660.0,0
867,867,0.8134209850565989,0.8,1.0,1.0,349.0,940.0,1.0,1,-699.0,1
868,868,0.47063808649999983,0.5,0.0,0.0,371.0,809.0,1.0,0,1820.0,0
869,869,0.17302551572967417,0.2,0.0,0.0,318.0,729.0,0.0,1,-1047.0,1
870,870,-0.4783786282445826,-0.5,0.0,1.0,341.0,907.0,1.0,0,-688.0,1
871,871,-0.6183201739685271,-0.6,1.0,0.0,316.0,880.0,1.0,1,884.0,0
872,872,-0.6846278353799251,-0.7,1.0,0.0,416.0,693.0,1.0,1,-439.0,0
873,873,0.4299894180615317,0.4,1.0,1.0,490.0,950.0,1.0,1,-1430.0,1
874,874,-0.538128295582005,-0.5,1.0,0.0,478.0,935.0,1.0,1,-3.0,0
875,875,-0.10859641050848501,-0.1,1.0,0.0,265.0,873.0,0.0,0,1862.0,1
876,876,-0.8406329305059037,-0.8,1.0,0.0,499.0,538.0,1.0,1,-337.0,0
877,877,0.1162337734345652,0.1,1.0,1.0,295.0,506.0,1.0,1,89.0,1
878,878,0.17096492102129213,0.2,1.0,1.0,352.0,537.0,1.0,1,-359.0,1
879,879,0.37674967403033677,0.4,0.0,0.0,300.0,798.0,0.0,1,-918.0,1
880,880,0.13581501375000482,0.1,0.0,0.0,400.0,524.0,0.0,1,-554.0,1
881,881,0.8243321610624849,0.8,1.0,1.0,271.0,977.0,1.0,1,-1148.0,1
882,882,-0.38769181954522614,-0.4,0.0,1.0,264.0,917.0,0.0,1,-821.0,0
883,883,-0.1667578474136664,-0.2,1.0,0.0,312.0,946.0,0.0,0,-1188.0,1
884,884,-0.8644769977227319,-0.9,1.0,0.0,408.0,652.0,0.0,0,-970.0,1
885,885,-0.8344541875454562,-0.8,1.0,0.0,482.0,675.0,1.0,1,1723.0,0
886,886,-0.40962652005313044,-0.4,0.0,1.0,421.0,622.0,0.0,1,-853.0,0
887,887,0.8462709890435748,0.8,1.0,1.0,270.0,515.0,0.0,0,-185.0,0
888,888,-0.18003887659102613,-0.2,1.0,0.0,427.0,827.0,0.0,0,-1254.0,1
889,889,-0.8266661059925717,-0.8,0.0,1.0,470.0,917.0,1.0,0,923.0,1
890,890,-0.5761320489792129,-0.6,0.0,1.0,499.0,922.0,0.0,1,1579.0,0
891,891,0.8132616041423056,0.8,1.0,1.0,472.0,865.0,0.0,0,-287.0,0
892,892,-0.794871749782734,-0.8,1.0,0.0,462.0,996.0,0.0,0,-1148.0,1
893,893,0.23763228009913095,0.2,1.0,1.0,405.0,642.0,1.0,1,-1037.0,1
894,894,-0.4799783081231823,-0.5,0.0,1.0,308.0,985.0,1.0,0,-863.0,1
895,895,0.2526756635919535,0.3,0.0,0.0,410.0,714.0,0.0,1,-14.0,1
896,896,-0.07461332802880949,-0.1,1.0,0.0,273.0,658.0,1.0,1,-881.0,0
897,897,0.06740227458307657,0.1,0.0,0.0,348.0,715.0,0.0,1,-613.0,1
898,898,-0.24067736943043228,-0.2,1.0,0.0,306.0,615.0,0.0,0,-601.0,1
899,899,0.013200319991312437,0.0,1.0,1.0,303.0,982.0,1.0,1,505.0,1
900,900,0.11695155641956456,0.1,0.0,0.0,483.0,973.0,0.0,1,-966.0,1
901,901,-0.44453328119014096,-0.4,0.0,1.0,303.0,526.0,1.0,0,-709.0,1
902,902,0.28492100887042715,0.3,0.0,0.0,455.0,593.0,0.0,1,-288.0,1
903,903,0.8875520819239583,0.9,1.0,1.0,416.0,956.0,1.0,1,-982.0,1
904,904,0.7883293537056858,0.8,1.0,1.0,289.0,598.0,1.0,1,1093.0,1
905,905,-0.3208881453901712,-0.3,0.0,1.0,261.0,955.0,0.0,1,804.0,0
906,906,-0.07582418219462728,-0.1,1.0,0.0,326.0,758.0,0.0,0,-784.0,1
907,907,-0.08449034201070627,-0.1,1.0,0.0,336.0,781.0,0.0,0,-597.0,1
908,908,-0.14699327229128667,-0.1,1.0,0.0,324.0,729.0,0.0,0,737.0,1
909,909,0.191094205230658,0.2,0.0,0.0,364.0,963.0,1.0,0,123.0,0
910,910,-0.7557490366018692,-0.8,0.0,1.0,312.0,684.0,1.0,0,-886.0,1
911,911,0.7531396146169579,0.8,1.0,1.0,269.0,513.0,1.0,1,418.0,1
912,912,0.7082139676473572,0.7,0.0,0.0,377.0,709.0,1.0,0,-266.0,0
913,913,0.6148481139453822,0.6,0.0,0.0,482.0,522.0,1.0,0,26.0,0
914,914,0.08779539935198633,0.1,1.0,1.0,436.0,995.0,0.0,0,-1121.0,0
915,915,-0.6096820057346772,-0.6,1.0,0.0,417.0,955.0,0.0,0,-1252.0,1
916,916,-0.8938260373198711,-0.9,0.0,1.0,493.0,983.0,0.0,1,-1336.0,0
917,917,0.3772975441529761,0.4,0.0,0.0,288.0,571.0,1.0,0,561.0,0
918,918,0.15450067746419138,0.2,1.0,1.0,477.0,555.0,0.0,0,-1032.0,0
919,919,-0.25563999651779434,-0.3,0.0,1.0,424.0,939.0,0.0,1,727.0,0
920,920,-0.05353697076980812,-0.1,0.0,1.0,463.0,663.0,1.0,0,-686.0,1
921,921,0.32586714894005986,0.3,1.0,1.0,306.0,551.0,1.0,1,-347.0,1
922,922,0.1603390558972454,0.2,1.0,1.0,438.0,653.0,1.0,1,-481.0,1
923,923,-0.0006178574329110953,-0.0,1.0,0.0,427.0,763.0,1.0,1,-920.0,0
924,924,-0.7691255768643748,-0.8,1.0,0.0,257.0,626.0,0.0,0,-833.0,1
925,925,-0.7291776254377258,-0.7,1.0,0.0,376.0,807.0,0.0,0,887.0,1
926,926,-0.6278559846510734,-0.6,0.0,1.0,294.0,653.0,0.0,1,313.0,0
927,927,-0.6118571304525877,-0.6,0.0,1.0,334.0,607.0,1.0,0,-491.0,1
928,928,0.09622614319228773,0.1,1.0,1.0,488.0,886.0,0.0,0,-154.0,0
929,929,0.3833636398825332,0.4,1.0,1.0,403.0,965.0,0.0,0,-1138.0,0
930,930,-0.599358191353932,-0.6,0.0,1.0,330.0,695.0,1.0,0,-765.0,1
931,931,-0.4173101380584064,-0.4,0.0,1.0,438.0,734.0,0.0,1,218.0,0
932,932,-0.829344503160207,-0.8,0.0,1.0,398.0,772.0,1.0,0,-1130.0,1
933,933,-0.0972305906757136,-0.1,1.0,0.0,334.0,686.0,1.0,1,-870.0,0
934,934,0.0697015196880566,0.1,1.0,1.0,271.0,687.0,1.0,1,2042.0,1
935,935,0.8281619580707426,0.8,0.0,0.0,258.0,650.0,1.0,0,1832.0,0
936,936,0.7849325356612219,0.8,0.0,0.0,343.0,788.0,0.0,1,-1061.0,1
937,937,0.15332951508914727,0.2,1.0,1.0,461.0,620.0,1.0,1,1369.0,1
938,938,-0.07511127053570288,-0.1,0.0,1.0,330.0,815.0,1.0,0,1335.0,1
939,939,-0.09309115423460579,-0.1,0.0,1.0,265.0,711.0,1.0,0,-656.0,1
940,940,-0.3322955265604135,-0.3,0.0,1.0,338.0,734.0,0.0,1,-72.0,0
941,941,-0.4063076205381138,-0.4,0.0,1.0,440.0,900.0,0.0,1,-1250.0,0
942,942,0.2460605967800752,0.2,1.0,1.0,274.0,865.0,0.0,0,-1019.0,0
943,943,0.7800112034010344,0.8,0.0,0.0,320.0,522.0,1.0,0,-612.0,0
944,944,-0.10617798610514051,-0.1,0.0,1.0,428.0,743.0,0.0,1,-981.0,0
945,945,-0.47390095960948836,-0.5,0.0,1.0,319.0,756.0,1.0,0,-1045.0,1
946,946,-0.43432509083660786,-0.4,0.0,1.0,482.0,654.0,1.0,0,-276.0,1
947,947,-0.673006862323916,-0.7,1.0,0.0,312.0,887.0,1.0,1,-419.0,0
948,948,-0.7651722361471582,-0.8,0.0,1.0,430.0,677.0,1.0,0,563.0,1
949,949,0.33720263395859995,0.3,0.0,0.0,297.0,877.0,1.0,0,-884.0,0
950,950,0.38323161531544214,0.4,1.0,1.0,281.0,840.0,0.0,0,-1091.0,0
951,951,-0.44156056821554107,-0.4,0.0,1.0,430.0,846.0,0.0,1,-686.0,0
952,952,-0.5024258313123181,-0.5,1.0,0.0,347.0,733.0,0.0,0,1790.0,1
953,953,-0.7855926843329726,-0.8,0.0,1.0,324.0,908.0,1.0,0,1768.0,1
954,954,0.49937009049036185,0.5,0.0,0.0,339.0,606.0,1.0,0,-155.0,0
955,955,-0.1652728876412065,-0.2,1.0,0.0,468.0,599.0,0.0,0,1933.0,1
956,956,-0.1005579373211688,-0.1,0.0,1.0,433.0,832.0,1.0,0,-1245.0,1
957,957,0.2753663345758267,0.3,0.0,0.0,292.0,618.0,1.0,0,590.0,0
958,958,0.552535983493842,0.6,1.0,1.0,283.0,703.0,1.0,1,-306.0,1
959,959,0.37504727209971767,0.4,1.0,1.0,252.0,992.0,0.0,0,-1104.0,0
960,960,0.05966196337983343,0.1,1.0,1.0,409.0,620.0,1.0,1,851.0,1
961,961,0.15792365525425278,0.2,1.0,1.0,385.0,975.0,0.0,0,-1070.0,0
962,962,0.3113858020422827,0.3,1.0,1.0,446.0,832.0,0.0,0,492.0,0
963,963,0.5982116479705036,0.6,0.0,0.0,443.0,644.0,0.0,1,-467.0,1
964,964,0.752415251249546,0.8,0.0,0.0,288.0,786.0,1.0,0,726.0,0
965,965,0.8365436357994139,0.8,1.0,1.0,342.0,523.0,1.0,1,-395.0,1
966,966,0.6794931635655278,0.7,1.0,1.0,401.0,874.0,1.0,1,-1155.0,1
967,967,-0.6572749554299744,-0.7,1.0,0.0,288.0,875.0,0.0,0,-863.0,1
968,968,0.4009907564056493,0.4,1.0,1.0,284.0,673.0,1.0,1,2043.0,1
969,969,-0.49557210659520645,-0.5,0.0,1.0,396.0,682.0,1.0,0,502.0,1
970,970,-0.8306571527268402,-0.8,1.0,0.0,270.0,866.0,0.0,0,474.0,1
971,971,-0.664486461373894,-0.7,0.0,1.0,327.0,958.0,0.0,1,-1275.0,0
972,972,-0.49825962422667636,-0.5,0.0,1.0,390.0,865.0,1.0,0,-1195.0,1
973,973,-0.17731069977706582,-0.2,1.0,0.0,269.0,986.0,0.0,0,-1235.0,1
974,974,0.5812691121633234,0.6,1.0,1.0,303.0,735.0,0.0,0,682.0,0
975,975,-0.7875899409239477,-0.8,0.0,1.0,481.0,769.0,1.0,0,750.0,1
976,976,0.6047920195416879,0.6,1.0,1.0,427.0,738.0,0.0,0,255.0,0
977,977,-0.1399671633540971,-0.1,0.0,1.0,397.0,673.0,1.0,0,-70.0,1
978,978,0.08601887026729182,0.1,1.0,1.0,463.0,520.0,1.0,1,-13.0,1
979,979,0.8225824420572426,0.8,0.0,0.0,483.0,704.0,0.0,1,-797.0,1
980,980,0.6538013055477213,0.7,0.0,0.0,330.0,807.0,0.0,1,-907.0,1
981,981,-0.19650434907399172,-0.2,1.0,0.0,376.0,884.0,1.0,1,60.0,0
982,982,0.3729741732447788,0.4,1.0,1.0,262.0,816.0,1.0,1,-388.0,1
983,983,0.8419975623708004,0.8,0.0,0.0,476.0,726.0,0.0,1,1178.0,1
984,984,0.6889146221915962,0.7,1.0,1.0,467.0,726.0,1.0,1,-983.0,1
985,985,0.6167188725623499,0.6,1.0,1.0,270.0,765.0,0.0,0,-425.0,0
986,986,0.6814957370692735,0.7,0.0,0.0,301.0,544.0,1.0,0,-765.0,0
987,987,-0.2784795942546133,-0.3,0.0,1.0,261.0,930.0,1.0,0,-491.0,1
988,988,0.6066937631442534,0.6,0.0,0.0,453.0,721.0,1.0,0,1156.0,0
989,989,-0.633564598553409,-0.6,1.0,0.0,477.0,575.0,1.0,1,58.0,0
990,990,-0.5271380335323943,-0.5,0.0,1.0,265.0,573.0,0.0,1,-738.0,0
991,991,-0.5078896836458464,-0.5,1.0,0.0,433.0,993.0,1.0,1,-446.0,0
992,992,0.616519682892079,0.6,1.0,1.0,361.0,807.0,0.0,0,352.0,0
993,993,-0.5765497424601249,-0.6,1.0,0.0,412.0,826.0,0.0,0,-498.0,1
994,994,0.21723130884935726,0.2,1.0,1.0,409.0,642.0,0.0,0,-791.0,0
995,995,-0.6957673043190833,-0.7,0.0,1.0,252.0,571.0,0.0,1,-823.0,0
996,996,-0.4758174990659041,-0.5,1.0,0.0,356.0,523.0,0.0,0,-579.0,1
997,997,0.6278219837685258,0.6,0.0,0.0,397.0,685.0,0.0,1,-642.0,1
998,998,0.24570755359181506,0.2,1.0,1.0,288.0,807.0,0.0,0,-825.0,0
999,999,0.606182675214901,0.6,1.0,1.0,304.0,882.0,1.0,1,1274.0,1
1000,1000,0.4263500455973278,0.4,0.0,0.0,472.0,882.0,0.0,1,-884.0,1
1001,1001,0.8967489829116452,0.9,1.0,1.0,479.0,677.0,1.0,1,-626.0,1
1002,1002,0.27478359246575257,0.3,1.0,1.0,368.0,928.0,1.0,1,-216.0,1
1003,1003,0.34802007467521123,0.3,1.0,1.0,296.0,815.0,1.0,1,-1031.0,1
1004,1004,-0.16753427276867572,-0.2,1.0,0.0,343.0,846.0,1.0,1,-1129.0,0
1005,1005,-0.10003384728566145,-0.1,1.0,0.0,448.0,916.0,1.0,1,-984.0,0
1006,1006,0.4937554508759757,0.5,1.0,1.0,419.0,673.0,1.0,1,668.0,1
1007,1007,0.09281262988362537,0.1,0.0,0.0,273.0,825.0,1.0,0,-528.0,0
1008,1008,0.22941079466788128,0.2,0.0,0.0,277.0,863.0,1.0,0,-970.0,0
1009,1009,0.8555806701051029,0.9,1.0,1.0,374.0,528.0,0.0,0,-682.0,0
1010,1010,-0.8561761247539491,-0.9,0.0,1.0,287.0,904.0,1.0,0,419.0,1
1011,1011,0.6572229342598451,0.7,0.0,0.0,338.0,765.0,0.0,1,177.0,1
1012,1012,0.3476873289238108,0.3,0.0,0.0,291.0,912.0,1.0,0,-983.0,0
1013,1013,0.15188780278608116,0.2,0.0,0.0,412.0,850.0,0.0,1,-42.0,1
1014,1014,0.30802240866406516,0.3,0.0,0.0,269.0,573.0,1.0,0,118.0,0
1015,1015,0.4309744401572425,0.4,0.0,0.0,351.0,771.0,1.0,0,-462.0,0
1016,1016,0.004287575474888894,0.0,0.0,0.0,359.0,973.0,0.0,1,-702.0,1
1017,1017,-0.822529510338718,-0.8,1.0,0.0,495.0,562.0,1.0,1,-427.0,0
1018,1018,-0.5407938776651893,-0.5,0.0,1.0,460.0,684.0,0.0,1,96.0,0
1019,1019,-0.18683809381947403,-0.2,0.0,1.0,304.0,679.0,1.0,0,207.0,1
1020,1020,0.5211476830554208,0.5,1.0,1.0,378.0,663.0,1.0,1,-891.0,1
1021,1021,-0.6176793259581348,-0.6,0.0,1.0,348.0,659.0,0.0,1,373.0,0
1022,1022,0.8853785604798391,0.9,0.0,0.0,480.0,623.0,0.0,1,-873.0,1
1023,1023,-0.011214256840522796,-0.0,0.0,1.0,336.0,570.0,1.0,0,2004.0,1
1024,1024,0.7773543683780265,0.8,1.0,1.0,409.0,976.0,0.0,0,-1315.0,0
1025,1025,0.5104435398293447,0.5,1.0,1.0,470.0,604.0,1.0,1,-524.0,1
1026,1026,0.7529066666903587,0.8,1.0,1.0,490.0,813.0,0.0,0,-1153.0,0
1027,1027,0.19035037230135787,0.2,1.0,1.0,448.0,956.0,0.0,0,-1114.0,0
1028,1028,-0.8670355401967448,-0.9,0.0,1.0,476.0,877.0,1.0,0,-1113.0,1
1029,1029,0.5726888322557023,0.6,0.0,0.0,396.0,615.0,0.0,1,1149.0,1
1030,1030,-0.47065620819400766,-0.5,1.0,0.0,360.0,760.0,0.0,0,230.0,1
1031,1031,0.43609806404615126,0.4,1.0,1.0,437.0,620.0,0.0,0,-1057.0,0
1032,1032,-0.6317712959016379,-0.6,0.0,1.0,335.0,718.0,1.0,0,-293.0,1
1033,1033,0.7744470582122226,0.8,1.0,1.0,456.0,849.0,0.0,0,-85.0,0
1034,1034,-0.4165749558021575,-0.4,1.0,0.0,299.0,604.0,0.0,0,477.0,1
1035,1035,-0.35458730377583014,-0.4,1.0,0.0,474.0,557.0,0.0,0,1969.0,1
1036,1036,-0.7501506012840696,-0.8,0.0,1.0,399.0,703.0,1.0,0,1388.0,1
1037,1037,0.1357908395162325,0.1,0.0,0.0,443.0,513.0,1.0,0,-926.0,0
1038,1038,0.5511253113570945,0.6,0.0,0.0,385.0,591.0,0.0,1,-906.0,1
1039,1039,0.608893821441631,0.6,1.0,1.0,464.0,584.0,0.0,0,-818.0,0
1040,1040,-0.7533309418149144,-0.8,1.0,0.0,472.0,908.0,1.0,1,-540.0,0
1041,1041,-0.4201746657150735,-0.4,0.0,1.0,356.0,857.0,1.0,0,-1183.0,1
1042,1042,0.7694900248467472,0.8,0.0,0.0,318.0,699.0,1.0,0,-917.0,0
1043,1043,-0.5451907854458757,-0.5,1.0,0.0,379.0,678.0,0.0,0,-537.0,1
1044,1044,0.8057421341592522,0.8,0.0,0.0,375.0,807.0,1.0,0,-942.0,0
1045,1045,-0.2727268353412211,-0.3,1.0,0.0,411.0,755.0,1.0,1,-756.0,0
1046,1046,-0.26623888590366596,-0.3,1.0,0.0,410.0,729.0,0.0,0,-509.0,1
1047,1047,-0.7071154667453715,-0.7,0.0,1.0,448.0,504.0,0.0,1,-812.0,0
1048,1048,0.397367171540722,0.4,0.0,0.0,433.0,741.0,1.0,0,176.0,0
1049,1049,-0.1623111963378967,-0.2,0.0,1.0,378.0,690.0,0.0,1,-1018.0,0
1050,1050,0.016488962556103104,0.0,1.0,1.0,451.0,782.0,1.0,1,-863.0,1
1051,1051,-0.45631563034613193,-0.5,1.0,0.0,414.0,882.0,1.0,1,-596.0,0
1052,1052,-0.49323335654651657,-0.5,1.0,0.0,486.0,983.0,0.0,0,361.0,1
1053,1053,-0.14153540412476284,-0.1,0.0,1.0,345.0,982.0,0.0,1,-407.0,0
1054,1054,-0.23060718456279283,-0.2,1.0,0.0,453.0,675.0,0.0,0,782.0,1
1055,1055,0.48637078621366225,0.5,0.0,0.0,431.0,787.0,1.0,0,-968.0,0
1056,1056,0.27298407682900316,0.3,0.0,0.0,445.0,949.0,1.0,0,-834.0,0
1057,1057,0.388155243545253,0.4,0.0,0.0,375.0,866.0,1.0,0,539.0,0
1058,1058,0.41573069268816976,0.4,1.0,1.0,367.0,788.0,0.0,0,-785.0,0
1059,1059,-0.39197318713355656,-0.4,0.0,1.0,479.0,912.0,1.0,0,1609.0,1
1060,1060,-0.6206481877298206,-0.6,0.0,1.0,395.0,745.0,0.0,1,1470.0,0
1061,1061,-0.052351321786004656,-0.1,0.0,1.0,345.0,782.0,1.0,0,23.0,1
1062,1062,-0.8613924418741292,-0.9,1.0,0.0,263.0,807.0,0.0,0,-650.0,1
1063,1063,0.1774183689582477,0.2,0.0,0.0,289.0,724.0,0.0,1,97.0,1
1064,1064,-0.7807723971689219,-0.8,1.0,0.0,393.0,814.0,1.0,1,-1117.0,0
1065,1065,0.6763425376144175,0.7,0.0,0.0,403.0,841.0,0.0,1,-394.0,1
1066,1066,0.3392771790347663,0.3,0.0,0.0,379.0,753.0,0.0,1,428.0,1
1067,1067,0.10602207188723123,0.1,1.0,1.0,400.0,863.0,1.0,1,-1043.0,1
1068,1068,-0.7299039343786234,-0.7,0.0,1.0,305.0,978.0,0.0,1,1377.0,0
1069,1069,0.35528999449913357,0.4,1.0,1.0,268.0,743.0,0.0,0,1649.0,0
1070,1070,-0.71424514534861,-0.7,0.0,1.0,265.0,715.0,1.0,0,-810.0,1
1071,1071,-0.6938134405126947,-0.7,1.0,0.0,421.0,958.0,1.0,1,1621.0,0
1072,1072,-0.38226805712900946,-0.4,1.0,0.0,363.0,644.0,1.0,1,-667.0,0
1073,1073,0.5027487512576517,0.5,1.0,1.0,457.0,863.0,1.0,1,1680.0,1
1074,1074,-0.6449303781956679,-0.6,1.0,0.0,421.0,849.0,0.0,0,-1250.0,1
1075,1075,-0.8022666524328383,-0.8,1.0,0.0,369.0,903.0,1.0,1,-522.0,0
1076,1076,-0.1983322251270102,-0.2,1.0,0.0,335.0,632.0,1.0,1,-837.0,0
1077,1077,0.6469607543498345,0.6,0.0,0.0,371.0,961.0,0.0,1,-992.0,1
1078,1078,0.8835494987255151,0.9,1.0,1.0,370.0,982.0,0.0,0,-1252.0,0
1079,1079,0.37791000830799193,0.4,0.0,0.0,264.0,572.0,1.0,0,2054.0,0
1080,1080,-0.7443327548562875,-0.7,0.0,1.0,359.0,783.0,1.0,0,158.0,1
1081,1081,0.0017813464610630936,0.0,1.0,1.0,344.0,884.0,0.0,0,282.0,0
1082,1082,-0.5936991328102778,-0.6,0.0,1.0,258.0,980.0,0.0,1,-1178.0,0
1083,1083,0.4267065418686392,0.4,0.0,0.0,394.0,634.0,1.0,0,-148.0,0
1084,1084,-0.5921641363226204,-0.6,0.0,1.0,263.0,699.0,1.0,0,-952.0,1
1085,1085,0.8143234250579717,0.8,0.0,0.0,467.0,834.0,1.0,0,-851.0,0
1086,1086,-0.17674244270044714,-0.2,0.0,1.0,352.0,980.0,1.0,0,-1292.0,1
1087,1087,0.4043352476039449,0.4,0.0,0.0,470.0,825.0,1.0,0,-1275.0,0
1088,1088,-0.037189829384034256,-0.0,1.0,0.0,474.0,708.0,0.0,0,-302.0,1
1089,1089,0.6765985331842693,0.7,0.0,0.0,484.0,682.0,1.0,0,1294.0,0
1090,1090,0.45482786969744626,0.5,1.0,1.0,256.0,769.0,0.0,0,465.0,0
1091,1091,0.18825818327158916,0.2,0.0,0.0,305.0,695.0,1.0,0,-30.0,0
1092,1092,-0.5252885076491604,-0.5,1.0,0.0,310.0,530.0,0.0,0,690.0,1
1093,1093,-0.8413617129007616,-0.8,1.0,0.0,427.0,862.0,0.0,0,-1179.0,1
1094,1094,-0.3639130999668212,-0.4,1.0,0.0,261.0,537.0,0.0,0,202.0,1
1095,1095,0.37117460644431455,0.4,0.0,0.0,446.0,527.0,1.0,0,-703.0,0
1096,1096,0.7879230938847747,0.8,0.0,0.0,398.0,951.0,0.0,1,-649.0,1
1097,1097,-0.7048728101748261,-0.7,1.0,0.0,377.0,701.0,0.0,0,92.0,1
1098,1098,-0.38151141875982575,-0.4,1.0,0.0,456.0,647.0,0.0,0,-863.0,1
1099,1099,-0.6737486909558036,-0.7,1.0,0.0,344.0,957.0,1.0,1,649.0,0
1100,1100,-0.6239860946651634,-0.6,1.0,0.0,258.0,733.0,1.0,1,-641.0,0
1101,1101,0.021004537956931912,0.0,1.0,1.0,492.0,743.0,0.0,0,-1185.0,0
1102,1102,0.31458705344087734,0.3,0.0,0.0,291.0,992.0,1.0,0,177.0,0
1103,1103,0.3927915924705553,0.4,1.0,1.0,366.0,925.0,1.0,1,-1011.0,1
1104,1104,0.7570407465113903,0.8,1.0,1.0,459.0,643.0,0.0,0,-312.0,0
1105,1105,-0.4582820420770234,-0.5,1.0,0.0,354.0,867.0,1.0,1,-1141.0,0
1106,1106,0.1458365136955232,0.1,1.0,1.0,459.0,748.0,1.0,1,-477.0,1
1107,1107,0.5139126251108309,0.5,0.0,0.0,471.0,806.0,1.0,0,1723.0,0
1108,1108,-0.2113514282033877,-0.2,0.0,1.0,350.0,773.0,0.0,1,-813.0,0
1109,1109,-0.5395094693293747,-0.5,0.0,1.0,414.0,816.0,1.0,0,-540.0,1
1110,1110,0.45353300050267775,0.5,0.0,0.0,369.0,842.0,1.0,0,1789.0,0
1111,1111,0.20496886267624237,0.2,0.0,0.0,493.0,645.0,1.0,0,-888.0,0
1112,1112,-0.6473614946850634,-0.6,0.0,1.0,441.0,904.0,1.0,0,-485.0,1
1113,1113,0.3674180205767422,0.4,0.0,0.0,341.0,915.0,0.0,1,-776.0,1
1114,1114,0.4647989410624206,0.5,1.0,1.0,254.0,870.0,0.0,0,-544.0,0
1115,1115,-0.2964061349462386,-0.3,1.0,0.0,375.0,945.0,1.0,1,1680.0,0
1116,1116,0.13217763310377084,0.1,1.0,1.0,271.0,824.0,0.0,0,-585.0,0
1117,1117,0.8310565982830015,0.8,1.0,1.0,291.0,811.0,1.0,1,-352.0,1
1118,1118,-0.2908005585137189,-0.3,1.0,0.0,300.0,609.0,0.0,0,-39.0,1
1119,1119,0.7638945633178361,0.8,0.0,0.0,452.0,975.0,1.0,0,1573.0,0
1120,1120,0.10302653732820166,0.1,0.0,0.0,351.0,915.0,1.0,0,-646.0,0
1121,1121,-0.16111056560965764,-0.2,0.0,1.0,369.0,930.0,1.0,0,411.0,1
1122,1122,-0.6164010262188803,-0.6,1.0,0.0,490.0,882.0,1.0,1,248.0,0
1123,1123,-0.24463806744598615,-0.2,0.0,1.0,262.0,728.0,1.0,0,-910.0,1
1124,1124,-0.4936870081415201,-0.5,1.0,0.0,376.0,873.0,1.0,1,-79.0,0
1125,1125,0.5333897242939217,0.5,0.0,0.0,491.0,641.0,0.0,1,-772.0,1
1126,1126,0.5214085127344487,0.5,1.0,1.0,256.0,618.0,0.0,0,-204.0,0
1127,1127,-0.7884478261961565,-0.8,0.0,1.0,264.0,791.0,1.0,0,-1045.0,1
1128,1128,0.7994605315807658,0.8,0.0,0.0,277.0,699.0,1.0,0,24.0,0
1129,1129,0.757182552215229,0.8,0.0,0.0,375.0,577.0,1.0,0,1038.0,0
1130,1130,0.10957678519704694,0.1,1.0,1.0,299.0,618.0,1.0,1,653.0,1
1131,1131,0.671716539276319,0.7,1.0,1.0,328.0,953.0,0.0,0,-801.0,0
1132,1132,0.27170619713563215,0.3,0.0,0.0,454.0,973.0,1.0,0,-997.0,0
1133,1133,-0.24795063265859518,-0.2,0.0,1.0,268.0,941.0,1.0,0,-1119.0,1
1134,1134,-0.8431451916078111,-0.8,1.0,0.0,341.0,511.0,0.0,0,-802.0,1
1135,1135,0.04956360739912136,0.0,0.0,0.0,286.0,760.0,0.0,1,-6.0,1
1136,1136,0.5015502999634666,0.5,1.0,1.0,355.0,696.0,0.0,0,-1021.0,0
1137,1137,-0.12407542270062977,-0.1,0.0,1.0,264.0,947.0,1.0,0,979.0,1
1138,1138,0.040613010552905005,0.0,0.0,0.0,293.0,506.0,1.0,0,1771.0,0
1139,1139,0.6752301040583669,0.7,0.0,0.0,338.0,513.0,0.0,1,-541.0,1
1140,1140,-0.2710130853178355,-0.3,0.0,1.0,454.0,792.0,1.0,0,-136.0,1
1141,1141,-0.2550104846265083,-0.3,1.0,0.0,276.0,655.0,0.0,0,1189.0,1
1142,1142,0.5168484512116517,0.5,1.0,1.0,295.0,826.0,1.0,1,999.0,1
1143,1143,0.8225098246251844,0.8,0.0,0.0,386.0,705.0,0.0,1,-791.0,1
1144,1144,-0.8317534649436064,-0.8,1.0,0.0,378.0,514.0,0.0,0,-182.0,1
1145,1145,0.5260260147190242,0.5,0.0,0.0,314.0,709.0,1.0,0,-693.0,0
1146,1146,0.3938136853155799,0.4,0.0,0.0,488.0,822.0,0.0,1,-880.0,1
1147,1147,0.44387913040692106,0.4,0.0,0.0,390.0,583.0,1.0,0,-193.0,0
1148,1148,0.6867405439084832,0.7,0.0,0.0,271.0,895.0,0.0,1,-146.0,1
1149,1149,-0.19059329476175002,-0.2,0.0,1.0,298.0,968.0,1.0,0,464.0,1
1150,1150,0.41150653444779717,0.4,0.0,0.0,393.0,820.0,1.0,0,237.0,0
1151,1151,-0.7402900999007129,-0.7,1.0,0.0,448.0,551.0,0.0,0,-959.0,1
1152,1152,-0.29997326117283907,-0.3,0.0,1.0,459.0,760.0,0.0,1,-739.0,0
1153,1153,-0.45672493869962993,-0.5,0.0,1.0,326.0,988.0,0.0,1,-944.0,0
1154,1154,-0.7020592829769781,-0.7,1.0,0.0,365.0,602.0,1.0,1,-677.0,0
1155,1155,0.7337584590702352,0.7,0.0,0.0,363.0,872.0,1.0,0,-1025.0,0
1156,1156,-0.6318108617801954,-0.6,0.0,1.0,465.0,659.0,1.0,0,1706.0,1
1157,1157,0.1629670647362046,0.2,0.0,0.0,319.0,975.0,1.0,0,1706.0,0
1158,1158,0.004200845651319063,0.0,1.0,1.0,344.0,987.0,1.0,1,1009.0,1
1159,1159,-0.40511431974681217,-0.4,1.0,0.0,297.0,792.0,1.0,1,-1079.0,0
1160,1160,-0.016359240228017713,-0.0,0.0,1.0,335.0,779.0,1.0,0,-954.0,1
1161,1161,-0.07786200539452315,-0.1,1.0,0.0,300.0,872.0,0.0,0,-412.0,1
1162,1162,0.42995339869716787,0.4,1.0,1.0,263.0,581.0,1.0,1,76.0,1
1163,1163,0.7806202874056228,0.8,0.0,0.0,482.0,790.0,1.0,0,1728.0,0
1164,1164,-0.2787353921433543,-0.3,0.0,1.0,413.0,516.0,1.0,0,-859.0,1
1165,1165,-0.05914971150795112,-0.1,0.0,1.0,289.0,909.0,1.0,0,1802.0,1
1166,1166,-0.7423017092810114,-0.7,1.0,0.0,335.0,876.0,0.0,0,-331.0,1
1167,1167,-0.11877948474430888,-0.1,1.0,0.0,476.0,846.0,0.0,0,-612.0,1
1168,1168,0.6553072370004517,0.7,1.0,1.0,418.0,862.0,0.0,0,-360.0,0
1169,1169,-0.1914462073270593,-0.2,0.0,1.0,382.0,667.0,1.0,0,471.0,1
1170,1170,-0.5410015097768794,-0.5,0.0,1.0,352.0,959.0,0.0,1,-601.0,0
1171,1171,-0.21137282627585463,-0.2,1.0,0.0,313.0,699.0,1.0,1,1428.0,0
1172,1172,0.5445881973221648,0.5,1.0,1.0,355.0,890.0,1.0,1,1755.0,1
1173,1173,0.443711555924586,0.4,1.0,1.0,376.0,534.0,1.0,1,2090.0,1
1174,1174,-0.15687228869548242,-0.2,0.0,1.0,403.0,592.0,1.0,0,1175.0,1
1175,1175,-0.2944147360431094,-0.3,1.0,0.0,492.0,896.0,1.0,1,-908.0,0
1176,1176,-0.5105403645747699,-0.5,1.0,0.0,410.0,884.0,1.0,1,476.0,0
1177,1177,-0.22551489070086428,-0.2,1.0,0.0,254.0,766.0,1.0,1,-880.0,0
1178,1178,-0.2918052761442641,-0.3,1.0,0.0,415.0,972.0,1.0,1,-187.0,0
1179,1179,0.1301997947097958,0.1,1.0,1.0,452.0,948.0,0.0,0,-660.0,0
1180,1180,0.14802440954720752,0.1,0.0,0.0,319.0,694.0,0.0,1,737.0,1
1181,1181,-0.6902644248209743,-0.7,0.0,1.0,323.0,882.0,1.0,0,275.0,1
1182,1182,0.5417871471959522,0.5,0.0,0.0,476.0,930.0,0.0,1,-1256.0,1
1183,1183,0.1314950234521336,0.1,0.0,0.0,424.0,783.0,0.0,1,1523.0,1
1184,1184,-0.41339988188978605,-0.4,0.0,1.0,266.0,889.0,0.0,1,1425.0,0
1185,1185,-0.10974116557496949,-0.1,0.0,1.0,387.0,684.0,1.0,0,-171.0,1
1186,1186,0.517956167075223,0.5,1.0,1.0,323.0,938.0,0.0,0,619.0,0
1187,1187,-0.09696931182990831,-0.1,1.0,0.0,469.0,830.0,0.0,0,761.0,1
1188,1188,-0.6706633500544524,-0.7,0.0,1.0,498.0,600.0,0.0,1,-1068.0,0
1189,1189,0.14223089878326445,0.1,1.0,1.0,374.0,903.0,0.0,0,-1207.0,0
1190,1190,-0.3892203985411312,-0.4,1.0,0.0,290.0,867.0,0.0,0,-757.0,1
1191,1191,-0.19637925264455447,-0.2,1.0,0.0,330.0,511.0,0.0,0,-651.0,1
1192,1192,0.4201677102073199,0.4,1.0,1.0,272.0,758.0,0.0,0,410.0,0
1193,1193,-0.3007471255435292,-0.3,1.0,0.0,401.0,940.0,0.0,0,-661.0,1
1194,1194,-0.27590818457225785,-0.3,1.0,0.0,375.0,798.0,1.0,1,-323.0,0
1195,1195,0.8662399436007732,0.9,1.0,1.0,294.0,613.0,1.0,1,-437.0,1
1196,1196,0.7006194941927807,0.7,0.0,0.0,323.0,702.0,1.0,0,735.0,0
1197,1197,0.35461861020886876,0.4,1.0,1.0,271.0,860.0,1.0,1,-981.0,1
1198,1198,0.6284515542162524,0.6,0.0,0.0,354.0,884.0,0.0,1,-748.0,1
1199,1199,-0.8572493698476269,-0.9,1.0,0.0,439.0,766.0,0.0,0,105.0,1
1200,1200,-0.19031631300668395,-0.2,0.0,1.0,361.0,855.0,1.0,0,-1026.0,1
1201,1201,-0.4608002560480376,-0.5,1.0,0.0,382.0,941.0,1.0,1,-1103.0,0
1202,1202,-0.5739055941651545,-0.6,0.0,1.0,394.0,834.0,1.0,0,-1128.0,1
1203,1203,0.5039571413883955,0.5,0.0,0.0,476.0,616.0,1.0,0,148.0,0
1204,1204,-0.7570923952713591,-0.8,1.0,0.0,251.0,717.0,1.0,1,452.0,0
1205,1205,0.12743310373178185,0.1,0.0,0.0,344.0,783.0,1.0,0,103.0,0
1206,1206,0.048480479533306364,0.0,0.0,0.0,376.0,612.0,0.0,1,782.0,1
1207,1207,0.7241160507995946,0.7,0.0,0.0,317.0,656.0,0.0,1,-853.0,1
1208,1208,0.16109531840783486,0.2,1.0,1.0,353.0,879.0,1.0,1,-1222.0,1
1209,1209,-0.35803821385736223,-0.4,1.0,0.0,392.0,969.0,0.0,0,-961.0,1
1210,1210,-0.4838363805296542,-0.5,0.0,1.0,430.0,659.0,1.0,0,1721.0,1
1211,1211,0.8236707239048148,0.8,1.0,1.0,333.0,934.0,1.0,1,1213.0,1
1212,1212,-0.892961090674505,-0.9,0.0,1.0,401.0,829.0,1.0,0,70.0,1
1213,1213,-0.563581981897682,-0.6,0.0,1.0,368.0,861.0,1.0,0,51.0,1
1214,1214,-0.8207446921503658,-0.8,0.0,1.0,369.0,603.0,0.0,1,-952.0,0
1215,1215,-0.20490282533348203,-0.2,1.0,0.0,388.0,797.0,0.0,0,-265.0,1
1216,1216,-0.28538671269754534,-0.3,1.0,0.0,427.0,565.0,0.0,0,-42.0,1
1217,1217,0.6451809318210456,0.6,1.0,1.0,445.0,859.0,0.0,0,-1264.0,0
1218,1218,0.7794133268385525,0.8,1.0,1.0,325.0,860.0,1.0,1,-1175.0,1
1219,1219,-0.1361351489756072,-0.1,0.0,1.0,409.0,827.0,1.0,0,-1186.0,1
1220,1220,0.19498981093461365,0.2,0.0,0.0,308.0,962.0,0.0,1,810.0,1
1221,1221,-0.3044079198730907,-0.3,1.0,0.0,466.0,937.0,0.0,0,-1233.0,1
1222,1222,-0.19036137445871293,-0.2,0.0,1.0,347.0,914.0,0.0,1,-861.0,0
1223,1223,0.04498728567311072,0.0,1.0,1.0,301.0,796.0,0.0,0,163.0,0
1224,1224,-0.6241679460384073,-0.6,1.0,0.0,355.0,572.0,0.0,0,543.0,1
1225,1225,-0.06376458757297132,-0.1,1.0,0.0,361.0,614.0,1.0,1,-805.0,0
1226,1226,-0.25513343931223054,-0.3,0.0,1.0,462.0,685.0,1.0,0,-857.0,1
1227,1227,-0.05655597805639567,-0.1,0.0,1.0,408.0,992.0,0.0,1,-910.0,0
1228,1228,0.21060899113940146,0.2,1.0,1.0,452.0,908.0,0.0,0,-1330.0,0
1229,1229,0.12449804403345632,0.1,0.0,0.0,461.0,605.0,1.0,0,-196.0,0
1230,1230,0.7552841723903719,0.8,0.0,0.0,466.0,523.0,1.0,0,1.0,0
1231,1231,0.8153524760117202,0.8,0.0,0.0,414.0,908.0,1.0,0,-722.0,0
1232,1232,-0.412584280887223,-0.4,1.0,0.0,289.0,828.0,1.0,1,-927.0,0
1233,1233,-0.5011015783017851,-0.5,0.0,1.0,456.0,954.0,0.0,1,-1170.0,0
1234,1234,0.69079841927803,0.7,0.0,0.0,269.0,651.0,0.0,1,140.0,1
1235,1235,0.3732195056005366,0.4,0.0,0.0,339.0,527.0,0.0,1,-836.0,1
1236,1236,-0.876765969369455,-0.9,0.0,1.0,401.0,863.0,1.0,0,-194.0,1
1237,1237,-0.8316052555235705,-0.8,0.0,1.0,251.0,529.0,1.0,0,2070.0,1
1238,1238,-0.2924655059668849,-0.3,0.0,1.0,272.0,736.0,0.0,1,-828.0,0
1239,1239,0.364663636078579,0.4,1.0,1.0,364.0,696.0,1.0,1,-1050.0,1
1240,1240,0.38418328296606774,0.4,0.0,0.0,436.0,888.0,1.0,0,-1104.0,0
1241,1241,-0.39580065125280595,-0.4,1.0,0.0,469.0,585.0,1.0,1,-474.0,0
1242,1242,-0.3382182055183237,-0.3,0.0,1.0,353.0,719.0,0.0,1,1928.0,0
1243,1243,-0.23348330693617314,-0.2,0.0,1.0,453.0,977.0,0.0,1,720.0,0
1244,1244,0.6820389626935078,0.7,0.0,0.0,448.0,616.0,1.0,0,-984.0,0
1245,1245,-0.4022698983224743,-0.4,0.0,1.0,302.0,597.0,0.0,1,-289.0,0
1246,1246,-0.8829202310607543,-0.9,0.0,1.0,354.0,543.0,1.0,0,-437.0,1
1247,1247,-0.20789688489700853,-0.2,0.0,1.0,449.0,947.0,0.0,1,-1066.0,0
1248,1248,0.3770448158387679,0.4,1.0,1.0,426.0,579.0,0.0,0,-795.0,0
1249,1249,0.530495480721268,0.5,0.0,0.0,446.0,962.0,0.0,1,-398.0,1
1250,1250,-0.3602614275789313,-0.4,0.0,1.0,282.0,864.0,1.0,0,1214.0,1
1251,1251,-0.332640188993806,-0.3,0.0,1.0,446.0,754.0,0.0,1,-730.0,0
1252,1252,0.0780126051139236,0.1,0.0,0.0,252.0,791.0,0.0,1,-1043.0,1
1253,1253,-0.6029726918182988,-0.6,0.0,1.0,300.0,612.0,1.0,0,268.0,1
1254,1254,-0.5911173757283626,-0.6,1.0,0.0,250.0,694.0,1.0,1,-594.0,0
1255,1255,-0.5048373532157951,-0.5,0.0,1.0,293.0,856.0,1.0,0,-1109.0,1
1256,1256,-0.2908041914959939,-0.3,1.0,0.0,253.0,632.0,0.0,0,-505.0,1
1257,1257,0.545687074516625,0.5,1.0,1.0,375.0,575.0,0.0,0,2050.0,0
1258,1258,-0.8359688242292059,-0.8,1.0,0.0,405.0,829.0,0.0,0,-1004.0,1
1259,1259,0.1588291013339852,0.2,1.0,1.0,352.0,543.0,1.0,1,2105.0,1
1260,1260,-0.22046650620210706,-0.2,0.0,1.0,344.0,842.0,1.0,0,-1056.0,1
1261,1261,-0.1878851630160785,-0.2,1.0,0.0,253.0,622.0,1.0,1,65.0,0
1262,1262,0.10839881759350833,0.1,0.0,0.0,454.0,579.0,0.0,1,-593.0,1
1263,1263,-0.5646730214368582,-0.6,1.0,0.0,387.0,872.0,1.0,1,-1179.0,0
1264,1264,0.8940447720692911,0.9,1.0,1.0,418.0,744.0,1.0,1,-752.0,1
1265,1265,-0.1909867513046143,-0.2,0.0,1.0,326.0,857.0,1.0,0,1817.0,1
1266,1266,0.7338730195807551,0.7,0.0,0.0,452.0,922.0,1.0,0,-904.0,0
1267,1267,0.04001936310407139,0.0,1.0,1.0,444.0,739.0,1.0,1,-1083.0,1
1268,1268,-0.6946964624068406,-0.7,1.0,0.0,477.0,985.0,0.0,0,838.0,1
1269,1269,0.5482655113303606,0.5,0.0,0.0,406.0,703.0,0.0,1,-999.0,1
1270,1270,0.8884151849089016,0.9,1.0,1.0,496.0,655.0,0.0,0,589.0,0
1271,1271,-0.2535641527573197,-0.3,0.0,1.0,430.0,716.0,1.0,0,-526.0,1
1272,1272,0.532095039616996,0.5,1.0,1.0,401.0,582.0,0.0,0,57.0,0
1273,1273,-0.28464243919649757,-0.3,0.0,1.0,401.0,719.0,0.0,1,950.0,0
1274,1274,-0.0783627500167009,-0.1,0.0,1.0,412.0,860.0,0.0,1,-852.0,0
1275,1275,-0.23054028499035184,-0.2,1.0,0.0,280.0,951.0,1.0,1,-1191.0,0
1276,1276,0.7970525719715343,0.8,1.0,1.0,414.0,884.0,1.0,1,-878.0,1
1277,1277,0.2117743694178894,0.2,1.0,1.0,305.0,701.0,1.0,1,304.0,1
1278,1278,-0.07559798789894168,-0.1,0.0,1.0,371.0,549.0,0.0,1,-10.0,0
1279,1279,-0.6538800167210629,-0.7,0.0,1.0,469.0,644.0,0.0,1,157.0,0
1280,1280,-0.4870395628206535,-0.5,1.0,0.0,487.0,963.0,0.0,0,-1300.0,1
1281,1281,-0.16550561959951104,-0.2,0.0,1.0,250.0,543.0,0.0,1,-193.0,0
1282,1282,0.4616523611765665,0.5,1.0,1.0,363.0,877.0,1.0,1,-1130.0,1
1283,1283,0.4670924947968521,0.5,0.0,0.0,312.0,787.0,1.0,0,451.0,0
1284,1284,0.3178918109650667,0.3,1.0,1.0,378.0,876.0,1.0,1,1126.0,1
1285,1285,0.8435512362668599,0.8,1.0,1.0,320.0,917.0,0.0,0,553.0,0
1286,1286,-0.7954092091956728,-0.8,0.0,1.0,496.0,980.0,1.0,0,-1126.0,1
1287,1287,0.61257704120373,0.6,1.0,1.0,394.0,785.0,0.0,0,1.0,0
1288,1288,0.7162195770204639,0.7,1.0,1.0,329.0,560.0,1.0,1,1091.0,1
1289,1289,-0.3213236780724291,-0.3,1.0,0.0,425.0,911.0,0.0,0,-1016.0,1
1290,1290,0.19423300615572126,0.2,0.0,0.0,454.0,934.0,1.0,0,-1378.0,0
1291,1291,0.8276800637604754,0.8,0.0,0.0,325.0,981.0,1.0,0,-696.0,0
1292,1292,-0.6252436760191873,-0.6,0.0,1.0,448.0,925.0,1.0,0,-843.0,1
1293,1293,-0.4335432857890667,-0.4,0.0,1.0,375.0,527.0,0.0,1,558.0,0
1294,1294,-0.5580477172662055,-0.6,1.0,0.0,351.0,614.0,1.0,1,-145.0,0
1295,1295,0.8340665566663176,0.8,1.0,1.0,468.0,762.0,1.0,1,-690.0,1
1296,1296,-0.18862404020146262,-0.2,0.0,1.0,253.0,997.0,1.0,0,-990.0,1
1297,1297,-0.8175193041035638,-0.8,1.0,0.0,250.0,617.0,0.0,0,-587.0,1
1298,1298,0.5181451403312302,0.5,0.0,0.0,399.0,799.0,0.0,1,-258.0,1
1299,1299,0.31699738544594547,0.3,1.0,1.0,352.0,818.0,1.0,1,270.0,1
1300,1300,0.6697165412479168,0.7,1.0,1.0,275.0,624.0,1.0,1,-689.0,1
1301,1301,-0.7383629862515351,-0.7,1.0,0.0,384.0,865.0,1.0,1,-829.0,0
1302,1302,0.36815809081187967,0.4,0.0,0.0,326.0,600.0,0.0,1,-606.0,1
1303,1303,-0.2647629062680481,-0.3,0.0,1.0,340.0,770.0,0.0,1,-950.0,0
1304,1304,-0.05347590097247101,-0.1,1.0,0.0,310.0,830.0,0.0,0,-980.0,1
1305,1305,0.17605648824328146,0.2,0.0,0.0,388.0,519.0,1.0,0,2093.0,0
1306,1306,0.6444561645479306,0.6,1.0,1.0,325.0,799.0,0.0,0,-994.0,0
1307,1307,0.5003877705295839,0.5,0.0,0.0,412.0,655.0,1.0,0,1153.0,0
1308,1308,-0.45547648762420795,-0.5,0.0,1.0,430.0,883.0,1.0,0,-563.0,1
1309,1309,-0.38015444616611926,-0.4,1.0,0.0,327.0,629.0,1.0,1,24.0,0
1310,1310,0.35726924054414366,0.4,0.0,0.0,391.0,962.0,1.0,0,-1203.0,0
1311,1311,0.24348533627876068,0.2,1.0,1.0,453.0,651.0,0.0,0,1896.0,0
1312,1312,-0.8302237341590311,-0.8,1.0,0.0,308.0,850.0,1.0,1,-218.0,0
1313,1313,0.48795332060128394,0.5,0.0,0.0,478.0,652.0,1.0,0,960.0,0
1314,1314,-0.24106238500821042,-0.2,1.0,0.0,447.0,730.0,1.0,1,-927.0,0
1315,1315,0.0634553021223132,0.1,0.0,0.0,493.0,868.0,1.0,0,-361.0,0
1316,1316,0.19016424592796188,0.2,0.0,0.0,263.0,880.0,0.0,1,-833.0,1
1317,1317,0.5856372420612518,0.6,1.0,1.0,381.0,602.0,0.0,0,-383.0,0
1318,1318,0.4062352783393931,0.4,0.0,0.0,290.0,987.0,1.0,0,-57.0,0
1319,1319,-0.5922003472364176,-0.6,1.0,0.0,377.0,657.0,1.0,1,-564.0,0
1320,1320,-0.36316642502783336,-0.4,0.0,1.0,332.0,847.0,1.0,0,1821.0,1
1321,1321,-0.4219990348362315,-0.4,1.0,0.0,467.0,607.0,1.0,1,-454.0,0
1322,1322,-0.014678117940616353,-0.0,1.0,0.0,465.0,887.0,0.0,0,-1332.0,1
1323,1323,-0.22442118289641644,-0.2,1.0,0.0,394.0,880.0,1.0,1,-1244.0,0
1324,1324,-0.5050333813019858,-0.5,0.0,1.0,453.0,798.0,0.0,1,-1251.0,0
1325,1325,0.8864948100645412,0.9,1.0,1.0,318.0,587.0,0.0,0,45.0,0
1326,1326,-0.7672202023206329,-0.8,1.0,0.0,398.0,682.0,0.0,0,220.0,1
1327,1327,-0.7955376332043507,-0.8,0.0,1.0,360.0,585.0,0.0,1,-475.0,0
1328,1328,0.18923231447581979,0.2,1.0,1.0,371.0,761.0,0.0,0,-1072.0,0
1329,1329,0.30704766932104344,0.3,1.0,1.0,455.0,778.0,0.0,0,-173.0,0
1330,1330,0.4544636433146977,0.5,1.0,1.0,353.0,893.0,1.0,1,-1206.0,1
1331,1331,-0.5099714927318879,-0.5,0.0,1.0,350.0,519.0,1.0,0,411.0,1
1332,1332,-0.6365735725077815,-0.6,1.0,0.0,295.0,527.0,1.0,1,-532.0,0
1333,1333,0.743027576996954,0.7,0.0,0.0,456.0,533.0,1.0,0,-789.0,0
1334,1334,-0.4656842151464475,-0.5,1.0,0.0,334.0,869.0,1.0,1,1687.0,0
1335,1335,0.4208624104438753,0.4,1.0,1.0,289.0,654.0,0.0,0,-323.0,0
1336,1336,0.7116449410951456,0.7,0.0,0.0,271.0,671.0,1.0,0,-482.0,0
1337,1337,0.7012705124012474,0.7,1.0,1.0,471.0,617.0,1.0,1,832.0,1
1338,1338,0.31420898707622247,0.3,1.0,1.0,399.0,736.0,0.0,0,1015.0,0
1339,1339,-0.8429841774475945,-0.8,0.0,1.0,491.0,681.0,1.0,0,1428.0,1
1340,1340,0.238961691731154,0.2,1.0,1.0,255.0,652.0,1.0,1,2093.0,1
1341,1341,-0.5008093495727567,-0.5,0.0,1.0,489.0,567.0,0.0,1,1944.0,0
1342,1342,-0.03786357730060497,-0.0,1.0,0.0,476.0,748.0,1.0,1,-274.0,0
1343,1343,0.7582882299095114,0.8,0.0,0.0,377.0,855.0,0.0,1,-1202.0,1
1344,1344,0.35342948549451114,0.4,1.0,1.0,484.0,902.0,0.0,0,-806.0,0
1345,1345,0.7245976948807219,0.7,0.0,0.0,313.0,933.0,1.0,0,-86.0,0
1346,1346,0.5503566571984481,0.6,0.0,0.0,295.0,999.0,0.0,1,526.0,1
1347,1347,-0.8028072272232634,-0.8,1.0,0.0,349.0,745.0,1.0,1,-674.0,0
1348,1348,-0.2555657023938741,-0.3,1.0,0.0,467.0,940.0,1.0,1,1593.0,0
1349,1349,0.24663052288054021,0.2,0.0,0.0,404.0,720.0,0.0,1,-284.0,1
1350,1350,0.32310755250500256,0.3,0.0,0.0,446.0,552.0,0.0,1,-18.0,1
1351,1351,0.6440262777069802,0.6,1.0,1.0,459.0,577.0,0.0,0,-856.0,0
1352,1352,0.17792573470584794,0.2,0.0,0.0,491.0,985.0,1.0,0,-956.0,0
1353,1353,-0.066714784895749,-0.1,0.0,1.0,272.0,614.0,0.0,1,-296.0,0
1354,1354,-0.6886516659680009,-0.7,0.0,1.0,361.0,662.0,0.0,1,-363.0,0
1355,1355,-0.631240874959169,-0.6,0.0,1.0,296.0,502.0,1.0,0,732.0,1
1356,1356,0.10359435627738944,0.1,1.0,1.0,269.0,974.0,1.0,1,-733.0,1
1357,1357,0.825061975900678,0.8,0.0,0.0,389.0,954.0,0.0,1,-1303.0,1
1358,1358,-0.2327368139516942,-0.2,1.0,0.0,359.0,711.0,0.0,0,-770.0,1
1359,1359,-0.3531970363429774,-0.4,0.0,1.0,314.0,810.0,1.0,0,-1124.0,1
1360,1360,0.8000819164475782,0.8,0.0,0.0,434.0,918.0,1.0,0,-1262.0,0
1361,1361,-0.596025924676996,-0.6,1.0,0.0,254.0,623.0,1.0,1,-827.0,0
1362,1362,-0.37416515903411507,-0.4,1.0,0.0,470.0,638.0,1.0,1,-948.0,0
1363,1363,-0.085946506811036,-0.1,0.0,1.0,316.0,673.0,0.0,1,481.0,0
1364,1364,-0.8027555769236683,-0.8,1.0,0.0,355.0,523.0,0.0,0,62.0,1
1365,1365,-0.0674432922274758,-0.1,1.0,0.0,392.0,782.0,0.0,0,-704.0,1
1366,1366,0.6890964773590739,0.7,0.0,0.0,299.0,514.0,0.0,1,27.0,1
1367,1367,-0.6826468171649749,-0.7,0.0,1.0,382.0,971.0,1.0,0,-1323.0,1
1368,1368,0.46516041582377976,0.5,0.0,0.0,387.0,934.0,1.0,0,799.0,0
1369,1369,0.19451071248514917,0.2,0.0,0.0,305.0,980.0,0.0,1,-1125.0,1
1370,1370,0.7457253250940031,0.7,0.0,0.0,369.0,766.0,0.0,1,-195.0,1
1371,1371,0.561140351576129,0.6,0.0,0.0,346.0,990.0,0.0,1,-446.0,1
1372,1372,0.19204152115600082,0.2,1.0,1.0,476.0,582.0,1.0,1,752.0,1
1373,1373,-0.811618716632259,-0.8,0.0,1.0,330.0,642.0,0.0,1,-822.0,0
1374,1374,0.42604644458310126,0.4,0.0,0.0,345.0,815.0,1.0,0,-740.0,0
1375,1375,0.5985917965940327,0.6,0.0,0.0,274.0,871.0,1.0,0,-895.0,0
1376,1376,-0.13847973175549455,-0.1,0.0,1.0,360.0,651.0,0.0,1,-451.0,0
1377,1377,0.3131119426826373,0.3,0.0,0.0,277.0,690.0,1.0,0,-197.0,0
1378,1378,-0.31182345087297736,-0.3,0.0,1.0,370.0,561.0,0.0,1,-481.0,0
1379,1379,0.7314033044196943,0.7,0.0,0.0,488.0,961.0,0.0,1,471.0,1
1380,1380,-0.8018621969504164,-0.8,1.0,0.0,261.0,551.0,1.0,1,308.0,0
1381,1381,-0.6069286972606229,-0.6,1.0,0.0,486.0,632.0,1.0,1,1552.0,0
1382,1382,-0.19010937471716094,-0.2,1.0,0.0,442.0,503.0,0.0,0,-525.0,1
1383,1383,-0.2911519483152478,-0.3,0.0,1.0,410.0,538.0,1.0,0,22.0,1
1384,1384,-0.8212693300538555,-0.8,0.0,1.0,269.0,793.0,0.0,1,-542.0,0
1385,1385,-0.6747393988776732,-0.7,1.0,0.0,408.0,593.0,0.0,0,1159.0,1
1386,1386,0.8660198045937603,0.9,0.0,0.0,342.0,709.0,0.0,1,-501.0,1
1387,1387,0.15886172569212065,0.2,1.0,1.0,441.0,585.0,0.0,0,154.0,0
1388,1388,-0.024472760359445234,-0.0,0.0,1.0,385.0,852.0,0.0,1,-537.0,0
1389,1389,-0.13371349155043522,-0.1,1.0,0.0,385.0,702.0,1.0,1,-1077.0,0
1390,1390,-0.23395848515356266,-0.2,1.0,0.0,454.0,727.0,0.0,0,-1161.0,1
1391,1391,0.1053158176325043,0.1,1.0,1.0,336.0,798.0,1.0,1,1866.0,1
1392,1392,0.7802418642701888,0.8,1.0,1.0,378.0,632.0,1.0,1,-910.0,1
1393,1393,0.23378125705554387,0.2,0.0,0.0,455.0,776.0,1.0,0,1299.0,0
1394,1394,0.14233414620930074,0.1,1.0,1.0,324.0,527.0,0.0,0,1879.0,0
1395,1395,-0.6806923117646568,-0.7,0.0,1.0,473.0,907.0,0.0,1,-860.0,0
1396,1396,0.16113128364450613,0.2,0.0,0.0,431.0,859.0,1.0,0,1710.0,0
1397,1397,-0.5528605480471851,-0.6,0.0,1.0,374.0,523.0,1.0,0,223.0,1
1398,1398,-0.7240818012915793,-0.7,1.0,0.0,281.0,534.0,1.0,1,-675.0,0
1399,1399,-0.28812752159153565,-0.3,0.0,1.0,256.0,590.0,0.0,1,-366.0,0
1400,1400,-0.014330826171984334,-0.0,1.0,0.0,369.0,557.0,0.0,0,-906.0,1
1401,1401,0.7136022248165977,0.7,0.0,0.0,465.0,981.0,0.0,1,-86.0,1
1402,1402,0.5662932429922852,0.6,0.0,0.0,335.0,659.0,0.0,1,-404.0,1
1403,1403,0.23846483303252797,0.2,1.0,1.0,471.0,631.0,0.0,0,-602.0,0
1404,1404,0.42692080443436853,0.4,0.0,0.0,308.0,583.0,1.0,0,-171.0,0
1405,1405,-0.37308685161843824,-0.4,1.0,0.0,312.0,795.0,1.0,1,333.0,0
1406,1406,0.7048854207800425,0.7,1.0,1.0,323.0,810.0,0.0,0,-253.0,0
1407,1407,0.49540559883841573,0.5,0.0,0.0,449.0,995.0,0.0,1,-974.0,1
1408,1408,0.2940889063561668,0.3,1.0,1.0,398.0,566.0,1.0,1,-324.0,1
1409,1409,0.7057465994030564,0.7,0.0,0.0,312.0,547.0,0.0,1,-359.0,1
1410,1410,-0.5355035952249285,-0.5,1.0,0.0,308.0,837.0,1.0,1,-745.0,0
1411,1411,0.7565281176326651,0.8,1.0,1.0,493.0,916.0,1.0,1,331.0,1
1412,1412,-0.4407366598323988,-0.4,0.0,1.0,443.0,589.0,0.0,1,-1022.0,0
1413,1413,0.23856791638602604,0.2,0.0,0.0,338.0,544.0,0.0,1,-142.0,1
1414,1414,-0.6353229398689684,-0.6,1.0,0.0,271.0,596.0,1.0,1,-547.0,0
1415,1415,-0.8180844960739261,-0.8,0.0,1.0,263.0,617.0,0.0,1,360.0,0
1416,1416,-0.5129103278809855,-0.5,1.0,0.0,444.0,568.0,0.0,0,1748.0,1
1417,1417,-0.5479765829961721,-0.5,1.0,0.0,325.0,924.0,0.0,0,-949.0,1
1418,1418,-0.6183899540448146,-0.6,1.0,0.0,438.0,862.0,1.0,1,-1130.0,0
1419,1419,-0.22994630694467533,-0.2,0.0,1.0,337.0,757.0,1.0,0,-1034.0,1
1420,1420,0.19380006834972308,0.2,1.0,1.0,492.0,978.0,1.0,1,1530.0,1
1421,1421,0.5017907810554384,0.5,0.0,0.0,261.0,561.0,1.0,0,-792.0,0
1422,1422,-0.08224778822052914,-0.1,1.0,0.0,264.0,801.0,1.0,1,1025.0,0
1423,1423,-0.6352567552117745,-0.6,1.0,0.0,465.0,794.0,0.0,0,-929.0,1
1424,1424,-0.07655446803895549,-0.1,1.0,0.0,426.0,540.0,1.0,1,-886.0,0
1425,1425,0.5287537746502565,0.5,0.0,0.0,315.0,521.0,1.0,0,1554.0,0
1426,1426,-0.18916174053948953,-0.2,1.0,0.0,419.0,748.0,1.0,1,-247.0,0
1427,1427,-0.1893184198937572,-0.2,1.0,0.0,450.0,955.0,1.0,1,-1035.0,0
1428,1428,-0.051328280697857886,-0.1,0.0,1.0,350.0,918.0,1.0,0,-228.0,1
1429,1429,-0.029632222081298232,-0.0,0.0,1.0,306.0,680.0,1.0,0,1364.0,1
1430,1430,-0.6032969494041456,-0.6,0.0,1.0,333.0,932.0,1.0,0,-1115.0,1
1431,1431,-0.22497707637774977,-0.2,0.0,1.0,259.0,844.0,1.0,0,847.0,1
1432,1432,-0.05791243665850021,-0.1,1.0,0.0,491.0,862.0,0.0,0,-1013.0,1
1433,1433,-0.40036597343481134,-0.4,0.0,1.0,412.0,941.0,1.0,0,-1043.0,1
1434,1434,-0.6366556755862893,-0.6,1.0,0.0,343.0,766.0,0.0,0,-1009.0,1
1435,1435,-0.5582328084481556,-0.6,1.0,0.0,372.0,910.0,1.0,1,-972.0,0
1436,1436,0.5715199660160611,0.6,0.0,0.0,405.0,606.0,0.0,1,-501.0,1
1437,1437,0.0221841670546008,0.0,0.0,0.0,275.0,682.0,0.0,1,-147.0,1
1438,1438,-0.06235425980647391,-0.1,0.0,1.0,411.0,930.0,1.0,0,949.0,1
1439,1439,0.4837387961360352,0.5,0.0,0.0,380.0,902.0,1.0,0,-32.0,0
1440,1440,-0.6384035472872049,-0.6,1.0,0.0,375.0,603.0,1.0,1,2.0,0
1441,1441,-0.12882957206304535,-0.1,0.0,1.0,452.0,797.0,0.0,1,911.0,0
1442,1442,-0.06675321412377022,-0.1,0.0,1.0,446.0,971.0,1.0,0,-547.0,1
1443,1443,0.8838792570669997,0.9,0.0,0.0,275.0,787.0,1.0,0,-162.0,0
1444,1444,-0.7446027643674821,-0.7,1.0,0.0,279.0,885.0,1.0,1,1836.0,0
1445,1445,0.7723800732673937,0.8,0.0,0.0,394.0,605.0,0.0,1,-149.0,1
1446,1446,0.5882552816845629,0.6,0.0,0.0,317.0,917.0,1.0,0,-574.0,0
1447,1447,-0.5493210325849198,-0.5,1.0,0.0,435.0,819.0,1.0,1,-604.0,0
1448,1448,-0.22371425938077005,-0.2,0.0,1.0,324.0,786.0,0.0,1,-570.0,0
1449,1449,0.6120069006422669,0.6,0.0,0.0,291.0,838.0,1.0,0,-879.0,0
1450,1450,-0.230529088102717,-0.2,0.0,1.0,348.0,891.0,1.0,0,-1239.0,1
1451,1451,0.04732217026516505,0.0,1.0,1.0,442.0,558.0,0.0,0,-780.0,0
1452,1452,0.31302399064897524,0.3,0.0,0.0,405.0,611.0,0.0,1,-736.0,1
1453,1453,0.7407299101610892,0.7,1.0,1.0,440.0,537.0,0.0,0,1713.0,0
1454,1454,-0.5399883420753404,-0.5,0.0,1.0,294.0,594.0,0.0,1,382.0,0
1455,1455,0.8317264236751999,0.8,0.0,0.0,290.0,540.0,0.0,1,-600.0,1
1456,1456,0.8877217586964684,0.9,0.0,0.0,382.0,938.0,0.0,1,-1260.0,1
1457,1457,-0.35277204799761486,-0.4,1.0,0.0,328.0,611.0,0.0,0,-919.0,1
1458,1458,-0.14286763882996278,-0.1,1.0,0.0,374.0,542.0,0.0,0,-206.0,1
1459,1459,-0.1709923193527897,-0.2,0.0,1.0,408.0,752.0,0.0,1,-780.0,0
1460,1460,0.3628268463419223,0.4,1.0,1.0,338.0,782.0,1.0,1,870.0,1
1461,1461,0.37755651728531336,0.4,0.0,0.0,276.0,728.0,1.0,0,236.0,0
1462,1462,0.6440202612086586,0.6,0.0,0.0,344.0,850.0,1.0,0,-594.0,0
1463,1463,-0.6661720558774904,-0.7,1.0,0.0,349.0,846.0,0.0,0,-1145.0,1
1464,1464,-0.6814944879550825,-0.7,0.0,1.0,356.0,958.0,1.0,0,-1304.0,1
1465,1465,0.3844257983608158,0.4,0.0,0.0,316.0,855.0,0.0,1,-291.0,1
1466,1466,0.7804785687701826,0.8,1.0,1.0,465.0,970.0,0.0,0,-545.0,0
1467,1467,-0.4655217012373464,-0.5,0.0,1.0,460.0,879.0,0.0,1,-1229.0,0
1468,1468,0.19001031681520375,0.2,0.0,0.0,417.0,527.0,0.0,1,-264.0,1
1469,1469,-0.7567923219250787,-0.8,1.0,0.0,363.0,598.0,1.0,1,459.0,0
1470,1470,-0.820240933837426,-0.8,0.0,1.0,498.0,573.0,1.0,0,459.0,1
1471,1471,-0.8224959546981736,-0.8,0.0,1.0,472.0,809.0,1.0,0,-921.0,1
1472,1472,-0.07297916713858843,-0.1,0.0,1.0,451.0,847.0,0.0,1,912.0,0
1473,1473,0.7100801540879641,0.7,1.0,1.0,288.0,746.0,1.0,1,-934.0,1
1474,1474,0.8751395263926193,0.9,0.0,0.0,322.0,808.0,0.0,1,50.0,1
