,trial,coherence,coherence_bin,green_side,correct_side,target_onset,checker_onset,decision,green_decision,decision_time,correct_decision
0,0,0.6046541896773955,0.6,1.0,1.0,377.0,570.0,1.0,1,343.0,1
1,1,-0.35203454740629536,-0.4,1.0,0.0,341.0,822.0,1.0,1,57.0,0
2,2,0.8347282627597911,0.8,1.0,1.0,388.0,906.0,1.0,1,286.0,1
3,3,0.6559555061077053,0.7,0.0,0.0,465.0,519.0,0.0,1,416.0,1
4,4,-0.25757003356332986,-0.3,1.0,0.0,415.0,673.0,0.0,0,3122.0,1
5,5,-0.7249968679365698,-0.7,1.0,0.0,250.0,614.0,0.0,0,4136.0,1
6,6,-0.8297913963227587,-0.8,0.0,1.0,417.0,832.0,1.0,0,1.0,1
7,7,-0.8438621164504163,-0.8,0.0,1.0,462.0,655.0,1.0,0,293.0,1
8,8,-0.056062992831301894,-0.1,0.0,1.0,476.0,833.0,1.0,0,1351.0,1
9,9,0.7872566953327319,0.8,0.0,0.0,274.0,647.0,0.0,1,259.0,1
10,10,0.4942421081234164,0.5,1.0,1.0,358.0,978.0,1.0,1,294.0,1
11,11,0.612280549740574,0.6,1.0,1.0,368.0,979.0,1.0,1,653.0,1
12,12,0.22505730489883746,0.2,0.0,0.0,406.0,864.0,0.0,1,1840.0,1
13,13,0.3317697954528841,0.3,1.0,1.0,251.0,565.0,1.0,1,314.0,1
14,14,0.3709906468442442,0.4,1.0,1.0,402.0,892.0,1.0,1,1266.0,1
15,15,0.32507190537116293,0.3,1.0,1.0,437.0,801.0,1.0,1,222.0,1
16,16,0.39313468856546796,0.4,0.0,0.0,325.0,644.0,0.0,1,161.0,1
17,17,0.6746306906053473,0.7,1.0,1.0,413.0,860.0,1.0,1,187.0,1
18,18,-0.009783979928040698,-0.0,1.0,0.0,420.0,666.0,1.0,1,1694.0,0
19,19,-0.3621039912381223,-0.4,1.0,0.0,382.0,828.0,1.0,1,-10.0,0
20,20,0.447893891967703,0.4,1.0,1.0,464.0,997.0,1.0,1,159.0,1
21,21,0.3193659069497857,0.3,1.0,1.0,266.0,726.0,1.0,1,508.0,1
22,22,-0.7483998186261761,-0.7,0.0,1.0,323.0,972.0,1.0,0,285.0,1
23,23,-0.4233186135349481,-0.4,0.0,1.0,250.0,865.0,1.0,0,295.0,1
24,24,-0.18010200753727645,-0.2,0.0,1.0,305.0,956.0,1.0,0,-91.0,1
25,25,-0.21175941194810965,-0.2,0.0,1.0,260.0,636.0,1.0,0,334.0,1
26,26,0.8924159760031677,0.9,0.0,0.0,395.0,562.0,0.0,1,133.0,1
27,27,-0.34703878759995654,-0.3,1.0,0.0,437.0,593.0,0.0,0,2070.0,1
28,28,-0.3022827833035071,-0.3,0.0,1.0,371.0,692.0,1.0,0,367.0,1
29,29,-0.16554306492355775,-0.2,0.0,1.0,434.0,633.0,1.0,0,773.0,1
30,30,0.02896349719895308,0.0,1.0,1.0,474.0,916.0,1.0,1,20.0,1
31,31,0.20932811312693722,0.2,0.0,0.0,399.0,650.0,0.0,1,3951.0,1
32,32,0.8239581257330973,0.8,1.0,1.0,474.0,832.0,1.0,1,-236.0,1
33,33,-0.5033918032307084,-0.5,1.0,0.0,350.0,555.0,0.0,0,425.0,1
34,34,0.06923226045474773,0.1,1.0,1.0,440.0,599.0,1.0,1,201.0,1
35,35,-0.631341248604588,-0.6,0.0,1.0,349.0,600.0,1.0,0,301.0,1
36,36,0.41081943087576367,0.4,0.0,0.0,366.0,651.0,0.0,1,823.0,1
37,37,-0.3650929694444718,-0.4,0.0,1.0,311.0,578.0,1.0,0,441.0,1
38,38,-0.6153265815008275,-0.6,1.0,0.0,280.0,536.0,0.0,0,304.0,1
39,39,0.7823379598373487,0.8,1.0,1.0,406.0,505.0,1.0,1,779.0,1
40,40,0.5653071651282647,0.6,0.0,0.0,466.0,966.0,0.0,1,408.0,1
41,41,-0.4718264763076606,-0.5,1.0,0.0,421.0,711.0,0.0,0,858.0,1
42,42,-0.6760884686713337,-0.7,0.0,1.0,326.0,668.0,1.0,0,486.0,1
43,43,-0.7874115160856063,-0.8,0.0,1.0,338.0,794.0,1.0,0,238.0,1
44,44,0.5366719278237592,0.5,0.0,0.0,430.0,610.0,0.0,1,340.0,1
45,45,-0.3164247397156631,-0.3,1.0,0.0,256.0,719.0,1.0,1,-205.0,0
46,46,-0.7842709979389699,-0.8,0.0,1.0,365.0,601.0,1.0,0,234.0,1
47,47,-0.6224332968851873,-0.6,1.0,0.0,493.0,560.0,1.0,1,27.0,0
48,48,-0.8395783498522906,-0.8,1.0,0.0,443.0,677.0,0.0,0,420.0,1
49,49,-0.8994541677205871,-0.9,1.0,0.0,436.0,614.0,0.0,0,340.0,1
50,50,0.4102073696672984,0.4,1.0,1.0,322.0,927.0,1.0,1,401.0,1
51,51,-0.5833590878592523,-0.6,0.0,1.0,257.0,843.0,1.0,0,300.0,1
52,52,0.06526736200700789,0.1,1.0,1.0,494.0,911.0,1.0,1,105.0,1
53,53,-0.7656519723086845,-0.8,1.0,0.0,485.0,857.0,0.0,0,818.0,1
54,54,-0.8530154185460526,-0.9,1.0,0.0,499.0,797.0,0.0,0,274.0,1
55,55,-0.3600210767726091,-0.4,0.0,1.0,283.0,540.0,1.0,0,627.0,1
56,56,-0.6089058882534577,-0.6,1.0,0.0,499.0,594.0,0.0,0,517.0,1
57,57,-0.7165856735454776,-0.7,1.0,0.0,304.0,777.0,0.0,0,979.0,1
58,58,-0.24698132202131717,-0.2,1.0,0.0,418.0,867.0,0.0,0,2285.0,1
59,59,0.7226697095944213,0.7,1.0,1.0,391.0,866.0,1.0,1,73.0,1
60,60,-0.5067813959644223,-0.5,1.0,0.0,401.0,706.0,0.0,0,373.0,1
61,61,-0.2570104626856251,-0.3,0.0,1.0,388.0,607.0,1.0,0,625.0,1
62,62,0.6343478148418628,0.6,0.0,0.0,465.0,964.0,0.0,1,371.0,1
63,63,0.13512146588400065,0.1,1.0,1.0,317.0,903.0,1.0,1,10.0,1
64,64,0.652775307703043,0.7,1.0,1.0,425.0,715.0,1.0,1,260.0,1
65,65,0.7280707289829159,0.7,0.0,0.0,419.0,923.0,1.0,0,-282.0,0
66,66,-0.3219602107773909,-0.3,1.0,0.0,364.0,814.0,0.0,0,3142.0,1
67,67,-0.10761916200075905,-0.1,1.0,0.0,404.0,969.0,1.0,1,327.0,0
68,68,0.4591716907549518,0.5,0.0,0.0,348.0,603.0,0.0,1,779.0,1
69,69,-0.5227159869635964,-0.5,1.0,0.0,310.0,989.0,0.0,0,241.0,1
70,70,0.24265452661194897,0.2,1.0,1.0,419.0,791.0,1.0,1,600.0,1
71,71,-0.411249794789171,-0.4,0.0,1.0,304.0,861.0,1.0,0,145.0,1
72,72,-0.23680635003337025,-0.2,1.0,0.0,350.0,751.0,0.0,0,3129.0,1
73,73,0.33350457915060205,0.3,1.0,1.0,395.0,558.0,1.0,1,407.0,1
74,74,-0.6801499938458696,-0.7,1.0,0.0,452.0,622.0,0.0,0,806.0,1
75,75,-0.44593562002030246,-0.4,0.0,1.0,495.0,668.0,1.0,0,87.0,1
76,76,-0.5825689287986269,-0.6,0.0,1.0,338.0,714.0,1.0,0,168.0,1
77,77,-0.5318190210928215,-0.5,0.0,1.0,385.0,697.0,1.0,0,468.0,1
78,78,-0.5151389513278696,-0.5,0.0,1.0,486.0,938.0,1.0,0,196.0,1
79,79,0.09451914492055469,0.1,0.0,0.0,364.0,895.0,0.0,1,3741.0,1
80,80,0.6146732535515632,0.6,0.0,0.0,300.0,674.0,0.0,1,1206.0,1
81,81,0.5441917435529487,0.5,1.0,1.0,412.0,700.0,1.0,1,228.0,1
82,82,0.5852617406652912,0.6,1.0,1.0,362.0,551.0,1.0,1,77.0,1
83,83,0.41814805321804405,0.4,1.0,1.0,380.0,747.0,1.0,1,763.0,1
84,84,0.4992348686534177,0.5,0.0,0.0,272.0,543.0,0.0,1,1905.0,1
85,85,0.480644903498855,0.5,1.0,1.0,368.0,692.0,1.0,1,190.0,1
86,86,0.7647640895446232,0.8,0.0,0.0,356.0,738.0,0.0,1,346.0,1
87,87,0.6832924073610146,0.7,0.0,0.0,266.0,529.0,0.0,1,635.0,1
88,88,-0.7727046684448503,-0.8,1.0,0.0,298.0,943.0,1.0,1,49.0,0
89,89,0.38526421346078255,0.4,0.0,0.0,291.0,899.0,1.0,0,20.0,0
90,90,0.5374190731433041,0.5,1.0,1.0,384.0,805.0,1.0,1,-109.0,1
91,91,-0.5491584870482682,-0.5,1.0,0.0,368.0,740.0,0.0,0,692.0,1
92,92,-0.8892807511705707,-0.9,1.0,0.0,271.0,764.0,0.0,0,275.0,1
93,93,-0.04318211405502459,-0.0,1.0,0.0,485.0,719.0,1.0,1,-204.0,0
94,94,0.14369845365871947,0.1,1.0,1.0,270.0,949.0,1.0,1,-209.0,1
95,95,-0.13484736674124553,-0.1,1.0,0.0,328.0,925.0,1.0,1,127.0,0
96,96,-0.7519741528173578,-0.8,0.0,1.0,326.0,994.0,1.0,0,60.0,1
97,97,0.7945679356783798,0.8,1.0,1.0,318.0,607.0,1.0,1,265.0,1
98,98,0.0070591623257413305,0.0,1.0,1.0,409.0,978.0,1.0,1,333.0,1
99,99,0.8919749299402283,0.9,0.0,0.0,349.0,587.0,0.0,1,344.0,1
100,100,0.3171294156675627,0.3,0.0,0.0,322.0,637.0,0.0,1,741.0,1
101,101,0.018542325185780473,0.0,1.0,1.0,371.0,818.0,1.0,1,-319.0,1
102,102,0.15423455732606184,0.2,0.0,0.0,423.0,579.0,1.0,0,3998.0,0
103,103,0.7910797602315217,0.8,0.0,0.0,472.0,724.0,0.0,1,774.0,1
104,104,0.5397610295825924,0.5,0.0,0.0,404.0,773.0,0.0,1,1073.0,1
105,105,0.7729080801067382,0.8,0.0,0.0,261.0,743.0,0.0,1,316.0,1
106,106,0.5197877147310551,0.5,1.0,1.0,372.0,511.0,1.0,1,167.0,1
107,107,0.5576498498928587,0.6,1.0,1.0,403.0,577.0,1.0,1,50.0,1
108,108,-0.8360901587175801,-0.8,0.0,1.0,293.0,600.0,1.0,0,277.0,1
109,109,-0.08315751401444438,-0.1,0.0,1.0,471.0,817.0,1.0,0,-118.0,1
110,110,-0.2169620669769443,-0.2,1.0,0.0,481.0,518.0,0.0,0,2881.0,1
111,111,-0.39370885880700224,-0.4,1.0,0.0,430.0,915.0,0.0,0,1775.0,1
112,112,0.2908388244323571,0.3,0.0,0.0,372.0,563.0,1.0,0,-215.0,0
113,113,0.8996870222134675,0.9,1.0,1.0,361.0,646.0,1.0,1,343.0,1
114,114,-0.6088009057736856,-0.6,1.0,0.0,352.0,590.0,0.0,0,1068.0,1
115,115,0.09700516999810882,0.1,0.0,0.0,366.0,508.0,1.0,0,4126.0,0
116,116,0.2162789597959579,0.2,1.0,1.0,437.0,678.0,1.0,1,645.0,1
117,117,-0.24119358510894628,-0.2,0.0,1.0,439.0,847.0,1.0,0,184.0,1
118,118,0.016694474897912426,0.0,1.0,1.0,255.0,843.0,1.0,1,1202.0,1
119,119,0.38314179715388186,0.4,1.0,1.0,383.0,975.0,1.0,1,282.0,1
120,120,0.23297132485153094,0.2,0.0,0.0,435.0,618.0,0.0,1,2037.0,1
121,121,-0.40322342843206294,-0.4,0.0,1.0,373.0,760.0,1.0,0,417.0,1
122,122,0.13130501492673974,0.1,1.0,1.0,380.0,605.0,1.0,1,775.0,1
123,123,-0.4456452425176868,-0.4,1.0,0.0,458.0,879.0,0.0,0,703.0,1
124,124,0.49859182489766807,0.5,1.0,1.0,266.0,526.0,1.0,1,58.0,1
125,125,0.8909676576165065,0.9,0.0,0.0,286.0,844.0,0.0,1,410.0,1
126,126,-0.5124555246482085,-0.5,0.0,1.0,440.0,765.0,1.0,0,-415.0,1
127,127,0.590882665788021,0.6,1.0,1.0,264.0,923.0,1.0,1,173.0,1
128,128,-0.8625392376898242,-0.9,0.0,1.0,270.0,975.0,1.0,0,135.0,1
129,129,0.14210975238821366,0.1,0.0,0.0,389.0,877.0,1.0,0,-186.0,0
130,130,0.714058401847936,0.7,0.0,0.0,292.0,595.0,0.0,1,453.0,1
131,131,-0.7923738124251871,-0.8,1.0,0.0,353.0,630.0,0.0,0,1457.0,1
132,132,0.69890480217482,0.7,1.0,1.0,358.0,931.0,1.0,1,901.0,1
133,133,-0.6254609211846138,-0.6,1.0,0.0,396.0,590.0,0.0,0,4014.0,1
134,134,0.7878219539446746,0.8,0.0,0.0,264.0,920.0,0.0,1,656.0,1
135,135,0.10478679396658042,0.1,1.0,1.0,491.0,691.0,1.0,1,898.0,1
136,136,0.5785771697588143,0.6,0.0,0.0,372.0,997.0,0.0,1,1211.0,1
137,137,-0.21132700139095706,-0.2,0.0,1.0,324.0,651.0,1.0,0,675.0,1
138,138,0.0105760677112825,0.0,1.0,1.0,442.0,727.0,1.0,1,1851.0,1
139,139,-0.5332901195328651,-0.5,1.0,0.0,497.0,649.0,0.0,0,764.0,1
140,140,0.8625270169718856,0.9,0.0,0.0,380.0,987.0,0.0,1,3633.0,1
141,141,-0.1106459757316901,-0.1,1.0,0.0,425.0,880.0,1.0,1,-325.0,0
142,142,-0.4634787966152423,-0.5,0.0,1.0,432.0,555.0,1.0,0,103.0,1
143,143,0.14899740424971253,0.1,0.0,0.0,266.0,602.0,0.0,1,1122.0,1
144,144,0.16491889615476263,0.2,1.0,1.0,481.0,868.0,1.0,1,641.0,1
145,145,-0.563043623593767,-0.6,1.0,0.0,287.0,897.0,0.0,0,626.0,1
146,146,-0.2536191857001089,-0.3,1.0,0.0,404.0,858.0,0.0,0,3738.0,1
147,147,-0.4247345860271034,-0.4,1.0,0.0,329.0,763.0,0.0,0,2478.0,1
148,148,0.8274509071312476,0.8,0.0,0.0,471.0,627.0,0.0,1,312.0,1
149,149,-0.52431190779608,-0.5,1.0,0.0,422.0,887.0,0.0,0,771.0,1
150,150,0.48459112157202344,0.5,1.0,1.0,253.0,969.0,1.0,1,358.0,1
151,151,0.870055581299166,0.9,1.0,1.0,314.0,586.0,1.0,1,320.0,1
152,152,-0.3940494942894197,-0.4,1.0,0.0,268.0,897.0,0.0,0,1975.0,1
153,153,-0.7272916068546114,-0.7,0.0,1.0,357.0,667.0,1.0,0,56.0,1
154,154,-0.6255051365922359,-0.6,1.0,0.0,433.0,677.0,0.0,0,1050.0,1
155,155,0.3154172773411391,0.3,1.0,1.0,347.0,599.0,1.0,1,334.0,1
156,156,-0.45737359597193034,-0.5,1.0,0.0,489.0,808.0,0.0,0,833.0,1
157,157,0.7804437667102387,0.8,0.0,0.0,299.0,919.0,0.0,1,252.0,1
158,158,-0.8341126050798273,-0.8,0.0,1.0,377.0,852.0,1.0,0,141.0,1
159,159,0.41920312242773095,0.4,0.0,0.0,483.0,664.0,0.0,1,1173.0,1
160,160,0.7198508113859742,0.7,1.0,1.0,293.0,980.0,1.0,1,-33.0,1
161,161,-0.28475744113229984,-0.3,1.0,0.0,353.0,742.0,1.0,1,-335.0,0
162,162,0.680613371205738,0.7,0.0,0.0,395.0,643.0,1.0,0,-278.0,0
163,163,-0.09073660955112484,-0.1,0.0,1.0,257.0,990.0,1.0,0,693.0,1
164,164,-0.3609340265075226,-0.4,1.0,0.0,263.0,754.0,0.0,0,2693.0,1
165,165,-0.7825380588235697,-0.8,0.0,1.0,444.0,728.0,1.0,0,248.0,1
166,166,-0.7464397228973878,-0.7,0.0,1.0,395.0,813.0,1.0,0,372.0,1
167,167,0.3277792411552244,0.3,1.0,1.0,262.0,590.0,1.0,1,378.0,1
168,168,-0.43855247507112,-0.4,0.0,1.0,293.0,783.0,1.0,0,284.0,1
169,169,0.3779025467683702,0.4,1.0,1.0,298.0,542.0,1.0,1,350.0,1
170,170,-0.2983069091531636,-0.3,0.0,1.0,422.0,725.0,1.0,0,223.0,1
171,171,0.6414882886818373,0.6,1.0,1.0,346.0,802.0,1.0,1,182.0,1
172,172,-0.7423782703115779,-0.7,1.0,0.0,265.0,866.0,0.0,0,799.0,1
173,173,0.15392781551577672,0.2,1.0,1.0,346.0,579.0,1.0,1,185.0,1
174,174,-0.4308620195697054,-0.4,0.0,1.0,342.0,921.0,1.0,0,487.0,1
175,175,0.3068738038495301,0.3,0.0,0.0,283.0,549.0,0.0,1,3248.0,1
176,176,0.5028830455787109,0.5,0.0,0.0,401.0,836.0,0.0,1,323.0,1
177,177,0.3272173104333863,0.3,1.0,1.0,496.0,916.0,1.0,1,18.0,1
178,178,-0.8152072959539328,-0.8,1.0,0.0,296.0,910.0,0.0,0,684.0,1
179,179,0.20188390064709283,0.2,1.0,1.0,360.0,849.0,1.0,1,211.0,1
180,180,0.34032874120165724,0.3,1.0,1.0,346.0,534.0,1.0,1,810.0,1
181,181,-0.1362262613850156,-0.1,1.0,0.0,257.0,521.0,1.0,1,1742.0,0
182,182,0.6064690597417358,0.6,1.0,1.0,418.0,550.0,1.0,1,372.0,1
183,183,-0.041043492642867996,-0.0,0.0,1.0,427.0,632.0,1.0,0,191.0,1
184,184,-0.6323034605489495,-0.6,1.0,0.0,281.0,694.0,0.0,0,1125.0,1
185,185,0.7321932265157901,0.7,1.0,1.0,396.0,822.0,1.0,1,132.0,1
186,186,0.7186946151377102,0.7,1.0,1.0,343.0,538.0,1.0,1,819.0,1
187,187,-0.8491808651367385,-0.8,0.0,1.0,324.0,649.0,1.0,0,-323.0,1
188,188,-0.6868388597623777,-0.7,0.0,1.0,319.0,639.0,1.0,0,242.0,1
189,189,0.32245493529478,0.3,1.0,1.0,267.0,599.0,1.0,1,194.0,1
190,190,0.449128649751246,0.4,0.0,0.0,321.0,688.0,0.0,1,1781.0,1
191,191,0.5845907349802942,0.6,0.0,0.0,327.0,791.0,0.0,1,2742.0,1
192,192,0.27020952550758015,0.3,0.0,0.0,495.0,651.0,0.0,1,2844.0,1
193,193,0.43082769356451955,0.4,0.0,0.0,395.0,914.0,0.0,1,701.0,1
194,194,0.27103953048949847,0.3,0.0,0.0,476.0,802.0,1.0,0,-128.0,0
195,195,-0.39542483666704487,-0.4,1.0,0.0,425.0,765.0,0.0,0,920.0,1
196,196,-0.676047978574876,-0.7,1.0,0.0,305.0,806.0,0.0,0,389.0,1
197,197,0.1279638946656586,0.1,0.0,0.0,470.0,854.0,0.0,1,3676.0,1
198,198,0.8218062463212933,0.8,1.0,1.0,257.0,523.0,1.0,1,410.0,1
199,199,0.7871059403638049,0.8,0.0,0.0,492.0,788.0,0.0,1,600.0,1
200,200,0.017575481309159313,0.0,0.0,0.0,469.0,992.0,1.0,0,739.0,0
201,201,0.3999826466808266,0.4,1.0,1.0,323.0,762.0,1.0,1,335.0,1
202,202,-0.11017594657290442,-0.1,1.0,0.0,484.0,691.0,1.0,1,255.0,0
203,203,-0.39153714086112246,-0.4,0.0,1.0,452.0,611.0,1.0,0,387.0,1
204,204,-0.33364295550390566,-0.3,0.0,1.0,362.0,960.0,1.0,0,68.0,1
205,205,0.22091606834422184,0.2,0.0,0.0,367.0,724.0,0.0,1,2129.0,1
206,206,0.1259432583890131,0.1,1.0,1.0,497.0,590.0,1.0,1,353.0,1
207,207,0.22144153054282245,0.2,1.0,1.0,253.0,634.0,1.0,1,533.0,1
208,208,-0.7415964259179492,-0.7,1.0,0.0,253.0,878.0,0.0,0,639.0,1
209,209,-0.4299845540904755,-0.4,1.0,0.0,468.0,730.0,0.0,0,842.0,1
210,210,0.028405759128236063,0.0,1.0,1.0,358.0,578.0,1.0,1,1114.0,1
211,211,0.8991384382092341,0.9,1.0,1.0,343.0,972.0,1.0,1,65.0,1
212,212,-0.17663192088087443,-0.2,0.0,1.0,272.0,712.0,1.0,0,76.0,1
213,213,-0.3103253057383655,-0.3,0.0,1.0,265.0,876.0,1.0,0,-101.0,1
214,214,-0.3541123889922657,-0.4,0.0,1.0,485.0,722.0,1.0,0,153.0,1
215,215,-0.8252853470690041,-0.8,1.0,0.0,300.0,622.0,0.0,0,958.0,1
216,216,0.5248914185712695,0.5,1.0,1.0,467.0,640.0,1.0,1,73.0,1
217,217,0.6528495950544643,0.7,1.0,1.0,497.0,950.0,1.0,1,233.0,1
218,218,-0.2017120568434656,-0.2,1.0,0.0,499.0,886.0,0.0,0,3615.0,1
219,219,0.002652975229992971,0.0,1.0,1.0,301.0,823.0,1.0,1,1596.0,1
220,220,-0.36339388414285545,-0.4,0.0,1.0,465.0,614.0,1.0,0,551.0,1
221,221,0.30300623388189896,0.3,0.0,0.0,356.0,813.0,0.0,1,591.0,1
222,222,-0.13124514242004648,-0.1,0.0,1.0,301.0,650.0,1.0,0,609.0,1
223,223,0.8420290199392059,0.8,0.0,0.0,317.0,507.0,0.0,1,826.0,1
224,224,0.6558079397726563,0.7,0.0,0.0,388.0,540.0,0.0,1,832.0,1
225,225,0.5815042618115341,0.6,1.0,1.0,308.0,925.0,1.0,1,337.0,1
226,226,0.7226227379374633,0.7,1.0,1.0,300.0,736.0,1.0,1,174.0,1
227,227,-0.8379339676208504,-0.8,1.0,0.0,396.0,916.0,0.0,0,998.0,1
228,228,-0.14001265312558875,-0.1,0.0,1.0,405.0,717.0,1.0,0,1088.0,1
229,229,0.25465842331598576,0.3,1.0,1.0,311.0,541.0,1.0,1,418.0,1
230,230,0.40442682402377683,0.4,0.0,0.0,435.0,972.0,0.0,1,843.0,1
231,231,0.2913006240369861,0.3,1.0,1.0,471.0,653.0,1.0,1,76.0,1
232,232,0.15150409433181478,0.2,1.0,1.0,429.0,921.0,1.0,1,530.0,1
233,233,-0.62613588225031,-0.6,1.0,0.0,288.0,669.0,0.0,0,1973.0,1
234,234,0.48176451074402593,0.5,1.0,1.0,280.0,861.0,1.0,1,469.0,1
235,235,-0.7791260049762639,-0.8,1.0,0.0,330.0,994.0,0.0,0,946.0,1
236,236,0.6928382913657299,0.7,0.0,0.0,396.0,683.0,0.0,1,481.0,1
237,237,-0.5794717430258549,-0.6,1.0,0.0,454.0,729.0,0.0,0,1207.0,1
238,238,-0.04391743148162941,-0.0,1.0,0.0,370.0,747.0,1.0,1,-327.0,0
239,239,-0.602535425287423,-0.6,0.0,1.0,398.0,944.0,1.0,0,138.0,1
240,240,-0.1762741401185972,-0.2,1.0,0.0,417.0,593.0,0.0,0,2690.0,1
241,241,0.04393532431462044,0.0,1.0,1.0,418.0,970.0,1.0,1,312.0,1
242,242,-0.2703723160296879,-0.3,0.0,1.0,381.0,509.0,1.0,0,650.0,1
243,243,-0.3731288176871558,-0.4,0.0,1.0,264.0,508.0,1.0,0,548.0,1
244,244,0.7560225353077615,0.8,0.0,0.0,347.0,713.0,0.0,1,410.0,1
245,245,-0.4803131790572754,-0.5,0.0,1.0,270.0,972.0,1.0,0,568.0,1
246,246,0.053970135769461525,0.1,0.0,0.0,388.0,891.0,1.0,0,1061.0,0
247,247,0.46442432943907763,0.5,0.0,0.0,482.0,561.0,0.0,1,527.0,1
248,248,-0.8829115698879508,-0.9,1.0,0.0,266.0,567.0,0.0,0,547.0,1
249,249,-0.30590290894032424,-0.3,0.0,1.0,278.0,632.0,1.0,0,390.0,1
250,250,-0.2741665984525383,-0.3,0.0,1.0,441.0,563.0,1.0,0,156.0,1
251,251,-0.16455287634441795,-0.2,0.0,1.0,329.0,837.0,1.0,0,544.0,1
252,252,0.19541361027861182,0.2,0.0,0.0,302.0,912.0,1.0,0,-204.0,0
253,253,0.6761906678040387,0.7,1.0,1.0,499.0,740.0,1.0,1,271.0,1
254,254,0.27304850268928693,0.3,0.0,0.0,418.0,843.0,0.0,1,2639.0,1
255,255,-0.54214039616721,-0.5,1.0,0.0,396.0,560.0,0.0,0,1304.0,1
256,256,0.7924085737770815,0.8,0.0,0.0,446.0,634.0,0.0,1,270.0,1
257,257,0.5381704204692906,0.5,1.0,1.0,256.0,993.0,1.0,1,361.0,1
258,258,0.13350076597093807,0.1,0.0,0.0,454.0,623.0,1.0,0,3923.0,0
259,259,-0.5019935795354169,-0.5,0.0,1.0,332.0,636.0,1.0,0,152.0,1
260,260,0.8460765839476984,0.8,1.0,1.0,340.0,744.0,1.0,1,196.0,1
261,261,0.8644282260036767,0.9,1.0,1.0,291.0,636.0,1.0,1,233.0,1
262,262,0.17714021638142163,0.2,1.0,1.0,466.0,533.0,1.0,1,501.0,1
263,263,-0.38313641761580797,-0.4,0.0,1.0,346.0,573.0,1.0,0,211.0,1
264,264,-0.2709861868285134,-0.3,0.0,1.0,346.0,970.0,1.0,0,474.0,1
265,265,-0.29860347444349167,-0.3,0.0,1.0,281.0,935.0,1.0,0,124.0,1
266,266,0.8900171096124226,0.9,0.0,0.0,310.0,695.0,1.0,0,-285.0,0
267,267,0.8620889402511874,0.9,1.0,1.0,409.0,794.0,1.0,1,417.0,1
268,268,0.617338417798282,0.6,0.0,0.0,298.0,803.0,0.0,1,1019.0,1
269,269,0.39424122406791084,0.4,1.0,1.0,488.0,578.0,1.0,1,204.0,1
270,270,-0.3149323573020266,-0.3,0.0,1.0,281.0,985.0,1.0,0,224.0,1
271,271,0.14709498184835013,0.1,1.0,1.0,327.0,952.0,1.0,1,401.0,1
272,272,-0.11288449419880964,-0.1,0.0,1.0,258.0,597.0,1.0,0,395.0,1
273,273,-0.2752563120499706,-0.3,0.0,1.0,301.0,992.0,1.0,0,-53.0,1
274,274,-0.661326073776991,-0.7,1.0,0.0,340.0,983.0,0.0,0,957.0,1
275,275,-0.6841540053657307,-0.7,1.0,0.0,439.0,975.0,0.0,0,516.0,1
276,276,0.27327692866369613,0.3,0.0,0.0,357.0,539.0,0.0,1,3364.0,1
277,277,0.07412840462762582,0.1,0.0,0.0,323.0,961.0,1.0,0,86.0,0
278,278,-0.44205633175643744,-0.4,0.0,1.0,487.0,760.0,1.0,0,143.0,1
279,279,0.09987199069950004,0.1,0.0,0.0,425.0,737.0,1.0,0,428.0,0
280,280,0.38413285886583914,0.4,0.0,0.0,474.0,717.0,0.0,1,649.0,1
281,281,0.8470301933592946,0.8,0.0,0.0,331.0,883.0,0.0,1,266.0,1
282,282,-0.05065844930805108,-0.1,0.0,1.0,303.0,990.0,1.0,0,-523.0,1
283,283,0.49238049113941706,0.5,1.0,1.0,328.0,932.0,1.0,1,310.0,1
284,284,0.4983454108896609,0.5,0.0,0.0,374.0,888.0,1.0,0,-182.0,0
285,285,0.08409233433801566,0.1,0.0,0.0,263.0,819.0,1.0,0,-52.0,0
286,286,0.41845203640188233,0.4,1.0,1.0,302.0,999.0,1.0,1,369.0,1
287,287,0.042586779716128675,0.0,1.0,1.0,460.0,826.0,0.0,0,254.0,0
288,288,0.48980547133628083,0.5,0.0,0.0,289.0,578.0,0.0,1,1493.0,1
289,289,0.3507844251762172,0.4,1.0,1.0,446.0,507.0,1.0,1,567.0,1
290,290,-0.3806358165678949,-0.4,0.0,1.0,373.0,509.0,1.0,0,518.0,1
291,291,-0.7975832736427252,-0.8,0.0,1.0,442.0,588.0,1.0,0,230.0,1
292,292,-0.3448313359384392,-0.3,1.0,0.0,399.0,903.0,0.0,0,3058.0,1
293,293,0.7532460909162347,0.8,1.0,1.0,457.0,708.0,1.0,1,275.0,1
294,294,-0.8235059339610085,-0.8,1.0,0.0,432.0,701.0,0.0,0,737.0,1
295,295,-0.2983382152848504,-0.3,1.0,0.0,298.0,679.0,0.0,0,3563.0,1
296,296,0.4770463351039135,0.5,0.0,0.0,493.0,772.0,0.0,1,1215.0,1
297,297,-0.14632075276458778,-0.1,1.0,0.0,374.0,966.0,0.0,0,3660.0,1
298,298,-0.7437034685703182,-0.7,0.0,1.0,499.0,526.0,1.0,0,105.0,1
299,299,0.3808707030147377,0.4,1.0,1.0,493.0,977.0,1.0,1,-210.0,1
300,300,0.1434223512167837,0.1,1.0,1.0,496.0,970.0,1.0,1,124.0,1
301,301,0.33602875944792576,0.3,1.0,1.0,450.0,779.0,1.0,1,431.0,1
302,302,0.024858537734778086,0.0,0.0,0.0,324.0,571.0,1.0,0,965.0,0
303,303,0.2869668003829299,0.3,0.0,0.0,370.0,637.0,0.0,1,743.0,1
304,304,-0.47478407692618974,-0.5,1.0,0.0,296.0,922.0,0.0,0,1362.0,1
305,305,-0.44732364477153125,-0.4,0.0,1.0,386.0,527.0,1.0,0,307.0,1
306,306,0.3194181725906958,0.3,0.0,0.0,446.0,665.0,0.0,1,1049.0,1
307,307,0.1392714997890222,0.1,1.0,1.0,437.0,794.0,1.0,1,-171.0,1
308,308,-0.7746276527566498,-0.8,1.0,0.0,428.0,641.0,0.0,0,1171.0,1
309,309,0.25468365373303203,0.3,0.0,0.0,390.0,781.0,1.0,0,3359.0,0
310,310,0.7873847038120166,0.8,0.0,0.0,453.0,929.0,0.0,1,328.0,1
311,311,-0.4700571557860598,-0.5,0.0,1.0,440.0,595.0,1.0,0,305.0,1
312,312,0.518815071983275,0.5,0.0,0.0,405.0,544.0,0.0,1,431.0,1
313,313,0.27106236584597465,0.3,1.0,1.0,338.0,811.0,1.0,1,741.0,1
314,314,-0.08312614462530832,-0.1,0.0,1.0,322.0,972.0,1.0,0,366.0,1
315,315,-0.10730238374912504,-0.1,0.0,1.0,267.0,846.0,1.0,0,927.0,1
316,316,-0.3920170297887191,-0.4,1.0,0.0,377.0,754.0,0.0,0,519.0,1
317,317,-0.6081591091950231,-0.6,1.0,0.0,338.0,586.0,0.0,0,666.0,1
318,318,0.858718051897052,0.9,0.0,0.0,253.0,953.0,1.0,0,-136.0,0
319,319,0.7943101418593795,0.8,1.0,1.0,498.0,743.0,1.0,1,469.0,1
320,320,0.7874652412461608,0.8,1.0,1.0,371.0,719.0,1.0,1,140.0,1
321,321,-0.2970870683909971,-0.3,1.0,0.0,426.0,637.0,0.0,0,2797.0,1
322,322,0.43672178403357076,0.4,0.0,0.0,368.0,798.0,0.0,1,2384.0,1
323,323,0.5409705501914114,0.5,1.0,1.0,385.0,529.0,1.0,1,256.0,1
324,324,-0.2332306000543226,-0.2,0.0,1.0,483.0,929.0,1.0,0,58.0,1
325,325,0.6309494777409931,0.6,0.0,0.0,263.0,711.0,0.0,1,536.0,1
326,326,0.16615429282886518,0.2,0.0,0.0,363.0,681.0,0.0,1,1026.0,1
327,327,-0.8714502544347233,-0.9,0.0,1.0,427.0,890.0,1.0,0,613.0,1
328,328,-0.48510005526330907,-0.5,1.0,0.0,251.0,672.0,0.0,0,547.0,1
329,329,0.23965813845984363,0.2,0.0,0.0,446.0,911.0,0.0,1,893.0,1
330,330,0.21066205932345328,0.2,0.0,0.0,436.0,550.0,0.0,1,3944.0,1
331,331,-0.023943095764692335,-0.0,1.0,0.0,333.0,557.0,1.0,1,370.0,0
332,332,-0.7344391974601172,-0.7,0.0,1.0,492.0,737.0,1.0,0,281.0,1
333,333,0.23606309344934118,0.2,1.0,1.0,396.0,718.0,1.0,1,596.0,1
334,334,0.43455364162196586,0.4,1.0,1.0,490.0,689.0,1.0,1,381.0,1
335,335,-0.004689535724356264,-0.0,1.0,0.0,386.0,928.0,1.0,1,2976.0,0
336,336,0.6239741879481561,0.6,1.0,1.0,275.0,854.0,1.0,1,241.0,1
337,337,-0.804230228117469,-0.8,0.0,1.0,422.0,955.0,1.0,0,833.0,1
338,338,0.721046184790561,0.7,1.0,1.0,400.0,781.0,1.0,1,329.0,1
339,339,0.42828908505070984,0.4,1.0,1.0,289.0,964.0,1.0,1,-33.0,1
340,340,0.6233464487337811,0.6,0.0,0.0,342.0,803.0,1.0,0,-35.0,0
341,341,-0.03363133553629449,-0.0,0.0,1.0,324.0,791.0,1.0,0,95.0,1
342,342,0.16660455809360453,0.2,0.0,0.0,466.0,699.0,1.0,0,2395.0,0
343,343,-0.6649650871048106,-0.7,1.0,0.0,346.0,993.0,0.0,0,2371.0,1
344,344,-0.3406081194811026,-0.3,1.0,0.0,399.0,883.0,0.0,0,2758.0,1
345,345,-0.21798156982249817,-0.2,0.0,1.0,496.0,659.0,1.0,0,-295.0,1
346,346,0.41057994143395404,0.4,1.0,1.0,481.0,824.0,1.0,1,15.0,1
347,347,0.5898641747176744,0.6,1.0,1.0,386.0,531.0,1.0,1,973.0,1
348,348,0.1515414969436274,0.2,0.0,0.0,496.0,996.0,1.0,0,18.0,0
349,349,0.467038537977048,0.5,0.0,0.0,430.0,759.0,0.0,1,1001.0,1
350,350,0.44201729496850206,0.4,1.0,1.0,372.0,604.0,1.0,1,-86.0,1
351,351,-0.045344470556173744,-0.0,1.0,0.0,410.0,529.0,1.0,1,3351.0,0
352,352,-0.7212988977415664,-0.7,0.0,1.0,258.0,689.0,1.0,0,93.0,1
353,353,0.6105367665775842,0.6,1.0,1.0,472.0,672.0,1.0,1,836.0,1
354,354,-0.8450131850261903,-0.8,1.0,0.0,421.0,621.0,0.0,0,458.0,1
355,355,0.038420032499759005,0.0,1.0,1.0,276.0,925.0,1.0,1,-31.0,1
356,356,0.3015246267861452,0.3,0.0,0.0,340.0,665.0,0.0,1,1325.0,1
357,357,-0.7825283232146732,-0.8,1.0,0.0,406.0,791.0,1.0,1,-337.0,0
358,358,-0.23794834619865024,-0.2,1.0,0.0,323.0,896.0,1.0,1,-49.0,0
359,359,0.3228188574147667,0.3,0.0,0.0,250.0,597.0,0.0,1,1463.0,1
360,360,0.4095774262830588,0.4,0.0,0.0,399.0,534.0,0.0,1,467.0,1
361,361,0.8699914638799854,0.9,1.0,1.0,428.0,912.0,1.0,1,270.0,1
362,362,-0.38546384893811825,-0.4,0.0,1.0,477.0,591.0,1.0,0,222.0,1
363,363,-0.3693642109102716,-0.4,1.0,0.0,341.0,724.0,0.0,0,1345.0,1
364,364,0.5507934997789731,0.6,1.0,1.0,316.0,790.0,1.0,1,564.0,1
365,365,-0.7321810809196019,-0.7,1.0,0.0,499.0,907.0,0.0,0,764.0,1
366,366,-0.7920617289292816,-0.8,0.0,1.0,439.0,654.0,1.0,0,267.0,1
367,367,0.07508603021287374,0.1,0.0,0.0,325.0,927.0,1.0,0,1118.0,0
368,368,0.5742288829321204,0.6,1.0,1.0,475.0,644.0,1.0,1,311.0,1
369,369,0.0440591387932574,0.0,1.0,1.0,472.0,513.0,1.0,1,1085.0,1
370,370,0.753285617863111,0.8,0.0,0.0,380.0,694.0,0.0,1,2196.0,1
371,371,0.5926333361709767,0.6,1.0,1.0,303.0,593.0,1.0,1,64.0,1
372,372,0.39345773736254175,0.4,1.0,1.0,322.0,764.0,1.0,1,214.0,1
373,373,0.015952013886449623,0.0,1.0,1.0,347.0,567.0,0.0,0,4086.0,0
374,374,0.32498001454780356,0.3,1.0,1.0,455.0,704.0,1.0,1,171.0,1
375,375,0.5606797727307916,0.6,1.0,1.0,369.0,530.0,1.0,1,241.0,1
376,376,-0.28175577823761544,-0.3,0.0,1.0,412.0,797.0,1.0,0,141.0,1
377,377,0.645785347035691,0.6,0.0,0.0,435.0,532.0,0.0,1,333.0,1
378,378,-0.6967935922702352,-0.7,0.0,1.0,446.0,716.0,1.0,0,188.0,1
379,379,-0.8524435697041645,-0.9,1.0,0.0,406.0,883.0,0.0,0,291.0,1
380,380,-0.47638467840830234,-0.5,0.0,1.0,279.0,771.0,1.0,0,610.0,1
381,381,0.6629638576505131,0.7,1.0,1.0,411.0,560.0,1.0,1,59.0,1
382,382,0.6566722533771002,0.7,1.0,1.0,489.0,973.0,1.0,1,258.0,1
383,383,0.29735035629223383,0.3,0.0,0.0,374.0,932.0,0.0,1,1724.0,1
384,384,-0.6701882998072827,-0.7,0.0,1.0,300.0,730.0,1.0,0,190.0,1
385,385,-0.3590617817944437,-0.4,1.0,0.0,471.0,968.0,0.0,0,781.0,1
386,386,-0.17786709931889788,-0.2,0.0,1.0,275.0,801.0,1.0,0,34.0,1
387,387,0.2526121397201343,0.3,0.0,0.0,466.0,904.0,0.0,1,1740.0,1
388,388,0.7220460901782219,0.7,1.0,1.0,267.0,646.0,1.0,1,137.0,1
389,389,0.5106136692468625,0.5,0.0,0.0,312.0,982.0,0.0,1,366.0,1
390,390,-0.2090812258474951,-0.2,1.0,0.0,332.0,955.0,0.0,0,3713.0,1
391,391,-0.38596749200986447,-0.4,1.0,0.0,451.0,786.0,1.0,1,-377.0,0
392,392,-0.7889270442188394,-0.8,0.0,1.0,403.0,541.0,1.0,0,276.0,1
393,393,0.6625263396215265,0.7,0.0,0.0,313.0,670.0,0.0,1,207.0,1
394,394,-0.6236494526478762,-0.6,0.0,1.0,251.0,587.0,1.0,0,112.0,1
395,395,-0.26077122100208694,-0.3,1.0,0.0,348.0,981.0,0.0,0,1011.0,1
396,396,-0.8028791310871738,-0.8,1.0,0.0,481.0,501.0,0.0,0,578.0,1
397,397,0.5074964815215962,0.5,0.0,0.0,408.0,933.0,0.0,1,849.0,1
398,398,-0.04186231305542942,-0.0,0.0,1.0,281.0,581.0,1.0,0,658.0,1
399,399,-0.6638113065508062,-0.7,1.0,0.0,349.0,996.0,0.0,0,455.0,1
400,400,-0.12079183504853352,-0.1,0.0,1.0,389.0,588.0,1.0,0,203.0,1
401,401,0.7090192200077686,0.7,0.0,0.0,279.0,503.0,0.0,1,3908.0,1
402,402,0.41367330578687567,0.4,1.0,1.0,488.0,812.0,1.0,1,580.0,1
403,403,-0.639277252101607,-0.6,0.0,1.0,252.0,509.0,1.0,0,249.0,1
404,404,-0.45624401674096515,-0.5,1.0,0.0,282.0,676.0,1.0,1,62.0,0
405,405,-0.3073728047156412,-0.3,1.0,0.0,329.0,753.0,0.0,0,688.0,1
406,406,-0.14405534189579172,-0.1,0.0,1.0,470.0,689.0,1.0,0,1141.0,1
407,407,0.325349931651883,0.3,1.0,1.0,322.0,764.0,1.0,1,344.0,1
408,408,-0.510212191570769,-0.5,0.0,1.0,304.0,532.0,1.0,0,494.0,1
409,409,-0.06642782375979772,-0.1,1.0,0.0,489.0,988.0,1.0,1,1723.0,0
410,410,-0.6067475350236966,-0.6,0.0,1.0,260.0,833.0,1.0,0,137.0,1
411,411,0.03128539416706255,0.0,0.0,0.0,337.0,724.0,0.0,1,669.0,1
412,412,0.2810073022605363,0.3,1.0,1.0,329.0,567.0,1.0,1,844.0,1
413,413,-0.5024130774639957,-0.5,0.0,1.0,399.0,909.0,1.0,0,-38.0,1
414,414,0.24308965053207732,0.2,0.0,0.0,250.0,704.0,0.0,1,1116.0,1
415,415,0.11437786829312568,0.1,1.0,1.0,485.0,982.0,1.0,1,433.0,1
416,416,-0.6703967925825276,-0.7,1.0,0.0,303.0,868.0,0.0,0,2759.0,1
417,417,-0.22781394202325467,-0.2,1.0,0.0,289.0,736.0,0.0,0,3975.0,1
418,418,-0.564699141230706,-0.6,1.0,0.0,301.0,859.0,0.0,0,170.0,1
419,419,-0.459142744773763,-0.5,1.0,0.0,285.0,930.0,0.0,0,715.0,1
420,420,0.34052620634928277,0.3,1.0,1.0,367.0,545.0,1.0,1,1008.0,1
421,421,0.27386639132790125,0.3,0.0,0.0,284.0,641.0,0.0,1,1545.0,1
422,422,-0.799480927156646,-0.8,0.0,1.0,389.0,843.0,1.0,0,-42.0,1
423,423,0.839784711290053,0.8,1.0,1.0,296.0,956.0,1.0,1,308.0,1
424,424,0.09269915498067882,0.1,0.0,0.0,314.0,988.0,0.0,1,3698.0,1
425,425,0.30934648635330475,0.3,1.0,1.0,393.0,671.0,1.0,1,826.0,1
426,426,0.5144223650499115,0.5,1.0,1.0,478.0,764.0,1.0,1,-362.0,1
427,427,-0.29778280589461603,-0.3,0.0,1.0,320.0,763.0,1.0,0,357.0,1
428,428,0.8654962292183129,0.9,0.0,0.0,443.0,742.0,1.0,0,-285.0,0
429,429,0.4483591450739154,0.4,1.0,1.0,324.0,920.0,1.0,1,-54.0,1
430,430,-0.017398748191017832,-0.0,0.0,1.0,267.0,891.0,1.0,0,-48.0,1
431,431,-0.5106026444804477,-0.5,0.0,1.0,262.0,751.0,1.0,0,27.0,1
432,432,-0.7907549249899714,-0.8,0.0,1.0,337.0,765.0,1.0,0,-2.0,1
433,433,0.7895356563281389,0.8,1.0,1.0,383.0,891.0,1.0,1,306.0,1
434,434,-0.741112601993456,-0.7,1.0,0.0,258.0,685.0,0.0,0,567.0,1
435,435,0.01841096704431089,0.0,1.0,1.0,334.0,575.0,1.0,1,811.0,1
436,436,-0.5030905418946956,-0.5,0.0,1.0,360.0,757.0,1.0,0,183.0,1
437,437,0.8672526664956616,0.9,0.0,0.0,445.0,766.0,0.0,1,739.0,1
438,438,0.14811983289257202,0.1,0.0,0.0,264.0,730.0,0.0,1,4006.0,1
439,439,-0.25835918756723486,-0.3,1.0,0.0,348.0,595.0,0.0,0,897.0,1
440,440,-0.3414114703546275,-0.3,0.0,1.0,483.0,689.0,1.0,0,508.0,1
441,441,0.2550785490604487,0.3,0.0,0.0,460.0,595.0,0.0,1,3065.0,1
442,442,-0.8536376305416458,-0.9,1.0,0.0,260.0,763.0,1.0,1,-123.0,0
443,443,-0.6947951747335402,-0.7,0.0,1.0,377.0,920.0,1.0,0,183.0,1
444,444,-0.32254288675917364,-0.3,0.0,1.0,347.0,786.0,1.0,0,297.0,1
445,445,0.7839705920309804,0.8,1.0,1.0,282.0,595.0,1.0,1,123.0,1
446,446,0.19212851028346234,0.2,0.0,0.0,310.0,765.0,0.0,1,3925.0,1
447,447,-0.15055191975725823,-0.2,1.0,0.0,442.0,692.0,1.0,1,2616.0,0
448,448,0.8547196325355878,0.9,0.0,0.0,464.0,655.0,0.0,1,691.0,1
449,449,-0.6672390265862526,-0.7,1.0,0.0,325.0,614.0,0.0,0,331.0,1
450,450,0.2195421877769389,0.2,1.0,1.0,412.0,930.0,1.0,1,508.0,1
451,451,0.7990328266114958,0.8,1.0,1.0,456.0,717.0,1.0,1,37.0,1
452,452,0.24466293671660855,0.2,0.0,0.0,315.0,815.0,1.0,0,70.0,0
453,453,0.3922535474077983,0.4,0.0,0.0,491.0,953.0,0.0,1,596.0,1
454,454,-0.22320095904371506,-0.2,1.0,0.0,287.0,838.0,0.0,0,1645.0,1
455,455,-0.3328737435356184,-0.3,1.0,0.0,347.0,619.0,0.0,0,2014.0,1
456,456,0.3152036715221186,0.3,0.0,0.0,459.0,710.0,1.0,0,-59.0,0
457,457,-0.8876038258169667,-0.9,0.0,1.0,347.0,543.0,1.0,0,350.0,1
458,458,0.2381927624153094,0.2,1.0,1.0,342.0,953.0,1.0,1,15.0,1
459,459,0.6586219216338934,0.7,0.0,0.0,331.0,570.0,0.0,1,569.0,1
460,460,0.301970237961278,0.3,0.0,0.0,432.0,570.0,0.0,1,1748.0,1
461,461,0.6940822421674356,0.7,1.0,1.0,336.0,544.0,1.0,1,490.0,1
462,462,-0.8801703107967408,-0.9,1.0,0.0,337.0,528.0,0.0,0,255.0,1
463,463,0.22076470580752583,0.2,1.0,1.0,495.0,675.0,1.0,1,280.0,1
464,464,0.7979362535147988,0.8,1.0,1.0,496.0,998.0,1.0,1,196.0,1
465,465,0.03602221462042443,0.0,1.0,1.0,250.0,582.0,1.0,1,2398.0,1
466,466,0.008893980246764244,0.0,0.0,0.0,477.0,899.0,1.0,0,894.0,0
467,467,-0.21547371004183824,-0.2,1.0,0.0,440.0,572.0,1.0,1,3988.0,0
468,468,-0.4609536122063241,-0.5,0.0,1.0,489.0,515.0,1.0,0,386.0,1
469,469,0.5439969130800152,0.5,0.0,0.0,422.0,591.0,0.0,1,837.0,1
470,470,-0.5130035766982688,-0.5,0.0,1.0,264.0,738.0,1.0,0,388.0,1
471,471,-0.1493126394449441,-0.1,0.0,1.0,431.0,724.0,1.0,0,495.0,1
472,472,-0.018004171215949882,-0.0,1.0,0.0,434.0,871.0,1.0,1,425.0,0
473,473,-0.5085301470862156,-0.5,0.0,1.0,298.0,710.0,1.0,0,452.0,1
474,474,-0.6738424219733606,-0.7,1.0,0.0,410.0,831.0,0.0,0,489.0,1
475,475,0.5955859228164458,0.6,0.0,0.0,422.0,928.0,0.0,1,270.0,1
476,476,0.14917262015903743,0.1,1.0,1.0,390.0,508.0,1.0,1,342.0,1
477,477,-0.4786317975083155,-0.5,0.0,1.0,360.0,996.0,1.0,0,284.0,1
478,478,0.3982503547100137,0.4,1.0,1.0,302.0,527.0,1.0,1,321.0,1
479,479,0.35711641501278024,0.4,0.0,0.0,428.0,651.0,0.0,1,701.0,1
480,480,-0.6096888954374666,-0.6,0.0,1.0,462.0,835.0,1.0,0,393.0,1
481,481,-0.6731649142267443,-0.7,1.0,0.0,346.0,799.0,0.0,0,665.0,1
482,482,0.7771005403445391,0.8,0.0,0.0,322.0,777.0,0.0,1,541.0,1
483,483,-0.3943266647466659,-0.4,1.0,0.0,376.0,595.0,0.0,0,1639.0,1
484,484,0.837062312955856,0.8,0.0,0.0,283.0,967.0,0.0,1,490.0,1
485,485,-0.6698278777590015,-0.7,1.0,0.0,295.0,709.0,0.0,0,896.0,1
486,486,0.3641041019456187,0.4,0.0,0.0,458.0,636.0,1.0,0,546.0,0
487,487,-0.4087778015360375,-0.4,0.0,1.0,478.0,745.0,1.0,0,817.0,1
488,488,0.5536107357275976,0.6,0.0,0.0,250.0,613.0,0.0,1,357.0,1
489,489,0.14944370752733904,0.1,1.0,1.0,341.0,982.0,1.0,1,467.0,1
490,490,-0.4824737319663035,-0.5,1.0,0.0,350.0,991.0,0.0,0,1109.0,1
491,491,0.06829761150214475,0.1,0.0,0.0,424.0,539.0,0.0,1,4037.0,1
492,492,0.5735705061394537,0.6,1.0,1.0,271.0,908.0,1.0,1,181.0,1
493,493,0.3936526783362321,0.4,0.0,0.0,371.0,759.0,0.0,1,380.0,1
494,494,0.5597551519618543,0.6,1.0,1.0,268.0,602.0,1.0,1,310.0,1
495,495,0.1778938040839274,0.2,0.0,0.0,472.0,520.0,0.0,1,108.0,1
496,496,0.4078738723229217,0.4,1.0,1.0,307.0,929.0,1.0,1,614.0,1
497,497,0.37958769453829244,0.4,0.0,0.0,286.0,923.0,0.0,1,301.0,1
498,498,-0.34986551092449336,-0.3,1.0,0.0,423.0,998.0,0.0,0,389.0,1
499,499,0.595712638513222,0.6,0.0,0.0,286.0,583.0,0.0,1,3611.0,1
500,500,0.5123141910447065,0.5,0.0,0.0,437.0,911.0,1.0,0,-258.0,0
501,501,0.29307499258850533,0.3,0.0,0.0,467.0,672.0,0.0,1,1471.0,1
502,502,-0.06768155195092707,-0.1,1.0,0.0,257.0,525.0,1.0,1,1928.0,0
503,503,0.7463111453853558,0.7,0.0,0.0,401.0,797.0,1.0,0,-248.0,0
504,504,0.06407789473362147,0.1,0.0,0.0,251.0,881.0,1.0,0,2688.0,0
505,505,-0.7517634730403864,-0.8,0.0,1.0,283.0,751.0,1.0,0,136.0,1
506,506,0.7500045530947853,0.8,0.0,0.0,489.0,928.0,0.0,1,293.0,1
507,507,-0.014938725154027166,-0.0,0.0,1.0,303.0,778.0,1.0,0,1209.0,1
508,508,0.26728464581937106,0.3,1.0,1.0,429.0,536.0,1.0,1,905.0,1
509,509,-0.2249115128362329,-0.2,1.0,0.0,291.0,882.0,0.0,0,3827.0,1
510,510,0.6341873440479758,0.6,0.0,0.0,433.0,916.0,0.0,1,1851.0,1
511,511,-0.24808751118866734,-0.2,1.0,0.0,291.0,646.0,0.0,0,3773.0,1
512,512,0.26655880145713484,0.3,0.0,0.0,327.0,553.0,0.0,1,1190.0,1
513,513,0.4073527978906052,0.4,1.0,1.0,361.0,662.0,1.0,1,387.0,1
514,514,-0.08088158220170893,-0.1,1.0,0.0,253.0,730.0,1.0,1,657.0,0
515,515,0.6606737360346931,0.7,1.0,1.0,265.0,761.0,1.0,1,234.0,1
516,516,-0.15390325830061313,-0.2,0.0,1.0,335.0,760.0,1.0,0,155.0,1
517,517,-0.34338511987903686,-0.3,0.0,1.0,309.0,848.0,1.0,0,203.0,1
518,518,0.6440755351384683,0.6,0.0,0.0,297.0,510.0,0.0,1,1053.0,1
519,519,0.7920223754644468,0.8,1.0,1.0,387.0,772.0,1.0,1,441.0,1
520,520,-0.018456724553437498,-0.0,0.0,1.0,319.0,807.0,1.0,0,-266.0,1
521,521,0.24386515298458555,0.2,1.0,1.0,487.0,920.0,1.0,1,443.0,1
522,522,0.7396939309360252,0.7,1.0,1.0,299.0,809.0,1.0,1,142.0,1
523,523,-0.5558319690440701,-0.6,0.0,1.0,288.0,800.0,1.0,0,172.0,1
524,524,0.5143124015886887,0.5,1.0,1.0,320.0,668.0,1.0,1,222.0,1
525,525,0.6555222463186509,0.7,1.0,1.0,384.0,546.0,1.0,1,490.0,1
526,526,-0.061655433624323686,-0.1,1.0,0.0,443.0,685.0,1.0,1,372.0,0
527,527,-0.17085493824195852,-0.2,0.0,1.0,378.0,963.0,1.0,0,459.0,1
528,528,-0.08370089009189052,-0.1,1.0,0.0,294.0,747.0,1.0,1,-151.0,0
529,529,-0.5428163130531085,-0.5,0.0,1.0,482.0,564.0,1.0,0,504.0,1
530,530,-0.6912752706576841,-0.7,1.0,0.0,306.0,509.0,0.0,0,1165.0,1
531,531,0.032439767082377724,0.0,1.0,1.0,480.0,919.0,1.0,1,621.0,1
532,532,0.6278068969381775,0.6,1.0,1.0,462.0,956.0,1.0,1,222.0,1
533,533,-0.5338256257202743,-0.5,1.0,0.0,401.0,784.0,0.0,0,1755.0,1
534,534,-0.8826769466419406,-0.9,1.0,0.0,376.0,696.0,0.0,0,238.0,1
535,535,0.4984655138391888,0.5,1.0,1.0,485.0,755.0,1.0,1,410.0,1
536,536,-0.6231070461684733,-0.6,0.0,1.0,343.0,563.0,1.0,0,144.0,1
537,537,-0.24716795841727823,-0.2,0.0,1.0,398.0,988.0,1.0,0,-186.0,1
538,538,-0.17614658125489147,-0.2,0.0,1.0,385.0,890.0,1.0,0,75.0,1
539,539,0.32744018320226476,0.3,1.0,1.0,416.0,630.0,1.0,1,364.0,1
540,540,-0.6164999217799618,-0.6,1.0,0.0,321.0,844.0,0.0,0,235.0,1
541,541,0.3432469195740889,0.3,1.0,1.0,324.0,728.0,1.0,1,408.0,1
542,542,-0.03344108086652953,-0.0,1.0,0.0,451.0,764.0,1.0,1,695.0,0
543,543,0.8074112834099664,0.8,1.0,1.0,381.0,745.0,1.0,1,14.0,1
544,544,0.574829631455234,0.6,1.0,1.0,413.0,604.0,1.0,1,483.0,1
545,545,-0.43043021942028464,-0.4,0.0,1.0,417.0,716.0,1.0,0,257.0,1
546,546,0.6971545210230509,0.7,1.0,1.0,286.0,554.0,1.0,1,220.0,1
547,547,-0.724058170109197,-0.7,0.0,1.0,477.0,999.0,1.0,0,184.0,1
548,548,-0.42648958818603255,-0.4,0.0,1.0,377.0,614.0,1.0,0,249.0,1
549,549,0.11593538803120607,0.1,1.0,1.0,368.0,548.0,1.0,1,1214.0,1
550,550,0.5302567967150013,0.5,1.0,1.0,466.0,897.0,1.0,1,187.0,1
551,551,0.7035321852345787,0.7,0.0,0.0,471.0,529.0,0.0,1,620.0,1
552,552,-0.1339170123927359,-0.1,0.0,1.0,348.0,625.0,1.0,0,217.0,1
553,553,-0.05055425825711879,-0.1,1.0,0.0,281.0,971.0,1.0,1,748.0,0
554,554,0.6156509281435246,0.6,0.0,0.0,337.0,806.0,0.0,1,327.0,1
555,555,0.3313160359533537,0.3,1.0,1.0,379.0,653.0,1.0,1,-12.0,1
556,556,-0.8111951301836461,-0.8,1.0,0.0,376.0,588.0,0.0,0,4036.0,1
557,557,0.23391354964247457,0.2,1.0,1.0,257.0,933.0,1.0,1,1050.0,1
558,558,-0.8239225340967782,-0.8,0.0,1.0,475.0,837.0,1.0,0,108.0,1
559,559,-0.3789330485493526,-0.4,1.0,0.0,275.0,877.0,0.0,0,3028.0,1
560,560,-0.2396099562699292,-0.2,0.0,1.0,404.0,930.0,1.0,0,716.0,1
561,561,0.5398750103223798,0.5,1.0,1.0,350.0,916.0,1.0,1,714.0,1
562,562,-0.7117206235247902,-0.7,1.0,0.0,347.0,707.0,0.0,0,1086.0,1
563,563,0.4449539888988209,0.4,1.0,1.0,361.0,654.0,1.0,1,265.0,1
564,564,0.2524946620859786,0.3,1.0,1.0,266.0,990.0,1.0,1,264.0,1
565,565,-0.006587511949442182,-0.0,0.0,1.0,422.0,617.0,1.0,0,3901.0,1
566,566,0.8083248266198376,0.8,0.0,0.0,491.0,638.0,0.0,1,1041.0,1
567,567,-0.22662822519579828,-0.2,0.0,1.0,353.0,786.0,1.0,0,-179.0,1
568,568,0.34079611829940115,0.3,1.0,1.0,426.0,725.0,1.0,1,339.0,1
569,569,-0.11157204045982538,-0.1,1.0,0.0,499.0,637.0,1.0,1,1954.0,0
570,570,0.46264853211185286,0.5,0.0,0.0,294.0,992.0,0.0,1,604.0,1
571,571,0.8684693457192162,0.9,0.0,0.0,490.0,847.0,1.0,0,-337.0,0
572,572,-0.35448896333571456,-0.4,1.0,0.0,477.0,946.0,0.0,0,1257.0,1
573,573,-0.22383900216421682,-0.2,0.0,1.0,498.0,793.0,1.0,0,409.0,1
574,574,0.368814913271987,0.4,1.0,1.0,382.0,954.0,1.0,1,614.0,1
575,575,0.3713017141391227,0.4,0.0,0.0,347.0,591.0,0.0,1,1652.0,1
576,576,-0.4667347179466123,-0.5,1.0,0.0,487.0,634.0,0.0,0,319.0,1
577,577,-0.27472638124878135,-0.3,1.0,0.0,359.0,708.0,0.0,0,2843.0,1
578,578,-0.6518132122570991,-0.7,1.0,0.0,258.0,975.0,0.0,0,367.0,1
579,579,-0.6545616528977555,-0.7,0.0,1.0,450.0,938.0,1.0,0,152.0,1
580,580,0.8431854616825919,0.8,1.0,1.0,363.0,796.0,1.0,1,131.0,1
581,581,-0.12506828106472911,-0.1,1.0,0.0,435.0,535.0,1.0,1,3100.0,0
582,582,0.16720692149191307,0.2,0.0,0.0,408.0,770.0,1.0,0,-218.0,0
583,583,0.07599204278274974,0.1,1.0,1.0,464.0,674.0,1.0,1,852.0,1
584,584,-0.5763786100794492,-0.6,1.0,0.0,399.0,504.0,0.0,0,797.0,1
585,585,0.825155556864141,0.8,0.0,0.0,281.0,621.0,0.0,1,798.0,1
586,586,-0.04711320491926729,-0.0,0.0,1.0,398.0,819.0,1.0,0,783.0,1
587,587,0.18832598720717464,0.2,1.0,1.0,292.0,612.0,1.0,1,16.0,1
588,588,-0.6586774530519262,-0.7,0.0,1.0,388.0,684.0,1.0,0,858.0,1
589,589,0.2168697935081224,0.2,1.0,1.0,487.0,670.0,1.0,1,1263.0,1
590,590,0.3983890934040154,0.4,1.0,1.0,440.0,676.0,1.0,1,84.0,1
591,591,0.6158825069909414,0.6,1.0,1.0,447.0,674.0,1.0,1,239.0,1
592,592,-0.31160857771896755,-0.3,0.0,1.0,268.0,857.0,1.0,0,445.0,1
593,593,0.20161229810063463,0.2,0.0,0.0,392.0,688.0,1.0,0,170.0,0
594,594,-0.8871800810591973,-0.9,0.0,1.0,426.0,827.0,1.0,0,297.0,1
595,595,-0.44823630302763884,-0.4,1.0,0.0,450.0,628.0,0.0,0,1662.0,1
596,596,-0.34758496723197463,-0.3,0.0,1.0,301.0,889.0,1.0,0,160.0,1
597,597,0.27765716035213217,0.3,0.0,0.0,459.0,871.0,0.0,1,1720.0,1
598,598,0.4087034693209285,0.4,1.0,1.0,393.0,796.0,1.0,1,211.0,1
599,599,-0.6634256051634817,-0.7,0.0,1.0,250.0,800.0,1.0,0,-110.0,1
600,600,0.6865095879284292,0.7,0.0,0.0,275.0,521.0,0.0,1,474.0,1
601,601,-0.5103101292220571,-0.5,1.0,0.0,303.0,581.0,0.0,0,576.0,1
602,602,0.8079041365744021,0.8,0.0,0.0,328.0,677.0,0.0,1,355.0,1
603,603,-0.7257058631740493,-0.7,0.0,1.0,293.0,515.0,1.0,0,22.0,1
604,604,0.21068937078320837,0.2,1.0,1.0,285.0,668.0,1.0,1,-63.0,1
605,605,0.10276651396418279,0.1,0.0,0.0,254.0,550.0,1.0,0,206.0,0
606,606,0.28244936113650565,0.3,1.0,1.0,410.0,891.0,1.0,1,309.0,1
607,607,0.03326683625623661,0.0,1.0,1.0,426.0,599.0,1.0,1,435.0,1
608,608,-0.7931544856261404,-0.8,1.0,0.0,427.0,822.0,0.0,0,761.0,1
609,609,0.06728527941102147,0.1,0.0,0.0,302.0,936.0,1.0,0,1082.0,0
610,610,0.8176437376724311,0.8,0.0,0.0,358.0,751.0,0.0,1,421.0,1
611,611,0.29716535797241284,0.3,1.0,1.0,279.0,649.0,1.0,1,582.0,1
612,612,-0.6032230529128082,-0.6,1.0,0.0,440.0,925.0,0.0,0,425.0,1
613,613,-0.7901000809157646,-0.8,0.0,1.0,368.0,546.0,1.0,0,136.0,1
614,614,-0.7216359683393251,-0.7,1.0,0.0,317.0,575.0,0.0,0,448.0,1
615,615,-0.5877908340098108,-0.6,1.0,0.0,289.0,563.0,0.0,0,908.0,1
616,616,0.6901356742610868,0.7,0.0,0.0,319.0,528.0,0.0,1,603.0,1
617,617,0.4362009251152076,0.4,1.0,1.0,386.0,540.0,1.0,1,414.0,1
618,618,-0.30890762945625483,-0.3,0.0,1.0,354.0,580.0,1.0,0,6.0,1
619,619,-0.3771574937846578,-0.4,0.0,1.0,313.0,529.0,1.0,0,418.0,1
620,620,-0.5747998101940066,-0.6,0.0,1.0,416.0,693.0,1.0,0,491.0,1
621,621,-0.003734606139525809,-0.0,1.0,0.0,416.0,897.0,1.0,1,577.0,0
622,622,0.6088787407929835,0.6,0.0,0.0,407.0,558.0,0.0,1,325.0,1
623,623,-0.5533201845794322,-0.6,1.0,0.0,492.0,679.0,0.0,0,779.0,1
624,624,-0.14545454428294902,-0.1,1.0,0.0,483.0,814.0,1.0,1,123.0,0
625,625,0.8696033004858886,0.9,1.0,1.0,344.0,789.0,1.0,1,-303.0,1
626,626,-0.11636100071096978,-0.1,0.0,1.0,434.0,755.0,1.0,0,-289.0,1
627,627,-0.406767833516197,-0.4,0.0,1.0,274.0,748.0,1.0,0,338.0,1
628,628,-0.42806061858332134,-0.4,1.0,0.0,283.0,681.0,0.0,0,1516.0,1
629,629,0.022936846119533616,0.0,0.0,0.0,251.0,598.0,1.0,0,111.0,0
630,630,0.5456348641315308,0.5,1.0,1.0,389.0,646.0,1.0,1,5.0,1
631,631,-0.8401721756025029,-0.8,1.0,0.0,379.0,955.0,0.0,0,3666.0,1
632,632,-0.3220300838143778,-0.3,1.0,0.0,340.0,738.0,0.0,0,2182.0,1
633,633,0.6207169638399025,0.6,1.0,1.0,460.0,734.0,1.0,1,706.0,1
634,634,0.5481352488571786,0.5,1.0,1.0,416.0,541.0,1.0,1,63.0,1
635,635,-0.7292148626269983,-0.7,1.0,0.0,436.0,833.0,0.0,0,471.0,1
636,636,0.5276308018346462,0.5,1.0,1.0,301.0,634.0,1.0,1,445.0,1
637,637,-0.3824025101533659,-0.4,1.0,0.0,293.0,642.0,0.0,0,965.0,1
638,638,-0.3272457772758548,-0.3,0.0,1.0,361.0,667.0,1.0,0,312.0,1
639,639,-0.6083447023879973,-0.6,0.0,1.0,295.0,566.0,1.0,0,159.0,1
640,640,-0.4452571973286969,-0.4,0.0,1.0,301.0,848.0,1.0,0,-149.0,1
641,641,-0.17184021419800355,-0.2,0.0,1.0,357.0,691.0,1.0,0,-8.0,1
642,642,-0.6737298672087852,-0.7,0.0,1.0,486.0,711.0,1.0,0,343.0,1
643,643,-0.2953135868214435,-0.3,1.0,0.0,254.0,783.0,0.0,0,3963.0,1
644,644,0.11790980522386019,0.1,0.0,0.0,317.0,883.0,1.0,0,-90.0,0
645,645,-0.6748032534950047,-0.7,1.0,0.0,313.0,972.0,0.0,0,1185.0,1
646,646,-0.2820364055842396,-0.3,1.0,0.0,459.0,735.0,0.0,0,1126.0,1
647,647,0.4317849684971117,0.4,0.0,0.0,407.0,940.0,0.0,1,253.0,1
648,648,-0.4476216588507919,-0.4,1.0,0.0,483.0,908.0,0.0,0,2579.0,1
649,649,0.7418585457584367,0.7,0.0,0.0,262.0,942.0,0.0,1,1106.0,1
650,650,-0.8557140628526947,-0.9,1.0,0.0,257.0,724.0,0.0,0,609.0,1
651,651,-0.1587540931388297,-0.2,1.0,0.0,272.0,809.0,1.0,1,-151.0,0
652,652,-0.2696234335839012,-0.3,0.0,1.0,283.0,584.0,1.0,0,743.0,1
653,653,0.20038309790461872,0.2,1.0,1.0,483.0,653.0,1.0,1,404.0,1
654,654,-0.7404474843272258,-0.7,0.0,1.0,343.0,740.0,1.0,0,67.0,1
655,655,-0.5594786868774428,-0.6,0.0,1.0,350.0,622.0,1.0,0,258.0,1
656,656,-0.1468950011466177,-0.1,0.0,1.0,464.0,723.0,1.0,0,273.0,1
657,657,-0.1492134260870166,-0.1,1.0,0.0,426.0,807.0,1.0,1,3657.0,0
658,658,0.32852683034950847,0.3,1.0,1.0,484.0,614.0,1.0,1,922.0,1
659,659,0.4525594988055103,0.5,0.0,0.0,391.0,724.0,0.0,1,925.0,1
660,660,-0.1524205073167807,-0.2,0.0,1.0,358.0,856.0,1.0,0,166.0,1
661,661,0.8097256630220303,0.8,0.0,0.0,442.0,787.0,0.0,1,371.0,1
662,662,-0.6161020477529662,-0.6,1.0,0.0,315.0,608.0,0.0,0,387.0,1
663,663,0.6306936803745603,0.6,1.0,1.0,424.0,701.0,1.0,1,145.0,1
664,664,0.08838054663598072,0.1,1.0,1.0,457.0,799.0,1.0,1,1024.0,1
665,665,-0.4672194592017861,-0.5,1.0,0.0,473.0,787.0,0.0,0,910.0,1
666,666,-0.1258902761996048,-0.1,0.0,1.0,263.0,593.0,1.0,0,24.0,1
667,667,-0.7509452053555796,-0.8,1.0,0.0,414.0,513.0,0.0,0,4073.0,1
668,668,-0.3182046492196595,-0.3,0.0,1.0,488.0,727.0,1.0,0,875.0,1
669,669,0.3725175606351726,0.4,0.0,0.0,294.0,999.0,0.0,1,-373.0,1
670,670,0.2523140804727414,0.3,1.0,1.0,398.0,739.0,1.0,1,343.0,1
671,671,-0.6409841242530143,-0.6,1.0,0.0,382.0,542.0,0.0,0,686.0,1
672,672,0.21301576024685953,0.2,0.0,0.0,269.0,906.0,1.0,0,1295.0,0
673,673,0.767495870197496,0.8,1.0,1.0,417.0,985.0,1.0,1,328.0,1
674,674,0.6164476821034394,0.6,1.0,1.0,378.0,637.0,1.0,1,215.0,1
675,675,-0.02281404399622422,-0.0,1.0,0.0,465.0,947.0,1.0,1,568.0,0
676,676,-0.16890139797587989,-0.2,1.0,0.0,280.0,689.0,0.0,0,4031.0,1
677,677,0.05967167198646106,0.1,1.0,1.0,442.0,910.0,1.0,1,68.0,1
678,678,-0.5884339757790948,-0.6,0.0,1.0,495.0,958.0,1.0,0,97.0,1
679,679,0.17860006776143444,0.2,0.0,0.0,494.0,880.0,1.0,0,386.0,0
680,680,-0.4685006973361024,-0.5,0.0,1.0,470.0,515.0,1.0,0,195.0,1
681,681,-0.5316266015404061,-0.5,0.0,1.0,457.0,831.0,1.0,0,252.0,1
682,682,-0.6265920084427816,-0.6,1.0,0.0,251.0,672.0,0.0,0,567.0,1
683,683,-0.3999733463234797,-0.4,0.0,1.0,387.0,580.0,1.0,0,93.0,1
684,684,0.02900750381737005,0.0,1.0,1.0,259.0,698.0,1.0,1,-27.0,1
685,685,0.2988516240947606,0.3,0.0,0.0,440.0,996.0,1.0,0,-96.0,0
686,686,-0.23522077876571656,-0.2,1.0,0.0,284.0,943.0,0.0,0,1973.0,1
687,687,0.35243098632889935,0.4,1.0,1.0,331.0,809.0,1.0,1,150.0,1
688,688,-0.8147587300264298,-0.8,0.0,1.0,421.0,957.0,1.0,0,152.0,1
689,689,0.3109988919255774,0.3,1.0,1.0,446.0,687.0,1.0,1,197.0,1
690,690,0.4492439981817514,0.4,0.0,0.0,341.0,728.0,1.0,0,-79.0,0
691,691,-0.8694805403494237,-0.9,1.0,0.0,451.0,673.0,0.0,0,2356.0,1
692,692,-0.6295556686098693,-0.6,1.0,0.0,428.0,843.0,0.0,0,429.0,1
693,693,0.3357229265552898,0.3,1.0,1.0,367.0,955.0,1.0,1,528.0,1
694,694,0.7383867094420385,0.7,1.0,1.0,468.0,670.0,1.0,1,212.0,1
695,695,-0.15055061120359325,-0.2,0.0,1.0,376.0,937.0,1.0,0,1037.0,1
696,696,-0.7306859925064613,-0.7,1.0,0.0,290.0,926.0,0.0,0,3784.0,1
697,697,0.1169024668270543,0.1,0.0,0.0,470.0,882.0,1.0,0,568.0,0
698,698,-0.22343577615450416,-0.2,1.0,0.0,299.0,915.0,0.0,0,3786.0,1
699,699,-0.07893973126049336,-0.1,1.0,0.0,272.0,715.0,1.0,1,43.0,0
700,700,0.12454321055519257,0.1,0.0,0.0,338.0,657.0,1.0,0,1605.0,0
701,701,-0.7366475135988623,-0.7,0.0,1.0,469.0,531.0,1.0,0,120.0,1
702,702,-0.5059349111751079,-0.5,0.0,1.0,289.0,949.0,1.0,0,252.0,1
703,703,0.6148667555720603,0.6,1.0,1.0,296.0,696.0,1.0,1,888.0,1
704,704,-0.7238022768788575,-0.7,1.0,0.0,318.0,981.0,1.0,1,-379.0,0
705,705,0.044485663773349726,0.0,0.0,0.0,259.0,985.0,1.0,0,-444.0,0
706,706,-0.6712090730781619,-0.7,1.0,0.0,460.0,823.0,0.0,0,387.0,1
707,707,0.439108381121199,0.4,0.0,0.0,481.0,862.0,0.0,1,297.0,1
708,708,-0.3492038557020066,-0.3,1.0,0.0,319.0,629.0,0.0,0,1652.0,1
709,709,-0.7881863202720502,-0.8,0.0,1.0,306.0,567.0,1.0,0,97.0,1
710,710,0.26895575327422516,0.3,1.0,1.0,323.0,520.0,1.0,1,407.0,1
711,711,0.4716837545970495,0.5,1.0,1.0,341.0,500.0,1.0,1,389.0,1
712,712,0.651007572015147,0.7,0.0,0.0,489.0,514.0,0.0,1,247.0,1
713,713,-0.1252557859763327,-0.1,1.0,0.0,428.0,756.0,1.0,1,3816.0,0
714,714,-0.8904430711698833,-0.9,0.0,1.0,289.0,987.0,1.0,0,-396.0,1
715,715,-0.019431777377861836,-0.0,0.0,1.0,409.0,800.0,1.0,0,1561.0,1
716,716,-0.31605053920341863,-0.3,0.0,1.0,463.0,582.0,1.0,0,195.0,1
717,717,0.31175397813325334,0.3,1.0,1.0,364.0,922.0,1.0,1,184.0,1
718,718,-0.8688360601710191,-0.9,1.0,0.0,338.0,739.0,0.0,0,333.0,1
719,719,0.7796948306715309,0.8,0.0,0.0,449.0,921.0,1.0,0,-80.0,0
720,720,-0.754556881622819,-0.8,1.0,0.0,272.0,819.0,0.0,0,2369.0,1
721,721,-0.5593407902581269,-0.6,1.0,0.0,393.0,863.0,0.0,0,524.0,1
722,722,-0.47194245022423076,-0.5,0.0,1.0,353.0,676.0,1.0,0,411.0,1
723,723,-0.15796359275285465,-0.2,1.0,0.0,424.0,771.0,0.0,0,3805.0,1
724,724,0.13064546539630306,0.1,1.0,1.0,340.0,996.0,1.0,1,324.0,1
725,725,0.24395170820402956,0.2,1.0,1.0,331.0,798.0,1.0,1,-259.0,1
726,726,0.7680431009676155,0.8,0.0,0.0,282.0,924.0,0.0,1,374.0,1
727,727,0.5307241701739699,0.5,0.0,0.0,270.0,792.0,0.0,1,578.0,1
728,728,-0.38374749513685513,-0.4,0.0,1.0,474.0,876.0,1.0,0,160.0,1
729,729,0.37016562261447106,0.4,0.0,0.0,460.0,955.0,0.0,1,775.0,1
730,730,-0.7227117110490784,-0.7,1.0,0.0,393.0,700.0,0.0,0,837.0,1
731,731,0.46340856408043585,0.5,1.0,1.0,430.0,637.0,1.0,1,243.0,1
732,732,0.015324973703126354,0.0,1.0,1.0,407.0,651.0,1.0,1,1782.0,1
733,733,0.14540136192067388,0.1,0.0,0.0,293.0,634.0,1.0,0,573.0,0
734,734,-0.30896413059569794,-0.3,0.0,1.0,392.0,652.0,1.0,0,-294.0,1
735,735,-0.06449824916605462,-0.1,1.0,0.0,433.0,903.0,1.0,1,-6.0,0
736,736,0.22671937445304902,0.2,1.0,1.0,310.0,819.0,1.0,1,241.0,1
737,737,0.022727657367304976,0.0,0.0,0.0,383.0,612.0,1.0,0,3005.0,0
738,738,-0.23986003726529548,-0.2,0.0,1.0,342.0,567.0,1.0,0,181.0,1
739,739,0.4673525033326492,0.5,0.0,0.0,410.0,882.0,0.0,1,1188.0,1
740,740,-0.7022901999149461,-0.7,1.0,0.0,480.0,533.0,0.0,0,3987.0,1
741,741,-0.8043667645750505,-0.8,1.0,0.0,288.0,822.0,0.0,0,450.0,1
742,742,-0.40643209387372675,-0.4,1.0,0.0,474.0,972.0,0.0,0,1224.0,1
743,743,0.853835594837672,0.9,1.0,1.0,344.0,768.0,1.0,1,308.0,1
744,744,-0.3518379196982435,-0.4,0.0,1.0,274.0,994.0,1.0,0,-98.0,1
745,745,0.5280402643294307,0.5,1.0,1.0,291.0,880.0,1.0,1,169.0,1
746,746,0.15107732871590163,0.2,0.0,0.0,443.0,716.0,1.0,0,871.0,0
747,747,0.28500540809543773,0.3,0.0,0.0,464.0,752.0,1.0,0,4.0,0
748,748,-0.4799218778236741,-0.5,1.0,0.0,252.0,901.0,0.0,0,837.0,1
749,749,0.08850254676295632,0.1,0.0,0.0,411.0,714.0,1.0,0,485.0,0
750,750,0.819046404564694,0.8,0.0,0.0,496.0,594.0,0.0,1,790.0,1
751,751,-0.1945711081091004,-0.2,0.0,1.0,256.0,698.0,1.0,0,106.0,1
752,752,-0.8294898146511452,-0.8,1.0,0.0,257.0,975.0,1.0,1,-152.0,0
753,753,-0.2381091315483086,-0.2,1.0,0.0,341.0,885.0,0.0,0,3774.0,1
754,754,0.8399099561178981,0.8,0.0,0.0,282.0,940.0,0.0,1,1928.0,1
755,755,-0.5571991440107174,-0.6,1.0,0.0,430.0,703.0,0.0,0,647.0,1
756,756,0.8535682770337173,0.9,1.0,1.0,402.0,720.0,1.0,1,18.0,1
757,757,0.8178901671126754,0.8,1.0,1.0,386.0,817.0,1.0,1,107.0,1
758,758,-0.6368020137361645,-0.6,0.0,1.0,496.0,765.0,1.0,0,299.0,1
759,759,0.4606380860600797,0.5,0.0,0.0,418.0,844.0,0.0,1,618.0,1
760,760,0.20648520515912738,0.2,1.0,1.0,406.0,512.0,1.0,1,82.0,1
761,761,0.5377588971254125,0.5,1.0,1.0,454.0,610.0,1.0,1,266.0,1
762,762,-0.3156568586056542,-0.3,1.0,0.0,454.0,805.0,0.0,0,2051.0,1
763,763,0.15154168132472023,0.2,1.0,1.0,300.0,581.0,1.0,1,149.0,1
764,764,-0.1356780565798006,-0.1,1.0,0.0,250.0,846.0,0.0,0,324.0,1
765,765,-0.6641792880874884,-0.7,0.0,1.0,470.0,587.0,1.0,0,163.0,1
766,766,-0.0867477717427183,-0.1,0.0,1.0,499.0,767.0,1.0,0,-196.0,1
767,767,0.8658038903130344,0.9,0.0,0.0,333.0,772.0,0.0,1,305.0,1
768,768,0.27268937238969226,0.3,0.0,0.0,446.0,681.0,1.0,0,-177.0,0
769,769,-0.40673677220014476,-0.4,0.0,1.0,429.0,525.0,1.0,0,226.0,1
770,770,0.7078583210162287,0.7,1.0,1.0,483.0,923.0,1.0,1,114.0,1
771,771,0.12863883713788826,0.1,1.0,1.0,457.0,649.0,1.0,1,284.0,1
772,772,0.045768543353613356,0.0,1.0,1.0,435.0,785.0,1.0,1,1080.0,1
773,773,-0.21580110822794285,-0.2,1.0,0.0,282.0,614.0,1.0,1,3944.0,0
774,774,-0.29613301521131374,-0.3,0.0,1.0,457.0,805.0,1.0,0,38.0,1
775,775,-0.329307594678926,-0.3,0.0,1.0,480.0,811.0,1.0,0,609.0,1
776,776,-0.27092217430979093,-0.3,1.0,0.0,317.0,950.0,0.0,0,1433.0,1
777,777,-0.6854824567087483,-0.7,1.0,0.0,447.0,650.0,0.0,0,323.0,1
778,778,-0.5969247908495061,-0.6,0.0,1.0,310.0,732.0,1.0,0,498.0,1
779,779,0.3350133766805933,0.3,1.0,1.0,474.0,891.0,1.0,1,175.0,1
780,780,-0.3464996183272896,-0.3,1.0,0.0,373.0,867.0,1.0,1,80.0,0
781,781,-0.27283294838254146,-0.3,0.0,1.0,312.0,890.0,1.0,0,-22.0,1
782,782,-0.7401772608949688,-0.7,0.0,1.0,332.0,920.0,1.0,0,158.0,1
783,783,0.7595363931922722,0.8,0.0,0.0,302.0,810.0,0.0,1,508.0,1
784,784,0.6437576918217364,0.6,0.0,0.0,452.0,684.0,1.0,0,-236.0,0
785,785,0.5969033871845414,0.6,0.0,0.0,281.0,548.0,0.0,1,711.0,1
786,786,0.7596218834464653,0.8,0.0,0.0,261.0,943.0,0.0,1,196.0,1
787,787,-0.43948092980823467,-0.4,1.0,0.0,467.0,807.0,0.0,0,596.0,1
788,788,-0.5116837126659897,-0.5,0.0,1.0,449.0,838.0,1.0,0,193.0,1
789,789,-0.8174381391217774,-0.8,1.0,0.0,439.0,866.0,0.0,0,3695.0,1
790,790,0.4338585065710846,0.4,1.0,1.0,288.0,764.0,1.0,1,228.0,1
791,791,0.6185448563580117,0.6,0.0,0.0,404.0,841.0,0.0,1,895.0,1
792,792,0.31866130047313035,0.3,0.0,0.0,289.0,510.0,0.0,1,1301.0,1
793,793,-0.741460233778913,-0.7,0.0,1.0,362.0,602.0,1.0,0,126.0,1
794,794,-0.8387716656245207,-0.8,1.0,0.0,414.0,640.0,0.0,0,246.0,1
795,795,-0.529466136427299,-0.5,1.0,0.0,414.0,659.0,0.0,0,507.0,1
796,796,-0.05590399113562494,-0.1,1.0,0.0,258.0,702.0,1.0,1,2220.0,0
797,797,-0.5077697549658932,-0.5,1.0,0.0,480.0,895.0,1.0,1,-195.0,0
798,798,0.48965828708770853,0.5,0.0,0.0,254.0,640.0,0.0,1,626.0,1
799,799,0.7361943117480582,0.7,1.0,1.0,307.0,849.0,1.0,1,-86.0,1
800,800,0.17959725403356142,0.2,0.0,0.0,406.0,761.0,0.0,1,3833.0,1
801,801,-0.6106160357864798,-0.6,1.0,0.0,303.0,966.0,1.0,1,-279.0,0
802,802,-0.7522595792933121,-0.8,1.0,0.0,335.0,737.0,1.0,1,-152.0,0
803,803,0.42800933962582477,0.4,1.0,1.0,422.0,715.0,1.0,1,483.0,1
804,804,-0.36223906168224995,-0.4,0.0,1.0,455.0,527.0,1.0,0,378.0,1
805,805,0.7520272900322326,0.8,1.0,1.0,499.0,540.0,1.0,1,11.0,1
806,806,-0.49101184380331214,-0.5,0.0,1.0,306.0,518.0,1.0,0,56.0,1
807,807,-0.21596322125165135,-0.2,0.0,1.0,387.0,817.0,1.0,0,166.0,1
808,808,-0.6927250041858649,-0.7,1.0,0.0,440.0,737.0,0.0,0,433.0,1
809,809,0.554297898637503,0.6,1.0,1.0,258.0,737.0,1.0,1,135.0,1
810,810,-0.8511399333301225,-0.9,0.0,1.0,482.0,926.0,1.0,0,92.0,1
811,811,0.7740127017036177,0.8,0.0,0.0,405.0,731.0,0.0,1,3864.0,1
812,812,0.23366328997910524,0.2,0.0,0.0,335.0,676.0,0.0,1,3449.0,1
813,813,0.05048242086478183,0.1,1.0,1.0,465.0,554.0,1.0,1,491.0,1
814,814,-0.5284525406423817,-0.5,1.0,0.0,317.0,816.0,0.0,0,327.0,1
815,815,-0.29131345608192816,-0.3,1.0,0.0,252.0,766.0,0.0,0,2282.0,1
816,816,0.19930569550115218,0.2,0.0,0.0,480.0,913.0,1.0,0,-323.0,0
817,817,0.6485794172141836,0.6,0.0,0.0,272.0,714.0,0.0,1,1044.0,1
818,818,0.7635815472513748,0.8,1.0,1.0,476.0,893.0,1.0,1,351.0,1
819,819,0.6424951147723396,0.6,0.0,0.0,427.0,638.0,0.0,1,885.0,1
820,820,-0.25695166578161055,-0.3,1.0,0.0,308.0,792.0,0.0,0,3350.0,1
821,821,-0.026952380256748176,-0.0,1.0,0.0,369.0,593.0,1.0,1,3938.0,0
822,822,-0.27938720804468287,-0.3,1.0,0.0,388.0,514.0,0.0,0,3928.0,1
823,823,0.31160301084059905,0.3,1.0,1.0,415.0,700.0,1.0,1,395.0,1
824,824,-0.5632484667727558,-0.6,0.0,1.0,370.0,665.0,1.0,0,-55.0,1
825,825,0.7638754853202666,0.8,0.0,0.0,265.0,862.0,0.0,1,463.0,1
826,826,0.6771649344786063,0.7,1.0,1.0,469.0,985.0,1.0,1,-454.0,1
827,827,-0.13975565499492815,-0.1,1.0,0.0,377.0,801.0,1.0,1,1272.0,0
828,828,0.8332886697592695,0.8,0.0,0.0,263.0,699.0,0.0,1,368.0,1
829,829,0.15288581210724883,0.2,1.0,1.0,321.0,989.0,1.0,1,990.0,1
830,830,0.5313658294265845,0.5,1.0,1.0,324.0,728.0,1.0,1,418.0,1
831,831,-0.3600341556606813,-0.4,1.0,0.0,483.0,755.0,0.0,0,3762.0,1
832,832,0.18611101005281283,0.2,1.0,1.0,343.0,812.0,1.0,1,735.0,1
833,833,0.0076526215984534796,0.0,1.0,1.0,414.0,795.0,1.0,1,2861.0,1
834,834,-0.6113300274915867,-0.6,0.0,1.0,264.0,752.0,1.0,0,104.0,1
835,835,-0.5278310883238033,-0.5,1.0,0.0,435.0,745.0,0.0,0,1060.0,1
836,836,-0.7451973360341855,-0.7,0.0,1.0,354.0,679.0,1.0,0,387.0,1
837,837,0.31905033706947206,0.3,1.0,1.0,454.0,687.0,1.0,1,479.0,1
838,838,-0.5267669321013979,-0.5,1.0,0.0,440.0,741.0,1.0,1,-11.0,0
839,839,0.8607262615257153,0.9,1.0,1.0,487.0,671.0,1.0,1,182.0,1
840,840,-0.8541447227996642,-0.9,1.0,0.0,493.0,651.0,0.0,0,476.0,1
841,841,0.26667532553742823,0.3,1.0,1.0,496.0,812.0,1.0,1,112.0,1
842,842,0.8993976028212932,0.9,0.0,0.0,421.0,848.0,0.0,1,321.0,1
843,843,-0.4155878372046506,-0.4,0.0,1.0,270.0,937.0,1.0,0,-507.0,1
844,844,0.8016644077303446,0.8,1.0,1.0,469.0,788.0,1.0,1,433.0,1
845,845,-0.7832349867693019,-0.8,1.0,0.0,327.0,948.0,0.0,0,375.0,1
846,846,-0.5396250311031556,-0.5,0.0,1.0,430.0,549.0,1.0,0,511.0,1
847,847,0.42336967476176957,0.4,0.0,0.0,407.0,861.0,0.0,1,412.0,1
848,848,-0.7172054216610356,-0.7,1.0,0.0,378.0,646.0,0.0,0,486.0,1
849,849,0.6013867117678285,0.6,0.0,0.0,337.0,510.0,0.0,1,413.0,1
850,850,-0.007989403757225788,-0.0,1.0,0.0,269.0,969.0,1.0,1,1672.0,0
851,851,0.8491520745169391,0.8,0.0,0.0,363.0,899.0,0.0,1,688.0,1
852,852,0.5109722305592016,0.5,1.0,1.0,436.0,809.0,1.0,1,135.0,1
853,853,0.20524434149627158,0.2,0.0,0.0,395.0,522.0,0.0,1,1613.0,1
854,854,0.5681703271239639,0.6,1.0,1.0,429.0,863.0,1.0,1,218.0,1
855,855,-0.01066502605661901,-0.0,1.0,0.0,318.0,773.0,1.0,1,3909.0,0
856,856,0.8075323957742034,0.8,1.0,1.0,329.0,871.0,1.0,1,610.0,1
857,857,-0.46171129281583895,-0.5,1.0,0.0,267.0,871.0,1.0,1,182.0,0
858,858,0.4549856807171718,0.5,0.0,0.0,358.0,598.0,0.0,1,484.0,1
859,859,0.14683862382939628,0.1,0.0,0.0,374.0,998.0,0.0,1,3628.0,1
860,860,0.7168190937868594,0.7,1.0,1.0,255.0,848.0,1.0,1,407.0,1
861,861,-0.8518600641694923,-0.9,0.0,1.0,321.0,986.0,1.0,0,113.0,1
862,862,-0.48881158018343596,-0.5,1.0,0.0,297.0,809.0,0.0,0,1134.0,1
863,863,-0.5258417494855723,-0.5,1.0,0.0,297.0,706.0,0.0,0,847.0,1
864,864,0.15413502465156614,0.2,0.0,0.0,416.0,864.0,1.0,0,-40.0,0
865,865,-0.4242854677124096,-0.4,0.0,1.0,463.0,825.0,1.0,0,672.0,1
866,866,0.39843322880986987,0.4,1.0,1.0,356.0,978.0,1.0,1,1156.0,1
867,867,0.1852268602468462,0.2,0.0,0.0,300.0,528.0,1.0,0,-88.0,0
868,868,-0.6967880321064424,-0.7,0.0,1.0,390.0,575.0,1.0,0,185.0,1
869,869,0.4835050540628195,0.5,0.0,0.0,397.0,959.0,1.0,0,-6.0,0
870,870,0.8054375616181463,0.8,0.0,0.0,485.0,848.0,0.0,1,1557.0,1
871,871,-0.37595482160016624,-0.4,1.0,0.0,362.0,795.0,0.0,0,743.0,1
872,872,0.6114641173569585,0.6,0.0,0.0,261.0,508.0,0.0,1,1101.0,1
873,873,0.389625650259828,0.4,1.0,1.0,498.0,870.0,1.0,1,762.0,1
874,874,0.8966135161447949,0.9,0.0,0.0,352.0,687.0,0.0,1,881.0,1
875,875,0.3411788237375656,0.3,0.0,0.0,338.0,733.0,0.0,1,1769.0,1
876,876,-0.7093094029795742,-0.7,1.0,0.0,371.0,746.0,0.0,0,493.0,1
877,877,0.25840122285643174,0.3,0.0,0.0,331.0,562.0,0.0,1,2767.0,1
878,878,-0.20845091223741652,-0.2,0.0,1.0,484.0,685.0,1.0,0,-119.0,1
879,879,-0.7041702520779871,-0.7,0.0,1.0,410.0,945.0,1.0,0,45.0,1
880,880,0.8672135094870647,0.9,1.0,1.0,296.0,864.0,1.0,1,430.0,1
881,881,-0.11776439542292849,-0.1,1.0,0.0,431.0,546.0,1.0,1,4023.0,0
882,882,-0.31108128271491886,-0.3,0.0,1.0,388.0,802.0,1.0,0,120.0,1
883,883,-0.8684771041264482,-0.9,1.0,0.0,282.0,948.0,0.0,0,250.0,1
884,884,0.2297009553715489,0.2,0.0,0.0,478.0,759.0,0.0,1,1143.0,1
885,885,0.8436221299072383,0.8,0.0,0.0,337.0,556.0,0.0,1,307.0,1
886,886,0.4807617277011126,0.5,1.0,1.0,347.0,581.0,1.0,1,692.0,1
887,887,0.25119612237106137,0.3,1.0,1.0,441.0,831.0,1.0,1,838.0,1
888,888,0.8950567060178626,0.9,1.0,1.0,341.0,565.0,1.0,1,184.0,1
889,889,-0.31044120502185846,-0.3,1.0,0.0,446.0,789.0,0.0,0,685.0,1
890,890,0.6752913526528116,0.7,0.0,0.0,292.0,786.0,0.0,1,562.0,1
891,891,-0.14958685752666345,-0.1,1.0,0.0,256.0,954.0,0.0,0,3790.0,1
892,892,-0.3765255162035823,-0.4,1.0,0.0,425.0,665.0,1.0,1,-10.0,0
893,893,0.5741419909745998,0.6,1.0,1.0,424.0,618.0,1.0,1,368.0,1
894,894,-0.6523994618785071,-0.7,0.0,1.0,452.0,754.0,1.0,0,104.0,1
895,895,-0.04127763877660029,-0.0,1.0,0.0,302.0,806.0,1.0,1,3062.0,0
896,896,0.16697050996130935,0.2,1.0,1.0,494.0,586.0,1.0,1,970.0,1
897,897,-0.42526939182380424,-0.4,0.0,1.0,379.0,620.0,1.0,0,51.0,1
898,898,-0.6600311577416447,-0.7,1.0,0.0,430.0,774.0,0.0,0,3796.0,1
899,899,0.48484453735109867,0.5,1.0,1.0,375.0,758.0,1.0,1,447.0,1
900,900,0.29891580575893373,0.3,1.0,1.0,276.0,644.0,1.0,1,110.0,1
901,901,-0.5455307495396013,-0.5,0.0,1.0,269.0,630.0,1.0,0,131.0,1
902,902,-0.7041223202771745,-0.7,1.0,0.0,317.0,800.0,0.0,0,573.0,1
903,903,-0.3033909340969354,-0.3,0.0,1.0,391.0,516.0,1.0,0,873.0,1
904,904,-0.005724787970998957,-0.0,0.0,1.0,341.0,642.0,1.0,0,427.0,1
905,905,-0.6999394399293083,-0.7,1.0,0.0,464.0,936.0,0.0,0,620.0,1
906,906,-0.4418836605254711,-0.4,0.0,1.0,430.0,936.0,1.0,0,74.0,1
907,907,0.558626701112609,0.6,0.0,0.0,280.0,509.0,0.0,1,541.0,1
908,908,-0.7764839200516632,-0.8,0.0,1.0,341.0,542.0,1.0,0,257.0,1
909,909,0.07548339341009258,0.1,0.0,0.0,431.0,560.0,1.0,0,2399.0,0
910,910,0.497127595885965,0.5,0.0,0.0,467.0,937.0,0.0,1,726.0,1
911,911,-0.07612716759178595,-0.1,0.0,1.0,274.0,821.0,1.0,0,755.0,1
912,912,0.2474232849795156,0.2,1.0,1.0,496.0,503.0,1.0,1,351.0,1
913,913,-0.8452572437641688,-0.8,0.0,1.0,373.0,774.0,1.0,0,303.0,1
914,914,-0.3761846547631471,-0.4,1.0,0.0,401.0,997.0,0.0,0,3602.0,1
915,915,0.6332873388339707,0.6,0.0,0.0,256.0,529.0,0.0,1,385.0,1
916,916,0.41906996357984816,0.4,0.0,0.0,442.0,941.0,0.0,1,1317.0,1
917,917,0.36308186720958935,0.4,1.0,1.0,293.0,820.0,1.0,1,-33.0,1
918,918,0.7476507899156161,0.7,0.0,0.0,421.0,720.0,0.0,1,539.0,1
919,919,-0.8233221069862795,-0.8,1.0,0.0,492.0,607.0,0.0,0,351.0,1
920,920,-0.4668384879602816,-0.5,0.0,1.0,278.0,824.0,1.0,0,-152.0,1
921,921,-0.44203735687498574,-0.4,1.0,0.0,306.0,748.0,1.0,1,6.0,0
922,922,0.5945299021483851,0.6,0.0,0.0,294.0,504.0,0.0,1,1072.0,1
923,923,0.04313014961333694,0.0,1.0,1.0,271.0,913.0,1.0,1,36.0,1
924,924,0.1595716223767688,0.2,1.0,1.0,264.0,899.0,1.0,1,1097.0,1
925,925,-0.03609452555657888,-0.0,0.0,1.0,398.0,702.0,1.0,0,350.0,1
926,926,0.22353729694852398,0.2,0.0,0.0,295.0,882.0,0.0,1,553.0,1
927,927,0.3760716873939295,0.4,0.0,0.0,254.0,535.0,0.0,1,1111.0,1
928,928,0.5474141600922428,0.5,1.0,1.0,373.0,987.0,1.0,1,170.0,1
929,929,0.5856986083559502,0.6,0.0,0.0,429.0,733.0,0.0,1,928.0,1
930,930,0.7295961703048327,0.7,1.0,1.0,261.0,645.0,1.0,1,554.0,1
931,931,0.535963271347698,0.5,1.0,1.0,368.0,704.0,1.0,1,528.0,1
932,932,0.5911933205963126,0.6,1.0,1.0,419.0,721.0,1.0,1,40.0,1
933,933,0.8063981418447556,0.8,0.0,0.0,421.0,536.0,0.0,1,493.0,1
934,934,0.018544443444200143,0.0,1.0,1.0,273.0,576.0,1.0,1,651.0,1
935,935,0.8835142495639207,0.9,1.0,1.0,275.0,819.0,1.0,1,-384.0,1
936,936,0.4115786497529258,0.4,0.0,0.0,328.0,531.0,0.0,1,891.0,1
937,937,-0.1658827362879638,-0.2,1.0,0.0,468.0,913.0,0.0,0,3619.0,1
938,938,-0.5095681409697805,-0.5,1.0,0.0,414.0,591.0,0.0,0,1485.0,1
939,939,0.5664708600182481,0.6,1.0,1.0,295.0,970.0,1.0,1,135.0,1
940,940,0.8667610161893989,0.9,1.0,1.0,382.0,605.0,1.0,1,63.0,1
941,941,0.4014466315081241,0.4,1.0,1.0,331.0,599.0,1.0,1,470.0,1
942,942,-0.7846422641844276,-0.8,1.0,0.0,499.0,861.0,1.0,1,-490.0,0
943,943,-0.5189890569020914,-0.5,0.0,1.0,298.0,883.0,1.0,0,-161.0,1
944,944,-0.6840272193057811,-0.7,0.0,1.0,342.0,674.0,1.0,0,94.0,1
945,945,0.11476068989937149,0.1,0.0,0.0,304.0,685.0,1.0,0,-259.0,0
946,946,-0.08657880928434403,-0.1,1.0,0.0,395.0,557.0,0.0,0,4048.0,1
947,947,-0.6087809064230585,-0.6,1.0,0.0,436.0,767.0,0.0,0,787.0,1
948,948,0.5414831284441327,0.5,1.0,1.0,414.0,616.0,1.0,1,160.0,1
949,949,-0.2641329009714176,-0.3,1.0,0.0,361.0,571.0,0.0,0,1948.0,1
950,950,0.4229880976923802,0.4,0.0,0.0,388.0,519.0,0.0,1,1753.0,1
951,951,0.1347422572272653,0.1,0.0,0.0,369.0,699.0,1.0,0,3222.0,0
952,952,0.4509882874783987,0.5,1.0,1.0,318.0,670.0,1.0,1,362.0,1
953,953,0.3383639288357235,0.3,1.0,1.0,284.0,808.0,1.0,1,228.0,1
954,954,0.17325045690726093,0.2,0.0,0.0,295.0,939.0,0.0,1,2026.0,1
955,955,0.45295032158929016,0.5,0.0,0.0,488.0,768.0,0.0,1,334.0,1
956,956,0.7932932385491863,0.8,1.0,1.0,349.0,894.0,1.0,1,287.0,1
957,957,0.6085092456733109,0.6,1.0,1.0,406.0,753.0,1.0,1,351.0,1
958,958,-0.5987987280388332,-0.6,0.0,1.0,383.0,915.0,1.0,0,92.0,1
959,959,0.6197021224376856,0.6,0.0,0.0,430.0,653.0,1.0,0,-3.0,0
960,960,0.10861294952619549,0.1,0.0,0.0,361.0,781.0,0.0,1,48.0,1
961,961,0.5095907079993575,0.5,0.0,0.0,322.0,670.0,0.0,1,1388.0,1
962,962,-0.6313472608594023,-0.6,0.0,1.0,269.0,991.0,1.0,0,370.0,1
963,963,-0.2270195867316639,-0.2,0.0,1.0,358.0,751.0,1.0,0,331.0,1
964,964,0.09492646419436668,0.1,1.0,1.0,447.0,672.0,1.0,1,-189.0,1
965,965,0.8119815227049555,0.8,1.0,1.0,331.0,546.0,1.0,1,613.0,1
966,966,-0.6684214310519466,-0.7,1.0,0.0,254.0,601.0,0.0,0,365.0,1
967,967,-0.6638180132006051,-0.7,0.0,1.0,341.0,892.0,1.0,0,547.0,1
968,968,0.803597868782057,0.8,0.0,0.0,361.0,591.0,1.0,0,-22.0,0
969,969,0.25786514787309567,0.3,0.0,0.0,363.0,669.0,0.0,1,1198.0,1
970,970,0.07781058324016887,0.1,0.0,0.0,356.0,828.0,1.0,0,666.0,0
971,971,0.8219628683965433,0.8,0.0,0.0,378.0,959.0,0.0,1,203.0,1
972,972,-0.05972039113315797,-0.1,1.0,0.0,273.0,858.0,1.0,1,3329.0,0
973,973,-0.3753822725731444,-0.4,0.0,1.0,463.0,637.0,1.0,0,280.0,1
974,974,-0.7883294684793728,-0.8,0.0,1.0,494.0,769.0,1.0,0,127.0,1
975,975,-0.8945703820079857,-0.9,1.0,0.0,311.0,779.0,0.0,0,420.0,1
976,976,0.8927391472809246,0.9,0.0,0.0,266.0,716.0,0.0,1,398.0,1
977,977,-0.35643428695628665,-0.4,1.0,0.0,300.0,640.0,0.0,0,1140.0,1
978,978,0.7579956944664298,0.8,0.0,0.0,348.0,814.0,0.0,1,298.0,1
979,979,0.2558766517263974,0.3,1.0,1.0,420.0,754.0,1.0,1,366.0,1
980,980,-0.5585842351891133,-0.6,0.0,1.0,311.0,835.0,1.0,0,64.0,1
981,981,-0.5097866023498561,-0.5,0.0,1.0,370.0,617.0,1.0,0,103.0,1
982,982,0.20544293598833574,0.2,1.0,1.0,304.0,920.0,1.0,1,26.0,1
983,983,-0.5858876112346778,-0.6,1.0,0.0,263.0,877.0,0.0,0,870.0,1
984,984,-0.7420701734398089,-0.7,1.0,0.0,462.0,550.0,0.0,0,428.0,1
985,985,-0.020419776863033423,-0.0,0.0,1.0,387.0,856.0,1.0,0,547.0,1
986,986,0.7197374847605665,0.7,0.0,0.0,441.0,711.0,0.0,1,278.0,1
987,987,-0.7525809081846372,-0.8,1.0,0.0,366.0,940.0,0.0,0,3694.0,1
988,988,-0.13192430229012664,-0.1,0.0,1.0,309.0,922.0,1.0,0,979.0,1
989,989,0.03397956116463696,0.0,0.0,0.0,401.0,578.0,1.0,0,3541.0,0
990,990,-0.7970639677398232,-0.8,1.0,0.0,329.0,530.0,0.0,0,471.0,1
991,991,0.8856100452692671,0.9,1.0,1.0,275.0,508.0,1.0,1,227.0,1
992,992,-0.3131237336353093,-0.3,0.0,1.0,366.0,790.0,1.0,0,544.0,1
993,993,0.1926542785271751,0.2,1.0,1.0,478.0,963.0,1.0,1,-271.0,1
994,994,0.012552676629161152,0.0,0.0,0.0,364.0,639.0,1.0,0,-143.0,0
995,995,0.26974270974738734,0.3,1.0,1.0,452.0,527.0,1.0,1,441.0,1
996,996,0.5797527168535755,0.6,0.0,0.0,331.0,737.0,0.0,1,392.0,1
997,997,-0.167653811907844,-0.2,0.0,1.0,380.0,523.0,1.0,0,727.0,1
998,998,0.44787644594604303,0.4,0.0,0.0,338.0,911.0,1.0,0,-139.0,0
999,999,0.561992263880618,0.6,1.0,1.0,272.0,655.0,1.0,1,193.0,1
1000,1000,0.5173758164561039,0.5,0.0,0.0,467.0,675.0,0.0,1,1208.0,1
1001,1001,0.6595613326889543,0.7,1.0,1.0,389.0,597.0,1.0,1,424.0,1
1002,1002,-0.6884680633397113,-0.7,1.0,0.0,285.0,729.0,0.0,0,476.0,1
1003,1003,0.5980180324359236,0.6,1.0,1.0,433.0,750.0,1.0,1,567.0,1
1004,1004,-0.25706469271555676,-0.3,1.0,0.0,276.0,682.0,0.0,0,4042.0,1
1005,1005,0.6328220844520046,0.6,1.0,1.0,308.0,991.0,1.0,1,201.0,1
1006,1006,0.7717711676327844,0.8,0.0,0.0,451.0,993.0,1.0,0,-64.0,0
1007,1007,0.026647377104911052,0.0,0.0,0.0,305.0,838.0,1.0,0,1667.0,0
1008,1008,0.009169046113065238,0.0,0.0,0.0,424.0,683.0,0.0,1,3893.0,1
1009,1009,0.505646072857861,0.5,1.0,1.0,404.0,660.0,1.0,1,686.0,1
1010,1010,-0.128678184395154,-0.1,0.0,1.0,303.0,614.0,1.0,0,423.0,1
1011,1011,0.1886627114579672,0.2,0.0,0.0,392.0,607.0,0.0,1,1171.0,1
1012,1012,0.35846329334576155,0.4,1.0,1.0,447.0,907.0,1.0,1,306.0,1
1013,1013,0.35635780956599616,0.4,1.0,1.0,429.0,884.0,1.0,1,-283.0,1
1014,1014,0.8263363404194183,0.8,0.0,0.0,314.0,554.0,0.0,1,252.0,1
1015,1015,-0.0733190662917872,-0.1,0.0,1.0,383.0,513.0,1.0,0,1784.0,1
1016,1016,0.3499308615169322,0.3,1.0,1.0,256.0,740.0,1.0,1,424.0,1
1017,1017,0.5659903944037089,0.6,0.0,0.0,430.0,616.0,0.0,1,534.0,1
1018,1018,-0.513244866707141,-0.5,0.0,1.0,438.0,998.0,1.0,0,-236.0,1
1019,1019,0.17347075093066955,0.2,0.0,0.0,319.0,731.0,0.0,1,3950.0,1
1020,1020,-0.09248726238549487,-0.1,0.0,1.0,317.0,750.0,1.0,0,1423.0,1
1021,1021,-0.45897421406666566,-0.5,1.0,0.0,301.0,599.0,0.0,0,2360.0,1
1022,1022,0.6924920802753577,0.7,0.0,0.0,389.0,641.0,0.0,1,1320.0,1
1023,1023,0.6444460333312004,0.6,1.0,1.0,322.0,969.0,1.0,1,219.0,1
1024,1024,-0.3050823053537072,-0.3,1.0,0.0,435.0,720.0,0.0,0,1905.0,1
1025,1025,0.4939415199588414,0.5,0.0,0.0,258.0,680.0,0.0,1,1132.0,1
1026,1026,-0.21472721003695372,-0.2,0.0,1.0,282.0,955.0,1.0,0,403.0,1
1027,1027,-0.29635075320755755,-0.3,0.0,1.0,279.0,531.0,1.0,0,460.0,1
1028,1028,-0.5862912640079105,-0.6,0.0,1.0,482.0,998.0,1.0,0,280.0,1
1029,1029,0.6024753665636523,0.6,0.0,0.0,426.0,684.0,0.0,1,340.0,1
1030,1030,-0.6787442847398497,-0.7,1.0,0.0,434.0,632.0,0.0,0,3934.0,1
1031,1031,-0.773455323880453,-0.8,1.0,0.0,387.0,852.0,0.0,0,531.0,1
1032,1032,0.2783000337839764,0.3,1.0,1.0,421.0,579.0,1.0,1,180.0,1
1033,1033,0.3983209740781922,0.4,0.0,0.0,350.0,766.0,0.0,1,1414.0,1
1034,1034,-0.3495686749627175,-0.3,1.0,0.0,459.0,936.0,1.0,1,-355.0,0
1035,1035,-0.34067488830974657,-0.3,0.0,1.0,261.0,727.0,1.0,0,472.0,1
1036,1036,-0.01043272615814883,-0.0,0.0,1.0,424.0,698.0,1.0,0,-262.0,1
1037,1037,0.003272435640525928,0.0,0.0,0.0,262.0,500.0,1.0,0,1248.0,0
1038,1038,-0.0642032933639255,-0.1,0.0,1.0,259.0,606.0,1.0,0,765.0,1
1039,1039,-0.7992409750408429,-0.8,1.0,0.0,327.0,864.0,0.0,0,2019.0,1
1040,1040,0.2781860095061147,0.3,0.0,0.0,492.0,981.0,0.0,1,3127.0,1
1041,1041,-0.8604545708065685,-0.9,0.0,1.0,381.0,929.0,1.0,0,470.0,1
1042,1042,-0.779818806249992,-0.8,1.0,0.0,429.0,597.0,0.0,0,2934.0,1
1043,1043,-0.8299578845028006,-0.8,0.0,1.0,494.0,824.0,1.0,0,312.0,1
1044,1044,0.355046721836891,0.4,1.0,1.0,355.0,848.0,1.0,1,227.0,1
1045,1045,0.8790634076092744,0.9,1.0,1.0,325.0,554.0,1.0,1,241.0,1
1046,1046,0.00789545207313147,0.0,0.0,0.0,380.0,778.0,1.0,0,-38.0,0
1047,1047,0.6424866802064769,0.6,0.0,0.0,293.0,954.0,0.0,1,203.0,1
1048,1048,-0.05990545110748613,-0.1,1.0,0.0,440.0,836.0,1.0,1,554.0,0
1049,1049,0.5135103760046923,0.5,1.0,1.0,404.0,932.0,1.0,1,-106.0,1
1050,1050,0.858646846883666,0.9,1.0,1.0,383.0,624.0,1.0,1,353.0,1
1051,1051,-0.05109214901125392,-0.1,1.0,0.0,255.0,685.0,1.0,1,3370.0,0
1052,1052,-0.11024429132498259,-0.1,1.0,0.0,379.0,751.0,1.0,1,600.0,0
1053,1053,0.6994073683974439,0.7,0.0,0.0,346.0,522.0,0.0,1,762.0,1
1054,1054,-0.16219894364392462,-0.2,0.0,1.0,260.0,613.0,1.0,0,907.0,1
1055,1055,-0.3805018180058468,-0.4,0.0,1.0,419.0,722.0,1.0,0,199.0,1
1056,1056,0.7848826228377247,0.8,0.0,0.0,344.0,920.0,0.0,1,366.0,1
1057,1057,0.0038064218621695067,0.0,1.0,1.0,425.0,877.0,1.0,1,578.0,1
1058,1058,0.5360461778649762,0.5,0.0,0.0,325.0,636.0,0.0,1,329.0,1
1059,1059,0.46596980571646085,0.5,0.0,0.0,488.0,995.0,1.0,0,-263.0,0
1060,1060,0.33394336684000947,0.3,0.0,0.0,454.0,551.0,0.0,1,675.0,1
1061,1061,0.2074033374117389,0.2,0.0,0.0,451.0,941.0,0.0,1,508.0,1
1062,1062,-0.0023218746796522804,-0.0,1.0,0.0,264.0,570.0,1.0,1,1316.0,0
1063,1063,-0.30751600066380547,-0.3,1.0,0.0,436.0,961.0,0.0,0,2403.0,1
1064,1064,-0.6110678090396258,-0.6,1.0,0.0,355.0,862.0,1.0,1,-27.0,0
1065,1065,0.36595621605698925,0.4,1.0,1.0,422.0,545.0,1.0,1,273.0,1
1066,1066,-0.6274598475384381,-0.6,1.0,0.0,315.0,668.0,0.0,0,687.0,1
1067,1067,-0.6201616454232082,-0.6,1.0,0.0,499.0,896.0,0.0,0,1025.0,1
1068,1068,-0.3023752877605911,-0.3,1.0,0.0,442.0,919.0,0.0,0,1039.0,1
1069,1069,-0.288793846881232,-0.3,1.0,0.0,300.0,869.0,0.0,0,1301.0,1
1070,1070,-0.574087781132089,-0.6,0.0,1.0,383.0,792.0,1.0,0,5.0,1
1071,1071,0.4153999220253429,0.4,0.0,0.0,381.0,741.0,0.0,1,738.0,1
1072,1072,-0.8302060253219885,-0.8,1.0,0.0,420.0,752.0,0.0,0,368.0,1
1073,1073,0.1641193228806005,0.2,0.0,0.0,360.0,588.0,1.0,0,-248.0,0
1074,1074,0.3225764366259033,0.3,0.0,0.0,492.0,519.0,0.0,1,639.0,1
1075,1075,-0.017463864125385364,-0.0,1.0,0.0,426.0,616.0,1.0,1,3958.0,0
1076,1076,0.3914766865587528,0.4,1.0,1.0,408.0,779.0,1.0,1,493.0,1
1077,1077,0.08844061134089232,0.1,1.0,1.0,264.0,972.0,1.0,1,764.0,1
1078,1078,-0.8279720695685099,-0.8,1.0,0.0,335.0,725.0,0.0,0,590.0,1
1079,1079,0.5825094105085792,0.6,0.0,0.0,409.0,935.0,0.0,1,536.0,1
1080,1080,0.16532371988421202,0.2,1.0,1.0,496.0,596.0,1.0,1,518.0,1
1081,1081,-0.05510874142472977,-0.1,0.0,1.0,414.0,769.0,1.0,0,337.0,1
1082,1082,0.7648980028522808,0.8,0.0,0.0,350.0,814.0,0.0,1,486.0,1
1083,1083,0.5832582635376803,0.6,1.0,1.0,492.0,842.0,1.0,1,136.0,1
1084,1084,-0.7301483690598835,-0.7,0.0,1.0,260.0,925.0,1.0,0,35.0,1
1085,1085,0.3243086486390495,0.3,1.0,1.0,429.0,960.0,1.0,1,361.0,1
1086,1086,-0.31712772523828825,-0.3,0.0,1.0,397.0,946.0,1.0,0,107.0,1
1087,1087,-0.3155740862590726,-0.3,0.0,1.0,317.0,521.0,1.0,0,262.0,1
1088,1088,-0.8684420521000734,-0.9,1.0,0.0,488.0,960.0,0.0,0,562.0,1
1089,1089,0.835938389803084,0.8,0.0,0.0,289.0,570.0,0.0,1,301.0,1
1090,1090,-0.21937517857111222,-0.2,0.0,1.0,253.0,899.0,1.0,0,298.0,1
1091,1091,-0.21399726683992604,-0.2,0.0,1.0,308.0,954.0,1.0,0,428.0,1
1092,1092,-0.7464229143351355,-0.7,1.0,0.0,454.0,572.0,0.0,0,564.0,1
1093,1093,-0.3436630817938553,-0.3,0.0,1.0,255.0,614.0,1.0,0,11.0,1
1094,1094,0.39988196368590045,0.4,1.0,1.0,359.0,791.0,1.0,1,170.0,1
1095,1095,0.37051503447008993,0.4,1.0,1.0,385.0,663.0,1.0,1,312.0,1
1096,1096,-0.13862369755120862,-0.1,1.0,0.0,258.0,868.0,1.0,1,1384.0,0
1097,1097,-0.33895780212576954,-0.3,1.0,0.0,376.0,581.0,0.0,0,823.0,1
1098,1098,-0.27893461921958984,-0.3,0.0,1.0,336.0,919.0,1.0,0,95.0,1
1099,1099,-0.8388168885448779,-0.8,1.0,0.0,462.0,779.0,0.0,0,299.0,1
1100,1100,-0.2042899020675898,-0.2,1.0,0.0,444.0,691.0,0.0,0,535.0,1
1101,1101,-0.5514921338086092,-0.6,0.0,1.0,381.0,835.0,1.0,0,164.0,1
1102,1102,-0.397721305169612,-0.4,1.0,0.0,347.0,935.0,0.0,0,808.0,1
1103,1103,0.10106160490091709,0.1,1.0,1.0,438.0,858.0,1.0,1,1084.0,1
1104,1104,-0.6980841739087751,-0.7,1.0,0.0,280.0,614.0,0.0,0,686.0,1
1105,1105,0.8862315890741334,0.9,0.0,0.0,394.0,956.0,0.0,1,1660.0,1
1106,1106,0.36084116375336717,0.4,1.0,1.0,416.0,899.0,1.0,1,385.0,1
1107,1107,0.106238531157966,0.1,0.0,0.0,400.0,896.0,1.0,0,1344.0,0
1108,1108,-0.19661019212821162,-0.2,1.0,0.0,250.0,541.0,0.0,0,4209.0,1
1109,1109,-0.7474442034323562,-0.7,0.0,1.0,467.0,658.0,1.0,0,235.0,1
1110,1110,-0.06544704073653584,-0.1,0.0,1.0,432.0,639.0,1.0,0,729.0,1
1111,1111,-0.26444317451331445,-0.3,1.0,0.0,451.0,598.0,0.0,0,1021.0,1
1112,1112,-0.5594041908650117,-0.6,1.0,0.0,403.0,547.0,0.0,0,510.0,1
1113,1113,-0.2214989239212276,-0.2,1.0,0.0,414.0,746.0,0.0,0,3800.0,1
1114,1114,-0.11059720571914589,-0.1,1.0,0.0,445.0,689.0,1.0,1,1186.0,0
1115,1115,-0.8313515626150633,-0.8,0.0,1.0,394.0,624.0,1.0,0,242.0,1
1116,1116,-0.6398534739469852,-0.6,1.0,0.0,354.0,932.0,0.0,0,2284.0,1
1117,1117,0.8601103894462377,0.9,1.0,1.0,258.0,950.0,1.0,1,92.0,1
1118,1118,-0.24460431147492956,-0.2,0.0,1.0,272.0,504.0,1.0,0,344.0,1
1119,1119,-0.49128063638078234,-0.5,0.0,1.0,485.0,600.0,1.0,0,115.0,1
1120,1120,-0.824988378368119,-0.8,1.0,0.0,415.0,587.0,0.0,0,3998.0,1
1121,1121,-0.7443990851447065,-0.7,1.0,0.0,472.0,554.0,0.0,0,194.0,1
1122,1122,0.16724839284777582,0.2,1.0,1.0,374.0,895.0,1.0,1,81.0,1
1123,1123,-0.6305172129566331,-0.6,1.0,0.0,400.0,909.0,0.0,0,811.0,1
1124,1124,-0.7579315459821389,-0.8,0.0,1.0,395.0,767.0,1.0,0,128.0,1
1125,1125,0.3823418265233315,0.4,0.0,0.0,468.0,975.0,1.0,0,17.0,0
1126,1126,-0.458721983029485,-0.5,0.0,1.0,449.0,716.0,1.0,0,-95.0,1
1127,1127,-0.507262702390054,-0.5,0.0,1.0,301.0,824.0,1.0,0,215.0,1
1128,1128,-0.31929537140135866,-0.3,0.0,1.0,367.0,813.0,1.0,0,430.0,1
1129,1129,0.13777342384691094,0.1,0.0,0.0,268.0,703.0,1.0,0,59.0,0
1130,1130,0.04582797382443715,0.0,1.0,1.0,276.0,838.0,1.0,1,-134.0,1
1131,1131,-0.010981942243244225,-0.0,0.0,1.0,454.0,591.0,1.0,0,525.0,1
1132,1132,0.01423641023196609,0.0,0.0,0.0,271.0,925.0,1.0,0,1834.0,0
1133,1133,0.7942764305284217,0.8,1.0,1.0,384.0,907.0,1.0,1,379.0,1
1134,1134,-0.7975094246076451,-0.8,1.0,0.0,468.0,530.0,0.0,0,302.0,1
1135,1135,0.6925853214857901,0.7,0.0,0.0,337.0,603.0,0.0,1,240.0,1
1136,1136,0.387765725887245,0.4,1.0,1.0,295.0,747.0,1.0,1,568.0,1
1137,1137,0.7713133433896898,0.8,0.0,0.0,442.0,919.0,0.0,1,-281.0,1
1138,1138,0.4137024110984334,0.4,1.0,1.0,307.0,627.0,1.0,1,486.0,1
1139,1139,0.35692317682796604,0.4,0.0,0.0,309.0,921.0,0.0,1,710.0,1
1140,1140,0.17572280120962913,0.2,1.0,1.0,436.0,914.0,1.0,1,1170.0,1
1141,1141,0.7389449853840381,0.7,1.0,1.0,473.0,609.0,1.0,1,158.0,1
1142,1142,0.04973714364389947,0.0,1.0,1.0,305.0,694.0,1.0,1,281.0,1
1143,1143,0.18300000736177358,0.2,0.0,0.0,274.0,817.0,1.0,0,-321.0,0
1144,1144,-0.6298206094008412,-0.6,1.0,0.0,450.0,625.0,0.0,0,525.0,1
1145,1145,-0.4085077923262458,-0.4,0.0,1.0,462.0,603.0,1.0,0,615.0,1
1146,1146,-0.8930046365235688,-0.9,1.0,0.0,461.0,503.0,0.0,0,3446.0,1
1147,1147,0.4993502380639433,0.5,0.0,0.0,440.0,797.0,0.0,1,333.0,1
1148,1148,0.4250059926874935,0.4,1.0,1.0,277.0,648.0,1.0,1,795.0,1
1149,1149,-0.5992653324858817,-0.6,1.0,0.0,495.0,723.0,0.0,0,992.0,1
1150,1150,0.7959794014919715,0.8,0.0,0.0,457.0,534.0,0.0,1,969.0,1
1151,1151,0.5098128632160926,0.5,0.0,0.0,499.0,907.0,0.0,1,1144.0,1
1152,1152,-0.09473444535305897,-0.1,0.0,1.0,325.0,744.0,1.0,0,711.0,1
1153,1153,-0.22844995505362342,-0.2,1.0,0.0,287.0,963.0,0.0,0,2010.0,1
1154,1154,-0.20933620454204382,-0.2,1.0,0.0,488.0,857.0,0.0,0,2215.0,1
1155,1155,0.018644223938601878,0.0,1.0,1.0,453.0,939.0,1.0,1,638.0,1
1156,1156,-0.4277807537088171,-0.4,1.0,0.0,303.0,720.0,0.0,0,1297.0,1
1157,1157,-0.1205811376968311,-0.1,1.0,0.0,487.0,512.0,1.0,1,2871.0,0
1158,1158,0.5950455881680693,0.6,0.0,0.0,429.0,597.0,0.0,1,764.0,1
1159,1159,-0.7672105829301625,-0.8,1.0,0.0,316.0,790.0,0.0,0,824.0,1
1160,1160,0.5572092957106812,0.6,0.0,0.0,303.0,971.0,0.0,1,846.0,1
1161,1161,0.44214707553056065,0.4,0.0,0.0,402.0,803.0,0.0,1,635.0,1
1162,1162,-0.002764758387618804,-0.0,0.0,1.0,289.0,951.0,1.0,0,1750.0,1
1163,1163,-0.6277518882790534,-0.6,0.0,1.0,471.0,699.0,1.0,0,290.0,1
1164,1164,-0.1922218933179639,-0.2,0.0,1.0,316.0,659.0,1.0,0,495.0,1
1165,1165,-0.25332931334196074,-0.3,1.0,0.0,380.0,896.0,0.0,0,2634.0,1
1166,1166,0.8361307416560227,0.8,1.0,1.0,434.0,625.0,1.0,1,731.0,1
1167,1167,0.2264489922631049,0.2,1.0,1.0,404.0,805.0,1.0,1,281.0,1
1168,1168,-0.5372896062417933,-0.5,0.0,1.0,277.0,548.0,1.0,0,275.0,1
1169,1169,-0.4546039997783403,-0.5,1.0,0.0,261.0,602.0,0.0,0,1707.0,1
1170,1170,0.8668046813814164,0.9,0.0,0.0,444.0,599.0,0.0,1,427.0,1
1171,1171,-0.10259161431922637,-0.1,0.0,1.0,454.0,517.0,1.0,0,309.0,1
1172,1172,-0.7696718870468583,-0.8,1.0,0.0,365.0,604.0,0.0,0,941.0,1
1173,1173,-0.7063839762142596,-0.7,0.0,1.0,288.0,870.0,1.0,0,112.0,1
1174,1174,-0.582510452232093,-0.6,0.0,1.0,456.0,599.0,1.0,0,185.0,1
1175,1175,0.11470223544425295,0.1,0.0,0.0,304.0,828.0,1.0,0,3588.0,0
1176,1176,-0.7887426066400948,-0.8,0.0,1.0,491.0,548.0,1.0,0,331.0,1
1177,1177,-0.5305142359000028,-0.5,1.0,0.0,353.0,942.0,0.0,0,695.0,1
1178,1178,0.41838441339914734,0.4,1.0,1.0,402.0,815.0,1.0,1,283.0,1
1179,1179,0.466045330674559,0.5,0.0,0.0,388.0,905.0,1.0,0,-533.0,0
1180,1180,0.5696309262209193,0.6,1.0,1.0,431.0,510.0,1.0,1,379.0,1
1181,1181,-0.5112697299654536,-0.5,1.0,0.0,310.0,688.0,0.0,0,1002.0,1
1182,1182,-0.6787463376796682,-0.7,1.0,0.0,366.0,584.0,0.0,0,610.0,1
1183,1183,0.016069803278561223,0.0,0.0,0.0,288.0,815.0,1.0,0,-353.0,0
1184,1184,0.5687718469768733,0.6,1.0,1.0,425.0,613.0,1.0,1,242.0,1
1185,1185,0.5783321093652513,0.6,1.0,1.0,323.0,704.0,1.0,1,313.0,1
1186,1186,0.3219537575322641,0.3,0.0,0.0,274.0,735.0,0.0,1,1181.0,1
1187,1187,0.47277047105321646,0.5,1.0,1.0,402.0,512.0,1.0,1,586.0,1
1188,1188,0.8386991886810183,0.8,0.0,0.0,363.0,527.0,0.0,1,690.0,1
1189,1189,-0.21332450918561774,-0.2,1.0,0.0,422.0,660.0,0.0,0,3918.0,1
1190,1190,0.33265146980518134,0.3,0.0,0.0,269.0,719.0,0.0,1,1782.0,1
1191,1191,0.3332048272486142,0.3,1.0,1.0,401.0,876.0,1.0,1,3.0,1
1192,1192,-0.5976687716132727,-0.6,0.0,1.0,407.0,784.0,1.0,0,359.0,1
1193,1193,-0.8125100449808245,-0.8,0.0,1.0,499.0,704.0,1.0,0,277.0,1
1194,1194,-0.7266319867900398,-0.7,1.0,0.0,340.0,655.0,0.0,0,665.0,1
1195,1195,0.8681812798716034,0.9,0.0,0.0,414.0,916.0,0.0,1,380.0,1
1196,1196,0.159175016176334,0.2,1.0,1.0,362.0,575.0,1.0,1,653.0,1
1197,1197,-0.7709389207491735,-0.8,0.0,1.0,447.0,697.0,1.0,0,206.0,1
1198,1198,-0.30541500123150833,-0.3,0.0,1.0,364.0,816.0,1.0,0,170.0,1
1199,1199,0.8238478423109893,0.8,1.0,1.0,277.0,582.0,1.0,1,211.0,1
1200,1200,0.1588509195497244,0.2,0.0,0.0,353.0,611.0,1.0,0,4036.0,0
1201,1201,-0.2553621520272711,-0.3,0.0,1.0,356.0,536.0,1.0,0,458.0,1
1202,1202,0.8613644558378254,0.9,0.0,0.0,393.0,751.0,0.0,1,396.0,1
1203,1203,-0.7481656813694024,-0.7,1.0,0.0,461.0,591.0,0.0,0,738.0,1
1204,1204,0.421085284343249,0.4,1.0,1.0,445.0,881.0,1.0,1,184.0,1
1205,1205,0.433868412099898,0.4,1.0,1.0,413.0,582.0,1.0,1,415.0,1
1206,1206,0.7108901249576739,0.7,0.0,0.0,277.0,849.0,0.0,1,964.0,1
1207,1207,0.28201000668814846,0.3,0.0,0.0,273.0,621.0,0.0,1,1496.0,1
1208,1208,0.5377676415355342,0.5,0.0,0.0,440.0,961.0,0.0,1,499.0,1
1209,1209,0.7423442572426356,0.7,0.0,0.0,255.0,617.0,0.0,1,208.0,1
1210,1210,0.4200836553048809,0.4,0.0,0.0,382.0,506.0,0.0,1,362.0,1
1211,1211,-0.556845540245774,-0.6,1.0,0.0,389.0,502.0,0.0,0,269.0,1
1212,1212,-0.8563316137820242,-0.9,1.0,0.0,370.0,954.0,0.0,0,746.0,1
1213,1213,0.1385549863758836,0.1,1.0,1.0,473.0,765.0,1.0,1,12.0,1
1214,1214,-0.33907232861764025,-0.3,1.0,0.0,290.0,504.0,0.0,0,996.0,1
1215,1215,0.8516488194093411,0.9,0.0,0.0,467.0,939.0,0.0,1,544.0,1
1216,1216,-0.09202241329233751,-0.1,1.0,0.0,437.0,881.0,0.0,0,3682.0,1
1217,1217,-0.22663899543145083,-0.2,0.0,1.0,431.0,753.0,1.0,0,326.0,1
1218,1218,-0.8815685623235647,-0.9,1.0,0.0,420.0,695.0,0.0,0,3885.0,1
1219,1219,-0.6087452586626609,-0.6,1.0,0.0,389.0,751.0,0.0,0,1190.0,1
1220,1220,-0.5877463350538774,-0.6,0.0,1.0,379.0,691.0,1.0,0,280.0,1
1221,1221,0.03348565365046485,0.0,0.0,0.0,453.0,852.0,1.0,0,3375.0,0
1222,1222,0.08987351360449303,0.1,1.0,1.0,441.0,757.0,1.0,1,282.0,1
1223,1223,-0.3843606224413795,-0.4,1.0,0.0,442.0,903.0,0.0,0,725.0,1
1224,1224,-0.08878432000739889,-0.1,0.0,1.0,461.0,563.0,1.0,0,926.0,1
1225,1225,-0.49738578408700423,-0.5,0.0,1.0,345.0,585.0,1.0,0,290.0,1
1226,1226,-0.24613692036301882,-0.2,0.0,1.0,352.0,803.0,1.0,0,125.0,1
1227,1227,0.7773828339722301,0.8,1.0,1.0,453.0,561.0,1.0,1,566.0,1
1228,1228,-0.0005367709166715917,-0.0,1.0,0.0,395.0,995.0,1.0,1,90.0,0
1229,1229,-0.5120719610290003,-0.5,0.0,1.0,276.0,728.0,1.0,0,116.0,1
1230,1230,-0.7127370630127821,-0.7,0.0,1.0,445.0,907.0,1.0,0,78.0,1
1231,1231,-0.16126213546873092,-0.2,0.0,1.0,268.0,797.0,1.0,0,445.0,1
1232,1232,-0.6454508898869302,-0.6,1.0,0.0,433.0,645.0,1.0,1,12.0,0
1233,1233,-0.33372174443389213,-0.3,0.0,1.0,480.0,958.0,1.0,0,-128.0,1
1234,1234,-0.016642389165510085,-0.0,0.0,1.0,496.0,519.0,1.0,0,1095.0,1
1235,1235,-0.5410453689296315,-0.5,0.0,1.0,301.0,539.0,1.0,0,350.0,1
1236,1236,0.06671731366666644,0.1,1.0,1.0,316.0,925.0,1.0,1,1139.0,1
1237,1237,-0.6220118475829752,-0.6,1.0,0.0,494.0,773.0,0.0,0,653.0,1
1238,1238,0.2980301678669185,0.3,1.0,1.0,374.0,716.0,1.0,1,170.0,1
1239,1239,-0.61622884266728,-0.6,1.0,0.0,395.0,780.0,0.0,0,485.0,1
1240,1240,0.025601578888472032,0.0,1.0,1.0,290.0,769.0,1.0,1,921.0,1
1241,1241,-0.045163575121274335,-0.0,0.0,1.0,416.0,519.0,1.0,0,615.0,1
1242,1242,0.3263879334053207,0.3,1.0,1.0,384.0,929.0,1.0,1,-3.0,1
1243,1243,0.43312702143431114,0.4,1.0,1.0,257.0,752.0,1.0,1,291.0,1
1244,1244,-0.8726170608573081,-0.9,0.0,1.0,419.0,797.0,1.0,0,-56.0,1
1245,1245,-0.4259854884664071,-0.4,0.0,1.0,480.0,674.0,1.0,0,456.0,1
1246,1246,-0.4565385606288928,-0.5,0.0,1.0,288.0,687.0,1.0,0,225.0,1
1247,1247,0.3941023080163647,0.4,0.0,0.0,345.0,788.0,0.0,1,1047.0,1
1248,1248,0.5466023442259719,0.5,1.0,1.0,431.0,847.0,1.0,1,152.0,1
1249,1249,0.17446287879408906,0.2,0.0,0.0,427.0,881.0,1.0,0,-128.0,0
1250,1250,-0.7936096774195869,-0.8,1.0,0.0,467.0,783.0,1.0,1,-230.0,0
1251,1251,0.5224581185426013,0.5,0.0,0.0,456.0,977.0,0.0,1,987.0,1
1252,1252,0.7465345469408234,0.7,1.0,1.0,275.0,634.0,1.0,1,261.0,1
1253,1253,-0.45600717520528167,-0.5,0.0,1.0,411.0,868.0,1.0,0,341.0,1
1254,1254,0.687041867340925,0.7,1.0,1.0,385.0,963.0,1.0,1,202.0,1
1255,1255,-0.2989798255233961,-0.3,0.0,1.0,312.0,783.0,1.0,0,275.0,1
1256,1256,0.7468887707230164,0.7,1.0,1.0,387.0,802.0,1.0,1,391.0,1
1257,1257,-0.4142163556462806,-0.4,0.0,1.0,383.0,651.0,1.0,0,456.0,1
1258,1258,0.8954384160975256,0.9,0.0,0.0,323.0,631.0,1.0,0,-14.0,0
1259,1259,0.7157644915144515,0.7,0.0,0.0,361.0,725.0,0.0,1,244.0,1
1260,1260,-0.2030203566280364,-0.2,0.0,1.0,281.0,591.0,1.0,0,728.0,1
1261,1261,-0.3516467501651699,-0.4,0.0,1.0,279.0,701.0,1.0,0,260.0,1
1262,1262,0.761230274966353,0.8,1.0,1.0,334.0,980.0,1.0,1,166.0,1
1263,1263,0.7010362327325724,0.7,0.0,0.0,460.0,599.0,0.0,1,471.0,1
1264,1264,0.42856831975513654,0.4,0.0,0.0,314.0,625.0,1.0,0,-119.0,0
1265,1265,0.2971108430854933,0.3,1.0,1.0,493.0,812.0,1.0,1,325.0,1
1266,1266,-0.3369632066564534,-0.3,0.0,1.0,407.0,984.0,1.0,0,329.0,1
1267,1267,-0.36003244466523376,-0.4,1.0,0.0,367.0,663.0,0.0,0,630.0,1
1268,1268,-0.8566900528104289,-0.9,1.0,0.0,459.0,940.0,0.0,0,2121.0,1
1269,1269,0.18134717748159968,0.2,0.0,0.0,498.0,716.0,0.0,1,3786.0,1
1270,1270,0.01812229032910717,0.0,1.0,1.0,407.0,983.0,1.0,1,80.0,1
1271,1271,-0.10051521999093205,-0.1,1.0,0.0,291.0,923.0,0.0,0,3786.0,1
1272,1272,-0.12528489293391565,-0.1,0.0,1.0,305.0,729.0,1.0,0,1506.0,1
1273,1273,0.0988337595496751,0.1,1.0,1.0,338.0,994.0,1.0,1,1798.0,1
1274,1274,0.5319377904775427,0.5,0.0,0.0,255.0,715.0,0.0,1,350.0,1
1275,1275,-0.10998990711382395,-0.1,1.0,0.0,418.0,658.0,1.0,1,3924.0,0
1276,1276,-0.3037730494903481,-0.3,1.0,0.0,471.0,684.0,0.0,0,965.0,1
1277,1277,-0.4174543659031444,-0.4,1.0,0.0,488.0,554.0,0.0,0,1108.0,1
1278,1278,-0.43344026496214844,-0.4,0.0,1.0,397.0,911.0,1.0,0,12.0,1
1279,1279,-0.698578685171431,-0.7,1.0,0.0,320.0,804.0,0.0,0,616.0,1
1280,1280,0.13933234284202178,0.1,0.0,0.0,436.0,907.0,0.0,1,3657.0,1
1281,1281,0.6715280102060893,0.7,0.0,0.0,396.0,947.0,0.0,1,247.0,1
1282,1282,0.34779240736775574,0.3,1.0,1.0,496.0,656.0,1.0,1,-82.0,1
1283,1283,0.5569515866584643,0.6,0.0,0.0,378.0,568.0,0.0,1,604.0,1
1284,1284,0.7545294527804972,0.8,1.0,1.0,312.0,830.0,1.0,1,178.0,1
1285,1285,0.0966328080408152,0.1,0.0,0.0,341.0,926.0,1.0,0,2403.0,0
1286,1286,-0.8255275648770141,-0.8,0.0,1.0,350.0,761.0,1.0,0,109.0,1
1287,1287,-0.5074864692579484,-0.5,1.0,0.0,403.0,585.0,0.0,0,1372.0,1
1288,1288,-0.5187535341477436,-0.5,0.0,1.0,488.0,848.0,1.0,0,334.0,1
1289,1289,-0.49656760793216015,-0.5,1.0,0.0,458.0,809.0,0.0,0,443.0,1
1290,1290,0.7855625173685757,0.8,0.0,0.0,377.0,717.0,0.0,1,446.0,1
1291,1291,-0.004712641899442094,-0.0,1.0,0.0,486.0,899.0,1.0,1,-85.0,0
1292,1292,-0.25603647620559944,-0.3,0.0,1.0,485.0,931.0,1.0,0,404.0,1
1293,1293,-0.6464801188423515,-0.6,0.0,1.0,330.0,882.0,1.0,0,38.0,1
1294,1294,0.1747529372762805,0.2,0.0,0.0,280.0,800.0,1.0,0,0.0,0
1295,1295,-0.4821409565279146,-0.5,1.0,0.0,349.0,671.0,0.0,0,1080.0,1
1296,1296,0.021764015473450415,0.0,1.0,1.0,289.0,804.0,1.0,1,1267.0,1
1297,1297,-0.4687340998084368,-0.5,0.0,1.0,457.0,521.0,1.0,0,452.0,1
1298,1298,-0.8461944500144969,-0.8,1.0,0.0,389.0,517.0,0.0,0,784.0,1
1299,1299,0.35195490878649516,0.4,0.0,0.0,280.0,761.0,0.0,1,449.0,1
1300,1300,-0.7684757438208963,-0.8,0.0,1.0,460.0,928.0,1.0,0,222.0,1
1301,1301,0.5349956807517574,0.5,0.0,0.0,494.0,543.0,0.0,1,643.0,1
1302,1302,0.14891102427201608,0.1,0.0,0.0,479.0,609.0,1.0,0,252.0,0
1303,1303,-0.6170331569923724,-0.6,1.0,0.0,352.0,792.0,0.0,0,276.0,1
1304,1304,0.02612733055115013,0.0,0.0,0.0,255.0,828.0,1.0,0,837.0,0
1305,1305,-0.34326888024075375,-0.3,1.0,0.0,465.0,940.0,1.0,1,-85.0,0
1306,1306,0.1161252951370132,0.1,1.0,1.0,405.0,637.0,1.0,1,-402.0,1
1307,1307,0.12913489015317492,0.1,1.0,1.0,352.0,816.0,1.0,1,642.0,1
1308,1308,0.13714907061244108,0.1,0.0,0.0,295.0,917.0,0.0,1,3788.0,1
1309,1309,-0.2059435793216795,-0.2,0.0,1.0,397.0,822.0,1.0,0,31.0,1
1310,1310,0.1703516040089762,0.2,0.0,0.0,493.0,836.0,0.0,1,2451.0,1
1311,1311,-0.7356886439559517,-0.7,0.0,1.0,414.0,929.0,1.0,0,-113.0,1
1312,1312,0.719456334567408,0.7,0.0,0.0,274.0,846.0,0.0,1,470.0,1
1313,1313,-0.39221798880361514,-0.4,0.0,1.0,269.0,523.0,1.0,0,368.0,1
1314,1314,0.47873047050608986,0.5,1.0,1.0,397.0,523.0,1.0,1,260.0,1
1315,1315,0.5075463215739905,0.5,0.0,0.0,478.0,886.0,0.0,1,736.0,1
1316,1316,-0.3802558654328253,-0.4,1.0,0.0,395.0,869.0,0.0,0,1916.0,1
1317,1317,-0.6699183172110978,-0.7,1.0,0.0,357.0,649.0,0.0,0,954.0,1
1318,1318,-0.4568343393583684,-0.5,1.0,0.0,349.0,568.0,0.0,0,633.0,1
1319,1319,-0.03684513999298178,-0.0,0.0,1.0,428.0,911.0,1.0,0,311.0,1
1320,1320,-0.4560899065861221,-0.5,1.0,0.0,287.0,731.0,0.0,0,1372.0,1
1321,1321,-0.5836323600505353,-0.6,0.0,1.0,376.0,669.0,1.0,0,305.0,1
1322,1322,0.32577329662365806,0.3,0.0,0.0,314.0,983.0,1.0,0,-617.0,0
1323,1323,-0.2606478912305533,-0.3,0.0,1.0,268.0,901.0,1.0,0,-39.0,1
1324,1324,0.8159588685202576,0.8,1.0,1.0,282.0,931.0,1.0,1,167.0,1
1325,1325,-0.460481918120404,-0.5,0.0,1.0,449.0,918.0,1.0,0,303.0,1
1326,1326,0.6188894517203788,0.6,0.0,0.0,268.0,629.0,0.0,1,693.0,1
1327,1327,0.8163827049118612,0.8,0.0,0.0,251.0,740.0,0.0,1,359.0,1
1328,1328,0.24565832012633393,0.2,0.0,0.0,438.0,539.0,0.0,1,2233.0,1
1329,1329,0.684817125587028,0.7,0.0,0.0,413.0,740.0,0.0,1,337.0,1
1330,1330,-0.8074645807089916,-0.8,0.0,1.0,407.0,690.0,1.0,0,493.0,1
1331,1331,-0.4062881764817608,-0.4,0.0,1.0,304.0,519.0,1.0,0,317.0,1
1332,1332,-0.8066952032420897,-0.8,0.0,1.0,446.0,816.0,1.0,0,248.0,1
1333,1333,-0.38727869821852157,-0.4,0.0,1.0,355.0,889.0,1.0,0,446.0,1
1334,1334,0.7646062456151289,0.8,0.0,0.0,455.0,662.0,0.0,1,143.0,1
1335,1335,0.8440223634526755,0.8,0.0,0.0,488.0,693.0,0.0,1,419.0,1
1336,1336,0.09394643895631283,0.1,0.0,0.0,259.0,724.0,1.0,0,4017.0,0
1337,1337,0.03404822167133692,0.0,1.0,1.0,293.0,645.0,1.0,1,1102.0,1
1338,1338,-0.7077613190858347,-0.7,1.0,0.0,374.0,819.0,0.0,0,3747.0,1
1339,1339,0.30956063852703763,0.3,0.0,0.0,265.0,643.0,0.0,1,1152.0,1
1340,1340,-0.8260377865389102,-0.8,0.0,1.0,425.0,789.0,1.0,0,246.0,1
1341,1341,0.19646006557217544,0.2,0.0,0.0,473.0,601.0,1.0,0,26.0,0
1342,1342,0.20667592625790288,0.2,1.0,1.0,262.0,527.0,1.0,1,871.0,1
1343,1343,-0.7050271528633139,-0.7,1.0,0.0,305.0,829.0,0.0,0,2236.0,1
1344,1344,-0.17909545170000762,-0.2,1.0,0.0,384.0,758.0,0.0,0,3858.0,1
1345,1345,-0.3443359995817634,-0.3,1.0,0.0,295.0,914.0,0.0,0,1441.0,1
1346,1346,0.8112330893844627,0.8,0.0,0.0,358.0,574.0,1.0,0,-62.0,0
1347,1347,-0.43367997157799987,-0.4,1.0,0.0,431.0,622.0,0.0,0,1557.0,1
1348,1348,-0.2767772498163946,-0.3,1.0,0.0,427.0,746.0,0.0,0,827.0,1
1349,1349,-0.5101331495302928,-0.5,0.0,1.0,363.0,806.0,1.0,0,401.0,1
1350,1350,-0.17847921371913233,-0.2,1.0,0.0,405.0,568.0,0.0,0,4027.0,1
1351,1351,-0.35121322289396584,-0.4,0.0,1.0,304.0,626.0,1.0,0,290.0,1
1352,1352,0.4505528523488517,0.5,0.0,0.0,256.0,589.0,0.0,1,595.0,1
1353,1353,0.6955204059557433,0.7,0.0,0.0,373.0,955.0,0.0,1,382.0,1
1354,1354,0.8964431182063103,0.9,1.0,1.0,251.0,918.0,1.0,1,381.0,1
1355,1355,-0.15158808463911755,-0.2,1.0,0.0,300.0,902.0,1.0,1,888.0,0
1356,1356,-0.2580721868709144,-0.3,0.0,1.0,383.0,911.0,1.0,0,476.0,1
1357,1357,0.10499354561139562,0.1,1.0,1.0,253.0,710.0,1.0,1,1227.0,1
1358,1358,-0.8330259818817414,-0.8,1.0,0.0,428.0,664.0,1.0,1,-262.0,0
1359,1359,-0.7809100060018495,-0.8,1.0,0.0,483.0,641.0,0.0,0,1696.0,1
1360,1360,-0.5427319694102475,-0.5,0.0,1.0,420.0,663.0,1.0,0,327.0,1
1361,1361,0.7611227246626399,0.8,0.0,0.0,286.0,630.0,0.0,1,2224.0,1
1362,1362,0.7865450003055786,0.8,0.0,0.0,437.0,617.0,0.0,1,3886.0,1
1363,1363,-0.5747641078496513,-0.6,1.0,0.0,312.0,751.0,0.0,0,487.0,1
1364,1364,0.398960204003458,0.4,1.0,1.0,364.0,874.0,1.0,1,172.0,1
1365,1365,-0.4517150044443022,-0.5,1.0,0.0,259.0,774.0,0.0,0,1277.0,1
1366,1366,0.06533256207340432,0.1,0.0,0.0,304.0,906.0,0.0,1,160.0,1
1367,1367,0.8980034155987037,0.9,1.0,1.0,294.0,675.0,1.0,1,151.0,1
1368,1368,0.1175833170339805,0.1,1.0,1.0,442.0,601.0,1.0,1,1177.0,1
1369,1369,0.06387759861134612,0.1,0.0,0.0,339.0,982.0,1.0,0,689.0,0
1370,1370,-0.2418673321115612,-0.2,0.0,1.0,310.0,898.0,1.0,0,172.0,1
1371,1371,-0.36930272009122633,-0.4,1.0,0.0,252.0,840.0,0.0,0,608.0,1
1372,1372,-0.8705249585676854,-0.9,0.0,1.0,459.0,710.0,1.0,0,171.0,1
1373,1373,-0.8920489921229495,-0.9,1.0,0.0,395.0,770.0,0.0,0,3835.0,1
1374,1374,-0.4591527647510823,-0.5,0.0,1.0,484.0,948.0,1.0,0,238.0,1
1375,1375,-0.8828210222568206,-0.9,1.0,0.0,491.0,704.0,0.0,0,355.0,1
1376,1376,-0.6371612379257081,-0.6,1.0,0.0,312.0,738.0,0.0,0,520.0,1
1377,1377,0.39153994638170275,0.4,1.0,1.0,296.0,837.0,1.0,1,197.0,1
1378,1378,0.6455156848834603,0.6,1.0,1.0,418.0,879.0,1.0,1,343.0,1
1379,1379,-0.8177653190141889,-0.8,1.0,0.0,271.0,598.0,0.0,0,741.0,1
1380,1380,-0.028678028178181436,-0.0,0.0,1.0,446.0,650.0,1.0,0,514.0,1
1381,1381,0.6890814977906311,0.7,1.0,1.0,323.0,909.0,1.0,1,-52.0,1
1382,1382,-0.28615903784897456,-0.3,1.0,0.0,262.0,904.0,0.0,0,3834.0,1
1383,1383,0.3765460325364359,0.4,1.0,1.0,486.0,731.0,1.0,1,213.0,1
1384,1384,-0.543372728720723,-0.5,1.0,0.0,323.0,508.0,0.0,0,509.0,1
1385,1385,0.6542699973502083,0.7,0.0,0.0,418.0,803.0,0.0,1,769.0,1
1386,1386,0.4306047903309943,0.4,1.0,1.0,287.0,825.0,1.0,1,248.0,1
1387,1387,0.10102177591908623,0.1,1.0,1.0,289.0,760.0,1.0,1,751.0,1
1388,1388,0.5598551389351166,0.6,1.0,1.0,353.0,730.0,1.0,1,237.0,1
1389,1389,0.316904902408525,0.3,0.0,0.0,403.0,806.0,0.0,1,781.0,1
1390,1390,0.5352003749210806,0.5,1.0,1.0,257.0,516.0,1.0,1,297.0,1
1391,1391,-0.6800326461661198,-0.7,0.0,1.0,363.0,614.0,1.0,0,363.0,1
1392,1392,0.45178676968652354,0.5,0.0,0.0,402.0,602.0,0.0,1,476.0,1
1393,1393,0.5743974167571751,0.6,0.0,0.0,409.0,954.0,0.0,1,507.0,1
1394,1394,-0.7789064951661882,-0.8,0.0,1.0,343.0,597.0,1.0,0,260.0,1
1395,1395,-0.3124075835877994,-0.3,0.0,1.0,359.0,705.0,1.0,0,336.0,1
1396,1396,-0.19323745493561417,-0.2,0.0,1.0,438.0,635.0,1.0,0,367.0,1
1397,1397,0.617069815740893,0.6,1.0,1.0,406.0,737.0,1.0,1,307.0,1
1398,1398,-0.4143282731384454,-0.4,0.0,1.0,338.0,783.0,1.0,0,-61.0,1
1399,1399,-0.27141185139512747,-0.3,1.0,0.0,488.0,617.0,0.0,0,1565.0,1
1400,1400,-0.6725866580861989,-0.7,0.0,1.0,472.0,857.0,1.0,0,121.0,1
1401,1401,-0.3716726960078093,-0.4,0.0,1.0,467.0,714.0,1.0,0,179.0,1
1402,1402,0.320382071807107,0.3,1.0,1.0,454.0,953.0,1.0,1,373.0,1
1403,1403,0.41839630458947885,0.4,0.0,0.0,485.0,677.0,0.0,1,1018.0,1
1404,1404,0.3584416089193897,0.4,0.0,0.0,265.0,998.0,0.0,1,1257.0,1
1405,1405,-0.6397120493232785,-0.6,0.0,1.0,355.0,959.0,1.0,0,156.0,1
1406,1406,-0.25111026110636836,-0.3,0.0,1.0,352.0,845.0,1.0,0,383.0,1
1407,1407,0.6275386377987874,0.6,1.0,1.0,407.0,745.0,1.0,1,358.0,1
1408,1408,-0.349517516599988,-0.3,0.0,1.0,342.0,953.0,1.0,0,-175.0,1
1409,1409,-0.18687936967809582,-0.2,1.0,0.0,441.0,643.0,1.0,1,3916.0,0
1410,1410,0.6169741325692192,0.6,0.0,0.0,364.0,588.0,0.0,1,488.0,1
1411,1411,-0.7181386506731646,-0.7,1.0,0.0,436.0,928.0,0.0,0,366.0,1
1412,1412,0.8970032408346763,0.9,0.0,0.0,375.0,645.0,0.0,1,280.0,1
1413,1413,-0.0733443666768624,-0.1,1.0,0.0,330.0,600.0,0.0,0,4070.0,1
1414,1414,-0.5589065943448792,-0.6,0.0,1.0,299.0,948.0,1.0,0,183.0,1
1415,1415,0.43214730298620696,0.4,0.0,0.0,267.0,892.0,0.0,1,961.0,1
1416,1416,0.6976023234179628,0.7,1.0,1.0,395.0,792.0,1.0,1,413.0,1
1417,1417,-0.7855938583073947,-0.8,1.0,0.0,251.0,690.0,0.0,0,4059.0,1
1418,1418,0.7423172960020009,0.7,1.0,1.0,362.0,848.0,1.0,1,180.0,1
1419,1419,-0.013575683060298771,-0.0,0.0,1.0,427.0,584.0,1.0,0,189.0,1
1420,1420,-0.8063850496856233,-0.8,0.0,1.0,376.0,877.0,1.0,0,257.0,1
1421,1421,0.27678111803130834,0.3,0.0,0.0,336.0,558.0,0.0,1,2846.0,1
1422,1422,-0.09016281904619083,-0.1,1.0,0.0,310.0,883.0,1.0,1,3807.0,0
1423,1423,0.5067660385499347,0.5,1.0,1.0,268.0,602.0,1.0,1,460.0,1
1424,1424,0.32685387005440203,0.3,0.0,0.0,496.0,662.0,1.0,0,32.0,0
1425,1425,0.6237942008981087,0.6,0.0,0.0,362.0,892.0,0.0,1,726.0,1
1426,1426,0.5804252937010189,0.6,1.0,1.0,445.0,575.0,1.0,1,420.0,1
1427,1427,0.21397811149176038,0.2,0.0,0.0,440.0,562.0,0.0,1,2478.0,1
1428,1428,-0.32131533463539186,-0.3,0.0,1.0,307.0,564.0,1.0,0,219.0,1
1429,1429,0.6073316021305325,0.6,1.0,1.0,488.0,514.0,1.0,1,388.0,1
1430,1430,-0.17684032129400862,-0.2,1.0,0.0,423.0,753.0,1.0,1,3824.0,0
1431,1431,0.5929462059907197,0.6,0.0,0.0,467.0,991.0,1.0,0,-408.0,0
1432,1432,-0.3831840205987308,-0.4,0.0,1.0,373.0,891.0,1.0,0,146.0,1
1433,1433,0.1420905526399513,0.1,0.0,0.0,461.0,818.0,0.0,1,3721.0,1
1434,1434,0.8838491942702459,0.9,0.0,0.0,460.0,764.0,0.0,1,496.0,1
1435,1435,0.2595628269206979,0.3,1.0,1.0,461.0,528.0,1.0,1,1221.0,1
1436,1436,-0.2069042062331391,-0.2,0.0,1.0,357.0,591.0,1.0,0,682.0,1
1437,1437,0.6958742700042163,0.7,0.0,0.0,398.0,944.0,1.0,0,-122.0,0
1438,1438,-0.5741393259675343,-0.6,0.0,1.0,376.0,910.0,1.0,0,-336.0,1
1439,1439,0.05754228191373778,0.1,1.0,1.0,412.0,752.0,1.0,1,886.0,1
1440,1440,0.8439612676804816,0.8,1.0,1.0,331.0,940.0,1.0,1,229.0,1
1441,1441,0.061262775770275835,0.1,1.0,1.0,396.0,639.0,1.0,1,805.0,1
1442,1442,0.4265356431037183,0.4,1.0,1.0,250.0,935.0,1.0,1,-35.0,1
1443,1443,0.02089368498231403,0.0,1.0,1.0,325.0,822.0,1.0,1,1833.0,1
1444,1444,-0.8309911888581003,-0.8,0.0,1.0,298.0,841.0,1.0,0,251.0,1
1445,1445,0.2591355303270594,0.3,0.0,0.0,295.0,558.0,0.0,1,2687.0,1
1446,1446,0.12969999728346193,0.1,0.0,0.0,449.0,537.0,1.0,0,4014.0,0
1447,1447,0.8125333852389235,0.8,1.0,1.0,444.0,632.0,1.0,1,164.0,1
1448,1448,-0.7271522313114611,-0.7,1.0,0.0,488.0,976.0,0.0,0,1796.0,1
1449,1449,0.13233730511427189,0.1,1.0,1.0,413.0,962.0,1.0,1,-595.0,1
1450,1450,-0.6062373231083524,-0.6,1.0,0.0,320.0,637.0,0.0,0,923.0,1
1451,1451,0.1315564958821266,0.1,1.0,1.0,306.0,723.0,1.0,1,691.0,1
1452,1452,0.562961620090967,0.6,1.0,1.0,374.0,893.0,1.0,1,313.0,1
1453,1453,0.4744227433379412,0.5,0.0,0.0,370.0,767.0,0.0,1,783.0,1
1454,1454,-0.4612712638040867,-0.5,1.0,0.0,313.0,615.0,0.0,0,552.0,1
1455,1455,0.5177712287034882,0.5,0.0,0.0,439.0,782.0,0.0,1,329.0,1
1456,1456,-0.32816714358667276,-0.3,1.0,0.0,269.0,736.0,1.0,1,-95.0,0
1457,1457,-0.707719964396136,-0.7,0.0,1.0,396.0,872.0,1.0,0,52.0,1
1458,1458,-0.701547554757433,-0.7,0.0,1.0,268.0,591.0,1.0,0,201.0,1
1459,1459,0.47411937973960916,0.5,0.0,0.0,413.0,905.0,1.0,0,-208.0,0
1460,1460,-0.35177349333833574,-0.4,0.0,1.0,451.0,983.0,1.0,0,316.0,1
1461,1461,0.12779024530870864,0.1,0.0,0.0,387.0,634.0,0.0,1,1189.0,1
1462,1462,0.7777541691652862,0.8,0.0,0.0,376.0,739.0,1.0,0,-45.0,0
1463,1463,0.1645438927617141,0.2,0.0,0.0,411.0,982.0,1.0,0,-33.0,0
1464,1464,-0.5572651191956843,-0.6,0.0,1.0,423.0,915.0,1.0,0,262.0,1
1465,1465,-0.0350896496659977,-0.0,0.0,1.0,344.0,990.0,1.0,0,-144.0,1
1466,1466,-0.40976509843651276,-0.4,1.0,0.0,408.0,502.0,0.0,0,2710.0,1
1467,1467,0.794512650223327,0.8,1.0,1.0,350.0,835.0,1.0,1,255.0,1
1468,1468,0.7917785456228165,0.8,0.0,0.0,296.0,544.0,0.0,1,230.0,1
1469,1469,0.8361417761680227,0.8,0.0,0.0,250.0,653.0,0.0,1,667.0,1
1470,1470,0.4861698046995565,0.5,1.0,1.0,324.0,932.0,1.0,1,-206.0,1
1471,1471,-0.13782264389341858,-0.1,0.0,1.0,430.0,912.0,1.0,0,398.0,1
1472,1472,0.7519447962374503,0.8,1.0,1.0,409.0,702.0,1.0,1,49.0,1
1473,1473,0.5049444143225336,0.5,1.0,1.0,449.0,899.0,1.0,1,142.0,1
1474,1474,0.07434738064894642,0.1,0.0,0.0,489.0,876.0,1.0,0,545.0,0
1475,1475,0.7231140649777711,0.7,0.0,0.0,273.0,741.0,0.0,1,716.0,1
1476,1476,-0.6661383756228455,-0.7,0.0,1.0,439.0,605.0,1.0,0,296.0,1
1477,1477,-0.48121430416587596,-0.5,1.0,0.0,354.0,807.0,0.0,0,529.0,1
1478,1478,-0.6977680731412031,-0.7,1.0,0.0,365.0,628.0,0.0,0,937.0,1
1479,1479,0.8012304748365323,0.8,1.0,1.0,441.0,791.0,1.0,1,-72.0,1
1480,1480,-0.04118589074297996,-0.0,0.0,1.0,377.0,672.0,1.0,0,761.0,1
1481,1481,-0.7412569718017097,-0.7,1.0,0.0,453.0,740.0,0.0,0,1187.0,1
1482,1482,-0.032817614707217446,-0.0,0.0,1.0,410.0,685.0,1.0,0,1075.0,1
1483,1483,0.17926955916342713,0.2,0.0,0.0,387.0,526.0,0.0,1,3757.0,1
1484,1484,-0.6560510463457312,-0.7,0.0,1.0,353.0,502.0,1.0,0,255.0,1
1485,1485,-0.05877221483415962,-0.1,0.0,1.0,301.0,571.0,1.0,0,1628.0,1
1486,1486,-0.16613049688651538,-0.2,1.0,0.0,424.0,792.0,1.0,1,1444.0,0
1487,1487,-0.5945520530851893,-0.6,0.0,1.0,330.0,758.0,1.0,0,172.0,1
1488,1488,-0.6650614037536275,-0.7,1.0,0.0,310.0,581.0,0.0,0,2269.0,1
