,trial,coherence,coherence_bin,green_side,correct_side,target_onset,checker_onset,decision,green_decision,decision_time,correct_decision
0,0,0.46675843721521926,0.5,1.0,1.0,332.0,520.0,1.0,1,528.0,1
1,1,0.21516383088072255,0.2,1.0,1.0,270.0,782.0,1.0,1,3948.0,1
2,2,0.40294369941352814,0.4,0.0,0.0,488.0,875.0,0.0,1,337.0,1
3,3,-0.30396511584159525,-0.3,1.0,0.0,353.0,524.0,0.0,0,373.0,1
4,4,0.04391120543304572,0.0,1.0,1.0,309.0,807.0,1.0,1,3884.0,1
5,5,0.43484145250625816,0.4,1.0,1.0,335.0,967.0,1.0,1,718.0,1
6,6,0.8571251690089551,0.9,0.0,0.0,359.0,805.0,0.0,1,126.0,1
7,7,0.6120890735368328,0.6,0.0,0.0,253.0,989.0,0.0,1,-382.0,1
8,8,0.881648664696084,0.9,1.0,1.0,349.0,863.0,1.0,1,218.0,1
9,9,0.5142608211566323,0.5,0.0,0.0,346.0,716.0,0.0,1,458.0,1
10,10,-0.5704220455965006,-0.6,1.0,0.0,313.0,921.0,0.0,0,1026.0,1
11,11,-0.06429895533344554,-0.1,1.0,0.0,370.0,711.0,0.0,0,3869.0,1
12,12,-0.0553462163852414,-0.1,0.0,1.0,368.0,996.0,1.0,0,2396.0,1
13,13,-0.5610631085760691,-0.6,1.0,0.0,276.0,716.0,0.0,0,1168.0,1
14,14,0.1488138179847679,0.1,0.0,0.0,320.0,816.0,0.0,1,464.0,1
15,15,-0.4786306765822747,-0.5,0.0,1.0,401.0,754.0,1.0,0,515.0,1
16,16,-0.014468858874992163,-0.0,0.0,1.0,430.0,867.0,1.0,0,3703.0,1
17,17,-0.31272465900453295,-0.3,1.0,0.0,359.0,750.0,0.0,0,1551.0,1
18,18,-0.7518194959573639,-0.8,1.0,0.0,287.0,954.0,0.0,0,1909.0,1
19,19,0.5175419261931758,0.5,1.0,1.0,284.0,604.0,1.0,1,312.0,1
20,20,-0.512953198709317,-0.5,0.0,1.0,465.0,731.0,1.0,0,214.0,1
21,21,-0.27178323399031223,-0.3,0.0,1.0,303.0,920.0,1.0,0,177.0,1
22,22,-0.8684939853835161,-0.9,0.0,1.0,267.0,612.0,1.0,0,261.0,1
23,23,0.5589106571502743,0.6,1.0,1.0,299.0,506.0,1.0,1,295.0,1
24,24,-0.6665599620151178,-0.7,1.0,0.0,324.0,825.0,0.0,0,101.0,1
25,25,0.3673801700053886,0.4,0.0,0.0,362.0,901.0,0.0,1,1297.0,1
26,26,0.011128860214890457,0.0,0.0,0.0,381.0,591.0,0.0,1,4028.0,1
27,27,0.12067225382420388,0.1,1.0,1.0,280.0,618.0,1.0,1,3982.0,1
28,28,-0.13074583203850987,-0.1,1.0,0.0,330.0,936.0,0.0,0,1294.0,1
29,29,0.509639403922486,0.5,1.0,1.0,366.0,718.0,1.0,1,356.0,1
30,30,0.7364278974009938,0.7,0.0,0.0,357.0,867.0,0.0,1,246.0,1
31,31,0.19045968778264621,0.2,1.0,1.0,397.0,587.0,1.0,1,1116.0,1
32,32,0.7092310549158635,0.7,0.0,0.0,422.0,856.0,0.0,1,202.0,1
33,33,0.0011338734562809094,0.0,0.0,0.0,269.0,970.0,0.0,1,3761.0,1
34,34,0.20611216162024582,0.2,0.0,0.0,278.0,911.0,0.0,1,1001.0,1
35,35,-0.21479837513271705,-0.2,1.0,0.0,337.0,603.0,0.0,0,1370.0,1
36,36,-0.5597234371780733,-0.6,0.0,1.0,342.0,584.0,1.0,0,444.0,1
37,37,-0.5145469320964973,-0.5,1.0,0.0,379.0,611.0,0.0,0,290.0,1
38,38,0.7276486143040611,0.7,1.0,1.0,469.0,651.0,1.0,1,260.0,1
39,39,-0.2920714506762485,-0.3,0.0,1.0,458.0,850.0,1.0,0,62.0,1
40,40,0.13554823320333254,0.1,0.0,0.0,488.0,564.0,0.0,1,3368.0,1
41,41,0.23228478111526074,0.2,1.0,1.0,256.0,927.0,1.0,1,3817.0,1
42,42,0.5735698971604067,0.6,0.0,0.0,326.0,682.0,0.0,1,232.0,1
43,43,0.4531977799461907,0.5,0.0,0.0,255.0,650.0,0.0,1,395.0,1
44,44,-0.44734120270493144,-0.4,1.0,0.0,363.0,978.0,0.0,0,1669.0,1
45,45,0.7482182383119603,0.7,0.0,0.0,389.0,818.0,0.0,1,273.0,1
46,46,-0.35436941921258724,-0.4,0.0,1.0,252.0,534.0,1.0,0,654.0,1
47,47,-0.5617555908407441,-0.6,1.0,0.0,385.0,743.0,0.0,0,652.0,1
48,48,0.19050540475425148,0.2,1.0,1.0,419.0,646.0,1.0,1,405.0,1
49,49,-0.18791428190307757,-0.2,1.0,0.0,473.0,784.0,0.0,0,2473.0,1
50,50,0.5078916916380644,0.5,1.0,1.0,278.0,739.0,1.0,1,583.0,1
51,51,-0.2082932174831088,-0.2,1.0,0.0,400.0,960.0,0.0,0,2520.0,1
52,52,-0.6315755951070767,-0.6,0.0,1.0,475.0,977.0,1.0,0,558.0,1
53,53,-0.5654610319760018,-0.6,0.0,1.0,284.0,580.0,1.0,0,226.0,1
54,54,-0.17331110487545764,-0.2,0.0,1.0,350.0,795.0,1.0,0,2305.0,1
55,55,-0.770988120606929,-0.8,0.0,1.0,308.0,545.0,1.0,0,197.0,1
56,56,0.21344754539185928,0.2,0.0,0.0,253.0,778.0,0.0,1,69.0,1
57,57,-0.38335825360707665,-0.4,0.0,1.0,305.0,956.0,1.0,0,409.0,1
58,58,0.11318104170345122,0.1,0.0,0.0,276.0,801.0,0.0,1,3923.0,1
59,59,0.5458241727217582,0.5,0.0,0.0,409.0,540.0,0.0,1,351.0,1
60,60,-0.13063710481862134,-0.1,1.0,0.0,340.0,755.0,0.0,0,965.0,1
61,61,0.6505111419897848,0.7,1.0,1.0,494.0,935.0,1.0,1,411.0,1
62,62,-0.18714042812055676,-0.2,0.0,1.0,350.0,710.0,1.0,0,630.0,1
63,63,0.7378818962091037,0.7,1.0,1.0,257.0,527.0,1.0,1,386.0,1
64,64,0.20095541929827598,0.2,1.0,1.0,451.0,698.0,1.0,1,3851.0,1
65,65,-0.7550581798202708,-0.8,1.0,0.0,374.0,966.0,0.0,0,1780.0,1
66,66,0.6092343241972428,0.6,0.0,0.0,451.0,611.0,0.0,1,158.0,1
67,67,0.028224966167475718,0.0,0.0,0.0,490.0,542.0,1.0,0,1278.0,0
68,68,0.025723443085077125,0.0,0.0,0.0,491.0,576.0,0.0,1,853.0,1
69,69,-0.7132100445149099,-0.7,1.0,0.0,361.0,902.0,0.0,0,67.0,1
70,70,-0.8268060873270839,-0.8,1.0,0.0,493.0,977.0,0.0,0,1360.0,1
71,71,0.5268601980273567,0.5,0.0,0.0,396.0,796.0,0.0,1,628.0,1
72,72,0.17498255816632813,0.2,0.0,0.0,315.0,650.0,0.0,1,655.0,1
73,73,0.7937970149770676,0.8,0.0,0.0,402.0,751.0,0.0,1,417.0,1
74,74,0.2844972156218114,0.3,1.0,1.0,455.0,908.0,1.0,1,587.0,1
75,75,-0.5236816323686921,-0.5,1.0,0.0,373.0,629.0,0.0,0,318.0,1
76,76,0.5075329734481956,0.5,1.0,1.0,372.0,672.0,1.0,1,576.0,1
77,77,-0.4085658937315451,-0.4,0.0,1.0,348.0,860.0,1.0,0,332.0,1
78,78,-0.6125635143877319,-0.6,0.0,1.0,453.0,798.0,1.0,0,319.0,1
79,79,0.7863919677655625,0.8,0.0,0.0,460.0,657.0,0.0,1,293.0,1
80,80,-0.07232392490987227,-0.1,1.0,0.0,469.0,789.0,0.0,0,732.0,1
81,81,0.5057304040762468,0.5,0.0,0.0,486.0,667.0,0.0,1,97.0,1
82,82,-0.5823278702430814,-0.6,1.0,0.0,436.0,511.0,0.0,0,163.0,1
83,83,0.2850809261461714,0.3,1.0,1.0,279.0,914.0,1.0,1,2657.0,1
84,84,0.8136181246758402,0.8,0.0,0.0,414.0,627.0,0.0,1,209.0,1
85,85,-0.4494748691727048,-0.4,1.0,0.0,384.0,856.0,0.0,0,300.0,1
86,86,0.45829262279160743,0.5,0.0,0.0,446.0,797.0,0.0,1,337.0,1
87,87,-0.5302555597538352,-0.5,0.0,1.0,490.0,970.0,1.0,0,460.0,1
88,88,0.7923273914304624,0.8,0.0,0.0,416.0,995.0,0.0,1,179.0,1
89,89,0.2976229914941392,0.3,0.0,0.0,408.0,895.0,0.0,1,1027.0,1
90,90,-0.3951824920333391,-0.4,0.0,1.0,376.0,954.0,1.0,0,-180.0,1
91,91,0.1492603554878188,0.1,0.0,0.0,391.0,779.0,0.0,1,3830.0,1
92,92,-0.8649083540034367,-0.9,0.0,1.0,355.0,532.0,1.0,0,323.0,1
93,93,-0.10503410478000275,-0.1,0.0,1.0,409.0,679.0,1.0,0,3402.0,1
94,94,0.5897032686945315,0.6,0.0,0.0,330.0,841.0,0.0,1,189.0,1
95,95,0.15433962249961997,0.2,1.0,1.0,421.0,732.0,1.0,1,757.0,1
96,96,0.10822375981268484,0.1,0.0,0.0,418.0,528.0,0.0,1,4054.0,1
97,97,-0.6328491950945845,-0.6,0.0,1.0,415.0,865.0,1.0,0,150.0,1
98,98,-0.06579989281890819,-0.1,0.0,1.0,425.0,615.0,0.0,1,3960.0,0
99,99,-0.20145041130423302,-0.2,1.0,0.0,291.0,953.0,0.0,0,1476.0,1
100,100,-0.687024434205358,-0.7,1.0,0.0,479.0,787.0,0.0,0,564.0,1
101,101,0.37631863670167187,0.4,1.0,1.0,300.0,669.0,1.0,1,451.0,1
102,102,0.3116603893832842,0.3,0.0,0.0,254.0,850.0,0.0,1,286.0,1
103,103,-0.42679579061758605,-0.4,0.0,1.0,491.0,835.0,1.0,0,234.0,1
104,104,0.6954646528786402,0.7,0.0,0.0,282.0,879.0,0.0,1,149.0,1
105,105,-0.6821726950731705,-0.7,0.0,1.0,360.0,626.0,1.0,0,294.0,1
106,106,-0.8171213802945041,-0.8,0.0,1.0,356.0,672.0,1.0,0,122.0,1
107,107,-0.044375419032248065,-0.0,0.0,1.0,460.0,579.0,0.0,1,3961.0,0
108,108,0.6060685881574478,0.6,1.0,1.0,251.0,872.0,1.0,1,337.0,1
109,109,0.31090852897974386,0.3,0.0,0.0,339.0,808.0,0.0,1,1563.0,1
110,110,0.22329734036504878,0.2,0.0,0.0,339.0,512.0,0.0,1,2349.0,1
111,111,0.4599348361245853,0.5,0.0,0.0,468.0,748.0,0.0,1,204.0,1
112,112,-0.6660638428730136,-0.7,0.0,1.0,373.0,745.0,1.0,0,252.0,1
113,113,-0.21376024032273977,-0.2,0.0,1.0,318.0,851.0,1.0,0,201.0,1
114,114,0.3867156283965011,0.4,1.0,1.0,320.0,731.0,1.0,1,419.0,1
115,115,0.6908700278211454,0.7,1.0,1.0,483.0,722.0,1.0,1,305.0,1
116,116,0.31882543093566584,0.3,0.0,0.0,263.0,891.0,0.0,1,366.0,1
117,117,0.6041065560428803,0.6,1.0,1.0,253.0,620.0,1.0,1,427.0,1
118,118,-0.31730482963626583,-0.3,1.0,0.0,261.0,669.0,0.0,0,2040.0,1
119,119,0.03283156865440884,0.0,1.0,1.0,287.0,820.0,1.0,1,3893.0,1
120,120,0.6881607533909574,0.7,0.0,0.0,250.0,655.0,0.0,1,205.0,1
121,121,0.2961429128808418,0.3,1.0,1.0,313.0,757.0,1.0,1,2590.0,1
122,122,-0.19419868309958332,-0.2,1.0,0.0,367.0,841.0,0.0,0,3792.0,1
123,123,-0.3737800245427839,-0.4,0.0,1.0,416.0,809.0,1.0,0,-285.0,1
124,124,-0.7478955405345167,-0.7,1.0,0.0,339.0,654.0,0.0,0,2827.0,1
125,125,-0.6210893844738974,-0.6,0.0,1.0,422.0,594.0,1.0,0,244.0,1
126,126,-0.17905418609420343,-0.2,1.0,0.0,320.0,566.0,0.0,0,4114.0,1
127,127,-0.5203703151390986,-0.5,0.0,1.0,284.0,537.0,1.0,0,309.0,1
128,128,0.7819127115381882,0.8,1.0,1.0,441.0,783.0,1.0,1,556.0,1
129,129,-0.16305460072578437,-0.2,0.0,1.0,407.0,899.0,1.0,0,2494.0,1
130,130,0.14968039223375118,0.1,0.0,0.0,378.0,620.0,0.0,1,2872.0,1
131,131,-0.05594037879828928,-0.1,1.0,0.0,345.0,590.0,0.0,0,2475.0,1
132,132,-0.2751504768862517,-0.3,0.0,1.0,377.0,576.0,1.0,0,1867.0,1
133,133,-0.17104241782330243,-0.2,0.0,1.0,283.0,678.0,1.0,0,609.0,1
134,134,-0.18973892348153465,-0.2,0.0,1.0,261.0,741.0,1.0,0,1938.0,1
135,135,0.2023978369908782,0.2,1.0,1.0,407.0,633.0,1.0,1,3960.0,1
136,136,-0.808131877463242,-0.8,1.0,0.0,346.0,883.0,0.0,0,601.0,1
137,137,-0.3936291419692566,-0.4,0.0,1.0,328.0,623.0,1.0,0,479.0,1
138,138,-0.8190870855666474,-0.8,0.0,1.0,285.0,973.0,1.0,0,272.0,1
139,139,0.769252200455199,0.8,0.0,0.0,331.0,640.0,0.0,1,349.0,1
140,140,0.4983887782943349,0.5,0.0,0.0,337.0,527.0,0.0,1,216.0,1
141,141,0.17442743709474773,0.2,1.0,1.0,308.0,613.0,1.0,1,2919.0,1
142,142,-0.7102063717055922,-0.7,1.0,0.0,450.0,670.0,0.0,0,190.0,1
143,143,0.8676735228950428,0.9,1.0,1.0,445.0,691.0,1.0,1,444.0,1
144,144,-0.11677755104009724,-0.1,1.0,0.0,397.0,558.0,0.0,0,2715.0,1
145,145,-0.0711834996383982,-0.1,1.0,0.0,304.0,636.0,0.0,0,4060.0,1
146,146,-0.44973255692539965,-0.4,0.0,1.0,496.0,614.0,1.0,0,540.0,1
147,147,0.13016629318206008,0.1,1.0,1.0,460.0,684.0,1.0,1,2456.0,1
148,148,0.10313598186139983,0.1,0.0,0.0,495.0,622.0,0.0,1,3883.0,1
149,149,-0.40455584491033997,-0.4,1.0,0.0,340.0,789.0,0.0,0,451.0,1
150,150,0.6190061084657429,0.6,1.0,1.0,331.0,942.0,1.0,1,447.0,1
151,151,-0.6507636163906748,-0.7,1.0,0.0,499.0,826.0,0.0,0,175.0,1
152,152,-0.8626729804972713,-0.9,0.0,1.0,278.0,549.0,1.0,0,203.0,1
153,153,-0.8525347345581086,-0.9,0.0,1.0,269.0,617.0,1.0,0,164.0,1
154,154,0.8621531667739529,0.9,0.0,0.0,358.0,794.0,0.0,1,108.0,1
155,155,-0.6264165743937347,-0.6,0.0,1.0,356.0,620.0,1.0,0,404.0,1
156,156,-0.4157668216767356,-0.4,1.0,0.0,330.0,862.0,0.0,0,2838.0,1
157,157,0.17786552024438806,0.2,0.0,0.0,465.0,669.0,0.0,1,3866.0,1
158,158,0.8079214059307761,0.8,1.0,1.0,485.0,553.0,1.0,1,632.0,1
159,159,0.5653233539922163,0.6,0.0,0.0,300.0,874.0,0.0,1,536.0,1
160,160,-0.14951584773405546,-0.1,0.0,1.0,315.0,843.0,1.0,0,1792.0,1
161,161,-0.13879472652678093,-0.1,0.0,1.0,345.0,925.0,1.0,0,3730.0,1
162,162,-0.8913548136307083,-0.9,0.0,1.0,398.0,671.0,1.0,0,211.0,1
163,163,-0.8955399618922373,-0.9,1.0,0.0,311.0,759.0,0.0,0,250.0,1
164,164,0.6276772803128,0.6,0.0,0.0,474.0,850.0,0.0,1,256.0,1
165,165,0.25988633764652846,0.3,1.0,1.0,375.0,784.0,1.0,1,3691.0,1
166,166,0.3762860916288945,0.4,1.0,1.0,369.0,607.0,1.0,1,1324.0,1
167,167,0.8097526196983694,0.8,1.0,1.0,272.0,698.0,1.0,1,280.0,1
168,168,0.5306451624928782,0.5,1.0,1.0,421.0,564.0,1.0,1,345.0,1
169,169,0.06659989780706699,0.1,0.0,0.0,293.0,769.0,0.0,1,2168.0,1
170,170,0.3144426901075045,0.3,0.0,0.0,281.0,512.0,0.0,1,387.0,1
171,171,0.19962210813644787,0.2,1.0,1.0,462.0,611.0,1.0,1,237.0,1
172,172,0.17700896354845386,0.2,1.0,1.0,492.0,913.0,0.0,0,-385.0,0
173,173,0.6134783436939802,0.6,0.0,0.0,440.0,581.0,0.0,1,209.0,1
174,174,0.8285561999984651,0.8,0.0,0.0,377.0,538.0,0.0,1,185.0,1
175,175,-0.17796822318520833,-0.2,1.0,0.0,251.0,998.0,0.0,0,1131.0,1
176,176,-0.7821518571442247,-0.8,1.0,0.0,456.0,722.0,0.0,0,1992.0,1
177,177,-0.20338157094213583,-0.2,0.0,1.0,468.0,624.0,1.0,0,1268.0,1
178,178,0.07438688158102946,0.1,1.0,1.0,449.0,753.0,1.0,1,3798.0,1
179,179,0.08879756968164465,0.1,0.0,0.0,276.0,662.0,0.0,1,2672.0,1
180,180,0.1923393192217765,0.2,0.0,0.0,264.0,811.0,0.0,1,1315.0,1
181,181,-0.152272019520027,-0.2,0.0,1.0,450.0,871.0,1.0,0,2079.0,1
182,182,-0.045247748888409545,-0.0,1.0,0.0,406.0,911.0,1.0,1,3683.0,0
183,183,0.877881720902509,0.9,1.0,1.0,453.0,600.0,1.0,1,257.0,1
184,184,0.4883895952488838,0.5,1.0,1.0,254.0,993.0,1.0,1,453.0,1
185,185,-0.335136538992859,-0.3,1.0,0.0,493.0,763.0,0.0,0,634.0,1
186,186,-0.46721545715436164,-0.5,0.0,1.0,330.0,909.0,1.0,0,1391.0,1
187,187,-0.4936800632977742,-0.5,0.0,1.0,475.0,594.0,1.0,0,641.0,1
188,188,0.11927434202208642,0.1,0.0,0.0,341.0,576.0,0.0,1,3323.0,1
189,189,0.5129633828042318,0.5,1.0,1.0,405.0,999.0,1.0,1,316.0,1
190,190,-0.5124171817509033,-0.5,0.0,1.0,357.0,743.0,1.0,0,610.0,1
191,191,0.030664558076498816,0.0,0.0,0.0,390.0,682.0,0.0,1,58.0,1
192,192,-0.03920823596865908,-0.0,0.0,1.0,438.0,978.0,0.0,1,3584.0,0
193,193,-0.6806913954536662,-0.7,0.0,1.0,489.0,920.0,1.0,0,371.0,1
194,194,-0.22817412458828235,-0.2,0.0,1.0,332.0,884.0,1.0,0,824.0,1
195,195,-0.8296501568416802,-0.8,0.0,1.0,270.0,799.0,1.0,0,261.0,1
196,196,-0.36145573409054377,-0.4,0.0,1.0,409.0,943.0,1.0,0,538.0,1
197,197,-0.0715066321640625,-0.1,0.0,1.0,423.0,580.0,1.0,0,817.0,1
198,198,0.7594277537616653,0.8,1.0,1.0,349.0,577.0,1.0,1,254.0,1
199,199,-0.37904413656075187,-0.4,1.0,0.0,300.0,662.0,0.0,0,498.0,1
200,200,-0.42490995085624544,-0.4,1.0,0.0,278.0,830.0,0.0,0,842.0,1
201,201,-0.5113469957107377,-0.5,1.0,0.0,437.0,800.0,0.0,0,333.0,1
202,202,-0.8843647197720109,-0.9,0.0,1.0,373.0,803.0,1.0,0,174.0,1
203,203,0.07030726349451133,0.1,1.0,1.0,302.0,646.0,1.0,1,4052.0,1
204,204,0.20964799097168252,0.2,0.0,0.0,490.0,760.0,0.0,1,1910.0,1
205,205,0.8035665298796363,0.8,0.0,0.0,302.0,566.0,0.0,1,432.0,1
206,206,0.018965937689144452,0.0,1.0,1.0,350.0,571.0,1.0,1,4079.0,1
207,207,-0.04724677444970693,-0.0,0.0,1.0,253.0,700.0,1.0,0,4047.0,1
208,208,0.7922424720018756,0.8,0.0,0.0,423.0,827.0,0.0,1,140.0,1
209,209,0.08089505262157293,0.1,0.0,0.0,479.0,886.0,1.0,0,3635.0,0
210,210,-0.23067886655059955,-0.2,1.0,0.0,393.0,576.0,0.0,0,4031.0,1
211,211,-0.017755145011134288,-0.0,0.0,1.0,442.0,531.0,1.0,0,2287.0,1
212,212,-0.8233989388020567,-0.8,1.0,0.0,288.0,728.0,0.0,0,174.0,1
213,213,0.5242473284321904,0.5,0.0,0.0,393.0,786.0,0.0,1,551.0,1
214,214,0.48248156544143084,0.5,1.0,1.0,486.0,715.0,1.0,1,1069.0,1
215,215,-0.4444278584023063,-0.4,0.0,1.0,424.0,850.0,1.0,0,326.0,1
216,216,0.2993264498990472,0.3,1.0,1.0,399.0,835.0,1.0,1,316.0,1
217,217,-0.36469700005513717,-0.4,0.0,1.0,344.0,550.0,1.0,0,216.0,1
218,218,-0.6412326611777446,-0.6,1.0,0.0,394.0,653.0,0.0,0,2093.0,1
219,219,-0.16928157434071123,-0.2,1.0,0.0,275.0,990.0,0.0,0,585.0,1
220,220,0.8963890074400783,0.9,0.0,0.0,375.0,537.0,0.0,1,808.0,1
221,221,0.48622221526262666,0.5,0.0,0.0,255.0,518.0,0.0,1,337.0,1
222,222,-0.17644166764979152,-0.2,1.0,0.0,349.0,537.0,0.0,0,4064.0,1
223,223,0.553094438925794,0.6,1.0,1.0,497.0,794.0,1.0,1,499.0,1
224,224,0.3532500201317962,0.4,1.0,1.0,316.0,929.0,1.0,1,1365.0,1
225,225,0.5778334357325244,0.6,0.0,0.0,445.0,916.0,0.0,1,139.0,1
226,226,-0.48537089200964184,-0.5,0.0,1.0,399.0,526.0,1.0,0,385.0,1
227,227,0.5820251036735785,0.6,1.0,1.0,277.0,964.0,1.0,1,199.0,1
228,228,0.10623525840158077,0.1,0.0,0.0,340.0,536.0,0.0,1,1084.0,1
229,229,-0.1858554285063334,-0.2,1.0,0.0,433.0,519.0,0.0,0,1848.0,1
230,230,0.1418873208415824,0.1,0.0,0.0,321.0,673.0,0.0,1,1476.0,1
231,231,0.022685682574416277,0.0,1.0,1.0,380.0,834.0,1.0,1,46.0,1
232,232,-0.8749540728381839,-0.9,1.0,0.0,253.0,929.0,0.0,0,328.0,1
233,233,-0.6329926259684424,-0.6,1.0,0.0,401.0,914.0,0.0,0,765.0,1
234,234,0.13217762413438583,0.1,0.0,0.0,322.0,792.0,0.0,1,896.0,1
235,235,0.568023375950614,0.6,1.0,1.0,467.0,598.0,1.0,1,315.0,1
236,236,-0.3238975755442862,-0.3,0.0,1.0,328.0,920.0,1.0,0,952.0,1
237,237,-0.07618278982458826,-0.1,1.0,0.0,270.0,813.0,0.0,0,3917.0,1
238,238,-0.6675073131232598,-0.7,0.0,1.0,325.0,616.0,1.0,0,19.0,1
239,239,0.17869296525483735,0.2,1.0,1.0,494.0,899.0,1.0,1,787.0,1
240,240,-0.14205276667102062,-0.1,1.0,0.0,383.0,925.0,0.0,0,2372.0,1
241,241,0.7688993783801942,0.8,0.0,0.0,323.0,507.0,0.0,1,250.0,1
242,242,-0.07356044814537466,-0.1,0.0,1.0,296.0,692.0,1.0,0,852.0,1
243,243,0.23349648810100077,0.2,1.0,1.0,303.0,775.0,1.0,1,-98.0,1
244,244,0.6811478749857575,0.7,0.0,0.0,407.0,800.0,0.0,1,203.0,1
245,245,0.30802173654981135,0.3,1.0,1.0,459.0,694.0,1.0,1,1137.0,1
246,246,-0.000720905207175937,-0.0,1.0,0.0,306.0,682.0,0.0,0,4012.0,1
247,247,-0.07142214000320346,-0.1,1.0,0.0,326.0,678.0,0.0,0,3996.0,1
248,248,0.5308968118523537,0.5,0.0,0.0,426.0,847.0,0.0,1,637.0,1
249,249,-0.11958294887270249,-0.1,1.0,0.0,315.0,974.0,0.0,0,661.0,1
250,250,0.5027517871880843,0.5,1.0,1.0,414.0,700.0,1.0,1,136.0,1
251,251,-0.5452437303099067,-0.5,1.0,0.0,289.0,725.0,0.0,0,716.0,1
252,252,0.1919971007987903,0.2,0.0,0.0,362.0,831.0,0.0,1,587.0,1
253,253,0.8143286373518018,0.8,1.0,1.0,295.0,901.0,1.0,1,434.0,1
254,254,-0.6232910363273517,-0.6,1.0,0.0,367.0,718.0,0.0,0,495.0,1
255,255,-0.8889437143779967,-0.9,0.0,1.0,462.0,676.0,1.0,0,292.0,1
256,256,-0.31780638012292306,-0.3,0.0,1.0,278.0,603.0,1.0,0,679.0,1
257,257,-0.4773982385381009,-0.5,0.0,1.0,308.0,760.0,1.0,0,332.0,1
258,258,0.35580092512999506,0.4,0.0,0.0,424.0,573.0,0.0,1,503.0,1
259,259,-0.4489624073739534,-0.4,0.0,1.0,269.0,914.0,1.0,0,677.0,1
260,260,0.2971597333904451,0.3,1.0,1.0,324.0,820.0,1.0,1,436.0,1
261,261,0.8060620947738616,0.8,1.0,1.0,431.0,906.0,1.0,1,473.0,1
262,262,0.14377745334464154,0.1,0.0,0.0,253.0,994.0,0.0,1,2053.0,1
263,263,-0.6979532126753483,-0.7,1.0,0.0,482.0,697.0,0.0,0,221.0,1
264,264,-0.5402563703187346,-0.5,0.0,1.0,472.0,603.0,1.0,0,465.0,1
265,265,-0.22820344063110376,-0.2,1.0,0.0,473.0,505.0,0.0,0,1192.0,1
266,266,0.21656834271023262,0.2,0.0,0.0,346.0,655.0,0.0,1,2729.0,1
267,267,-0.7803398831564239,-0.8,1.0,0.0,392.0,819.0,0.0,0,99.0,1
268,268,0.4200968875213885,0.4,1.0,1.0,458.0,675.0,1.0,1,1207.0,1
269,269,0.6619783696890181,0.7,1.0,1.0,366.0,673.0,1.0,1,231.0,1
270,270,-0.33807627374032256,-0.3,1.0,0.0,281.0,897.0,0.0,0,482.0,1
271,271,0.06967411983471772,0.1,1.0,1.0,300.0,862.0,1.0,1,3838.0,1
272,272,0.30755073013054657,0.3,1.0,1.0,480.0,734.0,1.0,1,1266.0,1
273,273,0.4268663951413648,0.4,0.0,0.0,341.0,743.0,0.0,1,206.0,1
274,274,-0.5725199844536064,-0.6,1.0,0.0,301.0,520.0,0.0,0,1379.0,1
275,275,-0.19962608858899378,-0.2,0.0,1.0,470.0,755.0,1.0,0,1295.0,1
276,276,0.06721346548507257,0.1,1.0,1.0,440.0,516.0,1.0,1,4044.0,1
277,277,-0.040478448533259326,-0.0,0.0,1.0,296.0,747.0,1.0,0,3687.0,1
278,278,-0.008175394578462725,-0.0,0.0,1.0,327.0,776.0,1.0,0,3897.0,1
279,279,-0.47420356021983184,-0.5,0.0,1.0,355.0,652.0,1.0,0,513.0,1
280,280,0.044001522690737205,0.0,0.0,0.0,418.0,648.0,0.0,1,1034.0,1
281,281,-0.40613852103295683,-0.4,0.0,1.0,256.0,968.0,1.0,0,556.0,1
282,282,-0.28802919724953313,-0.3,0.0,1.0,355.0,960.0,0.0,1,-25.0,0
283,283,-0.6642819934055364,-0.7,1.0,0.0,349.0,596.0,0.0,0,1225.0,1
284,284,-0.6419262831546317,-0.6,0.0,1.0,389.0,882.0,1.0,0,239.0,1
285,285,-0.3622955954663124,-0.4,1.0,0.0,481.0,571.0,0.0,0,1208.0,1
286,286,-0.002258931593028368,-0.0,0.0,1.0,488.0,883.0,0.0,1,3629.0,0
287,287,-0.5657312347070516,-0.6,0.0,1.0,401.0,628.0,1.0,0,241.0,1
288,288,0.30213812282775143,0.3,0.0,0.0,259.0,516.0,0.0,1,2745.0,1
289,289,0.7972413457796254,0.8,1.0,1.0,456.0,506.0,1.0,1,388.0,1
290,290,0.7920310180396654,0.8,0.0,0.0,354.0,568.0,0.0,1,208.0,1
291,291,0.7566456127430331,0.8,1.0,1.0,250.0,930.0,1.0,1,230.0,1
292,292,0.3792871478294536,0.4,1.0,1.0,298.0,738.0,1.0,1,314.0,1
293,293,0.2543218439820839,0.3,1.0,1.0,432.0,972.0,1.0,1,2286.0,1
294,294,0.6596197278566124,0.7,1.0,1.0,493.0,549.0,1.0,1,188.0,1
295,295,0.051852142646848676,0.1,1.0,1.0,257.0,806.0,0.0,0,3937.0,0
296,296,-0.5237156445564581,-0.5,1.0,0.0,415.0,775.0,0.0,0,540.0,1
297,297,-0.24204187344446104,-0.2,1.0,0.0,350.0,543.0,0.0,0,407.0,1
298,298,0.009580602747907396,0.0,1.0,1.0,333.0,555.0,1.0,1,4112.0,1
299,299,-0.2680703539969116,-0.3,0.0,1.0,329.0,531.0,1.0,0,1420.0,1
300,300,-0.31355774917238155,-0.3,1.0,0.0,484.0,663.0,0.0,0,783.0,1
301,301,0.8494525295204473,0.8,0.0,0.0,458.0,950.0,0.0,1,222.0,1
302,302,0.19875459979979226,0.2,1.0,1.0,367.0,688.0,1.0,1,2585.0,1
303,303,-0.7404675945087679,-0.7,1.0,0.0,437.0,733.0,0.0,0,310.0,1
304,304,-0.31561134356472853,-0.3,0.0,1.0,410.0,732.0,1.0,0,248.0,1
305,305,0.032798414667504994,0.0,0.0,0.0,476.0,869.0,0.0,1,3655.0,1
306,306,0.23019748903309123,0.2,0.0,0.0,491.0,942.0,0.0,1,237.0,1
307,307,0.01693064590804283,0.0,0.0,0.0,260.0,970.0,1.0,0,-70.0,0
308,308,0.165390065504477,0.2,0.0,0.0,353.0,517.0,0.0,1,4130.0,1
309,309,-0.419609509418636,-0.4,0.0,1.0,459.0,604.0,1.0,0,387.0,1
310,310,-0.2684611046420212,-0.3,0.0,1.0,450.0,780.0,1.0,0,660.0,1
311,311,-0.6716927646334547,-0.7,1.0,0.0,417.0,797.0,0.0,0,756.0,1
312,312,-0.04211025596983298,-0.0,0.0,1.0,265.0,842.0,1.0,0,3893.0,1
313,313,-0.5208975684696264,-0.5,1.0,0.0,430.0,810.0,0.0,0,430.0,1
314,314,-0.8080570042127685,-0.8,0.0,1.0,254.0,700.0,1.0,0,266.0,1
315,315,-0.46899062194209656,-0.5,0.0,1.0,430.0,696.0,1.0,0,244.0,1
316,316,0.5520991310315512,0.6,0.0,0.0,339.0,761.0,0.0,1,320.0,1
317,317,-0.31422635266525223,-0.3,0.0,1.0,371.0,665.0,1.0,0,1404.0,1
318,318,0.3441921821628672,0.3,0.0,0.0,495.0,831.0,0.0,1,2794.0,1
319,319,-0.3299316466359573,-0.3,1.0,0.0,383.0,843.0,0.0,0,3774.0,1
320,320,0.4653001565778988,0.5,0.0,0.0,348.0,712.0,0.0,1,180.0,1
321,321,-0.28434774191148493,-0.3,1.0,0.0,408.0,614.0,0.0,0,758.0,1
322,322,0.12044394356012222,0.1,1.0,1.0,434.0,884.0,1.0,1,3682.0,1
323,323,-0.33832918728216943,-0.3,0.0,1.0,356.0,765.0,1.0,0,569.0,1
324,324,-0.5540236700254584,-0.6,0.0,1.0,387.0,880.0,1.0,0,173.0,1
325,325,0.3528184138055116,0.4,1.0,1.0,475.0,511.0,1.0,1,1354.0,1
326,326,0.5668242451686852,0.6,1.0,1.0,440.0,930.0,0.0,0,-220.0,0
327,327,0.26157500356751295,0.3,1.0,1.0,293.0,719.0,1.0,1,1898.0,1
328,328,0.7391926111286743,0.7,1.0,1.0,407.0,676.0,1.0,1,247.0,1
329,329,-0.21587777837834876,-0.2,1.0,0.0,433.0,654.0,0.0,0,853.0,1
330,330,0.7582408170779121,0.8,0.0,0.0,292.0,983.0,0.0,1,215.0,1
331,331,0.3572807671601116,0.4,1.0,1.0,415.0,736.0,1.0,1,659.0,1
332,332,-0.3524271388646373,-0.4,0.0,1.0,334.0,661.0,1.0,0,255.0,1
333,333,-0.7167993646032607,-0.7,1.0,0.0,336.0,903.0,0.0,0,561.0,1
334,334,0.1669834838509251,0.2,0.0,0.0,324.0,681.0,0.0,1,1355.0,1
335,335,-0.17297231869836815,-0.2,1.0,0.0,345.0,708.0,0.0,0,3947.0,1
336,336,-0.36940087750501505,-0.4,1.0,0.0,291.0,772.0,0.0,0,1897.0,1
337,337,-0.8296320933796395,-0.8,0.0,1.0,453.0,607.0,1.0,0,80.0,1
338,338,0.19490401797282086,0.2,1.0,1.0,482.0,981.0,1.0,1,727.0,1
339,339,-0.040057514190966814,-0.0,0.0,1.0,279.0,994.0,1.0,0,-13.0,1
340,340,-0.21804152971199908,-0.2,0.0,1.0,394.0,692.0,1.0,0,1354.0,1
341,341,-0.08655370161547316,-0.1,0.0,1.0,251.0,797.0,1.0,0,3952.0,1
342,342,-0.1223849120571372,-0.1,0.0,1.0,318.0,974.0,1.0,0,2978.0,1
343,343,-0.39517279700630603,-0.4,0.0,1.0,392.0,565.0,1.0,0,423.0,1
344,344,0.32395304087001586,0.3,1.0,1.0,400.0,969.0,1.0,1,271.0,1
345,345,-0.3853561926765733,-0.4,1.0,0.0,440.0,529.0,0.0,0,711.0,1
346,346,-0.4495624277792821,-0.4,1.0,0.0,387.0,761.0,0.0,0,962.0,1
347,347,-0.5506069801218307,-0.6,0.0,1.0,395.0,887.0,1.0,0,418.0,1
348,348,-0.014561773614415796,-0.0,0.0,1.0,275.0,658.0,1.0,0,1017.0,1
349,349,-0.3526044454417073,-0.4,1.0,0.0,302.0,827.0,0.0,0,371.0,1
350,350,-0.6026776797937036,-0.6,1.0,0.0,396.0,543.0,0.0,0,1641.0,1
351,351,-0.14584580575442996,-0.1,1.0,0.0,347.0,958.0,0.0,0,3695.0,1
352,352,0.570013109366094,0.6,1.0,1.0,336.0,540.0,1.0,1,504.0,1
353,353,-0.5877957418737412,-0.6,1.0,0.0,290.0,803.0,0.0,0,3907.0,1
354,354,0.5493535595880669,0.5,1.0,1.0,423.0,585.0,1.0,1,122.0,1
355,355,0.0809174995272035,0.1,0.0,0.0,459.0,950.0,0.0,1,1021.0,1
356,356,0.7290927245776618,0.7,1.0,1.0,446.0,626.0,1.0,1,388.0,1
357,357,-0.8798749552445821,-0.9,1.0,0.0,294.0,835.0,0.0,0,71.0,1
358,358,0.5379284395738347,0.5,0.0,0.0,346.0,861.0,0.0,1,163.0,1
359,359,0.3564963973806109,0.4,0.0,0.0,341.0,535.0,0.0,1,484.0,1
360,360,-0.3387792002001353,-0.3,0.0,1.0,481.0,916.0,1.0,0,313.0,1
361,361,0.49345547314168237,0.5,0.0,0.0,420.0,971.0,0.0,1,449.0,1
362,362,0.6021544866350098,0.6,1.0,1.0,419.0,757.0,1.0,1,504.0,1
363,363,-0.17656810115074384,-0.2,0.0,1.0,433.0,632.0,1.0,0,1415.0,1
364,364,0.7809380727433347,0.8,1.0,1.0,323.0,570.0,1.0,1,347.0,1
365,365,0.17849595167934373,0.2,0.0,0.0,460.0,989.0,0.0,1,3551.0,1
366,366,0.20991107294699562,0.2,0.0,0.0,254.0,988.0,0.0,1,388.0,1
367,367,-0.08540474375421958,-0.1,1.0,0.0,268.0,533.0,0.0,0,509.0,1
368,368,-0.6531747742024011,-0.7,1.0,0.0,397.0,985.0,0.0,0,388.0,1
369,369,0.7904807044066758,0.8,1.0,1.0,250.0,988.0,1.0,1,242.0,1
370,370,-0.7272413468771027,-0.7,1.0,0.0,485.0,911.0,0.0,0,1044.0,1
371,371,0.7581835707295087,0.8,0.0,0.0,377.0,536.0,0.0,1,367.0,1
372,372,0.44792399910529956,0.4,0.0,0.0,371.0,691.0,0.0,1,408.0,1
373,373,-0.14383268440305186,-0.1,1.0,0.0,331.0,565.0,0.0,0,4104.0,1
374,374,-0.23103136280154413,-0.2,1.0,0.0,496.0,974.0,0.0,0,660.0,1
375,375,0.7844761504690544,0.8,0.0,0.0,394.0,946.0,0.0,1,260.0,1
376,376,-0.5281844595371757,-0.5,1.0,0.0,483.0,781.0,0.0,0,1626.0,1
377,377,0.7774033472620944,0.8,1.0,1.0,339.0,512.0,1.0,1,249.0,1
378,378,-0.0853603096346841,-0.1,1.0,0.0,350.0,836.0,0.0,0,3814.0,1
379,379,0.7816784820831691,0.8,0.0,0.0,301.0,935.0,0.0,1,334.0,1
380,380,-0.8933860701168648,-0.9,0.0,1.0,250.0,558.0,1.0,0,232.0,1
381,381,0.6790035072883968,0.7,1.0,1.0,417.0,926.0,1.0,1,417.0,1
382,382,0.48746233392339466,0.5,0.0,0.0,469.0,640.0,0.0,1,301.0,1
383,383,-0.625492137513415,-0.6,0.0,1.0,309.0,983.0,1.0,0,368.0,1
384,384,-0.8624238953936952,-0.9,1.0,0.0,427.0,856.0,0.0,0,-243.0,1
385,385,-0.7280438174617215,-0.7,0.0,1.0,371.0,811.0,1.0,0,258.0,1
386,386,-0.3851067426738689,-0.4,0.0,1.0,329.0,948.0,1.0,0,693.0,1
387,387,0.4929788647546872,0.5,1.0,1.0,390.0,799.0,1.0,1,211.0,1
388,388,-0.38097850348921436,-0.4,0.0,1.0,321.0,559.0,1.0,0,510.0,1
389,389,0.047992425933007676,0.0,0.0,0.0,256.0,838.0,0.0,1,2166.0,1
390,390,0.831994777102656,0.8,1.0,1.0,379.0,551.0,1.0,1,150.0,1
391,391,0.8081182740994161,0.8,1.0,1.0,310.0,782.0,1.0,1,358.0,1
392,392,-0.8947210830164317,-0.9,0.0,1.0,402.0,912.0,1.0,0,126.0,1
393,393,0.07794643088868014,0.1,1.0,1.0,371.0,649.0,1.0,1,3980.0,1
394,394,-0.817626745134327,-0.8,1.0,0.0,404.0,715.0,0.0,0,421.0,1
395,395,-0.637893276348297,-0.6,1.0,0.0,424.0,791.0,0.0,0,295.0,1
396,396,-0.3830665715905087,-0.4,1.0,0.0,338.0,758.0,0.0,0,3454.0,1
397,397,0.6893449936520447,0.7,0.0,0.0,259.0,830.0,0.0,1,131.0,1
398,398,0.4141145032791492,0.4,1.0,1.0,318.0,971.0,1.0,1,571.0,1
399,399,-0.5175144821863049,-0.5,0.0,1.0,460.0,605.0,1.0,0,225.0,1
400,400,-0.3670903298470347,-0.4,1.0,0.0,419.0,673.0,0.0,0,1828.0,1
401,401,0.4276662891103392,0.4,0.0,0.0,407.0,527.0,0.0,1,336.0,1
402,402,-0.3137383634378228,-0.3,1.0,0.0,466.0,961.0,0.0,0,833.0,1
403,403,-0.6529065884479341,-0.7,1.0,0.0,390.0,645.0,0.0,0,335.0,1
404,404,-0.08248757565624154,-0.1,1.0,0.0,384.0,596.0,0.0,0,4020.0,1
405,405,-0.7515405358409308,-0.8,0.0,1.0,397.0,792.0,1.0,0,151.0,1
406,406,-0.43726100700825127,-0.4,0.0,1.0,343.0,817.0,1.0,0,360.0,1
407,407,0.04340042514948794,0.0,1.0,1.0,466.0,976.0,0.0,0,2628.0,0
408,408,-0.45740950887871573,-0.5,0.0,1.0,462.0,953.0,1.0,0,615.0,1
409,409,-0.0153819931779281,-0.0,0.0,1.0,344.0,594.0,0.0,1,4062.0,0
410,410,-0.320135898807964,-0.3,0.0,1.0,296.0,706.0,1.0,0,818.0,1
411,411,-0.55893594203085,-0.6,1.0,0.0,413.0,517.0,0.0,0,570.0,1
412,412,-0.6051538544660819,-0.6,1.0,0.0,366.0,501.0,0.0,0,743.0,1
413,413,-0.5354436787795845,-0.5,1.0,0.0,255.0,683.0,0.0,0,852.0,1
414,414,0.009534306958356886,0.0,0.0,0.0,385.0,790.0,1.0,0,3825.0,0
415,415,-0.19667267355395712,-0.2,1.0,0.0,490.0,750.0,0.0,0,2920.0,1
416,416,0.16540356036138049,0.2,0.0,0.0,458.0,924.0,0.0,1,1848.0,1
417,417,0.46011882469073806,0.5,0.0,0.0,438.0,935.0,0.0,1,317.0,1
418,418,-0.511907710383706,-0.5,1.0,0.0,345.0,982.0,0.0,0,503.0,1
419,419,0.7312409609223017,0.7,0.0,0.0,452.0,894.0,0.0,1,124.0,1
420,420,0.8447646842078514,0.8,1.0,1.0,300.0,777.0,1.0,1,293.0,1
421,421,-0.03355097743894375,-0.0,0.0,1.0,466.0,821.0,1.0,0,3713.0,1
422,422,-0.2649414021677804,-0.3,1.0,0.0,424.0,862.0,0.0,0,3074.0,1
423,423,-0.36877338941615034,-0.4,0.0,1.0,308.0,842.0,1.0,0,280.0,1
424,424,-0.23810418855460225,-0.2,1.0,0.0,496.0,920.0,0.0,0,184.0,1
425,425,-0.8930901409852934,-0.9,1.0,0.0,436.0,655.0,0.0,0,809.0,1
426,426,0.456560156161011,0.5,0.0,0.0,491.0,776.0,0.0,1,253.0,1
427,427,0.42463828191919173,0.4,0.0,0.0,448.0,528.0,0.0,1,244.0,1
428,428,-0.07771500841023649,-0.1,0.0,1.0,272.0,798.0,1.0,0,3930.0,1
429,429,-0.7221901064693538,-0.7,1.0,0.0,349.0,841.0,0.0,0,3470.0,1
430,430,0.32561011454973665,0.3,1.0,1.0,253.0,708.0,1.0,1,959.0,1
431,431,0.505882668684163,0.5,0.0,0.0,350.0,563.0,0.0,1,707.0,1
432,432,0.2865169567923388,0.3,1.0,1.0,489.0,539.0,1.0,1,1902.0,1
433,433,0.7656320318363233,0.8,1.0,1.0,469.0,810.0,1.0,1,321.0,1
434,434,0.3958380913251952,0.4,0.0,0.0,354.0,658.0,0.0,1,528.0,1
435,435,-0.2997557865856709,-0.3,1.0,0.0,275.0,949.0,0.0,0,796.0,1
436,436,-0.17492607258103232,-0.2,1.0,0.0,442.0,637.0,0.0,0,3921.0,1
437,437,0.4864478681275105,0.5,0.0,0.0,371.0,601.0,0.0,1,618.0,1
438,438,0.7857044733218898,0.8,1.0,1.0,369.0,900.0,1.0,1,371.0,1
439,439,0.7972923229844718,0.8,1.0,1.0,357.0,739.0,1.0,1,344.0,1
440,440,-0.7029708114661071,-0.7,1.0,0.0,388.0,547.0,0.0,0,575.0,1
441,441,0.44883226101622287,0.4,1.0,1.0,324.0,734.0,1.0,1,382.0,1
442,442,-0.03930080156683857,-0.0,0.0,1.0,298.0,843.0,1.0,0,3859.0,1
443,443,0.06005719944058119,0.1,0.0,0.0,485.0,830.0,0.0,1,3685.0,1
444,444,-0.20431804498853745,-0.2,0.0,1.0,363.0,910.0,1.0,0,777.0,1
445,445,-0.6799670489688238,-0.7,0.0,1.0,445.0,782.0,1.0,0,253.0,1
446,446,0.22369358356470304,0.2,1.0,1.0,370.0,690.0,1.0,1,1230.0,1
447,447,0.48152857550377204,0.5,1.0,1.0,462.0,602.0,1.0,1,966.0,1
448,448,0.5965874648163939,0.6,0.0,0.0,425.0,966.0,0.0,1,249.0,1
449,449,0.7261223719921762,0.7,1.0,1.0,459.0,959.0,1.0,1,542.0,1
450,450,-0.25113057583686493,-0.3,0.0,1.0,271.0,878.0,1.0,0,351.0,1
451,451,-0.32820362182905505,-0.3,0.0,1.0,274.0,995.0,1.0,0,241.0,1
452,452,-0.4380748050377245,-0.4,0.0,1.0,342.0,503.0,1.0,0,1115.0,1
453,453,0.5364764909221759,0.5,1.0,1.0,285.0,741.0,1.0,1,514.0,1
454,454,-0.5417104388202031,-0.5,0.0,1.0,324.0,730.0,1.0,0,316.0,1
455,455,-0.4327368252748255,-0.4,1.0,0.0,303.0,593.0,0.0,0,1764.0,1
456,456,-0.572324143771501,-0.6,1.0,0.0,359.0,860.0,0.0,0,291.0,1
457,457,0.5482012922124383,0.5,0.0,0.0,270.0,909.0,0.0,1,251.0,1
458,458,-0.2663223091795952,-0.3,1.0,0.0,325.0,524.0,0.0,0,4151.0,1
459,459,-0.7306769320021436,-0.7,1.0,0.0,393.0,922.0,0.0,0,1205.0,1
460,460,-0.5544716342143645,-0.6,1.0,0.0,294.0,735.0,0.0,0,391.0,1
461,461,0.5110595522149094,0.5,1.0,1.0,427.0,948.0,1.0,1,325.0,1
462,462,0.6679357433217913,0.7,1.0,1.0,463.0,756.0,1.0,1,141.0,1
463,463,-0.5436612035753714,-0.5,0.0,1.0,289.0,969.0,1.0,0,212.0,1
464,464,0.3521917442232162,0.4,1.0,1.0,473.0,907.0,1.0,1,1160.0,1
465,465,-0.6860096437922332,-0.7,0.0,1.0,321.0,772.0,1.0,0,357.0,1
466,466,-0.30602662737357034,-0.3,0.0,1.0,337.0,669.0,1.0,0,774.0,1
467,467,0.6548189622102031,0.7,0.0,0.0,278.0,778.0,0.0,1,144.0,1
468,468,-0.30957015288350875,-0.3,1.0,0.0,308.0,553.0,0.0,0,959.0,1
469,469,-0.3859898028202894,-0.4,0.0,1.0,491.0,833.0,0.0,1,-24.0,0
470,470,0.23373297906927737,0.2,1.0,1.0,372.0,696.0,1.0,1,2852.0,1
471,471,0.27261917851898876,0.3,1.0,1.0,260.0,877.0,1.0,1,1473.0,1
472,472,-0.4813823065265369,-0.5,1.0,0.0,347.0,537.0,0.0,0,796.0,1
473,473,0.7204737479512399,0.7,0.0,0.0,343.0,850.0,0.0,1,187.0,1
474,474,-0.5863986776814513,-0.6,1.0,0.0,445.0,829.0,0.0,0,386.0,1
475,475,-0.14507562677135355,-0.1,0.0,1.0,351.0,636.0,1.0,0,4013.0,1
476,476,-0.35113256813489646,-0.4,1.0,0.0,277.0,910.0,0.0,0,403.0,1
477,477,0.5183037896365285,0.5,1.0,1.0,464.0,735.0,1.0,1,241.0,1
478,478,-0.8934338841057458,-0.9,0.0,1.0,425.0,604.0,1.0,0,91.0,1
479,479,-0.4005855878448962,-0.4,1.0,0.0,490.0,966.0,0.0,0,2094.0,1
480,480,-0.5661395691876001,-0.6,0.0,1.0,409.0,885.0,1.0,0,326.0,1
481,481,0.13514295544499888,0.1,1.0,1.0,419.0,551.0,1.0,1,920.0,1
482,482,0.053993445675840857,0.1,0.0,0.0,300.0,850.0,0.0,1,3850.0,1
483,483,-0.216102019282582,-0.2,1.0,0.0,384.0,513.0,0.0,0,4103.0,1
484,484,-0.5200071095272495,-0.5,0.0,1.0,437.0,973.0,1.0,0,480.0,1
485,485,-0.2829614171208519,-0.3,1.0,0.0,325.0,963.0,0.0,0,732.0,1
486,486,0.27822542284664553,0.3,1.0,1.0,454.0,706.0,1.0,1,390.0,1
487,487,0.8750085259349779,0.9,0.0,0.0,340.0,759.0,0.0,1,131.0,1
488,488,0.3049184515817108,0.3,1.0,1.0,365.0,622.0,1.0,1,1483.0,1
489,489,0.7267938882455839,0.7,0.0,0.0,452.0,979.0,0.0,1,149.0,1
490,490,0.647963522935855,0.6,0.0,0.0,383.0,917.0,0.0,1,170.0,1
491,491,0.4023155106326112,0.4,0.0,0.0,387.0,700.0,0.0,1,393.0,1
492,492,-0.6482146576644903,-0.6,0.0,1.0,464.0,624.0,1.0,0,622.0,1
493,493,-0.7741015020050559,-0.8,0.0,1.0,339.0,508.0,1.0,0,163.0,1
494,494,0.835271225787828,0.8,1.0,1.0,446.0,569.0,1.0,1,365.0,1
495,495,-0.5917463639765195,-0.6,0.0,1.0,421.0,567.0,1.0,0,292.0,1
496,496,0.13337805868205777,0.1,1.0,1.0,450.0,892.0,1.0,1,3658.0,1
497,497,-0.5304793712477722,-0.5,1.0,0.0,260.0,539.0,0.0,0,1211.0,1
498,498,0.43314581424610454,0.4,1.0,1.0,490.0,765.0,1.0,1,395.0,1
499,499,0.5229403700347036,0.5,0.0,0.0,411.0,689.0,0.0,1,500.0,1
500,500,0.8093836574792398,0.8,0.0,0.0,429.0,895.0,0.0,1,166.0,1
501,501,0.5739926427207355,0.6,0.0,0.0,469.0,593.0,0.0,1,128.0,1
502,502,0.5938103023157425,0.6,1.0,1.0,338.0,504.0,1.0,1,488.0,1
503,503,0.5506099065146398,0.6,1.0,1.0,425.0,923.0,1.0,1,702.0,1
504,504,0.6251332525307519,0.6,0.0,0.0,338.0,942.0,0.0,1,340.0,1
505,505,-0.7005404444784541,-0.7,0.0,1.0,342.0,614.0,1.0,0,604.0,1
506,506,0.821219218871528,0.8,1.0,1.0,269.0,863.0,1.0,1,368.0,1
507,507,-0.0287915517223718,-0.0,1.0,0.0,495.0,820.0,1.0,1,3685.0,0
508,508,0.012610555851586214,0.0,1.0,1.0,369.0,847.0,0.0,0,3784.0,0
509,509,-0.7350346641414527,-0.7,0.0,1.0,468.0,559.0,1.0,0,193.0,1
510,510,0.06439953808796217,0.1,0.0,0.0,484.0,635.0,0.0,1,3881.0,1
511,511,-0.5742619217945351,-0.6,1.0,0.0,416.0,627.0,0.0,0,947.0,1
512,512,0.09617826432608456,0.1,0.0,0.0,434.0,505.0,0.0,1,1391.0,1
513,513,-0.5038795009684436,-0.5,0.0,1.0,264.0,840.0,1.0,0,396.0,1
514,514,0.004028006081695512,0.0,0.0,0.0,425.0,650.0,1.0,0,3925.0,0
515,515,-0.15093802396842304,-0.2,1.0,0.0,321.0,931.0,0.0,0,3298.0,1
516,516,-0.730362662531533,-0.7,1.0,0.0,250.0,721.0,0.0,0,469.0,1
517,517,-0.3689767836346354,-0.4,1.0,0.0,353.0,969.0,0.0,0,358.0,1
518,518,-0.18756335241481303,-0.2,0.0,1.0,277.0,779.0,1.0,0,394.0,1
519,519,0.25910180890499557,0.3,0.0,0.0,443.0,744.0,0.0,1,743.0,1
520,520,0.004627305059125453,0.0,0.0,0.0,255.0,661.0,0.0,1,4084.0,1
521,521,0.7115950882550183,0.7,1.0,1.0,471.0,918.0,1.0,1,421.0,1
522,522,0.7383500428776452,0.7,1.0,1.0,445.0,784.0,1.0,1,461.0,1
523,523,-0.744879695487934,-0.7,0.0,1.0,439.0,894.0,1.0,0,317.0,1
524,524,-0.4503896121472399,-0.5,0.0,1.0,282.0,654.0,1.0,0,764.0,1
525,525,-0.7518026185991282,-0.8,1.0,0.0,304.0,698.0,0.0,0,1918.0,1
526,526,0.4241895899122793,0.4,0.0,0.0,295.0,711.0,0.0,1,94.0,1
527,527,-0.7073285355808651,-0.7,1.0,0.0,281.0,817.0,0.0,0,1672.0,1
528,528,-0.8674513795334305,-0.9,1.0,0.0,279.0,965.0,0.0,0,296.0,1
529,529,0.06389202331580501,0.1,0.0,0.0,417.0,850.0,0.0,1,3363.0,1
530,530,0.2300970856750434,0.2,0.0,0.0,493.0,576.0,0.0,1,801.0,1
531,531,-0.6697801105937303,-0.7,0.0,1.0,376.0,693.0,1.0,0,531.0,1
532,532,-0.14747821314718546,-0.1,1.0,0.0,448.0,815.0,0.0,0,3737.0,1
533,533,-0.5787007948781455,-0.6,0.0,1.0,349.0,867.0,1.0,0,394.0,1
534,534,0.21794441562450706,0.2,1.0,1.0,308.0,815.0,1.0,1,847.0,1
535,535,0.7341815628573022,0.7,1.0,1.0,289.0,535.0,1.0,1,426.0,1
536,536,-0.2987676439220721,-0.3,1.0,0.0,324.0,734.0,0.0,0,1052.0,1
537,537,-0.21222865833665405,-0.2,0.0,1.0,401.0,765.0,0.0,1,-56.0,0
538,538,0.8016371095353451,0.8,1.0,1.0,416.0,788.0,1.0,1,326.0,1
539,539,0.3597905499374966,0.4,1.0,1.0,377.0,830.0,1.0,1,313.0,1
540,540,-0.14017774712738063,-0.1,1.0,0.0,295.0,800.0,0.0,0,3905.0,1
541,541,0.6634208390286603,0.7,0.0,0.0,354.0,810.0,0.0,1,256.0,1
542,542,0.1999976239244471,0.2,1.0,1.0,359.0,760.0,1.0,1,881.0,1
543,543,-0.30835166668949654,-0.3,0.0,1.0,479.0,903.0,1.0,0,378.0,1
544,544,-0.8480870647054962,-0.8,1.0,0.0,477.0,968.0,0.0,0,155.0,1
545,545,0.20542973520557617,0.2,1.0,1.0,472.0,905.0,1.0,1,473.0,1
546,546,0.2892470311728442,0.3,1.0,1.0,445.0,715.0,1.0,1,800.0,1
547,547,-0.8366558244292022,-0.8,1.0,0.0,337.0,594.0,0.0,0,299.0,1
548,548,0.3411829698611296,0.3,0.0,0.0,422.0,546.0,0.0,1,632.0,1
549,549,-0.07978988939195986,-0.1,1.0,0.0,499.0,507.0,1.0,1,3994.0,0
550,550,0.8060493531458249,0.8,1.0,1.0,330.0,594.0,1.0,1,266.0,1
551,551,0.7912664692351493,0.8,1.0,1.0,271.0,801.0,1.0,1,208.0,1
552,552,0.8188385780784239,0.8,1.0,1.0,485.0,882.0,1.0,1,433.0,1
553,553,0.8367065541819491,0.8,1.0,1.0,418.0,607.0,1.0,1,175.0,1
554,554,-0.5447268510699044,-0.5,0.0,1.0,461.0,750.0,1.0,0,589.0,1
555,555,0.5822862975941364,0.6,1.0,1.0,418.0,869.0,1.0,1,763.0,1
556,556,-0.21180395761265747,-0.2,0.0,1.0,338.0,916.0,1.0,0,816.0,1
557,557,-0.6210388100645481,-0.6,1.0,0.0,445.0,508.0,0.0,0,1567.0,1
558,558,0.102054855086397,0.1,1.0,1.0,308.0,569.0,0.0,0,4123.0,0
559,559,0.17857474442740429,0.2,1.0,1.0,446.0,903.0,1.0,1,1071.0,1
560,560,0.8640618396695835,0.9,1.0,1.0,312.0,891.0,1.0,1,197.0,1
561,561,-0.2586432695822479,-0.3,1.0,0.0,477.0,998.0,0.0,0,945.0,1
562,562,-0.8178120240473317,-0.8,1.0,0.0,256.0,962.0,0.0,0,192.0,1
563,563,-0.0006109865563603822,-0.0,1.0,0.0,343.0,945.0,0.0,0,3712.0,1
564,564,0.6945578346007265,0.7,0.0,0.0,455.0,793.0,0.0,1,192.0,1
565,565,-0.8916242142342162,-0.9,1.0,0.0,401.0,666.0,0.0,0,313.0,1
566,566,0.8015808001101178,0.8,1.0,1.0,468.0,826.0,1.0,1,296.0,1
567,567,0.4211513211595693,0.4,0.0,0.0,290.0,902.0,0.0,1,558.0,1
568,568,0.4799988578868434,0.5,0.0,0.0,333.0,966.0,0.0,1,431.0,1
569,569,-0.77465704312872,-0.8,1.0,0.0,455.0,810.0,0.0,0,555.0,1
570,570,0.8061614925143868,0.8,1.0,1.0,340.0,982.0,0.0,0,-502.0,0
571,571,0.5007418759894654,0.5,0.0,0.0,364.0,692.0,0.0,1,444.0,1
572,572,0.48804722564679526,0.5,0.0,0.0,485.0,886.0,0.0,1,239.0,1
573,573,-0.027244939900137988,-0.0,1.0,0.0,496.0,981.0,0.0,0,3523.0,1
574,574,0.43615172682588754,0.4,1.0,1.0,340.0,530.0,1.0,1,700.0,1
575,575,0.11330827909494656,0.1,0.0,0.0,371.0,844.0,0.0,1,3785.0,1
576,576,0.07912326233277711,0.1,0.0,0.0,494.0,622.0,0.0,1,3884.0,1
577,577,-0.3316725889184522,-0.3,1.0,0.0,454.0,616.0,0.0,0,650.0,1
578,578,0.29402871123985863,0.3,1.0,1.0,389.0,543.0,1.0,1,1988.0,1
579,579,-0.5597286788239135,-0.6,1.0,0.0,463.0,960.0,0.0,0,3087.0,1
580,580,0.45970549057180576,0.5,1.0,1.0,441.0,987.0,1.0,1,572.0,1
581,581,-0.21934452645370872,-0.2,0.0,1.0,498.0,716.0,1.0,0,206.0,1
582,582,0.6885922783737782,0.7,1.0,1.0,288.0,540.0,1.0,1,172.0,1
583,583,-0.7807903817470612,-0.8,0.0,1.0,303.0,726.0,1.0,0,291.0,1
584,584,0.3962451355520701,0.4,1.0,1.0,400.0,523.0,1.0,1,787.0,1
585,585,0.3208643238917045,0.3,1.0,1.0,271.0,665.0,1.0,1,804.0,1
586,586,0.2273363986753375,0.2,0.0,0.0,251.0,991.0,0.0,1,1548.0,1
587,587,0.3733329614270179,0.4,1.0,1.0,282.0,979.0,1.0,1,849.0,1
588,588,-0.7870211408132207,-0.8,1.0,0.0,457.0,927.0,0.0,0,246.0,1
589,589,0.4625373376967238,0.5,1.0,1.0,349.0,940.0,1.0,1,291.0,1
590,590,-0.6391411160252993,-0.6,0.0,1.0,472.0,785.0,1.0,0,233.0,1
591,591,-0.7503521252716671,-0.8,1.0,0.0,317.0,959.0,0.0,0,204.0,1
592,592,0.15948373291373208,0.2,0.0,0.0,417.0,767.0,0.0,1,1776.0,1
593,593,-0.4558978238728476,-0.5,1.0,0.0,481.0,594.0,0.0,0,415.0,1
594,594,-0.26509149243307795,-0.3,1.0,0.0,487.0,587.0,0.0,0,636.0,1
595,595,-0.2468849236170807,-0.2,1.0,0.0,447.0,661.0,0.0,0,352.0,1
596,596,0.8821403175480181,0.9,1.0,1.0,346.0,656.0,1.0,1,288.0,1
597,597,0.5558247392272347,0.6,1.0,1.0,451.0,745.0,1.0,1,314.0,1
598,598,0.002302040007614914,0.0,0.0,0.0,442.0,510.0,1.0,0,4048.0,0
599,599,-0.2463961431643581,-0.2,1.0,0.0,255.0,585.0,0.0,0,1590.0,1
600,600,-0.1365988821898929,-0.1,0.0,1.0,435.0,506.0,1.0,0,3059.0,1
601,601,0.19239035869279764,0.2,1.0,1.0,343.0,722.0,1.0,1,3045.0,1
602,602,-0.7711908964221957,-0.8,0.0,1.0,298.0,865.0,1.0,0,227.0,1
603,603,0.8537227072028014,0.9,1.0,1.0,262.0,970.0,1.0,1,348.0,1
604,604,-0.7536043203995617,-0.8,1.0,0.0,449.0,599.0,0.0,0,452.0,1
605,605,-0.8347051461088885,-0.8,1.0,0.0,396.0,825.0,0.0,0,3779.0,1
606,606,-0.6851861185508181,-0.7,0.0,1.0,261.0,834.0,1.0,0,115.0,1
607,607,-0.6009083284400436,-0.6,0.0,1.0,353.0,601.0,1.0,0,356.0,1
608,608,0.8873182483130563,0.9,1.0,1.0,444.0,743.0,1.0,1,383.0,1
609,609,0.8087338525041942,0.8,1.0,1.0,333.0,916.0,1.0,1,211.0,1
610,610,-0.41771520680902885,-0.4,1.0,0.0,277.0,540.0,0.0,0,503.0,1
611,611,0.8347570838213966,0.8,0.0,0.0,344.0,943.0,0.0,1,233.0,1
612,612,-0.2678220994745616,-0.3,1.0,0.0,491.0,934.0,0.0,0,3555.0,1
613,613,0.6355390601880674,0.6,1.0,1.0,333.0,914.0,1.0,1,303.0,1
614,614,0.4208306899003108,0.4,1.0,1.0,320.0,560.0,1.0,1,410.0,1
615,615,-0.5890203110230168,-0.6,1.0,0.0,499.0,960.0,0.0,0,2931.0,1
616,616,-0.5014263638349998,-0.5,0.0,1.0,380.0,670.0,1.0,0,180.0,1
617,617,0.7094856364409058,0.7,1.0,1.0,318.0,707.0,1.0,1,215.0,1
618,618,0.12558833771110056,0.1,0.0,0.0,278.0,530.0,0.0,1,1142.0,1
619,619,-0.05473071931178575,-0.1,1.0,0.0,294.0,773.0,0.0,0,3933.0,1
620,620,0.7894445746299813,0.8,1.0,1.0,280.0,799.0,1.0,1,311.0,1
621,621,0.6360243576197452,0.6,0.0,0.0,473.0,892.0,0.0,1,235.0,1
622,622,0.5870358468665086,0.6,0.0,0.0,338.0,948.0,0.0,1,434.0,1
623,623,-0.1323708478305622,-0.1,0.0,1.0,389.0,845.0,1.0,0,926.0,1
624,624,0.8289067226648675,0.8,1.0,1.0,428.0,538.0,1.0,1,324.0,1
625,625,-0.751975554459031,-0.8,1.0,0.0,255.0,572.0,0.0,0,1433.0,1
626,626,-0.7613940926375516,-0.8,1.0,0.0,438.0,501.0,0.0,0,331.0,1
627,627,0.172367379240154,0.2,0.0,0.0,441.0,963.0,0.0,1,1906.0,1
628,628,-0.7558695383254188,-0.8,0.0,1.0,471.0,539.0,1.0,0,150.0,1
629,629,-0.037351942807051675,-0.0,1.0,0.0,498.0,689.0,1.0,1,3813.0,0
630,630,0.7681108436559764,0.8,1.0,1.0,263.0,870.0,1.0,1,267.0,1
631,631,-0.5482370152298479,-0.5,0.0,1.0,253.0,545.0,1.0,0,612.0,1
632,632,-0.5443451994405906,-0.5,0.0,1.0,395.0,674.0,1.0,0,511.0,1
633,633,-0.35183076702523886,-0.4,1.0,0.0,425.0,675.0,0.0,0,680.0,1
634,634,-0.4763203525484426,-0.5,0.0,1.0,492.0,875.0,1.0,0,253.0,1
635,635,0.07546345592608406,0.1,0.0,0.0,308.0,587.0,0.0,1,715.0,1
636,636,-0.8285141560581325,-0.8,0.0,1.0,276.0,588.0,1.0,0,196.0,1
637,637,0.5032741773825572,0.5,1.0,1.0,439.0,599.0,1.0,1,282.0,1
638,638,0.6515074911556004,0.7,1.0,1.0,367.0,845.0,1.0,1,568.0,1
639,639,0.5568466521497807,0.6,0.0,0.0,445.0,642.0,0.0,1,413.0,1
640,640,0.7104357743319786,0.7,1.0,1.0,316.0,637.0,1.0,1,457.0,1
641,641,-0.6256971510722,-0.6,0.0,1.0,375.0,747.0,1.0,0,48.0,1
642,642,0.1565385602793653,0.2,1.0,1.0,268.0,626.0,1.0,1,2106.0,1
643,643,-0.6950801758107219,-0.7,0.0,1.0,437.0,624.0,1.0,0,309.0,1
644,644,-0.08850634860751938,-0.1,0.0,1.0,324.0,559.0,1.0,0,4117.0,1
645,645,0.4555561288893174,0.5,1.0,1.0,310.0,694.0,1.0,1,366.0,1
646,646,-0.7687162242637672,-0.8,0.0,1.0,413.0,930.0,1.0,0,297.0,1
647,647,-0.47125872498111554,-0.5,0.0,1.0,350.0,523.0,1.0,0,227.0,1
648,648,0.0245391419000468,0.0,1.0,1.0,309.0,505.0,0.0,0,4186.0,0
649,649,0.46431542481993826,0.5,1.0,1.0,330.0,611.0,1.0,1,479.0,1
650,650,0.6312160408308115,0.6,0.0,0.0,495.0,626.0,0.0,1,339.0,1
651,651,0.2171606710712356,0.2,0.0,0.0,288.0,781.0,0.0,1,521.0,1
652,652,0.7713712294053919,0.8,1.0,1.0,261.0,927.0,1.0,1,252.0,1
653,653,-0.41919244412080114,-0.4,1.0,0.0,355.0,977.0,0.0,0,348.0,1
654,654,-0.4677137744802123,-0.5,1.0,0.0,253.0,935.0,0.0,0,172.0,1
655,655,0.16344592181141115,0.2,0.0,0.0,380.0,517.0,0.0,1,4103.0,1
656,656,0.31762045419824336,0.3,0.0,0.0,319.0,865.0,0.0,1,1676.0,1
657,657,-0.8895032496986314,-0.9,1.0,0.0,479.0,881.0,0.0,0,210.0,1
658,658,-0.7156722327005197,-0.7,1.0,0.0,275.0,946.0,0.0,0,539.0,1
659,659,0.132049881650791,0.1,0.0,0.0,431.0,525.0,0.0,1,994.0,1
660,660,0.4500781491338496,0.5,1.0,1.0,409.0,567.0,1.0,1,714.0,1
661,661,0.4726647685350528,0.5,0.0,0.0,304.0,569.0,0.0,1,477.0,1
662,662,0.8629143553268205,0.9,0.0,0.0,266.0,943.0,0.0,1,161.0,1
663,663,-0.4879176343532759,-0.5,0.0,1.0,342.0,926.0,1.0,0,202.0,1
664,664,0.04491512423332655,0.0,0.0,0.0,470.0,735.0,0.0,1,3795.0,1
665,665,0.4763705596664952,0.5,1.0,1.0,491.0,776.0,1.0,1,293.0,1
666,666,-0.379811740847006,-0.4,0.0,1.0,411.0,807.0,1.0,0,662.0,1
667,667,-0.4027778153720123,-0.4,1.0,0.0,294.0,932.0,0.0,0,3774.0,1
668,668,0.851111398938223,0.9,1.0,1.0,424.0,522.0,1.0,1,224.0,1
669,669,-0.2734471915037119,-0.3,1.0,0.0,255.0,636.0,0.0,0,1789.0,1
670,670,-0.5747425744786445,-0.6,1.0,0.0,349.0,669.0,0.0,0,292.0,1
671,671,-0.7780619098408392,-0.8,0.0,1.0,411.0,619.0,1.0,0,320.0,1
672,672,0.27782109941953725,0.3,0.0,0.0,331.0,560.0,0.0,1,1429.0,1
673,673,-0.44081376627357377,-0.4,0.0,1.0,352.0,775.0,1.0,0,783.0,1
674,674,-0.7577754528535736,-0.8,1.0,0.0,494.0,518.0,0.0,0,188.0,1
675,675,-0.20449824201672928,-0.2,0.0,1.0,364.0,832.0,1.0,0,344.0,1
676,676,0.44524314678005383,0.4,0.0,0.0,406.0,500.0,0.0,1,134.0,1
677,677,-0.0955871246867438,-0.1,0.0,1.0,360.0,733.0,1.0,0,2727.0,1
678,678,-0.71626884626055,-0.7,0.0,1.0,339.0,796.0,1.0,0,115.0,1
679,679,-0.8905413623629472,-0.9,0.0,1.0,387.0,900.0,1.0,0,193.0,1
680,680,0.5957171510736675,0.6,0.0,0.0,334.0,696.0,0.0,1,870.0,1
681,681,0.4423370475311893,0.4,1.0,1.0,281.0,694.0,1.0,1,555.0,1
682,682,-0.656916244459399,-0.7,1.0,0.0,408.0,932.0,0.0,0,3660.0,1
683,683,-0.3964608194318002,-0.4,1.0,0.0,480.0,674.0,0.0,0,806.0,1
684,684,-0.8036382337188749,-0.8,0.0,1.0,409.0,629.0,1.0,0,262.0,1
685,685,0.3948475668399535,0.4,0.0,0.0,313.0,872.0,0.0,1,335.0,1
686,686,-0.1573143659403411,-0.2,0.0,1.0,401.0,997.0,1.0,0,2672.0,1
687,687,-0.5322273618876779,-0.5,1.0,0.0,401.0,717.0,0.0,0,402.0,1
688,688,0.4414741363929727,0.4,0.0,0.0,341.0,957.0,0.0,1,202.0,1
689,689,-0.8280903037915869,-0.8,0.0,1.0,352.0,854.0,1.0,0,44.0,1
690,690,-0.7829677304531575,-0.8,0.0,1.0,441.0,861.0,1.0,0,218.0,1
691,691,0.6099533631128934,0.6,1.0,1.0,407.0,877.0,1.0,1,466.0,1
692,692,-0.4092959139959854,-0.4,0.0,1.0,355.0,683.0,1.0,0,442.0,1
693,693,-0.5450539472693442,-0.5,1.0,0.0,300.0,726.0,0.0,0,334.0,1
694,694,-0.4427114215267625,-0.4,1.0,0.0,293.0,660.0,0.0,0,787.0,1
695,695,0.35953275977458465,0.4,0.0,0.0,473.0,515.0,0.0,1,1242.0,1
696,696,-0.23952069039276713,-0.2,1.0,0.0,437.0,769.0,0.0,0,3794.0,1
697,697,0.3321998309451132,0.3,1.0,1.0,381.0,932.0,1.0,1,227.0,1
698,698,-0.33970461186942913,-0.3,0.0,1.0,352.0,791.0,1.0,0,437.0,1
699,699,0.20660545226660287,0.2,0.0,0.0,280.0,584.0,0.0,1,1106.0,1
700,700,-0.4798541512990155,-0.5,1.0,0.0,402.0,866.0,0.0,0,3732.0,1
701,701,-0.8503022728455012,-0.9,0.0,1.0,347.0,553.0,1.0,0,150.0,1
702,702,0.6553229103983166,0.7,0.0,0.0,271.0,728.0,0.0,1,261.0,1
703,703,0.16517396389290984,0.2,0.0,0.0,426.0,827.0,0.0,1,3747.0,1
704,704,0.6825389758568218,0.7,1.0,1.0,286.0,856.0,1.0,1,378.0,1
705,705,-0.19680059553355678,-0.2,0.0,1.0,340.0,843.0,1.0,0,717.0,1
706,706,0.6225003853826135,0.6,0.0,0.0,475.0,604.0,0.0,1,71.0,1
707,707,0.4840388352371373,0.5,1.0,1.0,285.0,697.0,1.0,1,448.0,1
708,708,-0.05209202174227012,-0.1,0.0,1.0,275.0,870.0,0.0,1,3855.0,0
709,709,-0.48149453772872525,-0.5,0.0,1.0,308.0,707.0,1.0,0,115.0,1
710,710,-0.4372298890100824,-0.4,1.0,0.0,376.0,932.0,0.0,0,842.0,1
711,711,0.2204332866423423,0.2,0.0,0.0,488.0,728.0,0.0,1,524.0,1
712,712,0.4108874414269371,0.4,0.0,0.0,367.0,517.0,0.0,1,376.0,1
713,713,-0.6672526664713285,-0.7,0.0,1.0,343.0,941.0,1.0,0,196.0,1
714,714,-0.5192836734647143,-0.5,0.0,1.0,413.0,770.0,1.0,0,407.0,1
715,715,-0.1344164506452874,-0.1,0.0,1.0,333.0,615.0,1.0,0,4052.0,1
716,716,-0.5447977748754469,-0.5,0.0,1.0,463.0,886.0,1.0,0,251.0,1
717,717,0.035232946191569914,0.0,0.0,0.0,466.0,569.0,0.0,1,3965.0,1
718,718,-0.5530990043576168,-0.6,0.0,1.0,497.0,871.0,1.0,0,232.0,1
719,719,-0.34183593566520976,-0.3,1.0,0.0,277.0,908.0,0.0,0,1765.0,1
720,720,0.8157081244180403,0.8,0.0,0.0,454.0,993.0,0.0,1,83.0,1
721,721,-0.21662477529808044,-0.2,0.0,1.0,433.0,605.0,1.0,0,912.0,1
722,722,0.5570520527985608,0.6,0.0,0.0,268.0,915.0,0.0,1,397.0,1
723,723,-0.5065279347946063,-0.5,0.0,1.0,348.0,718.0,1.0,0,324.0,1
724,724,-0.32505875170921705,-0.3,0.0,1.0,404.0,738.0,1.0,0,428.0,1
725,725,-0.5164460860814041,-0.5,0.0,1.0,322.0,922.0,1.0,0,486.0,1
726,726,0.36528691157061355,0.4,0.0,0.0,418.0,565.0,0.0,1,357.0,1
727,727,0.00580090013193546,0.0,0.0,0.0,437.0,869.0,0.0,1,3694.0,1
728,728,-0.6408213685647219,-0.6,1.0,0.0,294.0,887.0,0.0,0,2839.0,1
729,729,-0.03256828481019591,-0.0,1.0,0.0,490.0,567.0,0.0,0,2493.0,1
730,730,-0.6865254034862368,-0.7,0.0,1.0,414.0,819.0,1.0,0,267.0,1
731,731,-0.3557359025170067,-0.4,0.0,1.0,370.0,962.0,1.0,0,318.0,1
732,732,-0.176923572002748,-0.2,0.0,1.0,275.0,745.0,0.0,1,3980.0,0
733,733,0.3787215191126231,0.4,1.0,1.0,440.0,839.0,1.0,1,1341.0,1
734,734,-0.05960759109840141,-0.1,0.0,1.0,352.0,984.0,1.0,0,3664.0,1
735,735,-0.02016495362362669,-0.0,1.0,0.0,302.0,652.0,0.0,0,4046.0,1
736,736,-0.2848107480514419,-0.3,1.0,0.0,463.0,897.0,0.0,0,1930.0,1
737,737,-0.5639301955121429,-0.6,0.0,1.0,313.0,939.0,1.0,0,188.0,1
738,738,0.6306168038080292,0.6,1.0,1.0,441.0,574.0,1.0,1,845.0,1
739,739,0.8222602271108482,0.8,1.0,1.0,405.0,541.0,1.0,1,324.0,1
740,740,0.20402040641603214,0.2,1.0,1.0,368.0,608.0,1.0,1,1974.0,1
741,741,-0.15320244451816956,-0.2,1.0,0.0,345.0,955.0,0.0,0,700.0,1
742,742,0.5020301445646139,0.5,0.0,0.0,381.0,987.0,0.0,1,452.0,1
743,743,0.6540341619491169,0.7,0.0,0.0,265.0,813.0,0.0,1,322.0,1
744,744,0.5084688871723099,0.5,0.0,0.0,368.0,681.0,0.0,1,231.0,1
745,745,0.4197773332715483,0.4,0.0,0.0,499.0,900.0,0.0,1,391.0,1
746,746,0.5706323780364994,0.6,1.0,1.0,383.0,633.0,1.0,1,324.0,1
747,747,-0.5190436120725446,-0.5,0.0,1.0,394.0,525.0,1.0,0,191.0,1
748,748,-0.1019590085171952,-0.1,1.0,0.0,367.0,540.0,0.0,0,993.0,1
749,749,0.49075898603576096,0.5,1.0,1.0,267.0,585.0,1.0,1,218.0,1
750,750,0.3554879016077189,0.4,0.0,0.0,366.0,852.0,0.0,1,742.0,1
751,751,0.112811974457807,0.1,1.0,1.0,322.0,661.0,1.0,1,3197.0,1
752,752,0.36671549053512587,0.4,1.0,1.0,413.0,508.0,1.0,1,329.0,1
753,753,0.6755496031050864,0.7,1.0,1.0,327.0,736.0,1.0,1,197.0,1
754,754,-0.420841047088677,-0.4,0.0,1.0,311.0,833.0,1.0,0,646.0,1
755,755,0.6266820360357143,0.6,1.0,1.0,496.0,927.0,1.0,1,417.0,1
756,756,0.5619833125626815,0.6,0.0,0.0,268.0,743.0,0.0,1,299.0,1
757,757,0.35858282998206514,0.4,0.0,0.0,308.0,823.0,0.0,1,319.0,1
758,758,0.18232693260577026,0.2,1.0,1.0,280.0,761.0,1.0,1,1479.0,1
759,759,0.840089933367033,0.8,0.0,0.0,300.0,861.0,0.0,1,159.0,1
760,760,-0.7930563269572599,-0.8,0.0,1.0,471.0,937.0,1.0,0,272.0,1
761,761,-0.4942410416230651,-0.5,1.0,0.0,342.0,758.0,0.0,0,2400.0,1
762,762,0.4050183756191367,0.4,1.0,1.0,309.0,684.0,1.0,1,357.0,1
763,763,0.3385476006210474,0.3,0.0,0.0,405.0,710.0,0.0,1,525.0,1
764,764,-0.3412711565664436,-0.3,0.0,1.0,303.0,801.0,1.0,0,826.0,1
765,765,0.2647982522539535,0.3,1.0,1.0,421.0,508.0,1.0,1,1861.0,1
766,766,-0.04983566018231911,-0.0,0.0,1.0,252.0,987.0,1.0,0,151.0,1
767,767,-0.02829466892563981,-0.0,0.0,1.0,422.0,787.0,0.0,1,3791.0,0
768,768,-0.713404760510049,-0.7,0.0,1.0,490.0,559.0,1.0,0,331.0,1
769,769,-0.5248028273512709,-0.5,0.0,1.0,364.0,612.0,1.0,0,204.0,1
770,770,-0.7220226841296479,-0.7,0.0,1.0,415.0,595.0,1.0,0,80.0,1
771,771,-0.5709124271527966,-0.6,0.0,1.0,441.0,874.0,1.0,0,235.0,1
772,772,-0.44510136452554266,-0.4,1.0,0.0,424.0,715.0,0.0,0,681.0,1
773,773,-0.5771357354296873,-0.6,1.0,0.0,333.0,649.0,0.0,0,1698.0,1
774,774,0.42421263490420513,0.4,0.0,0.0,468.0,940.0,0.0,1,632.0,1
775,775,-0.056706808880307324,-0.1,1.0,0.0,476.0,937.0,0.0,0,3587.0,1
776,776,0.22718167685435897,0.2,0.0,0.0,459.0,882.0,1.0,0,-351.0,0
777,777,-0.7298430484088663,-0.7,0.0,1.0,295.0,772.0,1.0,0,193.0,1
778,778,-0.32161171627068763,-0.3,0.0,1.0,495.0,521.0,1.0,0,714.0,1
779,779,0.44888103300416093,0.4,1.0,1.0,289.0,901.0,1.0,1,770.0,1
780,780,-0.5963785810610054,-0.6,0.0,1.0,385.0,537.0,1.0,0,368.0,1
781,781,-0.1874979086440891,-0.2,1.0,0.0,350.0,798.0,0.0,0,3852.0,1
782,782,0.05498271434352464,0.1,0.0,0.0,306.0,974.0,1.0,0,3720.0,0
783,783,0.8159345774649139,0.8,0.0,0.0,423.0,862.0,0.0,1,265.0,1
784,784,-0.12445852709169547,-0.1,1.0,0.0,256.0,604.0,1.0,1,4070.0,0
785,785,0.7322133221983201,0.7,1.0,1.0,473.0,541.0,1.0,1,336.0,1
786,786,-0.638309749422878,-0.6,1.0,0.0,347.0,642.0,0.0,0,2821.0,1
787,787,-0.03963100565684485,-0.0,0.0,1.0,262.0,626.0,1.0,0,692.0,1
788,788,0.22401723253165062,0.2,1.0,1.0,321.0,686.0,1.0,1,643.0,1
789,789,0.16960377093612167,0.2,1.0,1.0,414.0,697.0,1.0,1,2629.0,1
790,790,-0.5028819276406682,-0.5,0.0,1.0,492.0,626.0,1.0,0,662.0,1
791,791,-0.8084366035208084,-0.8,0.0,1.0,435.0,608.0,1.0,0,297.0,1
792,792,-0.19592087463064245,-0.2,1.0,0.0,484.0,571.0,0.0,0,3945.0,1
793,793,0.6522428328408042,0.7,1.0,1.0,299.0,849.0,1.0,1,662.0,1
794,794,-0.8452500550701157,-0.8,0.0,1.0,476.0,708.0,1.0,0,126.0,1
795,795,-0.24040147756797836,-0.2,0.0,1.0,452.0,576.0,1.0,0,732.0,1
796,796,0.6791801917727202,0.7,1.0,1.0,278.0,986.0,1.0,1,276.0,1
797,797,0.6988814379308309,0.7,1.0,1.0,467.0,653.0,1.0,1,350.0,1
798,798,0.8813017686387498,0.9,1.0,1.0,421.0,921.0,1.0,1,218.0,1
799,799,0.5235573767315623,0.5,0.0,0.0,357.0,967.0,0.0,1,376.0,1
800,800,-0.535187664655072,-0.5,0.0,1.0,262.0,610.0,1.0,0,298.0,1
801,801,0.39424677624740345,0.4,0.0,0.0,346.0,910.0,0.0,1,264.0,1
802,802,0.16283076709128375,0.2,1.0,1.0,323.0,735.0,1.0,1,1312.0,1
803,803,0.6015814825891009,0.6,1.0,1.0,336.0,657.0,1.0,1,427.0,1
804,804,0.4488430741374877,0.4,0.0,0.0,257.0,936.0,0.0,1,147.0,1
805,805,0.427848122752318,0.4,1.0,1.0,250.0,819.0,1.0,1,761.0,1
806,806,-0.1790971881483543,-0.2,1.0,0.0,421.0,999.0,0.0,0,450.0,1
807,807,0.6166354512632478,0.6,1.0,1.0,284.0,526.0,1.0,1,270.0,1
808,808,-0.8751203237538876,-0.9,0.0,1.0,443.0,997.0,1.0,0,130.0,1
809,809,0.14775006514122835,0.1,0.0,0.0,473.0,911.0,0.0,1,1256.0,1
810,810,0.27522234317704364,0.3,1.0,1.0,279.0,597.0,1.0,1,574.0,1
811,811,-0.7638431665670511,-0.8,0.0,1.0,435.0,545.0,1.0,0,430.0,1
812,812,0.7502030254619506,0.8,0.0,0.0,308.0,635.0,0.0,1,147.0,1
813,813,-0.8731545963058015,-0.9,1.0,0.0,446.0,730.0,0.0,0,3044.0,1
814,814,0.6605162027732371,0.7,0.0,0.0,362.0,636.0,0.0,1,652.0,1
815,815,-0.6631610366159149,-0.7,1.0,0.0,440.0,591.0,0.0,0,319.0,1
816,816,-0.5803480619730311,-0.6,0.0,1.0,322.0,860.0,1.0,0,418.0,1
817,817,-0.7645787178281458,-0.8,1.0,0.0,496.0,664.0,0.0,0,1020.0,1
818,818,-0.11062368084629881,-0.1,1.0,0.0,286.0,563.0,0.0,0,4151.0,1
819,819,-0.07111119854954262,-0.1,0.0,1.0,358.0,953.0,1.0,0,3689.0,1
820,820,0.8563194494165852,0.9,1.0,1.0,250.0,814.0,1.0,1,156.0,1
821,821,-0.5301000898207044,-0.5,1.0,0.0,384.0,602.0,0.0,0,224.0,1
822,822,0.6949338211678443,0.7,0.0,0.0,339.0,848.0,0.0,1,123.0,1
823,823,-0.3964986523946765,-0.4,0.0,1.0,340.0,518.0,1.0,0,302.0,1
824,824,-0.5312242526431767,-0.5,1.0,0.0,321.0,844.0,0.0,0,1955.0,1
825,825,0.38761556098679406,0.4,1.0,1.0,464.0,600.0,1.0,1,1086.0,1
826,826,0.8017994345304326,0.8,0.0,0.0,389.0,614.0,0.0,1,127.0,1
827,827,-0.1498088651959789,-0.1,0.0,1.0,481.0,581.0,1.0,0,3938.0,1
828,828,-0.02680963047802498,-0.0,0.0,1.0,483.0,628.0,1.0,0,829.0,1
829,829,0.5408653040382042,0.5,1.0,1.0,362.0,961.0,1.0,1,277.0,1
830,830,0.05630913392901671,0.1,0.0,0.0,491.0,872.0,0.0,1,757.0,1
831,831,0.2526444790993355,0.3,1.0,1.0,312.0,831.0,1.0,1,517.0,1
832,832,0.2107679593398476,0.2,0.0,0.0,394.0,669.0,0.0,1,2007.0,1
833,833,-0.8911950930836953,-0.9,0.0,1.0,451.0,942.0,1.0,0,387.0,1
834,834,-0.3801017866421461,-0.4,1.0,0.0,288.0,593.0,0.0,0,319.0,1
835,835,0.8940099800045139,0.9,1.0,1.0,441.0,597.0,1.0,1,262.0,1
836,836,-0.6056094065625128,-0.6,0.0,1.0,379.0,635.0,1.0,0,476.0,1
837,837,-0.7906514911069106,-0.8,0.0,1.0,451.0,617.0,1.0,0,222.0,1
838,838,0.30344284281645983,0.3,0.0,0.0,271.0,713.0,0.0,1,206.0,1
839,839,0.4929423212265728,0.5,1.0,1.0,314.0,722.0,1.0,1,234.0,1
840,840,-0.05077629274234552,-0.1,0.0,1.0,314.0,765.0,1.0,0,3921.0,1
841,841,-0.6497543997793223,-0.6,1.0,0.0,446.0,766.0,0.0,0,638.0,1
842,842,0.693578865115268,0.7,1.0,1.0,365.0,895.0,1.0,1,430.0,1
843,843,0.3705992962543393,0.4,1.0,1.0,352.0,741.0,1.0,1,1657.0,1
844,844,-0.7524548752113894,-0.8,1.0,0.0,356.0,853.0,0.0,0,3281.0,1
845,845,-0.6470429063283669,-0.6,0.0,1.0,403.0,751.0,1.0,0,196.0,1
846,846,-0.0243532597971039,-0.0,0.0,1.0,273.0,504.0,1.0,0,4223.0,1
847,847,0.4444386523603122,0.4,0.0,0.0,371.0,899.0,0.0,1,270.0,1
848,848,0.6634560104746171,0.7,1.0,1.0,355.0,961.0,0.0,0,-96.0,0
849,849,0.2763357233299183,0.3,1.0,1.0,373.0,523.0,1.0,1,574.0,1
850,850,-0.7312185953612479,-0.7,1.0,0.0,266.0,582.0,0.0,0,1052.0,1
851,851,-0.04026380761830883,-0.0,1.0,0.0,443.0,553.0,0.0,0,3684.0,1
852,852,0.1537244853873857,0.2,1.0,1.0,273.0,835.0,1.0,1,2412.0,1
853,853,0.7590397956716736,0.8,1.0,1.0,488.0,956.0,1.0,1,276.0,1
854,854,0.15427365726033393,0.2,0.0,0.0,410.0,848.0,0.0,1,1422.0,1
855,855,-0.08276492602355923,-0.1,0.0,1.0,389.0,926.0,1.0,0,1365.0,1
856,856,-0.6783925848584799,-0.7,1.0,0.0,326.0,614.0,0.0,0,150.0,1
857,857,-0.12557261036867895,-0.1,0.0,1.0,309.0,506.0,1.0,0,4185.0,1
858,858,0.5613806003883813,0.6,1.0,1.0,276.0,938.0,1.0,1,226.0,1
859,859,0.6752203791073143,0.7,1.0,1.0,281.0,708.0,1.0,1,391.0,1
860,860,-0.03548428606688725,-0.0,0.0,1.0,485.0,532.0,0.0,1,3983.0,0
861,861,0.3837362879252765,0.4,1.0,1.0,283.0,936.0,1.0,1,611.0,1
862,862,0.7312006965000045,0.7,1.0,1.0,372.0,926.0,1.0,1,212.0,1
863,863,-0.4695824690553693,-0.5,0.0,1.0,362.0,503.0,1.0,0,495.0,1
864,864,-0.4940694489892843,-0.5,1.0,0.0,369.0,677.0,0.0,0,244.0,1
865,865,-0.3540159907408372,-0.4,1.0,0.0,359.0,696.0,0.0,0,395.0,1
866,866,0.22493534654776226,0.2,0.0,0.0,477.0,746.0,0.0,1,2017.0,1
867,867,-0.17407878179915592,-0.2,0.0,1.0,433.0,770.0,1.0,0,827.0,1
868,868,0.4008370128239337,0.4,0.0,0.0,319.0,572.0,0.0,1,119.0,1
869,869,0.01176407379959954,0.0,0.0,0.0,380.0,635.0,0.0,1,3985.0,1
870,870,0.8179215065642295,0.8,0.0,0.0,495.0,654.0,0.0,1,211.0,1
871,871,-0.8679666369834883,-0.9,0.0,1.0,299.0,738.0,1.0,0,113.0,1
872,872,0.895668337894793,0.9,0.0,0.0,317.0,742.0,0.0,1,261.0,1
873,873,-0.483555663802178,-0.5,0.0,1.0,464.0,536.0,1.0,0,260.0,1
874,874,0.10603694578639289,0.1,0.0,0.0,337.0,904.0,0.0,1,1789.0,1
875,875,-0.1532171654959923,-0.2,0.0,1.0,324.0,965.0,1.0,0,3711.0,1
876,876,-0.3326363313481664,-0.3,1.0,0.0,480.0,625.0,0.0,0,1135.0,1
877,877,-0.05047544382375946,-0.1,0.0,1.0,473.0,588.0,1.0,0,2609.0,1
878,878,-0.11858415801243083,-0.1,0.0,1.0,263.0,992.0,1.0,0,1385.0,1
879,879,0.1544258957185981,0.2,0.0,0.0,484.0,942.0,0.0,1,3574.0,1
880,880,0.6501971576397535,0.7,1.0,1.0,371.0,711.0,1.0,1,408.0,1
881,881,-0.27689553569877934,-0.3,0.0,1.0,446.0,503.0,1.0,0,1011.0,1
882,882,0.287062713927856,0.3,0.0,0.0,274.0,707.0,0.0,1,319.0,1
883,883,0.815183606481574,0.8,1.0,1.0,455.0,988.0,1.0,1,277.0,1
884,884,-0.5921942346397577,-0.6,0.0,1.0,257.0,999.0,1.0,0,194.0,1
885,885,0.5195971993353735,0.5,0.0,0.0,313.0,896.0,0.0,1,111.0,1
886,886,-0.21613507102779927,-0.2,1.0,0.0,344.0,628.0,0.0,0,978.0,1
887,887,-0.25425056501727716,-0.3,1.0,0.0,307.0,609.0,0.0,0,504.0,1
888,888,0.8641901893846516,0.9,0.0,0.0,435.0,559.0,0.0,1,136.0,1
889,889,-0.23387032504425365,-0.2,1.0,0.0,422.0,503.0,0.0,0,1265.0,1
890,890,0.22721558729495517,0.2,1.0,1.0,254.0,837.0,1.0,1,609.0,1
891,891,0.010227625157426035,0.0,1.0,1.0,418.0,697.0,1.0,1,3885.0,1
892,892,-0.09066768625837973,-0.1,1.0,0.0,330.0,836.0,0.0,0,3834.0,1
893,893,-0.7829370495753107,-0.8,0.0,1.0,432.0,732.0,1.0,0,316.0,1
894,894,0.5913425990494509,0.6,1.0,1.0,380.0,829.0,1.0,1,521.0,1
895,895,-0.2030726125268797,-0.2,1.0,0.0,489.0,619.0,0.0,0,3242.0,1
896,896,0.7957825970204587,0.8,0.0,0.0,455.0,703.0,0.0,1,152.0,1
897,897,0.3655243813998551,0.4,1.0,1.0,454.0,924.0,1.0,1,662.0,1
898,898,-0.19229541687370177,-0.2,1.0,0.0,444.0,702.0,0.0,0,2694.0,1
899,899,0.2295147491599142,0.2,1.0,1.0,273.0,718.0,1.0,1,4009.0,1
900,900,-0.5895675473771973,-0.6,0.0,1.0,360.0,773.0,1.0,0,257.0,1
901,901,0.34245453949520976,0.3,0.0,0.0,403.0,981.0,0.0,1,166.0,1
902,902,0.83692735095252,0.8,0.0,0.0,309.0,767.0,0.0,1,184.0,1
903,903,-0.1847992037727617,-0.2,1.0,0.0,415.0,663.0,0.0,0,3922.0,1
904,904,-0.10933621091639956,-0.1,0.0,1.0,399.0,789.0,1.0,0,1782.0,1
905,905,0.40177837445779685,0.4,0.0,0.0,286.0,663.0,0.0,1,421.0,1
906,906,0.7167141801365323,0.7,1.0,1.0,266.0,532.0,1.0,1,402.0,1
907,907,0.014077381715148163,0.0,0.0,0.0,419.0,845.0,1.0,0,3736.0,0
908,908,0.7060310552053556,0.7,0.0,0.0,419.0,583.0,0.0,1,568.0,1
909,909,0.1477940437157591,0.1,1.0,1.0,432.0,936.0,1.0,1,3632.0,1
910,910,0.3449966332965785,0.3,0.0,0.0,266.0,699.0,0.0,1,375.0,1
911,911,-0.7526630948141979,-0.8,1.0,0.0,441.0,577.0,0.0,0,342.0,1
912,912,-0.31084200892061786,-0.3,1.0,0.0,454.0,947.0,0.0,0,429.0,1
913,913,0.8764301021576085,0.9,1.0,1.0,355.0,720.0,1.0,1,255.0,1
914,914,0.34682527232726745,0.3,1.0,1.0,316.0,568.0,1.0,1,826.0,1
915,915,0.13847062577476466,0.1,0.0,0.0,467.0,766.0,0.0,1,917.0,1
916,916,0.7784671613291422,0.8,0.0,0.0,448.0,988.0,0.0,1,154.0,1
917,917,-0.7038635082803778,-0.7,1.0,0.0,460.0,843.0,0.0,0,277.0,1
918,918,-0.002664611485935109,-0.0,0.0,1.0,295.0,986.0,1.0,0,3719.0,1
919,919,0.4867185922798448,0.5,0.0,0.0,321.0,510.0,0.0,1,219.0,1
920,920,0.3894372066081734,0.4,1.0,1.0,392.0,904.0,1.0,1,154.0,1
921,921,-0.3290339759612011,-0.3,0.0,1.0,448.0,560.0,1.0,0,842.0,1
922,922,-0.651070640542423,-0.7,0.0,1.0,387.0,853.0,1.0,0,320.0,1
923,923,-0.6720625340850773,-0.7,1.0,0.0,490.0,921.0,0.0,0,739.0,1
924,924,-0.16376664560170517,-0.2,1.0,0.0,355.0,725.0,0.0,0,3660.0,1
925,925,0.8528262816507789,0.9,1.0,1.0,380.0,757.0,1.0,1,303.0,1
926,926,-0.18390043687339142,-0.2,1.0,0.0,430.0,667.0,0.0,0,1723.0,1
927,927,-0.3077905788423261,-0.3,0.0,1.0,427.0,735.0,1.0,0,958.0,1
928,928,0.7070663292036908,0.7,0.0,0.0,291.0,690.0,0.0,1,309.0,1
929,929,0.49271143488604385,0.5,0.0,0.0,457.0,779.0,0.0,1,434.0,1
930,930,0.48998645733867663,0.5,1.0,1.0,494.0,702.0,1.0,1,314.0,1
931,931,-0.4008192501824433,-0.4,1.0,0.0,265.0,774.0,0.0,0,2801.0,1
932,932,0.5368190219067716,0.5,0.0,0.0,400.0,597.0,0.0,1,273.0,1
933,933,0.6301869668152688,0.6,1.0,1.0,319.0,975.0,1.0,1,886.0,1
934,934,-0.5585829250568193,-0.6,1.0,0.0,279.0,519.0,0.0,0,282.0,1
935,935,-0.192949389706208,-0.2,0.0,1.0,346.0,635.0,1.0,0,379.0,1
936,936,-0.13756461166588363,-0.1,0.0,1.0,307.0,665.0,1.0,0,3668.0,1
937,937,0.09421141145354817,0.1,1.0,1.0,466.0,651.0,0.0,0,2163.0,0
938,938,0.18517533111844375,0.2,0.0,0.0,272.0,697.0,0.0,1,2721.0,1
939,939,-0.7675401520317463,-0.8,0.0,1.0,471.0,633.0,1.0,0,316.0,1
940,940,-0.5488807419155655,-0.5,1.0,0.0,339.0,649.0,0.0,0,1152.0,1
941,941,-0.5096770673137561,-0.5,0.0,1.0,278.0,816.0,1.0,0,366.0,1
942,942,-0.7481418960678566,-0.7,0.0,1.0,479.0,656.0,1.0,0,245.0,1
943,943,0.18842569017990074,0.2,0.0,0.0,400.0,818.0,0.0,1,3782.0,1
944,944,0.7307042798449056,0.7,1.0,1.0,372.0,502.0,1.0,1,316.0,1
945,945,-0.6908498215621662,-0.7,1.0,0.0,274.0,830.0,0.0,0,196.0,1
946,946,0.18103823481978398,0.2,1.0,1.0,423.0,732.0,1.0,1,455.0,1
947,947,0.554735287446997,0.6,1.0,1.0,251.0,612.0,1.0,1,727.0,1
948,948,0.21143230167433902,0.2,1.0,1.0,406.0,946.0,1.0,1,1818.0,1
949,949,0.3020159421128349,0.3,0.0,0.0,432.0,944.0,0.0,1,1564.0,1
950,950,-0.46901504182207726,-0.5,0.0,1.0,493.0,523.0,1.0,0,164.0,1
951,951,-0.7912934774228372,-0.8,1.0,0.0,372.0,954.0,0.0,0,3674.0,1
952,952,0.4148529411741163,0.4,0.0,0.0,288.0,761.0,0.0,1,231.0,1
953,953,-0.3555289697974585,-0.4,1.0,0.0,341.0,705.0,0.0,0,3594.0,1
954,954,-0.018537187056919535,-0.0,1.0,0.0,358.0,871.0,0.0,0,3771.0,1
955,955,-0.018109089071448925,-0.0,0.0,1.0,398.0,948.0,1.0,0,3654.0,1
956,956,-0.2672798258724616,-0.3,1.0,0.0,460.0,990.0,0.0,0,2760.0,1
957,957,0.1199767179436465,0.1,1.0,1.0,451.0,935.0,1.0,1,744.0,1
958,958,-0.16760929665308022,-0.2,0.0,1.0,348.0,775.0,1.0,0,867.0,1
959,959,0.8118480829240832,0.8,1.0,1.0,366.0,989.0,1.0,1,175.0,1
960,960,-0.17020138615710945,-0.2,0.0,1.0,303.0,551.0,1.0,0,2046.0,1
961,961,-0.09331671422463284,-0.1,1.0,0.0,484.0,727.0,0.0,0,1479.0,1
962,962,-0.4923436964922379,-0.5,1.0,0.0,381.0,900.0,0.0,0,679.0,1
963,963,-0.260190730547333,-0.3,1.0,0.0,432.0,860.0,0.0,0,658.0,1
964,964,-0.5038940834933974,-0.5,0.0,1.0,473.0,807.0,1.0,0,330.0,1
965,965,-0.021568670675838897,-0.0,1.0,0.0,481.0,560.0,0.0,0,3959.0,1
966,966,-0.6555267674894043,-0.7,1.0,0.0,262.0,712.0,0.0,0,426.0,1
967,967,0.2703071789755217,0.3,1.0,1.0,489.0,780.0,1.0,1,1231.0,1
968,968,0.019137477956440052,0.0,0.0,0.0,437.0,676.0,0.0,1,577.0,1
969,969,0.6072298891726723,0.6,1.0,1.0,404.0,782.0,1.0,1,254.0,1
970,970,-0.5360232919326602,-0.5,1.0,0.0,419.0,904.0,0.0,0,247.0,1
971,971,0.8092120856298789,0.8,0.0,0.0,307.0,839.0,0.0,1,104.0,1
972,972,-0.8182835986783611,-0.8,1.0,0.0,331.0,627.0,0.0,0,272.0,1
973,973,0.579726900244269,0.6,1.0,1.0,415.0,661.0,1.0,1,224.0,1
974,974,0.4446552673342271,0.4,0.0,0.0,429.0,557.0,0.0,1,414.0,1
975,975,0.6296192981275771,0.6,1.0,1.0,259.0,986.0,1.0,1,395.0,1
976,976,0.09882624098168813,0.1,1.0,1.0,433.0,880.0,1.0,1,3687.0,1
977,977,0.04069206156557159,0.0,1.0,1.0,467.0,873.0,1.0,1,3660.0,1
978,978,0.40963247762216415,0.4,0.0,0.0,431.0,822.0,0.0,1,267.0,1
979,979,-0.3630472657459691,-0.4,0.0,1.0,414.0,870.0,1.0,0,366.0,1
980,980,-0.10503564669837873,-0.1,1.0,0.0,478.0,596.0,0.0,0,3926.0,1
981,981,0.45031113744846774,0.5,0.0,0.0,411.0,866.0,0.0,1,323.0,1
982,982,-0.8988811073967512,-0.9,1.0,0.0,285.0,619.0,0.0,0,236.0,1
983,983,-0.46202534986687055,-0.5,0.0,1.0,436.0,771.0,1.0,0,153.0,1
984,984,-0.009850687910822664,-0.0,1.0,0.0,295.0,665.0,0.0,0,770.0,1
985,985,-0.509416910531145,-0.5,1.0,0.0,285.0,775.0,0.0,0,150.0,1
986,986,-0.8524622340514134,-0.9,1.0,0.0,450.0,919.0,0.0,0,311.0,1
987,987,0.06307972722945288,0.1,0.0,0.0,308.0,924.0,0.0,1,3768.0,1
988,988,-0.7574313214713476,-0.8,1.0,0.0,411.0,652.0,0.0,0,197.0,1
989,989,0.04210073189909935,0.0,0.0,0.0,346.0,734.0,0.0,1,3920.0,1
990,990,-0.6127804472351598,-0.6,1.0,0.0,483.0,924.0,0.0,0,2663.0,1
991,991,0.8219294653521171,0.8,1.0,1.0,350.0,625.0,1.0,1,395.0,1
992,992,-0.44053805715264677,-0.4,0.0,1.0,494.0,821.0,1.0,0,325.0,1
993,993,-0.012996042661609808,-0.0,1.0,0.0,288.0,501.0,0.0,0,2621.0,1
994,994,0.2298618832479541,0.2,1.0,1.0,445.0,686.0,1.0,1,1439.0,1
995,995,-0.8979092197924762,-0.9,0.0,1.0,287.0,609.0,1.0,0,184.0,1
996,996,-0.178477383044658,-0.2,1.0,0.0,429.0,767.0,0.0,0,634.0,1
997,997,0.4712219859591903,0.5,0.0,0.0,450.0,871.0,0.0,1,499.0,1
998,998,-0.11838107351483473,-0.1,1.0,0.0,275.0,778.0,0.0,0,3947.0,1
999,999,-0.8617454091424551,-0.9,0.0,1.0,448.0,531.0,1.0,0,351.0,1
1000,1000,-0.0892597696915185,-0.1,0.0,1.0,456.0,765.0,1.0,0,2349.0,1
1001,1001,-0.40068476178736706,-0.4,1.0,0.0,331.0,713.0,0.0,0,3536.0,1
1002,1002,-0.19186657168897792,-0.2,1.0,0.0,296.0,850.0,0.0,0,1454.0,1
1003,1003,0.12128610345277424,0.1,1.0,1.0,448.0,641.0,1.0,1,3911.0,1
1004,1004,0.5978529050205644,0.6,0.0,0.0,417.0,874.0,0.0,1,269.0,1
1005,1005,-0.5807111395877123,-0.6,1.0,0.0,273.0,948.0,0.0,0,419.0,1
1006,1006,-0.1493920031277789,-0.1,0.0,1.0,280.0,882.0,1.0,0,-372.0,1
1007,1007,0.13602407387921966,0.1,1.0,1.0,270.0,833.0,0.0,0,3897.0,0
1008,1008,-0.15125745081579056,-0.2,1.0,0.0,309.0,636.0,0.0,0,1965.0,1
1009,1009,-0.8635765070987088,-0.9,1.0,0.0,498.0,534.0,0.0,0,1348.0,1
1010,1010,0.8005040795047748,0.8,1.0,1.0,265.0,967.0,1.0,1,198.0,1
1011,1011,0.33938939637952836,0.3,1.0,1.0,259.0,635.0,1.0,1,366.0,1
1012,1012,0.28074510103092265,0.3,1.0,1.0,422.0,704.0,1.0,1,514.0,1
1013,1013,0.8675369484864831,0.9,0.0,0.0,413.0,817.0,0.0,1,230.0,1
1014,1014,0.7782349819140638,0.8,0.0,0.0,481.0,530.0,0.0,1,169.0,1
1015,1015,0.42767762116415453,0.4,1.0,1.0,401.0,805.0,1.0,1,414.0,1
1016,1016,-0.24327247759139004,-0.2,1.0,0.0,261.0,613.0,0.0,0,1176.0,1
1017,1017,-0.7573584177251057,-0.8,1.0,0.0,470.0,709.0,0.0,0,1641.0,1
1018,1018,0.07973472606865217,0.1,1.0,1.0,475.0,775.0,1.0,1,1880.0,1
1019,1019,0.8983479548993879,0.9,0.0,0.0,419.0,628.0,0.0,1,153.0,1
1020,1020,-0.3307494827814301,-0.3,0.0,1.0,371.0,801.0,1.0,0,838.0,1
1021,1021,0.3235901346301192,0.3,0.0,0.0,259.0,939.0,0.0,1,1112.0,1
1022,1022,0.6059107310782673,0.6,0.0,0.0,301.0,990.0,0.0,1,219.0,1
1023,1023,-0.4880723950197555,-0.5,0.0,1.0,364.0,814.0,1.0,0,242.0,1
1024,1024,0.04641255270700262,0.0,0.0,0.0,280.0,622.0,0.0,1,1838.0,1
1025,1025,0.4134366033739211,0.4,0.0,0.0,294.0,633.0,0.0,1,173.0,1
1026,1026,-0.35049758495056105,-0.4,1.0,0.0,370.0,798.0,0.0,0,3812.0,1
1027,1027,0.1033220108304852,0.1,1.0,1.0,352.0,855.0,1.0,1,3793.0,1
1028,1028,0.32131881632501746,0.3,1.0,1.0,491.0,644.0,1.0,1,915.0,1
1029,1029,0.057958346872776456,0.1,0.0,0.0,336.0,892.0,0.0,1,2222.0,1
1030,1030,0.4096423208103174,0.4,1.0,1.0,302.0,676.0,1.0,1,552.0,1
1031,1031,0.1346524643852275,0.1,0.0,0.0,485.0,902.0,0.0,1,203.0,1
1032,1032,0.8483650059307385,0.8,1.0,1.0,428.0,538.0,1.0,1,344.0,1
1033,1033,0.496920656587421,0.5,1.0,1.0,495.0,779.0,1.0,1,846.0,1
1034,1034,0.8022214491236174,0.8,1.0,1.0,401.0,503.0,1.0,1,236.0,1
1035,1035,0.20772333331571946,0.2,0.0,0.0,499.0,828.0,0.0,1,1823.0,1
1036,1036,-0.2715995805506001,-0.3,1.0,0.0,415.0,719.0,0.0,0,806.0,1
1037,1037,-0.044764009954435746,-0.0,1.0,0.0,371.0,541.0,0.0,0,4088.0,1
1038,1038,-0.13751471182436703,-0.1,0.0,1.0,267.0,831.0,1.0,0,3162.0,1
1039,1039,-0.6730430474110712,-0.7,1.0,0.0,472.0,693.0,0.0,0,355.0,1
1040,1040,-0.7733997489841317,-0.8,1.0,0.0,287.0,697.0,0.0,0,116.0,1
1041,1041,-0.2851767256515759,-0.3,0.0,1.0,497.0,757.0,1.0,0,806.0,1
1042,1042,0.4592009003389316,0.5,0.0,0.0,451.0,646.0,0.0,1,283.0,1
1043,1043,-0.8979261261634045,-0.9,1.0,0.0,291.0,693.0,0.0,0,2976.0,1
1044,1044,0.35832712793695076,0.4,0.0,0.0,475.0,982.0,0.0,1,113.0,1
1045,1045,-0.5165868024058413,-0.5,0.0,1.0,279.0,794.0,1.0,0,197.0,1
1046,1046,-0.39135440208398165,-0.4,0.0,1.0,337.0,631.0,1.0,0,412.0,1
1047,1047,0.28115450875458736,0.3,0.0,0.0,383.0,536.0,0.0,1,1431.0,1
1048,1048,0.04864151867159083,0.0,0.0,0.0,359.0,797.0,0.0,1,3844.0,1
1049,1049,0.5368845951641276,0.5,1.0,1.0,458.0,965.0,1.0,1,217.0,1
1050,1050,0.1431386506002824,0.1,1.0,1.0,496.0,824.0,1.0,1,2090.0,1
1051,1051,0.3865441293683646,0.4,0.0,0.0,408.0,818.0,0.0,1,304.0,1
1052,1052,-0.4533024858002383,-0.5,1.0,0.0,386.0,561.0,0.0,0,333.0,1
1053,1053,0.2527451401360873,0.3,0.0,0.0,488.0,991.0,0.0,1,881.0,1
1054,1054,-0.719814050408714,-0.7,1.0,0.0,326.0,668.0,0.0,0,266.0,1
1055,1055,-0.2485152604332943,-0.2,0.0,1.0,313.0,908.0,1.0,0,389.0,1
1056,1056,-0.26173386847694957,-0.3,0.0,1.0,251.0,646.0,1.0,0,1093.0,1
1057,1057,-0.017085646991020553,-0.0,1.0,0.0,335.0,974.0,0.0,0,-319.0,1
1058,1058,0.2134400619778024,0.2,0.0,0.0,408.0,675.0,0.0,1,807.0,1
1059,1059,0.5142684615684568,0.5,0.0,0.0,276.0,965.0,0.0,1,239.0,1
1060,1060,0.4592574789544751,0.5,1.0,1.0,354.0,713.0,1.0,1,283.0,1
1061,1061,0.3174699569926359,0.3,0.0,0.0,442.0,578.0,0.0,1,1680.0,1
1062,1062,0.7165207451716787,0.7,1.0,1.0,257.0,866.0,1.0,1,167.0,1
1063,1063,-0.5062095086276504,-0.5,1.0,0.0,373.0,506.0,0.0,0,381.0,1
1064,1064,-0.3630065009930894,-0.4,1.0,0.0,490.0,781.0,0.0,0,1719.0,1
1065,1065,-0.043741858107638754,-0.0,1.0,0.0,397.0,765.0,0.0,0,808.0,1
1066,1066,0.46453616744491166,0.5,0.0,0.0,269.0,746.0,0.0,1,265.0,1
1067,1067,0.5033330227834069,0.5,0.0,0.0,444.0,556.0,0.0,1,470.0,1
1068,1068,-0.38427698838156343,-0.4,1.0,0.0,405.0,727.0,0.0,0,498.0,1
1069,1069,-0.10817292066349082,-0.1,0.0,1.0,405.0,851.0,0.0,1,3744.0,0
1070,1070,-0.39432153295416117,-0.4,1.0,0.0,495.0,658.0,0.0,0,1867.0,1
1071,1071,-0.04464642128485652,-0.0,1.0,0.0,489.0,517.0,0.0,0,3994.0,1
1072,1072,0.220772666853574,0.2,1.0,1.0,345.0,563.0,1.0,1,1112.0,1
1073,1073,0.4878941963541191,0.5,1.0,1.0,380.0,823.0,1.0,1,437.0,1
1074,1074,-0.7554737490667909,-0.8,0.0,1.0,288.0,789.0,1.0,0,243.0,1
1075,1075,0.14179928599395863,0.1,0.0,0.0,403.0,985.0,0.0,1,3612.0,1
1076,1076,0.5833533145001292,0.6,0.0,0.0,390.0,864.0,0.0,1,456.0,1
1077,1077,0.8967513466616052,0.9,1.0,1.0,338.0,525.0,1.0,1,117.0,1
1078,1078,-0.10341685767293973,-0.1,0.0,1.0,404.0,662.0,1.0,0,3934.0,1
1079,1079,-0.6904034495482584,-0.7,0.0,1.0,396.0,522.0,1.0,0,432.0,1
1080,1080,-0.6690357919530217,-0.7,1.0,0.0,387.0,654.0,0.0,0,2849.0,1
1081,1081,-0.6160347500037187,-0.6,0.0,1.0,373.0,978.0,1.0,0,299.0,1
1082,1082,-0.13370568601363997,-0.1,1.0,0.0,379.0,512.0,0.0,0,4099.0,1
1083,1083,-0.41222222864614816,-0.4,0.0,1.0,279.0,766.0,1.0,0,385.0,1
1084,1084,0.14758570961355388,0.1,1.0,1.0,413.0,974.0,1.0,1,3613.0,1
1085,1085,-0.1156454438731902,-0.1,0.0,1.0,417.0,741.0,1.0,0,1522.0,1
1086,1086,-0.1288078335531342,-0.1,1.0,0.0,433.0,965.0,0.0,0,3602.0,1
1087,1087,-0.7800986520731173,-0.8,1.0,0.0,431.0,864.0,0.0,0,495.0,1
1088,1088,0.8851964467370884,0.9,0.0,0.0,315.0,889.0,0.0,1,266.0,1
1089,1089,-0.5070846684614658,-0.5,1.0,0.0,348.0,969.0,0.0,0,3683.0,1
1090,1090,0.23118214624043254,0.2,1.0,1.0,430.0,547.0,1.0,1,2323.0,1
1091,1091,-0.6671098260620872,-0.7,1.0,0.0,386.0,865.0,0.0,0,119.0,1
1092,1092,-0.48584325690791375,-0.5,0.0,1.0,487.0,586.0,1.0,0,867.0,1
1093,1093,-0.8068824807530764,-0.8,0.0,1.0,324.0,764.0,1.0,0,332.0,1
1094,1094,-0.021797627852780277,-0.0,1.0,0.0,349.0,678.0,0.0,0,3973.0,1
1095,1095,-0.40962176251728316,-0.4,0.0,1.0,441.0,552.0,1.0,0,327.0,1
1096,1096,0.3833345009988113,0.4,1.0,1.0,439.0,934.0,1.0,1,1327.0,1
1097,1097,0.7286295434431259,0.7,1.0,1.0,365.0,766.0,1.0,1,349.0,1
1098,1098,0.7238632973777183,0.7,1.0,1.0,311.0,593.0,1.0,1,316.0,1
1099,1099,-0.03926042262227303,-0.0,1.0,0.0,492.0,698.0,0.0,0,3810.0,1
1100,1100,-0.4979660121480415,-0.5,0.0,1.0,346.0,510.0,1.0,0,394.0,1
1101,1101,-0.5408078493457349,-0.5,1.0,0.0,476.0,614.0,0.0,0,2560.0,1
1102,1102,0.7890149605826541,0.8,0.0,0.0,371.0,848.0,0.0,1,291.0,1
1103,1103,0.21744299930297972,0.2,0.0,0.0,263.0,963.0,0.0,1,274.0,1
1104,1104,0.3117387648069626,0.3,0.0,0.0,335.0,781.0,0.0,1,844.0,1
1105,1105,0.7183202426072176,0.7,0.0,0.0,498.0,995.0,0.0,1,277.0,1
1106,1106,-0.691003314681505,-0.7,1.0,0.0,406.0,526.0,0.0,0,618.0,1
1107,1107,-0.12208872049073671,-0.1,0.0,1.0,468.0,665.0,1.0,0,637.0,1
1108,1108,-0.7764402319723045,-0.8,1.0,0.0,450.0,881.0,0.0,0,3669.0,1
1109,1109,-0.18438657732188957,-0.2,1.0,0.0,260.0,827.0,0.0,0,3353.0,1
1110,1110,0.38912398363632683,0.4,1.0,1.0,306.0,551.0,1.0,1,523.0,1
1111,1111,0.70781618226094,0.7,1.0,1.0,441.0,550.0,1.0,1,439.0,1
1112,1112,-0.25659494804714433,-0.3,0.0,1.0,484.0,714.0,1.0,0,662.0,1
1113,1113,0.8169721874750476,0.8,0.0,0.0,406.0,971.0,0.0,1,143.0,1
1114,1114,-0.7639312049683364,-0.8,1.0,0.0,455.0,681.0,0.0,0,84.0,1
1115,1115,-0.721194936929121,-0.7,1.0,0.0,271.0,626.0,0.0,0,2413.0,1
1116,1116,0.36686366175275287,0.4,0.0,0.0,313.0,861.0,0.0,1,236.0,1
1117,1117,0.565887507981028,0.6,1.0,1.0,277.0,771.0,1.0,1,342.0,1
1118,1118,0.6761421067169641,0.7,1.0,1.0,323.0,650.0,1.0,1,427.0,1
1119,1119,-0.6800981071065259,-0.7,0.0,1.0,492.0,971.0,1.0,0,-373.0,1
1120,1120,0.7572947455904789,0.8,0.0,0.0,322.0,914.0,0.0,1,344.0,1
1121,1121,-0.2733606782500042,-0.3,0.0,1.0,377.0,880.0,1.0,0,1333.0,1
1122,1122,-0.22560863083786453,-0.2,0.0,1.0,358.0,538.0,1.0,0,304.0,1
1123,1123,-0.6632507740761832,-0.7,0.0,1.0,313.0,895.0,1.0,0,332.0,1
1124,1124,0.18347872384204578,0.2,1.0,1.0,413.0,900.0,0.0,0,3687.0,0
1125,1125,0.606714134224016,0.6,0.0,0.0,308.0,565.0,0.0,1,457.0,1
1126,1126,0.5969766037625707,0.6,1.0,1.0,336.0,528.0,1.0,1,466.0,1
1127,1127,0.890690874172985,0.9,0.0,0.0,375.0,852.0,0.0,1,223.0,1
1128,1128,0.35364669972636376,0.4,0.0,0.0,437.0,624.0,0.0,1,369.0,1
1129,1129,0.1975650329959494,0.2,0.0,0.0,456.0,618.0,0.0,1,3926.0,1
1130,1130,0.5771166166342035,0.6,1.0,1.0,325.0,867.0,1.0,1,238.0,1
1131,1131,-0.004660850984656517,-0.0,0.0,1.0,409.0,858.0,0.0,1,3733.0,0
1132,1132,-0.6576265724226165,-0.7,0.0,1.0,460.0,861.0,1.0,0,349.0,1
1133,1133,0.5789484820872876,0.6,0.0,0.0,267.0,898.0,0.0,1,525.0,1
1134,1134,0.5926831393544002,0.6,0.0,0.0,329.0,986.0,0.0,1,435.0,1
1135,1135,-0.4374587150036151,-0.4,1.0,0.0,444.0,596.0,0.0,0,1770.0,1
1136,1136,-0.41473900177652373,-0.4,1.0,0.0,380.0,636.0,0.0,0,1254.0,1
1137,1137,0.3339849255377706,0.3,1.0,1.0,329.0,538.0,1.0,1,583.0,1
1138,1138,-0.8937810469677422,-0.9,0.0,1.0,453.0,770.0,1.0,0,127.0,1
1139,1139,-0.6624738649170625,-0.7,0.0,1.0,446.0,720.0,1.0,0,384.0,1
1140,1140,0.22619755223677707,0.2,0.0,0.0,378.0,516.0,0.0,1,1036.0,1
1141,1141,-0.1806616122331075,-0.2,0.0,1.0,273.0,907.0,1.0,0,660.0,1
1142,1142,0.07398949300918178,0.1,1.0,1.0,473.0,716.0,0.0,0,3811.0,0
1143,1143,0.5137581560293464,0.5,1.0,1.0,263.0,857.0,1.0,1,370.0,1
1144,1144,-0.5943146845901783,-0.6,1.0,0.0,319.0,506.0,0.0,0,1095.0,1
1145,1145,-0.5391667149969408,-0.5,0.0,1.0,255.0,544.0,1.0,0,191.0,1
1146,1146,0.397884769883046,0.4,1.0,1.0,406.0,840.0,1.0,1,324.0,1
1147,1147,-0.2026544048375356,-0.2,0.0,1.0,381.0,627.0,1.0,0,1782.0,1
1148,1148,-0.5825018200173369,-0.6,1.0,0.0,258.0,976.0,0.0,0,756.0,1
1149,1149,0.54080017199374,0.5,1.0,1.0,384.0,901.0,1.0,1,195.0,1
1150,1150,-0.7530930080574277,-0.8,0.0,1.0,492.0,688.0,1.0,0,210.0,1
1151,1151,-0.2746227873035365,-0.3,1.0,0.0,345.0,544.0,0.0,0,1271.0,1
1152,1152,-0.6552074483111671,-0.7,1.0,0.0,294.0,539.0,0.0,0,437.0,1
1153,1153,-0.6617352123003624,-0.7,0.0,1.0,460.0,920.0,1.0,0,200.0,1
1154,1154,0.10699981922231705,0.1,1.0,1.0,420.0,962.0,1.0,1,3618.0,1
1155,1155,-0.5370309893375735,-0.5,0.0,1.0,413.0,736.0,0.0,1,-99.0,0
1156,1156,-0.2032434882978036,-0.2,0.0,1.0,360.0,867.0,1.0,0,253.0,1
1157,1157,0.05390066790845993,0.1,1.0,1.0,253.0,996.0,1.0,1,3751.0,1
1158,1158,-0.31727346123762024,-0.3,1.0,0.0,375.0,830.0,0.0,0,245.0,1
1159,1159,0.06449777568427173,0.1,0.0,0.0,444.0,576.0,0.0,1,3980.0,1
1160,1160,-0.13334435733672945,-0.1,1.0,0.0,480.0,528.0,0.0,0,3992.0,1
1161,1161,-0.505760987043196,-0.5,0.0,1.0,374.0,623.0,1.0,0,273.0,1
1162,1162,-0.798546002483313,-0.8,0.0,1.0,275.0,701.0,1.0,0,174.0,1
1163,1163,-0.017795915954298525,-0.0,0.0,1.0,376.0,732.0,0.0,1,3892.0,0
1164,1164,0.08740990250729341,0.1,0.0,0.0,253.0,564.0,0.0,1,973.0,1
1165,1165,-0.0007825485864784154,-0.0,0.0,1.0,452.0,796.0,1.0,0,1992.0,1
1166,1166,0.0723607064003674,0.1,0.0,0.0,437.0,928.0,1.0,0,3635.0,0
1167,1167,0.5279889321375667,0.5,0.0,0.0,273.0,906.0,0.0,1,231.0,1
1168,1168,0.37744433316856674,0.4,1.0,1.0,345.0,961.0,1.0,1,944.0,1
1169,1169,-0.07351387479003701,-0.1,0.0,1.0,264.0,833.0,1.0,0,913.0,1
1170,1170,0.1230196449675246,0.1,1.0,1.0,414.0,841.0,0.0,0,3745.0,0
1171,1171,-0.10843660367002828,-0.1,1.0,0.0,341.0,921.0,0.0,0,3738.0,1
1172,1172,0.8332040515737354,0.8,1.0,1.0,350.0,703.0,1.0,1,247.0,1
1173,1173,0.7544500121468097,0.8,0.0,0.0,309.0,837.0,0.0,1,534.0,1
1174,1174,0.8439497546894775,0.8,1.0,1.0,399.0,556.0,1.0,1,175.0,1
1175,1175,-0.5708631705315454,-0.6,0.0,1.0,466.0,707.0,1.0,0,297.0,1
1176,1176,-0.04937299660824079,-0.0,0.0,1.0,339.0,527.0,0.0,1,4134.0,0
1177,1177,-0.06727536350751162,-0.1,1.0,0.0,297.0,991.0,0.0,0,3712.0,1
1178,1178,0.17677164554671065,0.2,1.0,1.0,322.0,993.0,1.0,1,995.0,1
1179,1179,0.19381453848551977,0.2,0.0,0.0,345.0,541.0,0.0,1,594.0,1
1180,1180,-0.24583491464073093,-0.2,1.0,0.0,334.0,725.0,0.0,0,3941.0,1
1181,1181,-0.4061221786117417,-0.4,0.0,1.0,376.0,590.0,1.0,0,324.0,1
1182,1182,0.19326178547873984,0.2,0.0,0.0,497.0,955.0,0.0,1,588.0,1
1183,1183,-0.4627629068168595,-0.5,1.0,0.0,298.0,935.0,0.0,0,867.0,1
1184,1184,-0.6322094667131379,-0.6,1.0,0.0,350.0,584.0,0.0,0,4066.0,1
1185,1185,0.0004509404892378832,0.0,0.0,0.0,475.0,802.0,1.0,0,3723.0,0
1186,1186,-0.8229387763956515,-0.8,1.0,0.0,455.0,988.0,0.0,0,397.0,1
1187,1187,-0.8100133529848204,-0.8,0.0,1.0,396.0,566.0,1.0,0,148.0,1
1188,1188,-0.5673205722479233,-0.6,0.0,1.0,347.0,613.0,1.0,0,160.0,1
1189,1189,0.11161782962029398,0.1,0.0,0.0,429.0,901.0,0.0,1,3360.0,1
1190,1190,-0.7190812124034864,-0.7,0.0,1.0,358.0,901.0,1.0,0,221.0,1
1191,1191,-0.4554183907102591,-0.5,1.0,0.0,292.0,950.0,0.0,0,278.0,1
1192,1192,-0.6075585448439755,-0.6,0.0,1.0,347.0,790.0,1.0,0,143.0,1
1193,1193,0.028343246486123963,0.0,1.0,1.0,291.0,519.0,0.0,0,4190.0,0
1194,1194,0.8118568077678404,0.8,1.0,1.0,472.0,685.0,1.0,1,473.0,1
1195,1195,0.5061075158891589,0.5,1.0,1.0,436.0,903.0,1.0,1,261.0,1
1196,1196,0.6970203348092466,0.7,1.0,1.0,431.0,884.0,1.0,1,365.0,1
1197,1197,-0.6355103597465517,-0.6,1.0,0.0,272.0,957.0,0.0,0,271.0,1
1198,1198,0.6454585019542113,0.6,1.0,1.0,406.0,584.0,1.0,1,310.0,1
1199,1199,-0.7424049569287857,-0.7,0.0,1.0,305.0,873.0,1.0,0,172.0,1
1200,1200,-0.6799896320245977,-0.7,0.0,1.0,398.0,635.0,1.0,0,127.0,1
1201,1201,-0.7833932829189397,-0.8,0.0,1.0,400.0,605.0,1.0,0,485.0,1
1202,1202,0.8138991381925286,0.8,1.0,1.0,255.0,911.0,1.0,1,394.0,1
1203,1203,0.5682575769499124,0.6,0.0,0.0,469.0,622.0,0.0,1,219.0,1
1204,1204,-0.728481989019984,-0.7,0.0,1.0,272.0,553.0,1.0,0,295.0,1
1205,1205,-0.44789263640218496,-0.4,1.0,0.0,448.0,816.0,0.0,0,276.0,1
1206,1206,-0.2383120491012436,-0.2,0.0,1.0,365.0,597.0,1.0,0,458.0,1
1207,1207,0.239488608330913,0.2,1.0,1.0,331.0,831.0,1.0,1,1728.0,1
1208,1208,0.3013018597083089,0.3,0.0,0.0,459.0,771.0,0.0,1,320.0,1
1209,1209,-0.494904593203395,-0.5,1.0,0.0,410.0,618.0,0.0,0,632.0,1
1210,1210,-0.529097766401546,-0.5,1.0,0.0,362.0,545.0,0.0,0,1573.0,1
1211,1211,0.7813007187486419,0.8,1.0,1.0,273.0,977.0,1.0,1,260.0,1
1212,1212,-0.4454637122187027,-0.4,1.0,0.0,253.0,756.0,0.0,0,991.0,1
1213,1213,-0.6031365904524846,-0.6,1.0,0.0,276.0,621.0,0.0,0,4103.0,1
1214,1214,-0.7148119602474804,-0.7,1.0,0.0,416.0,825.0,0.0,0,749.0,1
1215,1215,-0.8466073378345984,-0.8,1.0,0.0,497.0,806.0,0.0,0,217.0,1
1216,1216,-0.24254559836597156,-0.2,0.0,1.0,472.0,811.0,1.0,0,947.0,1
1217,1217,0.887495605866479,0.9,1.0,1.0,358.0,984.0,1.0,1,228.0,1
1218,1218,0.2642315268174117,0.3,1.0,1.0,495.0,831.0,1.0,1,614.0,1
1219,1219,-0.8069576848655471,-0.8,1.0,0.0,394.0,642.0,0.0,0,3964.0,1
1220,1220,0.10271518559434034,0.1,1.0,1.0,272.0,724.0,1.0,1,4004.0,1
1221,1221,-0.5775751414217833,-0.6,1.0,0.0,353.0,937.0,0.0,0,3710.0,1
1222,1222,0.1560270058458727,0.2,0.0,0.0,389.0,841.0,0.0,1,400.0,1
1223,1223,0.40809912515680924,0.4,0.0,0.0,269.0,937.0,0.0,1,384.0,1
1224,1224,-0.10600629541493078,-0.1,0.0,1.0,416.0,751.0,1.0,0,2643.0,1
1225,1225,-0.11936300737947003,-0.1,0.0,1.0,318.0,970.0,1.0,0,3712.0,1
1226,1226,-0.2377871078078475,-0.2,1.0,0.0,252.0,893.0,0.0,0,3855.0,1
1227,1227,-0.688479746885974,-0.7,0.0,1.0,393.0,976.0,1.0,0,181.0,1
1228,1228,-0.7532953422085839,-0.8,1.0,0.0,420.0,587.0,0.0,0,103.0,1
1229,1229,0.1761315964647573,0.2,1.0,1.0,275.0,781.0,1.0,1,1504.0,1
1230,1230,-0.6347164621750563,-0.6,0.0,1.0,465.0,677.0,1.0,0,308.0,1
1231,1231,0.6675877425060707,0.7,1.0,1.0,417.0,580.0,1.0,1,423.0,1
1232,1232,-0.8917360367616911,-0.9,0.0,1.0,329.0,576.0,1.0,0,235.0,1
1233,1233,0.8544106373590431,0.9,1.0,1.0,470.0,862.0,1.0,1,308.0,1
1234,1234,-0.414778699765792,-0.4,0.0,1.0,347.0,526.0,1.0,0,487.0,1
1235,1235,-0.13305291371225236,-0.1,0.0,1.0,375.0,987.0,1.0,0,3048.0,1
1236,1236,0.4958938213709464,0.5,0.0,0.0,423.0,665.0,0.0,1,632.0,1
1237,1237,0.015263829169719134,0.0,0.0,0.0,483.0,994.0,1.0,0,3523.0,0
1238,1238,-0.1504352926360929,-0.2,1.0,0.0,361.0,680.0,0.0,0,259.0,1
1239,1239,0.40764601732789274,0.4,0.0,0.0,496.0,599.0,0.0,1,685.0,1
1240,1240,0.3025960323723572,0.3,1.0,1.0,270.0,893.0,1.0,1,2897.0,1
1241,1241,0.4486794927735328,0.4,1.0,1.0,420.0,951.0,1.0,1,259.0,1
1242,1242,0.5220972450255846,0.5,0.0,0.0,313.0,737.0,0.0,1,370.0,1
1243,1243,0.5349872012322691,0.5,1.0,1.0,423.0,832.0,1.0,1,555.0,1
1244,1244,-0.6214045692438205,-0.6,1.0,0.0,405.0,630.0,0.0,0,865.0,1
1245,1245,0.41941703466701485,0.4,1.0,1.0,382.0,567.0,1.0,1,1561.0,1
1246,1246,-0.058549134423820925,-0.1,0.0,1.0,424.0,952.0,1.0,0,54.0,1
1247,1247,0.12401801144616653,0.1,1.0,1.0,281.0,992.0,0.0,0,3727.0,0
1248,1248,-0.7287137849877625,-0.7,0.0,1.0,323.0,881.0,1.0,0,196.0,1
1249,1249,-0.3474699791751469,-0.3,1.0,0.0,318.0,728.0,0.0,0,1804.0,1
1250,1250,-0.2992119927385639,-0.3,1.0,0.0,330.0,603.0,0.0,0,4067.0,1
1251,1251,0.15037802686724933,0.2,1.0,1.0,475.0,819.0,1.0,1,2796.0,1
1252,1252,0.009377412164523369,0.0,0.0,0.0,257.0,918.0,0.0,1,315.0,1
1253,1253,0.053678463562984335,0.1,0.0,0.0,458.0,794.0,1.0,0,68.0,0
1254,1254,0.014251197874998178,0.0,1.0,1.0,437.0,528.0,0.0,0,1135.0,0
1255,1255,-0.3129556089630938,-0.3,0.0,1.0,450.0,512.0,1.0,0,398.0,1
1256,1256,-0.06408487322649692,-0.1,0.0,1.0,302.0,769.0,1.0,0,3929.0,1
1257,1257,0.2597183918101432,0.3,1.0,1.0,288.0,868.0,1.0,1,984.0,1
1258,1258,0.48768266199738586,0.5,0.0,0.0,470.0,643.0,0.0,1,297.0,1
1259,1259,0.7782566068808158,0.8,1.0,1.0,480.0,841.0,1.0,1,559.0,1
1260,1260,0.18937130578799166,0.2,1.0,1.0,335.0,945.0,1.0,1,460.0,1
1261,1261,0.7407688494125856,0.7,1.0,1.0,390.0,817.0,1.0,1,293.0,1
1262,1262,-0.7806689154320008,-0.8,0.0,1.0,266.0,925.0,1.0,0,469.0,1
1263,1263,-0.2575854788219212,-0.3,0.0,1.0,369.0,870.0,1.0,0,551.0,1
1264,1264,0.8409993728030817,0.8,1.0,1.0,370.0,726.0,1.0,1,384.0,1
1265,1265,-0.5970860405394092,-0.6,1.0,0.0,420.0,739.0,0.0,0,171.0,1
1266,1266,-0.4052154702087783,-0.4,1.0,0.0,272.0,919.0,0.0,0,569.0,1
1267,1267,-0.6431849327472132,-0.6,0.0,1.0,463.0,624.0,1.0,0,173.0,1
1268,1268,0.8122053505691039,0.8,1.0,1.0,334.0,900.0,1.0,1,186.0,1
1269,1269,0.35659964686689427,0.4,0.0,0.0,370.0,577.0,0.0,1,703.0,1
1270,1270,-0.5291261525732542,-0.5,1.0,0.0,496.0,650.0,0.0,0,1204.0,1
1271,1271,-0.8428641073738052,-0.8,0.0,1.0,261.0,630.0,1.0,0,199.0,1
1272,1272,-0.6432939936003017,-0.6,1.0,0.0,253.0,774.0,0.0,0,2443.0,1
1273,1273,-0.8359363097585548,-0.8,1.0,0.0,418.0,643.0,0.0,0,819.0,1
1274,1274,0.38074482641892204,0.4,1.0,1.0,332.0,826.0,1.0,1,1702.0,1
1275,1275,-0.8339302140805989,-0.8,1.0,0.0,421.0,843.0,0.0,0,236.0,1
1276,1276,-0.143247758595766,-0.1,0.0,1.0,392.0,567.0,1.0,0,3841.0,1
1277,1277,-0.21879008022285962,-0.2,0.0,1.0,376.0,572.0,1.0,0,792.0,1
1278,1278,0.41658908845498266,0.4,0.0,0.0,388.0,650.0,0.0,1,182.0,1
1279,1279,-0.0935828854430526,-0.1,1.0,0.0,430.0,846.0,0.0,0,3724.0,1
1280,1280,-0.4300371077438909,-0.4,0.0,1.0,455.0,772.0,1.0,0,763.0,1
1281,1281,0.25831707559547346,0.3,0.0,0.0,312.0,555.0,0.0,1,1113.0,1
1282,1282,-0.17066982632387373,-0.2,1.0,0.0,364.0,859.0,0.0,0,1037.0,1
1283,1283,0.8710718739878264,0.9,1.0,1.0,252.0,658.0,1.0,1,260.0,1
1284,1284,0.4465213555816866,0.4,1.0,1.0,271.0,698.0,1.0,1,741.0,1
1285,1285,-0.14752171290591554,-0.1,0.0,1.0,346.0,610.0,1.0,0,3994.0,1
1286,1286,-0.4509043063615099,-0.5,0.0,1.0,420.0,543.0,1.0,0,647.0,1
1287,1287,0.30262614187417547,0.3,1.0,1.0,282.0,533.0,1.0,1,1365.0,1
1288,1288,0.5797255396410329,0.6,0.0,0.0,453.0,518.0,0.0,1,199.0,1
1289,1289,-0.6415233278964294,-0.6,0.0,1.0,484.0,754.0,1.0,0,182.0,1
1290,1290,0.7399241770402384,0.7,0.0,0.0,276.0,857.0,0.0,1,547.0,1
1291,1291,-0.49132440174249964,-0.5,0.0,1.0,424.0,601.0,1.0,0,295.0,1
1292,1292,0.49680049998671116,0.5,1.0,1.0,496.0,633.0,1.0,1,1361.0,1
1293,1293,-0.542383843076069,-0.5,0.0,1.0,318.0,723.0,1.0,0,279.0,1
1294,1294,0.7305784119384099,0.7,0.0,0.0,340.0,768.0,0.0,1,292.0,1
1295,1295,0.4446559125852635,0.4,1.0,1.0,388.0,508.0,1.0,1,874.0,1
1296,1296,-0.6215017801109304,-0.6,1.0,0.0,367.0,726.0,0.0,0,247.0,1
1297,1297,-0.7067577934005005,-0.7,0.0,1.0,498.0,759.0,1.0,0,283.0,1
1298,1298,-0.35303447143694355,-0.4,1.0,0.0,368.0,545.0,0.0,0,377.0,1
1299,1299,0.7537022123829645,0.8,0.0,0.0,402.0,842.0,0.0,1,156.0,1
1300,1300,-0.4898482492090321,-0.5,1.0,0.0,365.0,549.0,0.0,0,496.0,1
1301,1301,-0.3769587798666889,-0.4,1.0,0.0,482.0,800.0,0.0,0,288.0,1
1302,1302,-0.5426079515001494,-0.5,0.0,1.0,397.0,535.0,1.0,0,408.0,1
1303,1303,-0.5915983085281207,-0.6,1.0,0.0,316.0,683.0,0.0,0,231.0,1
1304,1304,0.09678836375097677,0.1,0.0,0.0,412.0,713.0,0.0,1,205.0,1
1305,1305,-0.49121878155460547,-0.5,1.0,0.0,270.0,680.0,0.0,0,1660.0,1
1306,1306,0.15632221337819996,0.2,0.0,0.0,349.0,873.0,0.0,1,3778.0,1
1307,1307,-0.6897148599685209,-0.7,1.0,0.0,333.0,616.0,0.0,0,4051.0,1
1308,1308,-0.7430965939536678,-0.7,1.0,0.0,366.0,569.0,0.0,0,475.0,1
1309,1309,-0.19315524806970097,-0.2,0.0,1.0,464.0,929.0,1.0,0,3597.0,1
1310,1310,0.037815212531133624,0.0,0.0,0.0,391.0,721.0,0.0,1,3888.0,1
1311,1311,0.7703005856946964,0.8,1.0,1.0,439.0,827.0,1.0,1,314.0,1
1312,1312,0.0175362735067236,0.0,0.0,0.0,262.0,707.0,0.0,1,4031.0,1
1313,1313,-0.06804771997151116,-0.1,1.0,0.0,402.0,793.0,0.0,0,3805.0,1
1314,1314,-0.24228422674009686,-0.2,1.0,0.0,272.0,993.0,0.0,0,245.0,1
1315,1315,-0.1243629069495572,-0.1,0.0,1.0,381.0,654.0,1.0,0,3965.0,1
1316,1316,0.6223513351378943,0.6,0.0,0.0,339.0,647.0,0.0,1,234.0,1
1317,1317,0.6799615759111907,0.7,0.0,0.0,258.0,663.0,0.0,1,179.0,1
1318,1318,0.8171997985779414,0.8,1.0,1.0,453.0,834.0,1.0,1,503.0,1
1319,1319,-0.5608257693468741,-0.6,0.0,1.0,437.0,993.0,1.0,0,620.0,1
1320,1320,-0.47637277441288994,-0.5,1.0,0.0,367.0,890.0,0.0,0,1513.0,1
1321,1321,0.5306314295773996,0.5,1.0,1.0,355.0,922.0,1.0,1,93.0,1
1322,1322,0.11096309997426712,0.1,1.0,1.0,452.0,604.0,1.0,1,3944.0,1
1323,1323,-0.07530999340696509,-0.1,1.0,0.0,379.0,890.0,0.0,0,3731.0,1
1324,1324,-0.2741859551378171,-0.3,0.0,1.0,478.0,926.0,1.0,0,2386.0,1
1325,1325,-0.11448485987859236,-0.1,0.0,1.0,286.0,768.0,1.0,0,3946.0,1
1326,1326,0.07885854820157157,0.1,1.0,1.0,295.0,859.0,1.0,1,3846.0,1
1327,1327,-0.19766668803334908,-0.2,0.0,1.0,487.0,749.0,1.0,0,2064.0,1
1328,1328,-0.22624098193781395,-0.2,0.0,1.0,286.0,714.0,1.0,0,290.0,1
1329,1329,0.683676092504922,0.7,0.0,0.0,313.0,981.0,0.0,1,226.0,1
1330,1330,0.40942667235617447,0.4,0.0,0.0,389.0,671.0,0.0,1,520.0,1
1331,1331,0.30980658682686235,0.3,0.0,0.0,433.0,702.0,0.0,1,685.0,1
1332,1332,-0.4141084095311687,-0.4,0.0,1.0,297.0,970.0,1.0,0,93.0,1
1333,1333,0.713673290335645,0.7,0.0,0.0,299.0,728.0,0.0,1,273.0,1
1334,1334,0.1971764741919887,0.2,1.0,1.0,488.0,849.0,1.0,1,1183.0,1
1335,1335,-0.8992155007975907,-0.9,0.0,1.0,429.0,765.0,1.0,0,216.0,1
1336,1336,-0.6343537921056663,-0.6,0.0,1.0,253.0,689.0,1.0,0,198.0,1
1337,1337,0.782775807599868,0.8,0.0,0.0,407.0,664.0,0.0,1,119.0,1
1338,1338,-0.21542685427874642,-0.2,0.0,1.0,261.0,555.0,1.0,0,2044.0,1
1339,1339,-0.5556949520028138,-0.6,0.0,1.0,458.0,537.0,1.0,0,375.0,1
1340,1340,-0.3479205155639279,-0.3,1.0,0.0,254.0,519.0,0.0,0,767.0,1
1341,1341,0.2872387104044144,0.3,0.0,0.0,454.0,793.0,0.0,1,603.0,1
1342,1342,0.8924985341132737,0.9,0.0,0.0,393.0,793.0,0.0,1,174.0,1
1343,1343,-0.8649647733196321,-0.9,1.0,0.0,336.0,974.0,0.0,0,2200.0,1
1344,1344,0.30745744990916346,0.3,1.0,1.0,368.0,885.0,1.0,1,1447.0,1
1345,1345,-0.597227355617212,-0.6,0.0,1.0,262.0,801.0,1.0,0,497.0,1
1346,1346,0.8464451448828262,0.8,0.0,0.0,404.0,775.0,0.0,1,221.0,1
1347,1347,-0.4342811024494241,-0.4,1.0,0.0,339.0,942.0,0.0,0,2039.0,1
1348,1348,-0.689449671486982,-0.7,0.0,1.0,458.0,649.0,1.0,0,283.0,1
1349,1349,0.09422545677522842,0.1,0.0,0.0,464.0,724.0,0.0,1,2472.0,1
1350,1350,0.7532914827876896,0.8,0.0,0.0,441.0,930.0,0.0,1,239.0,1
1351,1351,0.6674772638820582,0.7,0.0,0.0,289.0,852.0,0.0,1,179.0,1
1352,1352,-0.8692963359394326,-0.9,1.0,0.0,442.0,555.0,0.0,0,2223.0,1
1353,1353,0.4202259918520189,0.4,0.0,0.0,330.0,965.0,0.0,1,345.0,1
1354,1354,0.3717749087965644,0.4,0.0,0.0,320.0,527.0,0.0,1,193.0,1
1355,1355,-0.25041489508786563,-0.3,0.0,1.0,483.0,570.0,1.0,0,657.0,1
1356,1356,-0.24003790331380837,-0.2,0.0,1.0,449.0,598.0,1.0,0,273.0,1
1357,1357,0.18797897882874104,0.2,0.0,0.0,250.0,821.0,0.0,1,3929.0,1
1358,1358,0.698227656354509,0.7,1.0,1.0,336.0,536.0,1.0,1,308.0,1
1359,1359,-0.6325901970854715,-0.6,1.0,0.0,267.0,978.0,0.0,0,215.0,1
1360,1360,0.5221668858246723,0.5,0.0,0.0,317.0,782.0,0.0,1,371.0,1
1361,1361,0.4468469513045762,0.4,0.0,0.0,389.0,743.0,0.0,1,268.0,1
1362,1362,-0.2735279736903399,-0.3,0.0,1.0,425.0,636.0,1.0,0,649.0,1
1363,1363,0.4503520187926354,0.5,0.0,0.0,442.0,830.0,0.0,1,998.0,1
1364,1364,0.4000154500897387,0.4,0.0,0.0,281.0,607.0,0.0,1,332.0,1
1365,1365,-0.06141691903227431,-0.1,1.0,0.0,261.0,511.0,0.0,0,3348.0,1
1366,1366,-0.829781152157236,-0.8,0.0,1.0,392.0,937.0,1.0,0,311.0,1
1367,1367,0.6648754110643841,0.7,0.0,0.0,321.0,580.0,0.0,1,99.0,1
1368,1368,-0.37992018627596036,-0.4,1.0,0.0,268.0,971.0,0.0,0,2171.0,1
1369,1369,0.8312228517702808,0.8,0.0,0.0,282.0,863.0,0.0,1,495.0,1
1370,1370,-0.25831919392781943,-0.3,0.0,1.0,332.0,936.0,1.0,0,732.0,1
1371,1371,-0.6867382066085582,-0.7,1.0,0.0,468.0,820.0,0.0,0,362.0,1
1372,1372,0.4507764493331644,0.5,0.0,0.0,308.0,589.0,0.0,1,383.0,1
1373,1373,-0.5198074399571657,-0.5,0.0,1.0,381.0,899.0,1.0,0,230.0,1
1374,1374,0.13145343455917635,0.1,1.0,1.0,404.0,890.0,1.0,1,1136.0,1
1375,1375,-0.02942071989334538,-0.0,1.0,0.0,262.0,505.0,0.0,0,1103.0,1
1376,1376,-0.5027088680830267,-0.5,0.0,1.0,408.0,536.0,1.0,0,266.0,1
1377,1377,0.1363310197615878,0.1,0.0,0.0,407.0,578.0,0.0,1,795.0,1
1378,1378,-0.004535519720061165,-0.0,1.0,0.0,425.0,684.0,1.0,1,3891.0,0
1379,1379,-0.19128903931194507,-0.2,0.0,1.0,315.0,903.0,1.0,0,3782.0,1
1380,1380,0.65028743596118,0.7,1.0,1.0,296.0,680.0,1.0,1,294.0,1
1381,1381,0.427429187492781,0.4,1.0,1.0,379.0,654.0,1.0,1,987.0,1
1382,1382,0.8520398954797427,0.9,0.0,0.0,442.0,741.0,0.0,1,197.0,1
1383,1383,-0.5526816269219892,-0.6,1.0,0.0,336.0,750.0,0.0,0,664.0,1
1384,1384,-0.6304955464202442,-0.6,1.0,0.0,455.0,554.0,0.0,0,721.0,1
1385,1385,0.4780815176114793,0.5,1.0,1.0,451.0,650.0,1.0,1,659.0,1
1386,1386,-0.12878178043174837,-0.1,0.0,1.0,323.0,869.0,1.0,0,308.0,1
1387,1387,-0.8815132267159532,-0.9,1.0,0.0,434.0,544.0,0.0,0,1362.0,1
1388,1388,0.8642689181994351,0.9,0.0,0.0,440.0,844.0,0.0,1,-104.0,1
1389,1389,-0.3651676183431055,-0.4,0.0,1.0,294.0,836.0,1.0,0,680.0,1
1390,1390,0.5541249675454655,0.6,1.0,1.0,268.0,795.0,1.0,1,927.0,1
1391,1391,0.227523166406164,0.2,1.0,1.0,486.0,737.0,1.0,1,397.0,1
1392,1392,0.7959132659764058,0.8,1.0,1.0,325.0,691.0,1.0,1,134.0,1
1393,1393,0.821123435645931,0.8,0.0,0.0,364.0,961.0,0.0,1,395.0,1
1394,1394,-0.8508572754004633,-0.9,0.0,1.0,425.0,696.0,1.0,0,259.0,1
1395,1395,-0.8206208433614033,-0.8,1.0,0.0,325.0,602.0,0.0,0,913.0,1
1396,1396,-0.4685724513116177,-0.5,1.0,0.0,498.0,953.0,0.0,0,1999.0,1
1397,1397,0.5926993541969455,0.6,0.0,0.0,386.0,554.0,0.0,1,160.0,1
1398,1398,-0.7836531322260759,-0.8,1.0,0.0,473.0,952.0,0.0,0,655.0,1
1399,1399,-0.3517005851861629,-0.4,1.0,0.0,451.0,700.0,0.0,0,3849.0,1
1400,1400,0.7668743564372059,0.8,0.0,0.0,382.0,748.0,0.0,1,430.0,1
1401,1401,-0.49632398880571743,-0.5,0.0,1.0,443.0,959.0,1.0,0,248.0,1
1402,1402,0.1727167775788664,0.2,0.0,0.0,313.0,865.0,0.0,1,1692.0,1
1403,1403,-0.044793389334569444,-0.0,1.0,0.0,325.0,759.0,0.0,0,3916.0,1
1404,1404,-0.1052428467356128,-0.1,1.0,0.0,300.0,685.0,0.0,0,3515.0,1
1405,1405,0.28536900458047343,0.3,1.0,1.0,498.0,909.0,1.0,1,1243.0,1
1406,1406,0.6730112320365068,0.7,1.0,1.0,377.0,565.0,1.0,1,308.0,1
1407,1407,-0.3078695587744674,-0.3,0.0,1.0,390.0,510.0,1.0,0,240.0,1
1408,1408,0.1467737411146931,0.1,1.0,1.0,426.0,612.0,1.0,1,3052.0,1
1409,1409,0.517708598836847,0.5,1.0,1.0,280.0,777.0,1.0,1,223.0,1
1410,1410,0.6963261808770272,0.7,1.0,1.0,262.0,897.0,1.0,1,301.0,1
1411,1411,0.33184516603515546,0.3,1.0,1.0,354.0,512.0,1.0,1,424.0,1
1412,1412,-0.6203560659724805,-0.6,0.0,1.0,262.0,946.0,1.0,0,232.0,1
1413,1413,0.35037425875964,0.4,0.0,0.0,462.0,798.0,0.0,1,450.0,1
1414,1414,-0.8243679061958473,-0.8,0.0,1.0,370.0,515.0,1.0,0,295.0,1
1415,1415,-0.7264316475707129,-0.7,0.0,1.0,318.0,601.0,1.0,0,331.0,1
1416,1416,0.6373807521156768,0.6,0.0,0.0,273.0,959.0,0.0,1,338.0,1
1417,1417,0.5914158884065565,0.6,0.0,0.0,365.0,874.0,0.0,1,281.0,1
1418,1418,-0.7530885527270709,-0.8,1.0,0.0,403.0,522.0,0.0,0,205.0,1
1419,1419,-0.7332410109353005,-0.7,0.0,1.0,290.0,551.0,1.0,0,269.0,1
1420,1420,0.7808537729292705,0.8,0.0,0.0,265.0,695.0,0.0,1,220.0,1
1421,1421,-0.8516365540592188,-0.9,1.0,0.0,432.0,606.0,0.0,0,272.0,1
1422,1422,0.4919141436174356,0.5,1.0,1.0,458.0,879.0,1.0,1,383.0,1
1423,1423,0.11549842004875044,0.1,1.0,1.0,495.0,674.0,1.0,1,191.0,1
1424,1424,0.2695311617507262,0.3,0.0,0.0,416.0,667.0,0.0,1,1497.0,1
1425,1425,-0.3980003407942615,-0.4,0.0,1.0,307.0,871.0,1.0,0,192.0,1
1426,1426,-0.6922234475313112,-0.7,0.0,1.0,284.0,817.0,1.0,0,309.0,1
1427,1427,0.43841078483430695,0.4,1.0,1.0,353.0,968.0,1.0,1,369.0,1
1428,1428,0.658565932466063,0.7,1.0,1.0,489.0,816.0,1.0,1,185.0,1
1429,1429,-0.11225398983177615,-0.1,1.0,0.0,300.0,927.0,0.0,0,3773.0,1
1430,1430,-0.5112055284143946,-0.5,1.0,0.0,293.0,878.0,0.0,0,3829.0,1
1431,1431,0.2849165466511253,0.3,1.0,1.0,325.0,698.0,1.0,1,2167.0,1
1432,1432,0.7456232694683357,0.7,0.0,0.0,277.0,737.0,0.0,1,366.0,1
1433,1433,0.18859505703730306,0.2,1.0,1.0,375.0,946.0,1.0,1,809.0,1
1434,1434,0.3435827806019912,0.3,1.0,1.0,300.0,937.0,1.0,1,293.0,1
1435,1435,0.5192752184830404,0.5,1.0,1.0,413.0,544.0,1.0,1,433.0,1
1436,1436,0.5420982503482549,0.5,1.0,1.0,369.0,539.0,1.0,1,212.0,1
1437,1437,-0.38106221197765,-0.4,0.0,1.0,487.0,808.0,1.0,0,295.0,1
1438,1438,0.09481789282396025,0.1,1.0,1.0,483.0,683.0,1.0,1,3834.0,1
1439,1439,0.6206552240161803,0.6,1.0,1.0,374.0,740.0,1.0,1,266.0,1
1440,1440,-0.2090772253783132,-0.2,1.0,0.0,421.0,930.0,0.0,0,3649.0,1
1441,1441,0.8805810578174892,0.9,0.0,0.0,486.0,517.0,0.0,1,247.0,1
1442,1442,0.714730729229479,0.7,0.0,0.0,341.0,986.0,1.0,0,-197.0,0
1443,1443,0.8068816718775288,0.8,0.0,0.0,407.0,584.0,0.0,1,199.0,1
1444,1444,-0.3527040872045728,-0.4,0.0,1.0,445.0,931.0,1.0,0,1544.0,1
1445,1445,-0.5620683179783781,-0.6,1.0,0.0,376.0,504.0,0.0,0,510.0,1
1446,1446,-0.42376062017619537,-0.4,0.0,1.0,282.0,967.0,1.0,0,351.0,1
1447,1447,0.6322721718763685,0.6,0.0,0.0,288.0,700.0,0.0,1,312.0,1
1448,1448,-0.69071058136893,-0.7,1.0,0.0,353.0,987.0,0.0,0,430.0,1
1449,1449,0.5174249014671067,0.5,0.0,0.0,381.0,598.0,0.0,1,231.0,1
1450,1450,0.6600713595707389,0.7,1.0,1.0,384.0,791.0,1.0,1,245.0,1
1451,1451,0.0368313758196821,0.0,1.0,1.0,446.0,794.0,0.0,0,3760.0,0
1452,1452,0.3651338862751349,0.4,1.0,1.0,419.0,567.0,1.0,1,1554.0,1
1453,1453,-0.7254928982716805,-0.7,0.0,1.0,318.0,975.0,1.0,0,267.0,1
1454,1454,-0.770367186571641,-0.8,1.0,0.0,314.0,767.0,0.0,0,1039.0,1
1455,1455,-0.24247704415727223,-0.2,1.0,0.0,356.0,516.0,0.0,0,4128.0,1
1456,1456,0.4922351405765014,0.5,1.0,1.0,309.0,811.0,1.0,1,700.0,1
1457,1457,0.3540828620583708,0.4,0.0,0.0,287.0,665.0,0.0,1,378.0,1
1458,1458,0.7899109769015747,0.8,0.0,0.0,362.0,720.0,0.0,1,308.0,1
1459,1459,-0.682055357691087,-0.7,0.0,1.0,400.0,956.0,1.0,0,204.0,1
1460,1460,0.5029261636897254,0.5,1.0,1.0,317.0,794.0,1.0,1,479.0,1
1461,1461,0.23817206884006492,0.2,1.0,1.0,416.0,547.0,1.0,1,387.0,1
1462,1462,0.16264200369092718,0.2,1.0,1.0,448.0,556.0,1.0,1,1596.0,1
1463,1463,0.38275436282931763,0.4,1.0,1.0,262.0,887.0,1.0,1,741.0,1
1464,1464,-0.774458409290008,-0.8,1.0,0.0,310.0,797.0,0.0,0,263.0,1
1465,1465,-0.8365251150475078,-0.8,1.0,0.0,298.0,892.0,0.0,0,-60.0,1
1466,1466,-0.5707346962951985,-0.6,0.0,1.0,315.0,660.0,1.0,0,465.0,1
1467,1467,-0.8665219493067153,-0.9,1.0,0.0,280.0,762.0,0.0,0,1368.0,1
1468,1468,0.8125621602876961,0.8,1.0,1.0,437.0,813.0,1.0,1,300.0,1
1469,1469,-0.4194099848516551,-0.4,1.0,0.0,308.0,923.0,0.0,0,959.0,1
1470,1470,0.6791266781409707,0.7,0.0,0.0,331.0,971.0,0.0,1,478.0,1
1471,1471,0.7888165144355915,0.8,1.0,1.0,454.0,686.0,1.0,1,330.0,1
1472,1472,-0.8679522196445985,-0.9,1.0,0.0,297.0,877.0,0.0,0,226.0,1
1473,1473,-0.546457853305047,-0.5,1.0,0.0,466.0,666.0,0.0,0,1108.0,1
1474,1474,-0.5872728804535033,-0.6,0.0,1.0,443.0,673.0,1.0,0,214.0,1
1475,1475,0.3897998552365326,0.4,1.0,1.0,402.0,896.0,1.0,1,282.0,1
1476,1476,0.8179098962952426,0.8,0.0,0.0,350.0,771.0,0.0,1,549.0,1
1477,1477,0.17366330065765856,0.2,0.0,0.0,452.0,811.0,0.0,1,3737.0,1
1478,1478,-0.7830010739021334,-0.8,0.0,1.0,367.0,716.0,1.0,0,167.0,1
1479,1479,-0.13072785503320916,-0.1,0.0,1.0,319.0,898.0,1.0,0,3783.0,1
1480,1480,0.7519969665838552,0.8,0.0,0.0,485.0,927.0,0.0,1,248.0,1
1481,1481,0.6214499908880066,0.6,1.0,1.0,342.0,885.0,1.0,1,313.0,1
1482,1482,-0.5124720228058082,-0.5,1.0,0.0,291.0,738.0,0.0,0,871.0,1
1483,1483,-0.28106813919768714,-0.3,0.0,1.0,494.0,669.0,1.0,0,597.0,1
1484,1484,-0.33303672290092123,-0.3,0.0,1.0,366.0,874.0,1.0,0,710.0,1
1485,1485,0.00820447169930616,0.0,1.0,1.0,444.0,897.0,0.0,0,3659.0,0
1486,1486,0.20767219991312136,0.2,1.0,1.0,290.0,511.0,1.0,1,719.0,1
