,trial,coherence,coherence_bin,green_side,correct_side,target_onset,checker_onset,decision,green_decision,decision_time,correct_decision
0,0,0.6002663601445891,0.6,1.0,1.0,398.0,612.0,0.0,0,-950.0,0
1,1,-0.3433369060673306,-0.3,1.0,0.0,316.0,894.0,0.0,0,1790.0,1
2,2,-0.7803163003192761,-0.8,1.0,0.0,302.0,756.0,0.0,0,1942.0,1
3,3,-0.718302123682311,-0.7,0.0,1.0,279.0,919.0,0.0,1,1802.0,0
4,4,0.42291556283804355,0.4,1.0,1.0,414.0,564.0,0.0,0,-948.0,0
5,5,-0.5250053369330988,-0.5,1.0,0.0,478.0,685.0,0.0,0,1837.0,1
6,6,-0.3012422466534328,-0.3,1.0,0.0,250.0,570.0,1.0,1,-700.0,0
7,7,-0.4495773532222509,-0.4,1.0,0.0,275.0,501.0,0.0,0,2224.0,1
8,8,0.4814626050010594,0.5,1.0,1.0,324.0,817.0,0.0,0,1859.0,0
9,9,0.759671762573766,0.8,0.0,0.0,480.0,622.0,0.0,1,1898.0,1
10,10,0.15635907141116612,0.2,0.0,0.0,419.0,655.0,0.0,1,1926.0,1
11,11,0.35215885787477863,0.4,0.0,0.0,411.0,792.0,0.0,1,1797.0,1
12,12,-0.771870269753393,-0.8,0.0,1.0,499.0,714.0,0.0,1,1787.0,0
13,13,0.6748899529468869,0.7,1.0,1.0,274.0,939.0,0.0,0,1787.0,0
14,14,0.6074353340850495,0.6,0.0,0.0,307.0,678.0,0.0,1,2015.0,1
15,15,-0.16079280575397015,-0.2,0.0,1.0,352.0,982.0,0.0,1,1666.0,0
16,16,0.43610527454210135,0.4,0.0,0.0,264.0,952.0,0.0,1,1784.0,1
17,17,0.1471707988197174,0.1,0.0,0.0,362.0,636.0,0.0,1,2002.0,1
18,18,-0.7842655347322481,-0.8,0.0,1.0,325.0,941.0,0.0,1,1734.0,0
19,19,0.533718709556145,0.5,0.0,0.0,384.0,591.0,0.0,1,2025.0,1
20,20,0.3859916440886767,0.4,1.0,1.0,342.0,783.0,0.0,0,1875.0,0
21,21,0.4787546438268101,0.5,1.0,1.0,272.0,960.0,0.0,0,1768.0,0
22,22,-0.11144664196108722,-0.1,1.0,0.0,484.0,719.0,0.0,0,1797.0,1
23,23,-0.28883486874244013,-0.3,1.0,0.0,355.0,634.0,0.0,0,2011.0,1
24,24,-0.6769682242687939,-0.7,0.0,1.0,333.0,594.0,0.0,1,2073.0,0
25,25,0.10086433102326342,0.1,1.0,1.0,258.0,660.0,0.0,0,2082.0,0
26,26,0.1352242158446707,0.1,0.0,0.0,291.0,834.0,0.0,1,1875.0,1
27,27,0.4055421607150548,0.4,0.0,0.0,347.0,926.0,0.0,1,1727.0,1
28,28,0.12179981609770285,0.1,0.0,0.0,374.0,612.0,0.0,1,2014.0,1
29,29,-0.7988693102311112,-0.8,0.0,1.0,367.0,882.0,0.0,1,1751.0,0
30,30,0.08623590972974016,0.1,1.0,1.0,354.0,693.0,0.0,0,1953.0,0
31,31,-0.11704823667030673,-0.1,1.0,0.0,494.0,698.0,0.0,0,-1102.0,1
32,32,-0.7704109581971356,-0.8,0.0,1.0,363.0,808.0,0.0,1,1829.0,0
33,33,-0.6634123320010534,-0.7,1.0,0.0,309.0,950.0,0.0,0,1741.0,1
34,34,-0.8462701865292038,-0.8,1.0,0.0,386.0,866.0,0.0,0,1748.0,1
35,35,-0.695389098998931,-0.7,1.0,0.0,317.0,630.0,0.0,0,2053.0,1
36,36,-0.24589353784749035,-0.2,0.0,1.0,443.0,897.0,0.0,1,1660.0,0
37,37,-0.732081287257012,-0.7,1.0,0.0,480.0,983.0,0.0,0,1537.0,1
38,38,0.5773452375324993,0.6,1.0,1.0,285.0,587.0,0.0,0,2128.0,0
39,39,-0.06854054039624835,-0.1,1.0,0.0,356.0,720.0,0.0,0,1924.0,1
40,40,0.5782988468358804,0.6,0.0,0.0,339.0,716.0,0.0,1,1945.0,1
41,41,-0.5830872510636211,-0.6,1.0,0.0,404.0,555.0,0.0,0,2041.0,1
42,42,-0.7393829827917967,-0.7,1.0,0.0,253.0,630.0,1.0,1,-873.0,0
43,43,0.3376143896117104,0.3,1.0,1.0,357.0,878.0,0.0,0,1765.0,0
44,44,0.3234686677543589,0.3,1.0,1.0,312.0,764.0,0.0,0,1924.0,0
45,45,0.3346171354403956,0.3,0.0,0.0,401.0,994.0,0.0,1,1605.0,1
46,46,0.7434519857219343,0.7,0.0,0.0,490.0,595.0,0.0,1,1915.0,1
47,47,0.7034974896735092,0.7,1.0,1.0,267.0,687.0,0.0,0,2046.0,0
48,48,-0.3802237683406434,-0.4,1.0,0.0,277.0,977.0,0.0,0,1746.0,1
49,49,-0.025909803304149714,-0.0,1.0,0.0,389.0,954.0,0.0,0,1657.0,1
50,50,0.3399827210103491,0.3,1.0,1.0,408.0,806.0,0.0,0,1786.0,0
51,51,-0.516304268644306,-0.5,0.0,1.0,264.0,982.0,0.0,1,1754.0,0
52,52,-0.06372333242152095,-0.1,0.0,1.0,285.0,893.0,0.0,1,1822.0,0
53,53,-0.17871719664909536,-0.2,1.0,0.0,251.0,589.0,0.0,0,2160.0,1
54,54,-0.5007484397347945,-0.5,0.0,1.0,364.0,766.0,0.0,1,1870.0,0
55,55,-0.8828071049411462,-0.9,0.0,1.0,485.0,968.0,0.0,1,1547.0,0
56,56,0.5798356185018015,0.6,1.0,1.0,488.0,750.0,0.0,0,1762.0,0
57,57,0.6409804641645139,0.6,0.0,0.0,482.0,777.0,0.0,1,1741.0,1
58,58,0.7958140155189951,0.8,1.0,1.0,294.0,929.0,0.0,0,1777.0,0
59,59,0.11497216081782058,0.1,0.0,0.0,497.0,586.0,0.0,1,-1063.0,1
60,60,0.2172062850717148,0.2,0.0,0.0,318.0,722.0,0.0,1,1960.0,1
61,61,-0.6115415914347745,-0.6,1.0,0.0,433.0,645.0,0.0,0,1922.0,1
62,62,-0.09796822343031175,-0.1,1.0,0.0,351.0,847.0,0.0,0,1802.0,1
63,63,0.7465423795293736,0.7,1.0,1.0,436.0,633.0,0.0,0,1931.0,0
64,64,0.3053996211298208,0.3,0.0,0.0,344.0,613.0,0.0,1,2043.0,1
65,65,-0.1670114600232273,-0.2,1.0,0.0,460.0,638.0,0.0,0,1902.0,1
66,66,-0.5592616409440787,-0.6,0.0,1.0,411.0,522.0,0.0,1,2067.0,0
67,67,0.585666913726769,0.6,1.0,1.0,345.0,978.0,0.0,0,1677.0,0
68,68,0.5959959160457763,0.6,0.0,0.0,295.0,823.0,0.0,1,1882.0,1
69,69,0.21591157097096014,0.2,0.0,0.0,455.0,597.0,0.0,1,1948.0,1
70,70,-0.017890477559082796,-0.0,0.0,1.0,383.0,972.0,0.0,1,1645.0,0
71,71,-0.6432149372157199,-0.6,1.0,0.0,391.0,573.0,0.0,0,2036.0,1
72,72,0.42159991999493773,0.4,0.0,0.0,377.0,812.0,0.0,1,1811.0,1
73,73,0.4866675852023833,0.5,1.0,1.0,489.0,861.0,0.0,0,1650.0,0
74,74,0.3792232118407034,0.4,0.0,0.0,449.0,706.0,0.0,1,1845.0,1
75,75,0.8235338195126239,0.8,0.0,0.0,386.0,991.0,0.0,1,1623.0,1
76,76,0.11797123171426527,0.1,0.0,0.0,282.0,989.0,0.0,1,1729.0,1
77,77,-0.34744591730177854,-0.3,1.0,0.0,443.0,769.0,0.0,0,1788.0,1
78,78,-0.19734856963426184,-0.2,1.0,0.0,470.0,950.0,1.0,1,-1210.0,0
79,79,-0.7959456094820634,-0.8,0.0,1.0,360.0,682.0,0.0,1,1958.0,0
80,80,0.29875995219777385,0.3,0.0,0.0,393.0,666.0,0.0,1,1941.0,1
81,81,-0.7725654824735472,-0.8,1.0,0.0,342.0,751.0,0.0,0,1907.0,1
82,82,-0.45919434353300453,-0.5,0.0,1.0,379.0,886.0,1.0,0,-1185.0,1
83,83,-0.5663557101627101,-0.6,1.0,0.0,314.0,533.0,0.0,0,2153.0,1
84,84,0.14766923729202575,0.1,0.0,0.0,340.0,904.0,0.0,1,1756.0,1
85,85,0.2336164476844792,0.2,0.0,0.0,465.0,848.0,0.0,1,1687.0,1
86,86,0.633843258542013,0.6,1.0,1.0,414.0,716.0,0.0,0,1870.0,0
87,87,-0.3013858708526864,-0.3,1.0,0.0,462.0,703.0,0.0,0,1835.0,1
88,88,-0.38312032975473387,-0.4,0.0,1.0,482.0,999.0,0.0,1,1519.0,0
89,89,0.3629709401743312,0.4,1.0,1.0,290.0,927.0,1.0,1,-1127.0,1
90,90,0.45489387789613345,0.5,0.0,0.0,419.0,797.0,1.0,0,-1216.0,0
91,91,-0.09021007546312076,-0.1,0.0,1.0,450.0,727.0,0.0,1,1823.0,0
92,92,-0.4062637467930273,-0.4,0.0,1.0,261.0,786.0,0.0,1,1953.0,0
93,93,-0.01162171104665255,-0.0,0.0,1.0,294.0,731.0,0.0,1,1975.0,0
94,94,-0.16891609749363168,-0.2,1.0,0.0,473.0,649.0,0.0,0,1878.0,1
95,95,-0.6254692223214603,-0.6,1.0,0.0,446.0,907.0,0.0,0,1647.0,1
96,96,-0.7081473524437075,-0.7,1.0,0.0,273.0,529.0,0.0,0,2198.0,1
97,97,-0.8459379142727541,-0.8,1.0,0.0,451.0,574.0,0.0,0,1975.0,1
98,98,-0.4221822933088846,-0.4,0.0,1.0,252.0,785.0,0.0,1,1963.0,0
99,99,-0.05353055013045771,-0.1,1.0,0.0,254.0,570.0,0.0,0,2176.0,1
100,100,0.04047144580246764,0.0,1.0,1.0,320.0,884.0,1.0,1,-1194.0,1
101,101,0.6880234788052765,0.7,1.0,1.0,487.0,564.0,0.0,0,1949.0,0
102,102,-0.3602492537339542,-0.4,0.0,1.0,470.0,543.0,0.0,1,1987.0,0
103,103,-0.20176891973570166,-0.2,0.0,1.0,434.0,746.0,0.0,1,1820.0,0
104,104,-0.4114757150021002,-0.4,0.0,1.0,397.0,590.0,0.0,1,2013.0,0
105,105,-0.2888786143801614,-0.3,0.0,1.0,468.0,675.0,0.0,1,1857.0,0
106,106,0.09612161200619451,0.1,1.0,1.0,335.0,957.0,0.0,0,1708.0,0
107,107,-0.5672285076721697,-0.6,1.0,0.0,335.0,817.0,0.0,0,1848.0,1
108,108,0.04591156710963107,0.0,0.0,0.0,255.0,989.0,0.0,1,1756.0,1
109,109,0.6640492082984996,0.7,0.0,0.0,495.0,957.0,0.0,1,1548.0,1
110,110,-0.7485540382476573,-0.7,0.0,1.0,420.0,563.0,0.0,1,2017.0,0
111,111,-0.32595334882338967,-0.3,1.0,0.0,375.0,641.0,0.0,0,1984.0,1
112,112,-0.7797443500234158,-0.8,1.0,0.0,403.0,866.0,0.0,0,1731.0,1
113,113,-0.04304323401337229,-0.0,0.0,1.0,445.0,783.0,0.0,1,1772.0,0
114,114,0.4344674776745042,0.4,0.0,0.0,264.0,936.0,0.0,1,1800.0,1
115,115,0.36549876648584945,0.4,1.0,1.0,323.0,658.0,0.0,0,2019.0,0
116,116,0.14656464138363867,0.1,1.0,1.0,473.0,557.0,0.0,0,1970.0,0
117,117,0.27057195077803364,0.3,1.0,1.0,438.0,904.0,0.0,0,1658.0,0
118,118,0.8512919491238212,0.9,0.0,0.0,354.0,784.0,0.0,1,1862.0,1
119,119,-0.5644418334793583,-0.6,1.0,0.0,322.0,986.0,0.0,0,1692.0,1
120,120,-0.09858379091868585,-0.1,0.0,1.0,466.0,959.0,0.0,1,1575.0,0
121,121,-0.742612296558136,-0.7,1.0,0.0,263.0,923.0,0.0,0,1814.0,1
122,122,0.8244665467392464,0.8,1.0,1.0,322.0,560.0,0.0,0,-812.0,0
123,123,-0.5197684273431658,-0.5,0.0,1.0,491.0,887.0,0.0,1,1622.0,0
124,124,0.7228031395883189,0.7,1.0,1.0,433.0,645.0,0.0,0,1922.0,0
125,125,0.5049347245939803,0.5,0.0,0.0,461.0,575.0,0.0,1,1964.0,1
126,126,0.7725179006106403,0.8,1.0,1.0,254.0,616.0,0.0,0,2130.0,0
127,127,-0.6060113010871349,-0.6,0.0,1.0,388.0,734.0,0.0,1,1878.0,0
128,128,-0.6213716975998089,-0.6,0.0,1.0,318.0,732.0,0.0,1,1950.0,0
129,129,0.09690845250738434,0.1,1.0,1.0,395.0,837.0,0.0,0,1768.0,0
130,130,-0.5413336636875757,-0.5,0.0,1.0,490.0,791.0,0.0,1,1719.0,0
131,131,0.4017396716859657,0.4,1.0,1.0,443.0,884.0,0.0,0,1673.0,0
132,132,0.6198360839084879,0.6,0.0,0.0,480.0,670.0,0.0,1,1850.0,1
133,133,-0.141220841310987,-0.1,0.0,1.0,253.0,789.0,0.0,1,1958.0,0
134,134,0.27322185990362324,0.3,0.0,0.0,383.0,863.0,0.0,1,1754.0,1
135,135,-0.22828896280447908,-0.2,0.0,1.0,376.0,612.0,0.0,1,2012.0,0
136,136,-0.8647740058014081,-0.9,1.0,0.0,453.0,532.0,0.0,0,2015.0,1
137,137,-0.8401376407649335,-0.8,1.0,0.0,291.0,781.0,0.0,0,1928.0,1
138,138,0.3596972716915333,0.4,1.0,1.0,422.0,904.0,0.0,0,1674.0,0
139,139,-0.3398019794613647,-0.3,1.0,0.0,477.0,533.0,0.0,0,1990.0,1
140,140,-0.18783707732124555,-0.2,0.0,1.0,429.0,700.0,0.0,1,-1079.0,0
141,141,-0.8726060256230234,-0.9,1.0,0.0,405.0,676.0,0.0,0,1919.0,1
142,142,-0.29119324597580476,-0.3,0.0,1.0,452.0,980.0,0.0,1,1568.0,0
143,143,-0.8129078177953093,-0.8,1.0,0.0,314.0,646.0,0.0,0,2040.0,1
144,144,-0.6426556753733168,-0.6,1.0,0.0,371.0,634.0,0.0,0,1995.0,1
145,145,-0.41338993813203684,-0.4,1.0,0.0,259.0,507.0,0.0,0,2234.0,1
146,146,0.2525146154846919,0.3,1.0,1.0,403.0,694.0,0.0,0,1903.0,0
147,147,-0.743785887549844,-0.7,1.0,0.0,449.0,832.0,0.0,0,1719.0,1
148,148,-0.27480733293459125,-0.3,1.0,0.0,335.0,620.0,1.0,1,-935.0,0
149,149,0.8858828000313753,0.9,1.0,1.0,362.0,992.0,0.0,0,1646.0,0
150,150,0.39597976970489135,0.4,1.0,1.0,327.0,995.0,0.0,0,1678.0,0
151,151,0.05400159735662302,0.1,1.0,1.0,333.0,853.0,0.0,0,1814.0,0
152,152,-0.18591028567948997,-0.2,1.0,0.0,440.0,795.0,0.0,0,1765.0,1
153,153,-0.5130827232424138,-0.5,1.0,0.0,357.0,927.0,0.0,0,1716.0,1
154,154,0.049395867696658824,0.0,1.0,1.0,364.0,624.0,0.0,0,2012.0,0
155,155,0.8265006368635422,0.8,0.0,0.0,290.0,595.0,0.0,1,2115.0,1
156,156,-0.43222003934707365,-0.4,1.0,0.0,417.0,522.0,0.0,0,2061.0,1
157,157,0.5113404506841307,0.5,1.0,1.0,359.0,542.0,0.0,0,2099.0,0
158,158,0.7848533330623341,0.8,0.0,0.0,314.0,759.0,0.0,1,1927.0,1
159,159,-0.7007872491212649,-0.7,1.0,0.0,390.0,655.0,0.0,0,1955.0,1
160,160,-0.1970338412098468,-0.2,1.0,0.0,432.0,610.0,0.0,0,1958.0,1
161,161,0.35461682774669734,0.4,0.0,0.0,410.0,972.0,0.0,1,1618.0,1
162,162,0.6524390206920775,0.7,1.0,1.0,289.0,611.0,0.0,0,2100.0,0
163,163,0.38762997652462705,0.4,1.0,1.0,344.0,987.0,0.0,0,1669.0,0
164,164,0.5192222139743913,0.5,0.0,0.0,414.0,962.0,0.0,1,1624.0,1
165,165,-0.36524032042973487,-0.4,0.0,1.0,282.0,859.0,0.0,1,1859.0,0
166,166,0.47224605577196,0.5,1.0,1.0,326.0,541.0,0.0,0,2133.0,0
167,167,-0.41310348015479265,-0.4,0.0,1.0,262.0,691.0,0.0,1,2047.0,0
168,168,0.2561703031764161,0.3,1.0,1.0,466.0,946.0,0.0,0,1588.0,0
169,169,-0.07947633061361215,-0.1,1.0,0.0,495.0,625.0,1.0,1,-1080.0,0
170,170,-0.1861689885734903,-0.2,0.0,1.0,289.0,584.0,0.0,1,2127.0,0
171,171,-0.590588889411302,-0.6,1.0,0.0,331.0,934.0,0.0,0,1735.0,1
172,172,-0.6491548147896451,-0.6,0.0,1.0,371.0,711.0,0.0,1,1918.0,0
173,173,0.7602272044020534,0.8,1.0,1.0,402.0,833.0,0.0,0,1765.0,0
174,174,0.12223534049443707,0.1,0.0,0.0,444.0,568.0,0.0,1,1988.0,1
175,175,-0.8765863536381823,-0.9,1.0,0.0,465.0,868.0,0.0,0,1667.0,1
176,176,0.7680547429987173,0.8,0.0,0.0,351.0,505.0,0.0,1,2144.0,1
177,177,0.8937126706554842,0.9,1.0,1.0,406.0,942.0,0.0,0,1652.0,0
178,178,-0.35013771399426274,-0.4,0.0,1.0,415.0,545.0,0.0,1,2040.0,0
179,179,-0.26528363675575684,-0.3,0.0,1.0,461.0,622.0,0.0,1,1917.0,0
180,180,-0.6279547006087693,-0.6,0.0,1.0,406.0,956.0,0.0,1,1638.0,0
181,181,-0.11450061753386931,-0.1,1.0,0.0,442.0,925.0,0.0,0,1633.0,1
182,182,-0.5863638201489388,-0.6,0.0,1.0,398.0,815.0,0.0,1,1787.0,0
183,183,0.3003036646671441,0.3,0.0,0.0,362.0,572.0,0.0,1,2066.0,1
184,184,-0.21581615047645686,-0.2,0.0,1.0,403.0,790.0,1.0,0,-1073.0,1
185,185,-0.6403184426674826,-0.6,1.0,0.0,371.0,760.0,0.0,0,1869.0,1
186,186,-0.2967387181775276,-0.3,0.0,1.0,497.0,800.0,0.0,1,1703.0,0
187,187,-0.22944114085570966,-0.2,1.0,0.0,481.0,529.0,0.0,0,1990.0,1
188,188,-0.8343062648758776,-0.8,1.0,0.0,341.0,657.0,0.0,0,2002.0,1
189,189,0.10544035324840906,0.1,1.0,1.0,380.0,543.0,0.0,0,2077.0,0
190,190,-0.4377835205749197,-0.4,1.0,0.0,371.0,675.0,0.0,0,1954.0,1
191,191,-0.8172677170940116,-0.8,0.0,1.0,356.0,580.0,0.0,1,2064.0,0
192,192,0.6225334355303879,0.6,1.0,1.0,444.0,906.0,0.0,0,1650.0,0
193,193,0.1112528181161413,0.1,1.0,1.0,314.0,741.0,0.0,0,1945.0,0
194,194,0.5709252025709531,0.6,0.0,0.0,390.0,835.0,0.0,1,1775.0,1
195,195,0.14934441686334343,0.1,1.0,1.0,374.0,625.0,0.0,0,2001.0,0
196,196,0.8064428076965907,0.8,0.0,0.0,269.0,815.0,0.0,1,1916.0,1
197,197,-0.11915088757850334,-0.1,1.0,0.0,478.0,550.0,0.0,0,1972.0,1
198,198,0.4856724350419742,0.5,1.0,1.0,282.0,809.0,0.0,0,1909.0,0
199,199,0.2479272129044724,0.2,0.0,0.0,347.0,633.0,0.0,1,2020.0,1
200,200,-0.54477348990702,-0.5,1.0,0.0,475.0,666.0,0.0,0,1859.0,1
201,201,0.6401610845447766,0.6,0.0,0.0,308.0,550.0,0.0,1,2142.0,1
202,202,-0.829230006943301,-0.8,0.0,1.0,316.0,747.0,0.0,1,1937.0,0
203,203,-0.12673986008837124,-0.1,1.0,0.0,295.0,904.0,0.0,0,1801.0,1
204,204,0.7738638365239433,0.8,0.0,0.0,406.0,872.0,1.0,0,-1268.0,0
205,205,0.6263074235275657,0.6,1.0,1.0,352.0,801.0,0.0,0,1847.0,0
206,206,0.7022350444658744,0.7,1.0,1.0,383.0,500.0,1.0,1,-673.0,1
207,207,0.04607686723809079,0.0,1.0,1.0,445.0,614.0,0.0,0,1941.0,0
208,208,0.5001916712460087,0.5,1.0,1.0,406.0,516.0,0.0,0,2078.0,0
209,209,0.574907355543434,0.6,1.0,1.0,327.0,641.0,0.0,0,2032.0,0
210,210,0.7625346520728981,0.8,0.0,0.0,277.0,766.0,0.0,1,1957.0,1
211,211,0.7943135920132814,0.8,0.0,0.0,360.0,889.0,0.0,1,1751.0,1
212,212,-0.42063205914729174,-0.4,0.0,1.0,430.0,700.0,0.0,1,1870.0,0
213,213,0.14988942945440276,0.1,0.0,0.0,284.0,650.0,0.0,1,2066.0,1
214,214,-0.7263605730925939,-0.7,0.0,1.0,348.0,669.0,0.0,1,1983.0,0
215,215,0.2672049197070351,0.3,0.0,0.0,301.0,878.0,0.0,1,1821.0,1
216,216,-0.38173444725197847,-0.4,0.0,1.0,294.0,987.0,0.0,1,1719.0,0
217,217,0.49134853769519304,0.5,1.0,1.0,354.0,895.0,0.0,0,1751.0,0
218,218,-0.44717916076571246,-0.4,1.0,0.0,318.0,995.0,0.0,0,1687.0,1
219,219,0.26209015642945144,0.3,1.0,1.0,323.0,968.0,0.0,0,1709.0,0
220,220,-0.225542136981149,-0.2,1.0,0.0,404.0,704.0,0.0,0,1892.0,1
221,221,-0.5899959159608068,-0.6,0.0,1.0,290.0,791.0,0.0,1,1919.0,0
222,222,0.16247362529101472,0.2,0.0,0.0,444.0,894.0,0.0,1,1662.0,1
223,223,0.26533958078358955,0.3,0.0,0.0,276.0,961.0,0.0,1,1763.0,1
224,224,0.502564098863077,0.5,0.0,0.0,487.0,852.0,0.0,1,1661.0,1
225,225,-0.6926183570534755,-0.7,0.0,1.0,329.0,771.0,0.0,1,1900.0,0
226,226,-0.30961704232560217,-0.3,0.0,1.0,274.0,880.0,1.0,0,-1154.0,1
227,227,-0.8853907214904971,-0.9,0.0,1.0,257.0,902.0,0.0,1,1841.0,0
228,228,0.2659648741384356,0.3,1.0,1.0,252.0,641.0,0.0,0,2107.0,0
229,229,0.37076978301409735,0.4,1.0,1.0,458.0,615.0,0.0,0,1927.0,0
230,230,-0.765168442864343,-0.8,0.0,1.0,277.0,567.0,0.0,1,2156.0,0
231,231,-0.13406455384441107,-0.1,0.0,1.0,375.0,932.0,1.0,0,-1277.0,1
232,232,0.7169588169290088,0.7,0.0,0.0,388.0,672.0,0.0,1,1940.0,1
233,233,0.7481690260930712,0.7,0.0,0.0,338.0,979.0,0.0,1,1683.0,1
234,234,0.20514915068534323,0.2,1.0,1.0,479.0,787.0,0.0,0,1734.0,0
235,235,-0.7742867757881307,-0.8,0.0,1.0,427.0,990.0,0.0,1,1583.0,0
236,236,-0.47003848368307,-0.5,0.0,1.0,343.0,996.0,0.0,1,1661.0,0
237,237,-0.12060350993268742,-0.1,0.0,1.0,387.0,882.0,1.0,0,-1259.0,1
238,238,-0.4138785758704279,-0.4,1.0,0.0,394.0,876.0,0.0,0,1730.0,1
239,239,-0.7636207495782197,-0.8,1.0,0.0,339.0,744.0,0.0,0,1917.0,1
240,240,-0.5563883218167748,-0.6,0.0,1.0,398.0,967.0,0.0,1,-1275.0,0
241,241,0.05905359268852539,0.1,1.0,1.0,405.0,587.0,0.0,0,2008.0,0
242,242,0.8949106431475894,0.9,1.0,1.0,283.0,777.0,0.0,0,1940.0,0
243,243,0.014937867812851113,0.0,1.0,1.0,439.0,653.0,0.0,0,1908.0,0
244,244,0.26496214928967976,0.3,1.0,1.0,311.0,595.0,0.0,0,2094.0,0
245,245,-0.8947594136688095,-0.9,1.0,0.0,373.0,907.0,0.0,0,1720.0,1
246,246,0.3545645290688778,0.4,1.0,1.0,259.0,861.0,0.0,0,1880.0,0
247,247,-0.8875018086029899,-0.9,1.0,0.0,300.0,878.0,0.0,0,1822.0,1
248,248,0.3253798598249308,0.3,1.0,1.0,468.0,851.0,0.0,0,1681.0,0
249,249,0.7688951632497875,0.8,0.0,0.0,457.0,854.0,0.0,1,1689.0,1
250,250,0.22186480584239943,0.2,0.0,0.0,461.0,951.0,0.0,1,1588.0,1
251,251,0.27381328393460025,0.3,1.0,1.0,399.0,919.0,0.0,0,1682.0,0
252,252,0.38832777712685995,0.4,0.0,0.0,354.0,808.0,0.0,1,1838.0,1
253,253,0.4890255444940489,0.5,0.0,0.0,437.0,838.0,0.0,1,-1275.0,1
254,254,0.8906692369984474,0.9,0.0,0.0,340.0,885.0,0.0,1,1775.0,1
255,255,0.036253631724832314,0.0,0.0,0.0,495.0,879.0,1.0,0,-1374.0,0
256,256,-0.8790260377042378,-0.9,0.0,1.0,360.0,654.0,0.0,1,1986.0,0
257,257,-0.5276892003839817,-0.5,1.0,0.0,345.0,817.0,0.0,0,1838.0,1
258,258,0.8859692563444751,0.9,0.0,0.0,266.0,645.0,0.0,1,2089.0,1
259,259,-0.7025642458693782,-0.7,0.0,1.0,487.0,575.0,0.0,1,1938.0,0
260,260,0.10227456746396124,0.1,0.0,0.0,485.0,909.0,0.0,1,1606.0,1
261,261,0.8662394577446705,0.9,0.0,0.0,465.0,814.0,0.0,1,1721.0,1
262,262,-0.06276400458998566,-0.1,1.0,0.0,301.0,969.0,0.0,0,1730.0,1
263,263,-0.48711591192112375,-0.5,1.0,0.0,403.0,662.0,0.0,0,1935.0,1
264,264,0.17917501614531128,0.2,1.0,1.0,411.0,740.0,0.0,0,-1081.0,0
265,265,0.6285255607476533,0.6,1.0,1.0,346.0,506.0,0.0,0,2148.0,0
266,266,-0.8724979157242553,-0.9,0.0,1.0,349.0,521.0,0.0,1,2130.0,0
267,267,-0.14584838113974263,-0.1,1.0,0.0,431.0,755.0,0.0,0,1814.0,1
268,268,-0.87285982787198,-0.9,1.0,0.0,478.0,736.0,0.0,0,1786.0,1
269,269,0.5033630991314634,0.5,0.0,0.0,323.0,958.0,0.0,1,-1121.0,1
270,270,-0.17222422489839073,-0.2,1.0,0.0,260.0,832.0,0.0,0,1908.0,1
271,271,-0.8216744194575368,-0.8,1.0,0.0,343.0,928.0,0.0,0,1729.0,1
272,272,0.4075621816582281,0.4,1.0,1.0,469.0,909.0,0.0,0,1622.0,0
273,273,-0.5841392254932961,-0.6,1.0,0.0,383.0,798.0,0.0,0,1819.0,1
274,274,-0.7553987482258782,-0.8,1.0,0.0,306.0,616.0,0.0,0,2078.0,1
275,275,0.5379600181639456,0.5,0.0,0.0,297.0,612.0,0.0,1,2091.0,1
276,276,0.6588031279617302,0.7,0.0,0.0,382.0,775.0,0.0,1,1843.0,1
277,277,0.2831052759092897,0.3,1.0,1.0,421.0,990.0,0.0,0,1589.0,0
278,278,0.202209600454346,0.2,0.0,0.0,437.0,820.0,0.0,1,1743.0,1
279,279,0.7214729823037386,0.7,1.0,1.0,303.0,713.0,0.0,0,1984.0,0
280,280,0.1553012227800078,0.2,0.0,0.0,432.0,515.0,1.0,0,-827.0,0
281,281,-0.7700223454356863,-0.8,1.0,0.0,280.0,797.0,0.0,0,-1007.0,1
282,282,-0.7825796368282759,-0.8,1.0,0.0,317.0,607.0,0.0,0,2076.0,1
283,283,-0.358376027543426,-0.4,1.0,0.0,416.0,515.0,0.0,0,2069.0,1
284,284,0.623807081985592,0.6,1.0,1.0,498.0,674.0,0.0,0,1828.0,0
285,285,-0.5939324787209732,-0.6,0.0,1.0,303.0,531.0,0.0,1,2166.0,0
286,286,-0.5750038445693588,-0.6,0.0,1.0,483.0,775.0,0.0,1,1742.0,0
287,287,0.08072081039615397,0.1,1.0,1.0,369.0,868.0,0.0,0,1763.0,0
288,288,-0.6254580415282812,-0.6,1.0,0.0,362.0,535.0,0.0,0,-857.0,1
289,289,0.7078220524019389,0.7,0.0,0.0,496.0,566.0,0.0,1,1938.0,1
290,290,-0.5555814664628428,-0.6,1.0,0.0,354.0,878.0,0.0,0,1768.0,1
291,291,0.4317757991964789,0.4,0.0,0.0,456.0,538.0,0.0,1,-874.0,1
292,292,0.5113047457217857,0.5,1.0,1.0,466.0,823.0,0.0,0,1711.0,0
293,293,0.7691719454685918,0.8,0.0,0.0,273.0,708.0,0.0,1,2019.0,1
294,294,0.4064033208573038,0.4,0.0,0.0,444.0,605.0,0.0,1,1951.0,1
295,295,0.028851335397633626,0.0,0.0,0.0,354.0,811.0,0.0,1,1835.0,1
296,296,-0.5435671511926905,-0.5,1.0,0.0,499.0,914.0,0.0,0,1587.0,1
297,297,0.027325965060127966,0.0,1.0,1.0,395.0,899.0,0.0,0,1706.0,0
298,298,-0.822593897115939,-0.8,1.0,0.0,388.0,991.0,0.0,0,1621.0,1
299,299,0.027580413841515328,0.0,0.0,0.0,465.0,843.0,0.0,1,1692.0,1
300,300,-0.5742152193779302,-0.6,1.0,0.0,261.0,566.0,0.0,0,2173.0,1
301,301,-0.28506740827069266,-0.3,0.0,1.0,294.0,606.0,0.0,1,2100.0,0
302,302,-0.633263032480532,-0.6,1.0,0.0,449.0,896.0,0.0,0,1655.0,1
303,303,0.6733927364764497,0.7,1.0,1.0,273.0,753.0,0.0,0,1974.0,0
304,304,0.8389748320175717,0.8,0.0,0.0,439.0,945.0,0.0,1,1616.0,1
305,305,-0.8325245127437433,-0.8,0.0,1.0,474.0,533.0,0.0,1,1993.0,0
306,306,-0.4155993151736884,-0.4,0.0,1.0,480.0,796.0,0.0,1,1724.0,0
307,307,-0.1934758889964867,-0.2,0.0,1.0,359.0,747.0,0.0,1,1894.0,0
308,308,-0.3461561314322399,-0.3,1.0,0.0,436.0,974.0,0.0,0,1590.0,1
309,309,-0.8001536109187471,-0.8,1.0,0.0,381.0,881.0,0.0,0,1738.0,1
310,310,0.7638225058681597,0.8,0.0,0.0,458.0,588.0,0.0,1,1954.0,1
311,311,-0.7672317534568355,-0.8,0.0,1.0,391.0,847.0,0.0,1,1762.0,0
312,312,-0.6907985600905593,-0.7,0.0,1.0,299.0,707.0,0.0,1,1994.0,0
313,313,-0.75737857241665,-0.8,0.0,1.0,434.0,927.0,0.0,1,1639.0,0
314,314,0.5244451715987924,0.5,0.0,0.0,375.0,593.0,0.0,1,2032.0,1
315,315,-0.05122057755083298,-0.1,1.0,0.0,396.0,955.0,0.0,0,1649.0,1
316,316,0.6416415774949066,0.6,1.0,1.0,417.0,711.0,0.0,0,1872.0,0
317,317,-0.6390309559395015,-0.6,0.0,1.0,286.0,658.0,0.0,1,-924.0,0
318,318,-0.46239439613113514,-0.5,0.0,1.0,335.0,671.0,1.0,0,-926.0,1
319,319,-0.8889629644536742,-0.9,0.0,1.0,490.0,620.0,0.0,1,1890.0,0
320,320,0.06423852669540864,0.1,0.0,0.0,394.0,602.0,1.0,0,-966.0,0
321,321,-0.5039758078084214,-0.5,1.0,0.0,326.0,894.0,0.0,0,1780.0,1
322,322,0.8529206826550894,0.9,1.0,1.0,495.0,562.0,0.0,0,1943.0,0
323,323,-0.020602237470960794,-0.0,0.0,1.0,316.0,556.0,0.0,1,2128.0,0
324,324,-0.08495840363887175,-0.1,1.0,0.0,367.0,687.0,0.0,0,1946.0,1
325,325,-0.4285167104184424,-0.4,0.0,1.0,352.0,681.0,0.0,1,1967.0,0
326,326,0.852822944105159,0.9,0.0,0.0,316.0,645.0,0.0,1,2039.0,1
327,327,-0.5292208867694894,-0.5,1.0,0.0,438.0,743.0,0.0,0,1819.0,1
328,328,0.5975595930936327,0.6,0.0,0.0,340.0,775.0,0.0,1,1885.0,1
329,329,0.05318263915881738,0.1,0.0,0.0,462.0,578.0,0.0,1,-940.0,1
330,330,0.28074944081296616,0.3,1.0,1.0,340.0,926.0,0.0,0,1734.0,0
331,331,-0.33849789990557344,-0.3,0.0,1.0,338.0,824.0,0.0,1,1838.0,0
332,332,0.8713488755662945,0.9,1.0,1.0,356.0,990.0,0.0,0,1654.0,0
333,333,-0.8350089090343971,-0.8,0.0,1.0,381.0,830.0,0.0,1,1789.0,0
334,334,-0.4630221374123507,-0.5,0.0,1.0,273.0,882.0,0.0,1,1845.0,0
335,335,0.004949767423918505,0.0,0.0,0.0,404.0,621.0,0.0,1,1975.0,1
336,336,-0.12940711685216044,-0.1,1.0,0.0,357.0,815.0,0.0,0,-1122.0,1
337,337,0.2096088653232978,0.2,1.0,1.0,377.0,862.0,0.0,0,1761.0,0
338,338,-0.5286448907251122,-0.5,1.0,0.0,277.0,913.0,0.0,0,1810.0,1
339,339,-0.8655710429531891,-0.9,1.0,0.0,305.0,712.0,0.0,0,1983.0,1
340,340,0.5710334038648447,0.6,0.0,0.0,361.0,863.0,0.0,1,1776.0,1
341,341,-0.7090914238903935,-0.7,0.0,1.0,428.0,593.0,0.0,1,1979.0,0
342,342,-0.7129941891580427,-0.7,0.0,1.0,400.0,812.0,0.0,1,-1132.0,0
343,343,-0.8962533962702927,-0.9,1.0,0.0,308.0,781.0,0.0,0,1911.0,1
344,344,0.22110078071143613,0.2,1.0,1.0,419.0,991.0,0.0,0,-1410.0,0
345,345,0.36633154270255763,0.4,0.0,0.0,422.0,595.0,0.0,1,1983.0,1
346,346,0.7711113303744462,0.8,1.0,1.0,301.0,670.0,0.0,0,2029.0,0
347,347,0.31762613326903144,0.3,0.0,0.0,440.0,796.0,0.0,1,1764.0,1
348,348,-0.12045714413059738,-0.1,1.0,0.0,272.0,940.0,0.0,0,1788.0,1
349,349,-0.6213275211594953,-0.6,0.0,1.0,297.0,714.0,0.0,1,1989.0,0
350,350,-0.2649346403318982,-0.3,0.0,1.0,314.0,897.0,0.0,1,1789.0,0
351,351,0.6495743564119548,0.6,1.0,1.0,441.0,995.0,0.0,0,1564.0,0
352,352,-0.032268284513007894,-0.0,0.0,1.0,496.0,552.0,0.0,1,1952.0,0
353,353,-0.5964957402016164,-0.6,0.0,1.0,487.0,786.0,0.0,1,1727.0,0
354,354,-0.07328001570465548,-0.1,0.0,1.0,479.0,559.0,0.0,1,-1018.0,0
355,355,-0.16553805902793683,-0.2,0.0,1.0,301.0,648.0,1.0,0,-899.0,1
356,356,0.8013689473539883,0.8,1.0,1.0,370.0,512.0,0.0,0,2118.0,0
357,357,0.42071885041354584,0.4,1.0,1.0,490.0,894.0,0.0,0,1616.0,0
358,358,0.11710559538744658,0.1,0.0,0.0,472.0,972.0,0.0,1,1556.0,1
359,359,0.56015050899966,0.6,0.0,0.0,259.0,577.0,0.0,1,-836.0,1
360,360,-0.1460089384211497,-0.1,0.0,1.0,368.0,815.0,0.0,1,1817.0,0
361,361,-0.8105672385252076,-0.8,1.0,0.0,400.0,910.0,0.0,0,1690.0,1
362,362,0.4296127978433134,0.4,1.0,1.0,457.0,831.0,0.0,0,1712.0,0
363,363,0.5456466108517924,0.5,0.0,0.0,436.0,616.0,0.0,1,-1042.0,1
364,364,0.8310722648647696,0.8,0.0,0.0,365.0,500.0,0.0,1,2135.0,1
365,365,-0.3342795642251165,-0.3,1.0,0.0,406.0,838.0,0.0,0,1756.0,1
366,366,-0.12353817877744377,-0.1,1.0,0.0,400.0,695.0,0.0,0,1905.0,1
367,367,0.8924218193372461,0.9,1.0,1.0,444.0,654.0,0.0,0,1902.0,0
368,368,-0.6681399745040097,-0.7,1.0,0.0,374.0,581.0,0.0,0,2045.0,1
369,369,-0.08770871863384788,-0.1,0.0,1.0,342.0,756.0,0.0,1,1902.0,0
370,370,-0.4678684564792166,-0.5,1.0,0.0,297.0,968.0,0.0,0,1735.0,1
371,371,-0.44717035869065386,-0.4,1.0,0.0,305.0,715.0,0.0,0,1980.0,1
372,372,-0.2192172916698314,-0.2,1.0,0.0,427.0,886.0,0.0,0,1687.0,1
373,373,0.01122670181113683,0.0,1.0,1.0,334.0,672.0,0.0,0,1994.0,0
374,374,0.7370564718403813,0.7,1.0,1.0,321.0,689.0,0.0,0,1990.0,0
375,375,0.4288386631241897,0.4,0.0,0.0,320.0,539.0,0.0,1,2141.0,1
376,376,-0.843211392361466,-0.8,0.0,1.0,398.0,608.0,0.0,1,1994.0,0
377,377,0.7424939746637264,0.7,0.0,0.0,436.0,531.0,0.0,1,2033.0,1
378,378,-0.8548524271484315,-0.9,0.0,1.0,344.0,699.0,0.0,1,1957.0,0
379,379,0.4688951948273231,0.5,1.0,1.0,264.0,805.0,0.0,0,1931.0,0
380,380,0.43146609567233385,0.4,1.0,1.0,338.0,505.0,0.0,0,2157.0,0
381,381,-0.7804607659830115,-0.8,1.0,0.0,468.0,925.0,0.0,0,1607.0,1
382,382,0.3323382670314682,0.3,0.0,0.0,317.0,874.0,0.0,1,-1171.0,1
383,383,0.6726186462084011,0.7,0.0,0.0,274.0,849.0,0.0,1,1877.0,1
384,384,0.8616112996172215,0.9,0.0,0.0,306.0,805.0,0.0,1,1889.0,1
385,385,-0.6882159108810618,-0.7,0.0,1.0,369.0,837.0,0.0,1,1794.0,0
386,386,-0.2560734137518227,-0.3,0.0,1.0,428.0,881.0,0.0,1,-1289.0,0
387,387,0.6271255224904552,0.6,0.0,0.0,486.0,688.0,0.0,1,1826.0,1
388,388,-0.05976516912669305,-0.1,0.0,1.0,406.0,789.0,0.0,1,1805.0,0
389,389,0.35388831074425997,0.4,0.0,0.0,362.0,739.0,0.0,1,1899.0,1
390,390,-0.5443866877691461,-0.5,1.0,0.0,305.0,571.0,0.0,0,2124.0,1
391,391,-0.4019066754909984,-0.4,0.0,1.0,409.0,989.0,0.0,1,1602.0,0
392,392,-0.21609575408885917,-0.2,0.0,1.0,404.0,974.0,0.0,1,1622.0,0
393,393,0.7731545050152261,0.8,1.0,1.0,332.0,766.0,0.0,0,1902.0,0
394,394,-0.2991795230016969,-0.3,0.0,1.0,352.0,927.0,0.0,1,1721.0,0
395,395,-0.24416988229322156,-0.2,1.0,0.0,348.0,564.0,0.0,0,2088.0,1
396,396,-0.24093698964163568,-0.2,1.0,0.0,343.0,560.0,0.0,0,2097.0,1
397,397,-0.4160539369152748,-0.4,0.0,1.0,497.0,621.0,0.0,1,1882.0,0
398,398,-0.01975356010276985,-0.0,1.0,0.0,479.0,978.0,0.0,0,1543.0,1
399,399,0.10980680726485004,0.1,0.0,0.0,289.0,767.0,0.0,1,1944.0,1
400,400,0.8630572606986443,0.9,0.0,0.0,416.0,666.0,0.0,1,1918.0,1
401,401,-0.6136630919927193,-0.6,1.0,0.0,299.0,698.0,0.0,0,2003.0,1
402,402,-0.1507299019542253,-0.2,0.0,1.0,270.0,534.0,0.0,1,-684.0,0
403,403,0.6716603452513649,0.7,1.0,1.0,479.0,872.0,0.0,0,1649.0,0
404,404,-0.2235114158267838,-0.2,1.0,0.0,348.0,619.0,0.0,0,2033.0,1
405,405,-0.3113420790039141,-0.3,0.0,1.0,439.0,855.0,0.0,1,1706.0,0
406,406,-0.3297227721270871,-0.3,1.0,0.0,436.0,686.0,0.0,0,1878.0,1
407,407,-0.16938518072280984,-0.2,0.0,1.0,321.0,591.0,0.0,1,2088.0,0
408,408,-0.21470450822676235,-0.2,1.0,0.0,260.0,952.0,0.0,0,1788.0,1
409,409,0.7384226106635953,0.7,0.0,0.0,361.0,706.0,0.0,1,1933.0,1
410,410,-0.22579487896161987,-0.2,0.0,1.0,306.0,956.0,1.0,0,-1262.0,1
411,411,-0.7180085209523275,-0.7,1.0,0.0,293.0,516.0,0.0,0,2191.0,1
412,412,0.6337650223754224,0.6,0.0,0.0,272.0,896.0,0.0,1,1832.0,1
413,413,-0.4602790603993549,-0.5,0.0,1.0,338.0,713.0,0.0,1,1949.0,0
414,414,-0.5926158530185275,-0.6,0.0,1.0,374.0,511.0,0.0,1,2115.0,0
415,415,-0.7231323863340633,-0.7,1.0,0.0,481.0,938.0,0.0,0,1581.0,1
416,416,0.20512073386219554,0.2,1.0,1.0,313.0,874.0,0.0,0,1813.0,0
417,417,-0.829246937470454,-0.8,0.0,1.0,389.0,592.0,0.0,1,2019.0,0
418,418,-0.22253226103796608,-0.2,0.0,1.0,363.0,705.0,0.0,1,1932.0,0
419,419,0.7899399595017825,0.8,0.0,0.0,462.0,562.0,0.0,1,1976.0,1
420,420,0.5981600004306203,0.6,1.0,1.0,423.0,632.0,0.0,0,1945.0,0
421,421,-0.7863386114690571,-0.8,0.0,1.0,288.0,879.0,0.0,1,1833.0,0
422,422,0.7526197377292586,0.8,1.0,1.0,320.0,875.0,0.0,0,1805.0,0
423,423,-0.768507265141559,-0.8,1.0,0.0,469.0,621.0,0.0,0,1910.0,1
424,424,-0.008575699254315894,-0.0,1.0,0.0,435.0,919.0,0.0,0,1646.0,1
425,425,0.6772187271461118,0.7,1.0,1.0,269.0,972.0,0.0,0,1759.0,0
426,426,-0.4580485760033484,-0.5,0.0,1.0,347.0,590.0,0.0,1,2063.0,0
427,427,-0.4669041573199977,-0.5,0.0,1.0,276.0,728.0,0.0,1,1996.0,0
428,428,0.18031466128012752,0.2,1.0,1.0,410.0,779.0,0.0,0,1811.0,0
429,429,0.803650228380763,0.8,1.0,1.0,476.0,783.0,0.0,0,1741.0,0
430,430,-0.7559003845415149,-0.8,0.0,1.0,412.0,797.0,0.0,1,-1179.0,0
431,431,-0.004868663728467948,-0.0,0.0,1.0,322.0,927.0,0.0,1,1751.0,0
432,432,0.6310182735989288,0.6,0.0,0.0,322.0,864.0,0.0,1,1814.0,1
433,433,-0.04985048980873641,-0.0,1.0,0.0,298.0,870.0,0.0,0,1832.0,1
434,434,-0.47990059231669735,-0.5,1.0,0.0,310.0,569.0,0.0,0,2121.0,1
435,435,0.48785629353758486,0.5,0.0,0.0,437.0,675.0,0.0,1,1888.0,1
436,436,0.06122738748608103,0.1,1.0,1.0,296.0,773.0,0.0,0,1931.0,0
437,437,-0.5837669516677026,-0.6,0.0,1.0,386.0,870.0,0.0,1,1744.0,0
438,438,0.5158685072615529,0.5,1.0,1.0,284.0,772.0,0.0,0,1944.0,0
439,439,0.721465415655335,0.7,1.0,1.0,430.0,990.0,0.0,0,1580.0,0
440,440,-0.8037994572380189,-0.8,0.0,1.0,354.0,766.0,0.0,1,1880.0,0
441,441,-0.5450228149778704,-0.5,1.0,0.0,315.0,972.0,0.0,0,1713.0,1
442,442,-0.7171872594339513,-0.7,1.0,0.0,436.0,888.0,0.0,0,1676.0,1
443,443,-0.7288283557230895,-0.7,1.0,0.0,454.0,688.0,0.0,0,1858.0,1
444,444,0.27042807981237826,0.3,1.0,1.0,436.0,936.0,0.0,0,1628.0,0
445,445,0.5526845669631525,0.6,0.0,0.0,449.0,500.0,0.0,1,2051.0,1
446,446,-0.22688113243827712,-0.2,1.0,0.0,359.0,596.0,0.0,0,2045.0,1
447,447,-0.782398584965058,-0.8,0.0,1.0,272.0,820.0,0.0,1,1908.0,0
448,448,-0.6060040826471502,-0.6,0.0,1.0,400.0,860.0,0.0,1,1740.0,0
449,449,0.7151055184382294,0.7,1.0,1.0,358.0,968.0,0.0,0,1674.0,0
450,450,0.24887199350206524,0.2,0.0,0.0,395.0,789.0,0.0,1,1816.0,1
451,451,0.06502026578727294,0.1,1.0,1.0,430.0,770.0,0.0,0,1800.0,0
452,452,0.11858977163024831,0.1,1.0,1.0,384.0,956.0,0.0,0,1660.0,0
453,453,-0.782019478318908,-0.8,1.0,0.0,447.0,783.0,0.0,0,1770.0,1
454,454,-0.030646973015502343,-0.0,0.0,1.0,332.0,614.0,0.0,1,-916.0,0
455,455,0.06959856253655528,0.1,0.0,0.0,298.0,961.0,1.0,0,-1229.0,0
456,456,0.1612113216869867,0.2,1.0,1.0,358.0,964.0,0.0,0,1678.0,0
457,457,0.15145471791402165,0.2,0.0,0.0,440.0,928.0,0.0,1,1632.0,1
458,458,-0.7892225531049316,-0.8,1.0,0.0,315.0,590.0,0.0,0,2095.0,1
459,459,-0.7203165174817752,-0.7,0.0,1.0,282.0,759.0,0.0,1,1959.0,0
460,460,0.7828150424882253,0.8,1.0,1.0,461.0,507.0,0.0,0,2032.0,0
461,461,-0.3401282811948356,-0.3,1.0,0.0,356.0,887.0,0.0,0,1757.0,1
462,462,0.7287583169415285,0.7,0.0,0.0,269.0,778.0,0.0,1,1953.0,1
463,463,-0.20354098660926756,-0.2,0.0,1.0,454.0,788.0,0.0,1,1758.0,0
464,464,-0.42635378446432726,-0.4,1.0,0.0,255.0,838.0,0.0,0,1907.0,1
465,465,0.36446429019688453,0.4,0.0,0.0,258.0,576.0,0.0,1,2166.0,1
466,466,0.36449967390918825,0.4,1.0,1.0,329.0,897.0,0.0,0,1774.0,0
467,467,0.8835906322196859,0.9,0.0,0.0,490.0,608.0,0.0,1,1902.0,1
468,468,0.28683635598585167,0.3,1.0,1.0,400.0,769.0,0.0,0,1831.0,0
469,469,0.5933143914500377,0.6,1.0,1.0,373.0,675.0,0.0,0,1952.0,0
470,470,0.8278110964712081,0.8,1.0,1.0,429.0,563.0,0.0,0,2008.0,0
471,471,0.7730234341387993,0.8,1.0,1.0,326.0,514.0,0.0,0,2160.0,0
472,472,0.7460503237510762,0.7,0.0,0.0,414.0,772.0,0.0,1,1814.0,1
473,473,-0.5187413759910452,-0.5,1.0,0.0,334.0,852.0,0.0,0,1814.0,1
474,474,-0.019760337925022964,-0.0,1.0,0.0,423.0,775.0,0.0,0,1802.0,1
475,475,-0.6948890652337936,-0.7,0.0,1.0,347.0,858.0,0.0,1,1795.0,0
476,476,-0.3257297602092981,-0.3,1.0,0.0,363.0,701.0,0.0,0,1936.0,1
477,477,0.4570476135367275,0.5,1.0,1.0,298.0,712.0,0.0,0,1990.0,0
478,478,0.08627457819497031,0.1,1.0,1.0,299.0,620.0,0.0,0,2081.0,0
479,479,0.20169272959789464,0.2,0.0,0.0,252.0,664.0,0.0,1,-846.0,1
480,480,-0.7732752915203285,-0.8,1.0,0.0,386.0,676.0,0.0,0,1938.0,1
481,481,-0.7160039382838821,-0.7,0.0,1.0,449.0,913.0,0.0,1,1638.0,0
482,482,-0.7127389839634796,-0.7,1.0,0.0,263.0,761.0,0.0,0,1976.0,1
483,483,-0.3723917535173791,-0.4,1.0,0.0,284.0,623.0,0.0,0,2093.0,1
484,484,-0.39702040817659157,-0.4,1.0,0.0,292.0,936.0,0.0,0,1772.0,1
485,485,0.8141810462382529,0.8,1.0,1.0,345.0,985.0,0.0,0,1670.0,0
486,486,0.17749046356391107,0.2,0.0,0.0,311.0,998.0,0.0,1,1691.0,1
487,487,0.3486555799982404,0.3,0.0,0.0,264.0,602.0,1.0,0,-836.0,0
488,488,-0.5462057415233181,-0.5,0.0,1.0,321.0,540.0,0.0,1,2139.0,0
489,489,-0.8895807054204602,-0.9,0.0,1.0,490.0,997.0,0.0,1,1513.0,0
490,490,-0.5453706629628738,-0.5,0.0,1.0,477.0,567.0,0.0,1,1956.0,0
491,491,0.007112253182741002,0.0,0.0,0.0,264.0,724.0,0.0,1,2012.0,1
492,492,-0.5236382109376405,-0.5,1.0,0.0,371.0,602.0,0.0,0,2027.0,1
493,493,-0.6715836467461438,-0.7,0.0,1.0,407.0,944.0,0.0,1,1649.0,0
494,494,-0.49596454621664526,-0.5,0.0,1.0,382.0,583.0,1.0,0,-925.0,1
495,495,0.5768634827554565,0.6,1.0,1.0,262.0,570.0,0.0,0,2168.0,0
496,496,0.4015220248118744,0.4,0.0,0.0,427.0,800.0,0.0,1,1773.0,1
497,497,-0.23625257975569902,-0.2,1.0,0.0,383.0,903.0,0.0,0,1714.0,1
498,498,-0.26507655929345253,-0.3,1.0,0.0,484.0,563.0,0.0,0,1953.0,1
499,499,0.49076408051122555,0.5,0.0,0.0,342.0,833.0,0.0,1,1825.0,1
500,500,-0.8634863422738117,-0.9,1.0,0.0,349.0,997.0,0.0,0,1654.0,1
501,501,0.5005395317008049,0.5,0.0,0.0,273.0,948.0,0.0,1,1779.0,1
502,502,0.3313688601007577,0.3,0.0,0.0,443.0,663.0,0.0,1,1894.0,1
503,503,-0.1963843882447146,-0.2,1.0,0.0,329.0,674.0,0.0,0,1997.0,1
504,504,-0.8356513111869334,-0.8,0.0,1.0,328.0,952.0,0.0,1,1720.0,0
505,505,-0.23925402164001364,-0.2,0.0,1.0,297.0,865.0,0.0,1,1838.0,0
506,506,0.7790585251514818,0.8,1.0,1.0,452.0,551.0,0.0,0,1997.0,0
507,507,0.7709168434649144,0.8,1.0,1.0,343.0,856.0,0.0,0,1801.0,0
508,508,-0.09188647477899614,-0.1,0.0,1.0,409.0,669.0,0.0,1,1922.0,0
509,509,-0.23366920201938968,-0.2,0.0,1.0,363.0,782.0,0.0,1,1855.0,0
510,510,0.2719475733507012,0.3,1.0,1.0,485.0,601.0,0.0,0,1914.0,0
511,511,-0.6562004125331398,-0.7,1.0,0.0,350.0,591.0,0.0,0,2059.0,1
512,512,0.07544913670411668,0.1,0.0,0.0,373.0,863.0,0.0,1,1764.0,1
513,513,-0.8285066223309596,-0.8,0.0,1.0,446.0,742.0,0.0,1,1812.0,0
514,514,0.27407780261782977,0.3,1.0,1.0,270.0,743.0,0.0,0,1987.0,0
515,515,0.539540816012268,0.5,1.0,1.0,489.0,896.0,0.0,0,1615.0,0
516,516,0.26595554695664314,0.3,1.0,1.0,342.0,917.0,0.0,0,1741.0,0
517,517,-0.003195708014220422,-0.0,1.0,0.0,446.0,807.0,0.0,0,1747.0,1
518,518,-0.027352389356247397,-0.0,0.0,1.0,251.0,774.0,0.0,1,-945.0,0
519,519,0.03531691998104147,0.0,0.0,0.0,266.0,911.0,0.0,1,1823.0,1
520,520,-0.29619004506446933,-0.3,0.0,1.0,275.0,612.0,0.0,1,2113.0,0
521,521,0.02539996152862989,0.0,1.0,1.0,271.0,690.0,0.0,0,2039.0,0
522,522,0.6216040956715533,0.6,1.0,1.0,483.0,620.0,0.0,0,1897.0,0
523,523,-0.058146945454695564,-0.1,0.0,1.0,346.0,624.0,0.0,1,-870.0,0
524,524,-0.2873311853942734,-0.3,1.0,0.0,266.0,530.0,0.0,0,2204.0,1
525,525,0.5458070415723818,0.5,0.0,0.0,399.0,910.0,0.0,1,1691.0,1
526,526,-0.6874660785971549,-0.7,0.0,1.0,447.0,594.0,0.0,1,1959.0,0
527,527,-0.3371934199264036,-0.3,1.0,0.0,447.0,653.0,0.0,0,1900.0,1
528,528,-0.2517089221085278,-0.3,1.0,0.0,376.0,502.0,0.0,0,2122.0,1
529,529,0.16783451610330424,0.2,1.0,1.0,447.0,558.0,0.0,0,1995.0,0
530,530,0.05963721054951121,0.1,1.0,1.0,259.0,600.0,0.0,0,2141.0,0
531,531,0.037820310267513646,0.0,0.0,0.0,434.0,859.0,0.0,1,1707.0,1
532,532,0.3123022765779492,0.3,0.0,0.0,282.0,655.0,0.0,1,2063.0,1
533,533,-0.77830518292405,-0.8,0.0,1.0,485.0,771.0,0.0,1,1744.0,0
534,534,0.5518965626662001,0.6,0.0,0.0,327.0,808.0,0.0,1,1865.0,1
535,535,-0.559417754756736,-0.6,0.0,1.0,408.0,666.0,0.0,1,1926.0,0
536,536,0.3864509785519671,0.4,0.0,0.0,365.0,672.0,0.0,1,1963.0,1
537,537,0.0055000389160249075,0.0,0.0,0.0,360.0,735.0,0.0,1,1905.0,1
538,538,0.5393811775353506,0.5,0.0,0.0,348.0,720.0,0.0,1,1932.0,1
539,539,-0.04076038375802438,-0.0,0.0,1.0,393.0,724.0,0.0,1,1883.0,0
540,540,0.14872208197102788,0.1,1.0,1.0,389.0,658.0,0.0,0,-927.0,0
541,541,0.7483540690543792,0.7,1.0,1.0,468.0,745.0,0.0,0,1787.0,0
542,542,0.02853721595814429,0.0,1.0,1.0,363.0,830.0,0.0,0,1807.0,0
543,543,0.032396803293530896,0.0,1.0,1.0,326.0,924.0,0.0,0,1750.0,0
544,544,-0.4271704308746037,-0.4,0.0,1.0,445.0,855.0,0.0,1,1700.0,0
545,545,-0.0005179029604169827,-0.0,0.0,1.0,400.0,506.0,0.0,1,2094.0,0
546,546,0.6431437805850849,0.6,0.0,0.0,442.0,815.0,0.0,1,1743.0,1
547,547,-0.8857092140981203,-0.9,1.0,0.0,438.0,995.0,0.0,0,1567.0,1
548,548,-0.118836664323133,-0.1,1.0,0.0,356.0,795.0,0.0,0,-1141.0,1
549,549,-0.809262315199199,-0.8,1.0,0.0,286.0,573.0,0.0,0,2141.0,1
550,550,0.04122011342413878,0.0,0.0,0.0,475.0,658.0,0.0,1,1867.0,1
551,551,0.1567319678525988,0.2,1.0,1.0,312.0,965.0,0.0,0,1723.0,0
552,552,-0.5848553621283203,-0.6,0.0,1.0,352.0,662.0,0.0,1,1986.0,0
553,553,-0.15768099481124564,-0.2,0.0,1.0,466.0,980.0,0.0,1,1554.0,0
554,554,-0.845569249973062,-0.8,1.0,0.0,431.0,644.0,0.0,0,1925.0,1
555,555,-0.5384442032911443,-0.5,0.0,1.0,409.0,583.0,0.0,1,2008.0,0
556,556,0.02068640695749213,0.0,0.0,0.0,449.0,878.0,0.0,1,1673.0,1
557,557,0.6142203619934702,0.6,1.0,1.0,418.0,586.0,0.0,0,1996.0,0
558,558,-0.08917368868267317,-0.1,1.0,0.0,320.0,831.0,0.0,0,1849.0,1
559,559,0.09312668971931559,0.1,0.0,0.0,495.0,552.0,0.0,1,1953.0,1
560,560,0.20132849953212995,0.2,1.0,1.0,452.0,587.0,0.0,0,1961.0,0
561,561,-0.3185330072538112,-0.3,0.0,1.0,481.0,794.0,0.0,1,1725.0,0
562,562,-0.3681196792837148,-0.4,0.0,1.0,312.0,844.0,0.0,1,1844.0,0
563,563,-0.7901561210446327,-0.8,1.0,0.0,254.0,734.0,0.0,0,2012.0,1
564,564,0.8324655032791591,0.8,0.0,0.0,329.0,864.0,0.0,1,1807.0,1
565,565,0.25196478722511284,0.3,1.0,1.0,386.0,942.0,0.0,0,1672.0,0
566,566,0.735160213716466,0.7,1.0,1.0,395.0,595.0,0.0,0,2010.0,0
567,567,0.28910379275246456,0.3,1.0,1.0,401.0,564.0,0.0,0,2035.0,0
568,568,0.30010650084907675,0.3,0.0,0.0,272.0,662.0,0.0,1,2066.0,1
569,569,0.7888229356952129,0.8,1.0,1.0,382.0,582.0,1.0,1,-884.0,1
570,570,-0.6045090782662631,-0.6,1.0,0.0,400.0,632.0,0.0,0,1968.0,1
571,571,0.34756422203876214,0.3,0.0,0.0,422.0,841.0,0.0,1,1737.0,1
572,572,0.8255297728057834,0.8,0.0,0.0,449.0,642.0,0.0,1,1909.0,1
573,573,0.5412933258424083,0.5,0.0,0.0,374.0,617.0,0.0,1,2009.0,1
574,574,0.2671282300635688,0.3,0.0,0.0,409.0,529.0,0.0,1,2062.0,1
575,575,-0.6275435165404553,-0.6,1.0,0.0,390.0,642.0,0.0,0,1968.0,1
576,576,0.8349822151554517,0.8,0.0,0.0,422.0,560.0,0.0,1,2018.0,1
577,577,-0.6840573035033495,-0.7,0.0,1.0,370.0,597.0,0.0,1,2033.0,0
578,578,-0.06674916498672567,-0.1,0.0,1.0,370.0,518.0,0.0,1,2112.0,0
579,579,-0.6734919985163887,-0.7,0.0,1.0,442.0,770.0,0.0,1,1788.0,0
580,580,0.8983758371143754,0.9,0.0,0.0,473.0,960.0,0.0,1,1567.0,1
581,581,-0.5947139783095388,-0.6,0.0,1.0,270.0,972.0,0.0,1,1758.0,0
582,582,0.232988693568429,0.2,1.0,1.0,363.0,981.0,0.0,0,1656.0,0
583,583,0.7603358111191455,0.8,1.0,1.0,443.0,809.0,0.0,0,1748.0,0
584,584,0.5888349024348695,0.6,1.0,1.0,407.0,875.0,0.0,0,1718.0,0
585,585,-0.8579965660011004,-0.9,1.0,0.0,447.0,693.0,0.0,0,1860.0,1
586,586,0.7775723107919649,0.8,1.0,1.0,441.0,598.0,0.0,0,1961.0,0
587,587,-0.6648629696640468,-0.7,0.0,1.0,484.0,812.0,0.0,1,1704.0,0
588,588,-0.11196234999834176,-0.1,0.0,1.0,302.0,631.0,0.0,1,2067.0,0
589,589,0.14973213242913508,0.1,1.0,1.0,318.0,986.0,0.0,0,1696.0,0
590,590,0.18104399925310133,0.2,1.0,1.0,448.0,743.0,0.0,0,1809.0,0
591,591,0.8671157844652081,0.9,1.0,1.0,367.0,991.0,0.0,0,1642.0,0
592,592,0.8465282305215897,0.8,1.0,1.0,363.0,875.0,0.0,0,1762.0,0
593,593,0.26207680529755606,0.3,1.0,1.0,269.0,931.0,0.0,0,1800.0,0
594,594,0.05130013356742946,0.1,1.0,1.0,401.0,749.0,0.0,0,1850.0,0
595,595,0.3195277550044514,0.3,0.0,0.0,448.0,896.0,0.0,1,1656.0,1
596,596,0.6398687208071322,0.6,1.0,1.0,419.0,579.0,0.0,0,2002.0,0
597,597,0.7692316958328255,0.8,0.0,0.0,438.0,505.0,0.0,1,2057.0,1
598,598,-0.6200043453216633,-0.6,0.0,1.0,252.0,651.0,0.0,1,2097.0,0
599,599,-0.4562981045355403,-0.5,1.0,0.0,357.0,745.0,0.0,0,1898.0,1
600,600,0.3605464761923146,0.4,1.0,1.0,309.0,585.0,0.0,0,2106.0,0
601,601,-0.7809358176040824,-0.8,1.0,0.0,390.0,967.0,0.0,0,1643.0,1
602,602,-0.8888171234106392,-0.9,1.0,0.0,282.0,917.0,0.0,0,1801.0,1
603,603,0.5851363438300322,0.6,0.0,0.0,326.0,576.0,0.0,1,2098.0,1
604,604,0.796929837931044,0.8,1.0,1.0,442.0,707.0,0.0,0,1851.0,0
605,605,-0.6725720620260524,-0.7,0.0,1.0,462.0,786.0,0.0,1,1752.0,0
606,606,0.8412153965264119,0.8,0.0,0.0,383.0,571.0,0.0,1,2046.0,1
607,607,-0.35467455645862334,-0.4,1.0,0.0,263.0,596.0,0.0,0,2141.0,1
608,608,0.4608172516567458,0.5,0.0,0.0,302.0,663.0,0.0,1,2035.0,1
609,609,-0.07211207886017135,-0.1,1.0,0.0,256.0,879.0,0.0,0,1865.0,1
610,610,0.2756790322626902,0.3,1.0,1.0,383.0,686.0,0.0,0,1931.0,0
611,611,0.3881876004945143,0.4,0.0,0.0,253.0,543.0,0.0,1,2204.0,1
612,612,-0.7587137920465662,-0.8,0.0,1.0,286.0,824.0,0.0,1,1890.0,0
613,613,0.6882992815328463,0.7,0.0,0.0,443.0,512.0,0.0,1,2045.0,1
614,614,0.22865877863664574,0.2,1.0,1.0,477.0,693.0,1.0,1,-1160.0,1
615,615,0.10141765099168032,0.1,0.0,0.0,377.0,621.0,0.0,1,2002.0,1
616,616,-0.5374166629663274,-0.5,1.0,0.0,282.0,805.0,0.0,0,1913.0,1
617,617,-0.585606843973423,-0.6,0.0,1.0,463.0,928.0,0.0,1,1609.0,0
618,618,0.41462870725183165,0.4,1.0,1.0,463.0,817.0,0.0,0,1720.0,0
619,619,0.537702553368658,0.5,1.0,1.0,378.0,688.0,0.0,0,1934.0,0
620,620,0.5698023373494098,0.6,0.0,0.0,333.0,568.0,0.0,1,2099.0,1
621,621,-0.4712520747624288,-0.5,0.0,1.0,257.0,698.0,0.0,1,2045.0,0
622,622,0.03498516121679407,0.0,1.0,1.0,449.0,933.0,1.0,1,-1322.0,1
623,623,0.07590680619538093,0.1,1.0,1.0,321.0,654.0,0.0,0,2025.0,0
624,624,0.7770034304402883,0.8,0.0,0.0,349.0,874.0,0.0,1,-1213.0,1
625,625,0.006933164967628858,0.0,0.0,0.0,474.0,708.0,0.0,1,1818.0,1
626,626,-0.22277062443605888,-0.2,1.0,0.0,390.0,789.0,0.0,0,1821.0,1
627,627,0.18884944568486828,0.2,1.0,1.0,441.0,927.0,0.0,0,1632.0,0
628,628,-0.46217872368607654,-0.5,1.0,0.0,315.0,517.0,0.0,0,2168.0,1
629,629,0.33469097202937503,0.3,0.0,0.0,277.0,588.0,0.0,1,2135.0,1
630,630,0.6509015197637252,0.7,1.0,1.0,296.0,664.0,0.0,0,2040.0,0
631,631,-0.8231900846102768,-0.8,1.0,0.0,266.0,561.0,0.0,0,-767.0,1
632,632,-0.3845317702476194,-0.4,1.0,0.0,284.0,954.0,0.0,0,-1048.0,1
633,633,-0.368856577617781,-0.4,1.0,0.0,318.0,514.0,0.0,0,2168.0,1
634,634,0.1291940050442132,0.1,1.0,1.0,370.0,799.0,0.0,0,1831.0,0
635,635,-0.41021237997367765,-0.4,1.0,0.0,426.0,539.0,0.0,0,2035.0,1
636,636,0.21045713208315153,0.2,0.0,0.0,473.0,849.0,0.0,1,1678.0,1
637,637,-0.06784660209621807,-0.1,1.0,0.0,355.0,726.0,0.0,0,1919.0,1
638,638,0.7904851858657783,0.8,0.0,0.0,442.0,877.0,0.0,1,1681.0,1
639,639,0.34760251792774144,0.3,0.0,0.0,250.0,714.0,0.0,1,2036.0,1
640,640,0.2744468929077982,0.3,1.0,1.0,385.0,745.0,0.0,0,1870.0,0
641,641,0.42825177718168417,0.4,1.0,1.0,324.0,616.0,0.0,0,2060.0,0
642,642,-0.7428095686037899,-0.7,1.0,0.0,487.0,679.0,0.0,0,-1126.0,1
643,643,-0.6488245563032022,-0.6,1.0,0.0,291.0,988.0,0.0,0,1721.0,1
644,644,-0.25803769011245037,-0.3,0.0,1.0,304.0,680.0,0.0,1,2016.0,0
645,645,-0.3787923463821111,-0.4,0.0,1.0,452.0,856.0,0.0,1,1692.0,0
646,646,0.8467732781175593,0.8,0.0,0.0,308.0,590.0,0.0,1,2102.0,1
647,647,0.0026524673350011296,0.0,0.0,0.0,458.0,714.0,0.0,1,1828.0,1
648,648,-0.2720986264545149,-0.3,1.0,0.0,337.0,852.0,0.0,0,1811.0,1
649,649,-0.7254985685884127,-0.7,1.0,0.0,461.0,758.0,0.0,0,1781.0,1
650,650,-0.7543408379638211,-0.8,1.0,0.0,413.0,566.0,0.0,0,-939.0,1
651,651,-0.012811845335179872,-0.0,0.0,1.0,466.0,501.0,0.0,1,2033.0,0
652,652,0.021195242959901606,0.0,0.0,0.0,312.0,823.0,0.0,1,1865.0,1
653,653,-0.8428540706453933,-0.8,1.0,0.0,265.0,873.0,0.0,0,1862.0,1
654,654,0.030264481595713155,0.0,1.0,1.0,360.0,954.0,0.0,0,1686.0,0
655,655,0.11176659224741725,0.1,0.0,0.0,360.0,574.0,0.0,1,-904.0,1
656,656,-0.6336673791944205,-0.6,0.0,1.0,475.0,605.0,0.0,1,1920.0,0
657,657,-0.2611393137882665,-0.3,0.0,1.0,341.0,869.0,0.0,1,1790.0,0
658,658,-0.41564190470738294,-0.4,0.0,1.0,256.0,570.0,0.0,1,2174.0,0
659,659,0.04393094109180229,0.0,1.0,1.0,273.0,787.0,0.0,0,-1000.0,0
660,660,-0.290390575887269,-0.3,1.0,0.0,383.0,736.0,0.0,0,1881.0,1
661,661,0.4306556234423907,0.4,0.0,0.0,395.0,999.0,0.0,1,1606.0,1
662,662,-0.5194926266951057,-0.5,1.0,0.0,417.0,960.0,0.0,0,-1347.0,1
663,663,-0.41829546956342506,-0.4,1.0,0.0,368.0,895.0,0.0,0,1737.0,1
664,664,0.8189972064102192,0.8,0.0,0.0,380.0,740.0,0.0,1,1880.0,1
665,665,-0.4418485059426775,-0.4,1.0,0.0,310.0,922.0,0.0,0,-1172.0,1
666,666,-0.5036458256374525,-0.5,0.0,1.0,429.0,673.0,0.0,1,1898.0,0
667,667,0.7053463916584587,0.7,1.0,1.0,346.0,771.0,0.0,0,1883.0,0
668,668,-0.07056028890837107,-0.1,0.0,1.0,343.0,771.0,0.0,1,-1104.0,0
669,669,-0.6535876823123317,-0.7,1.0,0.0,265.0,853.0,0.0,0,1882.0,1
670,670,-0.1347698284159612,-0.1,0.0,1.0,344.0,887.0,0.0,1,1769.0,0
671,671,0.7278219350631515,0.7,0.0,0.0,254.0,699.0,0.0,1,2047.0,1
672,672,0.08121305664662082,0.1,1.0,1.0,457.0,743.0,0.0,0,-1150.0,0
673,673,-0.7968641502517538,-0.8,1.0,0.0,298.0,872.0,0.0,0,1830.0,1
674,674,-0.2533296621882686,-0.3,1.0,0.0,493.0,633.0,1.0,1,-1126.0,0
675,675,-0.8516838378025222,-0.9,1.0,0.0,394.0,652.0,0.0,0,1954.0,1
676,676,-0.5378127784650779,-0.5,1.0,0.0,253.0,900.0,0.0,0,1847.0,1
677,677,-0.3056653942547355,-0.3,1.0,0.0,420.0,682.0,0.0,0,1898.0,1
678,678,0.08928340210254604,0.1,0.0,0.0,263.0,710.0,0.0,1,2027.0,1
679,679,-0.8192838060022142,-0.8,1.0,0.0,475.0,887.0,0.0,0,1638.0,1
680,680,-0.172868822993669,-0.2,1.0,0.0,445.0,974.0,0.0,0,1581.0,1
681,681,0.5909370500313452,0.6,1.0,1.0,339.0,932.0,0.0,0,1729.0,0
682,682,0.13333454724877825,0.1,0.0,0.0,250.0,789.0,0.0,1,1961.0,1
683,683,0.1774958397887506,0.2,1.0,1.0,265.0,816.0,0.0,0,-1041.0,0
684,684,0.8450612406976404,0.8,1.0,1.0,487.0,882.0,0.0,0,1631.0,0
685,685,-0.018659134014912482,-0.0,1.0,0.0,399.0,922.0,0.0,0,1679.0,1
686,686,-0.009163305249826115,-0.0,0.0,1.0,364.0,564.0,0.0,1,2072.0,0
687,687,0.25497712348615986,0.3,1.0,1.0,489.0,842.0,0.0,0,1669.0,0
688,688,0.8820523495146683,0.9,0.0,0.0,496.0,898.0,0.0,1,1606.0,1
689,689,-0.32286084130123094,-0.3,1.0,0.0,459.0,656.0,0.0,0,1885.0,1
690,690,0.6682426488929892,0.7,1.0,1.0,395.0,554.0,0.0,0,2051.0,0
691,691,0.21412930959724263,0.2,0.0,0.0,489.0,504.0,0.0,1,2007.0,1
692,692,0.8082057750832982,0.8,0.0,0.0,458.0,696.0,1.0,0,-1114.0,0
693,693,0.49633263777791325,0.5,1.0,1.0,285.0,590.0,0.0,0,2125.0,0
694,694,0.5350437629178891,0.5,0.0,0.0,305.0,799.0,0.0,1,1896.0,1
695,695,0.7343481850324213,0.7,0.0,0.0,480.0,958.0,0.0,1,1562.0,1
696,696,0.6193844576292388,0.6,1.0,1.0,491.0,745.0,0.0,0,1764.0,0
697,697,0.5029202869642259,0.5,0.0,0.0,469.0,919.0,0.0,1,1612.0,1
698,698,0.21318553666151707,0.2,0.0,0.0,468.0,763.0,0.0,1,1769.0,1
699,699,-0.4941225558850931,-0.5,0.0,1.0,286.0,885.0,0.0,1,1829.0,0
700,700,0.7087878085510076,0.7,0.0,0.0,272.0,987.0,0.0,1,1741.0,1
701,701,-0.09159735652780743,-0.1,1.0,0.0,451.0,637.0,0.0,0,-988.0,1
702,702,-0.017073034932681308,-0.0,0.0,1.0,424.0,545.0,1.0,0,-939.0,1
703,703,-0.8580247663219814,-0.9,0.0,1.0,297.0,531.0,0.0,1,2172.0,0
704,704,-0.10611406202687501,-0.1,0.0,1.0,421.0,530.0,0.0,1,2049.0,0
705,705,-0.10170644738282619,-0.1,0.0,1.0,258.0,787.0,0.0,1,1955.0,0
706,706,-0.35549596111833015,-0.4,1.0,0.0,423.0,667.0,0.0,0,1910.0,1
707,707,0.32708950491316113,0.3,1.0,1.0,390.0,837.0,0.0,0,1773.0,0
708,708,-0.017928067616513776,-0.0,1.0,0.0,371.0,859.0,0.0,0,1770.0,1
709,709,-0.019023085841571752,-0.0,0.0,1.0,492.0,738.0,0.0,1,1770.0,0
710,710,-0.7411157406295366,-0.7,1.0,0.0,449.0,990.0,0.0,0,1561.0,1
711,711,0.8518624255242441,0.9,0.0,0.0,380.0,541.0,0.0,1,2079.0,1
712,712,0.4142124076967303,0.4,0.0,0.0,258.0,944.0,0.0,1,1798.0,1
713,713,0.10752485395381994,0.1,1.0,1.0,344.0,786.0,0.0,0,1870.0,0
714,714,0.6264985385293022,0.6,1.0,1.0,427.0,653.0,0.0,0,1920.0,0
715,715,-0.7224050789352302,-0.7,0.0,1.0,363.0,621.0,1.0,0,-904.0,1
716,716,0.08967785357300939,0.1,1.0,1.0,337.0,809.0,0.0,0,1854.0,0
717,717,-0.39885416909634175,-0.4,1.0,0.0,370.0,606.0,0.0,0,2024.0,1
718,718,0.7377614845154531,0.7,1.0,1.0,308.0,870.0,1.0,1,-1178.0,1
719,719,0.38740981620726445,0.4,1.0,1.0,338.0,761.0,0.0,0,1901.0,0
720,720,-0.33499736828287274,-0.3,1.0,0.0,453.0,781.0,0.0,0,1766.0,1
721,721,-0.8569681794957056,-0.9,0.0,1.0,407.0,593.0,0.0,1,2000.0,0
722,722,0.6640064143114116,0.7,0.0,0.0,306.0,950.0,0.0,1,1744.0,1
723,723,-0.4100794553493085,-0.4,0.0,1.0,423.0,548.0,0.0,1,2029.0,0
724,724,0.18175551491920283,0.2,1.0,1.0,279.0,860.0,0.0,0,1861.0,0
725,725,0.6708501524486469,0.7,1.0,1.0,357.0,816.0,0.0,0,1827.0,0
726,726,0.24228029341440915,0.2,0.0,0.0,350.0,736.0,0.0,1,-1006.0,1
727,727,0.8326994675464118,0.8,0.0,0.0,384.0,766.0,0.0,1,-1060.0,1
728,728,-0.16509589325513985,-0.2,0.0,1.0,478.0,746.0,0.0,1,1776.0,0
729,729,-0.39767662191780395,-0.4,1.0,0.0,483.0,749.0,0.0,0,1768.0,1
730,730,0.43091830154551747,0.4,0.0,0.0,375.0,527.0,0.0,1,2098.0,1
731,731,0.015387996583428487,0.0,0.0,0.0,390.0,729.0,0.0,1,1881.0,1
732,732,0.7189895932138614,0.7,1.0,1.0,353.0,513.0,0.0,0,2134.0,0
733,733,0.4920410174776543,0.5,0.0,0.0,469.0,994.0,0.0,1,1537.0,1
734,734,-0.2196044979659677,-0.2,0.0,1.0,485.0,706.0,0.0,1,1809.0,0
735,735,0.5934103033325621,0.6,1.0,1.0,463.0,926.0,0.0,0,1611.0,0
736,736,-0.18339662055158557,-0.2,0.0,1.0,434.0,857.0,0.0,1,1709.0,0
737,737,-0.6434402550828262,-0.6,0.0,1.0,323.0,655.0,0.0,1,2022.0,0
738,738,-0.44500944145664395,-0.4,1.0,0.0,475.0,835.0,0.0,0,1690.0,1
739,739,0.7557400613882234,0.8,1.0,1.0,492.0,721.0,0.0,0,1787.0,0
740,740,-0.07481101901696408,-0.1,1.0,0.0,365.0,628.0,0.0,0,2007.0,1
741,741,0.7295949682147872,0.7,0.0,0.0,253.0,895.0,0.0,1,1852.0,1
742,742,-0.47265845211060853,-0.5,0.0,1.0,470.0,765.0,0.0,1,1765.0,0
743,743,-0.16363302529865997,-0.2,1.0,0.0,360.0,588.0,0.0,0,2052.0,1
744,744,0.23830424750426282,0.2,0.0,0.0,497.0,842.0,0.0,1,1661.0,1
745,745,-0.4549716745560914,-0.5,1.0,0.0,343.0,897.0,0.0,0,1760.0,1
746,746,0.816776487405778,0.8,0.0,0.0,351.0,684.0,0.0,1,1965.0,1
747,747,-0.47704294870265995,-0.5,1.0,0.0,372.0,785.0,0.0,0,1843.0,1
748,748,-0.7742947032824823,-0.8,0.0,1.0,442.0,612.0,0.0,1,1946.0,0
749,749,0.6156455039949659,0.6,0.0,0.0,304.0,834.0,0.0,1,1862.0,1
750,750,0.6568014840439206,0.7,1.0,1.0,475.0,884.0,0.0,0,1641.0,0
751,751,0.4995816331448236,0.5,1.0,1.0,487.0,741.0,0.0,0,1772.0,0
752,752,0.8639149617661498,0.9,1.0,1.0,251.0,740.0,0.0,0,2009.0,0
753,753,0.6522053031110248,0.7,1.0,1.0,464.0,891.0,0.0,0,1645.0,0
754,754,0.7875056920913311,0.8,0.0,0.0,306.0,675.0,0.0,1,2019.0,1
755,755,-0.7614062470428127,-0.8,1.0,0.0,342.0,639.0,0.0,0,2019.0,1
756,756,-0.6362475169976174,-0.6,1.0,0.0,408.0,827.0,0.0,0,1765.0,1
757,757,0.34825023862711346,0.3,1.0,1.0,303.0,869.0,0.0,0,1828.0,0
758,758,0.48279167812970647,0.5,1.0,1.0,451.0,693.0,0.0,0,-954.0,0
759,759,-0.13162940151996805,-0.1,1.0,0.0,386.0,511.0,0.0,0,2103.0,1
760,760,-0.8441216095584769,-0.8,1.0,0.0,310.0,591.0,0.0,0,2099.0,1
761,761,0.3557999878734416,0.4,1.0,1.0,419.0,537.0,0.0,0,2044.0,0
762,762,-0.09283531084852581,-0.1,0.0,1.0,283.0,579.0,0.0,1,2138.0,0
763,763,0.5515537587295335,0.6,1.0,1.0,475.0,841.0,0.0,0,1684.0,0
764,764,-0.32498825636390904,-0.3,0.0,1.0,391.0,674.0,0.0,1,1935.0,0
765,765,-0.7949507687026613,-0.8,0.0,1.0,296.0,986.0,0.0,1,1718.0,0
766,766,0.36588185371979887,0.4,1.0,1.0,499.0,957.0,0.0,0,-1456.0,0
767,767,-0.4539897856001223,-0.5,1.0,0.0,383.0,925.0,0.0,0,1692.0,1
768,768,-0.10681543507042857,-0.1,1.0,0.0,467.0,997.0,0.0,0,1536.0,1
769,769,-0.6492635284850399,-0.6,0.0,1.0,490.0,584.0,0.0,1,1926.0,0
770,770,0.31942466492295274,0.3,0.0,0.0,340.0,502.0,0.0,1,2158.0,1
771,771,0.7664548494935165,0.8,0.0,0.0,281.0,524.0,0.0,1,2195.0,1
772,772,0.3580242087583113,0.4,1.0,1.0,452.0,768.0,0.0,0,1780.0,0
773,773,0.36148584612914003,0.4,1.0,1.0,451.0,656.0,0.0,0,1893.0,0
774,774,0.05853866711109312,0.1,1.0,1.0,432.0,848.0,0.0,0,1720.0,0
775,775,-0.814296976467876,-0.8,1.0,0.0,309.0,870.0,0.0,0,1821.0,1
776,776,-0.5001994586965699,-0.5,1.0,0.0,460.0,953.0,0.0,0,1587.0,1
777,777,-0.4717752847097068,-0.5,0.0,1.0,291.0,690.0,0.0,1,2019.0,0
778,778,-0.7371193997757393,-0.7,1.0,0.0,380.0,658.0,0.0,0,1962.0,1
779,779,-0.486468626078416,-0.5,1.0,0.0,366.0,864.0,0.0,0,1770.0,1
780,780,0.5366161082500355,0.5,0.0,0.0,332.0,686.0,0.0,1,1982.0,1
781,781,0.6121211914675763,0.6,1.0,1.0,312.0,800.0,0.0,0,1888.0,0
782,782,0.4711491739853614,0.5,0.0,0.0,447.0,516.0,0.0,1,2037.0,1
783,783,-0.3486526115918974,-0.3,0.0,1.0,283.0,660.0,0.0,1,-803.0,0
784,784,-0.6976290918589962,-0.7,0.0,1.0,259.0,602.0,1.0,0,-761.0,1
785,785,-0.39651558400452347,-0.4,1.0,0.0,400.0,581.0,0.0,0,2019.0,1
786,786,0.04603186698947326,0.0,0.0,0.0,393.0,868.0,0.0,1,1739.0,1
787,787,0.7609889181331607,0.8,0.0,0.0,363.0,514.0,0.0,1,2123.0,1
788,788,-0.6019000273478093,-0.6,1.0,0.0,484.0,649.0,0.0,0,1867.0,1
789,789,-0.6209277017926251,-0.6,1.0,0.0,483.0,551.0,0.0,0,1966.0,1
790,790,0.8809660037951744,0.9,0.0,0.0,469.0,671.0,0.0,1,1860.0,1
791,791,-0.6734953979912027,-0.7,0.0,1.0,423.0,813.0,1.0,0,-1186.0,1
792,792,-0.5122569458320199,-0.5,1.0,0.0,339.0,587.0,0.0,0,2074.0,1
793,793,-0.13488757053905975,-0.1,1.0,0.0,318.0,520.0,0.0,0,2162.0,1
794,794,0.10141051333109996,0.1,0.0,0.0,352.0,950.0,0.0,1,1698.0,1
795,795,-0.544215018317731,-0.5,1.0,0.0,264.0,926.0,0.0,0,1810.0,1
796,796,-0.7972209734202751,-0.8,0.0,1.0,371.0,826.0,0.0,1,1803.0,0
797,797,0.3831622011037522,0.4,1.0,1.0,365.0,876.0,0.0,0,1759.0,0
798,798,-0.5547384858543816,-0.6,0.0,1.0,444.0,961.0,0.0,1,1595.0,0
799,799,0.17526176136249483,0.2,1.0,1.0,449.0,659.0,0.0,0,1892.0,0
800,800,-0.23139516632887158,-0.2,1.0,0.0,497.0,973.0,0.0,0,1530.0,1
801,801,-0.4731966847522728,-0.5,1.0,0.0,475.0,733.0,0.0,0,1792.0,1
802,802,-0.7755738959410875,-0.8,0.0,1.0,396.0,581.0,0.0,1,2023.0,0
803,803,0.32670544144399305,0.3,1.0,1.0,436.0,711.0,0.0,0,1853.0,0
804,804,0.7253953420407232,0.7,1.0,1.0,401.0,963.0,0.0,0,1636.0,0
805,805,-0.6997891299253474,-0.7,1.0,0.0,450.0,908.0,0.0,0,1642.0,1
806,806,0.1811157962477058,0.2,0.0,0.0,326.0,627.0,0.0,1,2047.0,1
807,807,-0.7517306461644921,-0.8,0.0,1.0,419.0,861.0,0.0,1,1720.0,0
808,808,-0.8474429519270946,-0.8,1.0,0.0,478.0,747.0,0.0,0,1775.0,1
809,809,-0.8605532902168229,-0.9,0.0,1.0,497.0,864.0,0.0,1,1639.0,0
810,810,0.7764750435055677,0.8,0.0,0.0,318.0,617.0,0.0,1,2065.0,1
811,811,0.19347501079904428,0.2,1.0,1.0,324.0,972.0,0.0,0,1704.0,0
812,812,0.6499213636605948,0.6,1.0,1.0,454.0,809.0,0.0,0,1737.0,0
813,813,-0.1367749068533024,-0.1,0.0,1.0,431.0,913.0,0.0,1,1656.0,0
814,814,0.06272344581557254,0.1,0.0,0.0,448.0,678.0,0.0,1,1874.0,1
815,815,0.8341072709173812,0.8,0.0,0.0,274.0,603.0,0.0,1,2123.0,1
816,816,-0.6689743799187897,-0.7,1.0,0.0,375.0,528.0,0.0,0,2097.0,1
817,817,-0.5760358746148783,-0.6,1.0,0.0,309.0,804.0,0.0,0,1887.0,1
818,818,-0.11893162419464409,-0.1,1.0,0.0,298.0,580.0,0.0,0,2122.0,1
819,819,0.45346134942995253,0.5,0.0,0.0,360.0,506.0,0.0,1,2134.0,1
820,820,-0.41616502255939253,-0.4,1.0,0.0,323.0,877.0,0.0,0,1800.0,1
821,821,0.2276035134518778,0.2,0.0,0.0,454.0,524.0,0.0,1,2022.0,1
822,822,0.8630621727096649,0.9,0.0,0.0,452.0,569.0,0.0,1,1979.0,1
823,823,0.6801214398112571,0.7,1.0,1.0,451.0,824.0,0.0,0,1725.0,0
824,824,0.4551736759583719,0.5,1.0,1.0,255.0,653.0,0.0,0,2092.0,0
825,825,0.8259453161285079,0.8,0.0,0.0,362.0,655.0,0.0,1,1983.0,1
826,826,0.3403081559932172,0.3,1.0,1.0,469.0,768.0,0.0,0,1763.0,0
827,827,-0.5910238927993621,-0.6,1.0,0.0,440.0,891.0,0.0,0,1669.0,1
828,828,0.31549370600978943,0.3,1.0,1.0,423.0,513.0,0.0,0,2064.0,0
829,829,0.8404724358393795,0.8,1.0,1.0,401.0,682.0,0.0,0,1917.0,0
830,830,-0.5517291341630501,-0.6,0.0,1.0,320.0,935.0,0.0,1,1745.0,0
831,831,0.4890006480054986,0.5,0.0,0.0,447.0,853.0,0.0,1,-1220.0,1
832,832,0.5195345217366706,0.5,0.0,0.0,472.0,787.0,0.0,1,1741.0,1
833,833,-0.4039551606335632,-0.4,1.0,0.0,342.0,652.0,0.0,0,2006.0,1
834,834,-0.3352276162539899,-0.3,0.0,1.0,376.0,622.0,0.0,1,2002.0,0
835,835,-0.6332137189654664,-0.6,0.0,1.0,295.0,817.0,0.0,1,1888.0,0
836,836,0.7214450456938449,0.7,1.0,1.0,331.0,888.0,0.0,0,1781.0,0
837,837,0.5999057785120162,0.6,0.0,0.0,312.0,643.0,0.0,1,2045.0,1
838,838,-0.39829792345395154,-0.4,0.0,1.0,454.0,935.0,0.0,1,1611.0,0
839,839,0.5291980798612664,0.5,0.0,0.0,376.0,549.0,0.0,1,2075.0,1
840,840,-0.2908619628611898,-0.3,1.0,0.0,440.0,982.0,0.0,0,1578.0,1
841,841,0.00018141596930576487,0.0,1.0,1.0,309.0,658.0,0.0,0,2033.0,0
842,842,-0.6998339493978551,-0.7,1.0,0.0,436.0,801.0,0.0,0,1763.0,1
843,843,0.12358536317340907,0.1,0.0,0.0,435.0,995.0,0.0,1,1570.0,1
844,844,0.45518785867525124,0.5,1.0,1.0,492.0,569.0,0.0,0,1939.0,0
845,845,-0.30338490103088867,-0.3,0.0,1.0,477.0,809.0,0.0,1,1714.0,0
846,846,0.45619866332328896,0.5,0.0,0.0,471.0,709.0,0.0,1,1820.0,1
847,847,-0.3513354934659426,-0.4,0.0,1.0,309.0,540.0,0.0,1,2151.0,0
848,848,0.40938594177950216,0.4,1.0,1.0,272.0,803.0,0.0,0,-1055.0,0
849,849,0.502481053196186,0.5,1.0,1.0,442.0,804.0,0.0,0,1754.0,0
850,850,0.527621616234271,0.5,0.0,0.0,250.0,629.0,0.0,1,-839.0,1
851,851,-0.8087998319969251,-0.8,1.0,0.0,439.0,579.0,0.0,0,1982.0,1
852,852,-0.5296278890403023,-0.5,1.0,0.0,460.0,668.0,0.0,0,1872.0,1
853,853,0.24548283061214315,0.2,0.0,0.0,311.0,763.0,0.0,1,1926.0,1
854,854,-0.5137276467561067,-0.5,0.0,1.0,295.0,884.0,0.0,1,1821.0,0
855,855,0.4739588583571154,0.5,1.0,1.0,300.0,683.0,1.0,1,-973.0,1
856,856,-0.544707916310081,-0.5,1.0,0.0,497.0,921.0,0.0,0,1582.0,1
857,857,-0.6935456293574553,-0.7,1.0,0.0,348.0,528.0,0.0,0,2124.0,1
858,858,-0.6869277994534396,-0.7,0.0,1.0,312.0,584.0,0.0,1,2104.0,0
859,859,-0.6961413054948964,-0.7,0.0,1.0,449.0,637.0,0.0,1,1914.0,0
860,860,-0.41296073349989537,-0.4,1.0,0.0,499.0,828.0,0.0,0,1673.0,1
861,861,-0.030599236841365562,-0.0,0.0,1.0,318.0,716.0,0.0,1,1966.0,0
862,862,0.15614467714475022,0.2,0.0,0.0,409.0,709.0,0.0,1,1882.0,1
863,863,-0.7301013480062583,-0.7,0.0,1.0,329.0,688.0,0.0,1,1983.0,0
864,864,-0.18903292956965545,-0.2,1.0,0.0,272.0,879.0,0.0,0,1849.0,1
865,865,0.16614979892702342,0.2,1.0,1.0,366.0,649.0,0.0,0,1985.0,0
866,866,-0.5932086400742413,-0.6,0.0,1.0,419.0,717.0,0.0,1,1864.0,0
867,867,-0.7766760897648722,-0.8,1.0,0.0,479.0,583.0,0.0,0,1938.0,1
868,868,0.5275912181693044,0.5,1.0,1.0,420.0,787.0,0.0,0,1793.0,0
869,869,0.6339100054628642,0.6,1.0,1.0,383.0,923.0,0.0,0,-1296.0,0
870,870,-0.6257770320837848,-0.6,1.0,0.0,396.0,937.0,0.0,0,-1253.0,1
871,871,0.10675978055686841,0.1,1.0,1.0,357.0,589.0,0.0,0,2054.0,0
872,872,0.32238689207910565,0.3,0.0,0.0,374.0,942.0,0.0,1,1684.0,1
873,873,0.5061216024004486,0.5,1.0,1.0,254.0,812.0,0.0,0,1934.0,0
874,874,-0.4204754934975067,-0.4,0.0,1.0,491.0,544.0,0.0,1,1965.0,0
875,875,-0.4205500633653719,-0.4,0.0,1.0,318.0,699.0,0.0,1,1983.0,0
876,876,-0.8066035287566637,-0.8,0.0,1.0,451.0,807.0,0.0,1,1742.0,0
877,877,-0.5976893678102904,-0.6,0.0,1.0,379.0,649.0,0.0,1,1972.0,0
878,878,0.5037424733588037,0.5,1.0,1.0,421.0,526.0,0.0,0,2053.0,0
879,879,-0.8047547829897648,-0.8,0.0,1.0,298.0,868.0,0.0,1,1834.0,0
880,880,0.11507457384714204,0.1,1.0,1.0,267.0,785.0,0.0,0,1948.0,0
881,881,-0.25158068644699316,-0.3,1.0,0.0,448.0,694.0,0.0,0,1858.0,1
882,882,-0.6637164972770435,-0.7,0.0,1.0,265.0,868.0,0.0,1,1867.0,0
883,883,0.03792301210384441,0.0,1.0,1.0,367.0,610.0,0.0,0,2023.0,0
884,884,-0.17537650369203295,-0.2,0.0,1.0,424.0,864.0,0.0,1,1712.0,0
885,885,-0.28302994933464354,-0.3,0.0,1.0,454.0,828.0,0.0,1,1718.0,0
886,886,0.6160960602199949,0.6,1.0,1.0,339.0,996.0,0.0,0,1665.0,0
887,887,0.4796948282727561,0.5,1.0,1.0,414.0,801.0,0.0,0,1785.0,0
888,888,-0.04048232664215334,-0.0,1.0,0.0,321.0,672.0,0.0,0,2007.0,1
889,889,0.2844751982426704,0.3,1.0,1.0,326.0,606.0,0.0,0,2068.0,0
890,890,0.6279305308660069,0.6,0.0,0.0,497.0,717.0,0.0,1,1786.0,1
891,891,0.5562622274051455,0.6,1.0,1.0,385.0,537.0,0.0,0,2078.0,0
892,892,0.6512101437843315,0.7,0.0,0.0,445.0,654.0,0.0,1,1901.0,1
893,893,-0.09570316339332452,-0.1,1.0,0.0,328.0,879.0,0.0,0,1793.0,1
894,894,-0.6568266614847896,-0.7,0.0,1.0,250.0,935.0,0.0,1,1815.0,0
895,895,-0.1392385287626845,-0.1,0.0,1.0,487.0,665.0,0.0,1,1848.0,0
896,896,0.05352709876103745,0.1,1.0,1.0,278.0,958.0,0.0,0,1764.0,0
897,897,0.6658433414711856,0.7,1.0,1.0,472.0,998.0,0.0,0,1530.0,0
898,898,0.33173376216933204,0.3,0.0,0.0,411.0,863.0,0.0,1,-1264.0,1
899,899,-0.5333507256107031,-0.5,0.0,1.0,297.0,668.0,0.0,1,2035.0,0
900,900,0.4990697756598338,0.5,0.0,0.0,367.0,722.0,0.0,1,1911.0,1
901,901,0.19565792970835505,0.2,1.0,1.0,300.0,730.0,1.0,1,-1010.0,1
902,902,0.8910438231254442,0.9,0.0,0.0,444.0,922.0,0.0,1,1634.0,1
903,903,-0.2967886969669389,-0.3,1.0,0.0,345.0,651.0,0.0,0,2004.0,1
904,904,0.8187814051291636,0.8,0.0,0.0,453.0,930.0,0.0,1,1617.0,1
905,905,-0.5551484614776341,-0.6,1.0,0.0,283.0,919.0,0.0,0,1798.0,1
906,906,0.8245767038647925,0.8,1.0,1.0,477.0,727.0,0.0,0,1796.0,0
907,907,0.019447212013385395,0.0,1.0,1.0,262.0,673.0,1.0,1,-865.0,1
908,908,-0.8319925830913524,-0.8,0.0,1.0,465.0,732.0,0.0,1,1803.0,0
909,909,-0.5957744938351677,-0.6,1.0,0.0,379.0,556.0,1.0,1,-875.0,0
910,910,0.00998126368671326,0.0,1.0,1.0,313.0,632.0,0.0,0,2055.0,0
911,911,0.3141887878312858,0.3,1.0,1.0,263.0,545.0,1.0,1,-788.0,1
912,912,-0.2647764394158427,-0.3,0.0,1.0,267.0,887.0,0.0,1,1846.0,0
913,913,-0.34195151147412184,-0.3,1.0,0.0,436.0,581.0,0.0,0,-947.0,1
914,914,-0.7802503703545647,-0.8,1.0,0.0,283.0,616.0,0.0,0,2101.0,1
915,915,0.8894213141263291,0.9,0.0,0.0,276.0,641.0,0.0,1,2083.0,1
916,916,0.469773559068582,0.5,1.0,1.0,474.0,591.0,0.0,0,1935.0,0
917,917,-0.14747968748884854,-0.1,0.0,1.0,390.0,673.0,0.0,1,1937.0,0
918,918,0.7080281793295914,0.7,1.0,1.0,434.0,955.0,0.0,0,1611.0,0
919,919,-0.5148244741075476,-0.5,1.0,0.0,377.0,784.0,0.0,0,-1141.0,1
920,920,-0.24855340449077545,-0.2,0.0,1.0,483.0,795.0,1.0,0,-1238.0,1
921,921,-0.8305318281219468,-0.8,0.0,1.0,470.0,643.0,0.0,1,-1073.0,0
922,922,-0.5321779279701907,-0.5,0.0,1.0,374.0,528.0,0.0,1,-802.0,0
923,923,-0.08136015542632102,-0.1,1.0,0.0,379.0,618.0,0.0,0,2003.0,1
924,924,0.6257693685791254,0.6,1.0,1.0,360.0,925.0,0.0,0,1715.0,0
925,925,-0.10507417788988949,-0.1,0.0,1.0,482.0,753.0,0.0,1,1765.0,0
926,926,-0.3482075756062515,-0.3,1.0,0.0,366.0,955.0,0.0,0,1679.0,1
927,927,-0.5678371871671333,-0.6,0.0,1.0,251.0,883.0,0.0,1,1866.0,0
928,928,0.5333203363580982,0.5,0.0,0.0,429.0,719.0,0.0,1,1852.0,1
929,929,0.4798564095198202,0.5,1.0,1.0,470.0,832.0,0.0,0,1698.0,0
930,930,-0.7529950379668838,-0.8,1.0,0.0,455.0,517.0,0.0,0,2028.0,1
931,931,0.5839195029806873,0.6,1.0,1.0,457.0,733.0,0.0,0,1810.0,0
932,932,0.7549735956763687,0.8,1.0,1.0,405.0,988.0,0.0,0,1607.0,0
933,933,0.21337844706468256,0.2,0.0,0.0,343.0,944.0,0.0,1,1713.0,1
934,934,0.846138400249819,0.8,1.0,1.0,350.0,799.0,0.0,0,1851.0,0
935,935,0.7897042139129179,0.8,0.0,0.0,360.0,657.0,0.0,1,1983.0,1
936,936,0.05802590159284504,0.1,1.0,1.0,282.0,950.0,0.0,0,1768.0,0
937,937,-0.5976718405807879,-0.6,0.0,1.0,360.0,736.0,0.0,1,1904.0,0
938,938,-0.3376664155945497,-0.3,1.0,0.0,354.0,957.0,0.0,0,1689.0,1
939,939,0.2050648363548363,0.2,1.0,1.0,307.0,741.0,0.0,0,1952.0,0
940,940,0.7018762712455798,0.7,1.0,1.0,464.0,653.0,0.0,0,1883.0,0
941,941,-0.09269954430480665,-0.1,0.0,1.0,349.0,869.0,0.0,1,1782.0,0
942,942,0.7634384840216538,0.8,1.0,1.0,434.0,595.0,0.0,0,1971.0,0
943,943,-0.4267875364867317,-0.4,1.0,0.0,317.0,572.0,0.0,0,-829.0,1
944,944,-0.2944315969600029,-0.3,1.0,0.0,385.0,593.0,0.0,0,2022.0,1
945,945,0.37807040233586375,0.4,0.0,0.0,414.0,941.0,1.0,0,-1295.0,0
946,946,0.8716243415870403,0.9,1.0,1.0,357.0,955.0,0.0,0,1688.0,0
947,947,0.8105753733078093,0.8,1.0,1.0,350.0,665.0,0.0,0,1985.0,0
948,948,-0.5904361556620621,-0.6,1.0,0.0,346.0,620.0,0.0,0,2034.0,1
949,949,-0.5554374347570966,-0.6,0.0,1.0,365.0,574.0,0.0,1,2061.0,0
950,950,0.632058545284368,0.6,0.0,0.0,291.0,595.0,0.0,1,2114.0,1
951,951,0.8205651485743238,0.8,1.0,1.0,454.0,823.0,0.0,0,1723.0,0
952,952,0.19584290473237675,0.2,1.0,1.0,414.0,948.0,0.0,0,1638.0,0
953,953,-0.7521266649339162,-0.8,1.0,0.0,271.0,855.0,0.0,0,1874.0,1
954,954,0.06662891230748036,0.1,0.0,0.0,434.0,728.0,0.0,1,1838.0,1
955,955,0.8449582472865839,0.8,0.0,0.0,441.0,898.0,0.0,1,1661.0,1
956,956,-0.032129469563623614,-0.0,1.0,0.0,465.0,731.0,0.0,0,1804.0,1
957,957,0.7900826607530435,0.8,0.0,0.0,439.0,581.0,0.0,1,1980.0,1
958,958,-0.5020176220297645,-0.5,0.0,1.0,380.0,632.0,0.0,1,1988.0,0
959,959,-0.023571038193630378,-0.0,0.0,1.0,382.0,947.0,0.0,1,1671.0,0
960,960,0.8837344763367355,0.9,0.0,0.0,407.0,623.0,0.0,1,1970.0,1
961,961,-0.49784985353681516,-0.5,0.0,1.0,425.0,798.0,0.0,1,1777.0,0
962,962,-0.3877568597526092,-0.4,0.0,1.0,363.0,876.0,0.0,1,1761.0,0
963,963,-0.3265979436880584,-0.3,0.0,1.0,497.0,671.0,0.0,1,1832.0,0
964,964,0.6166573408915307,0.6,1.0,1.0,422.0,822.0,0.0,0,1756.0,0
965,965,0.19965421320053334,0.2,0.0,0.0,374.0,531.0,0.0,1,2095.0,1
966,966,-0.8794096580301408,-0.9,1.0,0.0,330.0,987.0,1.0,1,-1267.0,0
967,967,-0.7077765879803272,-0.7,1.0,0.0,453.0,997.0,0.0,0,1550.0,1
968,968,0.6036072108642038,0.6,1.0,1.0,350.0,595.0,0.0,0,2055.0,0
969,969,0.719595576472481,0.7,0.0,0.0,269.0,842.0,0.0,1,1889.0,1
970,970,-0.6832670747173705,-0.7,0.0,1.0,338.0,875.0,0.0,1,1787.0,0
971,971,0.8077610386006405,0.8,0.0,0.0,498.0,535.0,0.0,1,-1023.0,1
972,972,-0.08241658091693316,-0.1,0.0,1.0,484.0,582.0,0.0,1,-1056.0,0
973,973,-0.20347359558850553,-0.2,0.0,1.0,458.0,779.0,0.0,1,1763.0,0
974,974,-0.18261849839268363,-0.2,0.0,1.0,279.0,873.0,0.0,1,-1112.0,0
975,975,0.046179588137848615,0.0,1.0,1.0,313.0,645.0,0.0,0,2042.0,0
976,976,-0.008837395442427787,-0.0,1.0,0.0,488.0,875.0,0.0,0,1637.0,1
977,977,0.5423307418923787,0.5,0.0,0.0,489.0,533.0,0.0,1,1978.0,1
978,978,0.1988473455963885,0.2,0.0,0.0,319.0,767.0,0.0,1,-966.0,1
979,979,0.32459402338033627,0.3,0.0,0.0,441.0,861.0,0.0,1,1698.0,1
980,980,0.8098564720451896,0.8,1.0,1.0,475.0,544.0,0.0,0,1981.0,0
981,981,-0.20695363086261243,-0.2,0.0,1.0,408.0,841.0,0.0,1,1751.0,0
982,982,0.25768298998991457,0.3,0.0,0.0,297.0,926.0,0.0,1,1777.0,1
983,983,0.8500080508557842,0.9,1.0,1.0,311.0,595.0,0.0,0,2094.0,0
984,984,0.8468557011512735,0.8,1.0,1.0,259.0,644.0,0.0,0,2097.0,0
985,985,-0.3221145137231576,-0.3,0.0,1.0,397.0,710.0,0.0,1,1893.0,0
986,986,-0.42230736659573603,-0.4,1.0,0.0,305.0,835.0,0.0,0,1860.0,1
987,987,0.052530369010685196,0.1,0.0,0.0,379.0,991.0,0.0,1,1630.0,1
988,988,0.6106882334615485,0.6,1.0,1.0,338.0,531.0,0.0,0,2131.0,0
989,989,-0.17138748429222062,-0.2,0.0,1.0,279.0,991.0,0.0,1,1730.0,0
990,990,0.8840231929765677,0.9,1.0,1.0,331.0,978.0,0.0,0,1691.0,0
991,991,0.795851991535168,0.8,0.0,0.0,258.0,858.0,0.0,1,1884.0,1
992,992,0.1513602498158998,0.2,1.0,1.0,448.0,833.0,0.0,0,1719.0,0
993,993,0.5087984881297533,0.5,0.0,0.0,440.0,614.0,0.0,1,1946.0,1
994,994,-0.11987458063148404,-0.1,0.0,1.0,293.0,878.0,0.0,1,1829.0,0
995,995,0.4911386631059286,0.5,1.0,1.0,389.0,704.0,1.0,1,-903.0,1
996,996,-0.07251793313528687,-0.1,1.0,0.0,329.0,869.0,0.0,0,1802.0,1
997,997,0.15662974313381606,0.2,0.0,0.0,455.0,920.0,0.0,1,1625.0,1
998,998,0.2358097176374162,0.2,0.0,0.0,263.0,910.0,0.0,1,-1153.0,1
999,999,-0.1759412557017489,-0.2,0.0,1.0,395.0,677.0,0.0,1,1928.0,0
1000,1000,-0.11865801788712216,-0.1,0.0,1.0,462.0,662.0,0.0,1,1876.0,0
1001,1001,0.015707391070346133,0.0,0.0,0.0,291.0,732.0,0.0,1,1977.0,1
1002,1002,-0.44574215333358075,-0.4,0.0,1.0,345.0,818.0,0.0,1,-1033.0,0
1003,1003,0.00929593521011507,0.0,1.0,1.0,438.0,572.0,0.0,0,1990.0,0
1004,1004,-0.5195464632110103,-0.5,1.0,0.0,286.0,613.0,0.0,0,2101.0,1
1005,1005,0.6554882667736018,0.7,1.0,1.0,290.0,585.0,0.0,0,2125.0,0
1006,1006,-0.02998863597053847,-0.0,1.0,0.0,356.0,515.0,0.0,0,2129.0,1
1007,1007,-0.4215802829807565,-0.4,0.0,1.0,407.0,533.0,0.0,1,2060.0,0
1008,1008,0.325940303194011,0.3,0.0,0.0,302.0,585.0,1.0,0,-727.0,0
1009,1009,-0.06040867273522621,-0.1,1.0,0.0,408.0,750.0,0.0,0,1842.0,1
1010,1010,-0.458439338412722,-0.5,1.0,0.0,440.0,876.0,0.0,0,1684.0,1
1011,1011,-0.6827392788050121,-0.7,1.0,0.0,319.0,732.0,0.0,0,1949.0,1
1012,1012,0.5706079549044337,0.6,1.0,1.0,481.0,802.0,0.0,0,1717.0,0
1013,1013,0.8409755594378788,0.8,1.0,1.0,499.0,860.0,0.0,0,1641.0,0
1014,1014,-0.8377447012216623,-0.8,0.0,1.0,368.0,729.0,0.0,1,1903.0,0
1015,1015,-0.6652401104794676,-0.7,0.0,1.0,308.0,920.0,1.0,0,-1008.0,1
1016,1016,0.7639827155822064,0.8,0.0,0.0,272.0,544.0,1.0,0,-746.0,0
1017,1017,-0.8273987748207937,-0.8,0.0,1.0,444.0,508.0,0.0,1,2048.0,0
1018,1018,-0.013371737938312922,-0.0,1.0,0.0,293.0,544.0,0.0,0,2163.0,1
1019,1019,-0.7206614820906626,-0.7,0.0,1.0,495.0,565.0,0.0,1,-970.0,0
1020,1020,0.15072740870101786,0.2,0.0,0.0,282.0,919.0,0.0,1,1799.0,1
1021,1021,0.5351634238482964,0.5,1.0,1.0,388.0,819.0,0.0,0,1793.0,0
1022,1022,-0.08975125347088952,-0.1,0.0,1.0,425.0,810.0,0.0,1,1765.0,0
1023,1023,-0.3600429166537479,-0.4,1.0,0.0,382.0,735.0,0.0,0,1883.0,1
1024,1024,0.2284538708672409,0.2,0.0,0.0,394.0,915.0,0.0,1,1691.0,1
1025,1025,0.15954765492540168,0.2,0.0,0.0,459.0,703.0,0.0,1,1838.0,1
1026,1026,-0.20323773664179023,-0.2,0.0,1.0,464.0,819.0,0.0,1,1717.0,0
1027,1027,0.1072642766006574,0.1,1.0,1.0,407.0,581.0,0.0,0,2012.0,0
1028,1028,0.6604329652593844,0.7,1.0,1.0,303.0,988.0,0.0,0,1709.0,0
1029,1029,0.4260776667917058,0.4,0.0,0.0,302.0,692.0,0.0,1,2006.0,1
1030,1030,0.2551445451816684,0.3,1.0,1.0,367.0,982.0,0.0,0,1651.0,0
1031,1031,-0.08192260073158775,-0.1,1.0,0.0,426.0,834.0,0.0,0,1740.0,1
1032,1032,0.43458871528533016,0.4,0.0,0.0,250.0,965.0,0.0,1,1785.0,1
1033,1033,-0.24935039827611272,-0.2,0.0,1.0,422.0,536.0,0.0,1,2042.0,0
1034,1034,0.8567021515572483,0.9,0.0,0.0,368.0,724.0,0.0,1,1908.0,1
1035,1035,-0.03936926659750317,-0.0,1.0,0.0,358.0,693.0,0.0,0,1949.0,1
1036,1036,0.2238277968735024,0.2,0.0,0.0,396.0,972.0,0.0,1,1632.0,1
1037,1037,0.11621003966739385,0.1,1.0,1.0,312.0,795.0,0.0,0,-1077.0,0
1038,1038,-0.8649032186664017,-0.9,1.0,0.0,428.0,583.0,0.0,0,1989.0,1
1039,1039,0.2941296005848485,0.3,0.0,0.0,333.0,720.0,0.0,1,1947.0,1
1040,1040,-0.7996412207304902,-0.8,1.0,0.0,336.0,569.0,0.0,0,2095.0,1
1041,1041,-0.6627971637967178,-0.7,0.0,1.0,420.0,854.0,0.0,1,-1164.0,0
1042,1042,0.3458958359148868,0.3,0.0,0.0,344.0,790.0,0.0,1,-1124.0,1
1043,1043,-0.5765904139625436,-0.6,0.0,1.0,421.0,523.0,0.0,1,2056.0,0
1044,1044,-0.21323513124751892,-0.2,1.0,0.0,290.0,959.0,0.0,0,1751.0,1
1045,1045,0.5641444611754439,0.6,1.0,1.0,423.0,885.0,0.0,0,1692.0,0
1046,1046,0.538402730310176,0.5,0.0,0.0,283.0,608.0,0.0,1,2109.0,1
1047,1047,-0.595148919072745,-0.6,0.0,1.0,321.0,704.0,0.0,1,-965.0,0
1048,1048,0.21586230077030033,0.2,0.0,0.0,372.0,936.0,0.0,1,1692.0,1
1049,1049,-0.3575829141701391,-0.4,0.0,1.0,428.0,880.0,0.0,1,1692.0,0
1050,1050,-0.2699155216647673,-0.3,0.0,1.0,326.0,941.0,0.0,1,1733.0,0
1051,1051,-0.6486352284669596,-0.6,1.0,0.0,496.0,773.0,0.0,0,1731.0,1
1052,1052,0.22470487845540987,0.2,0.0,0.0,264.0,901.0,0.0,1,1835.0,1
1053,1053,0.6120625858872718,0.6,1.0,1.0,386.0,790.0,0.0,0,1824.0,0
1054,1054,-0.7562973432620896,-0.8,0.0,1.0,425.0,886.0,0.0,1,1689.0,0
1055,1055,-0.6290408392294007,-0.6,1.0,0.0,374.0,657.0,1.0,1,-1031.0,0
1056,1056,-0.6299373108689066,-0.6,1.0,0.0,496.0,663.0,0.0,0,-1099.0,1
1057,1057,-0.8655964572023208,-0.9,1.0,0.0,495.0,666.0,1.0,1,-1121.0,0
1058,1058,0.08667703246933212,0.1,0.0,0.0,362.0,776.0,0.0,1,1862.0,1
1059,1059,0.8659734083490093,0.9,1.0,1.0,432.0,565.0,0.0,0,2003.0,0
1060,1060,-0.007741955650951371,-0.0,1.0,0.0,435.0,993.0,0.0,0,-1388.0,1
1061,1061,-0.19906733540843657,-0.2,1.0,0.0,255.0,638.0,0.0,0,2107.0,1
1062,1062,-0.7636671191383655,-0.8,1.0,0.0,453.0,682.0,0.0,0,1865.0,1
1063,1063,-0.11327020166730606,-0.1,1.0,0.0,271.0,977.0,0.0,0,1752.0,1
1064,1064,0.12522231316195953,0.1,0.0,0.0,368.0,685.0,0.0,1,1947.0,1
1065,1065,-0.5077289030343843,-0.5,0.0,1.0,275.0,866.0,0.0,1,1859.0,0
1066,1066,-0.4599752935414246,-0.5,1.0,0.0,435.0,653.0,0.0,0,1912.0,1
1067,1067,-0.4650846862684614,-0.5,1.0,0.0,261.0,950.0,0.0,0,1789.0,1
1068,1068,-0.4042540376075947,-0.4,0.0,1.0,334.0,980.0,0.0,1,-1254.0,0
1069,1069,-0.2238730682532455,-0.2,1.0,0.0,277.0,826.0,0.0,0,1897.0,1
1070,1070,0.21737070155057892,0.2,1.0,1.0,403.0,757.0,1.0,1,-1150.0,1
1071,1071,-0.07692212588815761,-0.1,1.0,0.0,384.0,743.0,0.0,0,1873.0,1
1072,1072,0.18072559473549787,0.2,0.0,0.0,360.0,554.0,0.0,1,2086.0,1
1073,1073,0.6584475773192201,0.7,1.0,1.0,394.0,727.0,0.0,0,-1041.0,0
1074,1074,-0.18837915177896092,-0.2,0.0,1.0,323.0,655.0,0.0,1,2022.0,0
1075,1075,-0.7502472363177106,-0.8,0.0,1.0,409.0,843.0,0.0,1,1748.0,0
1076,1076,-0.4521744680988078,-0.5,1.0,0.0,308.0,742.0,0.0,0,1950.0,1
1077,1077,-0.8631208991554388,-0.9,0.0,1.0,441.0,690.0,0.0,1,1869.0,0
1078,1078,-0.6164317142619768,-0.6,1.0,0.0,417.0,825.0,0.0,0,1758.0,1
1079,1079,0.6660273571436032,0.7,0.0,0.0,398.0,643.0,0.0,1,1959.0,1
1080,1080,-0.71960305827187,-0.7,1.0,0.0,477.0,764.0,0.0,0,1759.0,1
1081,1081,-0.20023623173522864,-0.2,0.0,1.0,416.0,627.0,0.0,1,1957.0,0
1082,1082,0.28798011888665387,0.3,0.0,0.0,302.0,720.0,0.0,1,-972.0,1
1083,1083,0.4338628125770799,0.4,1.0,1.0,380.0,502.0,0.0,0,2118.0,0
1084,1084,0.7310729595994455,0.7,1.0,1.0,285.0,746.0,0.0,0,1969.0,0
1085,1085,-0.39356900377517956,-0.4,1.0,0.0,283.0,749.0,0.0,0,-1022.0,1
1086,1086,0.01442920079224963,0.0,0.0,0.0,373.0,908.0,0.0,1,-1261.0,1
1087,1087,0.4649085481490368,0.5,0.0,0.0,483.0,528.0,1.0,0,-961.0,0
1088,1088,0.14397804926690838,0.1,1.0,1.0,297.0,778.0,0.0,0,1925.0,0
1089,1089,0.0605897202445429,0.1,0.0,0.0,437.0,501.0,0.0,1,2062.0,1
1090,1090,-0.34005178596962216,-0.3,0.0,1.0,471.0,906.0,0.0,1,1623.0,0
1091,1091,0.3778674476539089,0.4,1.0,1.0,464.0,919.0,0.0,0,1617.0,0
1092,1092,0.7489647447970199,0.7,0.0,0.0,252.0,550.0,0.0,1,2198.0,1
1093,1093,0.4724602509824386,0.5,1.0,1.0,326.0,869.0,0.0,0,1805.0,0
1094,1094,-0.5666415741887574,-0.6,0.0,1.0,454.0,728.0,0.0,1,1818.0,0
1095,1095,-0.3723355508401315,-0.4,1.0,0.0,395.0,553.0,0.0,0,2052.0,1
1096,1096,0.04002352201405435,0.0,1.0,1.0,442.0,612.0,0.0,0,1946.0,0
1097,1097,-0.027648204128575493,-0.0,1.0,0.0,349.0,939.0,0.0,0,1712.0,1
1098,1098,-0.3663997026503619,-0.4,0.0,1.0,367.0,835.0,0.0,1,1798.0,0
1099,1099,0.08319899617007631,0.1,0.0,0.0,408.0,823.0,0.0,1,1769.0,1
1100,1100,-0.7025945798734796,-0.7,1.0,0.0,285.0,782.0,0.0,0,1933.0,1
1101,1101,0.7479754627512033,0.7,0.0,0.0,328.0,995.0,0.0,1,1677.0,1
1102,1102,-0.8738098441283012,-0.9,1.0,0.0,340.0,715.0,0.0,0,1945.0,1
1103,1103,0.0021414163503535866,0.0,0.0,0.0,369.0,832.0,0.0,1,1799.0,1
1104,1104,0.7209708030530971,0.7,1.0,1.0,470.0,687.0,0.0,0,1843.0,0
1105,1105,0.015453252401891326,0.0,1.0,1.0,327.0,589.0,0.0,0,2084.0,0
1106,1106,-0.08106971033176835,-0.1,0.0,1.0,427.0,782.0,0.0,1,1791.0,0
1107,1107,-0.43877178604064837,-0.4,1.0,0.0,468.0,830.0,0.0,0,1702.0,1
1108,1108,0.6100245154881946,0.6,0.0,0.0,424.0,915.0,0.0,1,1661.0,1
1109,1109,0.14832872170042977,0.1,1.0,1.0,394.0,912.0,0.0,0,-1266.0,0
1110,1110,-0.2939504177478186,-0.3,0.0,1.0,254.0,912.0,0.0,1,1834.0,0
1111,1111,0.5528113080789615,0.6,1.0,1.0,369.0,524.0,0.0,0,2107.0,0
1112,1112,-0.7884121209563247,-0.8,0.0,1.0,476.0,715.0,0.0,1,1809.0,0
1113,1113,0.1499615191015008,0.1,0.0,0.0,388.0,603.0,0.0,1,2009.0,1
1114,1114,0.6682522273767922,0.7,1.0,1.0,272.0,534.0,0.0,0,2194.0,0
1115,1115,0.60188639543736,0.6,1.0,1.0,365.0,922.0,0.0,0,1713.0,0
1116,1116,0.04410198938773313,0.0,0.0,0.0,408.0,933.0,0.0,1,1659.0,1
1117,1117,-0.2982137709674557,-0.3,0.0,1.0,253.0,902.0,0.0,1,1845.0,0
1118,1118,-0.573763043882149,-0.6,1.0,0.0,466.0,748.0,0.0,0,1786.0,1
1119,1119,-0.24083496309998598,-0.2,1.0,0.0,374.0,511.0,0.0,0,2115.0,1
1120,1120,0.5283619396044587,0.5,1.0,1.0,355.0,528.0,0.0,0,2117.0,0
1121,1121,0.8919601475311275,0.9,1.0,1.0,402.0,988.0,0.0,0,1610.0,0
1122,1122,-0.5624169695645707,-0.6,1.0,0.0,305.0,950.0,0.0,0,1745.0,1
1123,1123,-0.17690286071657224,-0.2,1.0,0.0,397.0,976.0,0.0,0,1627.0,1
1124,1124,-0.4568956645545668,-0.5,0.0,1.0,399.0,541.0,0.0,1,2060.0,0
1125,1125,0.09292974394928666,0.1,0.0,0.0,397.0,846.0,0.0,1,1757.0,1
1126,1126,-0.29598599494601374,-0.3,1.0,0.0,436.0,592.0,0.0,0,1972.0,1
1127,1127,-0.1474717282637924,-0.1,1.0,0.0,425.0,608.0,0.0,0,1967.0,1
1128,1128,0.2459498706203872,0.2,0.0,0.0,353.0,836.0,0.0,1,1811.0,1
1129,1129,0.3389905962015255,0.3,0.0,0.0,326.0,868.0,0.0,1,1806.0,1
1130,1130,0.3970989580691765,0.4,0.0,0.0,343.0,863.0,0.0,1,1794.0,1
1131,1131,0.7481363479267683,0.7,0.0,0.0,425.0,846.0,0.0,1,1729.0,1
1132,1132,-0.29366713741037453,-0.3,1.0,0.0,383.0,674.0,0.0,0,1943.0,1
1133,1133,0.4578408964875621,0.5,1.0,1.0,464.0,588.0,0.0,0,1948.0,0
1134,1134,-0.6853760742046451,-0.7,1.0,0.0,289.0,641.0,0.0,0,2070.0,1
1135,1135,-0.2891697604804093,-0.3,0.0,1.0,465.0,770.0,0.0,1,1765.0,0
1136,1136,0.16072474708066242,0.2,0.0,0.0,476.0,587.0,0.0,1,1937.0,1
1137,1137,-0.21797837194121383,-0.2,0.0,1.0,250.0,647.0,0.0,1,2103.0,0
1138,1138,0.6043809729277471,0.6,0.0,0.0,294.0,556.0,0.0,1,2150.0,1
1139,1139,-0.772833498263036,-0.8,0.0,1.0,473.0,838.0,0.0,1,1689.0,0
1140,1140,0.28499098840059645,0.3,0.0,0.0,301.0,581.0,0.0,1,2118.0,1
1141,1141,0.2978531460308186,0.3,0.0,0.0,368.0,727.0,0.0,1,-1015.0,1
1142,1142,0.33050446234237774,0.3,1.0,1.0,464.0,609.0,1.0,1,-1063.0,1
1143,1143,-0.28248558225832066,-0.3,0.0,1.0,472.0,993.0,0.0,1,1535.0,0
1144,1144,0.7562093863626173,0.8,0.0,0.0,390.0,743.0,0.0,1,1867.0,1
1145,1145,0.009112871990416216,0.0,1.0,1.0,429.0,662.0,0.0,0,1909.0,0
1146,1146,-0.8214921487106667,-0.8,1.0,0.0,353.0,889.0,0.0,0,1758.0,1
1147,1147,-0.35391944022775235,-0.4,0.0,1.0,265.0,530.0,0.0,1,2205.0,0
1148,1148,0.33835404148110426,0.3,0.0,0.0,285.0,594.0,0.0,1,2121.0,1
1149,1149,-0.2495477551935027,-0.2,0.0,1.0,381.0,922.0,0.0,1,1697.0,0
1150,1150,0.4941936999784088,0.5,1.0,1.0,444.0,563.0,0.0,0,1993.0,0
1151,1151,-0.6040308418858975,-0.6,1.0,0.0,469.0,858.0,0.0,0,1673.0,1
1152,1152,-0.8553746806711109,-0.9,0.0,1.0,479.0,692.0,0.0,1,1829.0,0
1153,1153,0.2988139233133714,0.3,0.0,0.0,366.0,960.0,0.0,1,1674.0,1
1154,1154,-0.043182485871552934,-0.0,1.0,0.0,269.0,949.0,0.0,0,1782.0,1
1155,1155,0.1787549570675765,0.2,1.0,1.0,449.0,542.0,0.0,0,2009.0,0
1156,1156,-0.03505617377837278,-0.0,0.0,1.0,250.0,711.0,0.0,1,2039.0,0
1157,1157,0.5839140460432143,0.6,1.0,1.0,484.0,670.0,0.0,0,1846.0,0
1158,1158,0.7201881031653016,0.7,1.0,1.0,288.0,991.0,0.0,0,1721.0,0
1159,1159,0.8795599223828189,0.9,1.0,1.0,386.0,557.0,0.0,0,2057.0,0
1160,1160,-0.1584131547740446,-0.2,0.0,1.0,403.0,578.0,0.0,1,2019.0,0
1161,1161,-0.8662333036170335,-0.9,1.0,0.0,299.0,832.0,0.0,0,1869.0,1
1162,1162,-0.49819514064583637,-0.5,1.0,0.0,298.0,926.0,0.0,0,-1214.0,1
1163,1163,0.7090634044636653,0.7,1.0,1.0,296.0,954.0,0.0,0,1750.0,0
1164,1164,0.19147150921378142,0.2,1.0,1.0,250.0,973.0,0.0,0,1777.0,0
1165,1165,-0.5638701708270705,-0.6,1.0,0.0,436.0,761.0,0.0,0,1803.0,1
1166,1166,-0.6058991087930032,-0.6,0.0,1.0,327.0,525.0,0.0,1,2148.0,0
1167,1167,-0.30674746724615776,-0.3,1.0,0.0,410.0,765.0,0.0,0,1825.0,1
1168,1168,0.8413454426108212,0.8,0.0,0.0,287.0,847.0,0.0,1,1866.0,1
1169,1169,0.556986093959715,0.6,0.0,0.0,254.0,506.0,0.0,1,2240.0,1
1170,1170,0.8866834579482713,0.9,0.0,0.0,322.0,785.0,0.0,1,1893.0,1
1171,1171,-0.8706346547213368,-0.9,1.0,0.0,353.0,917.0,0.0,0,1730.0,1
1172,1172,0.5776781689704097,0.6,0.0,0.0,251.0,592.0,0.0,1,2157.0,1
1173,1173,-0.16522046869263118,-0.2,0.0,1.0,318.0,979.0,0.0,1,1703.0,0
1174,1174,0.8338846967434689,0.8,0.0,0.0,282.0,524.0,0.0,1,2194.0,1
1175,1175,0.03774272019709157,0.0,0.0,0.0,334.0,990.0,0.0,1,1676.0,1
1176,1176,-0.6279019708958187,-0.6,1.0,0.0,391.0,517.0,0.0,0,-868.0,1
1177,1177,0.4454259548038747,0.4,0.0,0.0,288.0,895.0,0.0,1,1817.0,1
1178,1178,0.4156462008329832,0.4,1.0,1.0,407.0,832.0,0.0,0,1761.0,0
1179,1179,0.7959941909511713,0.8,0.0,0.0,490.0,762.0,0.0,1,1748.0,1
1180,1180,0.6686131663370364,0.7,0.0,0.0,319.0,657.0,0.0,1,2024.0,1
1181,1181,-0.7944859510657074,-0.8,1.0,0.0,363.0,709.0,0.0,0,1928.0,1
1182,1182,-0.3407846643725281,-0.3,1.0,0.0,408.0,769.0,0.0,0,-1177.0,1
1183,1183,-0.525436265351475,-0.5,0.0,1.0,285.0,572.0,0.0,1,2143.0,0
1184,1184,0.8416926483166672,0.8,0.0,0.0,460.0,647.0,0.0,1,1893.0,1
1185,1185,-0.45988172066630423,-0.5,1.0,0.0,482.0,541.0,0.0,0,1977.0,1
1186,1186,0.6305719650084157,0.6,0.0,0.0,372.0,820.0,0.0,1,1808.0,1
1187,1187,0.49292735392881604,0.5,1.0,1.0,311.0,640.0,0.0,0,2049.0,0
1188,1188,0.12238566961112307,0.1,0.0,0.0,267.0,631.0,1.0,0,-868.0,0
1189,1189,-0.6319103522932394,-0.6,1.0,0.0,412.0,646.0,0.0,0,1942.0,1
1190,1190,-0.8411849337612085,-0.8,0.0,1.0,412.0,798.0,0.0,1,1790.0,0
1191,1191,0.48248033358877185,0.5,1.0,1.0,407.0,978.0,0.0,0,1615.0,0
1192,1192,-0.6438902895741117,-0.6,1.0,0.0,351.0,958.0,0.0,0,1691.0,1
1193,1193,0.39252445814805326,0.4,0.0,0.0,392.0,781.0,0.0,1,1827.0,1
1194,1194,-0.5037705740806318,-0.5,0.0,1.0,435.0,838.0,0.0,1,1727.0,0
1195,1195,0.5108922015242886,0.5,1.0,1.0,267.0,659.0,0.0,0,2074.0,0
1196,1196,-0.641180829580715,-0.6,1.0,0.0,264.0,702.0,0.0,0,2034.0,1
1197,1197,0.1833798693876859,0.2,0.0,0.0,314.0,579.0,0.0,1,2107.0,1
1198,1198,-0.18319805284078905,-0.2,0.0,1.0,490.0,797.0,0.0,1,1713.0,0
1199,1199,-0.49236817902428437,-0.5,0.0,1.0,378.0,607.0,0.0,1,2015.0,0
1200,1200,-0.270244485528803,-0.3,0.0,1.0,401.0,670.0,1.0,0,-1071.0,1
1201,1201,-0.160177787957844,-0.2,0.0,1.0,364.0,648.0,0.0,1,1988.0,0
1202,1202,0.20882355848733358,0.2,0.0,0.0,264.0,832.0,0.0,1,1904.0,1
1203,1203,0.04623902535493851,0.0,0.0,0.0,381.0,691.0,0.0,1,1928.0,1
1204,1204,-0.0831066844860997,-0.1,0.0,1.0,381.0,666.0,0.0,1,1953.0,0
1205,1205,0.06507059904480417,0.1,0.0,0.0,425.0,549.0,0.0,1,2026.0,1
1206,1206,-0.19627946241634076,-0.2,0.0,1.0,259.0,665.0,0.0,1,2076.0,0
1207,1207,0.021528835680447167,0.0,0.0,0.0,427.0,728.0,1.0,0,-1145.0,0
1208,1208,-0.8413566680047114,-0.8,0.0,1.0,480.0,988.0,0.0,1,1532.0,0
1209,1209,-0.7008891791410208,-0.7,0.0,1.0,252.0,783.0,0.0,1,1965.0,0
1210,1210,0.194648217722308,0.2,1.0,1.0,354.0,522.0,0.0,0,2124.0,0
1211,1211,0.5559846926947419,0.6,0.0,0.0,350.0,736.0,0.0,1,1914.0,1
1212,1212,0.5603581350965904,0.6,1.0,1.0,409.0,550.0,0.0,0,2041.0,0
1213,1213,0.764240415069907,0.8,0.0,0.0,431.0,593.0,0.0,1,1976.0,1
1214,1214,-0.2335832567719951,-0.2,1.0,0.0,419.0,747.0,0.0,0,-1166.0,1
1215,1215,0.7438189248104689,0.7,0.0,0.0,341.0,592.0,0.0,1,2067.0,1
1216,1216,-0.223146254295152,-0.2,0.0,1.0,498.0,675.0,0.0,1,1827.0,0
1217,1217,0.7252346264784334,0.7,1.0,1.0,280.0,516.0,0.0,0,2204.0,0
1218,1218,-0.8427389804206362,-0.8,1.0,0.0,474.0,866.0,0.0,0,1660.0,1
1219,1219,0.19222440866500523,0.2,0.0,0.0,460.0,593.0,0.0,1,1947.0,1
1220,1220,0.5299646731050439,0.5,0.0,0.0,348.0,615.0,0.0,1,2037.0,1
1221,1221,0.21399631783699113,0.2,1.0,1.0,290.0,543.0,0.0,0,2167.0,0
1222,1222,-0.12291693179714636,-0.1,0.0,1.0,398.0,892.0,0.0,1,1710.0,0
1223,1223,-0.17918613079953982,-0.2,0.0,1.0,273.0,637.0,0.0,1,2090.0,0
1224,1224,0.07052064618550269,0.1,0.0,0.0,411.0,996.0,0.0,1,1593.0,1
1225,1225,-0.6840622819895319,-0.7,0.0,1.0,382.0,582.0,0.0,1,2036.0,0
1226,1226,-0.8966674949454839,-0.9,1.0,0.0,386.0,963.0,0.0,0,1651.0,1
1227,1227,0.7108878846030454,0.7,0.0,0.0,427.0,642.0,0.0,1,1931.0,1
1228,1228,0.2548179054012242,0.3,1.0,1.0,290.0,749.0,0.0,0,1961.0,0
1229,1229,0.701070706583571,0.7,1.0,1.0,331.0,813.0,0.0,0,1856.0,0
1230,1230,-0.23646058889242716,-0.2,1.0,0.0,310.0,940.0,0.0,0,1750.0,1
1231,1231,0.06202756413837929,0.1,0.0,0.0,437.0,673.0,0.0,1,1890.0,1
1232,1232,-0.15476941924734533,-0.2,1.0,0.0,496.0,748.0,0.0,0,1756.0,1
1233,1233,0.6237412515987298,0.6,0.0,0.0,361.0,608.0,0.0,1,2031.0,1
1234,1234,0.18422370086227946,0.2,0.0,0.0,283.0,686.0,0.0,1,2031.0,1
1235,1235,0.28137523683441945,0.3,1.0,1.0,379.0,818.0,0.0,0,1803.0,0
1236,1236,0.18375318561114728,0.2,0.0,0.0,390.0,851.0,0.0,1,1759.0,1
1237,1237,0.097987974738179,0.1,0.0,0.0,304.0,966.0,0.0,1,1730.0,1
1238,1238,-0.4212125608252863,-0.4,1.0,0.0,401.0,610.0,0.0,0,1989.0,1
1239,1239,-0.18515802696736794,-0.2,0.0,1.0,262.0,503.0,0.0,1,2235.0,0
1240,1240,-0.8535291858878942,-0.9,1.0,0.0,383.0,570.0,0.0,0,2047.0,1
1241,1241,-0.5732714315723717,-0.6,1.0,0.0,298.0,551.0,0.0,0,2151.0,1
1242,1242,-0.2206439182738552,-0.2,1.0,0.0,254.0,811.0,1.0,1,-1045.0,0
1243,1243,-0.18298129000654573,-0.2,1.0,0.0,379.0,898.0,0.0,0,1723.0,1
1244,1244,0.3789755328449448,0.4,0.0,0.0,470.0,547.0,0.0,1,1983.0,1
1245,1245,0.557971624008147,0.6,1.0,1.0,345.0,859.0,0.0,0,1796.0,0
1246,1246,0.46652094701679536,0.5,1.0,1.0,492.0,565.0,0.0,0,1943.0,0
1247,1247,-0.7083003590281965,-0.7,0.0,1.0,455.0,809.0,0.0,1,1736.0,0
1248,1248,0.6248583284897867,0.6,1.0,1.0,470.0,539.0,0.0,0,1991.0,0
1249,1249,-0.21117085860982932,-0.2,1.0,0.0,291.0,881.0,0.0,0,1828.0,1
1250,1250,-0.4800690831268945,-0.5,0.0,1.0,320.0,912.0,0.0,1,1768.0,0
1251,1251,0.1006708380875262,0.1,1.0,1.0,493.0,977.0,1.0,1,-1400.0,1
1252,1252,0.5712441210803333,0.6,0.0,0.0,372.0,719.0,0.0,1,1909.0,1
1253,1253,-0.27143671905812494,-0.3,0.0,1.0,316.0,719.0,0.0,1,1965.0,0
1254,1254,0.37339288349294597,0.4,0.0,0.0,494.0,883.0,0.0,1,1623.0,1
1255,1255,0.16379860656314016,0.2,1.0,1.0,272.0,582.0,0.0,0,2146.0,0
1256,1256,-0.2532646630296653,-0.3,0.0,1.0,311.0,960.0,0.0,1,-1201.0,0
1257,1257,-0.43196234386433235,-0.4,0.0,1.0,345.0,820.0,0.0,1,1835.0,0
1258,1258,-0.23651942332678377,-0.2,1.0,0.0,262.0,733.0,0.0,0,2005.0,1
1259,1259,0.4098040977757854,0.4,0.0,0.0,320.0,840.0,0.0,1,1840.0,1
1260,1260,0.2798233033688292,0.3,1.0,1.0,300.0,837.0,0.0,0,1863.0,0
1261,1261,0.017956440541849528,0.0,1.0,1.0,285.0,802.0,0.0,0,1913.0,0
1262,1262,0.6066789735594006,0.6,0.0,0.0,427.0,933.0,1.0,0,-1310.0,0
1263,1263,0.5799119835187395,0.6,1.0,1.0,300.0,916.0,0.0,0,1784.0,0
1264,1264,-0.7896620337489708,-0.8,0.0,1.0,277.0,804.0,0.0,1,1919.0,0
1265,1265,0.3831570076186822,0.4,1.0,1.0,356.0,907.0,0.0,0,1737.0,0
1266,1266,-0.8521590167341351,-0.9,1.0,0.0,344.0,879.0,0.0,0,1777.0,1
1267,1267,-0.08765120863808584,-0.1,0.0,1.0,366.0,504.0,0.0,1,2130.0,0
1268,1268,0.17730843469067692,0.2,1.0,1.0,381.0,673.0,0.0,0,1946.0,0
1269,1269,-0.5370785844245733,-0.5,1.0,0.0,441.0,670.0,0.0,0,1889.0,1
1270,1270,-0.7033861843141846,-0.7,0.0,1.0,406.0,758.0,0.0,1,1836.0,0
1271,1271,0.8167528652562085,0.8,0.0,0.0,403.0,702.0,1.0,0,-1015.0,0
1272,1272,0.24896287354202717,0.2,1.0,1.0,318.0,685.0,0.0,0,1997.0,0
1273,1273,0.18355148928771958,0.2,0.0,0.0,452.0,572.0,0.0,1,1976.0,1
1274,1274,0.3975278001935042,0.4,0.0,0.0,408.0,517.0,0.0,1,2075.0,1
1275,1275,0.49514655748190395,0.5,1.0,1.0,375.0,534.0,0.0,0,2091.0,0
1276,1276,-0.8030495530318579,-0.8,1.0,0.0,433.0,855.0,0.0,0,1712.0,1
1277,1277,0.20766488634665292,0.2,0.0,0.0,374.0,719.0,0.0,1,1907.0,1
1278,1278,0.7375875310948109,0.7,0.0,0.0,325.0,677.0,0.0,1,1998.0,1
1279,1279,0.253115654914868,0.3,0.0,0.0,429.0,806.0,0.0,1,1765.0,1
1280,1280,-0.18614172078118352,-0.2,1.0,0.0,409.0,846.0,0.0,0,1745.0,1
1281,1281,-0.7931389620812417,-0.8,1.0,0.0,308.0,505.0,0.0,0,2187.0,1
1282,1282,0.7243545224609945,0.7,0.0,0.0,264.0,620.0,0.0,1,2116.0,1
1283,1283,0.19589688044170128,0.2,0.0,0.0,404.0,750.0,0.0,1,1846.0,1
1284,1284,0.3142632425607407,0.3,0.0,0.0,377.0,665.0,0.0,1,1958.0,1
1285,1285,-0.3298657602777979,-0.3,0.0,1.0,378.0,584.0,0.0,1,2038.0,0
1286,1286,0.6038052112698665,0.6,1.0,1.0,412.0,704.0,0.0,0,1884.0,0
1287,1287,0.5196032516667001,0.5,1.0,1.0,353.0,966.0,0.0,0,1681.0,0
1288,1288,-0.8068947474606146,-0.8,1.0,0.0,280.0,917.0,0.0,0,1803.0,1
1289,1289,-0.6757090986027104,-0.7,1.0,0.0,280.0,582.0,0.0,0,2138.0,1
1290,1290,-0.8832857099218777,-0.9,1.0,0.0,331.0,980.0,0.0,0,1689.0,1
1291,1291,-0.8570602358047277,-0.9,1.0,0.0,272.0,759.0,0.0,0,1969.0,1
1292,1292,-0.604889514385407,-0.6,1.0,0.0,274.0,742.0,0.0,0,1984.0,1
1293,1293,0.8730656133381326,0.9,1.0,1.0,444.0,646.0,0.0,0,1910.0,0
1294,1294,-0.807453411687204,-0.8,1.0,0.0,446.0,821.0,0.0,0,-1247.0,1
1295,1295,-0.3945431547805851,-0.4,0.0,1.0,309.0,661.0,0.0,1,2030.0,0
1296,1296,0.5022279817755088,0.5,0.0,0.0,269.0,740.0,0.0,1,1991.0,1
1297,1297,-0.747334025526767,-0.7,0.0,1.0,453.0,631.0,0.0,1,1916.0,0
1298,1298,0.24810609444090004,0.2,0.0,0.0,433.0,871.0,0.0,1,1696.0,1
1299,1299,0.385622914285327,0.4,0.0,0.0,252.0,695.0,0.0,1,2053.0,1
1300,1300,0.5359039297169738,0.5,1.0,1.0,325.0,755.0,0.0,0,1920.0,0
1301,1301,0.03288015705367964,0.0,0.0,0.0,423.0,839.0,0.0,1,1738.0,1
1302,1302,0.5636003390276222,0.6,1.0,1.0,287.0,538.0,0.0,0,-765.0,0
1303,1303,-0.7683505037186898,-0.8,0.0,1.0,292.0,866.0,0.0,1,1842.0,0
1304,1304,0.24691467459761018,0.2,1.0,1.0,321.0,899.0,0.0,0,1780.0,0
1305,1305,0.04318571418252026,0.0,0.0,0.0,273.0,571.0,0.0,1,-814.0,1
1306,1306,0.21302694156582025,0.2,0.0,0.0,379.0,635.0,0.0,1,1986.0,1
1307,1307,-0.35992778720951424,-0.4,0.0,1.0,375.0,658.0,0.0,1,1967.0,0
1308,1308,0.7852260889336714,0.8,1.0,1.0,401.0,571.0,0.0,0,-972.0,0
1309,1309,-0.5398759728952363,-0.5,0.0,1.0,379.0,863.0,0.0,1,1758.0,0
1310,1310,-0.6008532728795928,-0.6,1.0,0.0,344.0,677.0,0.0,0,1979.0,1
1311,1311,0.2053057438099436,0.2,0.0,0.0,375.0,979.0,0.0,1,1646.0,1
1312,1312,0.5582892089764974,0.6,1.0,1.0,396.0,936.0,1.0,1,-1292.0,1
1313,1313,0.6787862052402357,0.7,0.0,0.0,425.0,945.0,0.0,1,1630.0,1
1314,1314,0.7441579067384608,0.7,1.0,1.0,375.0,618.0,0.0,0,-943.0,0
1315,1315,-0.7931039009093477,-0.8,0.0,1.0,485.0,906.0,1.0,0,-1391.0,1
1316,1316,0.525491195714198,0.5,0.0,0.0,455.0,583.0,0.0,1,1962.0,1
1317,1317,0.41175956823906634,0.4,0.0,0.0,336.0,538.0,0.0,1,2126.0,1
1318,1318,0.4284370648625556,0.4,0.0,0.0,378.0,888.0,0.0,1,1734.0,1
1319,1319,-0.7611966522680198,-0.8,0.0,1.0,369.0,755.0,0.0,1,1876.0,0
1320,1320,-0.541874662716398,-0.5,0.0,1.0,345.0,841.0,0.0,1,1814.0,0
1321,1321,-0.11763897467248885,-0.1,0.0,1.0,377.0,847.0,0.0,1,1776.0,0
1322,1322,0.45675125982968157,0.5,1.0,1.0,396.0,920.0,0.0,0,1684.0,0
1323,1323,0.21535981961642892,0.2,0.0,0.0,498.0,920.0,0.0,1,1582.0,1
1324,1324,0.0785295582783756,0.1,1.0,1.0,281.0,669.0,0.0,0,2050.0,0
1325,1325,-0.37083939296795077,-0.4,0.0,1.0,409.0,501.0,0.0,1,2090.0,0
1326,1326,0.4367905271555673,0.4,1.0,1.0,304.0,525.0,0.0,0,2171.0,0
1327,1327,0.5063427408928977,0.5,1.0,1.0,386.0,965.0,0.0,0,1649.0,0
1328,1328,-0.4989267224711735,-0.5,0.0,1.0,332.0,803.0,0.0,1,1865.0,0
1329,1329,-0.284772294954587,-0.3,1.0,0.0,441.0,840.0,0.0,0,1719.0,1
1330,1330,0.17824501443567453,0.2,0.0,0.0,447.0,733.0,0.0,1,-1120.0,1
1331,1331,0.01749732617860522,0.0,0.0,0.0,466.0,986.0,0.0,1,1548.0,1
1332,1332,-0.44725533984960425,-0.4,1.0,0.0,483.0,729.0,0.0,0,1788.0,1
1333,1333,-0.08672285803516666,-0.1,1.0,0.0,471.0,505.0,1.0,1,-826.0,0
1334,1334,0.2763537868337044,0.3,1.0,1.0,420.0,738.0,0.0,0,-1148.0,0
1335,1335,0.27773044061953744,0.3,0.0,0.0,363.0,917.0,0.0,1,1720.0,1
1336,1336,-0.032241361391406986,-0.0,1.0,0.0,476.0,905.0,0.0,0,1619.0,1
1337,1337,0.2571550985316028,0.3,1.0,1.0,317.0,885.0,0.0,0,1798.0,0
1338,1338,-0.6518713155451622,-0.7,0.0,1.0,492.0,533.0,0.0,1,1975.0,0
1339,1339,-0.38576512545030694,-0.4,1.0,0.0,458.0,751.0,0.0,0,1791.0,1
1340,1340,0.7984344696612583,0.8,0.0,0.0,401.0,843.0,0.0,1,1756.0,1
1341,1341,0.28512477776409717,0.3,0.0,0.0,358.0,629.0,0.0,1,2013.0,1
1342,1342,0.27797873255130867,0.3,0.0,0.0,475.0,658.0,0.0,1,1867.0,1
1343,1343,-0.7119480615390139,-0.7,1.0,0.0,447.0,984.0,0.0,0,1569.0,1
1344,1344,0.6795799293202437,0.7,1.0,1.0,382.0,813.0,0.0,0,1805.0,0
1345,1345,0.49861558996390054,0.5,0.0,0.0,466.0,899.0,0.0,1,1635.0,1
1346,1346,0.46859954331317943,0.5,1.0,1.0,273.0,804.0,0.0,0,1923.0,0
1347,1347,0.11515244775953393,0.1,1.0,1.0,291.0,890.0,0.0,0,1819.0,0
1348,1348,0.03353356703159138,0.0,0.0,0.0,474.0,741.0,0.0,1,1785.0,1
1349,1349,0.6382969287075829,0.6,0.0,0.0,402.0,719.0,0.0,1,1879.0,1
1350,1350,-0.7180405452192218,-0.7,0.0,1.0,332.0,820.0,0.0,1,1848.0,0
1351,1351,-0.19273591192798722,-0.2,1.0,0.0,490.0,877.0,0.0,0,1633.0,1
1352,1352,-0.0787382358906441,-0.1,0.0,1.0,295.0,899.0,0.0,1,1806.0,0
1353,1353,-0.15342524273466007,-0.2,1.0,0.0,259.0,683.0,0.0,0,2058.0,1
1354,1354,0.32257353061904215,0.3,1.0,1.0,476.0,849.0,0.0,0,1675.0,0
1355,1355,0.09219576660487883,0.1,1.0,1.0,462.0,506.0,0.0,0,2032.0,0
1356,1356,0.595710519790933,0.6,1.0,1.0,406.0,626.0,0.0,0,1968.0,0
1357,1357,-0.4541473311736349,-0.5,0.0,1.0,409.0,945.0,0.0,1,1646.0,0
1358,1358,-0.4572520811217545,-0.5,1.0,0.0,347.0,867.0,0.0,0,1786.0,1
1359,1359,0.33371119037982877,0.3,0.0,0.0,467.0,953.0,0.0,1,1580.0,1
1360,1360,0.4008921709500818,0.4,1.0,1.0,357.0,853.0,0.0,0,1790.0,0
1361,1361,-0.8438650230977949,-0.8,0.0,1.0,463.0,848.0,0.0,1,1689.0,0
1362,1362,0.6220701300186243,0.6,1.0,1.0,433.0,525.0,0.0,0,2042.0,0
1363,1363,0.16093007857199415,0.2,0.0,0.0,494.0,535.0,0.0,1,1971.0,1
1364,1364,0.06917340047217257,0.1,1.0,1.0,324.0,650.0,0.0,0,-924.0,0
1365,1365,-0.8471106021774326,-0.8,0.0,1.0,498.0,818.0,0.0,1,1684.0,0
1366,1366,-0.2856354014999556,-0.3,1.0,0.0,250.0,677.0,0.0,0,2073.0,1
1367,1367,-0.21183210867460733,-0.2,0.0,1.0,278.0,665.0,0.0,1,2057.0,0
1368,1368,-0.17103106875162877,-0.2,0.0,1.0,301.0,523.0,0.0,1,2176.0,0
1369,1369,-0.7197309590557937,-0.7,0.0,1.0,369.0,533.0,0.0,1,2098.0,0
1370,1370,0.4938666422917918,0.5,1.0,1.0,393.0,674.0,0.0,0,1933.0,0
1371,1371,-0.4622053357407782,-0.5,0.0,1.0,408.0,840.0,0.0,1,1752.0,0
1372,1372,-0.7416504013011641,-0.7,1.0,0.0,390.0,659.0,0.0,0,1951.0,1
1373,1373,0.20791798421738095,0.2,0.0,0.0,468.0,500.0,0.0,1,2032.0,1
1374,1374,-0.04249207034751101,-0.0,1.0,0.0,416.0,777.0,0.0,0,1807.0,1
1375,1375,-0.5022688026625911,-0.5,1.0,0.0,256.0,637.0,0.0,0,2107.0,1
1376,1376,0.7430959309015684,0.7,1.0,1.0,286.0,735.0,0.0,0,1979.0,0
1377,1377,0.26796222318683094,0.3,0.0,0.0,268.0,643.0,0.0,1,2089.0,1
1378,1378,0.5438099402999678,0.5,1.0,1.0,271.0,515.0,0.0,0,2214.0,0
1379,1379,-0.3757346209729677,-0.4,0.0,1.0,357.0,592.0,0.0,1,2051.0,0
1380,1380,0.3909957757072692,0.4,1.0,1.0,336.0,648.0,0.0,0,2016.0,0
1381,1381,0.47365485399365903,0.5,0.0,0.0,335.0,944.0,0.0,1,1721.0,1
1382,1382,-0.4375400410447635,-0.4,1.0,0.0,283.0,871.0,0.0,0,1846.0,1
1383,1383,0.08561868691169305,0.1,0.0,0.0,477.0,928.0,0.0,1,-1375.0,1
1384,1384,0.7996324231630264,0.8,1.0,1.0,256.0,756.0,0.0,0,1988.0,0
1385,1385,-0.5776960880401688,-0.6,0.0,1.0,475.0,908.0,0.0,1,-1323.0,0
1386,1386,-0.5234116608599595,-0.5,0.0,1.0,302.0,703.0,0.0,1,1995.0,0
1387,1387,0.35898419967350115,0.4,1.0,1.0,381.0,608.0,0.0,0,2011.0,0
1388,1388,0.15909461732473018,0.2,1.0,1.0,425.0,604.0,0.0,0,1971.0,0
1389,1389,-0.08843537603262008,-0.1,1.0,0.0,272.0,729.0,0.0,0,1999.0,1
1390,1390,0.07442678357300003,0.1,1.0,1.0,316.0,895.0,1.0,1,-1031.0,1
1391,1391,0.31785622439844385,0.3,0.0,0.0,299.0,559.0,0.0,1,2142.0,1
1392,1392,-0.1350026897683294,-0.1,1.0,0.0,403.0,727.0,0.0,0,1870.0,1
1393,1393,-0.6196055337963051,-0.6,1.0,0.0,381.0,913.0,0.0,0,1706.0,1
1394,1394,-0.06376662621702567,-0.1,1.0,0.0,351.0,708.0,0.0,0,1941.0,1
1395,1395,-0.034889083519244024,-0.0,1.0,0.0,420.0,578.0,0.0,0,2002.0,1
1396,1396,0.48941271660842245,0.5,0.0,0.0,439.0,667.0,0.0,1,-1086.0,1
1397,1397,-0.03186312931044866,-0.0,0.0,1.0,359.0,904.0,0.0,1,1737.0,0
1398,1398,0.3620392902028643,0.4,0.0,0.0,425.0,595.0,0.0,1,1980.0,1
1399,1399,0.029901617145814074,0.0,0.0,0.0,464.0,931.0,0.0,1,1605.0,1
1400,1400,0.3852654409222839,0.4,0.0,0.0,341.0,941.0,0.0,1,1718.0,1
1401,1401,-0.0037686283676480192,-0.0,1.0,0.0,288.0,555.0,0.0,0,2157.0,1
1402,1402,0.0646601218562215,0.1,0.0,0.0,307.0,636.0,0.0,1,2057.0,1
1403,1403,0.8474210833101018,0.8,0.0,0.0,275.0,919.0,0.0,1,1806.0,1
1404,1404,0.7190399130697028,0.7,0.0,0.0,485.0,574.0,0.0,1,1941.0,1
1405,1405,-0.3030549036235869,-0.3,1.0,0.0,397.0,559.0,0.0,0,2044.0,1
1406,1406,0.06943570489027495,0.1,0.0,0.0,341.0,985.0,0.0,1,1674.0,1
1407,1407,0.537062063403768,0.5,0.0,0.0,493.0,917.0,0.0,1,1590.0,1
1408,1408,0.7159530562993998,0.7,1.0,1.0,429.0,826.0,0.0,0,1745.0,0
1409,1409,-0.17666779844147606,-0.2,1.0,0.0,311.0,782.0,0.0,0,1907.0,1
1410,1410,0.7930085062979474,0.8,0.0,0.0,406.0,570.0,0.0,1,2024.0,1
1411,1411,0.4884054218076136,0.5,0.0,0.0,279.0,815.0,0.0,1,-1084.0,1
1412,1412,-0.0010126849597467125,-0.0,0.0,1.0,494.0,928.0,0.0,1,1578.0,0
1413,1413,0.5303360026869107,0.5,0.0,0.0,370.0,690.0,0.0,1,1940.0,1
1414,1414,-0.47051423690387184,-0.5,1.0,0.0,335.0,979.0,1.0,1,-1104.0,0
1415,1415,0.15786285978495396,0.2,1.0,1.0,491.0,701.0,0.0,0,1808.0,0
1416,1416,0.3886810066952414,0.4,0.0,0.0,475.0,881.0,0.0,1,1644.0,1
1417,1417,0.018350581564471447,0.0,0.0,0.0,337.0,893.0,0.0,1,1770.0,1
1418,1418,0.26984419361075196,0.3,1.0,1.0,459.0,995.0,0.0,0,1546.0,0
1419,1419,0.14372570730448897,0.1,1.0,1.0,254.0,742.0,0.0,0,2004.0,0
1420,1420,-0.13110580713868325,-0.1,1.0,0.0,350.0,743.0,0.0,0,1907.0,1
1421,1421,-0.567438080894878,-0.6,1.0,0.0,417.0,551.0,0.0,0,2032.0,1
1422,1422,-0.021364314805842888,-0.0,0.0,1.0,380.0,963.0,0.0,1,1657.0,0
1423,1423,-0.0072027413721003075,-0.0,0.0,1.0,361.0,941.0,0.0,1,1698.0,0
1424,1424,-0.7801896985590795,-0.8,1.0,0.0,302.0,552.0,0.0,0,2146.0,1
1425,1425,0.31310136790457344,0.3,0.0,0.0,271.0,793.0,0.0,1,1936.0,1
1426,1426,-0.3387821685603287,-0.3,0.0,1.0,464.0,548.0,0.0,1,1988.0,0
1427,1427,-0.03145965965776243,-0.0,1.0,0.0,358.0,838.0,0.0,0,1804.0,1
1428,1428,-0.7552296835036233,-0.8,1.0,0.0,310.0,914.0,0.0,0,1776.0,1
1429,1429,-0.46590051183681197,-0.5,1.0,0.0,414.0,859.0,0.0,0,1727.0,1
1430,1430,0.42285453538570217,0.4,1.0,1.0,334.0,529.0,0.0,0,2137.0,0
1431,1431,0.2811286130391405,0.3,1.0,1.0,350.0,634.0,0.0,0,2016.0,0
1432,1432,-0.31752068026108327,-0.3,1.0,0.0,289.0,916.0,0.0,0,1795.0,1
1433,1433,-0.7052855979725456,-0.7,0.0,1.0,292.0,700.0,0.0,1,2008.0,0
1434,1434,-0.5140822174673095,-0.5,0.0,1.0,418.0,758.0,0.0,1,1824.0,0
1435,1435,0.7899932779875797,0.8,1.0,1.0,438.0,779.0,0.0,0,1783.0,0
1436,1436,0.4865753712061517,0.5,0.0,0.0,275.0,761.0,0.0,1,1964.0,1
1437,1437,0.873628657479211,0.9,1.0,1.0,466.0,663.0,0.0,0,1871.0,0
1438,1438,0.3064194706383604,0.3,0.0,0.0,305.0,897.0,0.0,1,1798.0,1
1439,1439,-0.3925497380466213,-0.4,0.0,1.0,275.0,939.0,0.0,1,1786.0,0
1440,1440,-0.0669539296235373,-0.1,0.0,1.0,411.0,915.0,0.0,1,-1276.0,0
1441,1441,0.8805093725086356,0.9,1.0,1.0,290.0,989.0,0.0,0,1721.0,0
1442,1442,-0.8716990466306058,-0.9,1.0,0.0,404.0,553.0,0.0,0,2043.0,1
1443,1443,0.8667531069165225,0.9,1.0,1.0,404.0,875.0,0.0,0,1721.0,0
1444,1444,-0.22660846176770744,-0.2,1.0,0.0,304.0,945.0,0.0,0,1751.0,1
1445,1445,0.5449079295890463,0.5,0.0,0.0,371.0,989.0,0.0,1,-1320.0,1
1446,1446,-0.8740394232529557,-0.9,1.0,0.0,445.0,643.0,0.0,0,1912.0,1
1447,1447,0.020051576450435205,0.0,0.0,0.0,355.0,756.0,0.0,1,1889.0,1
1448,1448,0.1468114321073667,0.1,1.0,1.0,476.0,502.0,0.0,0,2022.0,0
1449,1449,-0.06396894696983857,-0.1,0.0,1.0,493.0,902.0,0.0,1,1605.0,0
1450,1450,0.7600331976383498,0.8,0.0,0.0,375.0,846.0,1.0,0,-1181.0,0
1451,1451,0.37460129109617213,0.4,0.0,0.0,458.0,971.0,0.0,1,1571.0,1
1452,1452,0.6100106564591895,0.6,1.0,1.0,296.0,942.0,1.0,1,-1238.0,1
1453,1453,-0.5227862142433815,-0.5,0.0,1.0,309.0,675.0,0.0,1,2016.0,0
1454,1454,0.34790732054455986,0.3,0.0,0.0,459.0,741.0,0.0,1,1800.0,1
1455,1455,-0.7809535832261945,-0.8,1.0,0.0,337.0,751.0,0.0,0,1912.0,1
1456,1456,-0.48743601938967535,-0.5,0.0,1.0,416.0,575.0,0.0,1,2009.0,0
1457,1457,-0.4488448553609653,-0.4,1.0,0.0,377.0,896.0,0.0,0,1727.0,1
1458,1458,-0.14113052371184176,-0.1,1.0,0.0,280.0,572.0,0.0,0,-802.0,1
1459,1459,-0.15218200102505064,-0.2,1.0,0.0,477.0,751.0,0.0,0,1772.0,1
1460,1460,0.12165108417220749,0.1,1.0,1.0,366.0,936.0,0.0,0,1698.0,0
1461,1461,0.5569076496476973,0.6,0.0,0.0,297.0,570.0,0.0,1,2133.0,1
1462,1462,-0.09637206592307268,-0.1,1.0,0.0,252.0,794.0,0.0,0,1954.0,1
1463,1463,0.7706132447393218,0.8,0.0,0.0,428.0,574.0,0.0,1,1998.0,1
1464,1464,-0.15409595236947016,-0.2,0.0,1.0,454.0,568.0,0.0,1,1978.0,0
1465,1465,0.5003198831683423,0.5,1.0,1.0,347.0,556.0,0.0,0,2097.0,0
1466,1466,-0.008302140694961158,-0.0,0.0,1.0,463.0,724.0,0.0,1,1813.0,0
1467,1467,0.28123706984705465,0.3,0.0,0.0,382.0,722.0,1.0,0,-954.0,0
1468,1468,0.23798211519627144,0.2,0.0,0.0,367.0,555.0,1.0,0,-872.0,0
1469,1469,0.7752837742990227,0.8,0.0,0.0,258.0,834.0,1.0,0,-1082.0,0
1470,1470,-0.1717143975124138,-0.2,1.0,0.0,254.0,626.0,0.0,0,2120.0,1
