,trial,coherence,coherence_bin,green_side,correct_side,target_onset,checker_onset,decision,green_decision,decision_time,correct_decision
0,0,-0.7376459865673172,-0.7,1.0,0.0,298.0,719.0,0.0,0,123.0,1
1,1,-0.7401944986412068,-0.7,1.0,0.0,343.0,528.0,0.0,0,739.0,1
2,2,-0.3545178459204761,-0.4,1.0,0.0,469.0,781.0,0.0,0,930.0,1
3,3,0.7766910074325587,0.8,1.0,1.0,358.0,899.0,1.0,1,233.0,1
4,4,-0.34523832415633593,-0.3,0.0,1.0,284.0,520.0,1.0,0,326.0,1
5,5,-0.09326075216612939,-0.1,1.0,0.0,309.0,550.0,0.0,0,2141.0,1
6,6,0.4214496114602021,0.4,1.0,1.0,344.0,579.0,1.0,1,537.0,1
7,7,-0.2945642006604522,-0.3,1.0,0.0,396.0,591.0,0.0,0,713.0,1
8,8,-0.22028064721875285,-0.2,1.0,0.0,278.0,994.0,1.0,1,618.0,0
9,9,0.19843849354246468,0.2,0.0,0.0,266.0,834.0,1.0,0,50.0,0
10,10,-0.6127425288805428,-0.6,1.0,0.0,388.0,632.0,0.0,0,220.0,1
11,11,0.09047738131256311,0.1,0.0,0.0,281.0,983.0,1.0,0,1106.0,0
12,12,0.15945356587338966,0.2,1.0,1.0,296.0,529.0,1.0,1,1345.0,1
13,13,0.5368238462485594,0.5,1.0,1.0,483.0,588.0,1.0,1,519.0,1
14,14,-0.6948750781962749,-0.7,1.0,0.0,278.0,510.0,0.0,0,342.0,1
15,15,0.48315842816180876,0.5,0.0,0.0,451.0,780.0,0.0,1,589.0,1
16,16,0.4711491258973116,0.5,1.0,1.0,428.0,538.0,1.0,1,264.0,1
17,17,-0.35838947963745793,-0.4,0.0,1.0,431.0,780.0,1.0,0,-351.0,1
18,18,-0.4990484912199175,-0.5,1.0,0.0,381.0,607.0,0.0,0,822.0,1
19,19,0.6897401756752176,0.7,0.0,0.0,412.0,841.0,0.0,1,407.0,1
20,20,-0.6231772086015774,-0.6,0.0,1.0,354.0,653.0,1.0,0,103.0,1
21,21,-0.17337295513242568,-0.2,0.0,1.0,457.0,850.0,1.0,0,363.0,1
22,22,0.5917459153420411,0.6,0.0,0.0,396.0,923.0,0.0,1,171.0,1
23,23,-0.02986861795466944,-0.0,0.0,1.0,309.0,862.0,0.0,1,99.0,0
24,24,0.15766188521017754,0.2,0.0,0.0,449.0,785.0,0.0,1,1206.0,1
25,25,-0.7327255009998275,-0.7,0.0,1.0,346.0,870.0,1.0,0,214.0,1
26,26,-0.4385734613731949,-0.4,1.0,0.0,360.0,622.0,0.0,0,48.0,1
27,27,0.6067153768092873,0.6,0.0,0.0,493.0,904.0,0.0,1,163.0,1
28,28,-0.4964339741318724,-0.5,1.0,0.0,410.0,576.0,0.0,0,394.0,1
29,29,0.16712065761269257,0.2,0.0,0.0,342.0,990.0,0.0,1,868.0,1
30,30,0.8879740613554036,0.9,1.0,1.0,293.0,663.0,1.0,1,64.0,1
31,31,-0.031992820551674406,-0.0,1.0,0.0,306.0,799.0,1.0,1,-375.0,0
32,32,-0.32801361878062474,-0.3,1.0,0.0,276.0,936.0,1.0,1,-32.0,0
33,33,-0.1892820705570566,-0.2,0.0,1.0,309.0,753.0,1.0,0,1188.0,1
34,34,-0.8017725089323119,-0.8,0.0,1.0,497.0,618.0,1.0,0,185.0,1
35,35,0.17405878866613633,0.2,1.0,1.0,276.0,710.0,1.0,1,514.0,1
36,36,-0.24907180029687437,-0.2,0.0,1.0,438.0,702.0,1.0,0,190.0,1
37,37,0.7464902964961667,0.7,1.0,1.0,401.0,691.0,1.0,1,-212.0,1
38,38,0.5071204850247565,0.5,0.0,0.0,308.0,984.0,1.0,0,-662.0,0
39,39,-0.6190527281255138,-0.6,1.0,0.0,294.0,929.0,0.0,0,247.0,1
40,40,-0.618640395662545,-0.6,1.0,0.0,364.0,992.0,0.0,0,4.0,1
41,41,-0.4697632568428254,-0.5,0.0,1.0,337.0,672.0,1.0,0,291.0,1
42,42,-0.1472664123507217,-0.1,0.0,1.0,398.0,608.0,1.0,0,-6.0,1
43,43,0.8369789854092528,0.8,0.0,0.0,413.0,670.0,0.0,1,277.0,1
44,44,0.3947083001924018,0.4,1.0,1.0,260.0,643.0,1.0,1,227.0,1
45,45,-0.8221237499250986,-0.8,0.0,1.0,447.0,841.0,1.0,0,162.0,1
46,46,0.1436403211633296,0.1,0.0,0.0,278.0,792.0,1.0,0,1610.0,0
47,47,0.07738150828802737,0.1,0.0,0.0,273.0,655.0,1.0,0,932.0,0
48,48,0.7112203477290219,0.7,0.0,0.0,310.0,534.0,0.0,1,816.0,1
49,49,-0.4216824683839959,-0.4,1.0,0.0,368.0,738.0,0.0,0,704.0,1
50,50,0.2304752645904259,0.2,1.0,1.0,331.0,898.0,1.0,1,-109.0,1
51,51,-0.8630440980295314,-0.9,0.0,1.0,477.0,791.0,1.0,0,272.0,1
52,52,-0.8031470167297098,-0.8,1.0,0.0,475.0,738.0,0.0,0,397.0,1
53,53,0.17353302727991637,0.2,1.0,1.0,300.0,526.0,1.0,1,174.0,1
54,54,-0.8894790932288343,-0.9,1.0,0.0,380.0,943.0,1.0,1,-173.0,0
55,55,0.24699767585510324,0.2,0.0,0.0,273.0,738.0,0.0,1,229.0,1
56,56,-0.3037557414961798,-0.3,1.0,0.0,384.0,893.0,0.0,0,493.0,1
57,57,-0.04773647961478089,-0.0,1.0,0.0,411.0,882.0,1.0,1,287.0,0
58,58,-0.2153642585283725,-0.2,0.0,1.0,376.0,930.0,1.0,0,554.0,1
59,59,-0.8473356145062682,-0.8,1.0,0.0,419.0,868.0,0.0,0,173.0,1
60,60,0.47335829587428335,0.5,1.0,1.0,366.0,609.0,1.0,1,655.0,1
61,61,-0.3817132568820223,-0.4,0.0,1.0,461.0,691.0,1.0,0,368.0,1
62,62,-0.25743955705007293,-0.3,0.0,1.0,494.0,740.0,1.0,0,316.0,1
63,63,0.2896844827942696,0.3,0.0,0.0,380.0,657.0,0.0,1,213.0,1
64,64,-0.30739026767348177,-0.3,0.0,1.0,492.0,782.0,1.0,0,-44.0,1
65,65,0.4927902191559662,0.5,0.0,0.0,447.0,706.0,0.0,1,297.0,1
66,66,0.14663736637680624,0.1,0.0,0.0,416.0,947.0,0.0,1,-643.0,1
67,67,0.17536445007448587,0.2,1.0,1.0,324.0,779.0,1.0,1,-73.0,1
68,68,0.28282224011653223,0.3,0.0,0.0,498.0,608.0,0.0,1,504.0,1
69,69,-0.6831857931169636,-0.7,0.0,1.0,323.0,824.0,1.0,0,-107.0,1
70,70,-0.05891710360049285,-0.1,0.0,1.0,272.0,551.0,0.0,1,1277.0,0
71,71,0.18463417294966245,0.2,0.0,0.0,480.0,823.0,1.0,0,-353.0,0
72,72,-0.3611502562283869,-0.4,0.0,1.0,411.0,622.0,1.0,0,147.0,1
73,73,-0.0009727452052690211,-0.0,1.0,0.0,458.0,788.0,1.0,1,1754.0,0
74,74,0.6760260077567849,0.7,1.0,1.0,345.0,885.0,1.0,1,20.0,1
75,75,0.7135023846852998,0.7,0.0,0.0,346.0,852.0,1.0,0,-268.0,0
76,76,-0.3003267686143425,-0.3,0.0,1.0,299.0,961.0,1.0,0,1700.0,1
77,77,-0.831108350713212,-0.8,1.0,0.0,285.0,818.0,0.0,0,117.0,1
78,78,-0.8263061057774567,-0.8,0.0,1.0,300.0,536.0,1.0,0,574.0,1
79,79,-0.2850367427240953,-0.3,0.0,1.0,409.0,809.0,1.0,0,162.0,1
80,80,-0.4383385395591627,-0.4,1.0,0.0,442.0,930.0,1.0,1,-332.0,0
81,81,0.5199233670591114,0.5,0.0,0.0,447.0,822.0,0.0,1,551.0,1
82,82,-0.5280149099821434,-0.5,1.0,0.0,473.0,545.0,0.0,0,642.0,1
83,83,-0.5187526581290289,-0.5,1.0,0.0,475.0,592.0,0.0,0,383.0,1
84,84,0.04419324177483952,0.0,1.0,1.0,473.0,957.0,1.0,1,280.0,1
85,85,-0.3037461053184105,-0.3,1.0,0.0,412.0,712.0,0.0,0,216.0,1
86,86,-0.5479564221505266,-0.5,0.0,1.0,396.0,919.0,1.0,0,265.0,1
87,87,-0.1581822428856815,-0.2,0.0,1.0,471.0,659.0,1.0,0,630.0,1
88,88,-0.41513533581714274,-0.4,0.0,1.0,288.0,977.0,1.0,0,-445.0,1
89,89,-0.8991992381537139,-0.9,0.0,1.0,397.0,617.0,1.0,0,-324.0,1
90,90,-0.5813395003062307,-0.6,0.0,1.0,252.0,661.0,1.0,0,267.0,1
91,91,0.4508595939762662,0.5,1.0,1.0,462.0,511.0,1.0,1,177.0,1
92,92,0.7654673987102835,0.8,1.0,1.0,355.0,635.0,1.0,1,300.0,1
93,93,-0.10322675994855124,-0.1,0.0,1.0,451.0,666.0,1.0,0,1423.0,1
94,94,-0.0616221568754457,-0.1,1.0,0.0,308.0,984.0,0.0,0,268.0,1
95,95,-0.5378365131235747,-0.5,0.0,1.0,422.0,969.0,0.0,1,-521.0,0
96,96,0.07478783474956419,0.1,0.0,0.0,487.0,998.0,0.0,1,-535.0,1
97,97,-0.4602681413389219,-0.5,0.0,1.0,414.0,789.0,1.0,0,-133.0,1
98,98,-0.815938508313925,-0.8,1.0,0.0,418.0,776.0,0.0,0,296.0,1
99,99,0.606278890164284,0.6,0.0,0.0,476.0,634.0,0.0,1,280.0,1
100,100,-0.4597073598220554,-0.5,0.0,1.0,406.0,791.0,1.0,0,143.0,1
101,101,0.8175140363982695,0.8,1.0,1.0,250.0,701.0,1.0,1,79.0,1
102,102,-0.6711741998829897,-0.7,1.0,0.0,359.0,672.0,0.0,0,489.0,1
103,103,-0.608251681281277,-0.6,1.0,0.0,388.0,990.0,0.0,0,332.0,1
104,104,-0.49261921513938955,-0.5,1.0,0.0,435.0,689.0,0.0,0,196.0,1
105,105,0.07165716506612074,0.1,0.0,0.0,298.0,954.0,1.0,0,-122.0,0
106,106,0.18457527208579505,0.2,1.0,1.0,327.0,679.0,1.0,1,1994.0,1
107,107,0.47523610533496774,0.5,1.0,1.0,350.0,837.0,1.0,1,83.0,1
108,108,-0.5352614150296844,-0.5,1.0,0.0,337.0,719.0,0.0,0,514.0,1
109,109,-0.7769163484447799,-0.8,1.0,0.0,299.0,880.0,0.0,0,491.0,1
110,110,-0.35306261424727103,-0.4,0.0,1.0,277.0,697.0,1.0,0,776.0,1
111,111,0.09042450626967224,0.1,1.0,1.0,318.0,727.0,1.0,1,1185.0,1
112,112,0.6609523872086421,0.7,1.0,1.0,377.0,987.0,1.0,1,-224.0,1
113,113,0.456940478731679,0.5,1.0,1.0,434.0,540.0,1.0,1,786.0,1
114,114,0.16835165336351088,0.2,0.0,0.0,426.0,540.0,0.0,1,2034.0,1
115,115,0.7021948774780499,0.7,0.0,0.0,329.0,864.0,0.0,1,247.0,1
116,116,-0.7891635636621954,-0.8,0.0,1.0,318.0,549.0,1.0,0,93.0,1
117,117,-0.5090563252877471,-0.5,0.0,1.0,262.0,753.0,1.0,0,185.0,1
118,118,0.5859283456388124,0.6,1.0,1.0,445.0,620.0,1.0,1,165.0,1
119,119,0.7457926812336694,0.7,0.0,0.0,464.0,934.0,0.0,1,-678.0,1
120,120,0.19149138912196528,0.2,0.0,0.0,472.0,840.0,1.0,0,208.0,0
121,121,-0.2087771164770439,-0.2,1.0,0.0,289.0,986.0,0.0,0,805.0,1
122,122,-0.6872901339148402,-0.7,0.0,1.0,333.0,543.0,1.0,0,244.0,1
123,123,0.19001453081608422,0.2,0.0,0.0,262.0,936.0,1.0,0,-438.0,0
124,124,0.12862512122278613,0.1,1.0,1.0,396.0,852.0,1.0,1,392.0,1
125,125,0.20719318296835787,0.2,0.0,0.0,306.0,690.0,0.0,1,654.0,1
126,126,-0.6005067971830977,-0.6,1.0,0.0,423.0,667.0,0.0,0,310.0,1
127,127,-0.41258508162037055,-0.4,1.0,0.0,297.0,707.0,0.0,0,196.0,1
128,128,-0.5944108585742853,-0.6,0.0,1.0,289.0,999.0,1.0,0,102.0,1
129,129,0.1318422712967754,0.1,0.0,0.0,347.0,539.0,0.0,1,4.0,1
130,130,0.3254535956806476,0.3,1.0,1.0,473.0,681.0,1.0,1,426.0,1
131,131,-0.13001482290788202,-0.1,1.0,0.0,435.0,586.0,1.0,1,1099.0,0
132,132,0.4546111311802604,0.5,0.0,0.0,303.0,925.0,1.0,0,12.0,0
133,133,-0.852159503663561,-0.9,0.0,1.0,405.0,698.0,1.0,0,-273.0,1
134,134,0.4125076949445031,0.4,1.0,1.0,345.0,785.0,1.0,1,-450.0,1
135,135,-0.619425924388486,-0.6,1.0,0.0,252.0,652.0,0.0,0,556.0,1
136,136,-0.5874665880596248,-0.6,1.0,0.0,411.0,655.0,0.0,0,344.0,1
137,137,-0.5942223230067052,-0.6,1.0,0.0,269.0,909.0,0.0,0,1062.0,1
138,138,-0.6698137009806827,-0.7,1.0,0.0,454.0,953.0,0.0,0,173.0,1
139,139,-0.37501350163312697,-0.4,0.0,1.0,334.0,617.0,1.0,0,99.0,1
140,140,0.7828790793811798,0.8,1.0,1.0,487.0,805.0,1.0,1,258.0,1
141,141,-0.6965006056336813,-0.7,0.0,1.0,434.0,647.0,1.0,0,199.0,1
142,142,0.17134435212562027,0.2,1.0,1.0,497.0,635.0,1.0,1,1338.0,1
143,143,-0.6621982067591908,-0.7,1.0,0.0,415.0,518.0,1.0,1,-123.0,0
144,144,-0.38183704778048544,-0.4,0.0,1.0,482.0,963.0,1.0,0,-185.0,1
145,145,0.4400455972430436,0.4,0.0,0.0,423.0,574.0,1.0,0,-277.0,0
146,146,-0.07487585714908318,-0.1,1.0,0.0,270.0,999.0,0.0,0,-89.0,1
147,147,0.27319153743044955,0.3,0.0,0.0,442.0,558.0,0.0,1,220.0,1
148,148,0.6587263164122331,0.7,0.0,0.0,405.0,593.0,0.0,1,292.0,1
149,149,-0.26940536736627196,-0.3,0.0,1.0,270.0,657.0,1.0,0,143.0,1
150,150,0.7489127181306033,0.7,1.0,1.0,409.0,965.0,1.0,1,226.0,1
151,151,0.46253909700810636,0.5,1.0,1.0,386.0,709.0,1.0,1,225.0,1
152,152,0.26743479924189184,0.3,0.0,0.0,272.0,774.0,0.0,1,174.0,1
153,153,-0.8799998124364476,-0.9,0.0,1.0,335.0,999.0,1.0,0,-284.0,1
154,154,0.7214316442423864,0.7,0.0,0.0,465.0,782.0,0.0,1,453.0,1
155,155,0.043365148688570776,0.0,0.0,0.0,440.0,814.0,1.0,0,276.0,0
156,156,-0.28539046120094536,-0.3,1.0,0.0,446.0,829.0,0.0,0,415.0,1
157,157,0.7838420642543703,0.8,1.0,1.0,304.0,589.0,1.0,1,77.0,1
158,158,-0.4222431113368408,-0.4,1.0,0.0,392.0,899.0,0.0,0,289.0,1
159,159,0.7327079487001239,0.7,0.0,0.0,328.0,684.0,0.0,1,368.0,1
160,160,0.17383768412313938,0.2,1.0,1.0,306.0,960.0,1.0,1,524.0,1
161,161,0.8200914516405414,0.8,1.0,1.0,470.0,934.0,1.0,1,496.0,1
162,162,0.8780388072701416,0.9,0.0,0.0,264.0,882.0,1.0,0,-166.0,0
163,163,-0.8990683562810102,-0.9,1.0,0.0,279.0,860.0,0.0,0,241.0,1
164,164,-0.6872133778714494,-0.7,1.0,0.0,462.0,785.0,0.0,0,433.0,1
165,165,0.3970563907900798,0.4,1.0,1.0,388.0,797.0,1.0,1,345.0,1
166,166,0.5881326306012723,0.6,1.0,1.0,455.0,980.0,1.0,1,275.0,1
167,167,-0.19243561640616658,-0.2,1.0,0.0,435.0,809.0,0.0,0,276.0,1
168,168,0.8452099873213373,0.8,0.0,0.0,316.0,544.0,0.0,1,200.0,1
169,169,-0.8248375513485631,-0.8,1.0,0.0,365.0,626.0,0.0,0,559.0,1
170,170,-0.6097251336612126,-0.6,0.0,1.0,406.0,815.0,1.0,0,459.0,1
171,171,-0.2582881521991547,-0.3,1.0,0.0,358.0,832.0,1.0,1,-150.0,0
172,172,0.6691048618880858,0.7,0.0,0.0,497.0,811.0,1.0,0,-188.0,0
173,173,0.6680029703517741,0.7,0.0,0.0,428.0,783.0,1.0,0,-81.0,0
174,174,0.3067713911630613,0.3,0.0,0.0,327.0,722.0,0.0,1,401.0,1
175,175,0.32882281682519376,0.3,0.0,0.0,389.0,883.0,0.0,1,558.0,1
176,176,-0.8622766924340746,-0.9,0.0,1.0,446.0,877.0,1.0,0,277.0,1
177,177,-0.47054938010028396,-0.5,0.0,1.0,442.0,647.0,1.0,0,421.0,1
178,178,0.6198876571840138,0.6,1.0,1.0,278.0,966.0,1.0,1,576.0,1
179,179,-0.8409106434102199,-0.8,1.0,0.0,335.0,923.0,0.0,0,332.0,1
180,180,0.8335640278431969,0.8,0.0,0.0,313.0,723.0,0.0,1,94.0,1
181,181,-0.20285584432994674,-0.2,1.0,0.0,485.0,853.0,0.0,0,692.0,1
182,182,0.17294767791182453,0.2,1.0,1.0,336.0,829.0,1.0,1,-135.0,1
183,183,-0.267100106230326,-0.3,0.0,1.0,498.0,558.0,1.0,0,374.0,1
184,184,0.6038532914725337,0.6,1.0,1.0,297.0,678.0,1.0,1,435.0,1
185,185,0.2153166512622401,0.2,1.0,1.0,411.0,934.0,1.0,1,575.0,1
186,186,-0.7650473322920689,-0.8,1.0,0.0,319.0,760.0,0.0,0,271.0,1
187,187,0.41150115185443326,0.4,1.0,1.0,251.0,839.0,1.0,1,180.0,1
188,188,-0.8590153736232562,-0.9,1.0,0.0,275.0,935.0,0.0,0,270.0,1
189,189,0.15276921008536004,0.2,0.0,0.0,349.0,794.0,0.0,1,1857.0,1
190,190,-0.18958474936064418,-0.2,0.0,1.0,282.0,709.0,1.0,0,289.0,1
191,191,-0.2715638227400984,-0.3,0.0,1.0,472.0,659.0,1.0,0,339.0,1
192,192,0.6607680958591157,0.7,1.0,1.0,258.0,652.0,1.0,1,340.0,1
193,193,-0.06407980281263892,-0.1,0.0,1.0,305.0,966.0,1.0,0,-311.0,1
194,194,-0.7058014445075358,-0.7,1.0,0.0,304.0,769.0,0.0,0,337.0,1
195,195,0.04688289042297211,0.0,0.0,0.0,477.0,657.0,1.0,0,-44.0,0
196,196,-0.6626935786895863,-0.7,0.0,1.0,384.0,918.0,1.0,0,28.0,1
197,197,-0.8051677055374381,-0.8,1.0,0.0,423.0,757.0,0.0,0,260.0,1
198,198,0.05493125842678448,0.1,0.0,0.0,349.0,624.0,1.0,0,987.0,0
199,199,-0.3424793826103978,-0.3,1.0,0.0,368.0,695.0,0.0,0,1067.0,1
200,200,0.07565006829376741,0.1,0.0,0.0,285.0,667.0,1.0,0,1228.0,0
201,201,-0.5953655512896264,-0.6,1.0,0.0,281.0,665.0,0.0,0,694.0,1
202,202,-0.7583882400000795,-0.8,1.0,0.0,271.0,601.0,0.0,0,298.0,1
203,203,0.21748559783936472,0.2,0.0,0.0,306.0,837.0,0.0,1,437.0,1
204,204,-0.6484134535459567,-0.6,0.0,1.0,328.0,636.0,1.0,0,256.0,1
205,205,0.49922731532348796,0.5,0.0,0.0,488.0,722.0,0.0,1,430.0,1
206,206,0.13446175085266787,0.1,1.0,1.0,405.0,948.0,1.0,1,-283.0,1
207,207,-0.25596305685944276,-0.3,0.0,1.0,260.0,667.0,1.0,0,283.0,1
208,208,-0.4266964863641532,-0.4,1.0,0.0,456.0,805.0,0.0,0,799.0,1
209,209,-0.24817377098953652,-0.2,0.0,1.0,392.0,952.0,1.0,0,-214.0,1
210,210,0.7216718180869316,0.7,0.0,0.0,290.0,695.0,0.0,1,175.0,1
211,211,0.8022580819438853,0.8,1.0,1.0,315.0,722.0,1.0,1,-327.0,1
212,212,-0.8315524762786364,-0.8,0.0,1.0,438.0,708.0,1.0,0,174.0,1
213,213,-0.8769579504350057,-0.9,1.0,0.0,364.0,734.0,0.0,0,342.0,1
214,214,0.18295130424513883,0.2,1.0,1.0,362.0,886.0,1.0,1,642.0,1
215,215,-0.050827508814669464,-0.1,0.0,1.0,254.0,810.0,0.0,1,-104.0,0
216,216,0.6361172738420214,0.6,0.0,0.0,370.0,907.0,0.0,1,403.0,1
217,217,-0.40018096553554466,-0.4,0.0,1.0,403.0,706.0,1.0,0,121.0,1
218,218,0.13553677098675532,0.1,0.0,0.0,410.0,825.0,1.0,0,255.0,0
219,219,0.2719404966982638,0.3,1.0,1.0,406.0,706.0,1.0,1,418.0,1
220,220,-0.8769076092245552,-0.9,0.0,1.0,274.0,792.0,1.0,0,304.0,1
221,221,0.7859808407047796,0.8,1.0,1.0,437.0,799.0,1.0,1,214.0,1
222,222,-0.07600776518485741,-0.1,0.0,1.0,293.0,620.0,1.0,0,-53.0,1
223,223,0.36447723929344134,0.4,1.0,1.0,385.0,961.0,1.0,1,274.0,1
224,224,0.020125972875660425,0.0,0.0,0.0,419.0,539.0,0.0,1,1982.0,1
225,225,-0.60286183677121,-0.6,0.0,1.0,275.0,659.0,1.0,0,-14.0,1
226,226,-0.11709450292691848,-0.1,1.0,0.0,279.0,843.0,0.0,0,1878.0,1
227,227,-0.044111931897790946,-0.0,0.0,1.0,415.0,836.0,1.0,0,-161.0,1
228,228,0.2457909657943821,0.2,0.0,0.0,385.0,766.0,0.0,1,1849.0,1
229,229,0.1900914811630462,0.2,0.0,0.0,467.0,829.0,1.0,0,-216.0,0
230,230,-0.7975845201134293,-0.8,1.0,0.0,379.0,576.0,0.0,0,505.0,1
231,231,-0.8441024697950945,-0.8,1.0,0.0,420.0,528.0,0.0,0,212.0,1
232,232,0.5545677845500366,0.6,1.0,1.0,386.0,956.0,1.0,1,298.0,1
233,233,0.1032033082979601,0.1,0.0,0.0,301.0,925.0,0.0,1,-476.0,1
234,234,0.3413247172010704,0.3,1.0,1.0,308.0,646.0,1.0,1,166.0,1
235,235,-0.1378795303293321,-0.1,1.0,0.0,437.0,615.0,1.0,1,938.0,0
236,236,-0.564278869031607,-0.6,0.0,1.0,371.0,604.0,1.0,0,255.0,1
237,237,0.4065631724107869,0.4,0.0,0.0,373.0,525.0,0.0,1,272.0,1
238,238,-0.5342481398352632,-0.5,0.0,1.0,461.0,762.0,1.0,0,277.0,1
239,239,0.008809218652988227,0.0,0.0,0.0,292.0,988.0,1.0,0,290.0,0
240,240,-0.34736943603750503,-0.3,0.0,1.0,324.0,791.0,1.0,0,215.0,1
241,241,0.6582044700477206,0.7,0.0,0.0,422.0,509.0,1.0,0,19.0,0
242,242,0.08323961180108774,0.1,1.0,1.0,407.0,774.0,1.0,1,659.0,1
243,243,0.0468600987121911,0.0,0.0,0.0,374.0,606.0,0.0,1,1520.0,1
244,244,0.184202498250701,0.2,0.0,0.0,499.0,691.0,0.0,1,510.0,1
245,245,-0.4425834411425083,-0.4,0.0,1.0,368.0,877.0,1.0,0,305.0,1
246,246,-0.1412180937929559,-0.1,1.0,0.0,280.0,781.0,1.0,1,809.0,0
247,247,-0.5695434263876947,-0.6,1.0,0.0,322.0,941.0,0.0,0,337.0,1
248,248,-0.7056989995578905,-0.7,1.0,0.0,335.0,857.0,0.0,0,188.0,1
249,249,-0.8848654013595139,-0.9,1.0,0.0,272.0,914.0,0.0,0,-436.0,1
250,250,0.6111167091381066,0.6,1.0,1.0,320.0,734.0,1.0,1,486.0,1
251,251,0.07956236841174813,0.1,1.0,1.0,483.0,858.0,1.0,1,-501.0,1
252,252,0.7810633041853324,0.8,1.0,1.0,357.0,796.0,1.0,1,117.0,1
253,253,-0.38894133809667275,-0.4,0.0,1.0,397.0,732.0,1.0,0,191.0,1
254,254,-0.18591970045702433,-0.2,1.0,0.0,306.0,617.0,0.0,0,-3.0,1
255,255,-0.7690351354577706,-0.8,0.0,1.0,355.0,590.0,1.0,0,325.0,1
256,256,-0.43236484717811463,-0.4,1.0,0.0,368.0,784.0,0.0,0,8.0,1
257,257,-0.3330737470007199,-0.3,1.0,0.0,318.0,641.0,0.0,0,581.0,1
258,258,-0.07342113839290709,-0.1,0.0,1.0,355.0,655.0,0.0,1,810.0,0
259,259,0.41934819030016135,0.4,0.0,0.0,276.0,708.0,0.0,1,166.0,1
260,260,-0.6576211244432564,-0.7,0.0,1.0,386.0,964.0,1.0,0,30.0,1
261,261,0.38231233397816544,0.4,0.0,0.0,282.0,754.0,1.0,0,-476.0,0
262,262,0.7765885639992255,0.8,1.0,1.0,320.0,603.0,1.0,1,417.0,1
263,263,-0.024182528674029258,-0.0,1.0,0.0,410.0,724.0,1.0,1,876.0,0
264,264,0.029471549065321234,0.0,0.0,0.0,367.0,803.0,1.0,0,1290.0,0
265,265,0.4452147192183552,0.4,1.0,1.0,328.0,869.0,1.0,1,1193.0,1
266,266,-0.8701846866237554,-0.9,1.0,0.0,351.0,552.0,0.0,0,107.0,1
267,267,0.8032087401308775,0.8,0.0,0.0,362.0,674.0,0.0,1,144.0,1
268,268,-0.8518919074761936,-0.9,1.0,0.0,368.0,845.0,0.0,0,547.0,1
269,269,-0.8297256439502988,-0.8,1.0,0.0,279.0,577.0,0.0,0,94.0,1
270,270,-0.023806166438627208,-0.0,0.0,1.0,265.0,991.0,0.0,1,-76.0,0
271,271,0.44208511133492545,0.4,0.0,0.0,428.0,590.0,0.0,1,192.0,1
272,272,-0.45385814373746863,-0.5,0.0,1.0,467.0,639.0,0.0,1,-106.0,0
273,273,0.16135990092030872,0.2,0.0,0.0,432.0,747.0,1.0,0,601.0,0
274,274,-0.840646059448482,-0.8,0.0,1.0,311.0,622.0,1.0,0,257.0,1
275,275,0.7752735538578032,0.8,1.0,1.0,345.0,560.0,1.0,1,-55.0,1
276,276,-0.3127459667009733,-0.3,0.0,1.0,286.0,952.0,1.0,0,-258.0,1
277,277,0.6780451874328589,0.7,1.0,1.0,449.0,724.0,1.0,1,-623.0,1
278,278,0.4833555031022284,0.5,0.0,0.0,399.0,535.0,0.0,1,136.0,1
279,279,0.22892453206993235,0.2,1.0,1.0,284.0,703.0,1.0,1,413.0,1
280,280,-0.3841080385821525,-0.4,1.0,0.0,389.0,609.0,0.0,0,1892.0,1
281,281,-0.48495551628147016,-0.5,0.0,1.0,495.0,725.0,1.0,0,700.0,1
282,282,0.8334469421460665,0.8,1.0,1.0,319.0,918.0,1.0,1,133.0,1
283,283,-0.8264352497024736,-0.8,1.0,0.0,430.0,541.0,0.0,0,219.0,1
284,284,-0.2606240183441966,-0.3,1.0,0.0,410.0,600.0,0.0,0,30.0,1
285,285,0.8434744359321306,0.8,1.0,1.0,399.0,959.0,1.0,1,222.0,1
286,286,0.31059845022365795,0.3,1.0,1.0,295.0,636.0,1.0,1,479.0,1
287,287,0.5031131206857787,0.5,1.0,1.0,270.0,708.0,1.0,1,-248.0,1
288,288,-0.43845646944133854,-0.4,1.0,0.0,348.0,688.0,0.0,0,304.0,1
289,289,0.2105569029599813,0.2,1.0,1.0,400.0,559.0,1.0,1,461.0,1
290,290,0.4756571200382148,0.5,1.0,1.0,490.0,995.0,1.0,1,25.0,1
291,291,-0.29137264038462785,-0.3,0.0,1.0,420.0,694.0,1.0,0,116.0,1
292,292,0.41595089110839256,0.4,1.0,1.0,489.0,533.0,1.0,1,878.0,1
293,293,0.3865071694567067,0.4,0.0,0.0,411.0,840.0,0.0,1,499.0,1
294,294,0.47614869979795127,0.5,0.0,0.0,271.0,987.0,0.0,1,-778.0,1
295,295,0.24099189026906165,0.2,1.0,1.0,482.0,845.0,1.0,1,213.0,1
296,296,0.7003312364471544,0.7,0.0,0.0,374.0,852.0,0.0,1,144.0,1
297,297,-0.7720151662148473,-0.8,1.0,0.0,498.0,801.0,0.0,0,291.0,1
298,298,0.7416271989677924,0.7,0.0,0.0,393.0,673.0,0.0,1,54.0,1
299,299,-0.5871389841396147,-0.6,0.0,1.0,377.0,574.0,1.0,0,329.0,1
300,300,-0.676774359211466,-0.7,1.0,0.0,401.0,692.0,0.0,0,347.0,1
301,301,-0.08115812485745366,-0.1,0.0,1.0,321.0,630.0,1.0,0,379.0,1
302,302,-0.35909021580072564,-0.4,0.0,1.0,297.0,947.0,1.0,0,136.0,1
303,303,-0.7119979231413959,-0.7,0.0,1.0,489.0,562.0,1.0,0,219.0,1
304,304,0.09874226923413343,0.1,0.0,0.0,456.0,716.0,0.0,1,1608.0,1
305,305,-0.43047336071259057,-0.4,0.0,1.0,301.0,876.0,1.0,0,243.0,1
306,306,-0.7146740404790488,-0.7,0.0,1.0,305.0,737.0,1.0,0,158.0,1
307,307,-0.7810623653890333,-0.8,1.0,0.0,403.0,730.0,0.0,0,137.0,1
308,308,0.20567885272554232,0.2,0.0,0.0,331.0,573.0,1.0,0,26.0,0
309,309,-0.10864784703306962,-0.1,0.0,1.0,301.0,835.0,1.0,0,-46.0,1
310,310,-0.7051628548420114,-0.7,1.0,0.0,402.0,968.0,1.0,1,-60.0,0
311,311,0.4267910523630124,0.4,1.0,1.0,300.0,737.0,1.0,1,263.0,1
312,312,0.20758300440196498,0.2,0.0,0.0,462.0,782.0,0.0,1,1756.0,1
313,313,-0.5020693408553529,-0.5,1.0,0.0,396.0,590.0,0.0,0,1204.0,1
314,314,-0.12082477803309033,-0.1,0.0,1.0,405.0,543.0,1.0,0,352.0,1
315,315,0.8535206359699726,0.9,1.0,1.0,349.0,817.0,1.0,1,-416.0,1
316,316,0.37973507724636313,0.4,0.0,0.0,259.0,987.0,0.0,1,264.0,1
317,317,-0.7389420807048167,-0.7,1.0,0.0,426.0,545.0,0.0,0,569.0,1
318,318,0.8090210281869731,0.8,0.0,0.0,363.0,602.0,0.0,1,275.0,1
319,319,-0.7202838332338103,-0.7,0.0,1.0,419.0,983.0,1.0,0,128.0,1
320,320,-0.6646087812313579,-0.7,1.0,0.0,389.0,698.0,0.0,0,433.0,1
321,321,0.1805566542433411,0.2,1.0,1.0,465.0,918.0,1.0,1,-543.0,1
322,322,0.16253207091081456,0.2,1.0,1.0,495.0,745.0,1.0,1,180.0,1
323,323,0.43693211444113167,0.4,0.0,0.0,410.0,862.0,1.0,0,-492.0,0
324,324,-0.24541787437223772,-0.2,0.0,1.0,419.0,867.0,0.0,1,-176.0,0
325,325,-0.3291781992042475,-0.3,0.0,1.0,469.0,934.0,1.0,0,-753.0,1
326,326,0.19130118313407507,0.2,1.0,1.0,251.0,736.0,1.0,1,1243.0,1
327,327,0.4665133846485078,0.5,0.0,0.0,302.0,786.0,0.0,1,362.0,1
328,328,0.24745851414094988,0.2,0.0,0.0,344.0,519.0,1.0,0,-83.0,0
329,329,0.19806583809601086,0.2,0.0,0.0,323.0,577.0,0.0,1,600.0,1
330,330,-0.31681684627910633,-0.3,0.0,1.0,466.0,529.0,1.0,0,275.0,1
331,331,-0.7291018242485925,-0.7,1.0,0.0,284.0,813.0,0.0,0,203.0,1
332,332,-0.09258386113034422,-0.1,0.0,1.0,414.0,976.0,1.0,0,240.0,1
333,333,0.2084267360568025,0.2,0.0,0.0,253.0,589.0,0.0,1,1948.0,1
334,334,-0.16833771653182616,-0.2,0.0,1.0,359.0,990.0,1.0,0,351.0,1
335,335,-0.6259116723924876,-0.6,1.0,0.0,258.0,789.0,0.0,0,783.0,1
336,336,0.4171041841028783,0.4,1.0,1.0,338.0,856.0,1.0,1,126.0,1
337,337,0.02563422313241237,0.0,0.0,0.0,417.0,870.0,0.0,1,-587.0,1
338,338,0.6872187893185396,0.7,0.0,0.0,464.0,773.0,1.0,0,-247.0,0
339,339,0.22888831619026428,0.2,0.0,0.0,314.0,634.0,1.0,0,142.0,0
340,340,-0.13315461097157077,-0.1,0.0,1.0,382.0,762.0,1.0,0,-84.0,1
341,341,0.13788451429758342,0.1,0.0,0.0,356.0,841.0,0.0,1,1593.0,1
342,342,0.4110633675047465,0.4,0.0,0.0,334.0,641.0,0.0,1,715.0,1
343,343,0.4076101436902354,0.4,1.0,1.0,361.0,995.0,1.0,1,704.0,1
344,344,-0.31128402418554824,-0.3,1.0,0.0,395.0,865.0,0.0,0,200.0,1
345,345,0.7829323522347927,0.8,1.0,1.0,401.0,914.0,1.0,1,85.0,1
346,346,-0.8438743382743752,-0.8,0.0,1.0,389.0,605.0,1.0,0,146.0,1
347,347,0.880632433062008,0.9,1.0,1.0,483.0,763.0,1.0,1,154.0,1
348,348,0.2965327572538151,0.3,0.0,0.0,399.0,524.0,1.0,0,-43.0,0
349,349,-0.042954901053484096,-0.0,0.0,1.0,414.0,604.0,1.0,0,382.0,1
350,350,-0.36259102618387395,-0.4,1.0,0.0,251.0,990.0,0.0,0,409.0,1
351,351,0.6099022573613605,0.6,1.0,1.0,299.0,577.0,1.0,1,324.0,1
352,352,0.7185754690561365,0.7,0.0,0.0,345.0,960.0,0.0,1,715.0,1
353,353,0.7374006894002093,0.7,1.0,1.0,308.0,614.0,1.0,1,-242.0,1
354,354,0.8549461318342239,0.9,0.0,0.0,466.0,522.0,0.0,1,472.0,1
355,355,0.17718579488915098,0.2,0.0,0.0,473.0,549.0,1.0,0,-722.0,0
356,356,-0.31292712732954897,-0.3,0.0,1.0,427.0,603.0,1.0,0,480.0,1
357,357,-0.2733138611397683,-0.3,0.0,1.0,466.0,972.0,1.0,0,232.0,1
358,358,0.4844528354157439,0.5,1.0,1.0,253.0,685.0,1.0,1,432.0,1
359,359,0.8901285967635212,0.9,0.0,0.0,442.0,549.0,0.0,1,209.0,1
360,360,0.5715574713009522,0.6,0.0,0.0,347.0,890.0,1.0,0,-247.0,0
361,361,0.7918925279975667,0.8,0.0,0.0,385.0,702.0,0.0,1,243.0,1
362,362,-0.2767105362578909,-0.3,0.0,1.0,360.0,807.0,1.0,0,263.0,1
363,363,-0.36408647916077097,-0.4,0.0,1.0,296.0,986.0,1.0,0,238.0,1
364,364,-0.26380265328176167,-0.3,0.0,1.0,250.0,875.0,1.0,0,785.0,1
365,365,0.027326547610519336,0.0,1.0,1.0,446.0,828.0,1.0,1,176.0,1
366,366,0.6342874959888803,0.6,0.0,0.0,444.0,786.0,0.0,1,270.0,1
367,367,0.4385996110123257,0.4,1.0,1.0,458.0,669.0,1.0,1,543.0,1
368,368,-0.09004595620269185,-0.1,0.0,1.0,304.0,908.0,0.0,1,-82.0,0
369,369,0.6086368302941879,0.6,1.0,1.0,336.0,894.0,1.0,1,330.0,1
370,370,0.16391935189248164,0.2,1.0,1.0,394.0,906.0,1.0,1,170.0,1
371,371,0.689470709360141,0.7,0.0,0.0,388.0,956.0,1.0,0,-24.0,0
372,372,-0.09411801964581967,-0.1,0.0,1.0,444.0,781.0,1.0,0,265.0,1
373,373,0.25628039020578075,0.3,1.0,1.0,455.0,726.0,1.0,1,1209.0,1
374,374,-0.78126173113179,-0.8,0.0,1.0,434.0,512.0,1.0,0,294.0,1
375,375,0.023630564959171374,0.0,0.0,0.0,280.0,882.0,0.0,1,138.0,1
376,376,-0.8149924553540667,-0.8,0.0,1.0,256.0,630.0,1.0,0,64.0,1
377,377,-0.6647611684568345,-0.7,1.0,0.0,291.0,860.0,0.0,0,289.0,1
378,378,-0.6899085814705237,-0.7,0.0,1.0,410.0,631.0,1.0,0,-51.0,1
379,379,0.18504947255084547,0.2,1.0,1.0,474.0,812.0,1.0,1,1104.0,1
380,380,0.022202827425121807,0.0,0.0,0.0,471.0,697.0,1.0,0,22.0,0
381,381,-0.09172901372594822,-0.1,0.0,1.0,476.0,778.0,1.0,0,-314.0,1
382,382,0.8662256238345049,0.9,1.0,1.0,374.0,798.0,1.0,1,-152.0,1
383,383,-0.6281126093273237,-0.6,1.0,0.0,369.0,707.0,0.0,0,214.0,1
384,384,0.3806061849350434,0.4,0.0,0.0,477.0,803.0,0.0,1,140.0,1
385,385,0.03382652405976694,0.0,0.0,0.0,285.0,857.0,1.0,0,178.0,0
386,386,0.7384592878686275,0.7,1.0,1.0,423.0,619.0,1.0,1,228.0,1
387,387,0.2624930616320603,0.3,1.0,1.0,390.0,602.0,1.0,1,858.0,1
388,388,-0.02680369209247302,-0.0,0.0,1.0,429.0,919.0,0.0,1,172.0,0
389,389,0.7101300174984425,0.7,0.0,0.0,328.0,640.0,0.0,1,322.0,1
390,390,0.5332551893528464,0.5,1.0,1.0,363.0,877.0,1.0,1,90.0,1
391,391,-0.8465390610849928,-0.8,0.0,1.0,356.0,991.0,1.0,0,123.0,1
392,392,0.6440492651879631,0.6,0.0,0.0,279.0,971.0,0.0,1,210.0,1
393,393,0.3306464083979549,0.3,0.0,0.0,317.0,642.0,0.0,1,471.0,1
394,394,0.15681863946750185,0.2,0.0,0.0,497.0,716.0,0.0,1,237.0,1
395,395,-0.2600084052711338,-0.3,0.0,1.0,252.0,926.0,1.0,0,12.0,1
396,396,-0.7423141239775988,-0.7,1.0,0.0,308.0,808.0,0.0,0,214.0,1
397,397,-0.21594473195685238,-0.2,1.0,0.0,312.0,634.0,0.0,0,54.0,1
398,398,-0.4704045983026562,-0.5,1.0,0.0,363.0,703.0,0.0,0,274.0,1
399,399,-0.8307466449939568,-0.8,1.0,0.0,389.0,842.0,0.0,0,189.0,1
400,400,0.7811036474701151,0.8,1.0,1.0,263.0,654.0,1.0,1,213.0,1
401,401,-0.8647652999566233,-0.9,1.0,0.0,352.0,636.0,0.0,0,202.0,1
402,402,-0.699085837479303,-0.7,1.0,0.0,440.0,913.0,0.0,0,267.0,1
403,403,-0.8352116908037527,-0.8,1.0,0.0,272.0,887.0,1.0,1,-449.0,0
404,404,0.5881581824047907,0.6,1.0,1.0,386.0,886.0,1.0,1,378.0,1
405,405,-0.8921488942313222,-0.9,1.0,0.0,321.0,660.0,0.0,0,499.0,1
406,406,-0.3947535408008942,-0.4,0.0,1.0,372.0,689.0,1.0,0,209.0,1
407,407,-0.0013402868373288968,-0.0,0.0,1.0,471.0,867.0,1.0,0,312.0,1
408,408,-0.050227888061646575,-0.1,1.0,0.0,479.0,715.0,1.0,1,1026.0,0
409,409,-0.23887351522875477,-0.2,0.0,1.0,458.0,555.0,1.0,0,897.0,1
410,410,-0.8163105925388559,-0.8,1.0,0.0,282.0,965.0,0.0,0,213.0,1
411,411,0.5133497614915642,0.5,1.0,1.0,339.0,618.0,1.0,1,253.0,1
412,412,-0.5059635899876542,-0.5,0.0,1.0,309.0,706.0,1.0,0,15.0,1
413,413,0.5965106178315555,0.6,0.0,0.0,294.0,697.0,0.0,1,309.0,1
414,414,-0.29105290654420335,-0.3,1.0,0.0,347.0,562.0,0.0,0,1371.0,1
415,415,-0.19397217016569546,-0.2,0.0,1.0,310.0,646.0,0.0,1,84.0,0
416,416,-0.08408460158811237,-0.1,0.0,1.0,306.0,614.0,0.0,1,2080.0,0
417,417,0.8534490070843191,0.9,0.0,0.0,326.0,789.0,1.0,0,-395.0,0
418,418,0.8846977509813566,0.9,0.0,0.0,277.0,691.0,0.0,1,262.0,1
419,419,0.6298419324876975,0.6,0.0,0.0,263.0,851.0,0.0,1,116.0,1
420,420,-0.7747222887238846,-0.8,1.0,0.0,497.0,781.0,1.0,1,-298.0,0
421,421,0.5714674432961543,0.6,1.0,1.0,321.0,695.0,1.0,1,294.0,1
422,422,0.3456405679154245,0.3,1.0,1.0,472.0,939.0,1.0,1,449.0,1
423,423,-0.19840920947470286,-0.2,1.0,0.0,416.0,651.0,0.0,0,1233.0,1
424,424,-0.3749148571301437,-0.4,1.0,0.0,400.0,754.0,0.0,0,1536.0,1
425,425,-0.8291862488330854,-0.8,0.0,1.0,444.0,840.0,1.0,0,-484.0,1
426,426,0.7269188841570425,0.7,1.0,1.0,379.0,898.0,1.0,1,-757.0,1
427,427,0.8088854875998354,0.8,1.0,1.0,401.0,561.0,1.0,1,108.0,1
428,428,0.7142573044874111,0.7,0.0,0.0,440.0,855.0,0.0,1,515.0,1
429,429,0.5823329140427894,0.6,1.0,1.0,338.0,929.0,1.0,1,503.0,1
430,430,-0.43050553750854886,-0.4,0.0,1.0,270.0,990.0,1.0,0,240.0,1
431,431,0.6925480585747791,0.7,0.0,0.0,443.0,587.0,0.0,1,390.0,1
432,432,0.7870757381503272,0.8,1.0,1.0,372.0,874.0,1.0,1,514.0,1
433,433,0.053782968166191214,0.1,1.0,1.0,287.0,738.0,1.0,1,1635.0,1
434,434,0.7539044463045169,0.8,1.0,1.0,461.0,870.0,1.0,1,129.0,1
435,435,-0.31130906947506043,-0.3,0.0,1.0,255.0,947.0,1.0,0,338.0,1
436,436,-0.27965602837398906,-0.3,1.0,0.0,306.0,882.0,1.0,1,-198.0,0
437,437,0.15846766901258602,0.2,1.0,1.0,274.0,529.0,1.0,1,347.0,1
438,438,-0.5983082138530744,-0.6,0.0,1.0,251.0,554.0,1.0,0,325.0,1
439,439,0.662313383648874,0.7,0.0,0.0,292.0,904.0,0.0,1,-236.0,1
440,440,-0.6172712461926755,-0.6,1.0,0.0,483.0,793.0,0.0,0,934.0,1
441,441,-0.45415519846505903,-0.5,0.0,1.0,359.0,931.0,1.0,0,70.0,1
442,442,-0.7287787210970222,-0.7,1.0,0.0,490.0,859.0,0.0,0,-289.0,1
443,443,0.40820794096216295,0.4,1.0,1.0,497.0,982.0,1.0,1,41.0,1
444,444,-0.7534599443752537,-0.8,1.0,0.0,432.0,558.0,0.0,0,350.0,1
445,445,-0.11508835935953565,-0.1,0.0,1.0,391.0,511.0,1.0,0,578.0,1
446,446,0.7527467445343564,0.8,1.0,1.0,269.0,934.0,1.0,1,-473.0,1
447,447,-0.7126634876378043,-0.7,0.0,1.0,321.0,568.0,1.0,0,471.0,1
448,448,-0.1288507827662978,-0.1,0.0,1.0,480.0,573.0,1.0,0,117.0,1
449,449,-0.5929823794675286,-0.6,0.0,1.0,267.0,840.0,1.0,0,53.0,1
450,450,0.8818516150927617,0.9,1.0,1.0,425.0,524.0,1.0,1,141.0,1
451,451,0.2499467467306643,0.2,1.0,1.0,459.0,970.0,1.0,1,711.0,1
452,452,0.06521581448815372,0.1,0.0,0.0,404.0,767.0,0.0,1,1259.0,1
453,453,0.3598755882845982,0.4,1.0,1.0,354.0,963.0,1.0,1,-57.0,1
454,454,0.893537721318069,0.9,0.0,0.0,318.0,962.0,0.0,1,140.0,1
455,455,0.7395245025972036,0.7,0.0,0.0,336.0,591.0,0.0,1,393.0,1
456,456,-0.09702385536458147,-0.1,1.0,0.0,406.0,625.0,0.0,0,1829.0,1
457,457,-0.14963498502648787,-0.1,0.0,1.0,347.0,729.0,1.0,0,-276.0,1
458,458,0.12118174517401215,0.1,0.0,0.0,263.0,757.0,1.0,0,950.0,0
459,459,0.0630156205833794,0.1,0.0,0.0,442.0,940.0,1.0,0,-72.0,0
460,460,0.0065680056014633115,0.0,0.0,0.0,477.0,979.0,0.0,1,354.0,1
461,461,-0.7926586563168747,-0.8,0.0,1.0,281.0,614.0,1.0,0,55.0,1
462,462,-0.3247714583165504,-0.3,0.0,1.0,365.0,787.0,1.0,0,588.0,1
463,463,-0.1787616645681399,-0.2,1.0,0.0,475.0,512.0,0.0,0,343.0,1
464,464,-0.6931122607645503,-0.7,0.0,1.0,329.0,904.0,1.0,0,107.0,1
465,465,-0.6614799760559487,-0.7,0.0,1.0,408.0,728.0,1.0,0,124.0,1
466,466,0.6164288043172074,0.6,1.0,1.0,319.0,869.0,1.0,1,412.0,1
467,467,0.768700913207727,0.8,1.0,1.0,256.0,732.0,1.0,1,252.0,1
468,468,0.6181669407922751,0.6,1.0,1.0,286.0,913.0,1.0,1,201.0,1
469,469,0.47984308432887335,0.5,0.0,0.0,392.0,832.0,0.0,1,236.0,1
470,470,0.7266810037908747,0.7,0.0,0.0,380.0,977.0,0.0,1,873.0,1
471,471,0.30569853673385705,0.3,1.0,1.0,463.0,869.0,1.0,1,768.0,1
472,472,-0.8545622990595544,-0.9,1.0,0.0,363.0,822.0,0.0,0,155.0,1
473,473,-0.8684777787144303,-0.9,1.0,0.0,365.0,788.0,1.0,1,17.0,0
474,474,0.7905263466206213,0.8,0.0,0.0,318.0,587.0,0.0,1,315.0,1
475,475,-0.5850365474898525,-0.6,1.0,0.0,448.0,713.0,0.0,0,399.0,1
476,476,0.8799847179698789,0.9,0.0,0.0,470.0,504.0,0.0,1,-24.0,1
477,477,-0.6574271178530825,-0.7,1.0,0.0,379.0,557.0,0.0,0,364.0,1
478,478,-0.6106848764909891,-0.6,1.0,0.0,400.0,856.0,0.0,0,504.0,1
479,479,-0.7758781374583201,-0.8,0.0,1.0,277.0,648.0,1.0,0,295.0,1
480,480,0.7008363530841687,0.7,0.0,0.0,255.0,924.0,0.0,1,121.0,1
481,481,0.4524402618104276,0.5,0.0,0.0,383.0,859.0,0.0,1,178.0,1
482,482,0.09718728838970037,0.1,0.0,0.0,416.0,792.0,1.0,0,902.0,0
483,483,0.12970095123725744,0.1,1.0,1.0,263.0,685.0,1.0,1,72.0,1
484,484,-0.28067294609173454,-0.3,0.0,1.0,409.0,814.0,1.0,0,287.0,1
485,485,-0.38449167410105467,-0.4,1.0,0.0,463.0,620.0,0.0,0,967.0,1
486,486,-0.4566403563353398,-0.5,0.0,1.0,305.0,697.0,0.0,1,-52.0,0
487,487,0.8336069091296924,0.8,0.0,0.0,371.0,739.0,1.0,0,-30.0,0
488,488,-0.4708035325610193,-0.5,0.0,1.0,252.0,843.0,1.0,0,-105.0,1
489,489,0.3773298173120231,0.4,0.0,0.0,431.0,729.0,1.0,0,-200.0,0
490,490,-0.5367548474871419,-0.5,0.0,1.0,445.0,713.0,1.0,0,152.0,1
491,491,0.5528646356254784,0.6,1.0,1.0,368.0,536.0,1.0,1,436.0,1
492,492,0.35910952641574856,0.4,1.0,1.0,323.0,972.0,1.0,1,595.0,1
493,493,0.13577569147097768,0.1,0.0,0.0,266.0,759.0,0.0,1,715.0,1
494,494,-0.0654061714226355,-0.1,1.0,0.0,475.0,798.0,1.0,1,1237.0,0
495,495,0.7623090197856931,0.8,1.0,1.0,408.0,578.0,1.0,1,74.0,1
496,496,0.4172751308927706,0.4,0.0,0.0,399.0,937.0,1.0,0,264.0,0
497,497,-0.43037868186658934,-0.4,0.0,1.0,394.0,607.0,1.0,0,339.0,1
498,498,-0.007167732851590003,-0.0,1.0,0.0,413.0,958.0,1.0,1,-481.0,0
499,499,0.036443785876858925,0.0,0.0,0.0,362.0,510.0,1.0,0,78.0,0
500,500,-0.4097436313746243,-0.4,0.0,1.0,368.0,884.0,1.0,0,178.0,1
501,501,-0.31250759059204236,-0.3,1.0,0.0,286.0,670.0,0.0,0,1524.0,1
502,502,0.4764641045332173,0.5,0.0,0.0,336.0,570.0,0.0,1,1334.0,1
503,503,-0.7137780201178566,-0.7,0.0,1.0,478.0,571.0,1.0,0,-249.0,1
504,504,0.31752152783673326,0.3,1.0,1.0,366.0,537.0,1.0,1,207.0,1
505,505,0.04322435814050207,0.0,1.0,1.0,452.0,590.0,0.0,0,1228.0,0
506,506,0.5801145667453423,0.6,1.0,1.0,459.0,500.0,1.0,1,391.0,1
507,507,0.39402134734058103,0.4,0.0,0.0,424.0,779.0,0.0,1,217.0,1
508,508,0.5855957159818265,0.6,0.0,0.0,480.0,780.0,0.0,1,230.0,1
509,509,0.6428287631459183,0.6,1.0,1.0,363.0,958.0,1.0,1,409.0,1
510,510,-0.5874067912237981,-0.6,0.0,1.0,319.0,722.0,1.0,0,99.0,1
511,511,-0.13246458225517455,-0.1,0.0,1.0,473.0,850.0,1.0,0,267.0,1
512,512,0.43976021739831095,0.4,0.0,0.0,334.0,769.0,0.0,1,897.0,1
513,513,0.8616329043639747,0.9,0.0,0.0,308.0,886.0,0.0,1,356.0,1
514,514,-0.2662397405717657,-0.3,0.0,1.0,498.0,696.0,1.0,0,226.0,1
515,515,-0.48472232008364025,-0.5,0.0,1.0,485.0,558.0,1.0,0,277.0,1
516,516,-0.8000679844764086,-0.8,0.0,1.0,276.0,516.0,1.0,0,148.0,1
517,517,-0.3132704651775954,-0.3,1.0,0.0,378.0,946.0,0.0,0,486.0,1
518,518,-0.5163367199017797,-0.5,1.0,0.0,493.0,755.0,1.0,1,12.0,0
519,519,0.37768367902676736,0.4,0.0,0.0,380.0,832.0,0.0,1,138.0,1
520,520,-0.683111365443799,-0.7,1.0,0.0,483.0,594.0,0.0,0,413.0,1
521,521,-0.03599348536272862,-0.0,1.0,0.0,339.0,559.0,1.0,1,2102.0,0
522,522,-0.8475971369452892,-0.8,0.0,1.0,303.0,959.0,1.0,0,208.0,1
523,523,-0.5642150692609135,-0.6,0.0,1.0,251.0,540.0,1.0,0,89.0,1
524,524,0.18537005614987467,0.2,1.0,1.0,392.0,868.0,1.0,1,280.0,1
525,525,0.29154889972256315,0.3,1.0,1.0,324.0,683.0,1.0,1,213.0,1
526,526,-0.5540080514786963,-0.6,0.0,1.0,494.0,537.0,1.0,0,119.0,1
527,527,0.7126944711835502,0.7,1.0,1.0,412.0,797.0,1.0,1,121.0,1
528,528,-0.7591495422933857,-0.8,0.0,1.0,492.0,692.0,1.0,0,236.0,1
529,529,0.15666441666310493,0.2,0.0,0.0,499.0,804.0,0.0,1,-433.0,1
530,530,0.7263232262786653,0.7,1.0,1.0,441.0,605.0,1.0,1,4.0,1
531,531,-0.11357831817328234,-0.1,1.0,0.0,298.0,986.0,1.0,1,1716.0,0
532,532,0.19218990978662298,0.2,0.0,0.0,294.0,765.0,0.0,1,1151.0,1
533,533,0.30035167178476263,0.3,1.0,1.0,379.0,639.0,1.0,1,-178.0,1
534,534,-0.4993858407667786,-0.5,0.0,1.0,360.0,553.0,1.0,0,247.0,1
535,535,0.8887739454347666,0.9,0.0,0.0,304.0,786.0,0.0,1,320.0,1
536,536,0.4573826661426582,0.5,1.0,1.0,250.0,820.0,1.0,1,-430.0,1
537,537,-0.6000139183173014,-0.6,1.0,0.0,352.0,546.0,0.0,0,112.0,1
538,538,-0.5673835554874657,-0.6,0.0,1.0,472.0,789.0,1.0,0,379.0,1
539,539,0.5081379908473006,0.5,0.0,0.0,374.0,500.0,0.0,1,586.0,1
540,540,-0.05881549462088109,-0.1,1.0,0.0,482.0,683.0,1.0,1,1675.0,0
541,541,0.17679057143335364,0.2,0.0,0.0,392.0,558.0,0.0,1,640.0,1
542,542,-0.3507290260777385,-0.4,1.0,0.0,492.0,725.0,0.0,0,813.0,1
543,543,-0.24425446878334478,-0.2,0.0,1.0,291.0,933.0,1.0,0,206.0,1
544,544,0.7349228455804601,0.7,0.0,0.0,375.0,932.0,1.0,0,-217.0,0
545,545,-0.06671852361908093,-0.1,0.0,1.0,346.0,761.0,1.0,0,503.0,1
546,546,0.24631349252486634,0.2,0.0,0.0,408.0,896.0,0.0,1,1696.0,1
547,547,0.8450808867842695,0.8,0.0,0.0,358.0,501.0,0.0,1,651.0,1
548,548,-0.74996335020147,-0.7,0.0,1.0,424.0,539.0,1.0,0,167.0,1
549,549,0.8789198886407837,0.9,1.0,1.0,468.0,799.0,1.0,1,-37.0,1
550,550,-0.30073242800520306,-0.3,1.0,0.0,450.0,729.0,0.0,0,1031.0,1
551,551,-0.1780550718414996,-0.2,1.0,0.0,276.0,591.0,0.0,0,943.0,1
552,552,-0.03292689231020385,-0.0,0.0,1.0,436.0,505.0,1.0,0,1099.0,1
553,553,0.20939237074824024,0.2,1.0,1.0,462.0,772.0,1.0,1,1766.0,1
554,554,0.5585096156271782,0.6,0.0,0.0,465.0,822.0,0.0,1,33.0,1
555,555,0.8516363042754168,0.9,0.0,0.0,491.0,722.0,0.0,1,167.0,1
556,556,0.4240603960209911,0.4,0.0,0.0,450.0,756.0,0.0,1,494.0,1
557,557,0.11701299341437521,0.1,1.0,1.0,308.0,717.0,1.0,1,765.0,1
558,558,-0.5153745287128257,-0.5,1.0,0.0,358.0,813.0,0.0,0,219.0,1
559,559,0.528392143294616,0.5,1.0,1.0,396.0,975.0,1.0,1,209.0,1
560,560,0.32725834559081013,0.3,1.0,1.0,255.0,726.0,1.0,1,419.0,1
561,561,0.8787745411199329,0.9,1.0,1.0,314.0,760.0,1.0,1,316.0,1
562,562,0.7985932894003652,0.8,1.0,1.0,425.0,994.0,1.0,1,411.0,1
563,563,0.6596437569717281,0.7,1.0,1.0,251.0,997.0,1.0,1,202.0,1
564,564,0.20819492484256263,0.2,0.0,0.0,473.0,747.0,0.0,1,630.0,1
565,565,0.6385127028728385,0.6,1.0,1.0,314.0,956.0,1.0,1,440.0,1
566,566,-0.7440690990730426,-0.7,0.0,1.0,467.0,809.0,1.0,0,-1026.0,1
567,567,-0.47390803315493757,-0.5,1.0,0.0,446.0,640.0,0.0,0,444.0,1
568,568,-0.8220140149105452,-0.8,0.0,1.0,299.0,553.0,1.0,0,348.0,1
569,569,-0.009538194576044656,-0.0,0.0,1.0,307.0,938.0,0.0,1,455.0,0
570,570,-0.49982275164654566,-0.5,1.0,0.0,427.0,708.0,1.0,1,-325.0,0
571,571,0.08995295685635829,0.1,0.0,0.0,309.0,538.0,1.0,0,423.0,0
572,572,-0.32545512518624864,-0.3,0.0,1.0,385.0,844.0,1.0,0,111.0,1
573,573,0.09966632113180995,0.1,0.0,0.0,315.0,827.0,1.0,0,-152.0,0
574,574,-0.32457779941006704,-0.3,0.0,1.0,446.0,908.0,0.0,1,326.0,0
575,575,-0.7757596095505699,-0.8,1.0,0.0,397.0,993.0,0.0,0,150.0,1
576,576,0.8901555903883739,0.9,1.0,1.0,352.0,685.0,1.0,1,193.0,1
577,577,0.15536049894059667,0.2,0.0,0.0,259.0,837.0,1.0,0,534.0,0
578,578,-0.5097360721943742,-0.5,0.0,1.0,318.0,957.0,1.0,0,-205.0,1
579,579,0.3517095463205461,0.4,0.0,0.0,445.0,954.0,0.0,1,131.0,1
580,580,-0.7835736625690589,-0.8,0.0,1.0,345.0,677.0,1.0,0,-272.0,1
581,581,-0.7253839185744351,-0.7,1.0,0.0,276.0,642.0,0.0,0,362.0,1
582,582,-0.4588616596067385,-0.5,1.0,0.0,415.0,925.0,0.0,0,440.0,1
583,583,0.008617632102928319,0.0,1.0,1.0,259.0,903.0,1.0,1,1558.0,1
584,584,-0.6873011491371049,-0.7,1.0,0.0,487.0,580.0,0.0,0,253.0,1
585,585,-0.020243642962024522,-0.0,1.0,0.0,262.0,893.0,1.0,1,1385.0,0
586,586,-0.4348787844712606,-0.4,1.0,0.0,331.0,732.0,1.0,1,-83.0,0
587,587,0.34450266425595066,0.3,1.0,1.0,316.0,723.0,1.0,1,631.0,1
588,588,0.1772969627544082,0.2,1.0,1.0,451.0,717.0,1.0,1,292.0,1
589,589,0.863765252063483,0.9,0.0,0.0,374.0,886.0,1.0,0,-10.0,0
590,590,0.3732187322922441,0.4,0.0,0.0,328.0,825.0,0.0,1,917.0,1
591,591,-0.7783735717797196,-0.8,0.0,1.0,458.0,873.0,1.0,0,-641.0,1
592,592,-0.7521799943506706,-0.8,0.0,1.0,454.0,564.0,1.0,0,102.0,1
593,593,-0.0054376791998328455,-0.0,1.0,0.0,487.0,912.0,1.0,1,-449.0,0
594,594,-0.3777604307881617,-0.4,0.0,1.0,331.0,884.0,1.0,0,-165.0,1
595,595,-0.07916000049544913,-0.1,1.0,0.0,428.0,514.0,1.0,1,2058.0,0
596,596,0.07352501985263038,0.1,0.0,0.0,446.0,903.0,1.0,0,-219.0,0
597,597,-0.6044724394581419,-0.6,0.0,1.0,338.0,526.0,1.0,0,296.0,1
598,598,0.11825466935765172,0.1,0.0,0.0,454.0,725.0,1.0,0,751.0,0
599,599,-0.26820583739606074,-0.3,1.0,0.0,360.0,509.0,0.0,0,1831.0,1
600,600,-0.4461036217269428,-0.4,0.0,1.0,349.0,601.0,1.0,0,80.0,1
601,601,0.8521372668944468,0.9,1.0,1.0,367.0,572.0,1.0,1,-9.0,1
602,602,-0.7694977537398089,-0.8,0.0,1.0,394.0,626.0,1.0,0,150.0,1
603,603,-0.8038062572162552,-0.8,0.0,1.0,405.0,784.0,1.0,0,201.0,1
604,604,0.4142088797338418,0.4,0.0,0.0,389.0,821.0,0.0,1,20.0,1
605,605,0.4364670886994638,0.4,0.0,0.0,490.0,927.0,0.0,1,553.0,1
606,606,-0.8879108448992985,-0.9,0.0,1.0,434.0,896.0,0.0,1,-340.0,0
607,607,0.5339598998263638,0.5,1.0,1.0,488.0,600.0,1.0,1,232.0,1
608,608,-0.00968649931273402,-0.0,1.0,0.0,268.0,571.0,0.0,0,421.0,1
609,609,-0.5033578100394683,-0.5,1.0,0.0,337.0,952.0,0.0,0,861.0,1
610,610,-0.4680353783157208,-0.5,0.0,1.0,462.0,610.0,1.0,0,248.0,1
611,611,0.27862198744745037,0.3,1.0,1.0,421.0,663.0,1.0,1,1086.0,1
612,612,0.8256141326082637,0.8,0.0,0.0,288.0,744.0,1.0,0,-142.0,0
613,613,0.7414650432231454,0.7,0.0,0.0,253.0,835.0,0.0,1,192.0,1
614,614,-0.15330180978106156,-0.2,1.0,0.0,294.0,647.0,0.0,0,989.0,1
615,615,0.06753147713972407,0.1,0.0,0.0,438.0,898.0,0.0,1,1414.0,1
616,616,-0.1652298431544903,-0.2,0.0,1.0,426.0,602.0,1.0,0,282.0,1
617,617,-0.0394868424650624,-0.0,1.0,0.0,420.0,904.0,0.0,0,1676.0,1
618,618,-0.043866971503997654,-0.0,1.0,0.0,364.0,702.0,1.0,1,364.0,0
619,619,0.8747112084841159,0.9,1.0,1.0,464.0,944.0,1.0,1,282.0,1
620,620,0.5238149724191622,0.5,1.0,1.0,323.0,535.0,1.0,1,452.0,1
621,621,-0.8186061244936291,-0.8,0.0,1.0,276.0,975.0,1.0,0,39.0,1
622,622,-0.37181806967071995,-0.4,1.0,0.0,439.0,872.0,0.0,0,779.0,1
623,623,-0.22630573377588725,-0.2,1.0,0.0,465.0,880.0,0.0,0,435.0,1
624,624,-0.39444305647578404,-0.4,1.0,0.0,341.0,748.0,1.0,1,-89.0,0
625,625,0.3381705812402026,0.3,0.0,0.0,291.0,571.0,0.0,1,1018.0,1
626,626,-0.6850687745066476,-0.7,1.0,0.0,362.0,537.0,0.0,0,381.0,1
627,627,0.612790856024006,0.6,1.0,1.0,440.0,702.0,1.0,1,-42.0,1
628,628,0.34738582370205495,0.3,1.0,1.0,476.0,869.0,1.0,1,245.0,1
629,629,0.4240270539177905,0.4,1.0,1.0,267.0,925.0,1.0,1,128.0,1
630,630,0.8912625410364504,0.9,0.0,0.0,339.0,977.0,0.0,1,84.0,1
631,631,-0.2890617876797199,-0.3,1.0,0.0,394.0,876.0,0.0,0,480.0,1
632,632,-0.38462834786235667,-0.4,0.0,1.0,426.0,894.0,0.0,1,-380.0,0
633,633,0.45296682516711184,0.5,1.0,1.0,274.0,812.0,1.0,1,-256.0,1
634,634,0.8625304226976843,0.9,1.0,1.0,395.0,637.0,1.0,1,-452.0,1
635,635,-0.7899610077762422,-0.8,1.0,0.0,267.0,600.0,0.0,0,573.0,1
636,636,0.26997947913237297,0.3,1.0,1.0,253.0,755.0,1.0,1,172.0,1
637,637,-0.6540717674483031,-0.7,1.0,0.0,483.0,599.0,0.0,0,368.0,1
638,638,0.3642265507903394,0.4,0.0,0.0,386.0,929.0,0.0,1,485.0,1
639,639,0.38694809720913315,0.4,0.0,0.0,302.0,744.0,0.0,1,534.0,1
640,640,-0.7583413474120054,-0.8,0.0,1.0,362.0,953.0,1.0,0,-235.0,1
641,641,0.032392313396104044,0.0,1.0,1.0,320.0,964.0,0.0,0,1716.0,0
642,642,-0.22887817903985241,-0.2,0.0,1.0,386.0,836.0,1.0,0,408.0,1
643,643,0.27502925850784765,0.3,0.0,0.0,457.0,735.0,1.0,0,8.0,0
644,644,0.7721113133771408,0.8,1.0,1.0,448.0,821.0,1.0,1,141.0,1
645,645,0.27965331868736654,0.3,1.0,1.0,371.0,949.0,1.0,1,130.0,1
646,646,0.30503561194201734,0.3,1.0,1.0,339.0,654.0,1.0,1,187.0,1
647,647,-0.5994301917891314,-0.6,0.0,1.0,337.0,691.0,1.0,0,372.0,1
648,648,0.5279683870563462,0.5,1.0,1.0,439.0,681.0,1.0,1,410.0,1
649,649,0.12490263119227907,0.1,0.0,0.0,404.0,715.0,0.0,1,181.0,1
650,650,0.7956329197739304,0.8,0.0,0.0,437.0,739.0,0.0,1,164.0,1
651,651,0.2251249309666551,0.2,1.0,1.0,380.0,834.0,1.0,1,346.0,1
652,652,-0.8839632377266768,-0.9,1.0,0.0,477.0,927.0,0.0,0,306.0,1
653,653,0.06025904535376658,0.1,1.0,1.0,344.0,942.0,0.0,0,-406.0,0
654,654,-0.132821815531175,-0.1,1.0,0.0,492.0,980.0,0.0,0,-462.0,1
655,655,-0.49436339666014323,-0.5,0.0,1.0,396.0,960.0,1.0,0,424.0,1
656,656,-0.5740090424892861,-0.6,0.0,1.0,273.0,645.0,1.0,0,-38.0,1
657,657,0.6498572433889324,0.6,0.0,0.0,449.0,918.0,0.0,1,43.0,1
658,658,0.8534561725730513,0.9,0.0,0.0,422.0,510.0,0.0,1,378.0,1
659,659,0.2594666692017257,0.3,1.0,1.0,279.0,711.0,1.0,1,290.0,1
660,660,0.5629041270892655,0.6,0.0,0.0,252.0,967.0,0.0,1,231.0,1
661,661,0.5304372941347241,0.5,0.0,0.0,252.0,903.0,1.0,0,-345.0,0
662,662,0.8427521552030516,0.8,1.0,1.0,407.0,827.0,1.0,1,176.0,1
663,663,0.47904190092958177,0.5,1.0,1.0,318.0,847.0,1.0,1,255.0,1
664,664,-0.46653046793628533,-0.5,0.0,1.0,256.0,690.0,1.0,0,294.0,1
665,665,0.04989969136117389,0.0,0.0,0.0,446.0,941.0,0.0,1,1613.0,1
666,666,-0.07689197476456178,-0.1,1.0,0.0,326.0,606.0,1.0,1,2018.0,0
667,667,0.764486737020771,0.8,1.0,1.0,485.0,673.0,1.0,1,432.0,1
668,668,0.22558419970613375,0.2,1.0,1.0,462.0,668.0,1.0,1,-840.0,1
669,669,-0.05964793608969299,-0.1,0.0,1.0,476.0,559.0,1.0,0,1675.0,1
670,670,-0.8736070847878441,-0.9,0.0,1.0,356.0,884.0,1.0,0,-240.0,1
671,671,0.7750967124433915,0.8,0.0,0.0,469.0,920.0,0.0,1,-309.0,1
672,672,-0.6610710008673583,-0.7,1.0,0.0,399.0,623.0,0.0,0,288.0,1
673,673,-0.2544337020077483,-0.3,0.0,1.0,268.0,611.0,1.0,0,481.0,1
674,674,0.17292737454165918,0.2,0.0,0.0,316.0,621.0,0.0,1,323.0,1
675,675,0.825996323096479,0.8,1.0,1.0,289.0,748.0,1.0,1,173.0,1
676,676,-0.451032107345022,-0.5,1.0,0.0,387.0,795.0,0.0,0,388.0,1
677,677,0.15517573137590646,0.2,1.0,1.0,498.0,566.0,1.0,1,166.0,1
678,678,-0.4419121127001476,-0.4,1.0,0.0,363.0,762.0,0.0,0,565.0,1
679,679,0.8767157866326835,0.9,0.0,0.0,286.0,953.0,1.0,0,-129.0,0
680,680,0.7201832320635465,0.7,0.0,0.0,428.0,872.0,0.0,1,380.0,1
681,681,-0.7057672196365503,-0.7,1.0,0.0,295.0,846.0,0.0,0,539.0,1
682,682,0.6967876115670052,0.7,1.0,1.0,360.0,948.0,1.0,1,82.0,1
683,683,0.8233762757538069,0.8,1.0,1.0,359.0,822.0,1.0,1,79.0,1
684,684,0.06803539134015635,0.1,1.0,1.0,485.0,635.0,1.0,1,280.0,1
685,685,-0.2918658822182788,-0.3,1.0,0.0,266.0,993.0,0.0,0,451.0,1
686,686,-0.2084876109935515,-0.2,1.0,0.0,406.0,662.0,0.0,0,452.0,1
687,687,0.5893059009389797,0.6,1.0,1.0,459.0,994.0,1.0,1,127.0,1
688,688,0.5136709402440992,0.5,1.0,1.0,356.0,904.0,0.0,0,-70.0,0
689,689,0.12821351999476016,0.1,0.0,0.0,383.0,856.0,1.0,0,-89.0,0
690,690,-0.6493419560565473,-0.6,0.0,1.0,291.0,798.0,1.0,0,91.0,1
691,691,0.29198252855501583,0.3,1.0,1.0,410.0,843.0,1.0,1,587.0,1
692,692,-0.10607403940201832,-0.1,1.0,0.0,328.0,700.0,1.0,1,-188.0,0
693,693,-0.06686105948379861,-0.1,1.0,0.0,270.0,823.0,1.0,1,787.0,0
694,694,0.775102648842836,0.8,0.0,0.0,382.0,707.0,1.0,0,-19.0,0
695,695,0.7223425719020441,0.7,1.0,1.0,389.0,615.0,1.0,1,296.0,1
696,696,-0.40246577582880233,-0.4,0.0,1.0,353.0,788.0,1.0,0,-41.0,1
697,697,-0.6211595234849961,-0.6,0.0,1.0,475.0,962.0,1.0,0,73.0,1
698,698,0.06419235358278752,0.1,1.0,1.0,495.0,587.0,1.0,1,408.0,1
699,699,0.7536153379287928,0.8,0.0,0.0,405.0,929.0,1.0,0,-324.0,0
700,700,0.2614111293252871,0.3,0.0,0.0,254.0,583.0,0.0,1,853.0,1
701,701,0.6916119602630036,0.7,0.0,0.0,355.0,951.0,0.0,1,294.0,1
702,702,0.13075064416137494,0.1,0.0,0.0,486.0,665.0,0.0,1,1079.0,1
703,703,0.5374085677032286,0.5,0.0,0.0,275.0,927.0,0.0,1,298.0,1
704,704,-0.6535380044855768,-0.7,0.0,1.0,418.0,754.0,1.0,0,168.0,1
705,705,-0.8127161009612262,-0.8,0.0,1.0,467.0,835.0,1.0,0,238.0,1
706,706,0.6911893903134704,0.7,1.0,1.0,468.0,972.0,1.0,1,290.0,1
707,707,0.3756360612428641,0.4,1.0,1.0,307.0,528.0,1.0,1,505.0,1
708,708,0.24950446099238432,0.2,0.0,0.0,285.0,577.0,0.0,1,278.0,1
709,709,0.6551354240147872,0.7,0.0,0.0,453.0,757.0,0.0,1,120.0,1
710,710,0.5824818581717236,0.6,0.0,0.0,339.0,616.0,0.0,1,155.0,1
711,711,0.25100122665823965,0.3,0.0,0.0,343.0,896.0,0.0,1,341.0,1
712,712,0.76262523951314,0.8,1.0,1.0,397.0,661.0,1.0,1,142.0,1
713,713,-0.7467366689238353,-0.7,1.0,0.0,462.0,953.0,0.0,0,225.0,1
714,714,0.30321201178674795,0.3,1.0,1.0,497.0,538.0,1.0,1,455.0,1
715,715,-0.7331490894127562,-0.7,0.0,1.0,391.0,709.0,1.0,0,200.0,1
716,716,-0.4860404598853963,-0.5,0.0,1.0,329.0,616.0,1.0,0,295.0,1
717,717,0.5653729959295054,0.6,1.0,1.0,415.0,725.0,1.0,1,640.0,1
718,718,-0.44965204545741677,-0.4,0.0,1.0,356.0,828.0,1.0,0,226.0,1
719,719,-0.36797889968659525,-0.4,0.0,1.0,393.0,712.0,1.0,0,665.0,1
720,720,0.17273597707479393,0.2,0.0,0.0,372.0,580.0,0.0,1,1078.0,1
721,721,0.4748250137981337,0.5,0.0,0.0,307.0,815.0,0.0,1,318.0,1
722,722,-0.6320115534318209,-0.6,0.0,1.0,273.0,911.0,1.0,0,76.0,1
723,723,-0.8102751319147464,-0.8,1.0,0.0,294.0,964.0,0.0,0,132.0,1
724,724,-0.7602036770060059,-0.8,0.0,1.0,282.0,657.0,1.0,0,171.0,1
725,725,0.7785982598462339,0.8,0.0,0.0,409.0,747.0,0.0,1,114.0,1
726,726,0.6119532610000543,0.6,0.0,0.0,398.0,986.0,0.0,1,306.0,1
727,727,-0.020785086180773016,-0.0,0.0,1.0,474.0,899.0,0.0,1,1627.0,0
728,728,0.39525225143187115,0.4,1.0,1.0,269.0,620.0,1.0,1,561.0,1
729,729,0.6679934295476416,0.7,0.0,0.0,494.0,563.0,0.0,1,213.0,1
730,730,0.6755062188975359,0.7,1.0,1.0,361.0,621.0,1.0,1,358.0,1
731,731,-0.8852995940074646,-0.9,0.0,1.0,358.0,507.0,1.0,0,85.0,1
732,732,-0.6946307110564938,-0.7,0.0,1.0,385.0,523.0,1.0,0,102.0,1
733,733,-0.5868103131202995,-0.6,1.0,0.0,479.0,637.0,0.0,0,194.0,1
734,734,0.7669947829910947,0.8,0.0,0.0,312.0,760.0,0.0,1,258.0,1
735,735,-0.13669535172760106,-0.1,1.0,0.0,261.0,600.0,0.0,0,809.0,1
736,736,0.30050575818128145,0.3,0.0,0.0,263.0,564.0,0.0,1,453.0,1
737,737,-0.08418188703246843,-0.1,0.0,1.0,385.0,601.0,1.0,0,234.0,1
738,738,0.7670885052028084,0.8,0.0,0.0,310.0,762.0,0.0,1,368.0,1
739,739,0.2785945597762317,0.3,1.0,1.0,448.0,858.0,1.0,1,224.0,1
740,740,-0.6599132536384106,-0.7,0.0,1.0,365.0,680.0,1.0,0,255.0,1
741,741,0.15307235600246527,0.2,1.0,1.0,440.0,510.0,1.0,1,300.0,1
742,742,0.7251698781925034,0.7,0.0,0.0,475.0,813.0,0.0,1,262.0,1
743,743,-0.5736633343958726,-0.6,0.0,1.0,487.0,836.0,1.0,0,237.0,1
744,744,0.6702776223715884,0.7,1.0,1.0,417.0,632.0,1.0,1,191.0,1
745,745,0.24695275519474846,0.2,0.0,0.0,436.0,685.0,0.0,1,1179.0,1
746,746,0.7683130279637059,0.8,1.0,1.0,342.0,600.0,1.0,1,278.0,1
747,747,-0.6645689390968281,-0.7,0.0,1.0,284.0,594.0,1.0,0,112.0,1
748,748,0.13397003927226747,0.1,1.0,1.0,433.0,988.0,1.0,1,89.0,1
749,749,-0.8854279820793124,-0.9,1.0,0.0,434.0,771.0,0.0,0,145.0,1
750,750,-0.2317094261896977,-0.2,0.0,1.0,463.0,598.0,0.0,1,-181.0,0
751,751,-0.1679991551688279,-0.2,0.0,1.0,420.0,883.0,1.0,0,577.0,1
752,752,-0.6573993569396887,-0.7,0.0,1.0,265.0,778.0,1.0,0,-43.0,1
753,753,0.16400474750422023,0.2,0.0,0.0,401.0,976.0,0.0,1,553.0,1
754,754,0.48788939188595204,0.5,0.0,0.0,269.0,970.0,0.0,1,231.0,1
755,755,0.05779045058420029,0.1,1.0,1.0,424.0,853.0,1.0,1,723.0,1
756,756,-0.4976119523961899,-0.5,1.0,0.0,498.0,900.0,0.0,0,592.0,1
757,757,0.8113996160647824,0.8,1.0,1.0,485.0,872.0,1.0,1,143.0,1
758,758,-0.3989867154516906,-0.4,1.0,0.0,271.0,673.0,0.0,0,866.0,1
759,759,-0.40042918030343777,-0.4,0.0,1.0,303.0,524.0,1.0,0,153.0,1
760,760,-0.203455901102638,-0.2,1.0,0.0,300.0,564.0,1.0,1,-214.0,0
761,761,-0.2948246343690809,-0.3,1.0,0.0,462.0,578.0,0.0,0,670.0,1
762,762,-0.5412734691376255,-0.5,0.0,1.0,250.0,774.0,0.0,1,-324.0,0
763,763,0.7673204021633296,0.8,1.0,1.0,290.0,801.0,1.0,1,-331.0,1
764,764,-0.27352556523682015,-0.3,1.0,0.0,452.0,808.0,0.0,0,1740.0,1
765,765,-0.35552830927187373,-0.4,0.0,1.0,417.0,781.0,1.0,0,592.0,1
766,766,-0.051860692142749576,-0.1,1.0,0.0,267.0,532.0,0.0,0,401.0,1
767,767,-0.3312288453718252,-0.3,1.0,0.0,254.0,755.0,0.0,0,631.0,1
768,768,0.7555749172845095,0.8,1.0,1.0,486.0,805.0,1.0,1,339.0,1
769,769,0.3946327896819425,0.4,0.0,0.0,303.0,772.0,0.0,1,615.0,1
770,770,0.1300810288384594,0.1,1.0,1.0,250.0,890.0,1.0,1,1060.0,1
771,771,-0.6218627562486312,-0.6,1.0,0.0,437.0,750.0,1.0,1,-187.0,0
772,772,-0.0002976211715992605,-0.0,1.0,0.0,275.0,699.0,0.0,0,506.0,1
773,773,0.12666929080216127,0.1,0.0,0.0,367.0,583.0,0.0,1,740.0,1
774,774,0.8367883417521279,0.8,0.0,0.0,378.0,759.0,0.0,1,403.0,1
775,775,0.7412190331999035,0.7,1.0,1.0,380.0,894.0,1.0,1,136.0,1
776,776,0.3832180011548806,0.4,1.0,1.0,252.0,856.0,1.0,1,492.0,1
777,777,-0.11858480255565007,-0.1,1.0,0.0,375.0,897.0,0.0,0,1568.0,1
778,778,0.5917249931750094,0.6,1.0,1.0,292.0,827.0,1.0,1,451.0,1
779,779,0.5374260815477615,0.5,0.0,0.0,440.0,758.0,0.0,1,372.0,1
780,780,-0.4610155830812651,-0.5,0.0,1.0,422.0,912.0,1.0,0,-324.0,1
781,781,-0.7828693554032239,-0.8,0.0,1.0,370.0,572.0,1.0,0,188.0,1
782,782,0.3591757848571272,0.4,0.0,0.0,356.0,846.0,1.0,0,-122.0,0
783,783,0.7381609706664921,0.7,0.0,0.0,443.0,948.0,0.0,1,159.0,1
784,784,0.514290566259081,0.5,0.0,0.0,277.0,924.0,1.0,0,-21.0,0
785,785,-0.8332828048698248,-0.8,1.0,0.0,260.0,719.0,1.0,1,-119.0,0
786,786,0.791342620046949,0.8,0.0,0.0,437.0,577.0,1.0,0,-134.0,0
787,787,0.5137404439954464,0.5,0.0,0.0,257.0,524.0,0.0,1,269.0,1
788,788,-0.114613822814425,-0.1,0.0,1.0,462.0,601.0,1.0,0,587.0,1
789,789,-0.5813121951470244,-0.6,1.0,0.0,327.0,926.0,0.0,0,367.0,1
790,790,0.18409761324796514,0.2,1.0,1.0,325.0,524.0,1.0,1,661.0,1
791,791,0.29439883655109045,0.3,0.0,0.0,266.0,688.0,0.0,1,656.0,1
792,792,-0.1735473573006665,-0.2,0.0,1.0,365.0,754.0,1.0,0,531.0,1
793,793,-0.7472373069741803,-0.7,1.0,0.0,456.0,536.0,0.0,0,138.0,1
794,794,0.5263576474824584,0.5,1.0,1.0,395.0,785.0,1.0,1,0.0,1
795,795,0.5468098084338634,0.5,1.0,1.0,433.0,955.0,1.0,1,232.0,1
796,796,0.8070568877739103,0.8,1.0,1.0,476.0,785.0,1.0,1,129.0,1
797,797,0.0992851664955765,0.1,1.0,1.0,460.0,611.0,1.0,1,609.0,1
798,798,-0.5438919452194585,-0.5,1.0,0.0,319.0,531.0,0.0,0,610.0,1
799,799,0.7587771643189919,0.8,1.0,1.0,332.0,772.0,1.0,1,316.0,1
800,800,0.5273791920271728,0.5,1.0,1.0,442.0,855.0,1.0,1,593.0,1
801,801,0.24139000498908925,0.2,1.0,1.0,315.0,822.0,1.0,1,883.0,1
802,802,-0.1698797006193058,-0.2,0.0,1.0,328.0,635.0,1.0,0,67.0,1
803,803,-0.5494391063805717,-0.5,1.0,0.0,484.0,561.0,0.0,0,675.0,1
804,804,-0.43055167392234023,-0.4,0.0,1.0,355.0,546.0,1.0,0,109.0,1
805,805,0.7243858647636282,0.7,1.0,1.0,338.0,792.0,1.0,1,100.0,1
806,806,-0.2631972852986175,-0.3,0.0,1.0,281.0,863.0,1.0,0,96.0,1
807,807,0.10451655677135474,0.1,1.0,1.0,343.0,549.0,1.0,1,358.0,1
808,808,0.7069526475967806,0.7,0.0,0.0,316.0,962.0,0.0,1,192.0,1
809,809,0.8203582892236053,0.8,1.0,1.0,458.0,710.0,1.0,1,62.0,1
810,810,0.3075879625644643,0.3,0.0,0.0,340.0,978.0,0.0,1,-208.0,1
811,811,-0.5011513061988702,-0.5,0.0,1.0,430.0,868.0,1.0,0,52.0,1
812,812,0.39671692247140544,0.4,1.0,1.0,471.0,818.0,1.0,1,471.0,1
813,813,0.7811036918239939,0.8,1.0,1.0,304.0,557.0,1.0,1,139.0,1
814,814,-0.07979966084917878,-0.1,0.0,1.0,355.0,528.0,1.0,0,387.0,1
815,815,-0.12832264675588279,-0.1,0.0,1.0,286.0,563.0,1.0,0,361.0,1
816,816,0.31404629819388263,0.3,1.0,1.0,306.0,513.0,1.0,1,461.0,1
817,817,0.5249440055488604,0.5,1.0,1.0,306.0,919.0,1.0,1,145.0,1
818,818,-0.07951286700618854,-0.1,0.0,1.0,425.0,747.0,1.0,0,228.0,1
819,819,0.19540763203946632,0.2,0.0,0.0,394.0,619.0,1.0,0,-343.0,0
820,820,-0.7068661434882286,-0.7,1.0,0.0,279.0,818.0,0.0,0,443.0,1
821,821,0.4476806273492556,0.4,0.0,0.0,439.0,577.0,1.0,0,-456.0,0
822,822,-0.2048480965538526,-0.2,0.0,1.0,422.0,907.0,1.0,0,641.0,1
823,823,0.6999527525011632,0.7,0.0,0.0,415.0,586.0,0.0,1,289.0,1
824,824,-0.18161923253681123,-0.2,1.0,0.0,258.0,566.0,1.0,1,1256.0,0
825,825,0.09993507527954859,0.1,0.0,0.0,360.0,661.0,1.0,0,-61.0,0
826,826,0.7421467406134213,0.7,1.0,1.0,261.0,694.0,1.0,1,155.0,1
827,827,0.5292295197728779,0.5,1.0,1.0,374.0,647.0,1.0,1,109.0,1
828,828,-0.5584084805629217,-0.6,1.0,0.0,435.0,620.0,0.0,0,125.0,1
829,829,0.11550299058010094,0.1,0.0,0.0,388.0,946.0,1.0,0,-154.0,0
830,830,0.753653478738551,0.8,1.0,1.0,487.0,687.0,1.0,1,176.0,1
831,831,0.7576305651253569,0.8,0.0,0.0,456.0,724.0,0.0,1,320.0,1
832,832,0.49443680696515335,0.5,1.0,1.0,397.0,711.0,1.0,1,472.0,1
833,833,-0.1574720279627846,-0.2,1.0,0.0,278.0,659.0,1.0,1,1173.0,0
834,834,-0.6223083369160314,-0.6,0.0,1.0,312.0,587.0,1.0,0,211.0,1
835,835,0.10196441012893154,0.1,1.0,1.0,266.0,810.0,1.0,1,724.0,1
836,836,-0.6544898792929182,-0.7,0.0,1.0,280.0,684.0,1.0,0,86.0,1
837,837,-0.3234047160866851,-0.3,1.0,0.0,301.0,805.0,0.0,0,1354.0,1
838,838,-0.31711174877397175,-0.3,1.0,0.0,472.0,700.0,0.0,0,1118.0,1
839,839,0.3025602142084204,0.3,0.0,0.0,473.0,675.0,1.0,0,-158.0,0
840,840,0.8484534992043528,0.8,1.0,1.0,482.0,656.0,1.0,1,102.0,1
841,841,0.3894007260545781,0.4,0.0,0.0,424.0,894.0,1.0,0,-98.0,0
842,842,0.855409294191502,0.9,1.0,1.0,336.0,803.0,1.0,1,131.0,1
843,843,-0.23314221521058898,-0.2,0.0,1.0,341.0,729.0,1.0,0,100.0,1
844,844,0.7712807139784433,0.8,1.0,1.0,272.0,680.0,1.0,1,208.0,1
845,845,0.062085525875074765,0.1,0.0,0.0,468.0,948.0,0.0,1,-306.0,1
846,846,-0.7387928336517905,-0.7,0.0,1.0,327.0,799.0,1.0,0,154.0,1
847,847,0.04704615503021947,0.0,0.0,0.0,443.0,682.0,0.0,1,435.0,1
848,848,0.7117053697206025,0.7,1.0,1.0,381.0,520.0,1.0,1,199.0,1
849,849,-0.18996389827373905,-0.2,0.0,1.0,292.0,789.0,1.0,0,1169.0,1
850,850,-0.6387601144172237,-0.6,1.0,0.0,401.0,835.0,0.0,0,314.0,1
851,851,-0.2683923111221883,-0.3,1.0,0.0,293.0,926.0,0.0,0,831.0,1
852,852,-0.20283911632844775,-0.2,1.0,0.0,304.0,996.0,0.0,0,-200.0,1
853,853,-0.054909061827959516,-0.1,1.0,0.0,303.0,539.0,1.0,1,578.0,0
854,854,0.21743237913183566,0.2,1.0,1.0,380.0,778.0,1.0,1,462.0,1
855,855,0.6936948195209224,0.7,0.0,0.0,324.0,510.0,0.0,1,636.0,1
856,856,-0.8629398619853553,-0.9,0.0,1.0,355.0,955.0,1.0,0,120.0,1
857,857,0.7766836147465147,0.8,1.0,1.0,372.0,954.0,1.0,1,754.0,1
858,858,0.10354304183167107,0.1,0.0,0.0,270.0,964.0,0.0,1,496.0,1
859,859,0.8387852906752195,0.8,0.0,0.0,428.0,980.0,0.0,1,132.0,1
860,860,0.44960324186663614,0.4,1.0,1.0,402.0,737.0,1.0,1,411.0,1
861,861,0.24343334882697476,0.2,0.0,0.0,349.0,797.0,0.0,1,1124.0,1
862,862,0.6895786648055579,0.7,0.0,0.0,447.0,671.0,0.0,1,292.0,1
863,863,0.6053172193797077,0.6,0.0,0.0,439.0,648.0,1.0,0,153.0,0
864,864,-0.33183193044980785,-0.3,1.0,0.0,260.0,768.0,0.0,0,262.0,1
865,865,-0.8243398513528118,-0.8,1.0,0.0,431.0,525.0,1.0,1,-46.0,0
866,866,0.020666435579008935,0.0,1.0,1.0,348.0,655.0,1.0,1,1467.0,1
867,867,0.49311898705405655,0.5,1.0,1.0,479.0,900.0,1.0,1,281.0,1
868,868,-0.39477881566785,-0.4,0.0,1.0,375.0,731.0,1.0,0,224.0,1
869,869,0.24416728683015,0.2,1.0,1.0,355.0,778.0,1.0,1,107.0,1
870,870,-0.5269649183682579,-0.5,0.0,1.0,481.0,568.0,1.0,0,281.0,1
871,871,0.19992555251782018,0.2,1.0,1.0,275.0,727.0,1.0,1,588.0,1
872,872,-0.7034808430693247,-0.7,0.0,1.0,457.0,929.0,1.0,0,-556.0,1
873,873,0.687122814295228,0.7,1.0,1.0,275.0,723.0,1.0,1,92.0,1
874,874,-0.17199219973542068,-0.2,0.0,1.0,373.0,809.0,1.0,0,-172.0,1
875,875,-0.5400731452400656,-0.5,1.0,0.0,375.0,705.0,0.0,0,130.0,1
876,876,0.7130899292280745,0.7,0.0,0.0,378.0,711.0,0.0,1,91.0,1
877,877,0.3428382726836706,0.3,1.0,1.0,466.0,618.0,1.0,1,736.0,1
878,878,0.8273425870627208,0.8,1.0,1.0,256.0,537.0,1.0,1,307.0,1
879,879,-0.801407157516522,-0.8,1.0,0.0,312.0,536.0,1.0,1,-228.0,0
880,880,0.5981670907733884,0.6,0.0,0.0,351.0,856.0,0.0,1,83.0,1
881,881,0.526560405007826,0.5,0.0,0.0,394.0,531.0,0.0,1,355.0,1
882,882,-0.6981632533105924,-0.7,0.0,1.0,436.0,846.0,1.0,0,148.0,1
883,883,-0.35771249655780724,-0.4,0.0,1.0,387.0,953.0,1.0,0,350.0,1
884,884,0.7614526181952271,0.8,0.0,0.0,399.0,911.0,1.0,0,-60.0,0
885,885,-0.6699726009686651,-0.7,1.0,0.0,263.0,531.0,0.0,0,406.0,1
886,886,0.1356994819339724,0.1,0.0,0.0,492.0,839.0,0.0,1,349.0,1
887,887,-0.6166334395925819,-0.6,0.0,1.0,467.0,586.0,1.0,0,287.0,1
888,888,0.5544899542653393,0.6,0.0,0.0,251.0,973.0,0.0,1,406.0,1
889,889,0.12480335352122929,0.1,1.0,1.0,273.0,791.0,1.0,1,246.0,1
890,890,0.5587748167190852,0.6,0.0,0.0,459.0,984.0,0.0,1,107.0,1
891,891,0.07441637171968019,0.1,0.0,0.0,376.0,678.0,1.0,0,-344.0,0
892,892,0.6553023021879741,0.7,1.0,1.0,265.0,610.0,1.0,1,385.0,1
893,893,-0.7392204356352148,-0.7,1.0,0.0,274.0,750.0,0.0,0,136.0,1
894,894,0.3813166790565544,0.4,0.0,0.0,406.0,923.0,0.0,1,571.0,1
895,895,-0.21845851830877105,-0.2,1.0,0.0,467.0,918.0,1.0,1,25.0,0
896,896,-0.8115399907708254,-0.8,1.0,0.0,473.0,917.0,0.0,0,380.0,1
897,897,0.8433839543415359,0.8,1.0,1.0,309.0,680.0,1.0,1,301.0,1
898,898,0.5252197382797043,0.5,0.0,0.0,312.0,790.0,0.0,1,348.0,1
899,899,0.5748975127886634,0.6,1.0,1.0,374.0,784.0,1.0,1,642.0,1
900,900,-0.7537993133812712,-0.8,0.0,1.0,446.0,571.0,1.0,0,-947.0,1
901,901,0.8953068232080562,0.9,1.0,1.0,455.0,698.0,1.0,1,87.0,1
902,902,0.41060545669623416,0.4,0.0,0.0,289.0,971.0,0.0,1,40.0,1
903,903,0.12800180102451486,0.1,0.0,0.0,303.0,764.0,1.0,0,113.0,0
904,904,0.3160494413326863,0.3,0.0,0.0,361.0,981.0,0.0,1,238.0,1
905,905,-0.4257714906591127,-0.4,0.0,1.0,264.0,884.0,1.0,0,242.0,1
906,906,-0.46714603728637444,-0.5,0.0,1.0,353.0,807.0,0.0,1,-390.0,0
907,907,-0.6848060498337712,-0.7,1.0,0.0,397.0,591.0,0.0,0,352.0,1
908,908,-0.6931570467450691,-0.7,1.0,0.0,478.0,817.0,0.0,0,485.0,1
909,909,0.2970189732724141,0.3,1.0,1.0,260.0,904.0,1.0,1,876.0,1
910,910,0.7275574427286137,0.7,0.0,0.0,478.0,870.0,1.0,0,-198.0,0
911,911,0.8089502734026285,0.8,0.0,0.0,480.0,802.0,0.0,1,348.0,1
912,912,0.7888551637685987,0.8,0.0,0.0,460.0,663.0,0.0,1,187.0,1
913,913,0.08736076419679883,0.1,0.0,0.0,480.0,927.0,1.0,0,-357.0,0
914,914,0.3636467775996538,0.4,1.0,1.0,453.0,942.0,1.0,1,-395.0,1
915,915,-0.17575566863156666,-0.2,0.0,1.0,448.0,504.0,1.0,0,778.0,1
916,916,0.25997352347126934,0.3,1.0,1.0,315.0,839.0,1.0,1,1146.0,1
917,917,-0.8849377650409275,-0.9,1.0,0.0,338.0,871.0,0.0,0,181.0,1
918,918,-0.7173071316975389,-0.7,1.0,0.0,298.0,895.0,0.0,0,97.0,1
919,919,0.022943711122578092,0.0,0.0,0.0,264.0,756.0,1.0,0,690.0,0
920,920,-0.742128908626364,-0.7,1.0,0.0,474.0,885.0,0.0,0,781.0,1
921,921,0.24504995234960425,0.2,0.0,0.0,415.0,529.0,0.0,1,386.0,1
922,922,0.7679122070125585,0.8,0.0,0.0,332.0,913.0,0.0,1,-295.0,1
923,923,0.1201963654083279,0.1,0.0,0.0,428.0,505.0,1.0,0,-3.0,0
924,924,0.07992169632537871,0.1,1.0,1.0,417.0,876.0,1.0,1,1397.0,1
925,925,0.06318965450180802,0.1,0.0,0.0,414.0,602.0,0.0,1,574.0,1
926,926,0.017515238188755,0.0,0.0,0.0,328.0,593.0,0.0,1,249.0,1
927,927,-0.37290807496966627,-0.4,0.0,1.0,487.0,500.0,1.0,0,1003.0,1
928,928,-0.1081069684520024,-0.1,0.0,1.0,300.0,848.0,1.0,0,-248.0,1
929,929,-0.536700338088085,-0.5,0.0,1.0,271.0,628.0,1.0,0,271.0,1
930,930,0.5808237425536981,0.6,0.0,0.0,458.0,836.0,0.0,1,-644.0,1
931,931,0.27956473460797204,0.3,0.0,0.0,414.0,713.0,1.0,0,-137.0,0
932,932,-0.7724426156706925,-0.8,1.0,0.0,470.0,917.0,0.0,0,83.0,1
933,933,0.5267376207803919,0.5,1.0,1.0,321.0,677.0,1.0,1,492.0,1
934,934,-0.42821904303902575,-0.4,0.0,1.0,354.0,701.0,1.0,0,35.0,1
935,935,-0.33196599219729084,-0.3,0.0,1.0,440.0,616.0,1.0,0,124.0,1
936,936,-0.23198965488263212,-0.2,0.0,1.0,416.0,589.0,1.0,0,655.0,1
937,937,-0.1563354162999061,-0.2,1.0,0.0,316.0,813.0,0.0,0,1871.0,1
938,938,0.2697828315027365,0.3,1.0,1.0,463.0,740.0,1.0,1,447.0,1
939,939,-0.7427285707153932,-0.7,0.0,1.0,277.0,949.0,1.0,0,154.0,1
940,940,0.48179826583483665,0.5,0.0,0.0,416.0,883.0,0.0,1,431.0,1
941,941,0.6240213627087309,0.6,0.0,0.0,264.0,916.0,0.0,1,50.0,1
942,942,-0.7797476688773647,-0.8,1.0,0.0,457.0,833.0,0.0,0,270.0,1
943,943,0.09278272977676938,0.1,0.0,0.0,306.0,803.0,1.0,0,621.0,0
944,944,0.460632512440983,0.5,0.0,0.0,462.0,831.0,1.0,0,-123.0,0
945,945,0.44051863786070256,0.4,0.0,0.0,374.0,870.0,0.0,1,136.0,1
946,946,-0.7098067010012263,-0.7,1.0,0.0,294.0,741.0,0.0,0,505.0,1
947,947,-0.8455830085387228,-0.8,1.0,0.0,284.0,735.0,0.0,0,341.0,1
948,948,0.8147709546918117,0.8,1.0,1.0,420.0,600.0,1.0,1,110.0,1
949,949,-0.5979043425249247,-0.6,0.0,1.0,305.0,610.0,1.0,0,325.0,1
950,950,-0.8791880293832198,-0.9,1.0,0.0,426.0,797.0,0.0,0,187.0,1
951,951,0.09174963728759822,0.1,1.0,1.0,311.0,732.0,1.0,1,267.0,1
952,952,-0.5935330694831621,-0.6,1.0,0.0,261.0,947.0,0.0,0,292.0,1
953,953,-0.8341353159025767,-0.8,1.0,0.0,331.0,974.0,0.0,0,235.0,1
954,954,-0.1819261291501526,-0.2,0.0,1.0,306.0,516.0,1.0,0,128.0,1
955,955,0.44772538931286865,0.4,1.0,1.0,396.0,704.0,0.0,0,-40.0,0
956,956,-0.5137179960097389,-0.5,0.0,1.0,378.0,926.0,1.0,0,96.0,1
957,957,0.09820877197811151,0.1,0.0,0.0,481.0,620.0,1.0,0,-1.0,0
958,958,-0.030421091043700832,-0.0,0.0,1.0,269.0,535.0,1.0,0,216.0,1
959,959,0.12566134724451106,0.1,1.0,1.0,353.0,790.0,1.0,1,217.0,1
960,960,0.4074207745726489,0.4,0.0,0.0,306.0,769.0,0.0,1,145.0,1
961,961,0.5196775312884788,0.5,0.0,0.0,411.0,657.0,0.0,1,562.0,1
962,962,-0.3107518010143736,-0.3,0.0,1.0,305.0,582.0,1.0,0,153.0,1
963,963,-0.7198439252964253,-0.7,1.0,0.0,281.0,927.0,0.0,0,382.0,1
964,964,-0.81069658795153,-0.8,0.0,1.0,477.0,724.0,1.0,0,79.0,1
965,965,-0.7727305300055056,-0.8,1.0,0.0,253.0,658.0,0.0,0,329.0,1
966,966,-0.657339863731223,-0.7,1.0,0.0,399.0,623.0,0.0,0,238.0,1
967,967,0.3201521022570678,0.3,0.0,0.0,394.0,747.0,0.0,1,1859.0,1
968,968,0.8972126119851026,0.9,1.0,1.0,325.0,850.0,1.0,1,235.0,1
969,969,-0.7411507800390131,-0.7,0.0,1.0,324.0,695.0,1.0,0,51.0,1
970,970,-0.2671351986232363,-0.3,0.0,1.0,482.0,900.0,0.0,1,38.0,0
971,971,-0.7288469021303365,-0.7,1.0,0.0,348.0,798.0,0.0,0,144.0,1
972,972,-0.46245622566610806,-0.5,0.0,1.0,406.0,973.0,1.0,0,351.0,1
973,973,-0.07964526100073865,-0.1,0.0,1.0,294.0,661.0,1.0,0,245.0,1
974,974,-0.5980289123343818,-0.6,0.0,1.0,269.0,720.0,1.0,0,81.0,1
975,975,0.13948876282739897,0.1,0.0,0.0,292.0,819.0,0.0,1,79.0,1
976,976,0.6821899832247739,0.7,1.0,1.0,282.0,544.0,1.0,1,614.0,1
977,977,-0.5107410246990375,-0.5,0.0,1.0,329.0,824.0,1.0,0,477.0,1
978,978,-0.02702042041118602,-0.0,1.0,0.0,406.0,780.0,1.0,1,-1086.0,0
979,979,-0.3192657866989984,-0.3,1.0,0.0,351.0,805.0,0.0,0,1844.0,1
980,980,-0.3052545486681081,-0.3,0.0,1.0,394.0,894.0,1.0,0,172.0,1
981,981,-0.8543101614641475,-0.9,1.0,0.0,291.0,573.0,0.0,0,216.0,1
982,982,-0.6194043936116128,-0.6,0.0,1.0,321.0,648.0,1.0,0,61.0,1
983,983,-0.7497360331179692,-0.7,0.0,1.0,395.0,876.0,1.0,0,219.0,1
984,984,0.46430749063509646,0.5,0.0,0.0,488.0,701.0,0.0,1,421.0,1
985,985,-0.5351176769045871,-0.5,0.0,1.0,414.0,810.0,1.0,0,496.0,1
986,986,0.16343339746818775,0.2,0.0,0.0,458.0,802.0,1.0,0,-290.0,0
987,987,0.7643380954445732,0.8,0.0,0.0,320.0,562.0,0.0,1,318.0,1
988,988,0.5836881508960722,0.6,1.0,1.0,470.0,761.0,1.0,1,199.0,1
989,989,-0.21620809716460054,-0.2,1.0,0.0,346.0,621.0,1.0,1,933.0,0
990,990,0.5869831312464348,0.6,0.0,0.0,270.0,885.0,0.0,1,595.0,1
991,991,0.8447162113608585,0.8,1.0,1.0,467.0,634.0,1.0,1,99.0,1
992,992,-0.04118268560713367,-0.0,0.0,1.0,456.0,696.0,1.0,0,168.0,1
993,993,0.10573651507811632,0.1,1.0,1.0,360.0,724.0,1.0,1,76.0,1
994,994,-0.33864856962988055,-0.3,0.0,1.0,272.0,782.0,1.0,0,456.0,1
995,995,0.22688563176246246,0.2,1.0,1.0,251.0,656.0,1.0,1,-157.0,1
996,996,0.18660789129574507,0.2,0.0,0.0,389.0,529.0,0.0,1,772.0,1
997,997,-0.2606260616645465,-0.3,0.0,1.0,317.0,992.0,1.0,0,-189.0,1
998,998,-0.49199683349849616,-0.5,1.0,0.0,435.0,806.0,0.0,0,889.0,1
999,999,-0.678868102363292,-0.7,1.0,0.0,263.0,943.0,0.0,0,534.0,1
1000,1000,-0.035715490677001416,-0.0,0.0,1.0,317.0,680.0,1.0,0,913.0,1
1001,1001,-0.012442550800719765,-0.0,1.0,0.0,413.0,656.0,1.0,1,331.0,0
1002,1002,0.5584953523418078,0.6,1.0,1.0,383.0,679.0,1.0,1,218.0,1
1003,1003,-0.07986188043184683,-0.1,0.0,1.0,270.0,683.0,0.0,1,137.0,0
1004,1004,0.5376735689429625,0.5,0.0,0.0,337.0,731.0,0.0,1,232.0,1
1005,1005,0.1606029952635163,0.2,0.0,0.0,362.0,783.0,0.0,1,-265.0,1
1006,1006,0.7853500316824625,0.8,0.0,0.0,481.0,669.0,0.0,1,380.0,1
1007,1007,0.6813752967029935,0.7,1.0,1.0,291.0,520.0,1.0,1,329.0,1
1008,1008,-0.31277477146156374,-0.3,1.0,0.0,261.0,715.0,0.0,0,744.0,1
1009,1009,-0.46414230748767127,-0.5,0.0,1.0,276.0,953.0,1.0,0,481.0,1
1010,1010,0.5439595269801977,0.5,0.0,0.0,398.0,719.0,1.0,0,-137.0,0
1011,1011,-0.2081799509867165,-0.2,1.0,0.0,310.0,751.0,0.0,0,819.0,1
1012,1012,0.8621382170056086,0.9,1.0,1.0,309.0,811.0,1.0,1,110.0,1
1013,1013,-0.8812984205706106,-0.9,1.0,0.0,481.0,797.0,0.0,0,112.0,1
1014,1014,-0.7065796325831695,-0.7,1.0,0.0,265.0,748.0,0.0,0,237.0,1
1015,1015,0.09887995921805093,0.1,1.0,1.0,326.0,952.0,1.0,1,-68.0,1
1016,1016,0.4704109281149057,0.5,1.0,1.0,456.0,502.0,1.0,1,412.0,1
1017,1017,-0.5223340060108087,-0.5,1.0,0.0,272.0,502.0,0.0,0,396.0,1
1018,1018,0.6116571919806472,0.6,1.0,1.0,336.0,540.0,1.0,1,-46.0,1
1019,1019,0.07781092301089643,0.1,0.0,0.0,289.0,538.0,1.0,0,923.0,0
1020,1020,-0.2567211746313639,-0.3,1.0,0.0,427.0,569.0,0.0,0,234.0,1
1021,1021,-0.5142092316084705,-0.5,0.0,1.0,426.0,745.0,1.0,0,69.0,1
1022,1022,0.5039592403222534,0.5,0.0,0.0,349.0,703.0,0.0,1,-92.0,1
1023,1023,0.504376632708816,0.5,1.0,1.0,356.0,872.0,1.0,1,512.0,1
1024,1024,0.0377690877126764,0.0,0.0,0.0,376.0,743.0,1.0,0,961.0,0
1025,1025,0.8222824357607655,0.8,0.0,0.0,442.0,573.0,0.0,1,125.0,1
1026,1026,-0.39804022556354235,-0.4,1.0,0.0,280.0,771.0,0.0,0,569.0,1
1027,1027,-0.5202795429531046,-0.5,0.0,1.0,464.0,633.0,1.0,0,-7.0,1
1028,1028,-0.02125689797773156,-0.0,1.0,0.0,365.0,533.0,1.0,1,402.0,0
1029,1029,-0.8378798088895835,-0.8,0.0,1.0,387.0,522.0,1.0,0,421.0,1
1030,1030,-0.06586550523908619,-0.1,0.0,1.0,491.0,918.0,1.0,0,241.0,1
1031,1031,-0.41858399753735276,-0.4,1.0,0.0,279.0,822.0,0.0,0,209.0,1
1032,1032,-0.13643750121219944,-0.1,1.0,0.0,294.0,579.0,0.0,0,2127.0,1
1033,1033,0.29770286094270937,0.3,1.0,1.0,483.0,707.0,0.0,0,-240.0,0
1034,1034,-0.8722163197040251,-0.9,0.0,1.0,436.0,593.0,1.0,0,441.0,1
1035,1035,-0.16813956449408152,-0.2,0.0,1.0,318.0,790.0,1.0,0,872.0,1
1036,1036,0.7402111851190861,0.7,1.0,1.0,347.0,857.0,1.0,1,286.0,1
1037,1037,0.5095765521754233,0.5,0.0,0.0,365.0,860.0,0.0,1,415.0,1
1038,1038,0.3074214549054489,0.3,1.0,1.0,257.0,862.0,1.0,1,211.0,1
1039,1039,-0.6088235271244934,-0.6,1.0,0.0,496.0,830.0,0.0,0,284.0,1
1040,1040,-0.5007142104085067,-0.5,1.0,0.0,486.0,730.0,0.0,0,594.0,1
1041,1041,0.8383344000399452,0.8,1.0,1.0,395.0,577.0,1.0,1,218.0,1
1042,1042,-0.36823297023210855,-0.4,0.0,1.0,497.0,985.0,0.0,1,-482.0,0
1043,1043,-0.06845370641416837,-0.1,1.0,0.0,282.0,602.0,1.0,1,2116.0,0
1044,1044,0.026909034265035214,0.0,0.0,0.0,494.0,585.0,0.0,1,101.0,1
1045,1045,0.3213032214252257,0.3,0.0,0.0,430.0,790.0,0.0,1,720.0,1
1046,1046,-0.5646884188937538,-0.6,1.0,0.0,376.0,733.0,0.0,0,251.0,1
1047,1047,0.11946811849678085,0.1,0.0,0.0,306.0,887.0,1.0,0,1627.0,0
1048,1048,-0.500518829473062,-0.5,1.0,0.0,259.0,972.0,0.0,0,509.0,1
1049,1049,-0.7523246467420381,-0.8,1.0,0.0,301.0,698.0,0.0,0,321.0,1
1050,1050,0.1343048317080654,0.1,0.0,0.0,452.0,997.0,0.0,1,1551.0,1
1051,1051,-0.8693538147933962,-0.9,0.0,1.0,350.0,974.0,1.0,0,256.0,1
1052,1052,0.32141765492989915,0.3,0.0,0.0,480.0,543.0,0.0,1,-13.0,1
1053,1053,-0.16740506588775605,-0.2,0.0,1.0,404.0,625.0,1.0,0,-19.0,1
1054,1054,0.7448702311869994,0.7,0.0,0.0,367.0,570.0,1.0,0,-137.0,0
1055,1055,0.8328895835000004,0.8,0.0,0.0,473.0,817.0,0.0,1,230.0,1
1056,1056,0.7320385793119027,0.7,0.0,0.0,319.0,887.0,0.0,1,644.0,1
1057,1057,0.6820191910000618,0.7,1.0,1.0,280.0,538.0,1.0,1,182.0,1
1058,1058,-0.45587344120758977,-0.5,1.0,0.0,285.0,657.0,1.0,1,198.0,0
1059,1059,0.6859400017814422,0.7,0.0,0.0,352.0,842.0,0.0,1,186.0,1
1060,1060,-0.46091116947665145,-0.5,1.0,0.0,264.0,655.0,0.0,0,291.0,1
1061,1061,-0.33881605185249175,-0.3,1.0,0.0,289.0,858.0,0.0,0,793.0,1
1062,1062,-0.12860138568727664,-0.1,0.0,1.0,371.0,676.0,1.0,0,313.0,1
1063,1063,0.716605964266967,0.7,0.0,0.0,402.0,622.0,0.0,1,456.0,1
1064,1064,0.28092140583399094,0.3,1.0,1.0,407.0,820.0,1.0,1,523.0,1
1065,1065,0.6401929898217845,0.6,1.0,1.0,307.0,747.0,1.0,1,356.0,1
1066,1066,0.8454508748696427,0.8,0.0,0.0,341.0,899.0,1.0,0,-1110.0,0
1067,1067,0.43627202687173694,0.4,0.0,0.0,292.0,777.0,0.0,1,331.0,1
1068,1068,0.5067870032099261,0.5,1.0,1.0,432.0,749.0,0.0,0,-51.0,0
1069,1069,0.8263401350204257,0.8,1.0,1.0,438.0,510.0,1.0,1,102.0,1
1070,1070,-0.5656900382342911,-0.6,1.0,0.0,480.0,848.0,1.0,1,-218.0,0
1071,1071,-0.17322582364484884,-0.2,1.0,0.0,392.0,696.0,1.0,1,632.0,0
1072,1072,-0.5679489511548692,-0.6,1.0,0.0,426.0,966.0,0.0,0,98.0,1
1073,1073,-0.5862390786418963,-0.6,1.0,0.0,397.0,777.0,0.0,0,196.0,1
1074,1074,-0.6755653429028998,-0.7,1.0,0.0,255.0,539.0,0.0,0,306.0,1
1075,1075,-0.23372667808928116,-0.2,1.0,0.0,393.0,813.0,0.0,0,1794.0,1
1076,1076,-0.03332568075623532,-0.0,1.0,0.0,296.0,539.0,0.0,0,2165.0,1
1077,1077,0.26456254932358514,0.3,0.0,0.0,444.0,909.0,0.0,1,1607.0,1
1078,1078,0.04015045839201914,0.0,0.0,0.0,259.0,779.0,1.0,0,-118.0,0
1079,1079,-0.8256664792808632,-0.8,1.0,0.0,456.0,731.0,0.0,0,323.0,1
1080,1080,0.03842780290481418,0.0,1.0,1.0,417.0,622.0,1.0,1,31.0,1
1081,1081,-0.8127419555915391,-0.8,1.0,0.0,418.0,647.0,0.0,0,405.0,1
1082,1082,-0.7718463065577943,-0.8,0.0,1.0,488.0,849.0,1.0,0,433.0,1
1083,1083,-0.7098460472816263,-0.7,1.0,0.0,375.0,530.0,0.0,0,195.0,1
1084,1084,-0.778586951320203,-0.8,1.0,0.0,299.0,672.0,0.0,0,209.0,1
1085,1085,-0.7463802008806983,-0.7,1.0,0.0,384.0,707.0,0.0,0,269.0,1
1086,1086,-0.5795279581478913,-0.6,0.0,1.0,395.0,549.0,1.0,0,216.0,1
1087,1087,0.5291460658321688,0.5,0.0,0.0,324.0,793.0,1.0,0,-57.0,0
1088,1088,-0.6798645006635515,-0.7,1.0,0.0,313.0,962.0,0.0,0,455.0,1
1089,1089,0.037131019495737494,0.0,1.0,1.0,351.0,857.0,1.0,1,332.0,1
1090,1090,0.5398180246620988,0.5,1.0,1.0,431.0,515.0,1.0,1,374.0,1
1091,1091,0.5896480463733776,0.6,0.0,0.0,259.0,779.0,0.0,1,-108.0,1
1092,1092,-0.527249086618953,-0.5,0.0,1.0,330.0,603.0,1.0,0,137.0,1
1093,1093,0.6568974703279603,0.7,1.0,1.0,377.0,760.0,1.0,1,163.0,1
1094,1094,0.47024345543383184,0.5,0.0,0.0,440.0,922.0,0.0,1,38.0,1
1095,1095,0.5339647818668237,0.5,1.0,1.0,285.0,916.0,1.0,1,139.0,1
1096,1096,-0.1631072142337885,-0.2,0.0,1.0,386.0,878.0,1.0,0,86.0,1
1097,1097,-0.15912108110541168,-0.2,1.0,0.0,345.0,782.0,0.0,0,373.0,1
1098,1098,-0.016530147156267105,-0.0,0.0,1.0,438.0,539.0,1.0,0,163.0,1
1099,1099,0.0770606041895121,0.1,1.0,1.0,319.0,913.0,1.0,1,-202.0,1
1100,1100,0.5405946844427308,0.5,0.0,0.0,272.0,982.0,0.0,1,216.0,1
1101,1101,-0.840693896682904,-0.8,1.0,0.0,269.0,621.0,0.0,0,180.0,1
1102,1102,-0.12035383620812579,-0.1,1.0,0.0,362.0,611.0,0.0,0,2027.0,1
1103,1103,0.053713603735055515,0.1,0.0,0.0,392.0,921.0,1.0,0,567.0,0
1104,1104,0.4634713036382604,0.5,0.0,0.0,372.0,506.0,0.0,1,302.0,1
1105,1105,-0.5714961332760877,-0.6,1.0,0.0,404.0,670.0,0.0,0,246.0,1
1106,1106,0.8553831182105242,0.9,0.0,0.0,303.0,707.0,0.0,1,230.0,1
1107,1107,-0.2039332615084699,-0.2,1.0,0.0,259.0,612.0,0.0,0,1179.0,1
1108,1108,-0.6314719773607687,-0.6,0.0,1.0,255.0,992.0,0.0,1,-197.0,0
1109,1109,0.5631920790497488,0.6,1.0,1.0,253.0,940.0,1.0,1,-523.0,1
1110,1110,-0.3905289037608358,-0.4,1.0,0.0,492.0,840.0,0.0,0,238.0,1
1111,1111,0.8131541041599412,0.8,1.0,1.0,268.0,781.0,1.0,1,291.0,1
1112,1112,-0.29838896929408176,-0.3,0.0,1.0,252.0,557.0,1.0,0,491.0,1
1113,1113,0.3570828525686317,0.4,0.0,0.0,490.0,534.0,0.0,1,1066.0,1
1114,1114,0.5254142937176792,0.5,1.0,1.0,429.0,594.0,1.0,1,427.0,1
1115,1115,-0.09166761946189239,-0.1,0.0,1.0,279.0,590.0,1.0,0,1321.0,1
1116,1116,-0.462335964433123,-0.5,1.0,0.0,477.0,585.0,0.0,0,98.0,1
1117,1117,0.4513346253485103,0.5,0.0,0.0,420.0,816.0,0.0,1,344.0,1
1118,1118,-0.4059192373216525,-0.4,1.0,0.0,438.0,663.0,0.0,0,779.0,1
1119,1119,0.2680251123918208,0.3,0.0,0.0,486.0,997.0,0.0,1,217.0,1
1120,1120,0.7625835329130682,0.8,1.0,1.0,361.0,569.0,1.0,1,160.0,1
1121,1121,0.24545771359214152,0.2,0.0,0.0,376.0,881.0,1.0,0,-697.0,0
1122,1122,0.5883936268108968,0.6,1.0,1.0,341.0,958.0,1.0,1,91.0,1
1123,1123,0.2798260521088397,0.3,1.0,1.0,461.0,818.0,1.0,1,1.0,1
1124,1124,-0.29848948128925645,-0.3,1.0,0.0,373.0,772.0,0.0,0,235.0,1
1125,1125,-0.03463106814400774,-0.0,0.0,1.0,324.0,972.0,0.0,1,924.0,0
1126,1126,-0.23534449154660686,-0.2,1.0,0.0,276.0,582.0,1.0,1,952.0,0
1127,1127,0.7850872222207291,0.8,1.0,1.0,329.0,679.0,1.0,1,212.0,1
1128,1128,0.6581190661475468,0.7,1.0,1.0,289.0,807.0,1.0,1,194.0,1
1129,1129,0.3599595724385348,0.4,1.0,1.0,291.0,731.0,1.0,1,248.0,1
1130,1130,0.006308503331192927,0.0,1.0,1.0,412.0,689.0,1.0,1,1899.0,1
1131,1131,-0.30548663149035615,-0.3,0.0,1.0,491.0,567.0,1.0,0,392.0,1
1132,1132,-0.7111064729082202,-0.7,0.0,1.0,437.0,801.0,1.0,0,112.0,1
1133,1133,0.08175124769493958,0.1,1.0,1.0,348.0,519.0,1.0,1,223.0,1
1134,1134,-0.8767587984493437,-0.9,0.0,1.0,325.0,767.0,1.0,0,368.0,1
1135,1135,0.02279040655633424,0.0,0.0,0.0,291.0,952.0,1.0,0,-13.0,0
1136,1136,-0.22227537256226715,-0.2,1.0,0.0,374.0,758.0,0.0,0,1458.0,1
1137,1137,0.24734269204290793,0.2,0.0,0.0,443.0,861.0,0.0,1,436.0,1
1138,1138,-0.06687360236014783,-0.1,0.0,1.0,389.0,977.0,0.0,1,-6.0,0
1139,1139,0.6489774631938677,0.6,0.0,0.0,329.0,865.0,0.0,1,296.0,1
1140,1140,0.1346626785482986,0.1,1.0,1.0,400.0,778.0,1.0,1,982.0,1
1141,1141,0.6139931517670231,0.6,1.0,1.0,379.0,994.0,1.0,1,-553.0,1
1142,1142,0.6469337531110598,0.6,1.0,1.0,489.0,774.0,1.0,1,137.0,1
1143,1143,0.7025516871116423,0.7,0.0,0.0,474.0,985.0,0.0,1,41.0,1
1144,1144,0.4477042375870627,0.4,1.0,1.0,455.0,780.0,1.0,1,135.0,1
1145,1145,-0.5890445451373345,-0.6,1.0,0.0,409.0,954.0,0.0,0,377.0,1
1146,1146,0.10592900277643869,0.1,1.0,1.0,344.0,766.0,1.0,1,640.0,1
1147,1147,-0.21600382677637542,-0.2,0.0,1.0,476.0,528.0,1.0,0,986.0,1
1148,1148,0.6605078960742369,0.7,0.0,0.0,400.0,858.0,0.0,1,182.0,1
1149,1149,0.6830493864707713,0.7,1.0,1.0,338.0,686.0,1.0,1,226.0,1
1150,1150,-0.6566142934128375,-0.7,0.0,1.0,251.0,832.0,1.0,0,317.0,1
1151,1151,0.7910892675902498,0.8,0.0,0.0,274.0,860.0,0.0,1,436.0,1
1152,1152,-0.6319047026859135,-0.6,0.0,1.0,298.0,982.0,1.0,0,180.0,1
1153,1153,-0.01907559651257884,-0.0,1.0,0.0,404.0,956.0,0.0,0,1640.0,1
1154,1154,0.8465768536204753,0.8,0.0,0.0,489.0,850.0,0.0,1,341.0,1
1155,1155,0.2620346449199079,0.3,0.0,0.0,356.0,574.0,0.0,1,400.0,1
1156,1156,0.09804337982322364,0.1,1.0,1.0,265.0,551.0,1.0,1,284.0,1
1157,1157,-0.1524568199397912,-0.2,1.0,0.0,493.0,872.0,0.0,0,1595.0,1
1158,1158,-0.2769651071136743,-0.3,0.0,1.0,370.0,658.0,1.0,0,492.0,1
1159,1159,-0.6810202234793431,-0.7,0.0,1.0,412.0,918.0,1.0,0,310.0,1
1160,1160,0.6387229242500144,0.6,1.0,1.0,251.0,785.0,1.0,1,164.0,1
1161,1161,0.5598821189512507,0.6,0.0,0.0,291.0,944.0,0.0,1,175.0,1
1162,1162,0.2627078815030014,0.3,1.0,1.0,453.0,631.0,1.0,1,386.0,1
1163,1163,0.18298366608286243,0.2,0.0,0.0,371.0,963.0,1.0,0,-114.0,0
1164,1164,0.49624563510350816,0.5,0.0,0.0,455.0,514.0,0.0,1,1221.0,1
1165,1165,0.12006709212033939,0.1,1.0,1.0,262.0,728.0,1.0,1,130.0,1
1166,1166,0.0909122417777215,0.1,1.0,1.0,487.0,892.0,1.0,1,941.0,1
1167,1167,-0.4527218450434451,-0.5,0.0,1.0,323.0,777.0,1.0,0,20.0,1
1168,1168,0.7258211290583497,0.7,0.0,0.0,415.0,622.0,0.0,1,73.0,1
1169,1169,-0.49850289520000735,-0.5,1.0,0.0,305.0,840.0,0.0,0,455.0,1
1170,1170,-0.618071626423639,-0.6,1.0,0.0,310.0,689.0,1.0,1,-159.0,0
1171,1171,0.8988097018685631,0.9,0.0,0.0,409.0,559.0,0.0,1,522.0,1
1172,1172,-0.2737213586542362,-0.3,1.0,0.0,382.0,825.0,0.0,0,1793.0,1
1173,1173,-0.7933546518787744,-0.8,1.0,0.0,442.0,985.0,0.0,0,133.0,1
1174,1174,0.16051075620006283,0.2,1.0,1.0,296.0,748.0,1.0,1,1546.0,1
1175,1175,0.2750343647662238,0.3,0.0,0.0,454.0,902.0,0.0,1,984.0,1
1176,1176,0.1023641431398653,0.1,1.0,1.0,332.0,916.0,1.0,1,-118.0,1
1177,1177,-0.26969155630070096,-0.3,0.0,1.0,316.0,804.0,1.0,0,210.0,1
1178,1178,0.18762851488873855,0.2,0.0,0.0,399.0,708.0,0.0,1,363.0,1
1179,1179,-0.7885987663011443,-0.8,1.0,0.0,267.0,923.0,0.0,0,250.0,1
1180,1180,-0.7632423030889924,-0.8,1.0,0.0,300.0,669.0,0.0,0,301.0,1
1181,1181,-0.6383191379342361,-0.6,0.0,1.0,317.0,525.0,1.0,0,-162.0,1
1182,1182,-0.5871574214400415,-0.6,1.0,0.0,385.0,635.0,0.0,0,560.0,1
1183,1183,-0.3544703226905066,-0.4,0.0,1.0,418.0,559.0,0.0,1,53.0,0
1184,1184,0.7396853290554543,0.7,0.0,0.0,297.0,818.0,1.0,0,25.0,0
1185,1185,-0.6143581216715197,-0.6,1.0,0.0,374.0,915.0,0.0,0,171.0,1
1186,1186,0.10052426357613997,0.1,1.0,1.0,499.0,699.0,1.0,1,962.0,1
1187,1187,-0.1311500610098706,-0.1,1.0,0.0,368.0,884.0,1.0,1,-382.0,0
1188,1188,0.7511757341025408,0.8,0.0,0.0,259.0,507.0,0.0,1,134.0,1
1189,1189,-0.14385059291903357,-0.1,1.0,0.0,412.0,558.0,0.0,0,2030.0,1
1190,1190,-0.5635169505281834,-0.6,1.0,0.0,382.0,517.0,0.0,0,321.0,1
1191,1191,-0.29871683116345316,-0.3,0.0,1.0,424.0,711.0,1.0,0,555.0,1
1192,1192,-0.8053592008628793,-0.8,0.0,1.0,265.0,880.0,1.0,0,195.0,1
1193,1193,0.2966242110480303,0.3,0.0,0.0,460.0,833.0,1.0,0,-263.0,0
1194,1194,0.4634402254515543,0.5,1.0,1.0,279.0,902.0,1.0,1,-451.0,1
1195,1195,0.38088779636910963,0.4,1.0,1.0,366.0,885.0,1.0,1,189.0,1
1196,1196,0.8463170540117125,0.8,0.0,0.0,428.0,578.0,0.0,1,234.0,1
1197,1197,0.7667629471637295,0.8,0.0,0.0,351.0,699.0,1.0,0,-120.0,0
1198,1198,0.6367507779959202,0.6,1.0,1.0,494.0,797.0,1.0,1,209.0,1
1199,1199,-0.2527582524191997,-0.3,1.0,0.0,465.0,889.0,0.0,0,-414.0,1
1200,1200,0.22847935477094194,0.2,1.0,1.0,480.0,800.0,1.0,1,1440.0,1
1201,1201,0.10372638871288753,0.1,1.0,1.0,449.0,717.0,0.0,0,4.0,0
1202,1202,-0.4115823025698445,-0.4,0.0,1.0,489.0,877.0,1.0,0,-386.0,1
1203,1203,-0.3587795859302838,-0.4,0.0,1.0,451.0,878.0,1.0,0,1671.0,1
1204,1204,-0.16325097039145475,-0.2,0.0,1.0,274.0,628.0,1.0,0,228.0,1
1205,1205,-0.04445306252328596,-0.0,1.0,0.0,405.0,791.0,1.0,1,1054.0,0
1206,1206,-0.7903373081093042,-0.8,0.0,1.0,266.0,886.0,1.0,0,48.0,1
1207,1207,0.7185619956812296,0.7,0.0,0.0,279.0,938.0,0.0,1,173.0,1
1208,1208,-0.42257112709929306,-0.4,0.0,1.0,406.0,948.0,1.0,0,836.0,1
1209,1209,0.04555932717835087,0.0,1.0,1.0,300.0,836.0,1.0,1,1734.0,1
1210,1210,0.6664395773531063,0.7,0.0,0.0,427.0,783.0,0.0,1,130.0,1
1211,1211,0.41355876762970933,0.4,0.0,0.0,362.0,770.0,0.0,1,368.0,1
1212,1212,-0.7886231551120978,-0.8,0.0,1.0,296.0,565.0,1.0,0,299.0,1
1213,1213,0.7939382185029812,0.8,0.0,0.0,392.0,754.0,0.0,1,164.0,1
1214,1214,0.3496351404942212,0.3,1.0,1.0,431.0,855.0,1.0,1,274.0,1
1215,1215,-0.7974072125312778,-0.8,0.0,1.0,250.0,607.0,1.0,0,-117.0,1
1216,1216,-0.4278799726476928,-0.4,1.0,0.0,475.0,942.0,0.0,0,333.0,1
1217,1217,0.5216519159611138,0.5,1.0,1.0,465.0,635.0,1.0,1,150.0,1
1218,1218,-0.09506408534378408,-0.1,1.0,0.0,325.0,918.0,1.0,1,-483.0,0
1219,1219,-0.07675761991388086,-0.1,0.0,1.0,387.0,608.0,1.0,0,-85.0,1
1220,1220,-0.7164880819064584,-0.7,1.0,0.0,305.0,827.0,0.0,0,398.0,1
1221,1221,-0.35679698711353525,-0.4,0.0,1.0,407.0,880.0,1.0,0,393.0,1
1222,1222,-0.04888293253866882,-0.0,0.0,1.0,270.0,653.0,1.0,0,607.0,1
1223,1223,-0.815509934515091,-0.8,0.0,1.0,478.0,780.0,1.0,0,372.0,1
1224,1224,0.5204245859347579,0.5,0.0,0.0,435.0,767.0,0.0,1,398.0,1
1225,1225,-0.3396401855398601,-0.3,0.0,1.0,403.0,768.0,1.0,0,469.0,1
1226,1226,0.38221466227692924,0.4,1.0,1.0,489.0,718.0,1.0,1,-77.0,1
1227,1227,0.44961325915104033,0.4,0.0,0.0,272.0,636.0,1.0,0,-418.0,0
1228,1228,0.6117021769637251,0.6,1.0,1.0,425.0,896.0,1.0,1,79.0,1
1229,1229,0.6040833821919437,0.6,0.0,0.0,402.0,809.0,1.0,0,-401.0,0
1230,1230,-0.5445951962768426,-0.5,1.0,0.0,409.0,939.0,0.0,0,442.0,1
1231,1231,-0.272084703073599,-0.3,1.0,0.0,458.0,864.0,0.0,0,298.0,1
1232,1232,-0.3989809784297549,-0.4,1.0,0.0,453.0,936.0,0.0,0,921.0,1
1233,1233,0.5941900424007539,0.6,0.0,0.0,350.0,688.0,0.0,1,162.0,1
1234,1234,0.5256363187164311,0.5,1.0,1.0,464.0,697.0,1.0,1,339.0,1
1235,1235,-0.6516029403644263,-0.7,0.0,1.0,340.0,885.0,1.0,0,205.0,1
1236,1236,0.3454406420957442,0.3,1.0,1.0,258.0,535.0,1.0,1,417.0,1
1237,1237,0.8029952518829847,0.8,0.0,0.0,421.0,500.0,0.0,1,159.0,1
1238,1238,0.14471303769594568,0.1,0.0,0.0,402.0,767.0,0.0,1,61.0,1
1239,1239,0.42731545701245366,0.4,0.0,0.0,388.0,940.0,0.0,1,142.0,1
1240,1240,0.6211618407495071,0.6,0.0,0.0,339.0,852.0,0.0,1,389.0,1
1241,1241,-0.8078051413566364,-0.8,0.0,1.0,409.0,855.0,1.0,0,366.0,1
1242,1242,0.3581202553218391,0.4,1.0,1.0,343.0,907.0,1.0,1,150.0,1
1243,1243,0.20551123355831413,0.2,0.0,0.0,293.0,697.0,0.0,1,1060.0,1
1244,1244,0.8186296799371852,0.8,1.0,1.0,392.0,954.0,1.0,1,94.0,1
1245,1245,0.15986680819431165,0.2,1.0,1.0,280.0,615.0,1.0,1,435.0,1
1246,1246,0.06171280524593614,0.1,0.0,0.0,253.0,920.0,0.0,1,-603.0,1
1247,1247,0.8186960338793824,0.8,1.0,1.0,262.0,843.0,1.0,1,365.0,1
1248,1248,0.3153052169685763,0.3,0.0,0.0,349.0,602.0,0.0,1,339.0,1
1249,1249,-0.07320322893413822,-0.1,0.0,1.0,440.0,919.0,1.0,0,-19.0,1
1250,1250,0.6945369214000542,0.7,1.0,1.0,367.0,848.0,1.0,1,85.0,1
1251,1251,0.8813225909865129,0.9,0.0,0.0,305.0,731.0,0.0,1,94.0,1
1252,1252,-0.3876679146826585,-0.4,0.0,1.0,456.0,679.0,1.0,0,75.0,1
1253,1253,0.8728423847912105,0.9,0.0,0.0,360.0,721.0,0.0,1,159.0,1
1254,1254,-0.5715415933483677,-0.6,0.0,1.0,351.0,578.0,1.0,0,171.0,1
1255,1255,-0.606668410930225,-0.6,0.0,1.0,331.0,666.0,1.0,0,343.0,1
1256,1256,-0.49707219734215763,-0.5,1.0,0.0,485.0,864.0,0.0,0,311.0,1
1257,1257,0.3314131247268163,0.3,1.0,1.0,417.0,695.0,1.0,1,388.0,1
1258,1258,0.4041107622524739,0.4,1.0,1.0,348.0,744.0,1.0,1,198.0,1
1259,1259,-0.021674402515938107,-0.0,0.0,1.0,400.0,816.0,0.0,1,1784.0,0
1260,1260,0.8024279711172481,0.8,0.0,0.0,439.0,512.0,0.0,1,469.0,1
1261,1261,0.4616124694025475,0.5,1.0,1.0,353.0,941.0,1.0,1,516.0,1
1262,1262,-0.791141671301788,-0.8,1.0,0.0,258.0,995.0,0.0,0,177.0,1
1263,1263,-0.2319100867717725,-0.2,1.0,0.0,412.0,917.0,0.0,0,1671.0,1
1264,1264,0.47090505929190074,0.5,1.0,1.0,435.0,612.0,1.0,1,253.0,1
1265,1265,-0.8256755023653825,-0.8,1.0,0.0,467.0,903.0,0.0,0,220.0,1
1266,1266,-0.020482606632457934,-0.0,0.0,1.0,367.0,873.0,1.0,0,-820.0,1
1267,1267,0.3337931162515454,0.3,0.0,0.0,307.0,671.0,0.0,1,732.0,1
1268,1268,0.3542119804447178,0.4,1.0,1.0,463.0,534.0,1.0,1,693.0,1
1269,1269,-0.7500213373473947,-0.8,1.0,0.0,307.0,879.0,0.0,0,134.0,1
1270,1270,-0.35405669999418776,-0.4,1.0,0.0,310.0,683.0,1.0,1,-403.0,0
1271,1271,-0.8694135764303785,-0.9,1.0,0.0,346.0,512.0,0.0,0,322.0,1
1272,1272,-0.18857979912914025,-0.2,0.0,1.0,254.0,971.0,1.0,0,295.0,1
1273,1273,0.7602640268035251,0.8,0.0,0.0,283.0,597.0,0.0,1,170.0,1
1274,1274,-0.41459366952631327,-0.4,0.0,1.0,279.0,539.0,1.0,0,162.0,1
1275,1275,-0.8138883461411748,-0.8,1.0,0.0,407.0,574.0,0.0,0,579.0,1
1276,1276,-0.4830699618002507,-0.5,0.0,1.0,356.0,804.0,1.0,0,430.0,1
1277,1277,-0.7224289454006128,-0.7,1.0,0.0,289.0,737.0,0.0,0,354.0,1
1278,1278,-0.7655386335892761,-0.8,0.0,1.0,413.0,788.0,1.0,0,299.0,1
1279,1279,-0.027863982486406758,-0.0,0.0,1.0,331.0,583.0,0.0,1,86.0,0
1280,1280,0.4294106048003826,0.4,1.0,1.0,331.0,804.0,1.0,1,155.0,1
1281,1281,-0.1110835227704059,-0.1,1.0,0.0,410.0,718.0,0.0,0,-118.0,1
1282,1282,0.3796535296849376,0.4,1.0,1.0,428.0,756.0,1.0,1,576.0,1
1283,1283,-0.03958913327213953,-0.0,1.0,0.0,298.0,628.0,1.0,1,34.0,0
1284,1284,-0.22126056470427424,-0.2,0.0,1.0,366.0,790.0,1.0,0,-86.0,1
1285,1285,-0.0556645429004885,-0.1,0.0,1.0,333.0,741.0,1.0,0,176.0,1
1286,1286,0.003303547146296326,0.0,0.0,0.0,338.0,726.0,0.0,1,366.0,1
1287,1287,0.5802673345373971,0.6,0.0,0.0,274.0,958.0,0.0,1,328.0,1
1288,1288,0.44053715747270494,0.4,0.0,0.0,459.0,550.0,0.0,1,341.0,1
1289,1289,-0.41253208053294166,-0.4,0.0,1.0,453.0,715.0,1.0,0,-128.0,1
1290,1290,0.5758287884574801,0.6,0.0,0.0,414.0,986.0,1.0,0,-30.0,0
1291,1291,-0.1437292431407735,-0.1,0.0,1.0,492.0,931.0,1.0,0,317.0,1
1292,1292,0.02770902449946655,0.0,1.0,1.0,437.0,847.0,0.0,0,-434.0,0
1293,1293,-0.19203405742682356,-0.2,0.0,1.0,444.0,764.0,1.0,0,652.0,1
1294,1294,0.7254531434307817,0.7,0.0,0.0,447.0,619.0,0.0,1,224.0,1
1295,1295,0.4266003309687575,0.4,1.0,1.0,403.0,776.0,1.0,1,201.0,1
1296,1296,-0.6992830007428887,-0.7,0.0,1.0,266.0,876.0,1.0,0,-432.0,1
1297,1297,-0.7795783468386742,-0.8,0.0,1.0,365.0,762.0,1.0,0,163.0,1
1298,1298,0.23074377986937444,0.2,0.0,0.0,262.0,819.0,0.0,1,439.0,1
1299,1299,0.6332771763077091,0.6,0.0,0.0,402.0,695.0,0.0,1,473.0,1
1300,1300,-0.8466723599088317,-0.8,0.0,1.0,360.0,769.0,1.0,0,141.0,1
1301,1301,0.5961085919163663,0.6,1.0,1.0,277.0,798.0,1.0,1,-365.0,1
1302,1302,0.06145533012948212,0.1,0.0,0.0,368.0,608.0,0.0,1,1954.0,1
1303,1303,0.2165697022527323,0.2,0.0,0.0,480.0,785.0,1.0,0,-195.0,0
1304,1304,0.4963118529204168,0.5,0.0,0.0,485.0,717.0,0.0,1,308.0,1
1305,1305,-0.7507716945406664,-0.8,1.0,0.0,424.0,911.0,0.0,0,315.0,1
1306,1306,-0.07167293926043372,-0.1,1.0,0.0,350.0,861.0,1.0,1,399.0,0
1307,1307,-0.5453610027520537,-0.5,0.0,1.0,316.0,876.0,1.0,0,68.0,1
1308,1308,0.7198932085173485,0.7,0.0,0.0,404.0,864.0,0.0,1,42.0,1
1309,1309,-0.17766296399872927,-0.2,0.0,1.0,436.0,568.0,0.0,1,486.0,0
1310,1310,0.6787997569347136,0.7,0.0,0.0,285.0,513.0,0.0,1,722.0,1
1311,1311,-0.7182743091774999,-0.7,0.0,1.0,385.0,934.0,0.0,1,-409.0,0
1312,1312,-0.6478210644322607,-0.6,0.0,1.0,264.0,891.0,1.0,0,105.0,1
1313,1313,-0.7917730405099048,-0.8,0.0,1.0,384.0,898.0,1.0,0,-172.0,1
1314,1314,-0.270855147646623,-0.3,1.0,0.0,334.0,961.0,0.0,0,585.0,1
1315,1315,-0.5393065414958917,-0.5,1.0,0.0,495.0,540.0,0.0,0,585.0,1
1316,1316,-0.44059722370518256,-0.4,1.0,0.0,288.0,515.0,0.0,0,267.0,1
1317,1317,-0.24208632043881695,-0.2,0.0,1.0,478.0,893.0,1.0,0,-311.0,1
1318,1318,-0.5084631130994366,-0.5,1.0,0.0,399.0,896.0,0.0,0,745.0,1
1319,1319,0.4670618372722063,0.5,1.0,1.0,358.0,685.0,1.0,1,287.0,1
1320,1320,-0.3955797703330274,-0.4,1.0,0.0,305.0,733.0,0.0,0,412.0,1
1321,1321,-0.7515737803269711,-0.8,1.0,0.0,441.0,780.0,0.0,0,229.0,1
1322,1322,-0.24067513423814535,-0.2,0.0,1.0,373.0,745.0,1.0,0,152.0,1
1323,1323,-0.43937706992977615,-0.4,1.0,0.0,423.0,993.0,1.0,1,184.0,0
1324,1324,0.045084391133827895,0.0,1.0,1.0,468.0,915.0,1.0,1,127.0,1
1325,1325,-0.09896947345364016,-0.1,0.0,1.0,308.0,713.0,0.0,1,1539.0,0
1326,1326,-0.23860327150930039,-0.2,1.0,0.0,295.0,996.0,0.0,0,1169.0,1
1327,1327,-0.6768039406922907,-0.7,0.0,1.0,252.0,861.0,1.0,0,17.0,1
1328,1328,0.2007905570937666,0.2,0.0,0.0,312.0,819.0,1.0,0,729.0,0
1329,1329,0.15310178718936396,0.2,1.0,1.0,296.0,931.0,1.0,1,263.0,1
1330,1330,-0.2800441623699438,-0.3,0.0,1.0,396.0,526.0,0.0,1,-262.0,0
1331,1331,-0.4427563073930939,-0.4,1.0,0.0,483.0,534.0,0.0,0,893.0,1
1332,1332,-0.5889201824187338,-0.6,1.0,0.0,282.0,988.0,0.0,0,160.0,1
1333,1333,-0.59421326847487,-0.6,0.0,1.0,284.0,950.0,1.0,0,-434.0,1
1334,1334,0.46400820690079725,0.5,1.0,1.0,378.0,878.0,1.0,1,224.0,1
1335,1335,0.38484356707134804,0.4,1.0,1.0,264.0,937.0,1.0,1,889.0,1
1336,1336,0.7906871320139314,0.8,0.0,0.0,429.0,998.0,0.0,1,373.0,1
1337,1337,-0.1718503598604949,-0.2,1.0,0.0,325.0,947.0,0.0,0,168.0,1
1338,1338,-0.3615462965526479,-0.4,0.0,1.0,310.0,713.0,1.0,0,187.0,1
1339,1339,0.8954295570423666,0.9,1.0,1.0,498.0,525.0,1.0,1,97.0,1
1340,1340,-0.3728116098610662,-0.4,0.0,1.0,288.0,818.0,1.0,0,44.0,1
1341,1341,-0.45601192470905916,-0.5,0.0,1.0,295.0,548.0,1.0,0,107.0,1
1342,1342,-0.6980112118715506,-0.7,0.0,1.0,352.0,679.0,1.0,0,249.0,1
1343,1343,0.7623964762582885,0.8,1.0,1.0,438.0,686.0,1.0,1,266.0,1
1344,1344,0.2752160963211724,0.3,0.0,0.0,433.0,533.0,0.0,1,524.0,1
1345,1345,0.24796813816906915,0.2,1.0,1.0,371.0,811.0,1.0,1,298.0,1
1346,1346,0.6156856766638795,0.6,1.0,1.0,342.0,795.0,1.0,1,-627.0,1
1347,1347,0.613566051438507,0.6,1.0,1.0,453.0,649.0,1.0,1,428.0,1
1348,1348,0.37571665999172665,0.4,1.0,1.0,367.0,815.0,1.0,1,28.0,1
1349,1349,0.26887985571892015,0.3,1.0,1.0,367.0,972.0,1.0,1,-159.0,1
1350,1350,0.8680266074734905,0.9,0.0,0.0,408.0,545.0,0.0,1,47.0,1
1351,1351,0.39177215517411057,0.4,0.0,0.0,364.0,796.0,0.0,1,120.0,1
1352,1352,0.6237218899334557,0.6,0.0,0.0,379.0,722.0,0.0,1,149.0,1
1353,1353,0.09036811836684877,0.1,0.0,0.0,434.0,531.0,1.0,0,-275.0,0
1354,1354,-0.687849549521202,-0.7,1.0,0.0,445.0,526.0,0.0,0,119.0,1
1355,1355,-0.06113732082112855,-0.1,1.0,0.0,331.0,869.0,1.0,1,-750.0,0
1356,1356,0.1538461609541163,0.2,1.0,1.0,445.0,723.0,1.0,1,522.0,1
1357,1357,0.8345181066186736,0.8,0.0,0.0,259.0,633.0,0.0,1,298.0,1
1358,1358,-0.4490407350020763,-0.4,1.0,0.0,296.0,653.0,0.0,0,1051.0,1
1359,1359,-0.5567179518098928,-0.6,0.0,1.0,256.0,803.0,1.0,0,111.0,1
1360,1360,0.8025552008245133,0.8,0.0,0.0,271.0,886.0,0.0,1,153.0,1
1361,1361,0.1970011955648664,0.2,0.0,0.0,251.0,523.0,0.0,1,356.0,1
1362,1362,-0.3911656901090831,-0.4,1.0,0.0,345.0,991.0,0.0,0,1204.0,1
1363,1363,-0.7537320324785932,-0.8,0.0,1.0,391.0,506.0,1.0,0,143.0,1
1364,1364,0.4471512863712793,0.4,1.0,1.0,258.0,714.0,1.0,1,248.0,1
1365,1365,0.45546582542991343,0.5,0.0,0.0,444.0,626.0,1.0,0,-110.0,0
1366,1366,-0.3527460593287183,-0.4,1.0,0.0,263.0,554.0,0.0,0,173.0,1
1367,1367,0.5781984302663575,0.6,1.0,1.0,317.0,874.0,1.0,1,429.0,1
1368,1368,0.1352729631307078,0.1,1.0,1.0,483.0,602.0,1.0,1,365.0,1
1369,1369,-0.6340385296073564,-0.6,1.0,0.0,375.0,840.0,1.0,1,-55.0,0
1370,1370,-0.17457596352627858,-0.2,1.0,0.0,412.0,865.0,0.0,0,1723.0,1
1371,1371,0.8734635908154428,0.9,0.0,0.0,398.0,638.0,0.0,1,134.0,1
1372,1372,-0.369150479980328,-0.4,0.0,1.0,304.0,930.0,1.0,0,-624.0,1
1373,1373,-0.46146895643502756,-0.5,1.0,0.0,252.0,507.0,0.0,0,181.0,1
1374,1374,0.07774775482349205,0.1,0.0,0.0,279.0,706.0,0.0,1,1805.0,1
1375,1375,-0.1462148171594737,-0.1,0.0,1.0,450.0,887.0,1.0,0,303.0,1
1376,1376,-0.526900536172698,-0.5,1.0,0.0,427.0,709.0,0.0,0,314.0,1
1377,1377,-0.5582848782997617,-0.6,0.0,1.0,458.0,501.0,1.0,0,11.0,1
1378,1378,-0.8543748339587909,-0.9,0.0,1.0,393.0,888.0,1.0,0,69.0,1
1379,1379,0.0015855514753215783,0.0,0.0,0.0,328.0,983.0,1.0,0,449.0,0
1380,1380,-0.7370330829695986,-0.7,0.0,1.0,387.0,670.0,1.0,0,113.0,1
1381,1381,-0.8372381174721445,-0.8,0.0,1.0,391.0,571.0,1.0,0,238.0,1
1382,1382,-0.10302652193381767,-0.1,1.0,0.0,280.0,601.0,1.0,1,1619.0,0
1383,1383,0.36569789261562324,0.4,0.0,0.0,318.0,743.0,1.0,0,49.0,0
1384,1384,0.8370996982124207,0.8,0.0,0.0,441.0,682.0,0.0,1,187.0,1
1385,1385,0.2643512102517881,0.3,1.0,1.0,449.0,546.0,1.0,1,355.0,1
1386,1386,-0.7015302385930233,-0.7,1.0,0.0,408.0,512.0,0.0,0,230.0,1
1387,1387,0.5241926771928588,0.5,0.0,0.0,330.0,545.0,0.0,1,115.0,1
1388,1388,0.8532247506799916,0.9,1.0,1.0,324.0,682.0,1.0,1,144.0,1
1389,1389,-0.49296052716906646,-0.5,0.0,1.0,271.0,780.0,1.0,0,379.0,1
1390,1390,-0.6024806876325141,-0.6,0.0,1.0,495.0,589.0,1.0,0,156.0,1
1391,1391,0.2178085478424724,0.2,0.0,0.0,478.0,822.0,1.0,0,-100.0,0
1392,1392,0.6948491715076698,0.7,1.0,1.0,316.0,554.0,1.0,1,200.0,1
1393,1393,0.22348315739236047,0.2,0.0,0.0,469.0,572.0,0.0,1,709.0,1
1394,1394,0.20771006271414338,0.2,0.0,0.0,421.0,717.0,0.0,1,1372.0,1
1395,1395,-0.8107761819865794,-0.8,0.0,1.0,378.0,759.0,1.0,0,173.0,1
1396,1396,0.8526228408621112,0.9,0.0,0.0,448.0,905.0,0.0,1,247.0,1
1397,1397,0.6343912338591872,0.6,1.0,1.0,479.0,517.0,1.0,1,194.0,1
1398,1398,-0.07167135031022609,-0.1,1.0,0.0,401.0,655.0,1.0,1,1134.0,0
1399,1399,-0.19904904171254045,-0.2,0.0,1.0,297.0,521.0,1.0,0,422.0,1
1400,1400,0.5515330440812797,0.6,0.0,0.0,469.0,841.0,0.0,1,280.0,1
1401,1401,-0.5686395746512043,-0.6,0.0,1.0,476.0,623.0,1.0,0,51.0,1
1402,1402,0.4869020996687664,0.5,0.0,0.0,288.0,846.0,0.0,1,366.0,1
1403,1403,0.22329405364890642,0.2,1.0,1.0,262.0,537.0,1.0,1,331.0,1
1404,1404,-0.8792809101175789,-0.9,0.0,1.0,330.0,909.0,1.0,0,141.0,1
1405,1405,0.6135220554038819,0.6,0.0,0.0,328.0,877.0,0.0,1,395.0,1
1406,1406,-0.22069587546694014,-0.2,0.0,1.0,401.0,761.0,1.0,0,58.0,1
1407,1407,0.4931490001463784,0.5,1.0,1.0,400.0,940.0,1.0,1,200.0,1
1408,1408,-0.6608749865986352,-0.7,0.0,1.0,395.0,688.0,0.0,1,-243.0,0
1409,1409,0.7160040619038427,0.7,0.0,0.0,492.0,899.0,0.0,1,159.0,1
1410,1410,0.6921959423125233,0.7,1.0,1.0,438.0,808.0,1.0,1,124.0,1
1411,1411,0.7113082626043884,0.7,0.0,0.0,279.0,593.0,0.0,1,288.0,1
1412,1412,0.3447627198606239,0.3,1.0,1.0,344.0,944.0,1.0,1,62.0,1
1413,1413,0.581804102830222,0.6,0.0,0.0,333.0,749.0,0.0,1,628.0,1
1414,1414,0.6635285108033399,0.7,1.0,1.0,497.0,902.0,1.0,1,-209.0,1
1415,1415,-0.8480691967972674,-0.8,0.0,1.0,460.0,876.0,1.0,0,134.0,1
1416,1416,0.05940800466336904,0.1,1.0,1.0,323.0,848.0,1.0,1,-121.0,1
1417,1417,0.009955476616615444,0.0,1.0,1.0,341.0,791.0,1.0,1,558.0,1
1418,1418,-0.44024584828820074,-0.4,1.0,0.0,287.0,580.0,0.0,0,543.0,1
1419,1419,0.35030105388857724,0.4,0.0,0.0,287.0,666.0,0.0,1,1047.0,1
1420,1420,0.6259729020299695,0.6,1.0,1.0,359.0,988.0,1.0,1,93.0,1
1421,1421,-0.853508353425454,-0.9,0.0,1.0,410.0,631.0,1.0,0,109.0,1
1422,1422,0.3060464764560834,0.3,0.0,0.0,316.0,918.0,0.0,1,666.0,1
1423,1423,-0.17721753059253065,-0.2,0.0,1.0,367.0,550.0,1.0,0,443.0,1
1424,1424,0.3320557969622274,0.3,1.0,1.0,410.0,888.0,1.0,1,152.0,1
1425,1425,-0.030733783166241757,-0.0,1.0,0.0,347.0,545.0,1.0,1,938.0,0
1426,1426,-0.6405301832274222,-0.6,0.0,1.0,280.0,784.0,1.0,0,406.0,1
1427,1427,-0.3278123095663352,-0.3,0.0,1.0,488.0,660.0,1.0,0,422.0,1
1428,1428,-0.16904531096368713,-0.2,1.0,0.0,429.0,871.0,1.0,1,-300.0,0
1429,1429,-0.3899160981984201,-0.4,1.0,0.0,434.0,655.0,1.0,1,-299.0,0
1430,1430,-0.33145313962176215,-0.3,0.0,1.0,327.0,877.0,0.0,1,-394.0,0
1431,1431,-0.76065700798025,-0.8,1.0,0.0,473.0,575.0,0.0,0,342.0,1
1432,1432,0.002587299757574879,0.0,0.0,0.0,432.0,843.0,1.0,0,-195.0,0
1433,1433,0.728421359606951,0.7,0.0,0.0,458.0,874.0,0.0,1,188.0,1
1434,1434,0.25215288406147474,0.3,0.0,0.0,288.0,827.0,0.0,1,805.0,1
1435,1435,-0.30885256377617953,-0.3,0.0,1.0,334.0,531.0,1.0,0,415.0,1
1436,1436,0.8087988062459183,0.8,1.0,1.0,342.0,952.0,1.0,1,66.0,1
1437,1437,0.799812291858652,0.8,1.0,1.0,454.0,963.0,1.0,1,143.0,1
1438,1438,0.2840027473363994,0.3,1.0,1.0,488.0,569.0,1.0,1,-107.0,1
1439,1439,-0.7153907523842955,-0.7,1.0,0.0,443.0,636.0,0.0,0,141.0,1
1440,1440,-0.6662479498633188,-0.7,0.0,1.0,474.0,878.0,1.0,0,-372.0,1
1441,1441,0.29879107586465337,0.3,0.0,0.0,275.0,845.0,0.0,1,290.0,1
1442,1442,-0.2917558997380264,-0.3,1.0,0.0,301.0,982.0,0.0,0,987.0,1
1443,1443,-0.5554737828223286,-0.6,0.0,1.0,407.0,610.0,1.0,0,243.0,1
1444,1444,0.641200369833646,0.6,0.0,0.0,304.0,948.0,1.0,0,48.0,0
1445,1445,-0.5155324240476898,-0.5,0.0,1.0,301.0,739.0,1.0,0,130.0,1
1446,1446,0.6564227835526874,0.7,1.0,1.0,305.0,969.0,1.0,1,226.0,1
1447,1447,0.5225446257270635,0.5,1.0,1.0,308.0,866.0,1.0,1,286.0,1
1448,1448,-0.5743972224086855,-0.6,1.0,0.0,386.0,787.0,0.0,0,387.0,1
1449,1449,0.45939354156385426,0.5,0.0,0.0,499.0,707.0,0.0,1,94.0,1
1450,1450,0.7066457590677432,0.7,1.0,1.0,386.0,571.0,1.0,1,253.0,1
1451,1451,0.14989988745955662,0.1,0.0,0.0,448.0,693.0,0.0,1,509.0,1
1452,1452,-0.6625758204986747,-0.7,1.0,0.0,251.0,783.0,0.0,0,246.0,1
1453,1453,0.17046612702667752,0.2,0.0,0.0,470.0,506.0,0.0,1,494.0,1
1454,1454,0.34919642499866665,0.3,0.0,0.0,435.0,932.0,0.0,1,383.0,1
1455,1455,0.8034159209006125,0.8,1.0,1.0,462.0,576.0,1.0,1,72.0,1
1456,1456,-0.5486183377827349,-0.5,0.0,1.0,360.0,985.0,1.0,0,295.0,1
1457,1457,-0.8438799791402316,-0.8,1.0,0.0,320.0,664.0,0.0,0,216.0,1
1458,1458,0.19845602624093084,0.2,1.0,1.0,368.0,710.0,0.0,0,-238.0,0
1459,1459,-0.5514926553178987,-0.6,1.0,0.0,485.0,938.0,0.0,0,237.0,1
1460,1460,0.06791024767468956,0.1,1.0,1.0,414.0,571.0,1.0,1,545.0,1
1461,1461,-0.6814031164841955,-0.7,1.0,0.0,458.0,708.0,0.0,0,394.0,1
1462,1462,0.6991157963884661,0.7,0.0,0.0,374.0,757.0,0.0,1,209.0,1
1463,1463,0.45639822461756474,0.5,1.0,1.0,344.0,797.0,1.0,1,309.0,1
1464,1464,-0.2123944278052905,-0.2,1.0,0.0,478.0,628.0,0.0,0,674.0,1
1465,1465,0.771232007383634,0.8,0.0,0.0,299.0,572.0,0.0,1,389.0,1
1466,1466,-0.659833812708543,-0.7,1.0,0.0,387.0,705.0,0.0,0,468.0,1
1467,1467,-0.29832401361216654,-0.3,0.0,1.0,335.0,747.0,0.0,1,-242.0,0
1468,1468,0.141887269091462,0.1,1.0,1.0,266.0,873.0,1.0,1,1171.0,1
1469,1469,-0.1304214252774799,-0.1,1.0,0.0,342.0,649.0,1.0,1,829.0,0
1470,1470,0.8867819550980395,0.9,0.0,0.0,296.0,829.0,1.0,0,-345.0,0
1471,1471,0.24812752522630077,0.2,0.0,0.0,438.0,954.0,1.0,0,-382.0,0
1472,1472,0.2225772535167886,0.2,1.0,1.0,467.0,527.0,1.0,1,206.0,1
1473,1473,0.4112616537207695,0.4,0.0,0.0,480.0,523.0,0.0,1,1017.0,1
1474,1474,0.7522664268890801,0.8,1.0,1.0,258.0,712.0,1.0,1,260.0,1
1475,1475,0.3523412047929154,0.4,0.0,0.0,358.0,590.0,0.0,1,572.0,1
1476,1476,0.5924840478021584,0.6,0.0,0.0,498.0,945.0,0.0,1,187.0,1
1477,1477,-0.29373103904080966,-0.3,1.0,0.0,343.0,571.0,1.0,1,746.0,0
1478,1478,0.8541408557780535,0.9,1.0,1.0,432.0,800.0,1.0,1,108.0,1
1479,1479,0.19366739868062977,0.2,0.0,0.0,253.0,604.0,0.0,1,953.0,1
1480,1480,0.603513450712143,0.6,0.0,0.0,453.0,627.0,0.0,1,400.0,1
1481,1481,-0.5719480828362538,-0.6,1.0,0.0,485.0,690.0,1.0,1,-85.0,0
1482,1482,-0.8515874090788894,-0.9,0.0,1.0,376.0,818.0,1.0,0,116.0,1
1483,1483,-0.49337789773787083,-0.5,0.0,1.0,436.0,625.0,1.0,0,409.0,1
1484,1484,-0.6790110085396353,-0.7,0.0,1.0,270.0,919.0,1.0,0,41.0,1
1485,1485,0.29754366683203093,0.3,0.0,0.0,318.0,864.0,0.0,1,1068.0,1
1486,1486,0.8786953519749398,0.9,0.0,0.0,385.0,760.0,1.0,0,-15.0,0
1487,1487,-0.7441959765048191,-0.7,0.0,1.0,308.0,938.0,1.0,0,84.0,1
1488,1488,-0.09127274363368765,-0.1,1.0,0.0,325.0,906.0,1.0,1,849.0,0
1489,1489,0.25734555253125013,0.3,0.0,0.0,446.0,505.0,0.0,1,229.0,1
1490,1490,-0.7685912845072034,-0.8,1.0,0.0,272.0,639.0,0.0,0,189.0,1
1491,1491,-0.6653464088160281,-0.7,1.0,0.0,498.0,723.0,0.0,0,69.0,1
