,trial,coherence,coherence_bin,green_side,correct_side,target_onset,checker_onset,decision,green_decision,decision_time,correct_decision
0,0,-0.31321594836674693,-0.3,0.0,1.0,497.0,546.0,0.0,1,3957.0,0
1,1,0.5463907453052878,0.5,0.0,0.0,293.0,978.0,0.0,1,3729.0,1
2,2,0.6984927196666783,0.7,1.0,1.0,440.0,868.0,0.0,0,3692.0,0
3,3,-0.4194526055732215,-0.4,1.0,0.0,391.0,687.0,0.0,0,3922.0,1
4,4,-0.6480471027216965,-0.6,1.0,0.0,374.0,900.0,0.0,0,-874.0,1
5,5,-0.06810449052865397,-0.1,0.0,1.0,349.0,676.0,0.0,1,3975.0,0
6,6,0.5928890699979873,0.6,0.0,0.0,491.0,672.0,0.0,1,-953.0,1
7,7,0.018541366254334224,0.0,1.0,1.0,285.0,724.0,0.0,0,3991.0,0
8,8,0.8421408023887892,0.8,0.0,0.0,351.0,535.0,0.0,1,4114.0,1
9,9,0.14025324046621923,0.1,1.0,1.0,460.0,981.0,0.0,0,-1431.0,0
10,10,-0.5142175344417115,-0.5,0.0,1.0,293.0,719.0,0.0,1,3988.0,0
11,11,0.2506822121546223,0.3,1.0,1.0,429.0,600.0,0.0,0,3971.0,0
12,12,0.3616030188096485,0.4,1.0,1.0,486.0,828.0,0.0,0,3686.0,0
13,13,-0.6110582535502456,-0.6,0.0,1.0,413.0,961.0,0.0,1,-924.0,0
14,14,0.8178899903779911,0.8,0.0,0.0,344.0,861.0,0.0,1,3795.0,1
15,15,-0.8813274696014577,-0.9,1.0,0.0,414.0,503.0,0.0,0,4083.0,1
16,16,0.015130845556623695,0.0,1.0,1.0,409.0,934.0,0.0,0,3657.0,0
17,17,-0.5588141688230499,-0.6,0.0,1.0,325.0,550.0,0.0,1,-275.0,0
18,18,0.18531844076349857,0.2,0.0,0.0,345.0,726.0,0.0,1,3929.0,1
19,19,0.1659266015154638,0.2,1.0,1.0,259.0,963.0,0.0,0,3778.0,0
20,20,-0.5223157803690948,-0.5,1.0,0.0,325.0,807.0,1.0,1,-1132.0,0
21,21,-0.36607814888892254,-0.4,0.0,1.0,474.0,662.0,0.0,1,3864.0,0
22,22,-0.06813511676646644,-0.1,0.0,1.0,498.0,703.0,0.0,1,3799.0,0
23,23,-0.882795786985175,-0.9,1.0,0.0,394.0,529.0,0.0,0,4077.0,1
24,24,0.8262876424412072,0.8,1.0,1.0,400.0,654.0,0.0,0,-704.0,0
25,25,-0.024255498386866026,-0.0,0.0,1.0,442.0,519.0,1.0,0,-811.0,1
26,26,0.4315569550525503,0.4,1.0,1.0,430.0,901.0,0.0,0,3669.0,0
27,27,-0.3916115504181584,-0.4,0.0,1.0,363.0,869.0,0.0,1,-712.0,0
28,28,0.47025751287870643,0.5,0.0,0.0,497.0,666.0,0.0,1,3837.0,1
29,29,0.3105334827853229,0.3,1.0,1.0,358.0,810.0,0.0,0,3832.0,0
30,30,-0.7152072829178102,-0.7,0.0,1.0,392.0,863.0,0.0,1,3745.0,0
31,31,-0.27211349354451153,-0.3,0.0,1.0,376.0,825.0,0.0,1,3799.0,0
32,32,0.7927878789851398,0.8,1.0,1.0,305.0,771.0,1.0,1,-1016.0,1
33,33,-0.5248641082879419,-0.5,1.0,0.0,477.0,984.0,0.0,0,3539.0,1
34,34,0.3696287544810325,0.4,1.0,1.0,283.0,658.0,0.0,0,4059.0,0
35,35,-0.04497379834041704,-0.0,1.0,0.0,479.0,515.0,0.0,0,4006.0,1
36,36,0.5741478762175599,0.6,0.0,0.0,288.0,508.0,0.0,1,4204.0,1
37,37,-0.5458056701556344,-0.5,0.0,1.0,452.0,713.0,0.0,1,3835.0,0
38,38,-0.21617854693007454,-0.2,1.0,0.0,382.0,697.0,0.0,0,3921.0,1
39,39,0.5718293662352473,0.6,1.0,1.0,464.0,754.0,0.0,0,3782.0,0
40,40,-0.39775542986633794,-0.4,0.0,1.0,407.0,926.0,0.0,1,3667.0,0
41,41,-0.708970670149138,-0.7,1.0,0.0,442.0,674.0,0.0,0,3884.0,1
42,42,-0.0582754237782398,-0.1,1.0,0.0,254.0,891.0,1.0,1,-1085.0,0
43,43,0.31547377447923164,0.3,1.0,1.0,299.0,994.0,0.0,0,-1173.0,0
44,44,0.4163031077065841,0.4,0.0,0.0,254.0,946.0,0.0,1,-750.0,1
45,45,0.8763003949504823,0.9,1.0,1.0,266.0,886.0,0.0,0,3848.0,0
46,46,-0.4398548260777409,-0.4,0.0,1.0,489.0,737.0,0.0,1,-766.0,0
47,47,-0.8642535282190941,-0.9,1.0,0.0,481.0,962.0,0.0,0,3557.0,1
48,48,0.8105919755771823,0.8,0.0,0.0,403.0,848.0,0.0,1,3749.0,1
49,49,0.5817892925492275,0.6,1.0,1.0,271.0,690.0,0.0,0,-701.0,0
50,50,0.5811172993218211,0.6,1.0,1.0,447.0,969.0,0.0,0,-1356.0,0
51,51,0.3698367843047897,0.4,0.0,0.0,289.0,967.0,0.0,1,3744.0,1
52,52,0.18002175754605976,0.2,1.0,1.0,405.0,884.0,0.0,0,3711.0,0
53,53,0.25820262914318837,0.3,0.0,0.0,273.0,822.0,0.0,1,3905.0,1
54,54,0.2124730234390365,0.2,0.0,0.0,348.0,647.0,0.0,1,4005.0,1
55,55,0.006377199014469093,0.0,0.0,0.0,420.0,929.0,0.0,1,3651.0,1
56,56,0.5386348079714977,0.5,1.0,1.0,457.0,501.0,0.0,0,4042.0,0
57,57,-0.4182668001931551,-0.4,0.0,1.0,332.0,809.0,0.0,1,3859.0,0
58,58,0.5179072095352194,0.5,1.0,1.0,352.0,579.0,0.0,0,4069.0,0
59,59,-0.5271787911213215,-0.5,0.0,1.0,430.0,753.0,0.0,1,3817.0,0
60,60,0.620441304105141,0.6,1.0,1.0,266.0,951.0,0.0,0,3783.0,0
61,61,0.4668490826722701,0.5,1.0,1.0,488.0,835.0,0.0,0,3677.0,0
62,62,-0.8585463379644792,-0.9,1.0,0.0,355.0,708.0,0.0,0,3937.0,1
63,63,0.7973581528157064,0.8,0.0,0.0,347.0,730.0,0.0,1,3923.0,1
64,64,0.6756788775663122,0.7,1.0,1.0,393.0,718.0,0.0,0,3889.0,0
65,65,0.637282100276071,0.6,0.0,0.0,293.0,802.0,0.0,1,3905.0,1
66,66,0.4948512134359818,0.5,1.0,1.0,267.0,980.0,0.0,0,3753.0,0
67,67,0.3956153034747568,0.4,0.0,0.0,401.0,944.0,0.0,1,3655.0,1
68,68,-0.14654402822856605,-0.1,1.0,0.0,369.0,860.0,0.0,0,3771.0,1
69,69,0.5342721488155456,0.5,1.0,1.0,466.0,670.0,0.0,0,3864.0,0
70,70,0.01816934455115049,0.0,0.0,0.0,321.0,697.0,0.0,1,3982.0,1
71,71,0.07862287064516948,0.1,1.0,1.0,286.0,960.0,0.0,0,3754.0,0
72,72,0.4990280568161759,0.5,1.0,1.0,276.0,873.0,0.0,0,3851.0,0
73,73,-0.7973875640422657,-0.8,1.0,0.0,388.0,666.0,0.0,0,3946.0,1
74,74,-0.5614705840921348,-0.6,0.0,1.0,383.0,825.0,1.0,0,-1008.0,1
75,75,-0.5519683385262626,-0.6,0.0,1.0,492.0,563.0,0.0,1,3945.0,0
76,76,-0.25616184687845367,-0.3,0.0,1.0,415.0,542.0,0.0,1,4043.0,0
77,77,-0.5081816708174922,-0.5,1.0,0.0,462.0,620.0,0.0,0,3918.0,1
78,78,-0.11849686360906153,-0.1,0.0,1.0,411.0,610.0,0.0,1,3979.0,0
79,79,0.5924444286294103,0.6,0.0,0.0,254.0,557.0,0.0,1,4189.0,1
80,80,0.6537132748943827,0.7,1.0,1.0,461.0,678.0,0.0,0,3861.0,0
81,81,0.863786063573667,0.9,1.0,1.0,474.0,809.0,0.0,0,3717.0,0
82,82,-0.45333524319846347,-0.5,1.0,0.0,415.0,533.0,0.0,0,4052.0,1
83,83,0.8894176360805314,0.9,0.0,0.0,449.0,993.0,0.0,1,3558.0,1
84,84,0.7991400104817937,0.8,1.0,1.0,308.0,647.0,0.0,0,-845.0,0
85,85,-0.021589587630680085,-0.0,1.0,0.0,291.0,849.0,0.0,0,3860.0,1
86,86,0.17231869778866538,0.2,1.0,1.0,467.0,519.0,0.0,0,4014.0,0
87,87,0.47100567623582756,0.5,1.0,1.0,342.0,743.0,0.0,0,3915.0,0
88,88,0.23493748806055514,0.2,0.0,0.0,396.0,831.0,0.0,1,3773.0,1
89,89,-0.5854197544021811,-0.6,1.0,0.0,489.0,672.0,0.0,0,-921.0,1
90,90,-0.2154819999206904,-0.2,0.0,1.0,254.0,889.0,0.0,1,-833.0,0
91,91,-0.10980132569008483,-0.1,1.0,0.0,410.0,906.0,1.0,1,-1306.0,0
92,92,-0.590269449286869,-0.6,0.0,1.0,496.0,924.0,0.0,1,3580.0,0
93,93,-0.6520153573314506,-0.7,1.0,0.0,355.0,949.0,1.0,1,-1114.0,0
94,94,-0.07972349733036055,-0.1,0.0,1.0,269.0,691.0,0.0,1,4040.0,0
95,95,0.6906225726233005,0.7,1.0,1.0,398.0,736.0,0.0,0,3866.0,0
96,96,0.3963086179481111,0.4,1.0,1.0,395.0,772.0,0.0,0,-627.0,0
97,97,-0.29806396129471147,-0.3,1.0,0.0,346.0,696.0,0.0,0,3958.0,1
98,98,-0.2324088050521319,-0.2,1.0,0.0,367.0,797.0,0.0,0,3836.0,1
99,99,0.8958448494504728,0.9,1.0,1.0,437.0,886.0,0.0,0,3677.0,0
100,100,0.7327120676165136,0.7,0.0,0.0,388.0,957.0,0.0,1,3655.0,1
101,101,-0.002057553550681157,-0.0,1.0,0.0,276.0,572.0,0.0,0,4152.0,1
102,102,0.6739242005491767,0.7,0.0,0.0,254.0,800.0,0.0,1,-494.0,1
103,103,0.44042409337276867,0.4,0.0,0.0,446.0,990.0,0.0,1,3564.0,1
104,104,0.5127020407458146,0.5,0.0,0.0,336.0,623.0,0.0,1,4041.0,1
105,105,-0.20431828685386344,-0.2,0.0,1.0,372.0,850.0,0.0,1,3778.0,0
106,106,-0.5121221762072761,-0.5,1.0,0.0,443.0,690.0,0.0,0,3867.0,1
107,107,-0.09471679652663745,-0.1,0.0,1.0,414.0,992.0,0.0,1,-1006.0,0
108,108,0.6237315312412414,0.6,1.0,1.0,471.0,617.0,0.0,0,3912.0,0
109,109,-0.11827484193779492,-0.1,1.0,0.0,314.0,613.0,0.0,0,4073.0,1
110,110,-0.23705770105465473,-0.2,0.0,1.0,434.0,532.0,0.0,1,4034.0,0
111,111,-0.30286887726134715,-0.3,1.0,0.0,303.0,714.0,0.0,0,3983.0,1
112,112,-0.614992355837481,-0.6,0.0,1.0,351.0,944.0,0.0,1,-1215.0,0
113,113,0.7971604364145651,0.8,1.0,1.0,348.0,544.0,0.0,0,4108.0,0
114,114,-0.809655266108952,-0.8,0.0,1.0,456.0,720.0,0.0,1,3824.0,0
115,115,0.44070913252980193,0.4,0.0,0.0,489.0,909.0,0.0,1,3602.0,1
116,116,-0.4166139584663528,-0.4,1.0,0.0,360.0,907.0,0.0,0,3733.0,1
117,117,0.8079972343192895,0.8,1.0,1.0,322.0,525.0,0.0,0,4153.0,0
118,118,-0.20083237579497992,-0.2,1.0,0.0,319.0,739.0,0.0,0,3942.0,1
119,119,0.17040449226618792,0.2,0.0,0.0,490.0,507.0,0.0,1,4003.0,1
120,120,0.002909510557934647,0.0,0.0,0.0,356.0,638.0,0.0,1,4006.0,1
121,121,0.008179698777658562,0.0,1.0,1.0,421.0,522.0,0.0,0,4057.0,0
122,122,0.3403063473315143,0.3,1.0,1.0,415.0,590.0,0.0,0,3995.0,0
123,123,-0.16885735460111317,-0.2,1.0,0.0,298.0,779.0,1.0,1,-1057.0,0
124,124,-0.20106341826362617,-0.2,0.0,1.0,434.0,927.0,0.0,1,3639.0,0
125,125,-0.0058710721982691005,-0.0,1.0,0.0,344.0,817.0,0.0,0,3839.0,1
126,126,0.4587107722910876,0.5,1.0,1.0,384.0,749.0,0.0,0,-573.0,0
127,127,0.06730115779406043,0.1,1.0,1.0,285.0,505.0,0.0,0,-570.0,0
128,128,0.7798969560739702,0.8,0.0,0.0,458.0,559.0,0.0,1,3983.0,1
129,129,0.01326140643345386,0.0,1.0,1.0,315.0,727.0,1.0,1,-722.0,1
130,130,0.5370053517271923,0.5,0.0,0.0,441.0,677.0,0.0,1,3882.0,1
131,131,0.17584118061563714,0.2,1.0,1.0,482.0,581.0,0.0,0,-483.0,0
132,132,0.5830806518173072,0.6,0.0,0.0,263.0,502.0,0.0,1,-645.0,1
133,133,-0.10912871867891205,-0.1,0.0,1.0,381.0,830.0,0.0,1,-1101.0,0
134,134,-0.28471809810625526,-0.3,0.0,1.0,459.0,618.0,0.0,1,3923.0,0
135,135,0.8443367202046087,0.8,0.0,0.0,474.0,727.0,0.0,1,3799.0,1
136,136,-0.5958048761098115,-0.6,0.0,1.0,400.0,733.0,0.0,1,3867.0,0
137,137,-0.21258330421186733,-0.2,0.0,1.0,263.0,928.0,0.0,1,3809.0,0
138,138,-0.646228426082442,-0.6,1.0,0.0,497.0,560.0,0.0,0,-947.0,1
139,139,0.6228086718481688,0.6,1.0,1.0,307.0,887.0,0.0,0,3806.0,0
140,140,-0.8099818916790347,-0.8,1.0,0.0,419.0,728.0,0.0,0,-997.0,1
141,141,-0.38824438854347487,-0.4,0.0,1.0,260.0,683.0,1.0,0,-683.0,1
142,142,-0.0666662864765446,-0.1,1.0,0.0,400.0,730.0,0.0,0,3870.0,1
143,143,0.1179897229982233,0.1,1.0,1.0,388.0,820.0,0.0,0,-598.0,0
144,144,-0.015238322173051322,-0.0,1.0,0.0,289.0,679.0,0.0,0,4032.0,1
145,145,0.4847581711734531,0.5,1.0,1.0,478.0,574.0,0.0,0,3948.0,0
146,146,0.42043244120914613,0.4,0.0,0.0,339.0,797.0,0.0,1,3864.0,1
147,147,-0.20831870941178698,-0.2,1.0,0.0,345.0,896.0,0.0,0,3759.0,1
148,148,0.510721576617665,0.5,0.0,0.0,345.0,731.0,0.0,1,-166.0,1
149,149,0.20339434864032102,0.2,0.0,0.0,384.0,833.0,0.0,1,3783.0,1
150,150,0.3404782466296913,0.3,1.0,1.0,350.0,824.0,0.0,0,3826.0,0
151,151,0.0761098602137722,0.1,0.0,0.0,372.0,799.0,0.0,1,3829.0,1
152,152,0.11805251735351219,0.1,1.0,1.0,268.0,508.0,0.0,0,4224.0,0
153,153,-0.49642550503219407,-0.5,1.0,0.0,342.0,847.0,0.0,0,3811.0,1
154,154,-0.7414291467750352,-0.7,1.0,0.0,292.0,737.0,0.0,0,3971.0,1
155,155,0.459369370772604,0.5,1.0,1.0,430.0,955.0,0.0,0,3615.0,0
156,156,-0.14832852771698724,-0.1,1.0,0.0,336.0,906.0,1.0,1,-1182.0,0
157,157,0.3047399192606789,0.3,0.0,0.0,288.0,883.0,0.0,1,3829.0,1
158,158,-0.5365211559961087,-0.5,0.0,1.0,288.0,982.0,0.0,1,3730.0,0
159,159,0.16563047121324337,0.2,0.0,0.0,436.0,743.0,0.0,1,3821.0,1
160,160,0.7051961365089384,0.7,1.0,1.0,424.0,909.0,0.0,0,-593.0,0
161,161,0.510936732495653,0.5,1.0,1.0,299.0,984.0,0.0,0,3717.0,0
162,162,-0.8258378346147949,-0.8,1.0,0.0,265.0,507.0,0.0,0,4228.0,1
163,163,-0.24884139203880573,-0.2,0.0,1.0,337.0,846.0,0.0,1,3817.0,0
164,164,-0.02968461130580824,-0.0,1.0,0.0,311.0,867.0,0.0,0,3822.0,1
165,165,0.5645282978432612,0.6,0.0,0.0,340.0,726.0,1.0,0,-1066.0,0
166,166,-0.12283565374449534,-0.1,0.0,1.0,361.0,825.0,0.0,1,3814.0,0
167,167,0.2622382268719393,0.3,0.0,0.0,357.0,525.0,0.0,1,4118.0,1
168,168,-0.8285990884652372,-0.8,1.0,0.0,273.0,610.0,0.0,0,4117.0,1
169,169,0.722334768176493,0.7,1.0,1.0,457.0,520.0,0.0,0,4023.0,0
170,170,-0.5507462971917485,-0.6,0.0,1.0,486.0,718.0,0.0,1,3796.0,0
171,171,0.6461841558826168,0.6,1.0,1.0,377.0,915.0,0.0,0,-1262.0,0
172,172,-0.19884673284435228,-0.2,0.0,1.0,451.0,638.0,0.0,1,3911.0,0
173,173,-0.849936251405444,-0.8,0.0,1.0,278.0,770.0,0.0,1,-958.0,0
174,174,-0.737818099975206,-0.7,0.0,1.0,385.0,911.0,0.0,1,3704.0,0
175,175,-0.270405826391355,-0.3,0.0,1.0,381.0,765.0,0.0,1,3854.0,0
176,176,0.8841232960766104,0.9,0.0,0.0,343.0,637.0,1.0,0,-840.0,0
177,177,0.20025488942306302,0.2,0.0,0.0,446.0,764.0,0.0,1,3790.0,1
178,178,-0.5103533564560576,-0.5,1.0,0.0,460.0,910.0,0.0,0,3630.0,1
179,179,-0.26478093264390434,-0.3,1.0,0.0,263.0,523.0,0.0,0,4214.0,1
180,180,0.806364682948142,0.8,1.0,1.0,300.0,802.0,0.0,0,3898.0,0
181,181,0.6453994348961835,0.6,0.0,0.0,331.0,658.0,1.0,0,-869.0,0
182,182,-0.7248108777836494,-0.7,1.0,0.0,419.0,626.0,0.0,0,-625.0,1
183,183,0.013006807342577087,0.0,0.0,0.0,472.0,621.0,0.0,1,3907.0,1
184,184,0.44478060665060093,0.4,1.0,1.0,382.0,630.0,0.0,0,3988.0,0
185,185,-0.7679598455082557,-0.8,0.0,1.0,494.0,707.0,0.0,1,3799.0,0
186,186,-0.8691024339493549,-0.9,0.0,1.0,456.0,804.0,0.0,1,3740.0,0
187,187,-0.16583559353583,-0.2,0.0,1.0,470.0,905.0,0.0,1,3625.0,0
188,188,-0.42746392821666757,-0.4,0.0,1.0,496.0,545.0,0.0,1,3959.0,0
189,189,0.29161090526378264,0.3,0.0,0.0,344.0,931.0,0.0,1,3725.0,1
190,190,0.575007025003038,0.6,0.0,0.0,363.0,618.0,0.0,1,4019.0,1
191,191,-0.6740966974593232,-0.7,0.0,1.0,297.0,733.0,0.0,1,3970.0,0
192,192,-0.2939194669721824,-0.3,0.0,1.0,290.0,614.0,0.0,1,-634.0,0
193,193,0.704483243674689,0.7,0.0,0.0,260.0,667.0,0.0,1,-347.0,1
194,194,0.3902990039672046,0.4,1.0,1.0,433.0,526.0,0.0,0,4041.0,0
195,195,-0.024060902563927344,-0.0,0.0,1.0,280.0,833.0,0.0,1,3887.0,0
196,196,-0.21168037665059913,-0.2,0.0,1.0,460.0,558.0,0.0,1,3982.0,0
197,197,0.17786350496172332,0.2,0.0,0.0,399.0,680.0,0.0,1,3921.0,1
198,198,0.09560080471192112,0.1,0.0,0.0,455.0,712.0,0.0,1,3833.0,1
199,199,-0.49209808293319274,-0.5,1.0,0.0,379.0,845.0,0.0,0,-1004.0,1
200,200,0.6774708213805806,0.7,0.0,0.0,492.0,684.0,0.0,1,-1106.0,1
201,201,-0.6311096064347065,-0.6,0.0,1.0,436.0,631.0,0.0,1,3933.0,0
202,202,0.14824227730697304,0.1,0.0,0.0,373.0,750.0,0.0,1,3877.0,1
203,203,-0.7192350218472646,-0.7,1.0,0.0,319.0,959.0,0.0,0,3722.0,1
204,204,0.7552168464073509,0.8,1.0,1.0,394.0,807.0,0.0,0,-1181.0,0
205,205,0.423504049033535,0.4,0.0,0.0,353.0,572.0,0.0,1,4075.0,1
206,206,-0.19104328105556023,-0.2,1.0,0.0,312.0,992.0,0.0,0,3696.0,1
207,207,-0.006990882565289236,-0.0,0.0,1.0,449.0,836.0,0.0,1,3715.0,0
208,208,-0.659621765104931,-0.7,1.0,0.0,455.0,620.0,0.0,0,3925.0,1
209,209,0.5498531303299504,0.5,0.0,0.0,289.0,871.0,0.0,1,-800.0,1
210,210,0.05388012468701653,0.1,0.0,0.0,404.0,945.0,1.0,0,-1319.0,0
211,211,0.7973622809038997,0.8,0.0,0.0,331.0,881.0,0.0,1,3788.0,1
212,212,0.4649257406123498,0.5,0.0,0.0,444.0,968.0,0.0,1,3588.0,1
213,213,0.6894522575481009,0.7,0.0,0.0,409.0,823.0,0.0,1,3768.0,1
214,214,0.16399845911578448,0.2,1.0,1.0,296.0,684.0,0.0,0,4020.0,0
215,215,-0.2736788747625779,-0.3,1.0,0.0,326.0,637.0,0.0,0,4037.0,1
216,216,-0.4082907912565824,-0.4,1.0,0.0,396.0,628.0,0.0,0,-394.0,1
217,217,-0.7608324106464622,-0.8,0.0,1.0,391.0,964.0,0.0,1,3645.0,0
218,218,0.8460649890180599,0.8,1.0,1.0,362.0,799.0,0.0,0,3839.0,0
219,219,0.31012533162950373,0.3,1.0,1.0,365.0,751.0,0.0,0,3884.0,0
220,220,-0.4870569742641855,-0.5,1.0,0.0,453.0,510.0,0.0,0,4037.0,1
221,221,-0.7826213533142765,-0.8,1.0,0.0,415.0,521.0,0.0,0,4064.0,1
222,222,0.8672378255991698,0.9,1.0,1.0,286.0,988.0,0.0,0,3726.0,0
223,223,0.07477998281982523,0.1,1.0,1.0,329.0,786.0,0.0,0,3885.0,0
224,224,0.45113473427989537,0.5,0.0,0.0,343.0,871.0,0.0,1,3786.0,1
225,225,0.40014921639529655,0.4,1.0,1.0,302.0,908.0,0.0,0,3790.0,0
226,226,0.3235950533646085,0.3,0.0,0.0,461.0,814.0,0.0,1,3725.0,1
227,227,0.5971549227512837,0.6,0.0,0.0,359.0,995.0,0.0,1,3646.0,1
228,228,0.3330362292470105,0.3,1.0,1.0,348.0,806.0,0.0,0,-554.0,0
229,229,0.7356900589090568,0.7,1.0,1.0,416.0,952.0,0.0,0,3632.0,0
230,230,-0.15726942162638535,-0.2,1.0,0.0,377.0,934.0,0.0,0,3689.0,1
231,231,0.6065767276420598,0.6,1.0,1.0,389.0,762.0,0.0,0,3849.0,0
232,232,0.50340643048141,0.5,1.0,1.0,340.0,919.0,0.0,0,3741.0,0
233,233,0.2260608507875549,0.2,1.0,1.0,339.0,863.0,0.0,0,3798.0,0
234,234,0.12477855513848579,0.1,0.0,0.0,407.0,815.0,0.0,1,-672.0,1
235,235,0.6628362385975274,0.7,0.0,0.0,364.0,507.0,0.0,1,4129.0,1
236,236,-0.2979185280601865,-0.3,0.0,1.0,488.0,997.0,0.0,1,3515.0,0
237,237,0.6602364497715639,0.7,1.0,1.0,294.0,515.0,0.0,0,4191.0,0
238,238,-0.8762311906412827,-0.9,0.0,1.0,289.0,641.0,0.0,1,4070.0,0
239,239,-0.2643303197469835,-0.3,1.0,0.0,388.0,902.0,1.0,1,-1160.0,0
240,240,-0.5525034686619411,-0.6,1.0,0.0,299.0,617.0,0.0,0,4084.0,1
241,241,-0.39920392215363876,-0.4,1.0,0.0,430.0,842.0,1.0,1,-1112.0,0
242,242,0.8309477612476027,0.8,1.0,1.0,267.0,817.0,0.0,0,3916.0,0
243,243,0.2601457267668762,0.3,1.0,1.0,490.0,927.0,0.0,0,3583.0,0
244,244,-0.17185303214239045,-0.2,0.0,1.0,409.0,596.0,0.0,1,3995.0,0
245,245,-0.21132140528468013,-0.2,0.0,1.0,399.0,916.0,0.0,1,3685.0,0
246,246,-0.21046874476884148,-0.2,0.0,1.0,402.0,842.0,0.0,1,-464.0,0
247,247,0.568102320201089,0.6,1.0,1.0,446.0,865.0,0.0,0,3689.0,0
248,248,0.30110839683100876,0.3,1.0,1.0,385.0,604.0,1.0,1,-909.0,1
249,249,-0.6717263289790439,-0.7,0.0,1.0,324.0,985.0,0.0,1,-1309.0,0
250,250,-0.45844753882922284,-0.5,1.0,0.0,276.0,880.0,0.0,0,3844.0,1
251,251,0.7002553254184877,0.7,1.0,1.0,476.0,563.0,0.0,0,-1019.0,0
252,252,0.10410367958070454,0.1,1.0,1.0,447.0,692.0,0.0,0,3861.0,0
253,253,0.1950377585135804,0.2,1.0,1.0,395.0,992.0,0.0,0,3613.0,0
254,254,-0.34471065527002986,-0.3,0.0,1.0,495.0,913.0,0.0,1,3592.0,0
255,255,-0.08822549484058917,-0.1,1.0,0.0,305.0,766.0,0.0,0,3929.0,1
256,256,0.8821740124854399,0.9,0.0,0.0,370.0,915.0,0.0,1,3715.0,1
257,257,0.3110427864116877,0.3,1.0,1.0,348.0,671.0,0.0,0,3981.0,0
258,258,0.1618352144985088,0.2,0.0,0.0,334.0,792.0,0.0,1,3874.0,1
259,259,-0.19806346401572605,-0.2,0.0,1.0,466.0,655.0,0.0,1,3879.0,0
260,260,-0.7131236804839467,-0.7,0.0,1.0,291.0,515.0,0.0,1,4194.0,0
261,261,-0.0671716140298817,-0.1,0.0,1.0,326.0,519.0,0.0,1,4155.0,0
262,262,-0.5493882567116314,-0.5,0.0,1.0,251.0,847.0,1.0,0,-998.0,1
263,263,0.4961679761870862,0.5,1.0,1.0,438.0,679.0,0.0,0,3883.0,0
264,264,-0.22979930852695163,-0.2,0.0,1.0,355.0,652.0,0.0,1,3993.0,0
265,265,-0.22952341162120682,-0.2,0.0,1.0,315.0,581.0,0.0,1,-416.0,0
266,266,-0.1718262601202467,-0.2,1.0,0.0,495.0,529.0,0.0,0,3976.0,1
267,267,-0.7830626715780639,-0.8,0.0,1.0,440.0,967.0,0.0,1,3593.0,0
268,268,0.2846891867930391,0.3,1.0,1.0,277.0,761.0,0.0,0,3962.0,0
269,269,-0.5611584133864655,-0.6,1.0,0.0,391.0,618.0,0.0,0,3991.0,1
270,270,-0.567692503965761,-0.6,0.0,1.0,377.0,626.0,0.0,1,3997.0,0
271,271,0.11268930776249364,0.1,1.0,1.0,315.0,662.0,0.0,0,4023.0,0
272,272,0.6430139418031547,0.6,1.0,1.0,446.0,547.0,0.0,0,4007.0,0
273,273,0.7472849753208185,0.7,0.0,0.0,328.0,755.0,0.0,1,3917.0,1
274,274,-0.12236040506489432,-0.1,1.0,0.0,306.0,987.0,0.0,0,-263.0,1
275,275,0.5320370215382279,0.5,1.0,1.0,454.0,645.0,0.0,0,3901.0,0
276,276,0.723980047635271,0.7,0.0,0.0,341.0,542.0,0.0,1,4117.0,1
277,277,0.7772269397472388,0.8,0.0,0.0,322.0,600.0,0.0,1,4078.0,1
278,278,0.7989999731878862,0.8,0.0,0.0,323.0,885.0,0.0,1,3792.0,1
279,279,0.6661390176712877,0.7,0.0,0.0,478.0,806.0,1.0,0,-1264.0,0
280,280,-0.0498176372286776,-0.0,1.0,0.0,499.0,636.0,0.0,0,3865.0,1
281,281,0.7853931759595202,0.8,0.0,0.0,399.0,692.0,0.0,1,3909.0,1
282,282,-0.8626280999161705,-0.9,1.0,0.0,392.0,870.0,0.0,0,3738.0,1
283,283,0.46722877124203077,0.5,0.0,0.0,461.0,727.0,0.0,1,-758.0,1
284,284,0.6911734302288385,0.7,1.0,1.0,458.0,536.0,0.0,0,-964.0,0
285,285,0.46187107152880624,0.5,1.0,1.0,426.0,819.0,0.0,0,3755.0,0
286,286,-0.7014762249391469,-0.7,0.0,1.0,471.0,884.0,0.0,1,-845.0,0
287,287,0.5650357173565567,0.6,0.0,0.0,290.0,741.0,0.0,1,3969.0,1
288,288,-0.6213148991988775,-0.6,1.0,0.0,351.0,503.0,0.0,0,4146.0,1
289,289,0.5268370110891888,0.5,0.0,0.0,491.0,697.0,0.0,1,3812.0,1
290,290,0.28248719189555993,0.3,1.0,1.0,381.0,905.0,0.0,0,3714.0,0
291,291,-0.8907143055791024,-0.9,1.0,0.0,416.0,609.0,0.0,0,3975.0,1
292,292,-0.6932024409887318,-0.7,1.0,0.0,251.0,726.0,0.0,0,4023.0,1
293,293,-0.36687086090407417,-0.4,0.0,1.0,255.0,743.0,0.0,1,4002.0,0
294,294,0.13596179458197766,0.1,0.0,0.0,309.0,706.0,0.0,1,3985.0,1
295,295,0.822097430641158,0.8,1.0,1.0,441.0,866.0,0.0,0,3693.0,0
296,296,0.2990700370812224,0.3,0.0,0.0,271.0,663.0,0.0,1,4066.0,1
297,297,-0.38141370199765556,-0.4,0.0,1.0,498.0,845.0,0.0,1,3657.0,0
298,298,-0.8753239550031882,-0.9,1.0,0.0,455.0,622.0,0.0,0,3923.0,1
299,299,-0.8961978582923179,-0.9,0.0,1.0,297.0,677.0,0.0,1,4026.0,0
300,300,0.2697727589131428,0.3,0.0,0.0,428.0,640.0,0.0,1,-998.0,1
301,301,0.05182873202626481,0.1,1.0,1.0,435.0,668.0,0.0,0,3897.0,0
302,302,-0.4314146676238753,-0.4,1.0,0.0,415.0,617.0,0.0,0,3968.0,1
303,303,0.18262691741421844,0.2,0.0,0.0,453.0,875.0,0.0,1,3672.0,1
304,304,0.22590191927463688,0.2,1.0,1.0,418.0,516.0,0.0,0,4066.0,0
305,305,0.44869490399497647,0.4,0.0,0.0,411.0,626.0,0.0,1,3963.0,1
306,306,0.08919829005606361,0.1,0.0,0.0,458.0,985.0,0.0,1,3557.0,1
307,307,0.6747742377934115,0.7,1.0,1.0,471.0,970.0,0.0,0,-1161.0,0
308,308,0.1832368134853154,0.2,0.0,0.0,450.0,672.0,0.0,1,3878.0,1
309,309,0.5799202912945044,0.6,0.0,0.0,276.0,687.0,0.0,1,4037.0,1
310,310,-0.6500645106453133,-0.7,1.0,0.0,351.0,607.0,0.0,0,-658.0,1
311,311,-0.5489511324059604,-0.5,0.0,1.0,396.0,808.0,0.0,1,3796.0,0
312,312,-0.08487015038759205,-0.1,1.0,0.0,415.0,782.0,0.0,0,3803.0,1
313,313,0.8474719360317656,0.8,1.0,1.0,297.0,868.0,0.0,0,-1155.0,0
314,314,-0.31311412427211927,-0.3,0.0,1.0,356.0,819.0,0.0,1,-655.0,0
315,315,-0.018717032156422397,-0.0,0.0,1.0,319.0,942.0,0.0,1,3739.0,0
316,316,-0.8380936330616154,-0.8,0.0,1.0,347.0,599.0,0.0,1,4054.0,0
317,317,0.23721150541285774,0.2,1.0,1.0,383.0,540.0,0.0,0,4077.0,0
318,318,-0.20014790908390856,-0.2,1.0,0.0,423.0,851.0,0.0,0,3726.0,1
319,319,0.6533019624353414,0.7,0.0,0.0,407.0,548.0,0.0,1,4045.0,1
320,320,0.564948178470344,0.6,0.0,0.0,275.0,626.0,0.0,1,4099.0,1
321,321,0.6864408310512428,0.7,1.0,1.0,495.0,765.0,0.0,0,3740.0,0
322,322,-0.1313495872798539,-0.1,0.0,1.0,352.0,931.0,1.0,0,-863.0,1
323,323,0.5653908164399578,0.6,0.0,0.0,456.0,798.0,0.0,1,3746.0,1
324,324,-0.8031005382930764,-0.8,1.0,0.0,391.0,777.0,0.0,0,3832.0,1
325,325,-0.3494111374789701,-0.3,0.0,1.0,290.0,591.0,0.0,1,4119.0,0
326,326,0.7540877427728757,0.8,0.0,0.0,495.0,660.0,0.0,1,3845.0,1
327,327,-0.6485418469489961,-0.6,0.0,1.0,372.0,855.0,1.0,0,-1067.0,1
328,328,0.10531128643601229,0.1,1.0,1.0,414.0,775.0,0.0,0,3811.0,0
329,329,-0.4815087428226104,-0.5,0.0,1.0,285.0,573.0,0.0,1,-678.0,0
330,330,-0.5672841075111246,-0.6,0.0,1.0,270.0,745.0,0.0,1,3985.0,0
331,331,0.5113413060952389,0.5,0.0,0.0,445.0,528.0,0.0,1,4027.0,1
332,332,-0.5047573786968955,-0.5,0.0,1.0,252.0,771.0,1.0,0,-393.0,1
333,333,-0.06810708738264526,-0.1,0.0,1.0,302.0,591.0,0.0,1,4107.0,0
334,334,0.5242810410109345,0.5,0.0,0.0,442.0,506.0,0.0,1,-288.0,1
335,335,-0.6830922341922866,-0.7,0.0,1.0,462.0,849.0,0.0,1,3689.0,0
336,336,0.543060994067022,0.5,0.0,0.0,270.0,884.0,0.0,1,-594.0,1
337,337,0.42989256709814494,0.4,1.0,1.0,394.0,506.0,0.0,0,4100.0,0
338,338,0.6348300204659548,0.6,0.0,0.0,498.0,847.0,0.0,1,3655.0,1
339,339,-0.2593850932051377,-0.3,0.0,1.0,292.0,595.0,0.0,1,4113.0,0
340,340,-0.018368139792956484,-0.0,0.0,1.0,405.0,769.0,0.0,1,3826.0,0
341,341,-0.6551752460455026,-0.7,0.0,1.0,262.0,877.0,0.0,1,3861.0,0
342,342,0.15382312804814469,0.2,0.0,0.0,307.0,544.0,0.0,1,4149.0,1
343,343,-0.6837010933403993,-0.7,1.0,0.0,298.0,824.0,0.0,0,3878.0,1
344,344,0.6936055243635776,0.7,0.0,0.0,331.0,655.0,0.0,1,4014.0,1
345,345,0.5398676657677818,0.5,1.0,1.0,314.0,949.0,0.0,0,3737.0,0
346,346,-0.25982576448756056,-0.3,1.0,0.0,313.0,748.0,0.0,0,3939.0,1
347,347,0.5264548001739741,0.5,1.0,1.0,289.0,568.0,0.0,0,4143.0,0
348,348,-0.047033286191079826,-0.0,0.0,1.0,432.0,713.0,0.0,1,-665.0,0
349,349,0.6532251807951731,0.7,0.0,0.0,472.0,790.0,0.0,1,3738.0,1
350,350,0.6118896352185835,0.6,1.0,1.0,291.0,834.0,0.0,0,3875.0,0
351,351,0.11883123511100069,0.1,0.0,0.0,321.0,622.0,0.0,1,4057.0,1
352,352,0.5707041962656912,0.6,0.0,0.0,310.0,531.0,0.0,1,4159.0,1
353,353,-0.3840286523118003,-0.4,0.0,1.0,321.0,564.0,1.0,0,-645.0,1
354,354,-0.4414632915139472,-0.4,0.0,1.0,368.0,727.0,0.0,1,3905.0,0
355,355,0.6660548326213617,0.7,0.0,0.0,299.0,599.0,0.0,1,4102.0,1
356,356,-0.3389186200874369,-0.3,0.0,1.0,434.0,579.0,0.0,1,3987.0,0
357,357,-0.5171873113483276,-0.5,0.0,1.0,304.0,813.0,0.0,1,3883.0,0
358,358,-0.3193858921945587,-0.3,1.0,0.0,394.0,763.0,0.0,0,-817.0,1
359,359,-0.47641691928637503,-0.5,0.0,1.0,375.0,602.0,0.0,1,4023.0,0
360,360,0.18289928316724036,0.2,1.0,1.0,469.0,589.0,0.0,0,-708.0,0
361,361,-0.02200290612909983,-0.0,0.0,1.0,298.0,928.0,0.0,1,3774.0,0
362,362,-0.11521438069933365,-0.1,1.0,0.0,465.0,954.0,0.0,0,3581.0,1
363,363,0.557355274971924,0.6,1.0,1.0,447.0,676.0,0.0,0,3877.0,0
364,364,-0.8539338428591883,-0.9,1.0,0.0,397.0,693.0,0.0,0,3910.0,1
365,365,0.30842963735585693,0.3,1.0,1.0,272.0,704.0,0.0,0,4024.0,0
366,366,-0.242620040846374,-0.2,1.0,0.0,348.0,724.0,1.0,1,-1072.0,0
367,367,-0.6237054559116629,-0.6,0.0,1.0,454.0,520.0,0.0,1,4026.0,0
368,368,-0.032830698545184944,-0.0,1.0,0.0,332.0,872.0,0.0,0,3796.0,1
369,369,0.4194869598660399,0.4,1.0,1.0,346.0,510.0,0.0,0,4144.0,0
370,370,0.15555907465406393,0.2,1.0,1.0,393.0,634.0,0.0,0,3973.0,0
371,371,-0.48152803142636325,-0.5,0.0,1.0,367.0,633.0,0.0,1,-710.0,0
372,372,0.7780699449171141,0.8,0.0,0.0,373.0,728.0,0.0,1,3899.0,1
373,373,0.3356670191921568,0.3,1.0,1.0,327.0,733.0,0.0,0,3940.0,0
374,374,0.8174523821872687,0.8,0.0,0.0,253.0,500.0,0.0,1,4247.0,1
375,375,-0.557824489721355,-0.6,0.0,1.0,433.0,956.0,0.0,1,3611.0,0
376,376,0.8628168617285595,0.9,1.0,1.0,343.0,808.0,0.0,0,3849.0,0
377,377,-0.32796149822637843,-0.3,0.0,1.0,250.0,608.0,1.0,0,-618.0,1
378,378,-0.6459828669672042,-0.6,0.0,1.0,254.0,852.0,0.0,1,3894.0,0
379,379,0.08454614672115657,0.1,0.0,0.0,454.0,518.0,0.0,1,4028.0,1
380,380,-0.2322037634758234,-0.2,1.0,0.0,495.0,869.0,0.0,0,3636.0,1
381,381,0.3398812015514433,0.3,0.0,0.0,444.0,855.0,0.0,1,-819.0,1
382,382,0.8091797251298009,0.8,1.0,1.0,268.0,664.0,0.0,0,4068.0,0
383,383,-0.5201826952033324,-0.5,0.0,1.0,334.0,766.0,0.0,1,3900.0,0
384,384,0.3500116026870227,0.4,1.0,1.0,408.0,500.0,0.0,0,4092.0,0
385,385,-0.4623708060896224,-0.5,1.0,0.0,403.0,659.0,0.0,0,-702.0,1
386,386,-0.5377349707698236,-0.5,1.0,0.0,390.0,596.0,0.0,0,4014.0,1
387,387,0.03537914153572075,0.0,1.0,1.0,466.0,944.0,0.0,0,3590.0,0
388,388,-0.7225920272259487,-0.7,0.0,1.0,277.0,874.0,1.0,0,-1131.0,1
389,389,-0.15536777512625521,-0.2,1.0,0.0,471.0,767.0,0.0,0,3762.0,1
390,390,0.49844004193670377,0.5,1.0,1.0,363.0,712.0,0.0,0,3925.0,0
391,391,0.8146913866351063,0.8,0.0,0.0,459.0,847.0,0.0,1,3694.0,1
392,392,0.19846168883593462,0.2,1.0,1.0,256.0,899.0,0.0,0,3845.0,0
393,393,0.6755874402880023,0.7,0.0,0.0,281.0,997.0,0.0,1,-838.0,1
394,394,-0.15514369960432406,-0.2,0.0,1.0,348.0,661.0,0.0,1,3991.0,0
395,395,0.23242096743494722,0.2,1.0,1.0,451.0,723.0,0.0,0,3826.0,0
396,396,-0.2593073456760959,-0.3,1.0,0.0,429.0,957.0,0.0,0,-296.0,1
397,397,0.33478291627295753,0.3,1.0,1.0,268.0,526.0,1.0,1,-794.0,1
398,398,0.15827055165914505,0.2,0.0,0.0,350.0,656.0,0.0,1,3994.0,1
399,399,0.4171585593315731,0.4,0.0,0.0,328.0,905.0,0.0,1,3767.0,1
400,400,-0.6422369799597885,-0.6,0.0,1.0,454.0,800.0,0.0,1,3746.0,0
401,401,-0.15080105040549485,-0.2,0.0,1.0,287.0,643.0,0.0,1,4070.0,0
402,402,0.547190074467056,0.5,0.0,0.0,418.0,692.0,0.0,1,3890.0,1
403,403,0.7789874495853791,0.8,1.0,1.0,321.0,772.0,0.0,0,-303.0,0
404,404,0.08488308647795628,0.1,1.0,1.0,335.0,987.0,0.0,0,3678.0,0
405,405,0.5533155501561055,0.6,1.0,1.0,315.0,732.0,0.0,0,3953.0,0
406,406,0.030119897928441053,0.0,0.0,0.0,379.0,802.0,0.0,1,3819.0,1
407,407,-0.4331409559188128,-0.4,1.0,0.0,317.0,661.0,0.0,0,4022.0,1
408,408,0.43217466451637654,0.4,1.0,1.0,433.0,719.0,0.0,0,3848.0,0
409,409,-0.7077659616061378,-0.7,1.0,0.0,346.0,773.0,0.0,0,3881.0,1
410,410,0.3595879948632589,0.4,0.0,0.0,261.0,804.0,0.0,1,3935.0,1
411,411,0.12946264996169432,0.1,1.0,1.0,324.0,948.0,0.0,0,3728.0,0
412,412,0.2590007061839906,0.3,1.0,1.0,409.0,910.0,0.0,0,3681.0,0
413,413,0.08459453723166854,0.1,1.0,1.0,451.0,945.0,1.0,1,-1206.0,1
414,414,-0.5647833847569912,-0.6,1.0,0.0,337.0,908.0,0.0,0,3755.0,1
415,415,0.018564537867715836,0.0,1.0,1.0,461.0,567.0,0.0,0,3972.0,0
416,416,-0.27213365973118775,-0.3,0.0,1.0,488.0,554.0,0.0,1,3958.0,0
417,417,0.7098265018977835,0.7,1.0,1.0,498.0,956.0,0.0,0,3546.0,0
418,418,-0.422769006434969,-0.4,1.0,0.0,420.0,713.0,0.0,0,3867.0,1
419,419,-0.8376959760162384,-0.8,1.0,0.0,259.0,759.0,1.0,1,-908.0,0
420,420,-0.5718401817776484,-0.6,1.0,0.0,475.0,855.0,0.0,0,3670.0,1
421,421,-0.3261775839104174,-0.3,0.0,1.0,495.0,868.0,0.0,1,-1223.0,0
422,422,-0.06587807158298586,-0.1,0.0,1.0,429.0,637.0,1.0,0,-846.0,1
423,423,0.37557997914382735,0.4,0.0,0.0,491.0,698.0,0.0,1,-969.0,1
424,424,-0.7384651825195306,-0.7,0.0,1.0,448.0,824.0,1.0,0,-1012.0,1
425,425,0.855623645437836,0.9,0.0,0.0,327.0,922.0,0.0,1,3751.0,1
426,426,0.4445551782813636,0.4,1.0,1.0,418.0,984.0,0.0,0,-1352.0,0
427,427,0.3318226812111479,0.3,0.0,0.0,477.0,636.0,0.0,1,3887.0,1
428,428,-0.5753166766303158,-0.6,1.0,0.0,317.0,787.0,1.0,1,-854.0,0
429,429,-0.19735481048042314,-0.2,1.0,0.0,324.0,504.0,0.0,0,4172.0,1
430,430,-0.03691817398946451,-0.0,0.0,1.0,279.0,613.0,0.0,1,4108.0,0
431,431,-0.07093265702033802,-0.1,0.0,1.0,442.0,534.0,0.0,1,4024.0,0
432,432,0.06066443588442927,0.1,1.0,1.0,310.0,949.0,1.0,1,-1049.0,1
433,433,-0.7145231016703885,-0.7,1.0,0.0,430.0,895.0,0.0,0,3675.0,1
434,434,0.1481363823735481,0.1,1.0,1.0,347.0,868.0,0.0,0,3785.0,0
435,435,-0.40135693487033663,-0.4,0.0,1.0,389.0,575.0,0.0,1,4036.0,0
436,436,-0.1600423870789418,-0.2,0.0,1.0,456.0,716.0,0.0,1,3828.0,0
437,437,0.7569201340893531,0.8,0.0,0.0,261.0,528.0,0.0,1,4211.0,1
438,438,-0.059114050055260936,-0.1,0.0,1.0,489.0,857.0,0.0,1,3654.0,0
439,439,-0.7749301669764784,-0.8,1.0,0.0,320.0,540.0,0.0,0,4140.0,1
440,440,-0.1581801845163281,-0.2,1.0,0.0,258.0,667.0,0.0,0,4075.0,1
441,441,-0.6522854563765599,-0.7,0.0,1.0,255.0,716.0,0.0,1,4029.0,0
442,442,0.2966517974835975,0.3,0.0,0.0,443.0,927.0,0.0,1,-670.0,1
443,443,-0.7250817623042427,-0.7,0.0,1.0,320.0,851.0,0.0,1,3829.0,0
444,444,0.5906751926260666,0.6,0.0,0.0,283.0,644.0,0.0,1,4073.0,1
445,445,-0.1054651657628739,-0.1,0.0,1.0,364.0,528.0,0.0,1,4108.0,0
446,446,-0.4470305499786112,-0.4,0.0,1.0,373.0,820.0,0.0,1,3807.0,0
447,447,-0.8166602055415901,-0.8,1.0,0.0,251.0,902.0,0.0,0,3847.0,1
448,448,0.7995418095255099,0.8,0.0,0.0,395.0,996.0,1.0,0,-1371.0,0
449,449,0.028852386544970243,0.0,0.0,0.0,451.0,701.0,0.0,1,3848.0,1
450,450,0.1660644368500469,0.2,1.0,1.0,378.0,948.0,0.0,0,3674.0,0
451,451,0.7505718853575866,0.8,0.0,0.0,276.0,644.0,0.0,1,4080.0,1
452,452,0.3358910803619989,0.3,0.0,0.0,308.0,893.0,0.0,1,3799.0,1
453,453,-0.5102752612287027,-0.5,0.0,1.0,469.0,501.0,0.0,1,4030.0,0
454,454,-0.8431957602799331,-0.8,0.0,1.0,366.0,642.0,0.0,1,3992.0,0
455,455,0.4649582662379993,0.5,1.0,1.0,404.0,638.0,0.0,0,3958.0,0
456,456,0.4808256990759886,0.5,0.0,0.0,458.0,569.0,0.0,1,3973.0,1
457,457,0.7965813358730606,0.8,1.0,1.0,428.0,991.0,0.0,0,3581.0,0
458,458,0.15512105087299288,0.2,1.0,1.0,406.0,791.0,1.0,1,-967.0,1
459,459,0.7770944405587622,0.8,0.0,0.0,423.0,567.0,0.0,1,4010.0,1
460,460,0.5897225973286494,0.6,1.0,1.0,493.0,635.0,0.0,0,3872.0,0
461,461,0.20554981603100664,0.2,0.0,0.0,406.0,962.0,0.0,1,3632.0,1
462,462,-0.7834814016755557,-0.8,1.0,0.0,426.0,715.0,0.0,0,3859.0,1
463,463,-0.5202052825544294,-0.5,0.0,1.0,286.0,538.0,0.0,1,4176.0,0
464,464,-0.6881267560251624,-0.7,1.0,0.0,264.0,708.0,0.0,0,4028.0,1
465,465,-0.613447719686463,-0.6,1.0,0.0,331.0,764.0,1.0,1,-975.0,0
466,466,-0.17879726328637313,-0.2,1.0,0.0,306.0,967.0,1.0,1,-543.0,0
467,467,0.2903566212801191,0.3,1.0,1.0,328.0,678.0,0.0,0,3994.0,0
468,468,-0.08185653988963448,-0.1,0.0,1.0,491.0,927.0,0.0,1,-1358.0,0
469,469,0.7128497383528573,0.7,1.0,1.0,354.0,661.0,1.0,1,-955.0,1
470,470,0.7779855555383582,0.8,0.0,0.0,358.0,664.0,0.0,1,3978.0,1
471,471,-0.2883292142547108,-0.3,1.0,0.0,295.0,687.0,0.0,0,4018.0,1
472,472,-0.46175989596619194,-0.5,1.0,0.0,392.0,973.0,0.0,0,3635.0,1
473,473,-0.47853113479808057,-0.5,0.0,1.0,321.0,581.0,1.0,0,-592.0,1
474,474,0.38067559989687616,0.4,1.0,1.0,467.0,834.0,0.0,0,3699.0,0
475,475,-0.5771886600121152,-0.6,1.0,0.0,315.0,545.0,0.0,0,4140.0,1
476,476,0.21378335219658828,0.2,1.0,1.0,328.0,623.0,0.0,0,4049.0,0
477,477,0.3363965717324787,0.3,0.0,0.0,496.0,598.0,0.0,1,3906.0,1
478,478,0.34321172808916856,0.3,1.0,1.0,441.0,506.0,0.0,0,4053.0,0
479,479,-0.37406905288632764,-0.4,0.0,1.0,496.0,851.0,0.0,1,3653.0,0
480,480,-0.24716728133600008,-0.2,0.0,1.0,294.0,735.0,0.0,1,3971.0,0
481,481,-0.5029165902417289,-0.5,0.0,1.0,496.0,576.0,0.0,1,3928.0,0
482,482,-0.11416850186313243,-0.1,0.0,1.0,312.0,694.0,0.0,1,3994.0,0
483,483,-0.13714829341152412,-0.1,1.0,0.0,260.0,566.0,0.0,0,4174.0,1
484,484,0.7336198132648063,0.7,0.0,0.0,343.0,901.0,0.0,1,3756.0,1
485,485,-0.5430718106402374,-0.5,0.0,1.0,266.0,900.0,0.0,1,-976.0,0
486,486,0.3863861141149715,0.4,1.0,1.0,328.0,899.0,0.0,0,3773.0,0
487,487,-0.04722521130367141,-0.0,1.0,0.0,363.0,782.0,0.0,0,3855.0,1
488,488,-0.3102883775682197,-0.3,1.0,0.0,471.0,945.0,0.0,0,3584.0,1
489,489,-0.3806010290947198,-0.4,0.0,1.0,488.0,645.0,0.0,1,-853.0,0
490,490,0.6469353151679512,0.6,0.0,0.0,277.0,976.0,0.0,1,3747.0,1
491,491,-0.30009420150507793,-0.3,1.0,0.0,456.0,848.0,1.0,1,-914.0,0
492,492,-0.8456836924117528,-0.8,1.0,0.0,364.0,531.0,0.0,0,4105.0,1
493,493,-0.6135172850842975,-0.6,1.0,0.0,496.0,577.0,0.0,0,3927.0,1
494,494,-0.03413141063164604,-0.0,0.0,1.0,332.0,916.0,0.0,1,3752.0,0
495,495,-0.781150481566102,-0.8,1.0,0.0,448.0,545.0,1.0,1,-813.0,0
496,496,-0.6713793140332225,-0.7,0.0,1.0,443.0,506.0,0.0,1,4051.0,0
497,497,-0.21517412953538795,-0.2,1.0,0.0,295.0,900.0,0.0,0,3805.0,1
498,498,-0.6293418028629696,-0.6,1.0,0.0,275.0,782.0,0.0,0,3943.0,1
499,499,0.7621568721667006,0.8,1.0,1.0,331.0,753.0,0.0,0,-824.0,0
500,500,0.45158399415865624,0.5,0.0,0.0,377.0,652.0,0.0,1,3971.0,1
501,501,-0.08182207015308318,-0.1,1.0,0.0,305.0,852.0,0.0,0,3843.0,1
502,502,-0.8703507885305547,-0.9,0.0,1.0,405.0,730.0,0.0,1,-1085.0,0
503,503,-0.028494278820546226,-0.0,1.0,0.0,280.0,516.0,0.0,0,4204.0,1
504,504,-0.7884466111534733,-0.8,0.0,1.0,347.0,686.0,0.0,1,3967.0,0
505,505,0.2506819947237001,0.3,0.0,0.0,369.0,746.0,0.0,1,3885.0,1
506,506,-0.03991179310702375,-0.0,1.0,0.0,295.0,979.0,0.0,0,3726.0,1
507,507,0.4441257108170066,0.4,0.0,0.0,449.0,586.0,0.0,1,3965.0,1
508,508,-0.7100997447110682,-0.7,0.0,1.0,460.0,551.0,1.0,0,-1001.0,1
509,509,0.47177322424524337,0.5,1.0,1.0,258.0,718.0,0.0,0,4024.0,0
510,510,-0.6953718732207284,-0.7,1.0,0.0,256.0,649.0,0.0,0,4095.0,1
511,511,0.16594903281798412,0.2,1.0,1.0,279.0,890.0,0.0,0,3831.0,0
512,512,-0.41307109881739196,-0.4,0.0,1.0,451.0,901.0,0.0,1,3648.0,0
513,513,-0.5892985163650792,-0.6,0.0,1.0,285.0,951.0,0.0,1,3764.0,0
514,514,-0.6823632194603656,-0.7,1.0,0.0,410.0,711.0,0.0,0,3879.0,1
515,515,-0.1317637211414271,-0.1,1.0,0.0,366.0,715.0,0.0,0,3919.0,1
516,516,0.03652288078637966,0.0,0.0,0.0,407.0,707.0,0.0,1,3886.0,1
517,517,-0.32982939035277137,-0.3,0.0,1.0,415.0,992.0,0.0,1,3593.0,0
518,518,-0.5170605804975925,-0.5,0.0,1.0,391.0,914.0,0.0,1,3695.0,0
519,519,0.3422033303465707,0.3,1.0,1.0,483.0,503.0,0.0,0,4014.0,0
520,520,0.034022604334595585,0.0,0.0,0.0,394.0,549.0,0.0,1,4057.0,1
521,521,-0.6464673970896249,-0.6,1.0,0.0,489.0,778.0,0.0,0,3733.0,1
522,522,-0.3508737539070421,-0.4,0.0,1.0,294.0,729.0,0.0,1,3977.0,0
523,523,0.061174780258835604,0.1,1.0,1.0,287.0,682.0,0.0,0,4031.0,0
524,524,-0.6113269157293582,-0.6,0.0,1.0,399.0,637.0,0.0,1,3964.0,0
525,525,-0.4725516304122934,-0.5,1.0,0.0,437.0,516.0,1.0,1,-673.0,0
526,526,-0.40812944485899694,-0.4,1.0,0.0,334.0,961.0,1.0,1,-965.0,0
527,527,-0.8655238799341269,-0.9,0.0,1.0,254.0,970.0,0.0,1,3776.0,0
528,528,-0.5496747857445221,-0.5,0.0,1.0,372.0,964.0,0.0,1,3664.0,0
529,529,-0.8575200113926119,-0.9,1.0,0.0,421.0,575.0,0.0,0,4004.0,1
530,530,-0.3242986622098548,-0.3,1.0,0.0,481.0,884.0,0.0,0,3635.0,1
531,531,0.6792000426228942,0.7,0.0,0.0,298.0,506.0,1.0,0,-394.0,0
532,532,0.36598081594341225,0.4,1.0,1.0,439.0,723.0,0.0,0,3838.0,0
533,533,-0.6970180258311706,-0.7,0.0,1.0,263.0,775.0,0.0,1,3962.0,0
534,534,-0.3379251305713723,-0.3,1.0,0.0,366.0,919.0,0.0,0,3715.0,1
535,535,-0.2751330448201257,-0.3,1.0,0.0,312.0,908.0,0.0,0,3780.0,1
536,536,0.868652111579915,0.9,0.0,0.0,453.0,588.0,0.0,1,3959.0,1
537,537,0.47315071483194504,0.5,0.0,0.0,408.0,789.0,0.0,1,3803.0,1
538,538,0.2664273653479886,0.3,0.0,0.0,310.0,558.0,0.0,1,4132.0,1
539,539,-0.8051501631084139,-0.8,0.0,1.0,307.0,875.0,0.0,1,3818.0,0
540,540,-0.7174371431163384,-0.7,1.0,0.0,256.0,820.0,0.0,0,3924.0,1
541,541,-0.8480292292050536,-0.8,0.0,1.0,341.0,648.0,0.0,1,4011.0,0
542,542,0.5616850505021026,0.6,0.0,0.0,335.0,757.0,0.0,1,3908.0,1
543,543,-0.0007771392928097587,-0.0,1.0,0.0,312.0,602.0,0.0,0,4086.0,1
544,544,-0.5169189662200313,-0.5,0.0,1.0,486.0,694.0,0.0,1,3820.0,0
545,545,-0.8731076457620907,-0.9,1.0,0.0,447.0,530.0,0.0,0,4023.0,1
546,546,-0.845263025890839,-0.8,0.0,1.0,340.0,519.0,1.0,0,-629.0,1
547,547,-0.6356412837697993,-0.6,0.0,1.0,271.0,660.0,0.0,1,4069.0,0
548,548,-0.3190622209785924,-0.3,0.0,1.0,395.0,612.0,0.0,1,3993.0,0
549,549,-0.17494817267708263,-0.2,1.0,0.0,380.0,851.0,0.0,0,3769.0,1
550,550,0.19024870834256558,0.2,0.0,0.0,443.0,762.0,0.0,1,3795.0,1
551,551,-0.3118695981052615,-0.3,0.0,1.0,395.0,742.0,0.0,1,3863.0,0
552,552,-0.8661094094217278,-0.9,0.0,1.0,295.0,700.0,0.0,1,4005.0,0
553,553,0.285731083645676,0.3,0.0,0.0,498.0,901.0,0.0,1,3601.0,1
554,554,0.7813887683280426,0.8,0.0,0.0,291.0,561.0,0.0,1,4148.0,1
555,555,-0.8840460899362407,-0.9,0.0,1.0,391.0,979.0,0.0,1,3630.0,0
556,556,0.8575055550435434,0.9,0.0,0.0,300.0,735.0,0.0,1,3965.0,1
557,557,0.7816580390818854,0.8,0.0,0.0,373.0,973.0,0.0,1,-526.0,1
558,558,0.25641201159839644,0.3,0.0,0.0,308.0,651.0,0.0,1,4041.0,1
559,559,-0.7604183716480049,-0.8,0.0,1.0,455.0,957.0,0.0,1,3588.0,0
560,560,0.4607253696041408,0.5,0.0,0.0,463.0,644.0,0.0,1,3893.0,1
561,561,-0.06093606325522383,-0.1,0.0,1.0,252.0,912.0,0.0,1,3836.0,0
562,562,-0.7162915549039474,-0.7,1.0,0.0,283.0,833.0,0.0,0,3884.0,1
563,563,0.04023313886145008,0.0,0.0,0.0,405.0,560.0,1.0,0,-965.0,0
564,564,-0.7544416664557027,-0.8,0.0,1.0,402.0,525.0,0.0,1,4073.0,0
565,565,-0.30255868080559856,-0.3,1.0,0.0,386.0,755.0,0.0,0,3859.0,1
566,566,0.2882263862263429,0.3,1.0,1.0,430.0,827.0,0.0,0,3743.0,0
567,567,0.23279060708267008,0.2,1.0,1.0,352.0,968.0,0.0,0,3680.0,0
568,568,0.6256712888382537,0.6,0.0,0.0,294.0,534.0,1.0,0,-778.0,0
569,569,0.1174315927849997,0.1,0.0,0.0,287.0,885.0,0.0,1,3828.0,1
570,570,-0.7651495737124346,-0.8,0.0,1.0,371.0,990.0,0.0,1,3639.0,0
571,571,0.6936389194178235,0.7,1.0,1.0,493.0,835.0,0.0,0,3672.0,0
572,572,0.3008091806667429,0.3,0.0,0.0,423.0,950.0,0.0,1,3627.0,1
573,573,0.003210345771924361,0.0,1.0,1.0,266.0,946.0,0.0,0,-872.0,0
574,574,-0.6014037252261576,-0.6,0.0,1.0,410.0,745.0,0.0,1,-525.0,0
575,575,0.065472362407062,0.1,0.0,0.0,395.0,737.0,0.0,1,3868.0,1
576,576,-0.5507225528487105,-0.6,0.0,1.0,261.0,693.0,0.0,1,-814.0,0
577,577,-0.7391276414491884,-0.7,1.0,0.0,477.0,842.0,0.0,0,3681.0,1
578,578,-0.049240068229397194,-0.0,1.0,0.0,280.0,973.0,0.0,0,3747.0,1
579,579,-0.6171941542501234,-0.6,0.0,1.0,455.0,505.0,0.0,1,4040.0,0
580,580,0.5523561942790515,0.6,1.0,1.0,255.0,590.0,0.0,0,4155.0,0
581,581,-0.4605284585682408,-0.5,1.0,0.0,359.0,531.0,0.0,0,4110.0,1
582,582,-0.7698779036563624,-0.8,1.0,0.0,361.0,897.0,0.0,0,3742.0,1
583,583,-0.295375629448949,-0.3,1.0,0.0,373.0,841.0,0.0,0,3786.0,1
584,584,-0.6137729228995967,-0.6,1.0,0.0,290.0,626.0,0.0,0,4084.0,1
585,585,-0.29488615644353955,-0.3,1.0,0.0,387.0,675.0,0.0,0,3938.0,1
586,586,0.7487651691206249,0.7,1.0,1.0,489.0,649.0,0.0,0,3862.0,0
587,587,-0.23906262246127175,-0.2,1.0,0.0,376.0,985.0,0.0,0,3639.0,1
588,588,0.20636795907199745,0.2,1.0,1.0,264.0,797.0,0.0,0,3939.0,0
589,589,-0.5098070350812665,-0.5,1.0,0.0,361.0,839.0,0.0,0,3800.0,1
590,590,0.7992248245921393,0.8,0.0,0.0,274.0,876.0,0.0,1,3850.0,1
591,591,-0.23718958866353146,-0.2,0.0,1.0,437.0,774.0,0.0,1,3789.0,0
592,592,-0.3023892020425737,-0.3,0.0,1.0,308.0,773.0,0.0,1,3919.0,0
593,593,0.8382853437284584,0.8,1.0,1.0,321.0,630.0,0.0,0,4049.0,0
594,594,0.035697356545146275,0.0,0.0,0.0,305.0,912.0,0.0,1,-957.0,1
595,595,0.1277857425767258,0.1,0.0,0.0,446.0,727.0,0.0,1,3827.0,1
596,596,-0.5305128191967468,-0.5,1.0,0.0,304.0,920.0,0.0,0,3776.0,1
597,597,-0.3020561013131623,-0.3,1.0,0.0,334.0,503.0,1.0,1,-817.0,0
598,598,0.4243997748140168,0.4,1.0,1.0,292.0,982.0,1.0,1,-1194.0,1
599,599,-0.499191339975144,-0.5,1.0,0.0,454.0,772.0,0.0,0,3774.0,1
600,600,0.6660312550094488,0.7,0.0,0.0,291.0,697.0,0.0,1,4012.0,1
601,601,-0.7583119997909946,-0.8,0.0,1.0,433.0,755.0,0.0,1,3812.0,0
602,602,0.04638768854719799,0.0,0.0,0.0,411.0,869.0,0.0,1,3720.0,1
603,603,0.08565894375328376,0.1,0.0,0.0,318.0,927.0,1.0,0,-1155.0,0
604,604,-0.864050588401244,-0.9,0.0,1.0,418.0,969.0,0.0,1,-797.0,0
605,605,0.11322160206782328,0.1,1.0,1.0,306.0,968.0,0.0,0,-1034.0,0
606,606,-0.8450166895559734,-0.8,0.0,1.0,320.0,612.0,0.0,1,4068.0,0
607,607,0.1944704367158251,0.2,0.0,0.0,338.0,888.0,0.0,1,-836.0,1
608,608,0.8231464995365779,0.8,0.0,0.0,424.0,926.0,0.0,1,3650.0,1
609,609,0.351525219140738,0.4,0.0,0.0,419.0,771.0,0.0,1,3810.0,1
610,610,-0.5757412011670624,-0.6,1.0,0.0,294.0,561.0,0.0,0,4145.0,1
611,611,-0.2312267582207398,-0.2,0.0,1.0,265.0,996.0,0.0,1,3739.0,0
612,612,-0.3730515256086133,-0.4,1.0,0.0,459.0,881.0,0.0,0,3660.0,1
613,613,-0.3672909242353931,-0.4,0.0,1.0,317.0,711.0,0.0,1,3972.0,0
614,614,-0.5480611298404201,-0.5,1.0,0.0,255.0,964.0,0.0,0,3781.0,1
615,615,-0.5514082952492516,-0.6,1.0,0.0,399.0,771.0,0.0,0,3830.0,1
616,616,0.3532965987833251,0.4,0.0,0.0,349.0,547.0,0.0,1,-326.0,1
617,617,-0.4513711995181778,-0.5,1.0,0.0,270.0,836.0,0.0,0,3894.0,1
618,618,0.7556659974719656,0.8,1.0,1.0,308.0,602.0,0.0,0,4090.0,0
619,619,-0.29134328013571864,-0.3,0.0,1.0,426.0,526.0,0.0,1,-412.0,0
620,620,-0.18022052999122606,-0.2,0.0,1.0,373.0,656.0,0.0,1,3971.0,0
621,621,0.6134574983510955,0.6,0.0,0.0,424.0,976.0,0.0,1,3600.0,1
622,622,-0.5092414637625484,-0.5,1.0,0.0,377.0,828.0,1.0,1,-1015.0,0
623,623,0.1499119310791489,0.1,0.0,0.0,350.0,720.0,0.0,1,3930.0,1
624,624,0.6811193115058233,0.7,1.0,1.0,486.0,883.0,0.0,0,-689.0,0
625,625,-0.09331986495487377,-0.1,1.0,0.0,452.0,747.0,0.0,0,3801.0,1
626,626,0.7723781376255608,0.8,1.0,1.0,418.0,714.0,0.0,0,3868.0,0
627,627,0.12974142503639008,0.1,0.0,0.0,393.0,820.0,0.0,1,-513.0,1
628,628,-0.6756307410014959,-0.7,1.0,0.0,377.0,723.0,0.0,0,3900.0,1
629,629,0.8295124692417416,0.8,0.0,0.0,267.0,833.0,0.0,1,-400.0,1
630,630,0.6705106499513939,0.7,1.0,1.0,405.0,594.0,1.0,1,-969.0,1
631,631,0.31144656707859053,0.3,0.0,0.0,342.0,844.0,0.0,1,3814.0,1
632,632,0.08456035989371724,0.1,0.0,0.0,297.0,906.0,0.0,1,3797.0,1
633,633,-0.5223340220086616,-0.5,1.0,0.0,307.0,610.0,1.0,1,-687.0,0
634,634,0.22587030835030097,0.2,1.0,1.0,378.0,692.0,0.0,0,3930.0,0
635,635,0.7286162414293863,0.7,1.0,1.0,343.0,738.0,0.0,0,-691.0,0
636,636,-0.8939586758993585,-0.9,1.0,0.0,272.0,852.0,0.0,0,3876.0,1
637,637,0.2725186253943591,0.3,0.0,0.0,329.0,988.0,0.0,1,3683.0,1
638,638,-0.34187695850150046,-0.3,0.0,1.0,377.0,503.0,0.0,1,4120.0,0
639,639,0.8773683779798064,0.9,0.0,0.0,364.0,698.0,0.0,1,3938.0,1
640,640,0.42466414288185794,0.4,1.0,1.0,433.0,667.0,0.0,0,-790.0,0
641,641,0.7951864436355657,0.8,1.0,1.0,355.0,714.0,0.0,0,3931.0,0
642,642,-0.055274465400514505,-0.1,1.0,0.0,470.0,846.0,0.0,0,3684.0,1
643,643,0.3989016181485826,0.4,1.0,1.0,379.0,710.0,0.0,0,-529.0,0
644,644,-0.878077731863629,-0.9,1.0,0.0,363.0,531.0,0.0,0,-674.0,1
645,645,-0.5998575861054187,-0.6,0.0,1.0,256.0,989.0,0.0,1,3755.0,0
646,646,0.6042967881678932,0.6,1.0,1.0,266.0,555.0,0.0,0,4179.0,0
647,647,-0.71868682693766,-0.7,1.0,0.0,257.0,972.0,0.0,0,3771.0,1
648,648,-0.06744172274694904,-0.1,0.0,1.0,329.0,811.0,0.0,1,3860.0,0
649,649,-0.11462596087980526,-0.1,0.0,1.0,347.0,665.0,0.0,1,3988.0,0
650,650,0.5137507799481208,0.5,0.0,0.0,393.0,528.0,0.0,1,-441.0,1
651,651,0.29007379868123817,0.3,1.0,1.0,338.0,833.0,0.0,0,3829.0,0
652,652,0.04087230556449184,0.0,1.0,1.0,404.0,874.0,0.0,0,3722.0,0
653,653,-0.6011307864658797,-0.6,1.0,0.0,285.0,708.0,0.0,0,4007.0,1
654,654,-0.14464806158396026,-0.1,0.0,1.0,292.0,690.0,0.0,1,4018.0,0
655,655,-0.2924250903565869,-0.3,1.0,0.0,397.0,556.0,0.0,0,4047.0,1
656,656,0.17565320223482928,0.2,0.0,0.0,335.0,744.0,0.0,1,3921.0,1
657,657,0.34562372830353183,0.3,0.0,0.0,488.0,708.0,0.0,1,3804.0,1
658,658,0.7115196392520594,0.7,1.0,1.0,399.0,659.0,0.0,0,-818.0,0
659,659,0.34158647893126914,0.3,1.0,1.0,331.0,848.0,0.0,0,3821.0,0
660,660,-0.7933703985565279,-0.8,1.0,0.0,266.0,814.0,0.0,0,-1060.0,1
661,661,-0.20804319787739434,-0.2,0.0,1.0,437.0,995.0,0.0,1,3568.0,0
662,662,-0.6805276358563248,-0.7,1.0,0.0,265.0,756.0,0.0,0,3979.0,1
663,663,-0.2344587327970311,-0.2,0.0,1.0,369.0,827.0,1.0,0,-896.0,1
664,664,-0.2683767046026204,-0.3,0.0,1.0,262.0,913.0,0.0,1,3825.0,0
665,665,-0.6629889048546125,-0.7,1.0,0.0,390.0,685.0,0.0,0,3925.0,1
666,666,-0.4000970822754551,-0.4,0.0,1.0,391.0,577.0,0.0,1,4032.0,0
667,667,-0.7683030495467809,-0.8,1.0,0.0,278.0,810.0,0.0,0,3912.0,1
668,668,-0.6438113600819928,-0.6,1.0,0.0,389.0,757.0,0.0,0,3854.0,1
669,669,0.7056200345243037,0.7,1.0,1.0,370.0,966.0,0.0,0,3664.0,0
670,670,0.12773433836040315,0.1,0.0,0.0,484.0,761.0,0.0,1,-1035.0,1
671,671,-0.81771869271854,-0.8,1.0,0.0,390.0,971.0,0.0,0,3639.0,1
672,672,0.6395776696186125,0.6,0.0,0.0,307.0,804.0,0.0,1,3889.0,1
673,673,0.835632281014051,0.8,1.0,1.0,294.0,654.0,0.0,0,-398.0,0
674,674,0.4052282579179688,0.4,0.0,0.0,445.0,548.0,0.0,1,4007.0,1
675,675,-0.45667416858298293,-0.5,1.0,0.0,434.0,636.0,0.0,0,3930.0,1
676,676,0.27130791667616794,0.3,1.0,1.0,474.0,506.0,0.0,0,4020.0,0
677,677,-0.7966228699800848,-0.8,1.0,0.0,378.0,612.0,0.0,0,4010.0,1
678,678,-0.8604837856065437,-0.9,0.0,1.0,470.0,629.0,0.0,1,3901.0,0
679,679,-0.7194159612246722,-0.7,1.0,0.0,380.0,580.0,0.0,0,4040.0,1
680,680,0.5351477485824573,0.5,0.0,0.0,273.0,928.0,0.0,1,3799.0,1
681,681,-0.16621269474656786,-0.2,1.0,0.0,345.0,628.0,0.0,0,4027.0,1
682,682,-0.05542107316897127,-0.1,0.0,1.0,269.0,676.0,0.0,1,4055.0,0
683,683,0.11383196276666119,0.1,0.0,0.0,363.0,546.0,0.0,1,4091.0,1
684,684,-0.8037827095845199,-0.8,1.0,0.0,421.0,611.0,1.0,1,-922.0,0
685,685,0.859173674511334,0.9,0.0,0.0,331.0,806.0,0.0,1,3863.0,1
686,686,-0.7669000121892222,-0.8,1.0,0.0,473.0,804.0,0.0,0,-1107.0,1
687,687,-0.28270844373703885,-0.3,0.0,1.0,484.0,686.0,0.0,1,3830.0,0
688,688,0.8374272126470755,0.8,1.0,1.0,350.0,511.0,0.0,0,4139.0,0
689,689,0.5330327708433976,0.5,1.0,1.0,418.0,558.0,0.0,0,4024.0,0
690,690,-0.7894983035138302,-0.8,0.0,1.0,386.0,727.0,1.0,0,-1083.0,1
691,691,-0.7744716082181786,-0.8,1.0,0.0,346.0,690.0,0.0,0,-346.0,1
692,692,-0.008769248586222744,-0.0,1.0,0.0,361.0,573.0,0.0,0,4066.0,1
693,693,-0.7341146066849842,-0.7,1.0,0.0,401.0,536.0,0.0,0,-457.0,1
694,694,0.3787375734549904,0.4,1.0,1.0,312.0,697.0,0.0,0,3991.0,0
695,695,-0.8246763184656438,-0.8,0.0,1.0,452.0,615.0,0.0,1,3933.0,0
696,696,-0.3103963499389931,-0.3,0.0,1.0,396.0,812.0,0.0,1,3792.0,0
697,697,-0.8680364427864058,-0.9,0.0,1.0,270.0,726.0,0.0,1,4004.0,0
698,698,0.008020775883685438,0.0,1.0,1.0,254.0,890.0,0.0,0,3856.0,0
699,699,-0.7981067349590969,-0.8,1.0,0.0,447.0,548.0,0.0,0,4005.0,1
700,700,0.3609264867704013,0.4,0.0,0.0,372.0,683.0,0.0,1,3945.0,1
701,701,0.8341582965126927,0.8,0.0,0.0,321.0,641.0,0.0,1,4038.0,1
702,702,0.22300536734324516,0.2,0.0,0.0,495.0,509.0,0.0,1,3996.0,1
703,703,-0.34375467861220743,-0.3,0.0,1.0,269.0,975.0,0.0,1,3756.0,0
704,704,0.6448803888410223,0.6,1.0,1.0,499.0,725.0,0.0,0,3776.0,0
705,705,0.5195736570801036,0.5,0.0,0.0,366.0,630.0,0.0,1,4004.0,1
706,706,-0.6963845043324695,-0.7,0.0,1.0,340.0,731.0,1.0,0,-1001.0,1
707,707,-0.3586152808588666,-0.4,1.0,0.0,365.0,840.0,0.0,0,3795.0,1
708,708,0.4014924033835213,0.4,0.0,0.0,399.0,905.0,0.0,1,3696.0,1
709,709,-0.36318896714442017,-0.4,0.0,1.0,286.0,665.0,0.0,1,-951.0,0
710,710,-0.11705640975666631,-0.1,1.0,0.0,401.0,523.0,0.0,0,4076.0,1
711,711,0.7848568530928332,0.8,1.0,1.0,401.0,844.0,1.0,1,-965.0,1
712,712,-0.40105825814529067,-0.4,0.0,1.0,270.0,665.0,0.0,1,4065.0,0
713,713,0.5331093752586328,0.5,1.0,1.0,450.0,634.0,0.0,0,-1034.0,0
714,714,0.7721415224614013,0.8,0.0,0.0,417.0,643.0,0.0,1,-560.0,1
715,715,-0.12825799976566576,-0.1,0.0,1.0,380.0,982.0,1.0,0,-1242.0,1
716,716,0.4776583050375224,0.5,0.0,0.0,451.0,986.0,0.0,1,3563.0,1
717,717,0.43260916794022497,0.4,0.0,0.0,486.0,651.0,0.0,1,-1067.0,1
718,718,-0.022958072601334645,-0.0,0.0,1.0,264.0,720.0,0.0,1,4016.0,0
719,719,-0.7574422763518649,-0.8,0.0,1.0,262.0,592.0,0.0,1,4146.0,0
720,720,0.38001405634723795,0.4,1.0,1.0,349.0,507.0,0.0,0,4144.0,0
721,721,-0.6757149640491906,-0.7,1.0,0.0,335.0,987.0,0.0,0,3678.0,1
722,722,-0.8422050720227151,-0.8,1.0,0.0,365.0,920.0,0.0,0,-1015.0,1
723,723,-0.3461510699984286,-0.3,1.0,0.0,302.0,505.0,0.0,0,4193.0,1
724,724,0.7733166927134264,0.8,0.0,0.0,379.0,885.0,0.0,1,3736.0,1
725,725,0.3573486446036015,0.4,1.0,1.0,442.0,590.0,0.0,0,3968.0,0
726,726,0.4897532385286395,0.5,0.0,0.0,320.0,916.0,0.0,1,-1116.0,1
727,727,0.06422323821209253,0.1,0.0,0.0,468.0,806.0,0.0,1,-864.0,1
728,728,-0.7833285134263085,-0.8,1.0,0.0,386.0,748.0,0.0,0,-814.0,1
729,729,0.23794082746424217,0.2,1.0,1.0,305.0,936.0,0.0,0,-741.0,0
730,730,-0.23642770201593588,-0.2,1.0,0.0,488.0,700.0,0.0,0,3812.0,1
731,731,0.5623941416509975,0.6,0.0,0.0,319.0,867.0,0.0,1,3814.0,1
732,732,0.5333890292128426,0.5,0.0,0.0,321.0,591.0,0.0,1,4088.0,1
733,733,0.8508918801262285,0.9,1.0,1.0,476.0,982.0,0.0,0,3542.0,0
734,734,0.5039253595766809,0.5,0.0,0.0,257.0,890.0,0.0,1,3853.0,1
735,735,-0.07555863276022778,-0.1,0.0,1.0,251.0,854.0,0.0,1,-875.0,0
736,736,0.7700410068909894,0.8,1.0,1.0,465.0,684.0,0.0,0,-889.0,0
737,737,0.003744385764330671,0.0,1.0,1.0,287.0,986.0,1.0,1,-1193.0,1
738,738,0.8735437231701147,0.9,1.0,1.0,418.0,785.0,0.0,0,3797.0,0
739,739,-0.5357777132228609,-0.5,0.0,1.0,391.0,881.0,0.0,1,-782.0,0
740,740,0.0635315359302423,0.1,0.0,0.0,299.0,773.0,0.0,1,3928.0,1
741,741,-0.5668571384484001,-0.6,0.0,1.0,353.0,968.0,0.0,1,3679.0,0
742,742,-0.4310087595797504,-0.4,0.0,1.0,255.0,704.0,0.0,1,4041.0,0
743,743,0.5249467077595468,0.5,1.0,1.0,385.0,548.0,0.0,0,4067.0,0
744,744,0.8568619107496153,0.9,0.0,0.0,356.0,932.0,0.0,1,3712.0,1
745,745,0.8985531314509004,0.9,0.0,0.0,360.0,605.0,0.0,1,4035.0,1
746,746,0.870999332148119,0.9,0.0,0.0,413.0,561.0,0.0,1,4026.0,1
747,747,0.3164235627233468,0.3,0.0,0.0,276.0,866.0,0.0,1,-1032.0,1
748,748,-0.3148618704352598,-0.3,0.0,1.0,481.0,912.0,0.0,1,3607.0,0
749,749,0.44644336199454016,0.4,0.0,0.0,475.0,837.0,0.0,1,3688.0,1
750,750,-0.4359201668394929,-0.4,0.0,1.0,446.0,619.0,0.0,1,-875.0,0
751,751,-0.6018553147320582,-0.6,0.0,1.0,492.0,942.0,0.0,1,3566.0,0
752,752,0.060510083506006285,0.1,1.0,1.0,330.0,943.0,0.0,0,3727.0,0
753,753,0.1873092723329931,0.2,0.0,0.0,393.0,942.0,0.0,1,3665.0,1
754,754,0.6780101106117137,0.7,0.0,0.0,478.0,637.0,0.0,1,3885.0,1
755,755,-0.5876219769120243,-0.6,1.0,0.0,254.0,710.0,0.0,0,4036.0,1
756,756,-0.10534876145605188,-0.1,0.0,1.0,385.0,742.0,0.0,1,3873.0,0
757,757,0.6293651209217351,0.6,0.0,0.0,369.0,781.0,0.0,1,3850.0,1
758,758,0.3336429626166736,0.3,1.0,1.0,434.0,708.0,0.0,0,3858.0,0
759,759,-0.3382778511391782,-0.3,0.0,1.0,485.0,547.0,0.0,1,3968.0,0
760,760,0.8609454591143554,0.9,1.0,1.0,413.0,686.0,0.0,0,3901.0,0
761,761,0.591986037992935,0.6,1.0,1.0,461.0,994.0,0.0,0,3545.0,0
762,762,-0.8454625691659934,-0.8,0.0,1.0,294.0,864.0,0.0,1,3842.0,0
763,763,-0.47655470395218225,-0.5,0.0,1.0,374.0,835.0,0.0,1,3791.0,0
764,764,-0.2361442375067203,-0.2,1.0,0.0,489.0,864.0,0.0,0,3647.0,1
765,765,-0.03390023797234887,-0.0,1.0,0.0,358.0,637.0,0.0,0,4005.0,1
766,766,0.3926483895421645,0.4,0.0,0.0,481.0,616.0,1.0,0,-1077.0,0
767,767,-0.4837645987658193,-0.5,1.0,0.0,337.0,656.0,0.0,0,4007.0,1
768,768,-0.8845244703935029,-0.9,0.0,1.0,457.0,982.0,0.0,1,-1419.0,0
769,769,0.8138822664946209,0.8,1.0,1.0,462.0,501.0,0.0,0,4037.0,0
770,770,0.5399991743084381,0.5,0.0,0.0,327.0,879.0,0.0,1,3794.0,1
771,771,-0.3815849199387308,-0.4,0.0,1.0,343.0,819.0,0.0,1,3838.0,0
772,772,-0.0944639541562573,-0.1,0.0,1.0,285.0,588.0,0.0,1,4127.0,0
773,773,-0.7676695064974419,-0.8,1.0,0.0,389.0,745.0,0.0,0,3866.0,1
774,774,-0.38585808599604576,-0.4,1.0,0.0,286.0,790.0,0.0,0,3924.0,1
775,775,0.440139731975434,0.4,1.0,1.0,419.0,674.0,0.0,0,3907.0,0
776,776,-0.3628030068308302,-0.4,0.0,1.0,475.0,893.0,0.0,1,3632.0,0
777,777,0.3944764830412898,0.4,1.0,1.0,456.0,591.0,0.0,0,-1007.0,0
778,778,-0.8211486499017814,-0.8,1.0,0.0,393.0,956.0,0.0,0,3651.0,1
779,779,-0.4499763083775034,-0.4,1.0,0.0,425.0,561.0,0.0,0,4014.0,1
780,780,0.8242087426050296,0.8,1.0,1.0,275.0,532.0,0.0,0,-797.0,0
781,781,0.315184702408834,0.3,1.0,1.0,310.0,985.0,0.0,0,3705.0,0
782,782,0.8060393679856711,0.8,1.0,1.0,362.0,716.0,0.0,0,3922.0,0
783,783,-0.41364652403402125,-0.4,1.0,0.0,374.0,520.0,0.0,0,4106.0,1
784,784,-0.49673938888148467,-0.5,0.0,1.0,468.0,680.0,1.0,0,-1138.0,1
785,785,-0.25209012459192504,-0.3,1.0,0.0,489.0,966.0,0.0,0,3545.0,1
786,786,0.8440374714297675,0.8,1.0,1.0,413.0,728.0,0.0,0,3859.0,0
787,787,-0.8807615833964086,-0.9,0.0,1.0,434.0,871.0,0.0,1,3695.0,0
788,788,0.7275685950118674,0.7,1.0,1.0,433.0,980.0,0.0,0,3587.0,0
789,789,-0.2834776974851021,-0.3,0.0,1.0,305.0,827.0,1.0,0,-1032.0,1
790,790,-0.012524040826180749,-0.0,1.0,0.0,363.0,865.0,0.0,0,-1108.0,1
791,791,0.587147240133148,0.6,0.0,0.0,445.0,625.0,0.0,1,-860.0,1
792,792,0.33464305320374754,0.3,1.0,1.0,390.0,858.0,0.0,0,-428.0,0
793,793,0.38627613000243166,0.4,1.0,1.0,342.0,875.0,1.0,1,-1077.0,1
794,794,-0.14430949324601494,-0.1,1.0,0.0,440.0,880.0,0.0,0,3680.0,1
795,795,0.4016631199259687,0.4,0.0,0.0,279.0,986.0,0.0,1,3735.0,1
796,796,-0.8802028160969494,-0.9,1.0,0.0,485.0,918.0,0.0,0,3597.0,1
797,797,0.33419917166457147,0.3,1.0,1.0,365.0,784.0,0.0,0,-789.0,0
798,798,-0.13748253763441876,-0.1,0.0,1.0,497.0,822.0,0.0,1,3681.0,0
799,799,-0.15018513478854123,-0.2,0.0,1.0,443.0,741.0,0.0,1,3816.0,0
800,800,-0.603920741029236,-0.6,0.0,1.0,368.0,531.0,0.0,1,4101.0,0
801,801,-0.7601687451004879,-0.8,0.0,1.0,408.0,864.0,0.0,1,3728.0,0
802,802,0.5509837958652161,0.6,0.0,0.0,252.0,642.0,0.0,1,4106.0,1
803,803,-0.019671382466151743,-0.0,0.0,1.0,414.0,996.0,0.0,1,3590.0,0
804,804,0.24326535555735418,0.2,1.0,1.0,497.0,798.0,0.0,0,3705.0,0
805,805,0.7809562101807305,0.8,1.0,1.0,394.0,959.0,0.0,0,3647.0,0
806,806,-0.7785714160854648,-0.8,1.0,0.0,486.0,824.0,0.0,0,-840.0,1
807,807,0.8371008104899916,0.8,1.0,1.0,443.0,977.0,0.0,0,-1160.0,0
808,808,0.230646455784976,0.2,1.0,1.0,270.0,797.0,0.0,0,3933.0,0
809,809,0.5605556888097164,0.6,1.0,1.0,303.0,743.0,0.0,0,-466.0,0
810,810,0.2831757576951276,0.3,1.0,1.0,356.0,522.0,0.0,0,4122.0,0
811,811,0.15298803647518577,0.2,1.0,1.0,493.0,981.0,0.0,0,3526.0,0
812,812,0.08116836629523694,0.1,1.0,1.0,318.0,618.0,0.0,0,4064.0,0
813,813,-0.5839916656167023,-0.6,0.0,1.0,322.0,596.0,1.0,0,-878.0,1
814,814,-0.04167740631462835,-0.0,0.0,1.0,356.0,773.0,0.0,1,3871.0,0
815,815,-0.6046929575808655,-0.6,1.0,0.0,414.0,594.0,0.0,0,-478.0,1
816,816,0.14973352119007444,0.1,1.0,1.0,354.0,591.0,0.0,0,-735.0,0
817,817,0.32574100472205936,0.3,0.0,0.0,388.0,894.0,1.0,0,-1222.0,0
818,818,-0.00689412300996517,-0.0,0.0,1.0,375.0,986.0,0.0,1,-1351.0,0
819,819,0.8861058995659753,0.9,1.0,1.0,471.0,638.0,0.0,0,-1029.0,0
820,820,0.7292974808524942,0.7,1.0,1.0,311.0,866.0,0.0,0,3823.0,0
821,821,0.16042444178711224,0.2,0.0,0.0,418.0,666.0,0.0,1,3916.0,1
822,822,-0.457900535485439,-0.5,1.0,0.0,372.0,869.0,1.0,1,-1191.0,0
823,823,-0.7632206413811089,-0.8,0.0,1.0,411.0,509.0,0.0,1,4080.0,0
824,824,0.5267376458392427,0.5,0.0,0.0,261.0,855.0,0.0,1,3884.0,1
825,825,-0.4347030296536383,-0.4,0.0,1.0,271.0,570.0,0.0,1,-511.0,0
826,826,-0.651991198486791,-0.7,1.0,0.0,476.0,722.0,1.0,1,-1048.0,0
827,827,-0.40808921312417495,-0.4,0.0,1.0,432.0,903.0,0.0,1,3665.0,0
828,828,-0.1400438988456899,-0.1,0.0,1.0,411.0,601.0,0.0,1,3988.0,0
829,829,0.2867698468147256,0.3,1.0,1.0,468.0,667.0,0.0,0,3865.0,0
830,830,0.8914296814680381,0.9,1.0,1.0,363.0,613.0,0.0,0,-406.0,0
831,831,0.16726008518289548,0.2,0.0,0.0,314.0,923.0,0.0,1,3763.0,1
832,832,0.33592642199058587,0.3,0.0,0.0,333.0,966.0,0.0,1,3701.0,1
833,833,0.19590090926639603,0.2,1.0,1.0,304.0,709.0,0.0,0,3987.0,0
834,834,0.45923147842286716,0.5,0.0,0.0,278.0,581.0,0.0,1,4141.0,1
835,835,-0.4960208747198061,-0.5,0.0,1.0,495.0,541.0,0.0,1,3964.0,0
836,836,0.8198273660688474,0.8,0.0,0.0,379.0,757.0,0.0,1,3864.0,1
837,837,-0.390529752785726,-0.4,0.0,1.0,346.0,780.0,0.0,1,3874.0,0
838,838,-0.5016838323337429,-0.5,0.0,1.0,428.0,970.0,0.0,1,3602.0,0
839,839,-0.18698493046139986,-0.2,0.0,1.0,465.0,667.0,0.0,1,3868.0,0
840,840,0.3121666349104587,0.3,1.0,1.0,480.0,928.0,0.0,0,3592.0,0
841,841,0.8600276927487819,0.9,1.0,1.0,480.0,709.0,0.0,0,3811.0,0
842,842,0.12090514871309355,0.1,0.0,0.0,353.0,867.0,0.0,1,-580.0,1
843,843,-0.16913864486762986,-0.2,1.0,0.0,412.0,621.0,0.0,0,3967.0,1
844,844,0.39045495312983436,0.4,1.0,1.0,349.0,616.0,0.0,0,-925.0,0
845,845,0.7980434009302296,0.8,1.0,1.0,388.0,715.0,0.0,0,3897.0,0
846,846,0.16728689503375127,0.2,0.0,0.0,480.0,530.0,0.0,1,3990.0,1
847,847,-0.8879813030091116,-0.9,0.0,1.0,432.0,916.0,0.0,1,3652.0,0
848,848,-0.13656346726091373,-0.1,1.0,0.0,390.0,609.0,0.0,0,4001.0,1
849,849,-0.018903466250436374,-0.0,1.0,0.0,496.0,900.0,0.0,0,3604.0,1
850,850,-0.0013331491380556004,-0.0,0.0,1.0,268.0,712.0,0.0,1,4020.0,0
851,851,-0.5414011533118956,-0.5,0.0,1.0,498.0,886.0,0.0,1,3616.0,0
852,852,0.43537726859031134,0.4,0.0,0.0,253.0,557.0,0.0,1,4190.0,1
853,853,0.6207237376621321,0.6,0.0,0.0,380.0,580.0,0.0,1,4040.0,1
854,854,0.4937328939641462,0.5,0.0,0.0,338.0,907.0,0.0,1,3755.0,1
855,855,-0.4799494275373511,-0.5,0.0,1.0,328.0,531.0,1.0,0,-729.0,1
856,856,0.890241316660206,0.9,1.0,1.0,456.0,538.0,0.0,0,4006.0,0
857,857,-0.4014603849788338,-0.4,0.0,1.0,427.0,979.0,0.0,1,3594.0,0
858,858,0.48717945190863066,0.5,0.0,0.0,460.0,729.0,0.0,1,3811.0,1
859,859,0.20336291025906983,0.2,1.0,1.0,413.0,636.0,0.0,0,3951.0,0
860,860,-0.29409982526800216,-0.3,1.0,0.0,386.0,527.0,1.0,1,-823.0,0
861,861,-0.6682373414454885,-0.7,0.0,1.0,252.0,594.0,1.0,0,-816.0,1
862,862,0.6741256261140326,0.7,0.0,0.0,320.0,622.0,0.0,1,4058.0,1
863,863,-0.7165448798092561,-0.7,0.0,1.0,390.0,967.0,0.0,1,3643.0,0
864,864,-0.48049046419012487,-0.5,1.0,0.0,478.0,946.0,0.0,0,3576.0,1
865,865,-0.11874573749735817,-0.1,1.0,0.0,489.0,943.0,0.0,0,3568.0,1
866,866,-0.06970195220060438,-0.1,0.0,1.0,272.0,745.0,1.0,0,-767.0,1
867,867,0.8672868115941544,0.9,1.0,1.0,316.0,987.0,0.0,0,3697.0,0
868,868,0.08558732637199462,0.1,1.0,1.0,476.0,808.0,1.0,1,-1194.0,1
869,869,0.396559961281559,0.4,0.0,0.0,405.0,502.0,0.0,1,4093.0,1
870,870,0.32698211990047155,0.3,1.0,1.0,442.0,610.0,0.0,0,3948.0,0
871,871,0.16638760106274886,0.2,0.0,0.0,330.0,604.0,1.0,0,-904.0,0
872,872,-0.14062692226254636,-0.1,1.0,0.0,453.0,627.0,0.0,0,-780.0,1
873,873,-0.23708856946663626,-0.2,0.0,1.0,295.0,744.0,0.0,1,3961.0,0
874,874,-0.09296927223089158,-0.1,0.0,1.0,293.0,838.0,1.0,0,-801.0,1
875,875,-0.32653329927688957,-0.3,1.0,0.0,404.0,706.0,0.0,0,3890.0,1
876,876,-0.33155809792911906,-0.3,0.0,1.0,477.0,616.0,0.0,1,3907.0,0
877,877,0.1320345670882811,0.1,0.0,0.0,438.0,987.0,0.0,1,3575.0,1
878,878,-0.21544396552026712,-0.2,0.0,1.0,265.0,793.0,0.0,1,3942.0,0
879,879,0.40601123717562493,0.4,1.0,1.0,348.0,865.0,0.0,0,3787.0,0
880,880,0.5548712632469152,0.6,0.0,0.0,277.0,548.0,0.0,1,4175.0,1
881,881,-0.5706116615635832,-0.6,1.0,0.0,295.0,918.0,0.0,0,3787.0,1
882,882,-0.034134286436044325,-0.0,1.0,0.0,309.0,961.0,0.0,0,3730.0,1
883,883,-0.47921220666749326,-0.5,1.0,0.0,268.0,809.0,0.0,0,3923.0,1
884,884,-0.19610964475988601,-0.2,1.0,0.0,496.0,525.0,0.0,0,3979.0,1
885,885,-0.3075097103917652,-0.3,0.0,1.0,280.0,840.0,0.0,1,3880.0,0
886,886,0.34865512470040205,0.3,1.0,1.0,343.0,964.0,0.0,0,3693.0,0
887,887,0.07347183692711612,0.1,1.0,1.0,270.0,775.0,0.0,0,3955.0,0
888,888,0.5586772082511843,0.6,0.0,0.0,288.0,914.0,0.0,1,3798.0,1
889,889,-0.10913976263151248,-0.1,0.0,1.0,496.0,841.0,1.0,0,-1237.0,1
890,890,-0.08230593451950197,-0.1,1.0,0.0,409.0,555.0,0.0,0,4036.0,1
891,891,0.1993376910006187,0.2,1.0,1.0,328.0,628.0,0.0,0,4044.0,0
892,892,-0.5311912412513957,-0.5,0.0,1.0,489.0,895.0,0.0,1,3616.0,0
893,893,-0.2477822398467444,-0.2,0.0,1.0,368.0,748.0,0.0,1,3884.0,0
894,894,-0.38873819130084075,-0.4,1.0,0.0,495.0,589.0,0.0,0,-414.0,1
895,895,-0.40973473221570605,-0.4,0.0,1.0,312.0,771.0,0.0,1,3917.0,0
896,896,0.7073923808669592,0.7,1.0,1.0,306.0,757.0,0.0,0,3937.0,0
897,897,-0.25236626604942913,-0.3,0.0,1.0,336.0,586.0,0.0,1,4078.0,0
898,898,0.5597156373103876,0.6,1.0,1.0,465.0,950.0,0.0,0,3585.0,0
899,899,-0.36996513391112107,-0.4,0.0,1.0,498.0,747.0,0.0,1,3755.0,0
900,900,0.6873112372363804,0.7,1.0,1.0,273.0,515.0,0.0,0,4212.0,0
901,901,-0.7864276606731954,-0.8,0.0,1.0,446.0,817.0,0.0,1,3737.0,0
902,902,0.2239910262041217,0.2,0.0,0.0,475.0,760.0,0.0,1,3765.0,1
903,903,0.8271763459931122,0.8,1.0,1.0,468.0,858.0,0.0,0,3674.0,0
904,904,-0.5363091787516665,-0.5,0.0,1.0,301.0,938.0,0.0,1,3761.0,0
905,905,-0.15246915384382498,-0.2,0.0,1.0,262.0,938.0,0.0,1,3800.0,0
906,906,-0.5746000539755092,-0.6,1.0,0.0,434.0,825.0,1.0,1,-1159.0,0
907,907,-0.09951750506039159,-0.1,0.0,1.0,458.0,847.0,0.0,1,3695.0,0
908,908,-0.5216016807072354,-0.5,1.0,0.0,289.0,948.0,0.0,0,3763.0,1
909,909,0.8875817020772957,0.9,1.0,1.0,401.0,934.0,0.0,0,3665.0,0
910,910,0.6692429447892064,0.7,1.0,1.0,257.0,631.0,0.0,0,4112.0,0
911,911,0.6333949932064401,0.6,0.0,0.0,280.0,872.0,0.0,1,3848.0,1
912,912,-0.003908252154552816,-0.0,1.0,0.0,423.0,607.0,0.0,0,3970.0,1
913,913,-0.01130207827179619,-0.0,1.0,0.0,286.0,803.0,0.0,0,3911.0,1
914,914,-0.2885983783972741,-0.3,1.0,0.0,298.0,521.0,0.0,0,4181.0,1
915,915,0.021479706260219555,0.0,1.0,1.0,299.0,971.0,0.0,0,3730.0,0
916,916,-0.6190529179867172,-0.6,0.0,1.0,394.0,659.0,0.0,1,3947.0,0
917,917,0.27697040786441074,0.3,0.0,0.0,408.0,769.0,0.0,1,3823.0,1
918,918,-0.28764606857690034,-0.3,0.0,1.0,275.0,985.0,0.0,1,3740.0,0
919,919,-0.6646686521761238,-0.7,0.0,1.0,359.0,567.0,0.0,1,4074.0,0
920,920,0.7888047359557241,0.8,0.0,0.0,410.0,936.0,0.0,1,3654.0,1
921,921,-0.40560376920030017,-0.4,1.0,0.0,466.0,713.0,0.0,0,3821.0,1
922,922,-0.029890541969481044,-0.0,0.0,1.0,488.0,906.0,0.0,1,3606.0,0
923,923,-0.40929300432740834,-0.4,1.0,0.0,343.0,711.0,0.0,0,-684.0,1
924,924,-0.8754818907070484,-0.9,1.0,0.0,312.0,634.0,0.0,0,-556.0,1
925,925,-0.13984499142581175,-0.1,0.0,1.0,445.0,766.0,0.0,1,3789.0,0
926,926,0.015528790764210876,0.0,0.0,0.0,424.0,512.0,0.0,1,4064.0,1
927,927,0.400900524660169,0.4,0.0,0.0,257.0,809.0,0.0,1,3934.0,1
928,928,-0.3280772096024678,-0.3,0.0,1.0,438.0,939.0,0.0,1,3623.0,0
929,929,0.09622511647954146,0.1,1.0,1.0,301.0,751.0,1.0,1,-1042.0,1
930,930,0.697661225911426,0.7,0.0,0.0,279.0,711.0,0.0,1,-740.0,1
931,931,-0.5636247598181174,-0.6,1.0,0.0,322.0,530.0,0.0,0,4148.0,1
932,932,-0.2334047516482739,-0.2,0.0,1.0,325.0,901.0,0.0,1,3774.0,0
933,933,0.246873280457082,0.2,0.0,0.0,498.0,987.0,0.0,1,3515.0,1
934,934,-0.5337673256046149,-0.5,0.0,1.0,365.0,690.0,0.0,1,3945.0,0
935,935,-0.4423570729227507,-0.4,0.0,1.0,389.0,921.0,0.0,1,3690.0,0
936,936,0.8841832407783613,0.9,0.0,0.0,485.0,659.0,0.0,1,3856.0,1
937,937,0.7708388864212338,0.8,0.0,0.0,349.0,586.0,0.0,1,4065.0,1
938,938,-0.8533277864119507,-0.9,1.0,0.0,376.0,887.0,1.0,1,-1173.0,0
939,939,-0.3203013348032975,-0.3,0.0,1.0,280.0,878.0,0.0,1,3842.0,0
940,940,0.8711520550181185,0.9,0.0,0.0,384.0,852.0,0.0,1,3764.0,1
941,941,-0.7300675449793459,-0.7,1.0,0.0,474.0,843.0,1.0,1,-1167.0,0
942,942,0.6442592324963826,0.6,0.0,0.0,410.0,791.0,0.0,1,3799.0,1
943,943,-0.8463547717148793,-0.8,1.0,0.0,487.0,672.0,0.0,0,3841.0,1
944,944,0.7402138812122915,0.7,1.0,1.0,450.0,517.0,0.0,0,4033.0,0
945,945,0.14481222431726792,0.1,0.0,0.0,368.0,635.0,0.0,1,3997.0,1
946,946,-0.42587705285749883,-0.4,0.0,1.0,411.0,702.0,0.0,1,3887.0,0
947,947,-0.8597756609323487,-0.9,1.0,0.0,262.0,693.0,0.0,0,4045.0,1
948,948,-0.0744340993798901,-0.1,0.0,1.0,470.0,873.0,0.0,1,3657.0,0
949,949,-0.3191281584887421,-0.3,1.0,0.0,360.0,927.0,0.0,0,3713.0,1
950,950,0.3711834871741465,0.4,0.0,0.0,397.0,907.0,0.0,1,3696.0,1
951,951,-0.6432228776867064,-0.6,1.0,0.0,360.0,609.0,0.0,0,-429.0,1
952,952,0.38119419895063766,0.4,0.0,0.0,486.0,771.0,0.0,1,3743.0,1
953,953,-0.41418418608331853,-0.4,1.0,0.0,485.0,516.0,0.0,0,3999.0,1
954,954,0.013356190751248165,0.0,0.0,0.0,295.0,523.0,0.0,1,4182.0,1
955,955,-0.8694270716533782,-0.9,1.0,0.0,286.0,877.0,0.0,0,3837.0,1
956,956,0.13231794866774715,0.1,0.0,0.0,377.0,728.0,0.0,1,3895.0,1
957,957,-0.416058755007218,-0.4,0.0,1.0,419.0,652.0,0.0,1,3929.0,0
958,958,-0.31104699792545587,-0.3,1.0,0.0,426.0,552.0,0.0,0,4022.0,1
959,959,0.6873449057013,0.7,1.0,1.0,329.0,657.0,0.0,0,4014.0,0
960,960,0.015644860447662445,0.0,1.0,1.0,339.0,937.0,0.0,0,3724.0,0
961,961,-0.08273167423817351,-0.1,1.0,0.0,404.0,650.0,0.0,0,3946.0,1
962,962,-0.8179656364726162,-0.8,1.0,0.0,444.0,579.0,0.0,0,3977.0,1
963,963,0.6614748910031368,0.7,0.0,0.0,346.0,964.0,0.0,1,3690.0,1
964,964,0.4318006164593998,0.4,1.0,1.0,459.0,676.0,0.0,0,-865.0,0
965,965,-0.8037065544764392,-0.8,0.0,1.0,439.0,834.0,0.0,1,3727.0,0
966,966,0.5923573419504778,0.6,0.0,0.0,491.0,555.0,0.0,1,3954.0,1
967,967,0.11011321711993027,0.1,0.0,0.0,295.0,631.0,0.0,1,-646.0,1
968,968,0.34045271921403064,0.3,0.0,0.0,319.0,552.0,0.0,1,4129.0,1
969,969,-0.6941814611923857,-0.7,1.0,0.0,436.0,870.0,0.0,0,3694.0,1
970,970,-0.4409935011934487,-0.4,1.0,0.0,368.0,994.0,0.0,0,3638.0,1
971,971,0.42457174546302967,0.4,1.0,1.0,409.0,710.0,1.0,1,-1089.0,1
972,972,0.894379108771738,0.9,1.0,1.0,399.0,535.0,0.0,0,-444.0,0
973,973,-0.3396018485789595,-0.3,1.0,0.0,375.0,992.0,0.0,0,3633.0,1
974,974,0.2860704231981822,0.3,1.0,1.0,474.0,763.0,1.0,1,-1207.0,1
975,975,-0.8658958830480007,-0.9,1.0,0.0,413.0,612.0,0.0,0,3975.0,1
976,976,-0.5972937731063708,-0.6,0.0,1.0,335.0,654.0,0.0,1,4011.0,0
977,977,0.5089424318422963,0.5,0.0,0.0,383.0,876.0,0.0,1,3741.0,1
978,978,0.4948185731221494,0.5,0.0,0.0,431.0,659.0,0.0,1,3910.0,1
979,979,-0.7555143007355456,-0.8,0.0,1.0,345.0,896.0,0.0,1,3759.0,0
980,980,0.6420513510389844,0.6,0.0,0.0,398.0,754.0,0.0,1,3848.0,1
981,981,-0.46083269867100046,-0.5,0.0,1.0,360.0,513.0,0.0,1,4127.0,0
982,982,0.7716660300654555,0.8,1.0,1.0,395.0,906.0,1.0,1,-1291.0,1
983,983,-0.016444095633429412,-0.0,0.0,1.0,303.0,602.0,0.0,1,4095.0,0
984,984,-0.3981594147628935,-0.4,0.0,1.0,496.0,764.0,0.0,1,-1260.0,0
985,985,0.47610058844469394,0.5,1.0,1.0,323.0,658.0,0.0,0,4019.0,0
986,986,-0.09948752675191297,-0.1,0.0,1.0,447.0,673.0,1.0,0,-1090.0,1
987,987,0.8401847014146099,0.8,1.0,1.0,389.0,583.0,0.0,0,4028.0,0
988,988,-0.8532709928191413,-0.9,1.0,0.0,261.0,745.0,0.0,0,3994.0,1
989,989,0.5519107361608314,0.6,1.0,1.0,307.0,854.0,0.0,0,3839.0,0
990,990,-0.5914654699593083,-0.6,0.0,1.0,270.0,725.0,0.0,1,4005.0,0
991,991,-0.4382473771080703,-0.4,1.0,0.0,475.0,765.0,0.0,0,3760.0,1
992,992,-0.15448792197454775,-0.2,1.0,0.0,464.0,648.0,0.0,0,-782.0,1
993,993,0.10866561028375299,0.1,1.0,1.0,262.0,530.0,0.0,0,4208.0,0
994,994,0.2472795462694094,0.2,0.0,0.0,444.0,855.0,0.0,1,3701.0,1
995,995,0.14407415335123674,0.1,1.0,1.0,276.0,786.0,0.0,0,3938.0,0
996,996,0.11908791461164092,0.1,0.0,0.0,370.0,820.0,0.0,1,3810.0,1
997,997,-0.09944777018792883,-0.1,0.0,1.0,321.0,989.0,0.0,1,3690.0,0
998,998,0.3487336477534789,0.3,0.0,0.0,254.0,734.0,0.0,1,4012.0,1
999,999,-0.03543506984563882,-0.0,1.0,0.0,408.0,794.0,0.0,0,3798.0,1
1000,1000,-0.45422281078271803,-0.5,0.0,1.0,492.0,740.0,0.0,1,3768.0,0
1001,1001,-0.2739203286042867,-0.3,0.0,1.0,315.0,932.0,0.0,1,3753.0,0
1002,1002,-0.03483706625214622,-0.0,0.0,1.0,490.0,802.0,0.0,1,3708.0,0
1003,1003,0.8511862203444983,0.9,1.0,1.0,281.0,884.0,1.0,1,-945.0,1
1004,1004,-0.1537271252706519,-0.2,0.0,1.0,288.0,947.0,0.0,1,3765.0,0
1005,1005,0.5320356002797774,0.5,0.0,0.0,335.0,549.0,0.0,1,4116.0,1
1006,1006,-0.4235173129224122,-0.4,1.0,0.0,295.0,944.0,0.0,0,3761.0,1
1007,1007,0.19775726374467595,0.2,1.0,1.0,498.0,534.0,0.0,0,3968.0,0
1008,1008,0.35764773728851884,0.4,0.0,0.0,304.0,510.0,0.0,1,4186.0,1
1009,1009,-0.0739193823004044,-0.1,0.0,1.0,354.0,761.0,0.0,1,3885.0,0
1010,1010,0.7928914364395893,0.8,1.0,1.0,304.0,978.0,1.0,1,-1232.0,1
1011,1011,-0.6374917916850218,-0.6,0.0,1.0,407.0,783.0,0.0,1,3810.0,0
1012,1012,-0.032277084832857184,-0.0,0.0,1.0,326.0,952.0,0.0,1,3722.0,0
1013,1013,0.15938867251008404,0.2,1.0,1.0,348.0,537.0,0.0,0,4115.0,0
1014,1014,0.8883362855990441,0.9,1.0,1.0,373.0,623.0,0.0,0,-576.0,0
1015,1015,0.2421664804652014,0.2,1.0,1.0,347.0,518.0,0.0,0,-705.0,0
1016,1016,0.5606915294172204,0.6,1.0,1.0,432.0,973.0,0.0,0,3595.0,0
1017,1017,-0.3374770823301637,-0.3,0.0,1.0,463.0,976.0,0.0,1,3561.0,0
1018,1018,-0.5896627571802249,-0.6,0.0,1.0,299.0,672.0,0.0,1,4029.0,0
1019,1019,-0.8872623430826796,-0.9,0.0,1.0,250.0,603.0,0.0,1,4147.0,0
1020,1020,-0.7789670254157404,-0.8,0.0,1.0,318.0,522.0,1.0,0,-620.0,1
1021,1021,-0.06428428853606771,-0.1,0.0,1.0,299.0,502.0,0.0,1,4199.0,0
1022,1022,-0.7778356914555189,-0.8,1.0,0.0,465.0,991.0,0.0,0,3544.0,1
1023,1023,-0.8882653404527671,-0.9,0.0,1.0,298.0,812.0,1.0,0,-930.0,1
1024,1024,-0.8813023978239634,-0.9,0.0,1.0,260.0,722.0,0.0,1,4018.0,0
1025,1025,-0.35684223700386897,-0.4,0.0,1.0,263.0,878.0,0.0,1,3859.0,0
1026,1026,-0.47735299264860087,-0.5,0.0,1.0,259.0,846.0,0.0,1,3895.0,0
1027,1027,-0.3606693143511236,-0.4,0.0,1.0,444.0,665.0,0.0,1,-749.0,0
1028,1028,-0.8505604014013446,-0.9,1.0,0.0,375.0,668.0,0.0,0,3957.0,1
1029,1029,-0.6151569228817643,-0.6,1.0,0.0,326.0,639.0,0.0,0,-525.0,1
1030,1030,0.734347350338825,0.7,0.0,0.0,497.0,901.0,0.0,1,3602.0,1
1031,1031,0.6965267531639762,0.7,1.0,1.0,354.0,599.0,0.0,0,4047.0,0
1032,1032,0.8176075530107342,0.8,0.0,0.0,389.0,967.0,0.0,1,-1346.0,1
1033,1033,-0.47287638624415645,-0.5,1.0,0.0,434.0,850.0,0.0,0,3716.0,1
1034,1034,0.4880635691832286,0.5,0.0,0.0,443.0,549.0,0.0,1,4008.0,1
1035,1035,-0.7290892361690193,-0.7,0.0,1.0,369.0,587.0,0.0,1,4044.0,0
1036,1036,0.11176794324372186,0.1,1.0,1.0,399.0,514.0,0.0,0,4087.0,0
1037,1037,0.2574160574113934,0.3,1.0,1.0,362.0,792.0,0.0,0,3846.0,0
1038,1038,-0.0848102442612848,-0.1,1.0,0.0,287.0,708.0,0.0,0,-625.0,1
1039,1039,0.7439596164418766,0.7,1.0,1.0,488.0,885.0,0.0,0,3627.0,0
1040,1040,0.7963203644318507,0.8,0.0,0.0,297.0,586.0,0.0,1,4117.0,1
1041,1041,0.6835663323169773,0.7,0.0,0.0,273.0,798.0,0.0,1,3929.0,1
1042,1042,0.11311442609120348,0.1,0.0,0.0,314.0,925.0,0.0,1,3761.0,1
1043,1043,-0.5375966541698465,-0.5,0.0,1.0,256.0,736.0,0.0,1,4008.0,0
1044,1044,-0.6444651374978279,-0.6,1.0,0.0,408.0,926.0,0.0,0,3666.0,1
1045,1045,0.21245688684134068,0.2,0.0,0.0,376.0,724.0,0.0,1,3900.0,1
1046,1046,0.04861247776165012,0.0,1.0,1.0,426.0,979.0,0.0,0,-1105.0,0
1047,1047,0.788933360492409,0.8,1.0,1.0,454.0,746.0,0.0,0,3800.0,0
1048,1048,0.760268372575568,0.8,1.0,1.0,483.0,960.0,0.0,0,3557.0,0
1049,1049,0.2607135993167947,0.3,1.0,1.0,272.0,634.0,0.0,0,-246.0,0
1050,1050,-0.7757567881629731,-0.8,0.0,1.0,332.0,954.0,0.0,1,3714.0,0
1051,1051,-0.5687468152164445,-0.6,1.0,0.0,479.0,893.0,0.0,0,3628.0,1
1052,1052,-0.5825670372507483,-0.6,0.0,1.0,334.0,552.0,0.0,1,4114.0,0
1053,1053,0.8006648094063659,0.8,1.0,1.0,347.0,503.0,0.0,0,4150.0,0
1054,1054,-0.26883165141044896,-0.3,0.0,1.0,315.0,905.0,0.0,1,3780.0,0
1055,1055,0.7892870628533751,0.8,1.0,1.0,343.0,677.0,0.0,0,3980.0,0
1056,1056,0.8965185818741609,0.9,1.0,1.0,495.0,915.0,0.0,0,3590.0,0
1057,1057,0.11314135729866515,0.1,0.0,0.0,288.0,565.0,0.0,1,4147.0,1
1058,1058,-0.24090224039408525,-0.2,0.0,1.0,450.0,568.0,0.0,1,3982.0,0
1059,1059,0.27687855875658307,0.3,1.0,1.0,442.0,590.0,0.0,0,3968.0,0
1060,1060,0.5881868697476534,0.6,0.0,0.0,294.0,562.0,0.0,1,4144.0,1
1061,1061,-0.2734955372467748,-0.3,0.0,1.0,397.0,688.0,0.0,1,3915.0,0
1062,1062,-0.0262763701397154,-0.0,0.0,1.0,326.0,648.0,0.0,1,4026.0,0
1063,1063,-0.6277374649857768,-0.6,0.0,1.0,253.0,566.0,1.0,0,-719.0,1
1064,1064,-0.29463784640045354,-0.3,1.0,0.0,477.0,999.0,0.0,0,3524.0,1
1065,1065,-0.5232329375175573,-0.5,0.0,1.0,417.0,845.0,0.0,1,3738.0,0
1066,1066,0.6522455027275346,0.7,0.0,0.0,335.0,909.0,1.0,0,-1194.0,0
1067,1067,0.836073220999929,0.8,0.0,0.0,315.0,797.0,1.0,0,-1092.0,0
1068,1068,-0.3180119068460743,-0.3,0.0,1.0,343.0,597.0,0.0,1,4060.0,0
1069,1069,-0.20840028808118571,-0.2,0.0,1.0,296.0,870.0,1.0,0,-926.0,1
1070,1070,0.7413639063355174,0.7,0.0,0.0,458.0,597.0,0.0,1,3945.0,1
1071,1071,-0.7815208940390947,-0.8,0.0,1.0,303.0,602.0,0.0,1,4095.0,0
1072,1072,0.3961673136460079,0.4,1.0,1.0,338.0,699.0,0.0,0,-917.0,0
1073,1073,0.7362024586771777,0.7,1.0,1.0,414.0,888.0,1.0,1,-912.0,1
1074,1074,0.37719842602896747,0.4,0.0,0.0,347.0,613.0,0.0,1,4040.0,1
1075,1075,-0.47055242380047146,-0.5,0.0,1.0,361.0,793.0,0.0,1,-1044.0,0
1076,1076,-0.3720364581379918,-0.4,0.0,1.0,411.0,929.0,0.0,1,3660.0,0
1077,1077,-0.052497758057234,-0.1,0.0,1.0,258.0,851.0,0.0,1,3891.0,0
1078,1078,-0.7222469931175332,-0.7,0.0,1.0,399.0,509.0,1.0,0,-728.0,1
1079,1079,-0.8138065443420641,-0.8,1.0,0.0,322.0,601.0,0.0,0,-613.0,1
1080,1080,0.5158694830247456,0.5,0.0,0.0,390.0,762.0,0.0,1,3848.0,1
1081,1081,-0.23810465285782711,-0.2,0.0,1.0,292.0,639.0,0.0,1,4069.0,0
1082,1082,-0.17903735109184704,-0.2,0.0,1.0,405.0,855.0,0.0,1,3740.0,0
1083,1083,0.38005351163493695,0.4,1.0,1.0,465.0,920.0,0.0,0,3615.0,0
1084,1084,0.010101309064566188,0.0,1.0,1.0,333.0,957.0,0.0,0,3710.0,0
1085,1085,0.4335880291635966,0.4,0.0,0.0,302.0,879.0,0.0,1,3819.0,1
1086,1086,-0.6373284842108651,-0.6,0.0,1.0,360.0,950.0,0.0,1,3690.0,0
1087,1087,-0.870762484909481,-0.9,0.0,1.0,377.0,804.0,1.0,0,-1151.0,1
1088,1088,-0.6521577603393314,-0.7,0.0,1.0,345.0,842.0,0.0,1,3813.0,0
1089,1089,-0.7436566719201088,-0.7,0.0,1.0,358.0,775.0,0.0,1,3867.0,0
1090,1090,-0.48031796486843253,-0.5,1.0,0.0,407.0,919.0,0.0,0,3674.0,1
1091,1091,0.6551521840381599,0.7,1.0,1.0,458.0,565.0,0.0,0,3977.0,0
1092,1092,0.38616629049832707,0.4,1.0,1.0,368.0,836.0,0.0,0,3796.0,0
1093,1093,-0.30128205592043367,-0.3,1.0,0.0,272.0,727.0,0.0,0,4001.0,1
1094,1094,0.521676614410013,0.5,1.0,1.0,308.0,594.0,0.0,0,4098.0,0
1095,1095,-0.8009855667422644,-0.8,0.0,1.0,449.0,614.0,0.0,1,3937.0,0
1096,1096,-0.22892177663930013,-0.2,0.0,1.0,456.0,735.0,0.0,1,-911.0,0
1097,1097,0.4440165894338238,0.4,0.0,0.0,305.0,566.0,0.0,1,4129.0,1
1098,1098,0.7863250022276186,0.8,0.0,0.0,270.0,733.0,0.0,1,3997.0,1
1099,1099,0.03620382891821927,0.0,1.0,1.0,452.0,651.0,0.0,0,3897.0,0
1100,1100,-0.26470645071723786,-0.3,0.0,1.0,439.0,686.0,0.0,1,3875.0,0
1101,1101,-0.2879678234955879,-0.3,0.0,1.0,373.0,816.0,0.0,1,3811.0,0
1102,1102,0.317474798711307,0.3,0.0,0.0,379.0,596.0,0.0,1,4025.0,1
1103,1103,-0.06683714979843647,-0.1,1.0,0.0,350.0,549.0,0.0,0,4101.0,1
1104,1104,-0.5199486722532235,-0.5,1.0,0.0,461.0,725.0,0.0,0,3814.0,1
1105,1105,-0.8580556380812481,-0.9,0.0,1.0,374.0,743.0,0.0,1,3883.0,0
1106,1106,0.4972520770952277,0.5,0.0,0.0,432.0,683.0,0.0,1,-425.0,1
1107,1107,0.451242283453967,0.5,0.0,0.0,320.0,733.0,0.0,1,-493.0,1
1108,1108,-0.7612474293409779,-0.8,0.0,1.0,259.0,670.0,0.0,1,4071.0,0
1109,1109,-0.3656309886371709,-0.4,0.0,1.0,373.0,822.0,0.0,1,3805.0,0
1110,1110,-0.34401517675871374,-0.3,0.0,1.0,351.0,943.0,0.0,1,3706.0,0
1111,1111,0.8078626166690811,0.8,1.0,1.0,340.0,984.0,0.0,0,3676.0,0
1112,1112,-0.10622360856268731,-0.1,0.0,1.0,392.0,778.0,0.0,1,3830.0,0
1113,1113,-0.28706599118527754,-0.3,1.0,0.0,288.0,579.0,0.0,0,4133.0,1
1114,1114,-0.8385219503071637,-0.8,1.0,0.0,364.0,739.0,0.0,0,3897.0,1
1115,1115,-0.36013485606660345,-0.4,0.0,1.0,341.0,518.0,0.0,1,4141.0,0
1116,1116,0.719099977039264,0.7,0.0,0.0,335.0,753.0,1.0,0,-628.0,0
1117,1117,0.2176834911913016,0.2,1.0,1.0,441.0,889.0,0.0,0,3670.0,0
1118,1118,-0.12940717673384705,-0.1,0.0,1.0,402.0,555.0,1.0,0,-647.0,1
1119,1119,0.31921413702844303,0.3,1.0,1.0,276.0,932.0,0.0,0,3792.0,0
1120,1120,-0.0833652363663765,-0.1,0.0,1.0,493.0,605.0,0.0,1,3902.0,0
1121,1121,-0.4908537154932781,-0.5,1.0,0.0,337.0,634.0,0.0,0,4029.0,1
1122,1122,-0.22570672418068083,-0.2,0.0,1.0,415.0,648.0,0.0,1,3937.0,0
1123,1123,-0.011587499446548688,-0.0,1.0,0.0,484.0,572.0,0.0,0,3944.0,1
1124,1124,0.20983415886317902,0.2,0.0,0.0,254.0,652.0,1.0,0,-736.0,0
1125,1125,0.4175004510694046,0.4,1.0,1.0,422.0,956.0,0.0,0,-638.0,0
1126,1126,-0.05942307014260051,-0.1,0.0,1.0,391.0,642.0,0.0,1,-763.0,0
1127,1127,0.7224140594305403,0.7,1.0,1.0,257.0,774.0,1.0,1,-931.0,1
1128,1128,-0.06287644723904684,-0.1,0.0,1.0,319.0,769.0,0.0,1,3912.0,0
1129,1129,0.7045372044200066,0.7,0.0,0.0,348.0,736.0,0.0,1,3916.0,1
1130,1130,0.1404839152428291,0.1,0.0,0.0,293.0,644.0,0.0,1,4063.0,1
1131,1131,0.4703735798034533,0.5,0.0,0.0,459.0,732.0,0.0,1,3809.0,1
1132,1132,0.0425065754856514,0.0,1.0,1.0,293.0,785.0,0.0,0,3922.0,0
1133,1133,0.045322846722782084,0.0,0.0,0.0,280.0,722.0,1.0,0,-972.0,0
1134,1134,0.8435594232971589,0.8,0.0,0.0,453.0,845.0,0.0,1,3702.0,1
1135,1135,-0.7049463841204954,-0.7,1.0,0.0,333.0,625.0,0.0,0,4042.0,1
1136,1136,-0.44187171663939256,-0.4,0.0,1.0,254.0,947.0,0.0,1,3799.0,0
1137,1137,0.36625135077594917,0.4,1.0,1.0,492.0,773.0,1.0,1,-875.0,1
1138,1138,0.16058616185159547,0.2,0.0,0.0,293.0,536.0,0.0,1,4171.0,1
1139,1139,0.7482151276312264,0.7,0.0,0.0,388.0,886.0,0.0,1,3726.0,1
1140,1140,0.7796919874136939,0.8,0.0,0.0,403.0,608.0,0.0,1,3989.0,1
1141,1141,0.8155774729356341,0.8,0.0,0.0,351.0,569.0,0.0,1,4080.0,1
1142,1142,-0.10431945156498235,-0.1,1.0,0.0,307.0,914.0,1.0,1,-1031.0,0
1143,1143,0.36590041652676597,0.4,1.0,1.0,358.0,927.0,0.0,0,3715.0,0
1144,1144,0.14681539745665584,0.1,0.0,0.0,325.0,516.0,0.0,1,4159.0,1
1145,1145,0.0431624121557761,0.0,0.0,0.0,468.0,676.0,0.0,1,3856.0,1
1146,1146,0.44878185046466423,0.4,1.0,1.0,429.0,880.0,0.0,0,-759.0,0
1147,1147,-0.6913697898982356,-0.7,1.0,0.0,279.0,755.0,0.0,0,3966.0,1
1148,1148,0.4785076689765547,0.5,0.0,0.0,264.0,510.0,0.0,1,4226.0,1
1149,1149,0.8867877454355472,0.9,0.0,0.0,313.0,802.0,0.0,1,3885.0,1
1150,1150,0.20929617474552586,0.2,1.0,1.0,324.0,649.0,0.0,0,-553.0,0
1151,1151,0.19778291200733455,0.2,1.0,1.0,495.0,857.0,0.0,0,3648.0,0
1152,1152,-0.268301407649848,-0.3,0.0,1.0,444.0,895.0,0.0,1,3661.0,0
1153,1153,0.6819296218823511,0.7,0.0,0.0,430.0,909.0,0.0,1,3661.0,1
1154,1154,-0.07025409193771182,-0.1,1.0,0.0,437.0,728.0,0.0,0,3835.0,1
1155,1155,0.5945828058757522,0.6,1.0,1.0,268.0,803.0,0.0,0,-871.0,0
1156,1156,-0.892312136266155,-0.9,0.0,1.0,461.0,998.0,0.0,1,3541.0,0
1157,1157,-0.39963830411833756,-0.4,0.0,1.0,332.0,659.0,0.0,1,4009.0,0
1158,1158,-0.7785864084858933,-0.8,1.0,0.0,398.0,825.0,0.0,0,3777.0,1
1159,1159,-0.07895081744058485,-0.1,1.0,0.0,379.0,537.0,0.0,0,4084.0,1
1160,1160,-0.1043547678091542,-0.1,0.0,1.0,490.0,582.0,0.0,1,-762.0,0
1161,1161,-0.0017504736938064314,-0.0,1.0,0.0,390.0,902.0,0.0,0,3708.0,1
1162,1162,0.7674538773234757,0.8,1.0,1.0,322.0,565.0,1.0,1,-857.0,1
1163,1163,0.6944964736366633,0.7,1.0,1.0,430.0,907.0,0.0,0,3663.0,0
1164,1164,0.7148872426593335,0.7,1.0,1.0,301.0,592.0,0.0,0,-863.0,0
1165,1165,-0.5709655981796585,-0.6,1.0,0.0,302.0,566.0,0.0,0,4132.0,1
1166,1166,0.5611709812794731,0.6,1.0,1.0,404.0,872.0,1.0,1,-1136.0,1
1167,1167,0.2426191506418437,0.2,0.0,0.0,261.0,501.0,0.0,1,-392.0,1
1168,1168,-0.7351601780196405,-0.7,1.0,0.0,464.0,896.0,0.0,0,3640.0,1
1169,1169,-0.21703355518933443,-0.2,1.0,0.0,285.0,523.0,0.0,0,4192.0,1
1170,1170,-0.009683282614125432,-0.0,1.0,0.0,392.0,977.0,0.0,0,3631.0,1
1171,1171,0.3824404713867372,0.4,1.0,1.0,478.0,879.0,0.0,0,3643.0,0
1172,1172,-0.34872849746895207,-0.3,0.0,1.0,494.0,917.0,1.0,0,-1151.0,1
1173,1173,0.052935722570788823,0.1,1.0,1.0,330.0,725.0,0.0,0,-1055.0,0
1174,1174,0.12237933609780283,0.1,0.0,0.0,307.0,755.0,0.0,1,3938.0,1
1175,1175,0.7801016091525216,0.8,1.0,1.0,354.0,747.0,0.0,0,-1001.0,0
1176,1176,-0.6674407529165194,-0.7,0.0,1.0,309.0,891.0,0.0,1,3800.0,0
1177,1177,0.037689120784969554,0.0,0.0,0.0,409.0,699.0,0.0,1,-988.0,1
1178,1178,-0.3076596011323425,-0.3,0.0,1.0,260.0,768.0,0.0,1,3972.0,0
1179,1179,0.5880094158008212,0.6,1.0,1.0,492.0,736.0,0.0,0,3772.0,0
1180,1180,-0.5810709992931193,-0.6,1.0,0.0,257.0,882.0,0.0,0,3861.0,1
1181,1181,0.35501084745616207,0.4,0.0,0.0,387.0,710.0,0.0,1,-467.0,1
1182,1182,-0.6235389343348188,-0.6,1.0,0.0,287.0,909.0,0.0,0,3804.0,1
1183,1183,-0.24760884817847773,-0.2,1.0,0.0,468.0,785.0,0.0,0,3747.0,1
1184,1184,0.8466464650165745,0.8,0.0,0.0,361.0,803.0,0.0,1,-604.0,1
1185,1185,-0.22500223922093565,-0.2,0.0,1.0,359.0,585.0,0.0,1,4056.0,0
1186,1186,-0.03042527609644241,-0.0,1.0,0.0,347.0,806.0,0.0,0,-803.0,1
1187,1187,-0.3560247746191163,-0.4,0.0,1.0,277.0,807.0,0.0,1,3916.0,0
1188,1188,-0.681579528595253,-0.7,0.0,1.0,251.0,808.0,0.0,1,3941.0,0
1189,1189,-0.328503209210396,-0.3,0.0,1.0,460.0,818.0,0.0,1,3722.0,0
1190,1190,-0.18354147934412002,-0.2,1.0,0.0,318.0,572.0,0.0,0,-350.0,1
1191,1191,0.7587389785998743,0.8,0.0,0.0,376.0,650.0,1.0,0,-816.0,0
1192,1192,0.8606536311770135,0.9,0.0,0.0,395.0,915.0,0.0,1,-660.0,1
1193,1193,0.8836937444147531,0.9,0.0,0.0,256.0,612.0,0.0,1,-238.0,1
1194,1194,-0.7494051842486193,-0.7,0.0,1.0,452.0,674.0,0.0,1,3874.0,0
1195,1195,-0.47319456669131255,-0.5,0.0,1.0,266.0,636.0,0.0,1,4098.0,0
1196,1196,0.4822614427162816,0.5,1.0,1.0,377.0,902.0,0.0,0,3721.0,0
1197,1197,0.603709993997367,0.6,1.0,1.0,324.0,792.0,0.0,0,3884.0,0
1198,1198,-0.5761192962882224,-0.6,1.0,0.0,350.0,629.0,0.0,0,4021.0,1
1199,1199,-0.6082178431830612,-0.6,0.0,1.0,445.0,598.0,0.0,1,-383.0,0
1200,1200,-0.5438184306187256,-0.5,0.0,1.0,359.0,898.0,0.0,1,-787.0,0
1201,1201,0.2676222568484109,0.3,1.0,1.0,445.0,524.0,0.0,0,4031.0,0
1202,1202,-0.7155111876936191,-0.7,0.0,1.0,252.0,760.0,0.0,1,3988.0,0
1203,1203,-0.3980359055395183,-0.4,1.0,0.0,297.0,730.0,0.0,0,-657.0,1
1204,1204,-0.5694626086612944,-0.6,0.0,1.0,480.0,954.0,0.0,1,3566.0,0
1205,1205,-0.011447638489411771,-0.0,1.0,0.0,320.0,634.0,1.0,1,-894.0,0
1206,1206,0.541243803258708,0.5,0.0,0.0,395.0,816.0,0.0,1,3789.0,1
1207,1207,0.4324868157478702,0.4,0.0,0.0,260.0,684.0,0.0,1,4056.0,1
1208,1208,0.7767276793571128,0.8,1.0,1.0,484.0,702.0,0.0,0,3814.0,0
1209,1209,0.7633994329116659,0.8,0.0,0.0,433.0,605.0,1.0,0,-988.0,0
1210,1210,-0.17503828370797914,-0.2,0.0,1.0,459.0,805.0,0.0,1,3736.0,0
1211,1211,-0.893979976046408,-0.9,1.0,0.0,476.0,538.0,0.0,0,3986.0,1
1212,1212,0.7399579428839796,0.7,1.0,1.0,322.0,541.0,0.0,0,-723.0,0
1213,1213,0.6245624175695109,0.6,1.0,1.0,413.0,751.0,0.0,0,3836.0,0
1214,1214,-0.5045366962772815,-0.5,1.0,0.0,471.0,823.0,0.0,0,-1284.0,1
1215,1215,0.6891744415759452,0.7,0.0,0.0,402.0,588.0,1.0,0,-770.0,0
1216,1216,-0.7065897846252939,-0.7,1.0,0.0,361.0,810.0,0.0,0,3829.0,1
1217,1217,-0.49708685300949557,-0.5,0.0,1.0,478.0,602.0,0.0,1,-890.0,0
1218,1218,0.6632599212817168,0.7,0.0,0.0,438.0,741.0,0.0,1,3821.0,1
1219,1219,0.7481111977543943,0.7,1.0,1.0,458.0,994.0,0.0,0,3548.0,0
1220,1220,0.5990619945898562,0.6,1.0,1.0,434.0,769.0,0.0,0,-1153.0,0
1221,1221,0.1043947070164023,0.1,1.0,1.0,457.0,633.0,0.0,0,3910.0,0
1222,1222,-0.007821812285272567,-0.0,0.0,1.0,453.0,971.0,0.0,1,3576.0,0
1223,1223,-0.01744174828494094,-0.0,1.0,0.0,402.0,645.0,0.0,0,3953.0,1
1224,1224,0.8613475100705176,0.9,0.0,0.0,437.0,634.0,0.0,1,3929.0,1
1225,1225,0.29510590139322035,0.3,1.0,1.0,425.0,993.0,0.0,0,-1408.0,0
1226,1226,0.010025186141174203,0.0,1.0,1.0,391.0,939.0,0.0,0,-1040.0,0
1227,1227,-0.8511638227668851,-0.9,0.0,1.0,318.0,877.0,0.0,1,3805.0,0
1228,1228,-0.0678758160571239,-0.1,0.0,1.0,409.0,951.0,0.0,1,-720.0,0
1229,1229,0.14326073606227496,0.1,1.0,1.0,344.0,833.0,0.0,0,3823.0,0
1230,1230,0.7120752069489068,0.7,0.0,0.0,326.0,809.0,0.0,1,3865.0,1
1231,1231,0.5421957160158449,0.5,1.0,1.0,454.0,604.0,0.0,0,3942.0,0
1232,1232,-0.7424383598727538,-0.7,1.0,0.0,411.0,954.0,0.0,0,3635.0,1
1233,1233,-0.21896701534519314,-0.2,1.0,0.0,464.0,786.0,0.0,0,3750.0,1
1234,1234,-0.055395644994957416,-0.1,0.0,1.0,375.0,771.0,0.0,1,3854.0,0
1235,1235,0.2677178075061998,0.3,1.0,1.0,268.0,845.0,0.0,0,3887.0,0
1236,1236,-0.404300814909321,-0.4,1.0,0.0,487.0,673.0,0.0,0,3840.0,1
1237,1237,-0.2630527370049889,-0.3,0.0,1.0,380.0,502.0,0.0,1,-652.0,0
1238,1238,0.06143506395947329,0.1,1.0,1.0,479.0,528.0,0.0,0,3993.0,0
1239,1239,-0.10287156157385391,-0.1,0.0,1.0,324.0,726.0,0.0,1,-550.0,0
1240,1240,0.09739759126444913,0.1,1.0,1.0,369.0,714.0,0.0,0,3917.0,0
1241,1241,0.7648533079749819,0.8,1.0,1.0,346.0,989.0,0.0,0,3665.0,0
1242,1242,-0.0979148360831189,-0.1,0.0,1.0,356.0,759.0,0.0,1,3885.0,0
1243,1243,-0.7851978105186971,-0.8,0.0,1.0,428.0,724.0,0.0,1,3848.0,0
1244,1244,0.3202699311575051,0.3,1.0,1.0,353.0,657.0,0.0,0,3990.0,0
1245,1245,0.7677601920498475,0.8,0.0,0.0,424.0,779.0,0.0,1,3797.0,1
1246,1246,-0.05015202355879489,-0.1,1.0,0.0,495.0,652.0,0.0,0,3853.0,1
1247,1247,0.385034721065903,0.4,1.0,1.0,421.0,959.0,0.0,0,3620.0,0
1248,1248,0.867205190917003,0.9,0.0,0.0,344.0,642.0,0.0,1,4014.0,1
1249,1249,0.8256727749298484,0.8,1.0,1.0,310.0,551.0,0.0,0,4139.0,0
1250,1250,-0.7215866905533638,-0.7,0.0,1.0,355.0,743.0,0.0,1,3902.0,0
1251,1251,-0.7883048858326034,-0.8,0.0,1.0,438.0,985.0,0.0,1,3577.0,0
1252,1252,0.3892490142672097,0.4,1.0,1.0,266.0,985.0,0.0,0,3749.0,0
1253,1253,-0.7569501407313962,-0.8,0.0,1.0,385.0,600.0,0.0,1,4015.0,0
1254,1254,0.8046709312617427,0.8,1.0,1.0,366.0,926.0,0.0,0,3708.0,0
1255,1255,-0.693510295025748,-0.7,0.0,1.0,335.0,542.0,0.0,1,4123.0,0
1256,1256,0.8522094841242315,0.9,1.0,1.0,418.0,728.0,0.0,0,3854.0,0
1257,1257,-0.647185337695741,-0.6,0.0,1.0,350.0,640.0,0.0,1,4010.0,0
1258,1258,0.7618575971966132,0.8,0.0,0.0,309.0,910.0,0.0,1,-1009.0,1
1259,1259,0.6806153127904621,0.7,0.0,0.0,320.0,768.0,0.0,1,3912.0,1
1260,1260,0.23860781595844516,0.2,0.0,0.0,339.0,928.0,0.0,1,3733.0,1
1261,1261,0.20211962280014195,0.2,0.0,0.0,409.0,571.0,0.0,1,4020.0,1
1262,1262,0.052604179256186434,0.1,0.0,0.0,340.0,956.0,0.0,1,3704.0,1
1263,1263,0.1868705324157406,0.2,0.0,0.0,315.0,672.0,0.0,1,4013.0,1
1264,1264,0.3385124737403301,0.3,0.0,0.0,479.0,525.0,0.0,1,3996.0,1
1265,1265,0.24106487601934912,0.2,1.0,1.0,420.0,644.0,0.0,0,3936.0,0
1266,1266,0.15882790591369134,0.2,1.0,1.0,283.0,805.0,1.0,1,-1048.0,1
1267,1267,0.07541103494068357,0.1,0.0,0.0,357.0,936.0,1.0,0,-853.0,0
1268,1268,0.6219187979658974,0.6,0.0,0.0,268.0,663.0,0.0,1,4069.0,1
1269,1269,-0.00042646185343409027,-0.0,1.0,0.0,314.0,713.0,0.0,0,3973.0,1
1270,1270,-0.12076577409365696,-0.1,1.0,0.0,298.0,858.0,0.0,0,-796.0,1
1271,1271,0.22749331525771443,0.2,1.0,1.0,485.0,568.0,0.0,0,3947.0,0
1272,1272,0.7822947632371807,0.8,1.0,1.0,433.0,984.0,0.0,0,3583.0,0
1273,1273,0.021610421920826184,0.0,1.0,1.0,466.0,645.0,0.0,0,-591.0,0
1274,1274,0.6057829770077366,0.6,1.0,1.0,305.0,624.0,1.0,1,-889.0,1
1275,1275,-0.3090684281011449,-0.3,1.0,0.0,477.0,623.0,0.0,0,3900.0,1
1276,1276,0.30282929681194426,0.3,1.0,1.0,390.0,693.0,1.0,1,-753.0,1
1277,1277,0.7252481629944173,0.7,1.0,1.0,409.0,801.0,0.0,0,3790.0,0
1278,1278,-0.8485658798243336,-0.8,0.0,1.0,325.0,633.0,0.0,1,4042.0,0
1279,1279,0.5671412857712664,0.6,0.0,0.0,429.0,654.0,0.0,1,3917.0,1
1280,1280,0.7943116852254942,0.8,0.0,0.0,319.0,943.0,0.0,1,-712.0,1
1281,1281,-0.36459981228399096,-0.4,1.0,0.0,259.0,921.0,0.0,0,3820.0,1
1282,1282,0.1498439547730518,0.1,0.0,0.0,298.0,715.0,0.0,1,3987.0,1
1283,1283,-0.860095704305572,-0.9,1.0,0.0,449.0,588.0,0.0,0,-867.0,1
1284,1284,0.39744299661624505,0.4,1.0,1.0,261.0,514.0,0.0,0,-775.0,0
1285,1285,-0.2449296303643128,-0.2,0.0,1.0,365.0,704.0,1.0,0,-639.0,1
1286,1286,-0.04938847254778789,-0.0,0.0,1.0,345.0,585.0,0.0,1,4070.0,0
1287,1287,0.8222685505322779,0.8,0.0,0.0,415.0,878.0,0.0,1,3707.0,1
1288,1288,-0.4827699373515622,-0.5,0.0,1.0,280.0,813.0,0.0,1,3907.0,0
1289,1289,0.5750085359107883,0.6,1.0,1.0,481.0,989.0,1.0,1,-1440.0,1
1290,1290,-0.8562769897427739,-0.9,0.0,1.0,259.0,512.0,0.0,1,4229.0,0
1291,1291,-0.5480955036102775,-0.5,0.0,1.0,326.0,536.0,0.0,1,4138.0,0
1292,1292,-0.6983539651371731,-0.7,0.0,1.0,398.0,549.0,0.0,1,4053.0,0
1293,1293,-0.7421582874410807,-0.7,0.0,1.0,291.0,692.0,0.0,1,-723.0,0
1294,1294,-0.3640881737634457,-0.4,1.0,0.0,255.0,855.0,0.0,0,3890.0,1
1295,1295,-0.7349954124162805,-0.7,1.0,0.0,331.0,573.0,0.0,0,4096.0,1
1296,1296,-0.19912203531764794,-0.2,0.0,1.0,491.0,577.0,1.0,0,-708.0,1
1297,1297,-0.21542219099545323,-0.2,1.0,0.0,441.0,657.0,0.0,0,3902.0,1
1298,1298,0.7903275592202105,0.8,1.0,1.0,296.0,591.0,0.0,0,4113.0,0
1299,1299,0.6354598980671328,0.6,0.0,0.0,333.0,840.0,0.0,1,3827.0,1
1300,1300,-0.8932507323640146,-0.9,1.0,0.0,440.0,623.0,0.0,0,3937.0,1
1301,1301,0.2911746942163821,0.3,0.0,0.0,470.0,802.0,0.0,1,3728.0,1
1302,1302,-0.34749901827784935,-0.3,0.0,1.0,273.0,701.0,0.0,1,4026.0,0
1303,1303,-0.16222627847401472,-0.2,0.0,1.0,370.0,945.0,0.0,1,3685.0,0
1304,1304,-0.8338867931167656,-0.8,1.0,0.0,439.0,693.0,0.0,0,3868.0,1
1305,1305,0.8108738236564407,0.8,1.0,1.0,453.0,538.0,0.0,0,4009.0,0
1306,1306,-0.5285379053284036,-0.5,1.0,0.0,327.0,599.0,1.0,1,-756.0,0
1307,1307,0.4419871749136296,0.4,1.0,1.0,476.0,623.0,0.0,0,3901.0,0
1308,1308,0.41957179645248266,0.4,0.0,0.0,342.0,771.0,0.0,1,3887.0,1
1309,1309,-0.08871556556010363,-0.1,1.0,0.0,417.0,674.0,0.0,0,3909.0,1
1310,1310,-0.8449836013563636,-0.8,1.0,0.0,313.0,635.0,0.0,0,4052.0,1
1311,1311,0.5236536694108479,0.5,0.0,0.0,421.0,779.0,0.0,1,-860.0,1
1312,1312,-0.004628173115929335,-0.0,0.0,1.0,257.0,605.0,0.0,1,4138.0,0
1313,1313,0.15239607871125893,0.2,1.0,1.0,323.0,893.0,0.0,0,3784.0,0
1314,1314,-0.15493556871662084,-0.2,1.0,0.0,322.0,510.0,0.0,0,-622.0,1
1315,1315,0.05680330478299889,0.1,0.0,0.0,364.0,757.0,0.0,1,3879.0,1
1316,1316,0.8786484229224222,0.9,1.0,1.0,305.0,630.0,0.0,0,4065.0,0
1317,1317,-0.5150271284249,-0.5,1.0,0.0,279.0,725.0,1.0,1,-934.0,0
1318,1318,-0.29307818898482696,-0.3,0.0,1.0,310.0,834.0,0.0,1,-864.0,0
1319,1319,-0.6264079284586935,-0.6,0.0,1.0,418.0,959.0,1.0,0,-1287.0,1
1320,1320,0.5466598174081875,0.5,1.0,1.0,267.0,795.0,0.0,0,3938.0,0
1321,1321,0.3288316827302503,0.3,1.0,1.0,253.0,877.0,0.0,0,3870.0,0
1322,1322,-0.08936718581881042,-0.1,0.0,1.0,278.0,668.0,0.0,1,4054.0,0
1323,1323,0.28883814719827205,0.3,1.0,1.0,469.0,762.0,0.0,0,3769.0,0
1324,1324,0.4703055884372328,0.5,1.0,1.0,378.0,729.0,0.0,0,3893.0,0
1325,1325,0.20013303595478804,0.2,0.0,0.0,407.0,905.0,0.0,1,3688.0,1
1326,1326,-0.4076566863104419,-0.4,1.0,0.0,393.0,971.0,1.0,1,-1164.0,0
1327,1327,-0.19765945419779551,-0.2,1.0,0.0,337.0,865.0,0.0,0,3798.0,1
1328,1328,0.30733118943248006,0.3,1.0,1.0,370.0,629.0,0.0,0,-629.0,0
1329,1329,0.565523806846075,0.6,0.0,0.0,458.0,928.0,0.0,1,3614.0,1
1330,1330,-0.4714570860865304,-0.5,1.0,0.0,483.0,510.0,0.0,0,4007.0,1
1331,1331,0.7737148009542923,0.8,0.0,0.0,455.0,789.0,0.0,1,3756.0,1
1332,1332,0.5806279636177819,0.6,0.0,0.0,432.0,609.0,0.0,1,3959.0,1
1333,1333,-0.271342102772146,-0.3,0.0,1.0,290.0,898.0,0.0,1,3812.0,0
1334,1334,0.5265959706633435,0.5,0.0,0.0,484.0,824.0,0.0,1,3692.0,1
1335,1335,-0.37942674478864424,-0.4,0.0,1.0,453.0,965.0,0.0,1,-1228.0,0
1336,1336,0.6203821317768966,0.6,0.0,0.0,326.0,711.0,0.0,1,3963.0,1
1337,1337,0.6061844828089468,0.6,1.0,1.0,309.0,713.0,0.0,0,3978.0,0
1338,1338,0.3729361318334502,0.4,1.0,1.0,350.0,539.0,0.0,0,4111.0,0
1339,1339,0.5067810253176214,0.5,0.0,0.0,321.0,859.0,1.0,0,-1130.0,0
1340,1340,-0.07375074212035448,-0.1,0.0,1.0,408.0,590.0,0.0,1,4002.0,0
1341,1341,0.3906594660095154,0.4,0.0,0.0,484.0,604.0,0.0,1,3912.0,1
1342,1342,-0.6258797571625346,-0.6,0.0,1.0,451.0,776.0,0.0,1,3773.0,0
1343,1343,-0.7143431978269652,-0.7,1.0,0.0,323.0,734.0,0.0,0,3943.0,1
1344,1344,0.8949229605671692,0.9,0.0,0.0,311.0,663.0,1.0,0,-924.0,0
1345,1345,-0.39990047714065236,-0.4,1.0,0.0,322.0,914.0,0.0,0,3764.0,1
1346,1346,-0.6784056257627293,-0.7,1.0,0.0,365.0,571.0,0.0,0,4064.0,1
1347,1347,-0.17196825371003088,-0.2,1.0,0.0,464.0,705.0,0.0,0,3831.0,1
1348,1348,0.7999821896053482,0.8,0.0,0.0,374.0,742.0,0.0,1,-1076.0,1
1349,1349,0.024359779561892503,0.0,1.0,1.0,356.0,864.0,0.0,0,3780.0,0
1350,1350,-0.12379435103319614,-0.1,0.0,1.0,448.0,566.0,0.0,1,3986.0,0
1351,1351,-0.29616233678025805,-0.3,1.0,0.0,439.0,579.0,0.0,0,3982.0,1
1352,1352,0.6155805268543068,0.6,0.0,0.0,256.0,747.0,1.0,0,-383.0,0
1353,1353,0.2234133177220209,0.2,1.0,1.0,405.0,648.0,0.0,0,3947.0,0
1354,1354,-0.7399130932928079,-0.7,1.0,0.0,474.0,710.0,0.0,0,-794.0,1
1355,1355,0.8735879592481043,0.9,1.0,1.0,448.0,513.0,0.0,0,4039.0,0
1356,1356,0.27691936025887254,0.3,1.0,1.0,353.0,803.0,0.0,0,3844.0,0
1357,1357,0.5704896351795782,0.6,0.0,0.0,337.0,702.0,0.0,1,3961.0,1
1358,1358,0.410302897565744,0.4,0.0,0.0,262.0,730.0,0.0,1,4008.0,1
1359,1359,0.7913773733986808,0.8,0.0,0.0,354.0,660.0,1.0,0,-984.0,0
1360,1360,-0.15044044818943192,-0.2,1.0,0.0,491.0,692.0,0.0,0,3817.0,1
1361,1361,-0.5634718541761787,-0.6,0.0,1.0,489.0,881.0,0.0,1,3630.0,0
1362,1362,-0.8920380140162532,-0.9,1.0,0.0,284.0,765.0,0.0,0,3951.0,1
1363,1363,-0.6405531031668259,-0.6,0.0,1.0,434.0,896.0,1.0,0,-1280.0,1
1364,1364,-0.34216333379541963,-0.3,0.0,1.0,472.0,642.0,0.0,1,3886.0,0
1365,1365,-0.3602105493757931,-0.4,0.0,1.0,363.0,988.0,1.0,0,-1201.0,1
1366,1366,0.7523222219955966,0.8,1.0,1.0,401.0,991.0,0.0,0,3608.0,0
1367,1367,-0.45004052543618484,-0.5,1.0,0.0,419.0,961.0,0.0,0,3620.0,1
1368,1368,-0.41559862476966186,-0.4,0.0,1.0,325.0,867.0,0.0,1,3808.0,0
1369,1369,-0.010044652741843407,-0.0,0.0,1.0,456.0,561.0,0.0,1,3983.0,0
1370,1370,-0.38389126320843137,-0.4,1.0,0.0,376.0,935.0,0.0,0,3689.0,1
1371,1371,0.27915205070321714,0.3,1.0,1.0,467.0,912.0,0.0,0,3621.0,0
1372,1372,0.7457660391378146,0.7,1.0,1.0,428.0,898.0,0.0,0,3674.0,0
1373,1373,-0.2890622746094118,-0.3,0.0,1.0,493.0,767.0,0.0,1,3740.0,0
1374,1374,-0.06922077720246045,-0.1,0.0,1.0,252.0,868.0,0.0,1,3880.0,0
1375,1375,0.3446297934315775,0.3,1.0,1.0,286.0,634.0,0.0,0,4080.0,0
1376,1376,0.2091009842809678,0.2,0.0,0.0,282.0,523.0,0.0,1,4195.0,1
1377,1377,-0.2889827072922173,-0.3,0.0,1.0,408.0,670.0,0.0,1,3922.0,0
1378,1378,-0.8677420555067815,-0.9,0.0,1.0,316.0,639.0,1.0,0,-735.0,1
1379,1379,0.670339143098338,0.7,0.0,0.0,292.0,694.0,0.0,1,-486.0,1
1380,1380,0.48044519785138007,0.5,1.0,1.0,369.0,784.0,0.0,0,3847.0,0
1381,1381,-0.8443019212729284,-0.8,1.0,0.0,345.0,958.0,0.0,0,3697.0,1
1382,1382,-0.5093174618156275,-0.5,0.0,1.0,385.0,898.0,0.0,1,3717.0,0
1383,1383,-0.8287341555062444,-0.8,0.0,1.0,259.0,677.0,0.0,1,4064.0,0
1384,1384,0.32541466612760817,0.3,0.0,0.0,331.0,801.0,0.0,1,3868.0,1
1385,1385,-0.37630949209964726,-0.4,1.0,0.0,257.0,700.0,0.0,0,4043.0,1
1386,1386,0.7955916389092436,0.8,0.0,0.0,480.0,661.0,1.0,0,-1131.0,0
1387,1387,-0.5118738418078996,-0.5,1.0,0.0,361.0,794.0,0.0,0,-1115.0,1
1388,1388,-0.30896563660926246,-0.3,1.0,0.0,425.0,897.0,0.0,0,3678.0,1
1389,1389,0.13755381103256215,0.1,1.0,1.0,302.0,752.0,0.0,0,3946.0,0
1390,1390,0.15489102254469367,0.2,0.0,0.0,316.0,820.0,0.0,1,3864.0,1
1391,1391,-0.8405238324140843,-0.8,1.0,0.0,383.0,973.0,0.0,0,3644.0,1
1392,1392,-0.3204949556833314,-0.3,1.0,0.0,355.0,532.0,0.0,0,4113.0,1
1393,1393,0.5712863849550905,0.6,0.0,0.0,305.0,766.0,0.0,1,-921.0,1
1394,1394,0.6794881357618233,0.7,1.0,1.0,299.0,564.0,0.0,0,-843.0,0
1395,1395,0.1920120143101537,0.2,0.0,0.0,392.0,624.0,0.0,1,3984.0,1
1396,1396,-0.14274420688102485,-0.1,1.0,0.0,395.0,571.0,0.0,0,-786.0,1
1397,1397,0.2859385414742023,0.3,0.0,0.0,376.0,887.0,0.0,1,3737.0,1
1398,1398,-0.5854915702914012,-0.6,1.0,0.0,434.0,612.0,0.0,0,3954.0,1
1399,1399,-0.5778531514197156,-0.6,0.0,1.0,361.0,693.0,0.0,1,3946.0,0
1400,1400,0.5148651007696087,0.5,1.0,1.0,301.0,759.0,0.0,0,3940.0,0
1401,1401,0.7461925545166367,0.7,0.0,0.0,472.0,760.0,0.0,1,3768.0,1
1402,1402,-0.640390821725461,-0.6,0.0,1.0,442.0,909.0,0.0,1,3649.0,0
1403,1403,-0.17174397024165888,-0.2,1.0,0.0,410.0,994.0,1.0,1,-1184.0,0
1404,1404,-0.5113015556031326,-0.5,0.0,1.0,495.0,791.0,0.0,1,3714.0,0
1405,1405,-0.6319993156530955,-0.6,0.0,1.0,341.0,966.0,0.0,1,3693.0,0
1406,1406,0.28062339452582885,0.3,1.0,1.0,421.0,610.0,0.0,0,3969.0,0
1407,1407,-0.5636280502933921,-0.6,0.0,1.0,264.0,753.0,0.0,1,3983.0,0
1408,1408,0.2995944052056626,0.3,0.0,0.0,349.0,565.0,0.0,1,4086.0,1
1409,1409,0.579092613076528,0.6,0.0,0.0,448.0,512.0,0.0,1,-600.0,1
1410,1410,0.3031863568658558,0.3,0.0,0.0,262.0,958.0,0.0,1,3780.0,1
1411,1411,0.3959044417263612,0.4,0.0,0.0,457.0,645.0,0.0,1,3898.0,1
1412,1412,0.32463001318109586,0.3,1.0,1.0,264.0,855.0,0.0,0,3881.0,0
1413,1413,-0.6809663883222153,-0.7,1.0,0.0,317.0,711.0,0.0,0,3972.0,1
1414,1414,0.31258357675162174,0.3,1.0,1.0,334.0,551.0,1.0,1,-885.0,1
1415,1415,-0.3470560537945636,-0.3,1.0,0.0,448.0,844.0,0.0,0,3708.0,1
1416,1416,0.7057100122801044,0.7,1.0,1.0,435.0,715.0,0.0,0,3850.0,0
1417,1417,-0.19550279468257858,-0.2,0.0,1.0,310.0,558.0,0.0,1,-258.0,0
1418,1418,0.1014153117296438,0.1,1.0,1.0,370.0,832.0,1.0,1,-1192.0,1
1419,1419,-0.44459941549875,-0.4,1.0,0.0,461.0,810.0,0.0,0,3729.0,1
1420,1420,0.8437934441325786,0.8,0.0,0.0,322.0,869.0,0.0,1,3809.0,1
1421,1421,0.6285661108566417,0.6,0.0,0.0,471.0,708.0,0.0,1,3821.0,1
1422,1422,-0.4169948710898101,-0.4,1.0,0.0,473.0,662.0,0.0,0,3865.0,1
1423,1423,-0.36746798022287697,-0.4,0.0,1.0,412.0,975.0,0.0,1,3613.0,0
1424,1424,-0.14497711365350152,-0.1,1.0,0.0,480.0,796.0,0.0,0,3724.0,1
1425,1425,-0.14321661785728457,-0.1,0.0,1.0,303.0,768.0,0.0,1,3929.0,0
1426,1426,0.7722160444454133,0.8,0.0,0.0,313.0,631.0,0.0,1,4056.0,1
1427,1427,-0.06081563485670172,-0.1,0.0,1.0,255.0,914.0,0.0,1,3831.0,0
1428,1428,0.6440764392199382,0.6,1.0,1.0,261.0,567.0,0.0,0,4172.0,0
1429,1429,0.6438166093202348,0.6,0.0,0.0,439.0,926.0,0.0,1,3635.0,1
1430,1430,0.6457740183869906,0.6,1.0,1.0,407.0,506.0,0.0,0,4087.0,0
1431,1431,0.7163548388908908,0.7,0.0,0.0,475.0,586.0,0.0,1,3939.0,1
1432,1432,-0.4321795589888436,-0.4,0.0,1.0,434.0,942.0,1.0,0,-1376.0,1
1433,1433,0.06746027809475452,0.1,0.0,0.0,455.0,566.0,0.0,1,3979.0,1
1434,1434,-0.5907439638481535,-0.6,1.0,0.0,439.0,657.0,0.0,0,3904.0,1
1435,1435,0.0018114789355484495,0.0,0.0,0.0,427.0,657.0,0.0,1,3916.0,1
1436,1436,0.4548190065004335,0.5,1.0,1.0,367.0,863.0,0.0,0,3770.0,0
1437,1437,-0.23296185335422948,-0.2,1.0,0.0,484.0,600.0,1.0,1,-1074.0,0
1438,1438,0.7893458972113016,0.8,1.0,1.0,482.0,778.0,0.0,0,-910.0,0
1439,1439,0.8084098611566232,0.8,1.0,1.0,498.0,602.0,0.0,0,3900.0,0
1440,1440,-0.6437753482436812,-0.6,1.0,0.0,371.0,848.0,0.0,0,3781.0,1
1441,1441,0.09059050217501496,0.1,1.0,1.0,371.0,678.0,0.0,0,-509.0,0
1442,1442,0.18487396835980385,0.2,0.0,0.0,461.0,829.0,0.0,1,-1190.0,1
1443,1443,0.5046842840163904,0.5,1.0,1.0,417.0,823.0,1.0,1,-1230.0,1
1444,1444,0.5324319098707945,0.5,1.0,1.0,464.0,614.0,0.0,0,3922.0,0
1445,1445,0.7809271600089968,0.8,1.0,1.0,351.0,973.0,0.0,0,3676.0,0
1446,1446,-0.6281571094525296,-0.6,0.0,1.0,343.0,945.0,0.0,1,3712.0,0
1447,1447,0.7570151889901909,0.8,0.0,0.0,438.0,941.0,0.0,1,3621.0,1
1448,1448,0.15244329345629437,0.2,0.0,0.0,376.0,686.0,0.0,1,3938.0,1
1449,1449,-0.33819213004667215,-0.3,1.0,0.0,456.0,970.0,0.0,0,-956.0,1
1450,1450,-0.843351663502262,-0.8,0.0,1.0,333.0,815.0,0.0,1,3852.0,0
1451,1451,0.7947016948377382,0.8,0.0,0.0,461.0,694.0,1.0,0,-1115.0,0
1452,1452,-0.002508251350296864,-0.0,1.0,0.0,443.0,933.0,0.0,0,3624.0,1
1453,1453,0.7513708185132834,0.8,1.0,1.0,281.0,629.0,0.0,0,4090.0,0
1454,1454,-0.3800136404172364,-0.4,0.0,1.0,445.0,563.0,0.0,1,3992.0,0
1455,1455,-0.5309203564353234,-0.5,1.0,0.0,492.0,786.0,1.0,1,-768.0,0
1456,1456,0.8917428411195686,0.9,0.0,0.0,356.0,847.0,0.0,1,3797.0,1
1457,1457,0.19062361469825484,0.2,1.0,1.0,461.0,830.0,0.0,0,3709.0,0
1458,1458,0.41175247999691844,0.4,0.0,0.0,414.0,593.0,0.0,1,3993.0,1
1459,1459,0.03758569425169733,0.0,1.0,1.0,324.0,923.0,0.0,0,3753.0,0
1460,1460,-0.7171510002596581,-0.7,1.0,0.0,282.0,828.0,0.0,0,3890.0,1
1461,1461,-0.24651611352828928,-0.2,1.0,0.0,337.0,527.0,0.0,0,4136.0,1
1462,1462,0.12545331567086337,0.1,0.0,0.0,459.0,537.0,0.0,1,4004.0,1
1463,1463,0.7669496970083906,0.8,1.0,1.0,290.0,581.0,0.0,0,4129.0,0
1464,1464,0.5435986757985122,0.5,0.0,0.0,474.0,538.0,0.0,1,3988.0,1
1465,1465,-0.8912926236974994,-0.9,1.0,0.0,363.0,977.0,1.0,1,-1320.0,0
1466,1466,-0.8773340692029146,-0.9,0.0,1.0,441.0,793.0,0.0,1,3766.0,0
1467,1467,0.6044297909762183,0.6,0.0,0.0,335.0,648.0,1.0,0,-703.0,0
1468,1468,0.6956026398052911,0.7,1.0,1.0,368.0,828.0,0.0,0,3804.0,0
1469,1469,0.45428603965539394,0.5,0.0,0.0,389.0,825.0,0.0,1,3786.0,1
