,trial,coherence,coherence_bin,green_side,correct_side,target_onset,checker_onset,decision,green_decision,decision_time,correct_decision
0,0,-0.8430248352960585,-0.8,1.0,0.0,370.0,523.0,0.0,0,-813.0,1
1,1,0.1297235977553134,0.1,0.0,0.0,373.0,935.0,0.0,1,1692.0,1
2,2,0.7497973816683107,0.7,1.0,1.0,368.0,736.0,0.0,0,1896.0,0
3,3,-0.4876245793289547,-0.5,1.0,0.0,454.0,869.0,0.0,0,1677.0,1
4,4,0.0762325994036096,0.1,0.0,0.0,370.0,632.0,0.0,1,-892.0,1
5,5,-0.024668491402415338,-0.0,1.0,0.0,371.0,963.0,0.0,0,1666.0,1
6,6,0.380510812460768,0.4,1.0,1.0,382.0,616.0,0.0,0,2002.0,0
7,7,-0.19538339413231876,-0.2,1.0,0.0,482.0,643.0,1.0,1,-945.0,0
8,8,0.8287089740556713,0.8,0.0,0.0,446.0,511.0,0.0,1,2043.0,1
9,9,-0.719392518843026,-0.7,1.0,0.0,448.0,934.0,0.0,0,1618.0,1
10,10,0.4668861817299593,0.5,1.0,1.0,367.0,692.0,0.0,0,1941.0,0
11,11,0.8814401298555913,0.9,1.0,1.0,270.0,505.0,0.0,0,2225.0,0
12,12,-0.00691917349730331,-0.0,0.0,1.0,269.0,575.0,0.0,1,2156.0,0
13,13,-0.7869743354326083,-0.8,1.0,0.0,458.0,948.0,0.0,0,1594.0,1
14,14,0.8826266322253175,0.9,0.0,0.0,447.0,669.0,0.0,1,1884.0,1
15,15,-0.05091227957371358,-0.1,1.0,0.0,471.0,507.0,0.0,0,2022.0,1
16,16,0.89601297488387,0.9,0.0,0.0,417.0,957.0,0.0,1,1626.0,1
17,17,0.8464475768530689,0.8,0.0,0.0,315.0,855.0,0.0,1,1830.0,1
18,18,-0.22893629621350098,-0.2,1.0,0.0,424.0,519.0,0.0,0,2057.0,1
19,19,-0.22961458841773674,-0.2,0.0,1.0,476.0,511.0,0.0,1,2013.0,0
20,20,-0.45415663905743103,-0.5,1.0,0.0,348.0,877.0,0.0,0,1775.0,1
21,21,-0.5103788049276742,-0.5,1.0,0.0,381.0,999.0,0.0,0,1620.0,1
22,22,-0.4828871764554807,-0.5,0.0,1.0,388.0,661.0,0.0,1,1951.0,0
23,23,-0.5295389689641542,-0.5,0.0,1.0,269.0,607.0,0.0,1,2124.0,0
24,24,0.800201929623812,0.8,1.0,1.0,367.0,690.0,1.0,1,-1047.0,1
25,25,0.7980377945876159,0.8,1.0,1.0,324.0,700.0,0.0,0,1976.0,0
26,26,0.4176261554008843,0.4,1.0,1.0,449.0,980.0,0.0,0,1571.0,0
27,27,-0.6204226024206847,-0.6,0.0,1.0,435.0,850.0,0.0,1,1715.0,0
28,28,-0.23161722112179206,-0.2,1.0,0.0,486.0,878.0,0.0,0,1636.0,1
29,29,-0.202804846012415,-0.2,1.0,0.0,256.0,760.0,0.0,0,-976.0,1
30,30,-0.6622459372709331,-0.7,1.0,0.0,470.0,842.0,0.0,0,1688.0,1
31,31,0.6082741474811911,0.6,1.0,1.0,443.0,966.0,0.0,0,-1149.0,0
32,32,-0.4449126350383046,-0.4,1.0,0.0,399.0,637.0,0.0,0,-1016.0,1
33,33,0.07141190626790173,0.1,0.0,0.0,360.0,940.0,0.0,1,1700.0,1
34,34,0.029859448771393793,0.0,0.0,0.0,413.0,773.0,1.0,0,-1116.0,0
35,35,0.08791054279244193,0.1,1.0,1.0,332.0,519.0,0.0,0,2149.0,0
36,36,-0.3892179251274046,-0.4,0.0,1.0,384.0,862.0,0.0,1,1754.0,0
37,37,0.7512859643228077,0.8,0.0,0.0,394.0,624.0,0.0,1,1982.0,1
38,38,-0.5483063803912356,-0.5,1.0,0.0,269.0,691.0,0.0,0,2040.0,1
39,39,0.06177090944470376,0.1,1.0,1.0,472.0,598.0,0.0,0,1930.0,0
40,40,-0.08495241357834793,-0.1,0.0,1.0,429.0,505.0,1.0,0,-904.0,1
41,41,-0.41848580513235717,-0.4,1.0,0.0,446.0,613.0,0.0,0,1941.0,1
42,42,0.8402448874522462,0.8,0.0,0.0,433.0,993.0,0.0,1,1574.0,1
43,43,0.6433822745616758,0.6,1.0,1.0,427.0,920.0,0.0,0,1653.0,0
44,44,0.8836117244363811,0.9,1.0,1.0,379.0,997.0,0.0,0,1624.0,0
45,45,-0.33493678139961136,-0.3,1.0,0.0,477.0,880.0,0.0,0,1643.0,1
46,46,-0.5660908256982793,-0.6,0.0,1.0,314.0,639.0,0.0,1,2047.0,0
47,47,0.5973763416461272,0.6,1.0,1.0,431.0,953.0,1.0,1,-1254.0,1
48,48,-0.39546829480108003,-0.4,0.0,1.0,305.0,608.0,0.0,1,2087.0,0
49,49,-0.20407398440154112,-0.2,0.0,1.0,340.0,640.0,0.0,1,2020.0,0
50,50,0.7809802785939389,0.8,1.0,1.0,271.0,811.0,0.0,0,1918.0,0
51,51,-0.8268573367187669,-0.8,1.0,0.0,421.0,827.0,0.0,0,1752.0,1
52,52,0.40737384447008307,0.4,1.0,1.0,491.0,948.0,0.0,0,1561.0,0
53,53,-0.7420336600714225,-0.7,1.0,0.0,414.0,573.0,0.0,0,2013.0,1
54,54,-0.4595373366118953,-0.5,1.0,0.0,349.0,782.0,0.0,0,1869.0,1
55,55,0.778288425265255,0.8,0.0,0.0,374.0,503.0,0.0,1,2123.0,1
56,56,0.41310867640337123,0.4,1.0,1.0,305.0,811.0,0.0,0,1884.0,0
57,57,-0.032221760410154676,-0.0,0.0,1.0,371.0,938.0,0.0,1,1691.0,0
58,58,-0.8598457292705319,-0.9,0.0,1.0,300.0,764.0,0.0,1,1936.0,0
59,59,0.44653113256600296,0.4,1.0,1.0,432.0,902.0,0.0,0,1666.0,0
60,60,0.6864841471049062,0.7,0.0,0.0,497.0,946.0,0.0,1,1557.0,1
61,61,-0.05228013356934935,-0.1,0.0,1.0,282.0,957.0,0.0,1,1761.0,0
62,62,0.17474720195185978,0.2,0.0,0.0,486.0,510.0,1.0,0,-826.0,0
63,63,0.6257775409135936,0.6,1.0,1.0,314.0,609.0,0.0,0,-903.0,0
64,64,-0.29495377120909205,-0.3,0.0,1.0,268.0,626.0,0.0,1,2106.0,0
65,65,0.15753479247110913,0.2,0.0,0.0,432.0,682.0,1.0,0,-964.0,0
66,66,-0.3555424010911894,-0.4,1.0,0.0,458.0,844.0,0.0,0,1698.0,1
67,67,-0.23413181944716477,-0.2,1.0,0.0,384.0,750.0,0.0,0,1866.0,1
68,68,-0.8757060654042991,-0.9,1.0,0.0,405.0,686.0,0.0,0,1909.0,1
69,69,0.044919486498757544,0.0,1.0,1.0,253.0,552.0,0.0,0,-755.0,0
70,70,0.5177860739401831,0.5,0.0,0.0,285.0,725.0,0.0,1,1990.0,1
71,71,-0.25701198215276355,-0.3,1.0,0.0,446.0,951.0,0.0,0,1603.0,1
72,72,-0.17544160590097424,-0.2,0.0,1.0,392.0,525.0,0.0,1,2083.0,0
73,73,-0.8050201401608315,-0.8,1.0,0.0,309.0,823.0,1.0,1,-852.0,0
74,74,0.8002640303820628,0.8,0.0,0.0,412.0,676.0,0.0,1,1912.0,1
75,75,-0.15165792168655745,-0.2,1.0,0.0,312.0,583.0,0.0,0,2105.0,1
76,76,-0.8709338373966367,-0.9,1.0,0.0,450.0,509.0,0.0,0,2041.0,1
77,77,-0.33976500762691075,-0.3,1.0,0.0,458.0,791.0,1.0,1,-1109.0,0
78,78,0.10343659309401099,0.1,1.0,1.0,270.0,592.0,0.0,0,-782.0,0
79,79,0.18768438958556433,0.2,0.0,0.0,422.0,784.0,0.0,1,1794.0,1
80,80,-0.22579671555326042,-0.2,1.0,0.0,321.0,728.0,0.0,0,1951.0,1
81,81,-0.18403906384348312,-0.2,0.0,1.0,423.0,738.0,1.0,0,-961.0,1
82,82,0.10217245171222877,0.1,0.0,0.0,421.0,892.0,0.0,1,1687.0,1
83,83,-0.4880405043408023,-0.5,0.0,1.0,469.0,868.0,0.0,1,1663.0,0
84,84,-0.39809389509614446,-0.4,0.0,1.0,291.0,515.0,0.0,1,-746.0,0
85,85,-0.08937849843350631,-0.1,0.0,1.0,337.0,596.0,0.0,1,-753.0,0
86,86,0.2902839216476,0.3,0.0,0.0,294.0,609.0,0.0,1,2097.0,1
87,87,-0.557956053626145,-0.6,0.0,1.0,434.0,829.0,0.0,1,1737.0,0
88,88,0.7708500166209339,0.8,0.0,0.0,250.0,649.0,0.0,1,2101.0,1
89,89,0.32386594034302274,0.3,0.0,0.0,368.0,799.0,0.0,1,-957.0,1
90,90,-0.7611231376824609,-0.8,1.0,0.0,265.0,641.0,0.0,0,2094.0,1
91,91,0.8084671805927534,0.8,1.0,1.0,251.0,722.0,0.0,0,2027.0,0
92,92,0.6778940563122348,0.7,1.0,1.0,313.0,970.0,0.0,0,1717.0,0
93,93,-0.5582163219478181,-0.6,1.0,0.0,317.0,837.0,0.0,0,1846.0,1
94,94,0.46005878415253376,0.5,1.0,1.0,359.0,569.0,0.0,0,2072.0,0
95,95,0.008574472166590685,0.0,0.0,0.0,323.0,742.0,0.0,1,1935.0,1
96,96,0.35268163388474594,0.4,1.0,1.0,359.0,924.0,0.0,0,1717.0,0
97,97,-0.8737977377761306,-0.9,1.0,0.0,483.0,610.0,0.0,0,1907.0,1
98,98,-0.6807288331655756,-0.7,1.0,0.0,296.0,518.0,0.0,0,2186.0,1
99,99,0.778462157971957,0.8,1.0,1.0,387.0,986.0,0.0,0,1627.0,0
100,100,0.8209293760939854,0.8,0.0,0.0,387.0,889.0,0.0,1,1724.0,1
101,101,-0.7944870583641378,-0.8,0.0,1.0,269.0,803.0,0.0,1,1928.0,0
102,102,0.674003771604759,0.7,0.0,0.0,347.0,936.0,0.0,1,1717.0,1
103,103,0.21484140365346016,0.2,0.0,0.0,265.0,622.0,0.0,1,2113.0,1
104,104,-0.8406683300689551,-0.8,1.0,0.0,258.0,504.0,0.0,0,-632.0,1
105,105,-0.27816996364617463,-0.3,0.0,1.0,428.0,871.0,0.0,1,1701.0,0
106,106,0.26020994772799544,0.3,1.0,1.0,400.0,985.0,0.0,0,1615.0,0
107,107,-0.24993501277916996,-0.2,1.0,0.0,494.0,644.0,0.0,0,1862.0,1
108,108,-0.606555820840156,-0.6,1.0,0.0,484.0,843.0,0.0,0,1673.0,1
109,109,0.6441556279788444,0.6,0.0,0.0,362.0,853.0,0.0,1,1785.0,1
110,110,-0.8837437233906492,-0.9,0.0,1.0,385.0,742.0,0.0,1,-1127.0,0
111,111,0.14697827458927837,0.1,0.0,0.0,285.0,950.0,0.0,1,1765.0,1
112,112,-0.2615314343507571,-0.3,0.0,1.0,367.0,856.0,0.0,1,-953.0,0
113,113,0.6838585789002088,0.7,0.0,0.0,258.0,564.0,0.0,1,2178.0,1
114,114,-0.40012867694993914,-0.4,1.0,0.0,266.0,678.0,0.0,0,2056.0,1
115,115,0.46405663246634055,0.5,0.0,0.0,259.0,760.0,1.0,0,-959.0,0
116,116,-0.8472556701091701,-0.8,1.0,0.0,423.0,538.0,0.0,0,2039.0,1
117,117,0.21054101147132764,0.2,0.0,0.0,328.0,534.0,0.0,1,2138.0,1
118,118,0.5515120790528968,0.6,1.0,1.0,473.0,689.0,0.0,0,-1152.0,0
119,119,-0.6082323731727861,-0.6,0.0,1.0,328.0,635.0,0.0,1,2037.0,0
120,120,0.021603039865204732,0.0,0.0,0.0,395.0,722.0,0.0,1,1883.0,1
121,121,-0.20625396861916756,-0.2,1.0,0.0,262.0,772.0,0.0,0,1966.0,1
122,122,-0.7044074270694972,-0.7,0.0,1.0,393.0,755.0,1.0,0,-1018.0,1
123,123,-0.27055256187265764,-0.3,1.0,0.0,368.0,887.0,0.0,0,1745.0,1
124,124,0.6467100165329273,0.6,0.0,0.0,301.0,603.0,0.0,1,-784.0,1
125,125,0.00752115254741903,0.0,1.0,1.0,322.0,963.0,0.0,0,1715.0,0
126,126,-0.8233622704840657,-0.8,0.0,1.0,354.0,564.0,0.0,1,2082.0,0
127,127,0.6942045381112895,0.7,1.0,1.0,451.0,725.0,0.0,0,1824.0,0
128,128,-0.8061912092920687,-0.8,1.0,0.0,481.0,786.0,1.0,1,-1147.0,0
129,129,0.10999097105590427,0.1,0.0,0.0,470.0,832.0,0.0,1,1698.0,1
130,130,0.36114415672912437,0.4,1.0,1.0,322.0,921.0,0.0,0,1757.0,0
131,131,0.8557530353324893,0.9,0.0,0.0,284.0,938.0,0.0,1,1778.0,1
132,132,0.6275743904004175,0.6,1.0,1.0,272.0,547.0,0.0,0,2181.0,0
133,133,0.6866356225108848,0.7,0.0,0.0,298.0,936.0,0.0,1,1766.0,1
134,134,-0.15633852620574262,-0.2,1.0,0.0,389.0,888.0,0.0,0,1723.0,1
135,135,-0.36661376180138283,-0.4,1.0,0.0,369.0,829.0,0.0,0,1802.0,1
136,136,-0.8359059800232511,-0.8,0.0,1.0,327.0,987.0,0.0,1,1686.0,0
137,137,-0.2441528393214557,-0.2,1.0,0.0,383.0,883.0,0.0,0,1734.0,1
138,138,-0.6414082400945229,-0.6,0.0,1.0,333.0,928.0,0.0,1,1739.0,0
139,139,-0.07924136482321842,-0.1,1.0,0.0,292.0,887.0,0.0,0,1821.0,1
140,140,-0.35990771904209895,-0.4,0.0,1.0,484.0,540.0,0.0,1,1976.0,0
141,141,-0.013047634746636838,-0.0,0.0,1.0,407.0,662.0,0.0,1,1931.0,0
142,142,0.1072849384897786,0.1,1.0,1.0,488.0,694.0,0.0,0,1818.0,0
143,143,-0.28961322972382864,-0.3,1.0,0.0,282.0,874.0,0.0,0,1844.0,1
144,144,0.18493239614485424,0.2,0.0,0.0,405.0,948.0,0.0,1,1647.0,1
145,145,0.540768622006416,0.5,1.0,1.0,484.0,731.0,0.0,0,-1015.0,0
146,146,0.05264063501521832,0.1,0.0,0.0,302.0,857.0,0.0,1,1841.0,1
147,147,-0.1329257632427695,-0.1,0.0,1.0,355.0,718.0,0.0,1,1927.0,0
148,148,-0.7086257214577768,-0.7,0.0,1.0,251.0,682.0,0.0,1,2067.0,0
149,149,0.8872715303119173,0.9,0.0,0.0,348.0,699.0,0.0,1,1953.0,1
150,150,-0.5396056357799168,-0.5,0.0,1.0,301.0,619.0,0.0,1,2080.0,0
151,151,-0.5248031928494746,-0.5,0.0,1.0,269.0,659.0,0.0,1,2072.0,0
152,152,0.176420987440303,0.2,1.0,1.0,325.0,781.0,0.0,0,1894.0,0
153,153,0.40185759265527665,0.4,0.0,0.0,327.0,704.0,0.0,1,1969.0,1
154,154,0.8699499264656668,0.9,0.0,0.0,281.0,675.0,0.0,1,2044.0,1
155,155,-0.6163666127687837,-0.6,0.0,1.0,321.0,924.0,0.0,1,1755.0,0
156,156,-0.030515151425019038,-0.0,0.0,1.0,386.0,768.0,0.0,1,1846.0,0
157,157,0.6492549798950905,0.6,1.0,1.0,263.0,802.0,0.0,0,1935.0,0
158,158,-0.35265236606654426,-0.4,0.0,1.0,381.0,643.0,0.0,1,-1014.0,0
159,159,-0.12057773627269575,-0.1,0.0,1.0,301.0,593.0,0.0,1,2106.0,0
160,160,-0.7902884919833022,-0.8,0.0,1.0,304.0,774.0,0.0,1,1922.0,0
161,161,0.06986844325205355,0.1,1.0,1.0,425.0,919.0,0.0,0,1656.0,0
162,162,0.07492880997618356,0.1,0.0,0.0,444.0,876.0,0.0,1,1680.0,1
163,163,0.8674348235330837,0.9,1.0,1.0,444.0,817.0,0.0,0,1739.0,0
164,164,-0.6621164500931442,-0.7,0.0,1.0,266.0,559.0,0.0,1,2175.0,0
165,165,-0.03176394586351716,-0.0,1.0,0.0,435.0,880.0,0.0,0,1685.0,1
166,166,-0.8353492787911643,-0.8,0.0,1.0,366.0,806.0,0.0,1,1828.0,0
167,167,-0.7918499057804612,-0.8,1.0,0.0,485.0,660.0,0.0,0,1855.0,1
168,168,0.7917867402110615,0.8,1.0,1.0,321.0,729.0,0.0,0,-1020.0,0
169,169,0.13947567390147453,0.1,0.0,0.0,299.0,885.0,0.0,1,1816.0,1
170,170,-0.0014199259256076902,-0.0,0.0,1.0,340.0,613.0,0.0,1,2047.0,0
171,171,0.6857789660194452,0.7,1.0,1.0,325.0,613.0,0.0,0,2062.0,0
172,172,0.883231138306538,0.9,0.0,0.0,307.0,736.0,0.0,1,-1023.0,1
173,173,-0.06030134232621631,-0.1,1.0,0.0,349.0,837.0,0.0,0,1814.0,1
174,174,-0.01224101084811724,-0.0,0.0,1.0,465.0,520.0,0.0,1,2015.0,0
175,175,-0.29907856477448624,-0.3,0.0,1.0,253.0,646.0,0.0,1,2101.0,0
176,176,0.386629577557026,0.4,0.0,0.0,409.0,659.0,0.0,1,1932.0,1
177,177,-0.3660400588432704,-0.4,0.0,1.0,497.0,701.0,0.0,1,1802.0,0
178,178,-0.24983881476210046,-0.2,1.0,0.0,396.0,530.0,0.0,0,2074.0,1
179,179,-0.19887952000660214,-0.2,1.0,0.0,272.0,519.0,0.0,0,2209.0,1
180,180,-0.42194911913392624,-0.4,0.0,1.0,321.0,605.0,0.0,1,-866.0,0
181,181,0.017790047020123212,0.0,1.0,1.0,373.0,966.0,0.0,0,1661.0,0
182,182,0.08993654652263805,0.1,0.0,0.0,274.0,568.0,1.0,0,-812.0,0
183,183,0.4654900221173536,0.5,1.0,1.0,356.0,889.0,0.0,0,1755.0,0
184,184,0.8164883551925234,0.8,1.0,1.0,351.0,509.0,0.0,0,2140.0,0
185,185,0.43488011018740347,0.4,1.0,1.0,486.0,867.0,0.0,0,1647.0,0
186,186,0.6706408767835709,0.7,1.0,1.0,380.0,819.0,0.0,0,1801.0,0
187,187,-0.7105546470112167,-0.7,1.0,0.0,289.0,956.0,0.0,0,1755.0,1
188,188,-0.19036395541629159,-0.2,0.0,1.0,266.0,599.0,1.0,0,-745.0,1
189,189,-0.4375160294466425,-0.4,0.0,1.0,471.0,548.0,0.0,1,1981.0,0
190,190,0.12176298900165683,0.1,1.0,1.0,260.0,576.0,0.0,0,2164.0,0
191,191,-0.3832061226624729,-0.4,0.0,1.0,422.0,728.0,0.0,1,-1130.0,0
192,192,0.21179297648043083,0.2,1.0,1.0,375.0,775.0,0.0,0,1850.0,0
193,193,0.18414850542810857,0.2,1.0,1.0,282.0,837.0,0.0,0,1881.0,0
194,194,-0.23977907464914572,-0.2,1.0,0.0,450.0,511.0,1.0,1,-871.0,0
195,195,0.41922785226496295,0.4,1.0,1.0,358.0,908.0,0.0,0,1734.0,0
196,196,0.4256121606562374,0.4,1.0,1.0,305.0,644.0,0.0,0,2051.0,0
197,197,-0.009411880692872576,-0.0,1.0,0.0,410.0,667.0,0.0,0,1923.0,1
198,198,-0.05565208446350245,-0.1,0.0,1.0,336.0,718.0,0.0,1,1946.0,0
199,199,0.4233727522448939,0.4,0.0,0.0,311.0,858.0,0.0,1,1831.0,1
200,200,0.27113329401011244,0.3,0.0,0.0,470.0,521.0,0.0,1,2009.0,1
201,201,0.4234183636694614,0.4,0.0,0.0,287.0,865.0,1.0,0,-1142.0,0
202,202,-0.6326407626235468,-0.6,0.0,1.0,374.0,932.0,0.0,1,1694.0,0
203,203,0.3309649595749363,0.3,1.0,1.0,410.0,945.0,0.0,0,1645.0,0
204,204,0.2869859107851923,0.3,1.0,1.0,329.0,625.0,0.0,0,-944.0,0
205,205,-0.15352405512251477,-0.2,0.0,1.0,301.0,692.0,0.0,1,2007.0,0
206,206,0.746670625003898,0.7,0.0,0.0,260.0,622.0,0.0,1,2118.0,1
207,207,-0.43477389924797144,-0.4,0.0,1.0,333.0,628.0,0.0,1,2039.0,0
208,208,-0.24333967420420566,-0.2,0.0,1.0,489.0,610.0,0.0,1,1901.0,0
209,209,-0.1811674676563153,-0.2,1.0,0.0,323.0,934.0,0.0,0,1743.0,1
210,210,-0.6296228858858022,-0.6,0.0,1.0,257.0,554.0,0.0,1,2189.0,0
211,211,-0.39808847632559863,-0.4,1.0,0.0,381.0,538.0,0.0,0,2081.0,1
212,212,-0.18786981608682463,-0.2,1.0,0.0,307.0,746.0,0.0,0,1947.0,1
213,213,0.44642961126463565,0.4,1.0,1.0,369.0,862.0,1.0,1,-1181.0,1
214,214,-0.5290418541030275,-0.5,0.0,1.0,328.0,676.0,0.0,1,1996.0,0
215,215,0.33269122521946903,0.3,1.0,1.0,402.0,963.0,0.0,0,1635.0,0
216,216,0.8229363261637185,0.8,1.0,1.0,253.0,656.0,0.0,0,2091.0,0
217,217,0.056658164670845834,0.1,0.0,0.0,386.0,738.0,0.0,1,1876.0,1
218,218,0.8913627474657347,0.9,0.0,0.0,305.0,642.0,0.0,1,2053.0,1
219,219,-0.07545161914041065,-0.1,0.0,1.0,434.0,535.0,0.0,1,2031.0,0
220,220,0.6151235234991387,0.6,1.0,1.0,316.0,932.0,0.0,0,1752.0,0
221,221,-0.5803331263366462,-0.6,1.0,0.0,406.0,859.0,0.0,0,1735.0,1
222,222,-0.4849624600500811,-0.5,1.0,0.0,421.0,785.0,0.0,0,1794.0,1
223,223,-0.3789107827082697,-0.4,0.0,1.0,361.0,596.0,0.0,1,2043.0,0
224,224,-0.8950061973085518,-0.9,0.0,1.0,482.0,526.0,0.0,1,1992.0,0
225,225,0.8946904552749916,0.9,0.0,0.0,478.0,687.0,0.0,1,1835.0,1
226,226,0.8750717142314878,0.9,1.0,1.0,268.0,822.0,0.0,0,1910.0,0
227,227,-0.15563932215541798,-0.2,1.0,0.0,378.0,993.0,0.0,0,1629.0,1
228,228,0.5684676294379628,0.6,0.0,0.0,371.0,804.0,0.0,1,1825.0,1
229,229,-0.14152213078676346,-0.1,0.0,1.0,422.0,940.0,0.0,1,1638.0,0
230,230,-0.3460180938776457,-0.3,1.0,0.0,283.0,628.0,0.0,0,2089.0,1
231,231,0.7377296912655057,0.7,1.0,1.0,262.0,543.0,0.0,0,-525.0,0
232,232,-0.49310407118671673,-0.5,0.0,1.0,272.0,716.0,0.0,1,2012.0,0
233,233,0.35321593487728686,0.4,1.0,1.0,370.0,963.0,0.0,0,1667.0,0
234,234,-0.20625541998476404,-0.2,1.0,0.0,260.0,601.0,0.0,0,2139.0,1
235,235,0.17490987643684297,0.2,0.0,0.0,409.0,834.0,0.0,1,1757.0,1
236,236,0.3858174249234835,0.4,1.0,1.0,253.0,985.0,0.0,0,1762.0,0
237,237,-0.0034592754502249523,-0.0,1.0,0.0,361.0,858.0,0.0,0,1781.0,1
238,238,0.35779970356195523,0.4,0.0,0.0,260.0,919.0,0.0,1,1821.0,1
239,239,-0.5455798126849296,-0.5,0.0,1.0,353.0,564.0,0.0,1,-867.0,0
240,240,-0.05230828329590631,-0.1,0.0,1.0,250.0,853.0,0.0,1,1897.0,0
241,241,0.623438835484556,0.6,0.0,0.0,433.0,799.0,0.0,1,1768.0,1
242,242,-0.28265732075294947,-0.3,1.0,0.0,460.0,660.0,0.0,0,-1090.0,1
243,243,-0.42100337673568233,-0.4,1.0,0.0,258.0,935.0,1.0,1,-673.0,0
244,244,0.7943760470387619,0.8,0.0,0.0,330.0,935.0,1.0,0,-1255.0,0
245,245,0.6800459848654455,0.7,1.0,1.0,449.0,619.0,0.0,0,1932.0,0
246,246,-0.3021394627889019,-0.3,1.0,0.0,385.0,897.0,0.0,0,1718.0,1
247,247,0.4240584638264554,0.4,1.0,1.0,281.0,957.0,0.0,0,-1128.0,0
248,248,0.3829632856969355,0.4,0.0,0.0,385.0,606.0,0.0,1,-891.0,1
249,249,-0.5202045729349244,-0.5,0.0,1.0,295.0,513.0,0.0,1,2192.0,0
250,250,-0.42153538243973704,-0.4,0.0,1.0,259.0,982.0,0.0,1,1759.0,0
251,251,0.6131673566892534,0.6,1.0,1.0,454.0,557.0,0.0,0,1989.0,0
252,252,0.2913339699062639,0.3,0.0,0.0,449.0,899.0,0.0,1,1652.0,1
253,253,0.24597330890180336,0.2,1.0,1.0,440.0,661.0,0.0,0,1899.0,0
254,254,0.24778819058279267,0.2,1.0,1.0,450.0,629.0,0.0,0,1921.0,0
255,255,0.3464389674006151,0.3,0.0,0.0,306.0,513.0,0.0,1,2181.0,1
256,256,-0.1292557568771494,-0.1,0.0,1.0,301.0,977.0,0.0,1,-1118.0,0
257,257,-0.42409206504235386,-0.4,1.0,0.0,327.0,998.0,0.0,0,1675.0,1
258,258,0.48040344098547105,0.5,1.0,1.0,466.0,758.0,1.0,1,-1194.0,1
259,259,0.3082165945417935,0.3,1.0,1.0,304.0,679.0,0.0,0,2017.0,0
260,260,0.16713627524067298,0.2,1.0,1.0,482.0,898.0,0.0,0,1620.0,0
261,261,0.4792882237498123,0.5,0.0,0.0,316.0,881.0,0.0,1,1803.0,1
262,262,0.045738090135465814,0.0,0.0,0.0,432.0,885.0,0.0,1,1683.0,1
263,263,-0.6428077188392982,-0.6,1.0,0.0,283.0,651.0,0.0,0,2066.0,1
264,264,-0.8332736640578414,-0.8,0.0,1.0,322.0,735.0,0.0,1,1943.0,0
265,265,0.8516687814600311,0.9,0.0,0.0,471.0,523.0,1.0,0,-814.0,0
266,266,0.3928822375286948,0.4,0.0,0.0,346.0,755.0,0.0,1,1899.0,1
267,267,0.4901460830728833,0.5,1.0,1.0,275.0,742.0,0.0,0,1983.0,0
268,268,-0.39688993346291856,-0.4,1.0,0.0,320.0,571.0,0.0,0,2109.0,1
269,269,-0.5898225131673805,-0.6,0.0,1.0,331.0,802.0,0.0,1,1867.0,0
270,270,0.03130863499745207,0.0,0.0,0.0,263.0,777.0,0.0,1,1960.0,1
271,271,0.7385436703860134,0.7,1.0,1.0,280.0,930.0,0.0,0,1790.0,0
272,272,-0.8239167529587331,-0.8,1.0,0.0,306.0,564.0,0.0,0,2130.0,1
273,273,-0.70862921064464,-0.7,1.0,0.0,264.0,575.0,0.0,0,2161.0,1
274,274,0.4670257439263453,0.5,1.0,1.0,479.0,627.0,0.0,0,1894.0,0
275,275,-0.4984991229415815,-0.5,0.0,1.0,413.0,933.0,0.0,1,1654.0,0
276,276,-0.15321339884708673,-0.2,1.0,0.0,290.0,739.0,0.0,0,1971.0,1
277,277,-0.02090778796441295,-0.0,0.0,1.0,373.0,500.0,1.0,0,-843.0,1
278,278,0.06369341751876278,0.1,1.0,1.0,409.0,774.0,0.0,0,1817.0,0
279,279,-0.4376024808963938,-0.4,1.0,0.0,291.0,614.0,0.0,0,2095.0,1
280,280,0.7788220658994441,0.8,0.0,0.0,377.0,860.0,0.0,1,1763.0,1
281,281,0.5947593635657616,0.6,1.0,1.0,441.0,880.0,0.0,0,1679.0,0
282,282,-0.6743675152450672,-0.7,1.0,0.0,413.0,900.0,0.0,0,1687.0,1
283,283,-0.5630722832856152,-0.6,0.0,1.0,478.0,815.0,1.0,0,-1193.0,1
284,284,-0.8922930169952593,-0.9,0.0,1.0,439.0,641.0,0.0,1,1920.0,0
285,285,-0.3423946756527304,-0.3,1.0,0.0,372.0,679.0,0.0,0,1949.0,1
286,286,0.7663293211683927,0.8,0.0,0.0,484.0,865.0,0.0,1,1651.0,1
287,287,0.6290755576158117,0.6,0.0,0.0,309.0,787.0,0.0,1,1904.0,1
288,288,-0.1018945381783869,-0.1,0.0,1.0,341.0,512.0,0.0,1,2147.0,0
289,289,0.32226346248995463,0.3,0.0,0.0,293.0,778.0,0.0,1,1929.0,1
290,290,-0.703742410856104,-0.7,0.0,1.0,376.0,696.0,0.0,1,1928.0,0
291,291,0.48583335934817706,0.5,0.0,0.0,472.0,611.0,0.0,1,1917.0,1
292,292,-0.8491750856696689,-0.8,0.0,1.0,380.0,984.0,0.0,1,1636.0,0
293,293,-0.034211808694819434,-0.0,0.0,1.0,371.0,882.0,1.0,0,-623.0,1
294,294,-0.1627094759802098,-0.2,0.0,1.0,400.0,977.0,0.0,1,1623.0,0
295,295,0.02725527881219747,0.0,0.0,0.0,475.0,933.0,0.0,1,-1178.0,1
296,296,0.3401144541750717,0.3,1.0,1.0,357.0,573.0,0.0,0,2070.0,0
297,297,-0.13350094714398208,-0.1,0.0,1.0,424.0,530.0,0.0,1,2046.0,0
298,298,0.6854175552771858,0.7,0.0,0.0,481.0,648.0,0.0,1,1871.0,1
299,299,-0.5668531482684595,-0.6,1.0,0.0,292.0,728.0,0.0,0,1980.0,1
300,300,0.8333713082245823,0.8,1.0,1.0,296.0,562.0,0.0,0,2142.0,0
301,301,-0.6625624978753993,-0.7,1.0,0.0,474.0,533.0,0.0,0,1993.0,1
302,302,-0.46636897474974803,-0.5,0.0,1.0,440.0,927.0,0.0,1,1633.0,0
303,303,-0.6728178306992543,-0.7,1.0,0.0,416.0,518.0,0.0,0,2066.0,1
304,304,-0.6798016581948749,-0.7,0.0,1.0,399.0,694.0,0.0,1,1907.0,0
305,305,0.3580854201845981,0.4,0.0,0.0,268.0,506.0,1.0,0,-694.0,0
306,306,-0.6501311573176585,-0.7,0.0,1.0,379.0,939.0,0.0,1,1682.0,0
307,307,0.4090240713717893,0.4,1.0,1.0,323.0,960.0,0.0,0,-1233.0,0
308,308,0.7002772212495038,0.7,0.0,0.0,497.0,950.0,0.0,1,1553.0,1
309,309,-0.0753541863400281,-0.1,0.0,1.0,365.0,981.0,0.0,1,1654.0,0
310,310,-0.8390885417153534,-0.8,0.0,1.0,333.0,864.0,0.0,1,1803.0,0
311,311,-0.38167522274005883,-0.4,1.0,0.0,401.0,784.0,0.0,0,1815.0,1
312,312,-0.504233345593379,-0.5,1.0,0.0,416.0,575.0,0.0,0,-951.0,1
313,313,0.8359994040110795,0.8,0.0,0.0,264.0,512.0,0.0,1,2224.0,1
314,314,0.6098680059554823,0.6,1.0,1.0,268.0,700.0,0.0,0,2032.0,0
315,315,0.6556876487316973,0.7,1.0,1.0,372.0,930.0,1.0,1,-992.0,1
316,316,0.16946443878714346,0.2,1.0,1.0,366.0,962.0,0.0,0,1672.0,0
317,317,-0.5059733320831541,-0.5,0.0,1.0,277.0,792.0,0.0,1,-1049.0,0
318,318,0.6836033283418702,0.7,0.0,0.0,280.0,660.0,1.0,0,-800.0,0
319,319,-0.8739494322099148,-0.9,1.0,0.0,467.0,810.0,0.0,0,1723.0,1
320,320,0.033927823625006015,0.0,1.0,1.0,281.0,818.0,0.0,0,1901.0,0
321,321,-0.8000097952162935,-0.8,1.0,0.0,315.0,542.0,0.0,0,2143.0,1
322,322,0.52498450768679,0.5,1.0,1.0,442.0,716.0,0.0,0,1842.0,0
323,323,0.4596164283804024,0.5,0.0,0.0,496.0,548.0,0.0,1,1956.0,1
324,324,0.65868945522791,0.7,0.0,0.0,348.0,660.0,0.0,1,1992.0,1
325,325,-0.2297790976436429,-0.2,1.0,0.0,264.0,825.0,0.0,0,1911.0,1
326,326,0.5114014992728048,0.5,0.0,0.0,323.0,534.0,0.0,1,-837.0,1
327,327,-0.5789457840648107,-0.6,0.0,1.0,359.0,976.0,0.0,1,1665.0,0
328,328,-0.2952946425983576,-0.3,1.0,0.0,363.0,744.0,0.0,0,1893.0,1
329,329,0.10720898362735387,0.1,1.0,1.0,289.0,851.0,0.0,0,1860.0,0
330,330,0.5279005348560631,0.5,1.0,1.0,401.0,619.0,0.0,0,1980.0,0
331,331,-0.24736389267679448,-0.2,1.0,0.0,364.0,801.0,0.0,0,1835.0,1
332,332,-0.48874791423161684,-0.5,1.0,0.0,437.0,679.0,0.0,0,1884.0,1
333,333,-0.3456576076457878,-0.3,1.0,0.0,327.0,938.0,0.0,0,-1235.0,1
334,334,-0.3640082250917278,-0.4,0.0,1.0,293.0,883.0,0.0,1,1824.0,0
335,335,-0.19363612415905018,-0.2,1.0,0.0,347.0,605.0,0.0,0,2048.0,1
336,336,-0.4114724884109125,-0.4,0.0,1.0,319.0,825.0,0.0,1,1856.0,0
337,337,0.6394502586340213,0.6,0.0,0.0,287.0,643.0,0.0,1,2070.0,1
338,338,-0.5046947335694507,-0.5,1.0,0.0,266.0,758.0,0.0,0,1976.0,1
339,339,0.6970129334718566,0.7,1.0,1.0,383.0,868.0,0.0,0,1749.0,0
340,340,0.6737278704583084,0.7,1.0,1.0,458.0,541.0,0.0,0,2001.0,0
341,341,-0.26555688313943604,-0.3,0.0,1.0,442.0,717.0,0.0,1,1841.0,0
342,342,-0.4531042189662593,-0.5,1.0,0.0,465.0,830.0,0.0,0,1705.0,1
343,343,0.2538436711359121,0.3,0.0,0.0,414.0,645.0,0.0,1,1941.0,1
344,344,0.13271856910343527,0.1,1.0,1.0,499.0,916.0,0.0,0,1585.0,0
345,345,-0.7237968984694414,-0.7,0.0,1.0,477.0,788.0,0.0,1,1735.0,0
346,346,0.024741748122094287,0.0,0.0,0.0,460.0,605.0,0.0,1,1935.0,1
347,347,-0.826278676407868,-0.8,1.0,0.0,415.0,845.0,0.0,0,1740.0,1
348,348,-0.6342618401676694,-0.6,0.0,1.0,350.0,847.0,0.0,1,1803.0,0
349,349,0.10112906424738333,0.1,0.0,0.0,412.0,874.0,0.0,1,1714.0,1
350,350,-0.3655427705085308,-0.4,1.0,0.0,294.0,624.0,1.0,1,-768.0,0
351,351,0.7564912714787998,0.8,1.0,1.0,391.0,812.0,0.0,0,1797.0,0
352,352,0.6575584941889446,0.7,1.0,1.0,310.0,629.0,0.0,0,-749.0,0
353,353,-0.22238520873729728,-0.2,1.0,0.0,354.0,897.0,1.0,1,-1081.0,0
354,354,0.019972427512005342,0.0,1.0,1.0,314.0,855.0,0.0,0,1831.0,0
355,355,-0.6003047478809516,-0.6,0.0,1.0,380.0,775.0,0.0,1,1845.0,0
356,356,-0.6466584116453158,-0.6,0.0,1.0,478.0,945.0,0.0,1,1577.0,0
357,357,-0.8570655098139833,-0.9,0.0,1.0,269.0,833.0,0.0,1,1898.0,0
358,358,0.16721917151984755,0.2,0.0,0.0,388.0,544.0,0.0,1,2068.0,1
359,359,-0.3728400284578971,-0.4,0.0,1.0,476.0,532.0,0.0,1,1992.0,0
360,360,0.2182373265242984,0.2,0.0,0.0,476.0,592.0,0.0,1,1932.0,1
361,361,0.21406379972144995,0.2,1.0,1.0,403.0,984.0,0.0,0,1613.0,0
362,362,0.3508186442295763,0.4,0.0,0.0,400.0,684.0,0.0,1,1916.0,1
363,363,-0.16412061055133098,-0.2,0.0,1.0,386.0,946.0,0.0,1,1668.0,0
364,364,0.47000660882996115,0.5,1.0,1.0,282.0,595.0,0.0,0,-417.0,0
365,365,0.36216115673942884,0.4,1.0,1.0,476.0,899.0,0.0,0,1625.0,0
366,366,0.29088020945922477,0.3,1.0,1.0,286.0,553.0,0.0,0,2161.0,0
367,367,0.48405803423246085,0.5,1.0,1.0,269.0,593.0,0.0,0,2138.0,0
368,368,-0.7571712547106727,-0.8,0.0,1.0,455.0,728.0,0.0,1,1817.0,0
369,369,0.17369498292681207,0.2,1.0,1.0,486.0,912.0,0.0,0,1602.0,0
370,370,-0.742158459865781,-0.7,1.0,0.0,380.0,674.0,0.0,0,1946.0,1
371,371,0.4660452609514233,0.5,0.0,0.0,478.0,541.0,0.0,1,1981.0,1
372,372,0.850880985665584,0.9,0.0,0.0,410.0,874.0,0.0,1,1716.0,1
373,373,0.08966949992980222,0.1,0.0,0.0,306.0,977.0,0.0,1,1717.0,1
374,374,0.6794535104404432,0.7,0.0,0.0,307.0,975.0,0.0,1,1718.0,1
375,375,0.7466032572779461,0.7,1.0,1.0,485.0,669.0,0.0,0,-1124.0,0
376,376,-0.6448796599227493,-0.6,0.0,1.0,462.0,895.0,0.0,1,-1297.0,0
377,377,-0.5065285123353578,-0.5,1.0,0.0,288.0,610.0,0.0,0,2102.0,1
378,378,-0.6691700789889723,-0.7,1.0,0.0,406.0,990.0,0.0,0,1604.0,1
379,379,-0.29456488529319647,-0.3,0.0,1.0,272.0,889.0,0.0,1,1839.0,0
380,380,-0.2533837576923488,-0.3,0.0,1.0,352.0,965.0,0.0,1,1683.0,0
381,381,0.8522527812802619,0.9,0.0,0.0,368.0,934.0,0.0,1,1698.0,1
382,382,0.7897509218498872,0.8,0.0,0.0,381.0,709.0,0.0,1,-1020.0,1
383,383,-0.6510689432394089,-0.7,0.0,1.0,346.0,522.0,0.0,1,2132.0,0
384,384,0.33138773912158637,0.3,0.0,0.0,297.0,912.0,0.0,1,1791.0,1
385,385,-0.23774988871874814,-0.2,0.0,1.0,276.0,581.0,0.0,1,2143.0,0
386,386,0.544361957779595,0.5,1.0,1.0,487.0,748.0,0.0,0,1765.0,0
387,387,0.240209550376408,0.2,0.0,0.0,432.0,798.0,0.0,1,1770.0,1
388,388,0.34568302767890013,0.3,0.0,0.0,306.0,793.0,0.0,1,1901.0,1
389,389,0.5829882948015698,0.6,0.0,0.0,395.0,519.0,0.0,1,2086.0,1
390,390,0.38009849135527707,0.4,0.0,0.0,445.0,862.0,0.0,1,1693.0,1
391,391,-0.22233859799357736,-0.2,1.0,0.0,291.0,973.0,0.0,0,-1194.0,1
392,392,-0.5647709531669449,-0.6,1.0,0.0,385.0,835.0,0.0,0,1780.0,1
393,393,0.833337841523187,0.8,0.0,0.0,255.0,965.0,0.0,1,1780.0,1
394,394,-0.852805887175072,-0.9,0.0,1.0,437.0,889.0,0.0,1,1674.0,0
395,395,-0.5427116920899384,-0.5,1.0,0.0,280.0,720.0,0.0,0,2000.0,1
396,396,-0.877493025986477,-0.9,0.0,1.0,376.0,872.0,0.0,1,1752.0,0
397,397,0.3077267222745249,0.3,1.0,1.0,297.0,687.0,0.0,0,2016.0,0
398,398,0.12458456383193661,0.1,0.0,0.0,285.0,863.0,0.0,1,1852.0,1
399,399,-0.5866995943878637,-0.6,1.0,0.0,393.0,870.0,0.0,0,1737.0,1
400,400,0.10442201260890893,0.1,1.0,1.0,412.0,522.0,0.0,0,2066.0,0
401,401,-0.8924185311110061,-0.9,0.0,1.0,377.0,568.0,0.0,1,2055.0,0
402,402,0.12716864866301225,0.1,0.0,0.0,359.0,858.0,0.0,1,1783.0,1
403,403,0.7887502040545561,0.8,1.0,1.0,481.0,692.0,0.0,0,1827.0,0
404,404,0.09961453330494874,0.1,1.0,1.0,492.0,607.0,0.0,0,1901.0,0
405,405,0.2534379757561692,0.3,0.0,0.0,318.0,944.0,0.0,1,1738.0,1
406,406,-0.8602135893544995,-0.9,1.0,0.0,281.0,607.0,0.0,0,2112.0,1
407,407,0.5772398181771198,0.6,0.0,0.0,364.0,604.0,0.0,1,2032.0,1
408,408,-0.04837964720061372,-0.0,0.0,1.0,382.0,583.0,0.0,1,2035.0,0
409,409,-0.23893205509898374,-0.2,1.0,0.0,358.0,575.0,0.0,0,-873.0,1
410,410,0.6063187420927313,0.6,0.0,0.0,483.0,627.0,0.0,1,1890.0,1
411,411,-0.7236552162678003,-0.7,0.0,1.0,294.0,623.0,0.0,1,2083.0,0
412,412,0.27636852731167216,0.3,1.0,1.0,358.0,821.0,0.0,0,1821.0,0
413,413,-0.8228481669231491,-0.8,0.0,1.0,322.0,514.0,0.0,1,2164.0,0
414,414,-0.6375056095733556,-0.6,1.0,0.0,319.0,500.0,0.0,0,-649.0,1
415,415,-0.5684593203406483,-0.6,0.0,1.0,262.0,768.0,0.0,1,1970.0,0
416,416,0.18882708566392636,0.2,1.0,1.0,470.0,757.0,0.0,0,1773.0,0
417,417,-0.7744259546481664,-0.8,0.0,1.0,357.0,520.0,0.0,1,2123.0,0
418,418,0.2067498085438232,0.2,1.0,1.0,367.0,845.0,0.0,0,1788.0,0
419,419,0.1905089666501677,0.2,0.0,0.0,252.0,689.0,0.0,1,2059.0,1
420,420,-0.013166543935409614,-0.0,1.0,0.0,383.0,618.0,0.0,0,1999.0,1
421,421,-0.558396230347098,-0.6,1.0,0.0,260.0,809.0,0.0,0,1931.0,1
422,422,-0.358564840516832,-0.4,0.0,1.0,376.0,610.0,0.0,1,2014.0,0
423,423,0.16259217508171775,0.2,1.0,1.0,478.0,824.0,0.0,0,1698.0,0
424,424,0.4389019532096926,0.4,0.0,0.0,251.0,666.0,0.0,1,2083.0,1
425,425,-0.7958849448720252,-0.8,0.0,1.0,350.0,977.0,0.0,1,1673.0,0
426,426,-0.8585310869066886,-0.9,0.0,1.0,425.0,827.0,0.0,1,1748.0,0
427,427,-0.6852426469707064,-0.7,1.0,0.0,391.0,871.0,0.0,0,1738.0,1
428,428,0.4162660917656632,0.4,1.0,1.0,363.0,798.0,0.0,0,1839.0,0
429,429,-0.11734625948215538,-0.1,0.0,1.0,390.0,992.0,1.0,0,-1382.0,1
430,430,-0.0123691179889025,-0.0,0.0,1.0,352.0,953.0,0.0,1,1695.0,0
431,431,0.7271010739914302,0.7,1.0,1.0,480.0,665.0,0.0,0,1855.0,0
432,432,-0.2951450592207282,-0.3,1.0,0.0,464.0,669.0,0.0,0,1867.0,1
433,433,0.65868829971335,0.7,0.0,0.0,419.0,523.0,1.0,0,-942.0,0
434,434,0.23988390661760361,0.2,0.0,0.0,309.0,818.0,0.0,1,1873.0,1
435,435,-0.5155006393921087,-0.5,1.0,0.0,463.0,998.0,0.0,0,-1311.0,1
436,436,0.7148873112476654,0.7,0.0,0.0,266.0,996.0,0.0,1,1738.0,1
437,437,-0.1267897073979687,-0.1,1.0,0.0,252.0,872.0,0.0,0,1876.0,1
438,438,0.2752890552379824,0.3,1.0,1.0,358.0,947.0,0.0,0,1695.0,0
439,439,-0.23729768206132262,-0.2,1.0,0.0,470.0,776.0,0.0,0,-1236.0,1
440,440,-0.30310489567108434,-0.3,0.0,1.0,415.0,891.0,0.0,1,1694.0,0
441,441,0.4237975823530288,0.4,0.0,0.0,332.0,586.0,0.0,1,2082.0,1
442,442,-0.45691993008031456,-0.5,1.0,0.0,264.0,661.0,0.0,0,2075.0,1
443,443,-0.6087099530405025,-0.6,0.0,1.0,411.0,860.0,0.0,1,1729.0,0
444,444,0.8388633149081471,0.8,1.0,1.0,456.0,682.0,0.0,0,1862.0,0
445,445,0.6477942942886691,0.6,1.0,1.0,403.0,614.0,0.0,0,1983.0,0
446,446,-0.20684162526892313,-0.2,0.0,1.0,373.0,650.0,0.0,1,1977.0,0
447,447,0.6776780193054474,0.7,1.0,1.0,401.0,637.0,0.0,0,1962.0,0
448,448,0.19561810656328882,0.2,0.0,0.0,291.0,952.0,0.0,1,1757.0,1
449,449,-0.05867693312071376,-0.1,1.0,0.0,376.0,677.0,1.0,1,-963.0,0
450,450,0.5875127944200166,0.6,1.0,1.0,494.0,704.0,0.0,0,1802.0,0
451,451,-0.145191199503105,-0.1,1.0,0.0,403.0,743.0,0.0,0,1854.0,1
452,452,0.7112119144029861,0.7,1.0,1.0,390.0,621.0,0.0,0,1989.0,0
453,453,-0.013915109369746936,-0.0,0.0,1.0,484.0,713.0,0.0,1,1803.0,0
454,454,-0.15173350297656185,-0.2,0.0,1.0,264.0,702.0,0.0,1,2034.0,0
455,455,0.8556318989473225,0.9,1.0,1.0,283.0,596.0,0.0,0,2121.0,0
456,456,0.5702289868666385,0.6,1.0,1.0,300.0,744.0,0.0,0,1956.0,0
457,457,0.7935679491598177,0.8,0.0,0.0,455.0,598.0,0.0,1,1947.0,1
458,458,-0.04624699714838465,-0.0,0.0,1.0,256.0,756.0,0.0,1,1988.0,0
459,459,-0.10002749271470002,-0.1,1.0,0.0,489.0,577.0,0.0,0,1934.0,1
460,460,0.656859901977289,0.7,1.0,1.0,498.0,866.0,0.0,0,-1344.0,0
461,461,-0.2968231688210331,-0.3,1.0,0.0,463.0,967.0,0.0,0,1570.0,1
462,462,0.010984580654836651,0.0,1.0,1.0,469.0,536.0,0.0,0,1995.0,0
463,463,0.3854427566761566,0.4,0.0,0.0,482.0,588.0,0.0,1,-1060.0,1
464,464,0.5450473306419613,0.5,1.0,1.0,426.0,681.0,0.0,0,1893.0,0
465,465,-0.3967816318215561,-0.4,0.0,1.0,257.0,513.0,0.0,1,2230.0,0
466,466,0.7542017679074925,0.8,1.0,1.0,403.0,633.0,0.0,0,-966.0,0
467,467,-0.0431494463585812,-0.0,0.0,1.0,479.0,794.0,0.0,1,1727.0,0
468,468,-0.478094563060787,-0.5,1.0,0.0,395.0,864.0,0.0,0,-1179.0,1
469,469,0.1486818587419173,0.1,1.0,1.0,363.0,872.0,0.0,0,1765.0,0
470,470,-0.07675725675644396,-0.1,1.0,0.0,270.0,918.0,0.0,0,1812.0,1
471,471,0.8688686450409978,0.9,1.0,1.0,489.0,555.0,0.0,0,1956.0,0
472,472,-0.8430774677453113,-0.8,0.0,1.0,410.0,774.0,0.0,1,1816.0,0
473,473,0.057858688123874846,0.1,1.0,1.0,377.0,844.0,1.0,1,-1121.0,1
474,474,0.8421485570091195,0.8,1.0,1.0,362.0,665.0,0.0,0,1973.0,0
475,475,-0.7718964298377785,-0.8,1.0,0.0,265.0,884.0,0.0,0,1851.0,1
476,476,0.298242048935624,0.3,0.0,0.0,378.0,819.0,0.0,1,1803.0,1
477,477,-0.7456390177931677,-0.7,0.0,1.0,475.0,601.0,1.0,0,-966.0,1
478,478,-0.7906480875637143,-0.8,1.0,0.0,363.0,814.0,0.0,0,-1097.0,1
479,479,0.21417778872528725,0.2,1.0,1.0,253.0,592.0,0.0,0,2155.0,0
480,480,0.6853932094050491,0.7,0.0,0.0,422.0,624.0,0.0,1,1954.0,1
481,481,0.35087287944514267,0.4,1.0,1.0,409.0,586.0,0.0,0,2005.0,0
482,482,-0.7844576385652815,-0.8,1.0,0.0,271.0,642.0,0.0,0,2087.0,1
483,483,0.263351691582311,0.3,1.0,1.0,498.0,837.0,0.0,0,1665.0,0
484,484,-0.47517603858853785,-0.5,0.0,1.0,312.0,971.0,1.0,0,-1283.0,1
485,485,-0.19693721991407176,-0.2,1.0,0.0,345.0,570.0,0.0,0,2085.0,1
486,486,0.15593619426610472,0.2,1.0,1.0,319.0,677.0,0.0,0,2004.0,0
487,487,0.1961271758255646,0.2,0.0,0.0,425.0,651.0,0.0,1,1924.0,1
488,488,-0.5862255852192736,-0.6,1.0,0.0,270.0,516.0,0.0,0,2214.0,1
489,489,-0.4022056428826927,-0.4,1.0,0.0,278.0,789.0,0.0,0,1933.0,1
490,490,-0.19010455112612956,-0.2,0.0,1.0,314.0,960.0,0.0,1,1726.0,0
491,491,0.00733580500929687,0.0,1.0,1.0,356.0,624.0,0.0,0,-840.0,0
492,492,-0.6373430068444683,-0.6,0.0,1.0,357.0,828.0,0.0,1,1815.0,0
493,493,-0.3069666851980647,-0.3,0.0,1.0,369.0,683.0,0.0,1,1948.0,0
494,494,0.35639514918186077,0.4,1.0,1.0,369.0,891.0,0.0,0,1740.0,0
495,495,0.34820436658469733,0.3,1.0,1.0,298.0,956.0,0.0,0,1746.0,0
496,496,-0.12095039856336753,-0.1,1.0,0.0,265.0,570.0,0.0,0,2165.0,1
497,497,-0.09390724417028373,-0.1,1.0,0.0,379.0,515.0,0.0,0,2106.0,1
498,498,0.011271387015678203,0.0,1.0,1.0,491.0,709.0,0.0,0,1800.0,0
499,499,0.2388086279717977,0.2,0.0,0.0,449.0,670.0,0.0,1,1881.0,1
500,500,-0.8132581988777537,-0.8,0.0,1.0,456.0,677.0,0.0,1,1867.0,0
501,501,0.525882471446543,0.5,1.0,1.0,409.0,678.0,0.0,0,1913.0,0
502,502,0.5988506255962923,0.6,0.0,0.0,285.0,630.0,0.0,1,2085.0,1
503,503,0.00548543679647473,0.0,1.0,1.0,329.0,776.0,0.0,0,1895.0,0
504,504,-0.6044047914594692,-0.6,0.0,1.0,473.0,630.0,0.0,1,1897.0,0
505,505,-0.0049270784811732415,-0.0,0.0,1.0,474.0,673.0,0.0,1,1853.0,0
506,506,0.23275383702141916,0.2,0.0,0.0,458.0,650.0,0.0,1,1892.0,1
507,507,-0.7866315517356082,-0.8,0.0,1.0,415.0,967.0,0.0,1,1618.0,0
508,508,0.3804929011648789,0.4,1.0,1.0,309.0,688.0,0.0,0,2003.0,0
509,509,0.7256259874463987,0.7,1.0,1.0,355.0,666.0,0.0,0,1979.0,0
510,510,0.36137143527756577,0.4,1.0,1.0,440.0,555.0,0.0,0,2005.0,0
511,511,-0.8657087220465887,-0.9,0.0,1.0,450.0,719.0,0.0,1,1831.0,0
512,512,0.47940042331672494,0.5,1.0,1.0,430.0,579.0,0.0,0,1991.0,0
513,513,0.20068536720728847,0.2,1.0,1.0,321.0,544.0,0.0,0,2135.0,0
514,514,-0.8992148137907516,-0.9,0.0,1.0,473.0,983.0,0.0,1,1544.0,0
515,515,0.567570379383392,0.6,0.0,0.0,303.0,724.0,0.0,1,1973.0,1
516,516,0.7471764925827667,0.7,0.0,0.0,479.0,535.0,0.0,1,1986.0,1
517,517,-0.23473989198847778,-0.2,0.0,1.0,285.0,931.0,0.0,1,1784.0,0
518,518,-0.048004064631517074,-0.0,0.0,1.0,452.0,767.0,0.0,1,1781.0,0
519,519,-0.6301453848846241,-0.6,1.0,0.0,283.0,513.0,0.0,0,2204.0,1
520,520,0.35927701760971364,0.4,1.0,1.0,425.0,591.0,0.0,0,1984.0,0
521,521,0.7153320847283914,0.7,1.0,1.0,452.0,518.0,0.0,0,2030.0,0
522,522,0.3881612535861524,0.4,1.0,1.0,317.0,594.0,0.0,0,2089.0,0
523,523,-0.5906483414474488,-0.6,0.0,1.0,458.0,635.0,1.0,0,-1073.0,1
524,524,0.6666880644981942,0.7,0.0,0.0,384.0,764.0,1.0,0,-1068.0,0
525,525,0.35506728131908816,0.4,0.0,0.0,452.0,558.0,0.0,1,1990.0,1
526,526,0.682013636537021,0.7,1.0,1.0,428.0,776.0,0.0,0,1796.0,0
527,527,0.00579909084255692,0.0,1.0,1.0,479.0,767.0,0.0,0,1754.0,0
528,528,-0.3609593995093976,-0.4,0.0,1.0,260.0,750.0,0.0,1,1990.0,0
529,529,-0.09710124773458473,-0.1,0.0,1.0,469.0,646.0,0.0,1,1885.0,0
530,530,-0.7611016727013383,-0.8,0.0,1.0,303.0,927.0,1.0,0,-1030.0,1
531,531,0.10246770997361365,0.1,0.0,0.0,374.0,743.0,1.0,0,-1017.0,0
532,532,-0.01290633302891342,-0.0,1.0,0.0,342.0,925.0,0.0,0,-1017.0,1
533,533,0.585701413085077,0.6,0.0,0.0,298.0,707.0,0.0,1,1995.0,1
534,534,0.08565839617210058,0.1,0.0,0.0,320.0,962.0,0.0,1,1718.0,1
535,535,0.5978473803711161,0.6,1.0,1.0,426.0,532.0,0.0,0,2042.0,0
536,536,-0.6036386101453277,-0.6,1.0,0.0,266.0,960.0,0.0,0,1774.0,1
537,537,0.6729949272548726,0.7,0.0,0.0,493.0,719.0,0.0,1,1788.0,1
538,538,-0.7301424622262516,-0.7,1.0,0.0,467.0,682.0,0.0,0,1851.0,1
539,539,-0.17089187869996825,-0.2,0.0,1.0,394.0,557.0,0.0,1,2049.0,0
540,540,-0.42276603232429527,-0.4,0.0,1.0,452.0,958.0,0.0,1,1590.0,0
541,541,-0.6870368566556327,-0.7,1.0,0.0,308.0,620.0,0.0,0,2072.0,1
542,542,-0.8898712899284075,-0.9,0.0,1.0,340.0,981.0,0.0,1,1679.0,0
543,543,0.6486657228070803,0.6,0.0,0.0,311.0,883.0,0.0,1,1806.0,1
544,544,-0.4819455932235877,-0.5,0.0,1.0,483.0,612.0,1.0,0,-1025.0,1
545,545,-0.306668947743685,-0.3,1.0,0.0,314.0,886.0,0.0,0,1800.0,1
546,546,-0.17264378825417348,-0.2,1.0,0.0,347.0,859.0,0.0,0,1794.0,1
547,547,-0.42183670374244825,-0.4,0.0,1.0,425.0,877.0,0.0,1,1698.0,0
548,548,-0.8130312620503838,-0.8,0.0,1.0,255.0,725.0,0.0,1,2020.0,0
549,549,-0.8177353783592018,-0.8,0.0,1.0,255.0,593.0,0.0,1,2152.0,0
550,550,-0.6042304294619592,-0.6,1.0,0.0,428.0,602.0,0.0,0,1970.0,1
551,551,-0.8441620890015227,-0.8,1.0,0.0,359.0,842.0,0.0,0,1799.0,1
552,552,0.3581383419665759,0.4,0.0,0.0,455.0,555.0,0.0,1,1990.0,1
553,553,0.01685181204902808,0.0,0.0,0.0,281.0,941.0,1.0,0,-1182.0,0
554,554,-0.2900311445278583,-0.3,0.0,1.0,260.0,836.0,0.0,1,-1046.0,0
555,555,-0.35420116642448884,-0.4,1.0,0.0,259.0,915.0,0.0,0,1826.0,1
556,556,0.6925889715480528,0.7,1.0,1.0,307.0,766.0,0.0,0,1927.0,0
557,557,-0.5933911585525811,-0.6,1.0,0.0,353.0,785.0,0.0,0,1862.0,1
558,558,-0.8588277628667802,-0.9,0.0,1.0,492.0,714.0,0.0,1,1794.0,0
559,559,0.5335665365095362,0.5,1.0,1.0,403.0,865.0,0.0,0,1732.0,0
560,560,-0.1349187607931669,-0.1,1.0,0.0,366.0,729.0,0.0,0,1905.0,1
561,561,0.6365213975023721,0.6,1.0,1.0,339.0,925.0,0.0,0,1736.0,0
562,562,-0.04944376998839717,-0.0,0.0,1.0,347.0,618.0,0.0,1,2035.0,0
563,563,-0.3020405060216117,-0.3,1.0,0.0,450.0,892.0,0.0,0,1658.0,1
564,564,-0.16523130525615926,-0.2,1.0,0.0,339.0,906.0,0.0,0,1755.0,1
565,565,-0.7270727948189477,-0.7,1.0,0.0,446.0,812.0,0.0,0,1742.0,1
566,566,-0.6130437700351314,-0.6,0.0,1.0,374.0,832.0,0.0,1,1794.0,0
567,567,-0.20620369302418384,-0.2,1.0,0.0,300.0,586.0,0.0,0,2114.0,1
568,568,-0.10776300469268674,-0.1,1.0,0.0,450.0,910.0,0.0,0,1640.0,1
569,569,-0.2815013690863025,-0.3,1.0,0.0,463.0,998.0,0.0,0,1539.0,1
570,570,0.07208691968661451,0.1,0.0,0.0,393.0,660.0,0.0,1,1947.0,1
571,571,-0.018951713582740393,-0.0,1.0,0.0,338.0,926.0,0.0,0,1736.0,1
572,572,0.10289924056632083,0.1,0.0,0.0,392.0,779.0,0.0,1,1829.0,1
573,573,-0.2513941981709731,-0.3,1.0,0.0,477.0,655.0,0.0,0,1868.0,1
574,574,0.3324897969746551,0.3,0.0,0.0,399.0,697.0,0.0,1,1904.0,1
575,575,0.3421045974406919,0.3,0.0,0.0,281.0,657.0,0.0,1,2062.0,1
576,576,-0.11313688261692234,-0.1,0.0,1.0,332.0,897.0,0.0,1,1771.0,0
577,577,0.7870486795970414,0.8,1.0,1.0,368.0,683.0,0.0,0,1949.0,0
578,578,-0.3537313074475916,-0.4,0.0,1.0,475.0,604.0,0.0,1,1921.0,0
579,579,-0.02731118005555977,-0.0,0.0,1.0,463.0,917.0,0.0,1,1620.0,0
580,580,-0.7318231618150232,-0.7,0.0,1.0,440.0,936.0,1.0,0,-1076.0,1
581,581,0.18901001013668572,0.2,1.0,1.0,407.0,584.0,0.0,0,2009.0,0
582,582,0.0893298721878183,0.1,0.0,0.0,432.0,627.0,0.0,1,1941.0,1
583,583,-0.15946343560914988,-0.2,1.0,0.0,480.0,521.0,0.0,0,1999.0,1
584,584,-0.25306843964690906,-0.3,0.0,1.0,318.0,780.0,0.0,1,1902.0,0
585,585,-0.4706902168120118,-0.5,1.0,0.0,496.0,508.0,0.0,0,1996.0,1
586,586,0.8023273168192243,0.8,0.0,0.0,298.0,745.0,1.0,0,-923.0,0
587,587,-0.14745739581613382,-0.1,1.0,0.0,458.0,925.0,0.0,0,1617.0,1
588,588,-0.2894307625064314,-0.3,0.0,1.0,365.0,733.0,0.0,1,1902.0,0
589,589,-0.07784714296363049,-0.1,1.0,0.0,497.0,590.0,0.0,0,1913.0,1
590,590,0.12944408581064415,0.1,1.0,1.0,341.0,886.0,0.0,0,1773.0,0
591,591,-0.35466944324575966,-0.4,0.0,1.0,411.0,772.0,0.0,1,1817.0,0
592,592,0.6366679720301806,0.6,0.0,0.0,352.0,860.0,0.0,1,1788.0,1
593,593,0.13571677173215935,0.1,1.0,1.0,444.0,749.0,0.0,0,1807.0,0
594,594,-0.6664132533500704,-0.7,0.0,1.0,482.0,785.0,0.0,1,1733.0,0
595,595,-0.8060097197157927,-0.8,0.0,1.0,364.0,773.0,0.0,1,1863.0,0
596,596,-0.1924399687743844,-0.2,0.0,1.0,263.0,927.0,0.0,1,1810.0,0
597,597,0.02967511563891656,0.0,1.0,1.0,319.0,927.0,1.0,1,-1066.0,1
598,598,0.6063232298362865,0.6,1.0,1.0,413.0,710.0,0.0,0,1877.0,0
599,599,-0.6755461997801452,-0.7,1.0,0.0,333.0,716.0,1.0,1,-839.0,0
600,600,0.3992776311012546,0.4,0.0,0.0,348.0,572.0,0.0,1,2080.0,1
601,601,-0.8775777175415116,-0.9,0.0,1.0,297.0,924.0,0.0,1,1779.0,0
602,602,-0.40260553369690516,-0.4,1.0,0.0,273.0,997.0,0.0,0,1730.0,1
603,603,0.4547364697965576,0.5,1.0,1.0,300.0,681.0,0.0,0,2019.0,0
604,604,0.290017995356859,0.3,1.0,1.0,321.0,553.0,0.0,0,2126.0,0
605,605,-0.588761109636136,-0.6,0.0,1.0,391.0,522.0,0.0,1,2087.0,0
606,606,-0.17167717447598907,-0.2,0.0,1.0,374.0,997.0,0.0,1,1629.0,0
607,607,0.8126305035020894,0.8,0.0,0.0,498.0,996.0,0.0,1,1506.0,1
608,608,0.07377466093357798,0.1,1.0,1.0,456.0,629.0,0.0,0,1915.0,0
609,609,0.8601217764049999,0.9,0.0,0.0,399.0,608.0,1.0,0,-967.0,0
610,610,0.6320290704990618,0.6,1.0,1.0,451.0,776.0,0.0,0,1773.0,0
611,611,-0.0774958862703794,-0.1,1.0,0.0,302.0,988.0,0.0,0,1710.0,1
612,612,0.671090818960253,0.7,1.0,1.0,361.0,869.0,0.0,0,-1090.0,0
613,613,-0.6575291596297809,-0.7,1.0,0.0,275.0,669.0,0.0,0,2056.0,1
614,614,-0.370952394978299,-0.4,1.0,0.0,487.0,843.0,0.0,0,1670.0,1
615,615,-0.6456402231101839,-0.6,1.0,0.0,314.0,581.0,0.0,0,2105.0,1
616,616,-0.6477843025442307,-0.6,1.0,0.0,269.0,565.0,0.0,0,2166.0,1
617,617,0.39637723168545624,0.4,0.0,0.0,364.0,891.0,0.0,1,1745.0,1
618,618,0.22432193794757482,0.2,1.0,1.0,368.0,619.0,0.0,0,-937.0,0
619,619,-0.25186113616812766,-0.3,1.0,0.0,493.0,901.0,0.0,0,1606.0,1
620,620,-0.032202939753302906,-0.0,0.0,1.0,483.0,648.0,0.0,1,1869.0,0
621,621,0.1376267154334646,0.1,1.0,1.0,332.0,533.0,0.0,0,2135.0,0
622,622,0.5373083031342062,0.5,1.0,1.0,452.0,523.0,0.0,0,2025.0,0
623,623,0.38642232007560906,0.4,1.0,1.0,432.0,804.0,0.0,0,1764.0,0
624,624,0.1823779631944752,0.2,0.0,0.0,484.0,855.0,0.0,1,-1269.0,1
625,625,0.8365780579831384,0.8,0.0,0.0,412.0,575.0,0.0,1,2013.0,1
626,626,0.6394728188445836,0.6,0.0,0.0,257.0,991.0,0.0,1,1752.0,1
627,627,0.05608118087128067,0.1,0.0,0.0,408.0,623.0,0.0,1,1969.0,1
628,628,0.07897028853970711,0.1,0.0,0.0,367.0,942.0,1.0,0,-1249.0,0
629,629,0.7661804844354733,0.8,1.0,1.0,441.0,555.0,0.0,0,2004.0,0
630,630,-0.2715888482704555,-0.3,0.0,1.0,377.0,954.0,0.0,1,1669.0,0
631,631,-0.15659066290063683,-0.2,1.0,0.0,421.0,808.0,0.0,0,-1209.0,1
632,632,0.6301997484470642,0.6,1.0,1.0,493.0,597.0,0.0,0,1910.0,0
633,633,-0.3486215644924583,-0.3,0.0,1.0,256.0,511.0,0.0,1,2233.0,0
634,634,0.80330748749119,0.8,0.0,0.0,494.0,990.0,0.0,1,1516.0,1
635,635,-0.19280260432902452,-0.2,1.0,0.0,301.0,934.0,1.0,1,-1135.0,0
636,636,0.2304032957619041,0.2,1.0,1.0,351.0,569.0,0.0,0,2080.0,0
637,637,0.4733500333261508,0.5,0.0,0.0,432.0,892.0,0.0,1,1676.0,1
638,638,-0.7492735890328063,-0.7,0.0,1.0,304.0,608.0,0.0,1,2088.0,0
639,639,-0.8931967421040609,-0.9,1.0,0.0,427.0,783.0,0.0,0,1790.0,1
640,640,0.785259739243514,0.8,0.0,0.0,367.0,930.0,0.0,1,1703.0,1
641,641,-0.21336448977342237,-0.2,0.0,1.0,335.0,965.0,0.0,1,1700.0,0
642,642,0.0486305606874331,0.0,0.0,0.0,330.0,717.0,0.0,1,1953.0,1
643,643,-0.31423229032828603,-0.3,1.0,0.0,427.0,761.0,0.0,0,1812.0,1
644,644,0.5233528246391667,0.5,1.0,1.0,332.0,528.0,0.0,0,-770.0,0
645,645,0.15709701903622142,0.2,1.0,1.0,449.0,596.0,0.0,0,1955.0,0
646,646,-0.8894894188037712,-0.9,1.0,0.0,400.0,775.0,1.0,1,-1145.0,0
647,647,-0.41066018882763783,-0.4,1.0,0.0,364.0,650.0,0.0,0,1986.0,1
648,648,0.6386465149805417,0.6,0.0,0.0,443.0,905.0,0.0,1,1652.0,1
649,649,0.030471309552763226,0.0,1.0,1.0,474.0,537.0,0.0,0,1989.0,0
650,650,-0.27081849415198855,-0.3,0.0,1.0,354.0,952.0,0.0,1,1694.0,0
651,651,0.535510036900048,0.5,0.0,0.0,373.0,517.0,0.0,1,2110.0,1
652,652,0.6008772604859461,0.6,1.0,1.0,326.0,568.0,0.0,0,2106.0,0
653,653,-0.5063929246797134,-0.5,1.0,0.0,436.0,741.0,0.0,0,1823.0,1
654,654,0.024007246713146912,0.0,0.0,0.0,499.0,661.0,0.0,1,1840.0,1
655,655,0.7246026633628372,0.7,0.0,0.0,317.0,903.0,0.0,1,1780.0,1
656,656,-0.7778669267450533,-0.8,0.0,1.0,306.0,648.0,0.0,1,2046.0,0
657,657,-0.05330312400185222,-0.1,0.0,1.0,376.0,725.0,0.0,1,1899.0,0
658,658,-0.01734039572024304,-0.0,0.0,1.0,263.0,766.0,0.0,1,1971.0,0
659,659,-0.8568547955508885,-0.9,0.0,1.0,487.0,736.0,0.0,1,-1093.0,0
660,660,-0.5912676428460164,-0.6,0.0,1.0,344.0,703.0,0.0,1,1953.0,0
661,661,0.535492810592792,0.5,1.0,1.0,425.0,931.0,0.0,0,1644.0,0
662,662,-0.10827802501718464,-0.1,1.0,0.0,472.0,563.0,0.0,0,1965.0,1
663,663,0.2922411919982143,0.3,0.0,0.0,446.0,612.0,0.0,1,1942.0,1
664,664,0.8243277523385802,0.8,1.0,1.0,341.0,970.0,0.0,0,1689.0,0
665,665,0.2289485983163636,0.2,0.0,0.0,265.0,713.0,0.0,1,2022.0,1
666,666,0.2068148557038797,0.2,0.0,0.0,378.0,514.0,0.0,1,2108.0,1
667,667,0.4063731262194684,0.4,0.0,0.0,463.0,858.0,0.0,1,1679.0,1
668,668,0.561432637777075,0.6,1.0,1.0,275.0,944.0,0.0,0,-1059.0,0
669,669,0.8115639692181377,0.8,0.0,0.0,309.0,580.0,0.0,1,2111.0,1
670,670,0.23682055926881407,0.2,1.0,1.0,402.0,690.0,0.0,0,1908.0,0
671,671,0.2243572562424544,0.2,0.0,0.0,278.0,715.0,0.0,1,2007.0,1
672,672,0.3708298213716369,0.4,0.0,0.0,427.0,755.0,0.0,1,1818.0,1
673,673,0.5653527606198646,0.6,1.0,1.0,391.0,570.0,0.0,0,2039.0,0
674,674,-0.6257548702741726,-0.6,0.0,1.0,494.0,631.0,0.0,1,1875.0,0
675,675,0.27791888671704046,0.3,1.0,1.0,361.0,983.0,0.0,0,1656.0,0
676,676,0.4335642950491997,0.4,1.0,1.0,477.0,703.0,0.0,0,1820.0,0
677,677,-0.2739766906365001,-0.3,1.0,0.0,448.0,969.0,0.0,0,1583.0,1
678,678,0.5085565738639716,0.5,1.0,1.0,426.0,684.0,0.0,0,1890.0,0
679,679,-0.13134647431350144,-0.1,1.0,0.0,392.0,856.0,1.0,1,-828.0,0
680,680,0.1959638186266376,0.2,1.0,1.0,268.0,773.0,0.0,0,1959.0,0
681,681,-0.0011227669969384735,-0.0,1.0,0.0,434.0,798.0,1.0,1,-1222.0,0
682,682,-0.7073918158941814,-0.7,0.0,1.0,290.0,665.0,0.0,1,2045.0,0
683,683,-0.29491774881796184,-0.3,0.0,1.0,352.0,959.0,0.0,1,1689.0,0
684,684,-0.34206283534523374,-0.3,0.0,1.0,379.0,507.0,0.0,1,2114.0,0
685,685,0.31720904412899686,0.3,1.0,1.0,452.0,653.0,0.0,0,1895.0,0
686,686,0.715370269065929,0.7,0.0,0.0,455.0,844.0,0.0,1,1701.0,1
687,687,0.14475958612587914,0.1,0.0,0.0,404.0,940.0,0.0,1,1656.0,1
688,688,0.6105131531032394,0.6,1.0,1.0,466.0,686.0,0.0,0,1848.0,0
689,689,0.18043500737104778,0.2,0.0,0.0,453.0,542.0,0.0,1,-955.0,1
690,690,-0.8955947679443899,-0.9,1.0,0.0,404.0,687.0,0.0,0,1909.0,1
691,691,0.5668549231413148,0.6,0.0,0.0,443.0,500.0,0.0,1,2057.0,1
692,692,0.8549959411484466,0.9,1.0,1.0,450.0,742.0,0.0,0,1808.0,0
693,693,0.08399842332767882,0.1,0.0,0.0,467.0,586.0,0.0,1,1947.0,1
694,694,0.7520923286741478,0.8,0.0,0.0,443.0,700.0,0.0,1,1857.0,1
695,695,0.4792530819298316,0.5,0.0,0.0,381.0,694.0,1.0,0,-975.0,0
696,696,-0.2745993505358887,-0.3,0.0,1.0,271.0,609.0,0.0,1,2120.0,0
697,697,-0.23187560149553343,-0.2,0.0,1.0,269.0,710.0,0.0,1,2021.0,0
698,698,-0.5379188458477503,-0.5,1.0,0.0,328.0,803.0,0.0,0,1869.0,1
699,699,0.32597740612594406,0.3,0.0,0.0,409.0,627.0,0.0,1,1964.0,1
700,700,0.12712556924266372,0.1,1.0,1.0,364.0,635.0,0.0,0,2001.0,0
701,701,0.1609752469937994,0.2,1.0,1.0,344.0,704.0,0.0,0,1952.0,0
702,702,0.5655580378665305,0.6,0.0,0.0,309.0,799.0,0.0,1,1892.0,1
703,703,-0.34041310403292613,-0.3,0.0,1.0,446.0,698.0,0.0,1,1856.0,0
704,704,-0.5783362504892415,-0.6,0.0,1.0,492.0,649.0,0.0,1,1859.0,0
705,705,0.29036443651646915,0.3,1.0,1.0,309.0,665.0,0.0,0,2026.0,0
706,706,0.7087246963855872,0.7,1.0,1.0,441.0,970.0,0.0,0,1589.0,0
707,707,-0.7545564282668138,-0.8,1.0,0.0,282.0,703.0,0.0,0,2015.0,1
708,708,0.08216232124911838,0.1,0.0,0.0,370.0,581.0,0.0,1,2049.0,1
709,709,-0.8695194331027113,-0.9,0.0,1.0,344.0,804.0,0.0,1,1852.0,0
710,710,0.7430189266316135,0.7,1.0,1.0,379.0,574.0,0.0,0,2047.0,0
711,711,0.6107849514396851,0.6,1.0,1.0,421.0,893.0,0.0,0,1686.0,0
712,712,0.27386342383247275,0.3,1.0,1.0,411.0,530.0,0.0,0,2059.0,0
713,713,-0.7991647117074445,-0.8,1.0,0.0,355.0,888.0,0.0,0,1757.0,1
714,714,0.32771035537300175,0.3,1.0,1.0,252.0,689.0,0.0,0,2059.0,0
715,715,-0.8307118530433293,-0.8,0.0,1.0,447.0,905.0,0.0,1,1648.0,0
716,716,0.5860438120655554,0.6,0.0,0.0,258.0,608.0,0.0,1,2134.0,1
717,717,-0.3874050665104787,-0.4,0.0,1.0,438.0,722.0,0.0,1,1840.0,0
718,718,-0.8989429132715171,-0.9,0.0,1.0,464.0,787.0,0.0,1,-1171.0,0
719,719,0.4279110898720081,0.4,1.0,1.0,398.0,569.0,0.0,0,2033.0,0
720,720,-0.8258164770242123,-0.8,0.0,1.0,460.0,737.0,0.0,1,1803.0,0
721,721,-0.791571625721445,-0.8,0.0,1.0,278.0,556.0,0.0,1,2166.0,0
722,722,-0.37592875317530705,-0.4,0.0,1.0,260.0,501.0,0.0,1,2239.0,0
723,723,0.7851850726291801,0.8,0.0,0.0,254.0,685.0,0.0,1,2061.0,1
724,724,-0.28141381800710696,-0.3,0.0,1.0,382.0,744.0,0.0,1,1874.0,0
725,725,0.87391287786636,0.9,1.0,1.0,430.0,532.0,0.0,0,2038.0,0
726,726,-0.28595029889239065,-0.3,0.0,1.0,357.0,842.0,0.0,1,1801.0,0
727,727,-0.6813034491833057,-0.7,0.0,1.0,317.0,659.0,1.0,0,-856.0,1
728,728,0.17508105781866734,0.2,0.0,0.0,435.0,723.0,0.0,1,1842.0,1
729,729,0.15951622776189855,0.2,0.0,0.0,463.0,810.0,0.0,1,1727.0,1
730,730,-0.12962630993517166,-0.1,0.0,1.0,429.0,989.0,0.0,1,1582.0,0
731,731,0.6842471552674431,0.7,0.0,0.0,386.0,501.0,0.0,1,2113.0,1
732,732,0.3325188267585085,0.3,1.0,1.0,300.0,979.0,0.0,0,1721.0,0
733,733,-0.12543114111493647,-0.1,0.0,1.0,295.0,553.0,0.0,1,2152.0,0
734,734,-0.43200303904199944,-0.4,0.0,1.0,406.0,771.0,0.0,1,1823.0,0
735,735,0.26032445318275144,0.3,0.0,0.0,250.0,721.0,0.0,1,2029.0,1
736,736,0.2349812419768783,0.2,0.0,0.0,286.0,638.0,0.0,1,2076.0,1
737,737,-0.21587655926948135,-0.2,0.0,1.0,343.0,506.0,0.0,1,2151.0,0
738,738,0.8405380905540266,0.8,1.0,1.0,495.0,773.0,0.0,0,1732.0,0
739,739,-0.04572211337700416,-0.0,0.0,1.0,443.0,638.0,0.0,1,1919.0,0
740,740,-0.2658287957501946,-0.3,0.0,1.0,275.0,705.0,1.0,0,-840.0,1
741,741,0.05838533662156686,0.1,1.0,1.0,406.0,545.0,0.0,0,2049.0,0
742,742,0.3970258578699254,0.4,0.0,0.0,264.0,994.0,0.0,1,1742.0,1
743,743,0.1421047637822791,0.1,1.0,1.0,348.0,737.0,0.0,0,1915.0,0
744,744,-0.8195948233357482,-0.8,1.0,0.0,269.0,645.0,0.0,0,2086.0,1
745,745,0.09387055555351409,0.1,0.0,0.0,262.0,817.0,0.0,1,1921.0,1
746,746,-0.3189604615933693,-0.3,1.0,0.0,455.0,688.0,0.0,0,1857.0,1
747,747,-0.8361963133007573,-0.8,1.0,0.0,414.0,993.0,0.0,0,1593.0,1
748,748,-0.560170182173473,-0.6,1.0,0.0,440.0,927.0,0.0,0,1633.0,1
749,749,0.19359281847768883,0.2,1.0,1.0,384.0,675.0,0.0,0,1941.0,0
750,750,0.3202058041936059,0.3,0.0,0.0,279.0,683.0,0.0,1,2038.0,1
751,751,-0.3567884442339815,-0.4,0.0,1.0,340.0,665.0,0.0,1,1995.0,0
752,752,-0.8312710678830632,-0.8,0.0,1.0,469.0,697.0,1.0,0,-1136.0,1
753,753,-0.17502200202299845,-0.2,1.0,0.0,346.0,668.0,0.0,0,1986.0,1
754,754,-0.08052796302187626,-0.1,1.0,0.0,446.0,989.0,0.0,0,1565.0,1
755,755,-0.08195198214455335,-0.1,0.0,1.0,424.0,658.0,0.0,1,1918.0,0
756,756,0.6968873839439685,0.7,0.0,0.0,432.0,949.0,0.0,1,1619.0,1
757,757,0.8192068170284111,0.8,0.0,0.0,379.0,602.0,0.0,1,2019.0,1
758,758,-0.025873297351903135,-0.0,1.0,0.0,314.0,519.0,1.0,1,-713.0,0
759,759,0.8207840140453774,0.8,1.0,1.0,474.0,563.0,0.0,0,1963.0,0
760,760,0.25930871224265595,0.3,1.0,1.0,431.0,861.0,0.0,0,1708.0,0
761,761,-0.2582860131736646,-0.3,1.0,0.0,479.0,615.0,0.0,0,1906.0,1
762,762,-0.0055116760515409036,-0.0,1.0,0.0,380.0,881.0,0.0,0,1739.0,1
763,763,-0.7098197955793629,-0.7,1.0,0.0,302.0,511.0,0.0,0,2187.0,1
764,764,-0.6922767147344393,-0.7,1.0,0.0,262.0,502.0,0.0,0,2236.0,1
765,765,0.42105390512897045,0.4,1.0,1.0,256.0,734.0,0.0,0,2010.0,0
766,766,0.2447850784663711,0.2,1.0,1.0,384.0,704.0,0.0,0,1912.0,0
767,767,0.07723935778711455,0.1,1.0,1.0,348.0,806.0,0.0,0,1846.0,0
768,768,0.8576788554324725,0.9,0.0,0.0,465.0,742.0,0.0,1,1793.0,1
769,769,-0.17047418511132495,-0.2,1.0,0.0,290.0,649.0,0.0,0,2061.0,1
770,770,-0.7550348754103827,-0.8,0.0,1.0,389.0,540.0,0.0,1,2071.0,0
771,771,0.7208391146138119,0.7,1.0,1.0,367.0,656.0,0.0,0,1977.0,0
772,772,0.8664796791259722,0.9,1.0,1.0,421.0,928.0,0.0,0,1651.0,0
773,773,0.6105097008531019,0.6,1.0,1.0,485.0,769.0,1.0,1,-1244.0,1
774,774,0.3562835531707361,0.4,0.0,0.0,394.0,516.0,1.0,0,-680.0,0
775,775,0.34088816914111064,0.3,1.0,1.0,484.0,670.0,0.0,0,1846.0,0
776,776,0.12381107821726112,0.1,1.0,1.0,487.0,988.0,0.0,0,1525.0,0
777,777,0.8564981126328722,0.9,0.0,0.0,350.0,622.0,0.0,1,-952.0,1
778,778,0.506379343530157,0.5,1.0,1.0,264.0,506.0,0.0,0,2230.0,0
779,779,0.2874904550923715,0.3,0.0,0.0,416.0,838.0,0.0,1,1746.0,1
780,780,0.7039307290486548,0.7,0.0,0.0,460.0,679.0,0.0,1,1861.0,1
781,781,0.8932697385146383,0.9,0.0,0.0,389.0,936.0,0.0,1,-1115.0,1
782,782,0.7432832153154835,0.7,0.0,0.0,421.0,884.0,0.0,1,1695.0,1
783,783,-0.8195510830650398,-0.8,0.0,1.0,497.0,967.0,0.0,1,1536.0,0
784,784,-0.7027198851654123,-0.7,0.0,1.0,399.0,955.0,0.0,1,1646.0,0
785,785,0.6477356844112822,0.6,1.0,1.0,327.0,953.0,0.0,0,1720.0,0
786,786,0.6118013878236822,0.6,0.0,0.0,298.0,655.0,0.0,1,-893.0,1
787,787,-0.20563121439766585,-0.2,0.0,1.0,257.0,830.0,0.0,1,1913.0,0
788,788,-0.7835100461396689,-0.8,0.0,1.0,288.0,719.0,0.0,1,1993.0,0
789,789,0.1508652416007471,0.2,0.0,0.0,409.0,969.0,0.0,1,1622.0,1
790,790,0.255050123323714,0.3,1.0,1.0,384.0,803.0,0.0,0,1813.0,0
791,791,0.7372690308570743,0.7,0.0,0.0,315.0,837.0,0.0,1,1848.0,1
792,792,-0.09937303642463968,-0.1,0.0,1.0,451.0,845.0,1.0,0,-1116.0,1
793,793,-0.11113069873229442,-0.1,1.0,0.0,387.0,565.0,0.0,0,2048.0,1
794,794,-0.5046750569064113,-0.5,0.0,1.0,255.0,581.0,0.0,1,2164.0,0
795,795,-0.2260078535225526,-0.2,0.0,1.0,340.0,746.0,0.0,1,1914.0,0
796,796,0.8742473711395401,0.9,1.0,1.0,335.0,630.0,0.0,0,2035.0,0
797,797,0.5484586637236831,0.5,1.0,1.0,385.0,990.0,0.0,0,1625.0,0
798,798,0.00795747673639191,0.0,1.0,1.0,308.0,715.0,0.0,0,1977.0,0
799,799,0.7637077384902314,0.8,1.0,1.0,309.0,560.0,1.0,1,-849.0,1
800,800,-0.10014832017671171,-0.1,0.0,1.0,435.0,901.0,0.0,1,1664.0,0
801,801,-0.2131842415200994,-0.2,1.0,0.0,478.0,583.0,0.0,0,1939.0,1
802,802,-0.714618400404903,-0.7,1.0,0.0,252.0,696.0,0.0,0,2052.0,1
803,803,-0.667926839302937,-0.7,0.0,1.0,336.0,507.0,0.0,1,2157.0,0
804,804,0.24881486359709737,0.2,1.0,1.0,359.0,524.0,0.0,0,-823.0,0
805,805,-0.17924882511014062,-0.2,1.0,0.0,401.0,804.0,0.0,0,1795.0,1
806,806,0.1173484409978901,0.1,0.0,0.0,407.0,532.0,0.0,1,2061.0,1
807,807,-0.05719777906278545,-0.1,0.0,1.0,312.0,904.0,0.0,1,1784.0,0
808,808,-0.60143881555454,-0.6,0.0,1.0,398.0,704.0,0.0,1,1898.0,0
809,809,-0.17702284158063986,-0.2,1.0,0.0,408.0,803.0,1.0,1,-1071.0,0
810,810,0.21241793123022246,0.2,0.0,0.0,441.0,763.0,0.0,1,1796.0,1
811,811,0.6516263101127554,0.7,0.0,0.0,376.0,795.0,0.0,1,1829.0,1
812,812,0.8444615714600224,0.8,0.0,0.0,478.0,518.0,0.0,1,2004.0,1
813,813,0.46249846341915546,0.5,1.0,1.0,494.0,650.0,0.0,0,1856.0,0
814,814,-0.19109021721226727,-0.2,1.0,0.0,466.0,624.0,0.0,0,1910.0,1
815,815,-0.8084129137021606,-0.8,1.0,0.0,493.0,720.0,0.0,0,1787.0,1
816,816,0.12342878252609035,0.1,0.0,0.0,319.0,577.0,0.0,1,2104.0,1
817,817,0.4637519064491612,0.5,0.0,0.0,255.0,585.0,0.0,1,2160.0,1
818,818,-0.7177147705845377,-0.7,1.0,0.0,439.0,524.0,0.0,0,2037.0,1
819,819,-0.2535367681032695,-0.3,0.0,1.0,367.0,543.0,0.0,1,2090.0,0
820,820,0.12502227487466044,0.1,0.0,0.0,486.0,563.0,0.0,1,-949.0,1
821,821,0.30197495859775836,0.3,1.0,1.0,352.0,816.0,0.0,0,1832.0,0
822,822,0.5493776308847346,0.5,1.0,1.0,394.0,561.0,0.0,0,2045.0,0
823,823,0.41775909209962825,0.4,0.0,0.0,279.0,689.0,0.0,1,2032.0,1
824,824,0.6607267040997135,0.7,1.0,1.0,465.0,554.0,0.0,0,1981.0,0
825,825,-0.5999826456577816,-0.6,0.0,1.0,495.0,726.0,0.0,1,1779.0,0
826,826,0.5169639572284045,0.5,1.0,1.0,314.0,945.0,0.0,0,1741.0,0
827,827,-0.455492332313152,-0.5,1.0,0.0,404.0,960.0,1.0,1,-1084.0,0
828,828,0.04483914388232846,0.0,1.0,1.0,315.0,925.0,0.0,0,1760.0,0
829,829,0.3295921502897544,0.3,0.0,0.0,421.0,512.0,0.0,1,-813.0,1
830,830,0.001213227219073132,0.0,0.0,0.0,306.0,533.0,1.0,0,-689.0,0
831,831,0.1109857645360105,0.1,0.0,0.0,261.0,812.0,0.0,1,1927.0,1
832,832,-0.3961733487963003,-0.4,1.0,0.0,289.0,887.0,0.0,0,1824.0,1
833,833,-0.5192238963604328,-0.5,1.0,0.0,323.0,848.0,0.0,0,1829.0,1
834,834,0.7174170925410556,0.7,1.0,1.0,426.0,636.0,0.0,0,1938.0,0
835,835,0.44520577745092915,0.4,0.0,0.0,378.0,991.0,0.0,1,1631.0,1
836,836,-0.3636464177929303,-0.4,1.0,0.0,360.0,516.0,0.0,0,2124.0,1
837,837,-0.5382457752260263,-0.5,0.0,1.0,436.0,669.0,0.0,1,-965.0,0
838,838,0.6363781614970166,0.6,0.0,0.0,326.0,756.0,0.0,1,1918.0,1
839,839,-0.03999527304562556,-0.0,0.0,1.0,379.0,653.0,0.0,1,1968.0,0
840,840,0.17701507954670037,0.2,1.0,1.0,316.0,864.0,0.0,0,1820.0,0
841,841,-0.3680023133885191,-0.4,0.0,1.0,496.0,960.0,0.0,1,1544.0,0
842,842,-0.2136422001059629,-0.2,1.0,0.0,347.0,874.0,0.0,0,1779.0,1
843,843,0.15613855043824343,0.2,1.0,1.0,298.0,601.0,0.0,0,2101.0,0
844,844,-0.7538854538192217,-0.8,0.0,1.0,415.0,548.0,0.0,1,2037.0,0
845,845,0.7738896285953122,0.8,1.0,1.0,254.0,537.0,1.0,1,-771.0,1
846,846,0.5738710877190404,0.6,1.0,1.0,370.0,782.0,1.0,1,-1062.0,1
847,847,-0.7527141437345723,-0.8,1.0,0.0,305.0,706.0,1.0,1,-991.0,0
848,848,0.07586688166672939,0.1,1.0,1.0,261.0,806.0,0.0,0,1933.0,0
849,849,-0.574273605179863,-0.6,0.0,1.0,465.0,544.0,0.0,1,1991.0,0
850,850,-0.24700133075670483,-0.2,1.0,0.0,478.0,931.0,0.0,0,1591.0,1
851,851,-0.09900738896475836,-0.1,0.0,1.0,479.0,950.0,0.0,1,1571.0,0
852,852,0.7915411994535019,0.8,1.0,1.0,380.0,919.0,0.0,0,1701.0,0
853,853,0.699009030282507,0.7,0.0,0.0,338.0,966.0,0.0,1,1696.0,1
854,854,0.510438269752472,0.5,1.0,1.0,452.0,936.0,0.0,0,1612.0,0
855,855,-0.4052969762135879,-0.4,0.0,1.0,419.0,915.0,0.0,1,1666.0,0
856,856,0.3037156520688903,0.3,0.0,0.0,356.0,726.0,0.0,1,1918.0,1
857,857,-0.6539089675105156,-0.7,0.0,1.0,258.0,954.0,0.0,1,1788.0,0
858,858,-0.17008230831314397,-0.2,1.0,0.0,269.0,767.0,0.0,0,1964.0,1
859,859,-0.29197305771985316,-0.3,0.0,1.0,436.0,771.0,0.0,1,1793.0,0
860,860,0.13242544769062248,0.1,1.0,1.0,385.0,930.0,0.0,0,1685.0,0
861,861,-0.4742857029245492,-0.5,0.0,1.0,431.0,772.0,0.0,1,1797.0,0
862,862,0.5173591855300975,0.5,1.0,1.0,277.0,526.0,0.0,0,2197.0,0
863,863,-0.77740908390795,-0.8,0.0,1.0,449.0,738.0,0.0,1,1813.0,0
864,864,-0.4746901715339857,-0.5,0.0,1.0,364.0,602.0,1.0,0,-846.0,1
865,865,0.23288651608519417,0.2,0.0,0.0,448.0,734.0,0.0,1,1818.0,1
866,866,-0.6534183343719181,-0.7,1.0,0.0,421.0,944.0,0.0,0,1635.0,1
867,867,0.8947453331900131,0.9,1.0,1.0,472.0,651.0,0.0,0,1877.0,0
868,868,-0.21374410541669597,-0.2,1.0,0.0,304.0,561.0,0.0,0,2135.0,1
869,869,-0.40090933434197745,-0.4,0.0,1.0,251.0,831.0,0.0,1,1918.0,0
870,870,-0.671049527452956,-0.7,0.0,1.0,395.0,674.0,0.0,1,1931.0,0
871,871,-0.8792107176243157,-0.9,1.0,0.0,407.0,968.0,1.0,1,-1275.0,0
872,872,-0.5094201420031282,-0.5,1.0,0.0,472.0,753.0,0.0,0,1775.0,1
873,873,0.6979371310987096,0.7,1.0,1.0,282.0,641.0,0.0,0,2077.0,0
874,874,0.5444185240308747,0.5,0.0,0.0,329.0,680.0,0.0,1,1991.0,1
875,875,-0.04683071594900112,-0.0,0.0,1.0,387.0,805.0,0.0,1,1808.0,0
876,876,-0.0361421472319996,-0.0,0.0,1.0,251.0,965.0,0.0,1,1784.0,0
877,877,0.7893995174013407,0.8,1.0,1.0,269.0,890.0,0.0,0,1841.0,0
878,878,0.8493839990990172,0.8,0.0,0.0,447.0,671.0,1.0,0,-958.0,0
879,879,0.30523202178073083,0.3,0.0,0.0,312.0,629.0,0.0,1,2059.0,1
880,880,0.7837961124112042,0.8,0.0,0.0,281.0,958.0,0.0,1,1761.0,1
881,881,-0.4633838203149249,-0.5,1.0,0.0,400.0,870.0,0.0,0,-1210.0,1
882,882,0.5833249621716435,0.6,0.0,0.0,463.0,767.0,0.0,1,1770.0,1
883,883,-0.06999707730206206,-0.1,0.0,1.0,486.0,601.0,0.0,1,1913.0,0
884,884,0.4521231134581677,0.5,1.0,1.0,277.0,580.0,0.0,0,2143.0,0
885,885,-0.21135091595005828,-0.2,0.0,1.0,432.0,620.0,0.0,1,1948.0,0
886,886,0.02227522628200862,0.0,1.0,1.0,490.0,550.0,0.0,0,1960.0,0
887,887,-0.5439042393363869,-0.5,0.0,1.0,482.0,719.0,0.0,1,1799.0,0
888,888,0.1965255858509124,0.2,1.0,1.0,333.0,549.0,0.0,0,2118.0,0
889,889,-0.5016185229879404,-0.5,0.0,1.0,256.0,678.0,0.0,1,2066.0,0
890,890,-0.7946020705340466,-0.8,0.0,1.0,388.0,791.0,0.0,1,1821.0,0
891,891,0.5189061668125948,0.5,1.0,1.0,492.0,612.0,1.0,1,-1104.0,1
892,892,-0.7023027337817,-0.7,0.0,1.0,321.0,844.0,0.0,1,1835.0,0
893,893,-0.19877792296064334,-0.2,0.0,1.0,351.0,516.0,0.0,1,2133.0,0
894,894,-0.22990901254673823,-0.2,0.0,1.0,390.0,693.0,0.0,1,1917.0,0
895,895,-0.3090871212456384,-0.3,1.0,0.0,255.0,770.0,0.0,0,1975.0,1
896,896,0.05467292463227602,0.1,0.0,0.0,358.0,507.0,0.0,1,2135.0,1
897,897,-0.5980464085551531,-0.6,1.0,0.0,283.0,503.0,0.0,0,2214.0,1
898,898,0.2106550704901392,0.2,1.0,1.0,266.0,771.0,0.0,0,-847.0,0
899,899,0.7443306261954504,0.7,0.0,0.0,260.0,578.0,0.0,1,2162.0,1
900,900,-0.5741469141610014,-0.6,0.0,1.0,310.0,672.0,0.0,1,2018.0,0
901,901,-0.6765803129119943,-0.7,0.0,1.0,325.0,812.0,0.0,1,1863.0,0
902,902,0.5174560501211064,0.5,1.0,1.0,285.0,593.0,0.0,0,2122.0,0
903,903,-0.8155625266383084,-0.8,0.0,1.0,398.0,619.0,1.0,0,-857.0,1
904,904,0.5788096572159022,0.6,1.0,1.0,423.0,861.0,0.0,0,1716.0,0
905,905,0.13150870654017577,0.1,0.0,0.0,264.0,814.0,0.0,1,1922.0,1
906,906,-0.3225008601823298,-0.3,1.0,0.0,332.0,559.0,0.0,0,2109.0,1
907,907,-0.7782566190937606,-0.8,0.0,1.0,307.0,900.0,0.0,1,1793.0,0
908,908,-0.3971031346893269,-0.4,1.0,0.0,451.0,915.0,0.0,0,1634.0,1
909,909,0.5595888664227217,0.6,0.0,0.0,341.0,778.0,0.0,1,1881.0,1
910,910,0.6543656036408009,0.7,0.0,0.0,307.0,790.0,0.0,1,1903.0,1
911,911,-0.7758755600289918,-0.8,0.0,1.0,470.0,918.0,0.0,1,1612.0,0
912,912,-0.34381433974826836,-0.3,0.0,1.0,282.0,666.0,0.0,1,2052.0,0
913,913,0.5473851267239088,0.5,0.0,0.0,271.0,773.0,0.0,1,1956.0,1
914,914,-0.2179518027131352,-0.2,0.0,1.0,285.0,609.0,0.0,1,2106.0,0
915,915,0.16573559045950603,0.2,0.0,0.0,280.0,542.0,0.0,1,2178.0,1
916,916,0.6742336299316282,0.7,1.0,1.0,350.0,695.0,1.0,1,-965.0,1
917,917,-0.31195295231846076,-0.3,1.0,0.0,337.0,763.0,0.0,0,1900.0,1
918,918,0.1841942258023782,0.2,1.0,1.0,442.0,518.0,0.0,0,2040.0,0
919,919,-0.26233812936062884,-0.3,1.0,0.0,457.0,907.0,0.0,0,1636.0,1
920,920,0.24877652843261877,0.2,1.0,1.0,348.0,975.0,0.0,0,1677.0,0
921,921,-0.5293775348006712,-0.5,0.0,1.0,360.0,954.0,0.0,1,1686.0,0
922,922,0.11378799764860037,0.1,0.0,0.0,328.0,982.0,1.0,0,-1070.0,0
923,923,-0.315162452519012,-0.3,0.0,1.0,320.0,921.0,0.0,1,1759.0,0
924,924,0.4487158250296056,0.4,0.0,0.0,353.0,902.0,0.0,1,1745.0,1
925,925,-0.6667801172131631,-0.7,0.0,1.0,450.0,762.0,0.0,1,1788.0,0
926,926,0.8506211596509271,0.9,1.0,1.0,439.0,565.0,0.0,0,1996.0,0
927,927,0.7717822884927531,0.8,1.0,1.0,280.0,823.0,0.0,0,1897.0,0
928,928,-0.016949161395179102,-0.0,1.0,0.0,305.0,892.0,0.0,0,1803.0,1
929,929,-0.049369220845458806,-0.0,1.0,0.0,274.0,824.0,0.0,0,1902.0,1
930,930,0.41871616553835167,0.4,1.0,1.0,389.0,705.0,1.0,1,-1074.0,1
931,931,0.7283667965776125,0.7,1.0,1.0,339.0,784.0,0.0,0,1877.0,0
932,932,0.6713359651377911,0.7,0.0,0.0,438.0,602.0,0.0,1,1960.0,1
933,933,-0.47375724316246415,-0.5,0.0,1.0,320.0,934.0,0.0,1,1746.0,0
934,934,0.3699354548220656,0.4,0.0,0.0,443.0,749.0,0.0,1,1808.0,1
935,935,0.46537598485466736,0.5,0.0,0.0,434.0,570.0,0.0,1,1996.0,1
936,936,0.6976837339686267,0.7,1.0,1.0,259.0,548.0,0.0,0,2193.0,0
937,937,-0.32917951372769527,-0.3,0.0,1.0,333.0,823.0,0.0,1,1844.0,0
938,938,-0.794879475873057,-0.8,0.0,1.0,471.0,809.0,0.0,1,1720.0,0
939,939,0.813145854580886,0.8,0.0,0.0,331.0,712.0,0.0,1,1957.0,1
940,940,-0.5551019283626524,-0.6,0.0,1.0,358.0,714.0,0.0,1,1928.0,0
941,941,0.25585479653212106,0.3,0.0,0.0,405.0,605.0,0.0,1,1990.0,1
942,942,-0.3304496296838356,-0.3,1.0,0.0,462.0,649.0,0.0,0,1889.0,1
943,943,0.8057825236810373,0.8,1.0,1.0,487.0,981.0,0.0,0,1532.0,0
944,944,-0.5723728956719525,-0.6,0.0,1.0,295.0,715.0,0.0,1,1990.0,0
945,945,-0.037137915140698086,-0.0,1.0,0.0,496.0,527.0,0.0,0,1977.0,1
946,946,0.5301788437786469,0.5,0.0,0.0,465.0,945.0,0.0,1,1590.0,1
947,947,0.6130626761245855,0.6,1.0,1.0,250.0,524.0,0.0,0,2226.0,0
948,948,-0.6577047866854469,-0.7,1.0,0.0,293.0,662.0,0.0,0,2045.0,1
949,949,0.26757097242903904,0.3,1.0,1.0,388.0,599.0,0.0,0,2013.0,0
950,950,-0.3608865098260333,-0.4,0.0,1.0,371.0,617.0,0.0,1,2012.0,0
951,951,0.6826391037837857,0.7,0.0,0.0,453.0,808.0,0.0,1,1739.0,1
952,952,0.5000368657767517,0.5,0.0,0.0,320.0,992.0,0.0,1,1688.0,1
953,953,-0.256301158015372,-0.3,0.0,1.0,310.0,913.0,0.0,1,1777.0,0
954,954,-0.4501879714306014,-0.5,0.0,1.0,404.0,921.0,0.0,1,1675.0,0
955,955,0.20116653749557367,0.2,1.0,1.0,384.0,695.0,0.0,0,1921.0,0
956,956,-0.5709630612973866,-0.6,1.0,0.0,337.0,908.0,0.0,0,1755.0,1
957,957,-0.8487609054300908,-0.8,1.0,0.0,473.0,531.0,0.0,0,1996.0,1
958,958,0.23174498169094482,0.2,0.0,0.0,417.0,587.0,0.0,1,1996.0,1
959,959,0.5150354228886841,0.5,0.0,0.0,356.0,616.0,0.0,1,2028.0,1
960,960,0.320310648271669,0.3,0.0,0.0,278.0,844.0,0.0,1,1878.0,1
961,961,-0.04064826141456068,-0.0,0.0,1.0,339.0,847.0,0.0,1,1814.0,0
962,962,0.215475160289187,0.2,1.0,1.0,377.0,760.0,0.0,0,1863.0,0
963,963,-0.7749849460241796,-0.8,1.0,0.0,325.0,879.0,0.0,0,1796.0,1
964,964,0.738845187678509,0.7,1.0,1.0,465.0,828.0,1.0,1,-1233.0,1
965,965,-0.7127137195252808,-0.7,1.0,0.0,332.0,917.0,0.0,0,1751.0,1
966,966,-0.5858385626358351,-0.6,0.0,1.0,276.0,632.0,0.0,1,2092.0,0
967,967,-0.38753930517909563,-0.4,1.0,0.0,414.0,561.0,0.0,0,2025.0,1
968,968,0.320217734133058,0.3,0.0,0.0,496.0,853.0,0.0,1,1651.0,1
969,969,0.6272062113455054,0.6,1.0,1.0,398.0,795.0,0.0,0,1807.0,0
970,970,0.6497878449099564,0.6,0.0,0.0,498.0,667.0,0.0,1,1835.0,1
971,971,0.1515114837811472,0.2,0.0,0.0,271.0,992.0,0.0,1,1737.0,1
972,972,0.7267248055884751,0.7,0.0,0.0,283.0,971.0,0.0,1,1746.0,1
973,973,-0.7957144623480985,-0.8,0.0,1.0,396.0,911.0,0.0,1,1693.0,0
974,974,-0.08712615088221054,-0.1,1.0,0.0,445.0,715.0,0.0,0,1840.0,1
975,975,-0.8173775367583684,-0.8,1.0,0.0,267.0,987.0,0.0,0,1746.0,1
976,976,0.41111631438007834,0.4,1.0,1.0,308.0,636.0,0.0,0,2056.0,0
977,977,-0.615827023681734,-0.6,0.0,1.0,404.0,871.0,0.0,1,1725.0,0
978,978,-0.560576407548484,-0.6,0.0,1.0,299.0,590.0,0.0,1,2111.0,0
979,979,0.2480944787818281,0.2,1.0,1.0,309.0,559.0,0.0,0,2132.0,0
980,980,-0.3575317031027845,-0.4,0.0,1.0,316.0,960.0,0.0,1,1724.0,0
981,981,-0.7895024379788326,-0.8,0.0,1.0,275.0,762.0,0.0,1,1963.0,0
982,982,-0.03988965912538445,-0.0,0.0,1.0,348.0,836.0,0.0,1,1816.0,0
983,983,-0.2259164767472287,-0.2,1.0,0.0,455.0,798.0,0.0,0,1747.0,1
984,984,0.11661890821663345,0.1,0.0,0.0,371.0,977.0,0.0,1,-1288.0,1
985,985,0.11961718804598409,0.1,0.0,0.0,376.0,536.0,0.0,1,2088.0,1
986,986,-0.7060991300307944,-0.7,1.0,0.0,496.0,816.0,0.0,0,1688.0,1
987,987,0.44566426603530307,0.4,1.0,1.0,335.0,915.0,0.0,0,1750.0,0
988,988,-0.5431404893645855,-0.5,1.0,0.0,430.0,878.0,0.0,0,1692.0,1
989,989,-0.31811407303172834,-0.3,0.0,1.0,253.0,931.0,0.0,1,1816.0,0
990,990,0.8908362132545339,0.9,0.0,0.0,297.0,905.0,0.0,1,-1172.0,1
991,991,0.468398896478167,0.5,1.0,1.0,427.0,541.0,0.0,0,2032.0,0
992,992,-0.09039599407029097,-0.1,1.0,0.0,349.0,618.0,0.0,0,2033.0,1
993,993,0.7470036114158941,0.7,0.0,0.0,366.0,689.0,0.0,1,1945.0,1
994,994,-0.20122141473841348,-0.2,0.0,1.0,266.0,775.0,0.0,1,1959.0,0
995,995,0.2898269661599516,0.3,1.0,1.0,275.0,770.0,0.0,0,1955.0,0
996,996,-0.7799228681969053,-0.8,1.0,0.0,262.0,918.0,0.0,0,1820.0,1
997,997,0.7916149596641867,0.8,0.0,0.0,413.0,583.0,0.0,1,-896.0,1
998,998,0.8532384153453719,0.9,0.0,0.0,381.0,694.0,0.0,1,1925.0,1
999,999,0.19253560551381022,0.2,0.0,0.0,259.0,614.0,0.0,1,2127.0,1
1000,1000,0.4627494663707389,0.5,1.0,1.0,309.0,899.0,0.0,0,1792.0,0
1001,1001,0.8663691167347792,0.9,0.0,0.0,399.0,632.0,0.0,1,1969.0,1
1002,1002,-0.5722090730322107,-0.6,0.0,1.0,306.0,575.0,0.0,1,2119.0,0
1003,1003,0.4064531714297511,0.4,0.0,0.0,386.0,764.0,0.0,1,1850.0,1
1004,1004,-0.1125581028303071,-0.1,1.0,0.0,304.0,866.0,0.0,0,1830.0,1
1005,1005,0.26067448474566246,0.3,0.0,0.0,335.0,776.0,0.0,1,1889.0,1
1006,1006,0.15189239902357976,0.2,1.0,1.0,347.0,912.0,0.0,0,1741.0,0
1007,1007,0.8845453362933847,0.9,1.0,1.0,430.0,656.0,0.0,0,1914.0,0
1008,1008,-0.8555848061878527,-0.9,1.0,0.0,438.0,630.0,0.0,0,1932.0,1
1009,1009,0.08555706280402309,0.1,0.0,0.0,384.0,713.0,0.0,1,1903.0,1
1010,1010,0.7324915878209056,0.7,1.0,1.0,493.0,626.0,0.0,0,1881.0,0
1011,1011,-0.26639427743900657,-0.3,1.0,0.0,345.0,807.0,0.0,0,1848.0,1
1012,1012,-0.682584725751969,-0.7,0.0,1.0,356.0,883.0,0.0,1,1761.0,0
1013,1013,-0.08434531483783725,-0.1,0.0,1.0,325.0,693.0,0.0,1,1982.0,0
1014,1014,0.675268802265376,0.7,0.0,0.0,475.0,723.0,0.0,1,1802.0,1
1015,1015,-0.00604766566142223,-0.0,1.0,0.0,309.0,885.0,1.0,1,-1124.0,0
1016,1016,0.4277249838509226,0.4,1.0,1.0,313.0,953.0,0.0,0,1734.0,0
1017,1017,0.8901436903728551,0.9,0.0,0.0,365.0,656.0,0.0,1,1979.0,1
1018,1018,-0.2921574191286834,-0.3,0.0,1.0,394.0,945.0,1.0,0,-1309.0,1
1019,1019,0.800943962102591,0.8,1.0,1.0,334.0,814.0,0.0,0,-1138.0,0
1020,1020,-0.7404244796306659,-0.7,1.0,0.0,480.0,768.0,0.0,0,1752.0,1
1021,1021,0.28287349864186273,0.3,1.0,1.0,358.0,802.0,0.0,0,1840.0,0
1022,1022,-0.04897264053001371,-0.0,0.0,1.0,474.0,987.0,0.0,1,1539.0,0
1023,1023,0.3379009168389083,0.3,1.0,1.0,436.0,871.0,0.0,0,-1277.0,0
1024,1024,-0.7885744524276884,-0.8,0.0,1.0,311.0,844.0,0.0,1,1845.0,0
1025,1025,0.1525451874042273,0.2,1.0,1.0,364.0,515.0,0.0,0,2121.0,0
1026,1026,-0.14903150707840462,-0.1,1.0,0.0,469.0,583.0,0.0,0,1948.0,1
1027,1027,-0.3525148284222128,-0.4,0.0,1.0,289.0,918.0,0.0,1,1793.0,0
1028,1028,0.7423003775325033,0.7,1.0,1.0,334.0,774.0,0.0,0,1892.0,0
1029,1029,0.320792955012111,0.3,1.0,1.0,402.0,965.0,0.0,0,1633.0,0
1030,1030,-0.2153236116728623,-0.2,0.0,1.0,325.0,503.0,1.0,0,-718.0,1
1031,1031,0.5037592001236298,0.5,0.0,0.0,474.0,564.0,0.0,1,1962.0,1
1032,1032,-0.5670860745582509,-0.6,0.0,1.0,253.0,519.0,0.0,1,-582.0,0
1033,1033,0.5681820527835012,0.6,0.0,0.0,457.0,610.0,0.0,1,1933.0,1
1034,1034,-0.1151502023444716,-0.1,0.0,1.0,357.0,984.0,0.0,1,1659.0,0
1035,1035,0.08725244103439589,0.1,1.0,1.0,460.0,849.0,0.0,0,1691.0,0
1036,1036,0.1421230911509025,0.1,1.0,1.0,291.0,907.0,0.0,0,1802.0,0
1037,1037,-0.24331387708814978,-0.2,0.0,1.0,376.0,919.0,0.0,1,1705.0,0
1038,1038,-0.6995706042899452,-0.7,0.0,1.0,493.0,747.0,0.0,1,1760.0,0
1039,1039,-0.8861256159027071,-0.9,0.0,1.0,439.0,552.0,0.0,1,2009.0,0
1040,1040,-0.7747744707231012,-0.8,0.0,1.0,305.0,683.0,0.0,1,2012.0,0
1041,1041,-0.31462612682425917,-0.3,1.0,0.0,312.0,961.0,0.0,0,-1253.0,1
1042,1042,-0.6371443422164205,-0.6,1.0,0.0,261.0,822.0,0.0,0,1917.0,1
1043,1043,-0.1910267568102022,-0.2,0.0,1.0,465.0,643.0,0.0,1,1892.0,0
1044,1044,0.1936763360291579,0.2,1.0,1.0,264.0,733.0,1.0,1,-907.0,1
1045,1045,0.2989500688988648,0.3,1.0,1.0,285.0,945.0,0.0,0,1770.0,0
1046,1046,0.20962691829348123,0.2,0.0,0.0,455.0,539.0,0.0,1,2006.0,1
1047,1047,-0.6624743064199695,-0.7,0.0,1.0,386.0,503.0,0.0,1,2111.0,0
1048,1048,-0.15985315704740177,-0.2,1.0,0.0,393.0,587.0,0.0,0,2020.0,1
1049,1049,-0.8804942914279963,-0.9,1.0,0.0,468.0,930.0,0.0,0,1602.0,1
1050,1050,-0.4272453962135744,-0.4,0.0,1.0,365.0,958.0,0.0,1,1677.0,0
1051,1051,-0.2877438439916685,-0.3,0.0,1.0,350.0,673.0,0.0,1,1977.0,0
1052,1052,0.05228527520731152,0.1,0.0,0.0,262.0,773.0,0.0,1,1965.0,1
1053,1053,0.6763336997801744,0.7,1.0,1.0,331.0,726.0,0.0,0,1943.0,0
1054,1054,0.42183288492533955,0.4,1.0,1.0,305.0,624.0,0.0,0,2071.0,0
1055,1055,0.569387060159919,0.6,1.0,1.0,356.0,716.0,1.0,1,-1022.0,1
1056,1056,-0.5441763538158941,-0.5,0.0,1.0,420.0,789.0,1.0,0,-1019.0,1
1057,1057,-0.7590323268701645,-0.8,0.0,1.0,254.0,993.0,1.0,0,-647.0,1
1058,1058,-0.09546749467802307,-0.1,0.0,1.0,324.0,659.0,0.0,1,2017.0,0
1059,1059,-0.40696648418596537,-0.4,0.0,1.0,267.0,603.0,0.0,1,2130.0,0
1060,1060,-0.1659559458222052,-0.2,0.0,1.0,400.0,799.0,0.0,1,1801.0,0
1061,1061,-0.4456242943572607,-0.4,1.0,0.0,397.0,818.0,0.0,0,1785.0,1
1062,1062,0.40042066138302956,0.4,1.0,1.0,485.0,629.0,0.0,0,1886.0,0
1063,1063,-0.07665713515216588,-0.1,0.0,1.0,332.0,509.0,1.0,0,-831.0,1
1064,1064,-0.10794545689025536,-0.1,1.0,0.0,343.0,677.0,0.0,0,1980.0,1
1065,1065,-0.8525332731941747,-0.9,1.0,0.0,465.0,626.0,0.0,0,1909.0,1
1066,1066,-0.33447195022845067,-0.3,0.0,1.0,463.0,875.0,0.0,1,1662.0,0
1067,1067,0.21476277133222366,0.2,1.0,1.0,287.0,644.0,0.0,0,2069.0,0
1068,1068,0.13247670460711214,0.1,1.0,1.0,413.0,734.0,0.0,0,1853.0,0
1069,1069,0.11820691794914706,0.1,1.0,1.0,390.0,590.0,0.0,0,2020.0,0
1070,1070,-0.8170547970268881,-0.8,1.0,0.0,261.0,903.0,0.0,0,1836.0,1
1071,1071,0.14436958957170132,0.1,0.0,0.0,473.0,862.0,0.0,1,1665.0,1
1072,1072,0.0663086316911421,0.1,0.0,0.0,460.0,538.0,0.0,1,2002.0,1
1073,1073,0.7961892897522612,0.8,0.0,0.0,370.0,550.0,0.0,1,2080.0,1
1074,1074,0.572809312486204,0.6,0.0,0.0,448.0,915.0,0.0,1,-1303.0,1
1075,1075,0.5243708398485195,0.5,0.0,0.0,383.0,785.0,0.0,1,1832.0,1
1076,1076,-0.47168427151225806,-0.5,1.0,0.0,317.0,819.0,0.0,0,1864.0,1
1077,1077,-0.17265874813286453,-0.2,1.0,0.0,316.0,993.0,0.0,0,1691.0,1
1078,1078,0.745051006641226,0.7,0.0,0.0,437.0,768.0,0.0,1,1795.0,1
1079,1079,-0.2432917177974816,-0.2,0.0,1.0,250.0,945.0,0.0,1,-1055.0,0
1080,1080,-0.21791619428310494,-0.2,1.0,0.0,432.0,890.0,0.0,0,1678.0,1
1081,1081,0.5887590415411571,0.6,0.0,0.0,278.0,927.0,0.0,1,1795.0,1
1082,1082,-0.2132694595406356,-0.2,1.0,0.0,480.0,844.0,1.0,1,-1224.0,0
1083,1083,0.15556282463704096,0.2,1.0,1.0,374.0,828.0,0.0,0,1798.0,0
1084,1084,-0.2579855161127085,-0.3,0.0,1.0,300.0,721.0,0.0,1,1979.0,0
1085,1085,-0.12332580152512207,-0.1,0.0,1.0,367.0,893.0,0.0,1,1740.0,0
1086,1086,-0.30190943186813934,-0.3,0.0,1.0,393.0,720.0,0.0,1,1887.0,0
1087,1087,0.0010222542663756995,0.0,0.0,0.0,309.0,668.0,0.0,1,2023.0,1
1088,1088,0.06881906961525597,0.1,0.0,0.0,256.0,717.0,0.0,1,2027.0,1
1089,1089,-0.2878230028796135,-0.3,1.0,0.0,468.0,761.0,0.0,0,1771.0,1
1090,1090,0.26495554194285387,0.3,0.0,0.0,290.0,664.0,0.0,1,2046.0,1
1091,1091,0.3467095007328861,0.3,1.0,1.0,284.0,772.0,0.0,0,1944.0,0
1092,1092,0.1021169250541708,0.1,0.0,0.0,434.0,509.0,0.0,1,2057.0,1
1093,1093,0.6216523215540076,0.6,0.0,0.0,495.0,883.0,0.0,1,1622.0,1
1094,1094,0.30467134564158627,0.3,1.0,1.0,312.0,878.0,0.0,0,-1180.0,0
1095,1095,0.8470571170075679,0.8,0.0,0.0,432.0,825.0,0.0,1,1743.0,1
1096,1096,0.6656717509568651,0.7,1.0,1.0,461.0,883.0,0.0,0,1656.0,0
1097,1097,0.7196875154401444,0.7,1.0,1.0,421.0,545.0,0.0,0,2034.0,0
1098,1098,0.6488984902835296,0.6,0.0,0.0,336.0,767.0,0.0,1,1897.0,1
1099,1099,-0.19540231191077595,-0.2,1.0,0.0,386.0,656.0,0.0,0,1958.0,1
1100,1100,-0.561325529130758,-0.6,1.0,0.0,274.0,820.0,0.0,0,1906.0,1
1101,1101,-0.8789565162180479,-0.9,0.0,1.0,347.0,683.0,0.0,1,1970.0,0
1102,1102,-0.10940644361971852,-0.1,1.0,0.0,305.0,690.0,0.0,0,2005.0,1
1103,1103,0.7975039365340567,0.8,1.0,1.0,421.0,694.0,0.0,0,1885.0,0
1104,1104,0.17458601101306337,0.2,0.0,0.0,352.0,707.0,0.0,1,1941.0,1
1105,1105,0.5695931738175898,0.6,0.0,0.0,251.0,867.0,1.0,0,-1118.0,0
1106,1106,-0.40288885004544656,-0.4,1.0,0.0,397.0,540.0,0.0,0,2063.0,1
1107,1107,0.6108304763831586,0.6,1.0,1.0,403.0,915.0,1.0,1,-1208.0,1
1108,1108,-0.6198278581064762,-0.6,0.0,1.0,272.0,622.0,0.0,1,-864.0,0
1109,1109,0.16429822800059102,0.2,0.0,0.0,471.0,972.0,0.0,1,1557.0,1
1110,1110,-0.26649847636055213,-0.3,0.0,1.0,352.0,735.0,0.0,1,1913.0,0
1111,1111,-0.6234572011434236,-0.6,1.0,0.0,251.0,590.0,0.0,0,2159.0,1
1112,1112,0.15315845947389006,0.2,1.0,1.0,422.0,593.0,0.0,0,1985.0,0
1113,1113,0.42399594950834973,0.4,1.0,1.0,439.0,848.0,0.0,0,1713.0,0
1114,1114,0.5430781720606571,0.5,0.0,0.0,427.0,555.0,0.0,1,-882.0,1
1115,1115,-0.27346637568160403,-0.3,1.0,0.0,391.0,503.0,0.0,0,2106.0,1
1116,1116,0.17598671928430087,0.2,1.0,1.0,254.0,874.0,1.0,1,-1108.0,1
1117,1117,0.27526487119474397,0.3,0.0,0.0,473.0,872.0,0.0,1,1655.0,1
1118,1118,-0.371485745715772,-0.4,1.0,0.0,353.0,856.0,0.0,0,1791.0,1
1119,1119,-0.45803039013288166,-0.5,0.0,1.0,439.0,951.0,0.0,1,1610.0,0
1120,1120,0.5157926560176741,0.5,0.0,0.0,379.0,867.0,0.0,1,1754.0,1
1121,1121,0.6086812431541665,0.6,1.0,1.0,463.0,886.0,0.0,0,1651.0,0
1122,1122,-0.08580907896186285,-0.1,1.0,0.0,408.0,889.0,0.0,0,1703.0,1
1123,1123,-0.25467584225152173,-0.3,0.0,1.0,463.0,791.0,0.0,1,1746.0,0
1124,1124,0.2958809317858745,0.3,0.0,0.0,366.0,656.0,0.0,1,-952.0,1
1125,1125,-0.2492848306826081,-0.2,1.0,0.0,421.0,640.0,0.0,0,1939.0,1
1126,1126,0.6355092801301393,0.6,0.0,0.0,353.0,516.0,0.0,1,2131.0,1
1127,1127,-0.26580502120327165,-0.3,1.0,0.0,482.0,848.0,0.0,0,1670.0,1
1128,1128,0.09842806011609706,0.1,1.0,1.0,473.0,741.0,0.0,0,1786.0,0
1129,1129,0.21245666124069473,0.2,1.0,1.0,269.0,739.0,0.0,0,-978.0,0
1130,1130,0.5588980655314074,0.6,0.0,0.0,309.0,985.0,0.0,1,1706.0,1
1131,1131,0.28082647353615464,0.3,1.0,1.0,307.0,942.0,0.0,0,1751.0,0
1132,1132,0.10832217289949131,0.1,1.0,1.0,427.0,685.0,0.0,0,1888.0,0
1133,1133,0.20715126417857432,0.2,1.0,1.0,424.0,647.0,0.0,0,1929.0,0
1134,1134,-0.2860490761014213,-0.3,1.0,0.0,459.0,842.0,0.0,0,1699.0,1
1135,1135,0.5905547266370538,0.6,0.0,0.0,484.0,718.0,0.0,1,-1172.0,1
1136,1136,-0.6480245969140933,-0.6,0.0,1.0,482.0,772.0,0.0,1,1746.0,0
1137,1137,0.28268973570120914,0.3,0.0,0.0,441.0,826.0,0.0,1,1733.0,1
1138,1138,-0.2564184253375412,-0.3,1.0,0.0,331.0,953.0,0.0,0,1716.0,1
1139,1139,0.14703442779007292,0.1,0.0,0.0,383.0,630.0,0.0,1,1987.0,1
1140,1140,-0.7356773684330031,-0.7,1.0,0.0,353.0,855.0,0.0,0,1792.0,1
1141,1141,-0.8875445053178107,-0.9,1.0,0.0,250.0,585.0,0.0,0,2165.0,1
1142,1142,-0.7851504822898678,-0.8,0.0,1.0,382.0,804.0,0.0,1,1814.0,0
1143,1143,0.40344153739442457,0.4,1.0,1.0,402.0,511.0,0.0,0,2087.0,0
1144,1144,0.5562851011578885,0.6,0.0,0.0,319.0,547.0,0.0,1,2134.0,1
1145,1145,0.022793942209277218,0.0,1.0,1.0,264.0,576.0,0.0,0,2160.0,0
1146,1146,-0.5962186215779136,-0.6,0.0,1.0,402.0,626.0,0.0,1,-888.0,0
1147,1147,-0.2360242718589488,-0.2,1.0,0.0,434.0,940.0,0.0,0,1626.0,1
1148,1148,-0.07621152280913646,-0.1,1.0,0.0,468.0,595.0,0.0,0,1937.0,1
1149,1149,0.39690403646874406,0.4,0.0,0.0,424.0,949.0,0.0,1,1627.0,1
1150,1150,-0.24907314789641277,-0.2,1.0,0.0,256.0,975.0,0.0,0,1769.0,1
1151,1151,-0.8588790940315617,-0.9,0.0,1.0,295.0,722.0,0.0,1,1983.0,0
1152,1152,0.052699557472642766,0.1,0.0,0.0,284.0,560.0,1.0,0,-784.0,0
1153,1153,-0.798324657696845,-0.8,1.0,0.0,441.0,900.0,0.0,0,1659.0,1
1154,1154,0.28287482917410844,0.3,0.0,0.0,469.0,888.0,0.0,1,1643.0,1
1155,1155,0.6781081532930867,0.7,0.0,0.0,286.0,594.0,0.0,1,2120.0,1
1156,1156,0.5063582308681479,0.5,0.0,0.0,486.0,759.0,0.0,1,1755.0,1
1157,1157,0.24426411040819074,0.2,1.0,1.0,372.0,863.0,0.0,0,1765.0,0
1158,1158,0.8405445422840295,0.8,0.0,0.0,402.0,933.0,0.0,1,1665.0,1
1159,1159,0.5417535111241866,0.5,0.0,0.0,339.0,547.0,0.0,1,2114.0,1
1160,1160,0.19467272549510206,0.2,0.0,0.0,338.0,797.0,0.0,1,1865.0,1
1161,1161,-0.4826023202459855,-0.5,1.0,0.0,424.0,757.0,0.0,0,1819.0,1
1162,1162,0.3728422780834352,0.4,0.0,0.0,368.0,937.0,0.0,1,-1305.0,1
1163,1163,0.5904577165044403,0.6,0.0,0.0,257.0,842.0,0.0,1,1901.0,1
1164,1164,0.801252270679094,0.8,0.0,0.0,358.0,955.0,0.0,1,1687.0,1
1165,1165,-0.8594370533538185,-0.9,1.0,0.0,383.0,909.0,0.0,0,1708.0,1
1166,1166,0.21438216496691498,0.2,1.0,1.0,347.0,904.0,0.0,0,1749.0,0
1167,1167,-0.8046528087835828,-0.8,1.0,0.0,336.0,894.0,0.0,0,1770.0,1
1168,1168,0.804125915898701,0.8,1.0,1.0,315.0,625.0,0.0,0,2060.0,0
1169,1169,0.46682354784777036,0.5,1.0,1.0,402.0,514.0,0.0,0,2084.0,0
1170,1170,-0.31216408409646645,-0.3,1.0,0.0,407.0,965.0,0.0,0,1628.0,1
1171,1171,0.8763392330586856,0.9,1.0,1.0,277.0,558.0,0.0,0,2165.0,0
1172,1172,0.6922286225525284,0.7,1.0,1.0,359.0,942.0,0.0,0,1699.0,0
1173,1173,-0.35047964281025956,-0.4,0.0,1.0,410.0,685.0,0.0,1,1905.0,0
1174,1174,0.17852781335252443,0.2,1.0,1.0,418.0,963.0,0.0,0,1619.0,0
1175,1175,-0.18923689675068567,-0.2,0.0,1.0,427.0,630.0,0.0,1,1943.0,0
1176,1176,-0.07331335220136759,-0.1,0.0,1.0,322.0,627.0,0.0,1,-929.0,0
1177,1177,-0.8854277683866968,-0.9,1.0,0.0,362.0,753.0,0.0,0,1885.0,1
1178,1178,-0.3943291115881761,-0.4,1.0,0.0,478.0,893.0,0.0,0,1629.0,1
1179,1179,-0.412958747893604,-0.4,1.0,0.0,470.0,709.0,0.0,0,1821.0,1
1180,1180,0.09711873318238495,0.1,0.0,0.0,397.0,717.0,0.0,1,1886.0,1
1181,1181,0.450657394185045,0.5,1.0,1.0,253.0,886.0,0.0,0,1861.0,0
1182,1182,-0.7162912713275168,-0.7,0.0,1.0,419.0,797.0,1.0,0,-886.0,1
1183,1183,-0.43990842716459233,-0.4,0.0,1.0,390.0,659.0,0.0,1,1951.0,0
1184,1184,0.24023698208763278,0.2,1.0,1.0,392.0,506.0,0.0,0,2102.0,0
1185,1185,0.6789890422517163,0.7,1.0,1.0,400.0,502.0,0.0,0,2098.0,0
1186,1186,0.5668897164854428,0.6,0.0,0.0,487.0,969.0,0.0,1,1544.0,1
1187,1187,-0.17134466879799903,-0.2,0.0,1.0,418.0,552.0,0.0,1,2030.0,0
1188,1188,-0.7893392375564846,-0.8,0.0,1.0,375.0,655.0,0.0,1,1970.0,0
1189,1189,0.16075226559143052,0.2,0.0,0.0,284.0,626.0,0.0,1,2090.0,1
1190,1190,-0.4742925396694278,-0.5,1.0,0.0,352.0,570.0,0.0,0,2078.0,1
1191,1191,0.47101364838900317,0.5,0.0,0.0,346.0,680.0,0.0,1,1974.0,1
1192,1192,-0.20404211019530782,-0.2,0.0,1.0,311.0,995.0,1.0,0,-1206.0,1
1193,1193,-0.7141962259897278,-0.7,1.0,0.0,269.0,889.0,0.0,0,1842.0,1
1194,1194,-0.5545198404992703,-0.6,0.0,1.0,421.0,944.0,0.0,1,1635.0,0
1195,1195,-0.46903114926390005,-0.5,0.0,1.0,463.0,524.0,0.0,1,2013.0,0
1196,1196,-0.8571450211391557,-0.9,0.0,1.0,444.0,756.0,0.0,1,1800.0,0
1197,1197,0.04343414616350372,0.0,0.0,0.0,378.0,838.0,0.0,1,1784.0,1
1198,1198,-0.22063056440347728,-0.2,1.0,0.0,271.0,639.0,0.0,0,2090.0,1
1199,1199,-0.834124055477967,-0.8,0.0,1.0,493.0,916.0,0.0,1,1591.0,0
1200,1200,-0.7943163699152775,-0.8,1.0,0.0,315.0,832.0,0.0,0,1853.0,1
1201,1201,0.02792268643129947,0.0,1.0,1.0,330.0,689.0,0.0,0,1981.0,0
1202,1202,-0.16618225506817452,-0.2,0.0,1.0,261.0,887.0,0.0,1,1852.0,0
1203,1203,-0.5188270415848757,-0.5,1.0,0.0,413.0,801.0,0.0,0,1786.0,1
1204,1204,-0.2790281623591342,-0.3,0.0,1.0,285.0,870.0,0.0,1,1845.0,0
1205,1205,0.5634782298314053,0.6,1.0,1.0,415.0,523.0,0.0,0,2062.0,0
1206,1206,-0.4916182983118229,-0.5,1.0,0.0,392.0,597.0,1.0,1,-849.0,0
1207,1207,0.4909507540320973,0.5,1.0,1.0,341.0,959.0,0.0,0,1700.0,0
1208,1208,-0.23959983121234485,-0.2,1.0,0.0,342.0,911.0,0.0,0,1747.0,1
1209,1209,-0.1817726630062203,-0.2,0.0,1.0,354.0,818.0,0.0,1,1828.0,0
1210,1210,-0.435397872998158,-0.4,0.0,1.0,484.0,993.0,0.0,1,1523.0,0
1211,1211,-0.6389134878910194,-0.6,0.0,1.0,358.0,992.0,0.0,1,1650.0,0
1212,1212,-0.040385668819418075,-0.0,1.0,0.0,355.0,743.0,0.0,0,1902.0,1
1213,1213,-0.12053401735296876,-0.1,1.0,0.0,421.0,562.0,1.0,1,-893.0,0
1214,1214,0.15615847798268934,0.2,0.0,0.0,438.0,917.0,0.0,1,1645.0,1
1215,1215,0.7157046260336172,0.7,1.0,1.0,466.0,854.0,0.0,0,1680.0,0
1216,1216,-0.5199160064312264,-0.5,1.0,0.0,358.0,856.0,0.0,0,1786.0,1
1217,1217,0.7787544113155452,0.8,0.0,0.0,354.0,836.0,0.0,1,1810.0,1
1218,1218,0.8295937830707859,0.8,1.0,1.0,256.0,617.0,0.0,0,2127.0,0
1219,1219,-0.047945831958257856,-0.0,1.0,0.0,495.0,871.0,0.0,0,1634.0,1
1220,1220,0.7836758111336174,0.8,1.0,1.0,361.0,648.0,0.0,0,1991.0,0
1221,1221,-0.8207174391568705,-0.8,0.0,1.0,365.0,560.0,0.0,1,2075.0,0
1222,1222,0.13354883925464567,0.1,0.0,0.0,479.0,969.0,0.0,1,1552.0,1
1223,1223,-0.5910692389310399,-0.6,1.0,0.0,445.0,958.0,0.0,0,-1353.0,1
1224,1224,-0.06057935974667905,-0.1,0.0,1.0,410.0,982.0,0.0,1,1608.0,0
1225,1225,-0.1814463644885722,-0.2,1.0,0.0,318.0,723.0,0.0,0,1959.0,1
1226,1226,0.14711913035664026,0.1,0.0,0.0,442.0,500.0,0.0,1,2058.0,1
1227,1227,0.0614224786676314,0.1,1.0,1.0,317.0,973.0,0.0,0,-1210.0,0
1228,1228,0.010102311130799735,0.0,0.0,0.0,331.0,763.0,1.0,0,-1084.0,0
1229,1229,-0.6435216014346261,-0.6,0.0,1.0,428.0,979.0,0.0,1,1593.0,0
1230,1230,0.8518410815656342,0.9,0.0,0.0,472.0,847.0,0.0,1,1681.0,1
1231,1231,0.5991120133943547,0.6,0.0,0.0,388.0,968.0,0.0,1,1644.0,1
1232,1232,0.353972020620407,0.4,1.0,1.0,436.0,739.0,0.0,0,1825.0,0
1233,1233,0.7383635451402178,0.7,1.0,1.0,408.0,571.0,0.0,0,-839.0,0
1234,1234,0.7457570062412872,0.7,0.0,0.0,273.0,586.0,0.0,1,2141.0,1
1235,1235,0.029868545244995603,0.0,0.0,0.0,329.0,863.0,0.0,1,1808.0,1
1236,1236,0.6023567122609171,0.6,1.0,1.0,357.0,852.0,0.0,0,-979.0,0
1237,1237,0.7613200203171634,0.8,0.0,0.0,366.0,553.0,0.0,1,2081.0,1
1238,1238,-0.34055127257710327,-0.3,1.0,0.0,399.0,716.0,1.0,1,-1115.0,0
1239,1239,0.8744062717633639,0.9,0.0,0.0,474.0,639.0,0.0,1,1887.0,1
1240,1240,0.24679841731275076,0.2,0.0,0.0,494.0,800.0,0.0,1,1706.0,1
1241,1241,0.11747095224841198,0.1,0.0,0.0,371.0,930.0,0.0,1,1699.0,1
1242,1242,0.5572164705388659,0.6,0.0,0.0,271.0,691.0,0.0,1,2038.0,1
1243,1243,0.1560945546120568,0.2,1.0,1.0,296.0,655.0,0.0,0,2049.0,0
1244,1244,-0.19287496738992416,-0.2,0.0,1.0,437.0,703.0,0.0,1,1860.0,0
1245,1245,-0.07838433270123923,-0.1,0.0,1.0,381.0,638.0,0.0,1,1981.0,0
1246,1246,0.656694721897154,0.7,0.0,0.0,312.0,804.0,0.0,1,1884.0,1
1247,1247,0.36885846671753264,0.4,1.0,1.0,310.0,755.0,0.0,0,1935.0,0
1248,1248,0.27817238304627245,0.3,1.0,1.0,326.0,671.0,0.0,0,2003.0,0
1249,1249,0.6545275084105543,0.7,1.0,1.0,433.0,662.0,1.0,1,-1005.0,1
1250,1250,-0.5028600282239254,-0.5,1.0,0.0,295.0,676.0,0.0,0,2029.0,1
1251,1251,0.13596497812968533,0.1,0.0,0.0,450.0,788.0,0.0,1,1762.0,1
1252,1252,0.6727777158254357,0.7,1.0,1.0,375.0,789.0,0.0,0,1836.0,0
1253,1253,-0.583164210577646,-0.6,1.0,0.0,263.0,576.0,0.0,0,2161.0,1
1254,1254,0.011433040096060276,0.0,0.0,0.0,449.0,588.0,0.0,1,1963.0,1
1255,1255,0.8827917260520101,0.9,0.0,0.0,335.0,801.0,0.0,1,-1116.0,1
1256,1256,0.4799445012703164,0.5,0.0,0.0,294.0,982.0,0.0,1,1724.0,1
1257,1257,0.44480957441268665,0.4,1.0,1.0,467.0,695.0,0.0,0,1838.0,0
1258,1258,0.015510615372719028,0.0,1.0,1.0,433.0,930.0,0.0,0,-1333.0,0
1259,1259,0.47295789688333933,0.5,1.0,1.0,374.0,797.0,0.0,0,1829.0,0
1260,1260,0.5746482115236716,0.6,0.0,0.0,382.0,725.0,0.0,1,1893.0,1
1261,1261,-0.5936221736880944,-0.6,0.0,1.0,359.0,551.0,0.0,1,2090.0,0
1262,1262,-0.5790060050412646,-0.6,0.0,1.0,452.0,507.0,0.0,1,2041.0,0
1263,1263,-0.2743640940219708,-0.3,1.0,0.0,363.0,554.0,1.0,1,-857.0,0
1264,1264,-0.2884849602390017,-0.3,1.0,0.0,394.0,760.0,0.0,0,1846.0,1
1265,1265,0.17880172814692485,0.2,1.0,1.0,387.0,844.0,0.0,0,1769.0,0
1266,1266,0.6786191789783064,0.7,1.0,1.0,432.0,824.0,0.0,0,1744.0,0
1267,1267,-0.1158010068866493,-0.1,0.0,1.0,406.0,576.0,0.0,1,2018.0,0
1268,1268,-0.3263736958529071,-0.3,0.0,1.0,279.0,720.0,0.0,1,2001.0,0
1269,1269,0.4807578245496035,0.5,1.0,1.0,258.0,970.0,0.0,0,1772.0,0
1270,1270,0.8283063829870857,0.8,1.0,1.0,270.0,601.0,0.0,0,2129.0,0
1271,1271,-0.756229389787984,-0.8,0.0,1.0,263.0,833.0,0.0,1,1904.0,0
1272,1272,-0.8010188191558261,-0.8,1.0,0.0,469.0,667.0,0.0,0,1864.0,1
1273,1273,0.630930144497215,0.6,0.0,0.0,357.0,967.0,1.0,0,-1284.0,0
1274,1274,-0.6499256215841613,-0.6,0.0,1.0,267.0,990.0,1.0,0,-1257.0,1
1275,1275,-0.08105154385863833,-0.1,0.0,1.0,494.0,972.0,0.0,1,1534.0,0
1276,1276,0.5140766098749944,0.5,1.0,1.0,340.0,805.0,0.0,0,1855.0,0
1277,1277,-0.3030769401836594,-0.3,1.0,0.0,403.0,549.0,0.0,0,2048.0,1
1278,1278,-0.4847493130860689,-0.5,1.0,0.0,321.0,677.0,0.0,0,2002.0,1
1279,1279,0.2670237764882514,0.3,1.0,1.0,424.0,532.0,0.0,0,2044.0,0
1280,1280,0.6514557742274444,0.7,0.0,0.0,356.0,665.0,1.0,0,-851.0,0
1281,1281,-0.6576725771650821,-0.7,0.0,1.0,387.0,694.0,0.0,1,1919.0,0
1282,1282,-0.24118241883795677,-0.2,1.0,0.0,463.0,952.0,0.0,0,1585.0,1
1283,1283,0.7031998320603402,0.7,0.0,0.0,375.0,837.0,0.0,1,1788.0,1
1284,1284,-0.3234591387286917,-0.3,1.0,0.0,298.0,894.0,0.0,0,1808.0,1
1285,1285,0.6978250822671278,0.7,0.0,0.0,427.0,735.0,0.0,1,1838.0,1
1286,1286,0.25908359166843853,0.3,1.0,1.0,283.0,937.0,0.0,0,1780.0,0
1287,1287,0.7669040895722731,0.8,1.0,1.0,377.0,672.0,0.0,0,1951.0,0
1288,1288,0.8697782612175627,0.9,0.0,0.0,289.0,637.0,0.0,1,2074.0,1
1289,1289,0.37446788489564364,0.4,0.0,0.0,305.0,936.0,0.0,1,1759.0,1
1290,1290,0.003705300879071949,0.0,1.0,1.0,339.0,887.0,0.0,0,1774.0,0
1291,1291,0.6825503687897213,0.7,0.0,0.0,453.0,714.0,0.0,1,1833.0,1
1292,1292,0.5173257454985208,0.5,0.0,0.0,278.0,845.0,0.0,1,-1023.0,1
1293,1293,0.4390739353151679,0.4,1.0,1.0,466.0,923.0,1.0,1,-1229.0,1
1294,1294,-0.17520453580181738,-0.2,0.0,1.0,430.0,520.0,0.0,1,-840.0,0
1295,1295,-0.014711221577282774,-0.0,1.0,0.0,456.0,700.0,0.0,0,-1036.0,1
1296,1296,-0.2740923373748859,-0.3,1.0,0.0,303.0,965.0,0.0,0,1732.0,1
1297,1297,-0.499700649006557,-0.5,1.0,0.0,286.0,811.0,1.0,1,-747.0,0
1298,1298,0.7188870415803742,0.7,0.0,0.0,442.0,931.0,0.0,1,1627.0,1
1299,1299,-0.18041166152682342,-0.2,1.0,0.0,360.0,634.0,0.0,0,2006.0,1
1300,1300,0.2184452594310765,0.2,1.0,1.0,355.0,928.0,0.0,0,1717.0,0
1301,1301,0.5749607657546657,0.6,1.0,1.0,393.0,902.0,0.0,0,1705.0,0
1302,1302,0.3381601401199129,0.3,1.0,1.0,447.0,792.0,0.0,0,1761.0,0
1303,1303,-0.5085588756785446,-0.5,0.0,1.0,334.0,916.0,0.0,1,-1120.0,0
1304,1304,0.4715311123470042,0.5,1.0,1.0,313.0,847.0,0.0,0,1840.0,0
1305,1305,-0.4482880958238498,-0.4,1.0,0.0,385.0,791.0,0.0,0,1824.0,1
1306,1306,-0.7080345011947379,-0.7,0.0,1.0,311.0,838.0,0.0,1,1851.0,0
1307,1307,-0.3752053906699432,-0.4,1.0,0.0,480.0,535.0,0.0,0,-735.0,1
1308,1308,0.10695327934556065,0.1,0.0,0.0,382.0,605.0,0.0,1,2013.0,1
1309,1309,0.7802274689953325,0.8,0.0,0.0,357.0,507.0,1.0,0,-724.0,0
1310,1310,-0.26694860666121634,-0.3,0.0,1.0,470.0,684.0,0.0,1,1846.0,0
1311,1311,0.7823373689158583,0.8,1.0,1.0,263.0,663.0,0.0,0,2074.0,0
1312,1312,-0.12138682865563732,-0.1,0.0,1.0,474.0,994.0,0.0,1,1532.0,0
1313,1313,0.02392084753845669,0.0,0.0,0.0,413.0,646.0,0.0,1,-959.0,1
1314,1314,0.8997946547261798,0.9,0.0,0.0,257.0,563.0,0.0,1,2180.0,1
1315,1315,0.4618158283960131,0.5,0.0,0.0,439.0,905.0,0.0,1,1656.0,1
1316,1316,0.29585715592720485,0.3,0.0,0.0,433.0,712.0,0.0,1,1855.0,1
1317,1317,-0.7610488873829193,-0.8,1.0,0.0,383.0,835.0,0.0,0,1782.0,1
1318,1318,0.5413697126602427,0.5,0.0,0.0,475.0,782.0,0.0,1,1743.0,1
1319,1319,-0.6023711536951541,-0.6,0.0,1.0,418.0,637.0,0.0,1,-975.0,0
1320,1320,-0.030757787236692535,-0.0,1.0,0.0,408.0,992.0,0.0,0,1600.0,1
1321,1321,-0.48838029468744987,-0.5,1.0,0.0,300.0,983.0,0.0,0,1717.0,1
1322,1322,0.03774523520576478,0.0,0.0,0.0,343.0,935.0,0.0,1,-1228.0,1
1323,1323,0.4457511348490176,0.4,1.0,1.0,458.0,663.0,0.0,0,1879.0,0
1324,1324,0.7998968348771328,0.8,1.0,1.0,438.0,671.0,0.0,0,1891.0,0
1325,1325,-0.6452924216332265,-0.6,0.0,1.0,309.0,961.0,0.0,1,-1240.0,0
1326,1326,-0.37369511392312005,-0.4,0.0,1.0,439.0,809.0,0.0,1,-988.0,0
1327,1327,-0.449244991772009,-0.4,0.0,1.0,385.0,638.0,0.0,1,1977.0,0
1328,1328,0.18291343455147613,0.2,0.0,0.0,390.0,905.0,0.0,1,-1255.0,1
1329,1329,-0.7439301921758655,-0.7,1.0,0.0,437.0,729.0,0.0,0,1834.0,1
1330,1330,0.6832938494820958,0.7,1.0,1.0,414.0,798.0,0.0,0,1788.0,0
1331,1331,-0.26904537250628,-0.3,0.0,1.0,453.0,762.0,0.0,1,1785.0,0
1332,1332,0.10997772986374621,0.1,0.0,0.0,319.0,646.0,0.0,1,2035.0,1
1333,1333,-0.7134709840601388,-0.7,1.0,0.0,323.0,926.0,0.0,0,-1119.0,1
1334,1334,0.48050431594026166,0.5,1.0,1.0,492.0,712.0,0.0,0,1796.0,0
1335,1335,0.8513198194650874,0.9,0.0,0.0,365.0,522.0,0.0,1,2113.0,1
1336,1336,0.6122464010676244,0.6,1.0,1.0,255.0,645.0,0.0,0,2100.0,0
1337,1337,-0.07174711630978925,-0.1,1.0,0.0,301.0,835.0,0.0,0,1864.0,1
1338,1338,-0.8815214037543916,-0.9,1.0,0.0,408.0,872.0,0.0,0,1720.0,1
1339,1339,0.1277244374347063,0.1,0.0,0.0,256.0,949.0,0.0,1,1795.0,1
1340,1340,0.7849311847181145,0.8,1.0,1.0,300.0,826.0,0.0,0,1874.0,0
1341,1341,0.008450454987715461,0.0,1.0,1.0,349.0,700.0,0.0,0,1951.0,0
1342,1342,0.18714290563879754,0.2,0.0,0.0,318.0,954.0,0.0,1,1728.0,1
1343,1343,-0.1914834823421655,-0.2,1.0,0.0,390.0,509.0,0.0,0,2101.0,1
1344,1344,0.31350280266697717,0.3,1.0,1.0,441.0,997.0,1.0,1,-1388.0,1
1345,1345,0.38022550915582076,0.4,1.0,1.0,381.0,529.0,0.0,0,2090.0,0
1346,1346,0.2956618161905845,0.3,0.0,0.0,261.0,710.0,0.0,1,2029.0,1
1347,1347,0.07288085372588005,0.1,1.0,1.0,335.0,507.0,0.0,0,2158.0,0
1348,1348,-0.5389146532147797,-0.5,1.0,0.0,420.0,702.0,0.0,0,1878.0,1
1349,1349,-0.6521213297026092,-0.7,0.0,1.0,275.0,714.0,0.0,1,2011.0,0
1350,1350,-0.3165187455608113,-0.3,0.0,1.0,475.0,735.0,0.0,1,-980.0,0
1351,1351,0.15445608956181,0.2,0.0,0.0,370.0,604.0,0.0,1,2026.0,1
1352,1352,0.7359841228605143,0.7,1.0,1.0,360.0,587.0,0.0,0,2053.0,0
1353,1353,0.026221232503474412,0.0,1.0,1.0,394.0,741.0,0.0,0,1865.0,0
1354,1354,0.7336902910651218,0.7,1.0,1.0,425.0,681.0,0.0,0,1894.0,0
1355,1355,0.5414132943016953,0.5,1.0,1.0,414.0,572.0,0.0,0,-866.0,0
1356,1356,-0.28568100674678376,-0.3,1.0,0.0,497.0,823.0,0.0,0,1680.0,1
1357,1357,-0.39663817144931013,-0.4,1.0,0.0,449.0,536.0,0.0,0,2015.0,1
1358,1358,-0.5538180470789924,-0.6,0.0,1.0,489.0,829.0,0.0,1,1682.0,0
1359,1359,0.2343698924964367,0.2,1.0,1.0,367.0,807.0,0.0,0,1826.0,0
1360,1360,0.16101309742599745,0.2,1.0,1.0,305.0,504.0,0.0,0,2191.0,0
1361,1361,0.5716834175949149,0.6,0.0,0.0,385.0,511.0,0.0,1,2104.0,1
1362,1362,0.8882750773269809,0.9,0.0,0.0,317.0,884.0,0.0,1,1799.0,1
1363,1363,0.1568852285240333,0.2,0.0,0.0,462.0,677.0,0.0,1,1861.0,1
1364,1364,-0.2710041496789195,-0.3,1.0,0.0,363.0,912.0,0.0,0,-1275.0,1
1365,1365,0.26030873177803293,0.3,1.0,1.0,307.0,683.0,0.0,0,2010.0,0
1366,1366,0.8948058489809553,0.9,0.0,0.0,440.0,814.0,0.0,1,1746.0,1
1367,1367,0.36844514694922637,0.4,0.0,0.0,267.0,598.0,0.0,1,-565.0,1
1368,1368,-0.18282335576709263,-0.2,0.0,1.0,404.0,503.0,0.0,1,2093.0,0
1369,1369,0.29205792554406684,0.3,0.0,0.0,406.0,746.0,0.0,1,-1122.0,1
1370,1370,-0.18411841089004655,-0.2,0.0,1.0,257.0,566.0,0.0,1,2177.0,0
1371,1371,0.3419043708075288,0.3,1.0,1.0,413.0,734.0,0.0,0,-907.0,0
1372,1372,0.2226038515005132,0.2,0.0,0.0,444.0,940.0,0.0,1,1616.0,1
1373,1373,0.7020832236137805,0.7,1.0,1.0,435.0,569.0,0.0,0,1996.0,0
1374,1374,-0.6748193244308502,-0.7,1.0,0.0,308.0,698.0,0.0,0,1994.0,1
1375,1375,-0.6534080551125949,-0.7,1.0,0.0,356.0,836.0,0.0,0,1808.0,1
1376,1376,0.6710683661559226,0.7,1.0,1.0,311.0,946.0,0.0,0,1743.0,0
1377,1377,-0.7311724056814991,-0.7,1.0,0.0,404.0,598.0,0.0,0,1998.0,1
1378,1378,-0.3018923537731192,-0.3,0.0,1.0,287.0,610.0,0.0,1,2103.0,0
1379,1379,-0.7087584822186396,-0.7,0.0,1.0,257.0,695.0,1.0,0,-922.0,1
1380,1380,-0.1363512962123269,-0.1,0.0,1.0,250.0,800.0,0.0,1,1950.0,0
1381,1381,-0.19487790846487318,-0.2,1.0,0.0,444.0,646.0,0.0,0,-1050.0,1
1382,1382,-0.2982890740204457,-0.3,0.0,1.0,307.0,595.0,0.0,1,2098.0,0
1383,1383,-0.5226504999443062,-0.5,1.0,0.0,427.0,631.0,0.0,0,1942.0,1
1384,1384,0.24772681281069298,0.2,0.0,0.0,479.0,803.0,0.0,1,1718.0,1
1385,1385,0.6721132934955164,0.7,1.0,1.0,345.0,623.0,0.0,0,2032.0,0
1386,1386,0.7898574697649671,0.8,1.0,1.0,399.0,919.0,0.0,0,-1268.0,0
1387,1387,-0.70547088775017,-0.7,0.0,1.0,487.0,530.0,0.0,1,1983.0,0
1388,1388,-0.45101672653646546,-0.5,1.0,0.0,341.0,696.0,0.0,0,1963.0,1
1389,1389,-0.2958685964543737,-0.3,0.0,1.0,357.0,939.0,1.0,0,-1186.0,1
1390,1390,-0.013862157513427231,-0.0,0.0,1.0,255.0,864.0,0.0,1,1881.0,0
1391,1391,0.8320484566634109,0.8,1.0,1.0,324.0,948.0,0.0,0,1728.0,0
1392,1392,-0.6286226374796852,-0.6,1.0,0.0,482.0,895.0,0.0,0,1623.0,1
1393,1393,0.7963913449735468,0.8,0.0,0.0,341.0,521.0,0.0,1,2138.0,1
1394,1394,-0.5686189840513582,-0.6,1.0,0.0,273.0,891.0,1.0,1,-1084.0,0
1395,1395,-0.2347443504079315,-0.2,1.0,0.0,361.0,599.0,0.0,0,2040.0,1
1396,1396,0.11581518533594537,0.1,0.0,0.0,317.0,999.0,0.0,1,1684.0,1
1397,1397,0.7849586369300966,0.8,1.0,1.0,281.0,761.0,0.0,0,1958.0,0
1398,1398,-0.05035232122663702,-0.1,0.0,1.0,420.0,653.0,0.0,1,1927.0,0
1399,1399,-0.1665345759979442,-0.2,0.0,1.0,486.0,821.0,0.0,1,1693.0,0
1400,1400,-0.730742871556667,-0.7,1.0,0.0,258.0,919.0,0.0,0,1823.0,1
1401,1401,0.5142976224623758,0.5,0.0,0.0,268.0,551.0,0.0,1,2181.0,1
1402,1402,-0.20604024980498614,-0.2,1.0,0.0,273.0,731.0,0.0,0,1996.0,1
1403,1403,0.3563492266960574,0.4,1.0,1.0,383.0,859.0,0.0,0,1758.0,0
1404,1404,-0.08626933557520144,-0.1,0.0,1.0,302.0,541.0,0.0,1,2157.0,0
1405,1405,0.7274242062429533,0.7,0.0,0.0,349.0,919.0,0.0,1,1732.0,1
1406,1406,-0.6411923146331766,-0.6,0.0,1.0,375.0,634.0,0.0,1,1991.0,0
1407,1407,-0.17268445477393668,-0.2,1.0,0.0,388.0,575.0,0.0,0,2037.0,1
1408,1408,-0.042952203110230625,-0.0,1.0,0.0,441.0,658.0,0.0,0,1901.0,1
1409,1409,0.12090181964957536,0.1,0.0,0.0,456.0,646.0,0.0,1,1898.0,1
1410,1410,0.40583226980329934,0.4,1.0,1.0,302.0,926.0,0.0,0,1772.0,0
1411,1411,0.6696880185873585,0.7,0.0,0.0,478.0,711.0,0.0,1,1811.0,1
1412,1412,-0.19813019506338825,-0.2,1.0,0.0,496.0,791.0,0.0,0,1713.0,1
1413,1413,0.005334330905369722,0.0,1.0,1.0,305.0,810.0,0.0,0,1885.0,0
1414,1414,0.007770012467195442,0.0,1.0,1.0,456.0,573.0,0.0,0,1971.0,0
1415,1415,0.6929861468899955,0.7,1.0,1.0,359.0,968.0,1.0,1,-797.0,1
1416,1416,0.4335866362240669,0.4,0.0,0.0,389.0,601.0,0.0,1,2010.0,1
1417,1417,0.5051893543763687,0.5,0.0,0.0,262.0,661.0,0.0,1,2077.0,1
1418,1418,-0.1631711116992417,-0.2,1.0,0.0,256.0,946.0,0.0,0,1798.0,1
1419,1419,0.2556658904943744,0.3,1.0,1.0,379.0,791.0,0.0,0,1830.0,0
1420,1420,-0.26709598018079017,-0.3,0.0,1.0,271.0,977.0,0.0,1,1752.0,0
1421,1421,0.6048775866166739,0.6,1.0,1.0,285.0,639.0,0.0,0,2076.0,0
1422,1422,0.8821625820071696,0.9,1.0,1.0,268.0,612.0,0.0,0,2120.0,0
1423,1423,-0.8110875339433178,-0.8,0.0,1.0,391.0,661.0,1.0,0,-1032.0,1
1424,1424,-0.2679341008202333,-0.3,1.0,0.0,397.0,563.0,0.0,0,2040.0,1
1425,1425,-0.4737983889903166,-0.5,1.0,0.0,329.0,602.0,0.0,0,2069.0,1
1426,1426,0.30747703477182975,0.3,0.0,0.0,313.0,706.0,1.0,0,-939.0,0
1427,1427,0.6761107941152581,0.7,0.0,0.0,257.0,817.0,0.0,1,1926.0,1
1428,1428,-0.4322434044010992,-0.4,0.0,1.0,300.0,735.0,1.0,0,-985.0,1
1429,1429,0.05943246893129461,0.1,0.0,0.0,377.0,988.0,0.0,1,1635.0,1
1430,1430,0.627409268317883,0.6,0.0,0.0,341.0,985.0,0.0,1,1674.0,1
1431,1431,0.8895343944498298,0.9,1.0,1.0,389.0,537.0,0.0,0,2074.0,0
1432,1432,0.13839075915251853,0.1,0.0,0.0,297.0,508.0,0.0,1,2195.0,1
1433,1433,-0.2975902034958128,-0.3,1.0,0.0,284.0,699.0,0.0,0,2017.0,1
1434,1434,-0.8792590900383908,-0.9,1.0,0.0,450.0,871.0,0.0,0,1679.0,1
1435,1435,-0.5866835513855817,-0.6,0.0,1.0,457.0,538.0,0.0,1,2005.0,0
1436,1436,0.6528352710423467,0.7,1.0,1.0,418.0,677.0,1.0,1,-615.0,1
1437,1437,-0.03358862610258584,-0.0,1.0,0.0,341.0,565.0,0.0,0,2094.0,1
1438,1438,-0.16266998720433778,-0.2,1.0,0.0,408.0,711.0,0.0,0,1881.0,1
1439,1439,-0.4421030151530532,-0.4,0.0,1.0,359.0,528.0,0.0,1,2113.0,0
1440,1440,-0.42867391038067565,-0.4,1.0,0.0,259.0,710.0,0.0,0,2031.0,1
1441,1441,0.6275646404413716,0.6,0.0,0.0,457.0,708.0,0.0,1,1835.0,1
1442,1442,-0.6050584712846891,-0.6,1.0,0.0,278.0,799.0,0.0,0,1923.0,1
1443,1443,-0.27053131488426696,-0.3,1.0,0.0,441.0,878.0,0.0,0,1681.0,1
1444,1444,0.4102938220952491,0.4,1.0,1.0,301.0,761.0,1.0,1,-802.0,1
1445,1445,-0.3232438573965509,-0.3,1.0,0.0,294.0,665.0,0.0,0,2041.0,1
1446,1446,0.6358204456913342,0.6,1.0,1.0,471.0,852.0,0.0,0,1677.0,0
1447,1447,0.4365648467455471,0.4,1.0,1.0,304.0,911.0,0.0,0,1785.0,0
1448,1448,-0.40836669644363,-0.4,0.0,1.0,401.0,668.0,1.0,0,-669.0,1
1449,1449,0.1942739082534507,0.2,0.0,0.0,476.0,922.0,0.0,1,1602.0,1
1450,1450,0.15608284099470604,0.2,1.0,1.0,339.0,897.0,0.0,0,1764.0,0
1451,1451,0.5511886648245611,0.6,1.0,1.0,250.0,530.0,0.0,0,2220.0,0
1452,1452,-0.5088658935109782,-0.5,0.0,1.0,385.0,508.0,0.0,1,2107.0,0
1453,1453,-0.7846053863363014,-0.8,0.0,1.0,318.0,550.0,0.0,1,2132.0,0
1454,1454,-0.8762958398330412,-0.9,0.0,1.0,325.0,632.0,0.0,1,2043.0,0
1455,1455,-0.020305381908264142,-0.0,0.0,1.0,476.0,739.0,0.0,1,1785.0,0
1456,1456,-0.4263962424027949,-0.4,1.0,0.0,412.0,836.0,0.0,0,1752.0,1
1457,1457,-0.025626101494460096,-0.0,0.0,1.0,322.0,902.0,0.0,1,1776.0,0
1458,1458,0.3514956069958407,0.4,0.0,0.0,444.0,730.0,0.0,1,1826.0,1
1459,1459,-0.20999062484772857,-0.2,0.0,1.0,295.0,765.0,0.0,1,1940.0,0
1460,1460,0.029832117089919508,0.0,0.0,0.0,404.0,608.0,0.0,1,-922.0,1
1461,1461,0.27728123149414274,0.3,1.0,1.0,337.0,848.0,0.0,0,1815.0,0
1462,1462,0.8481270016240644,0.8,1.0,1.0,286.0,583.0,0.0,0,2131.0,0
1463,1463,0.6524569375557702,0.7,0.0,0.0,364.0,544.0,0.0,1,2092.0,1
1464,1464,-0.07198188052532595,-0.1,1.0,0.0,337.0,953.0,0.0,0,1710.0,1
1465,1465,0.799919470005345,0.8,0.0,0.0,465.0,568.0,0.0,1,1967.0,1
1466,1466,0.6206965406290964,0.6,0.0,0.0,435.0,611.0,0.0,1,1954.0,1
1467,1467,-0.7464021368902357,-0.7,0.0,1.0,413.0,912.0,0.0,1,1675.0,0
1468,1468,-0.7523490898812961,-0.8,1.0,0.0,385.0,829.0,0.0,0,1786.0,1
1469,1469,0.44816659824277594,0.4,0.0,0.0,387.0,727.0,0.0,1,1886.0,1
1470,1470,0.15367226265830458,0.2,0.0,0.0,391.0,982.0,0.0,1,1627.0,1
