,trial,coherence,coherence_bin,green_side,correct_side,target_onset,checker_onset,decision,green_decision,decision_time,correct_decision
0,0,-0.7308657655807114,-0.7,0.0,1.0,266.0,997.0,1.0,0,327.0,1
1,1,0.45918040193634224,0.5,1.0,1.0,434.0,550.0,1.0,1,476.0,1
2,2,0.8869590921809264,0.9,0.0,0.0,341.0,745.0,0.0,1,-156.0,1
3,3,0.21348741409304128,0.2,0.0,0.0,250.0,861.0,0.0,1,-291.0,1
4,4,-0.15589859534244488,-0.2,1.0,0.0,343.0,923.0,0.0,0,-476.0,1
5,5,-0.39619487442750767,-0.4,0.0,1.0,280.0,678.0,0.0,1,2.0,0
6,6,0.24735484640694805,0.2,0.0,0.0,408.0,987.0,0.0,1,465.0,1
7,7,0.12497917450787288,0.1,1.0,1.0,309.0,790.0,1.0,1,491.0,1
8,8,-0.5106273471728333,-0.5,1.0,0.0,369.0,562.0,0.0,0,779.0,1
9,9,-0.23367277824533284,-0.2,1.0,0.0,371.0,881.0,0.0,0,448.0,1
10,10,0.7980359517914065,0.8,0.0,0.0,268.0,742.0,0.0,1,40.0,1
11,11,0.5475935713845349,0.5,0.0,0.0,477.0,778.0,0.0,1,-275.0,1
12,12,0.86500572509935,0.9,1.0,1.0,454.0,794.0,1.0,1,182.0,1
13,13,-0.2822249585473231,-0.3,1.0,0.0,312.0,626.0,0.0,0,-258.0,1
14,14,0.020217797727021036,0.0,0.0,0.0,360.0,575.0,0.0,1,115.0,1
15,15,0.6048330820810831,0.6,1.0,1.0,392.0,589.0,1.0,1,949.0,1
16,16,-0.7459537008494197,-0.7,1.0,0.0,438.0,867.0,0.0,0,-135.0,1
17,17,-0.37523479258349046,-0.4,0.0,1.0,486.0,600.0,1.0,0,374.0,1
18,18,-0.3947440549356771,-0.4,0.0,1.0,444.0,756.0,1.0,0,580.0,1
19,19,-0.23811230158804975,-0.2,1.0,0.0,435.0,529.0,0.0,0,1136.0,1
20,20,-0.8096692119331518,-0.8,0.0,1.0,267.0,657.0,1.0,0,246.0,1
21,21,-0.36673715872917634,-0.4,0.0,1.0,497.0,850.0,1.0,0,953.0,1
22,22,0.26938750440998394,0.3,0.0,0.0,276.0,675.0,0.0,1,-261.0,1
23,23,-0.7126960069849297,-0.7,1.0,0.0,415.0,988.0,0.0,0,267.0,1
24,24,0.2518029419421307,0.3,1.0,1.0,441.0,592.0,1.0,1,647.0,1
25,25,-0.5387992852682075,-0.5,1.0,0.0,423.0,620.0,0.0,0,267.0,1
26,26,-0.7734567945645233,-0.8,1.0,0.0,258.0,593.0,0.0,0,-211.0,1
27,27,0.0009217034274521252,0.0,0.0,0.0,290.0,902.0,0.0,1,-32.0,1
28,28,-0.8344251087943029,-0.8,0.0,1.0,381.0,787.0,1.0,0,332.0,1
29,29,0.36884291438977257,0.4,0.0,0.0,494.0,572.0,0.0,1,404.0,1
30,30,-0.8204280215103418,-0.8,0.0,1.0,441.0,763.0,1.0,0,276.0,1
31,31,0.27967483566024753,0.3,0.0,0.0,332.0,981.0,0.0,1,87.0,1
32,32,-0.3857494198895949,-0.4,0.0,1.0,251.0,650.0,0.0,1,-371.0,0
33,33,-0.27872983896225134,-0.3,0.0,1.0,473.0,915.0,1.0,0,862.0,1
34,34,-0.8107951441916172,-0.8,1.0,0.0,445.0,686.0,0.0,0,9.0,1
35,35,0.3110105584944659,0.3,0.0,0.0,404.0,863.0,0.0,1,213.0,1
36,36,0.7128351299957666,0.7,0.0,0.0,417.0,888.0,0.0,1,-225.0,1
37,37,-0.1107560189105461,-0.1,1.0,0.0,489.0,913.0,1.0,1,1598.0,0
38,38,0.44645425505957725,0.4,0.0,0.0,499.0,859.0,0.0,1,312.0,1
39,39,0.040835022649825525,0.0,0.0,0.0,432.0,993.0,0.0,1,-45.0,1
40,40,-0.8219643559584195,-0.8,0.0,1.0,271.0,652.0,1.0,0,427.0,1
41,41,-0.45878080873653354,-0.5,1.0,0.0,307.0,644.0,0.0,0,139.0,1
42,42,0.04343495413035725,0.0,0.0,0.0,329.0,514.0,0.0,1,1497.0,1
43,43,-0.3303925411144286,-0.3,0.0,1.0,301.0,640.0,1.0,0,1259.0,1
44,44,0.02917694531500592,0.0,0.0,0.0,493.0,785.0,0.0,1,952.0,1
45,45,0.51185389056268,0.5,0.0,0.0,461.0,912.0,0.0,1,147.0,1
46,46,0.030320143057147142,0.0,1.0,1.0,334.0,895.0,1.0,1,1771.0,1
47,47,-0.7318418568658189,-0.7,0.0,1.0,352.0,885.0,0.0,1,-367.0,0
48,48,-0.8709327589298123,-0.9,1.0,0.0,287.0,745.0,0.0,0,308.0,1
49,49,-0.2629923898998373,-0.3,1.0,0.0,324.0,782.0,0.0,0,454.0,1
50,50,0.4612647167061109,0.5,1.0,1.0,435.0,931.0,1.0,1,94.0,1
51,51,0.6690239923195452,0.7,1.0,1.0,348.0,751.0,1.0,1,211.0,1
52,52,-0.40621204834562163,-0.4,0.0,1.0,273.0,791.0,1.0,0,736.0,1
53,53,0.5075953813888346,0.5,0.0,0.0,364.0,728.0,0.0,1,8.0,1
54,54,-0.39376526547047286,-0.4,0.0,1.0,259.0,715.0,0.0,1,-64.0,0
55,55,0.1675821618151977,0.2,0.0,0.0,252.0,968.0,0.0,1,460.0,1
56,56,-0.2869575355724542,-0.3,0.0,1.0,251.0,692.0,0.0,1,27.0,0
57,57,0.2811136988778985,0.3,0.0,0.0,305.0,815.0,0.0,1,240.0,1
58,58,0.1264424107086074,0.1,0.0,0.0,263.0,717.0,0.0,1,420.0,1
59,59,0.20293140109070318,0.2,1.0,1.0,423.0,920.0,1.0,1,807.0,1
60,60,-0.3594389910284106,-0.4,0.0,1.0,258.0,938.0,1.0,0,574.0,1
61,61,-0.7400719139724939,-0.7,1.0,0.0,339.0,951.0,0.0,0,150.0,1
62,62,0.034640415782708156,0.0,0.0,0.0,392.0,712.0,0.0,1,-44.0,1
63,63,-0.8082444949096779,-0.8,1.0,0.0,349.0,879.0,0.0,0,242.0,1
64,64,-0.8881891686829494,-0.9,1.0,0.0,470.0,535.0,0.0,0,235.0,1
65,65,-0.02188722377722463,-0.0,0.0,1.0,342.0,796.0,0.0,1,-278.0,0
66,66,0.811309638114662,0.8,1.0,1.0,361.0,823.0,1.0,1,196.0,1
67,67,0.23019440032005967,0.2,0.0,0.0,420.0,807.0,0.0,1,-247.0,1
68,68,0.5820191203720094,0.6,0.0,0.0,297.0,610.0,0.0,1,523.0,1
69,69,-0.17115637354440838,-0.2,0.0,1.0,299.0,657.0,1.0,0,554.0,1
70,70,0.16920856956369834,0.2,1.0,1.0,338.0,756.0,1.0,1,846.0,1
71,71,0.5440837557403467,0.5,0.0,0.0,384.0,635.0,0.0,1,451.0,1
72,72,-0.09680996821712462,-0.1,0.0,1.0,388.0,910.0,0.0,1,1002.0,0
73,73,0.4394473808922391,0.4,1.0,1.0,251.0,737.0,1.0,1,272.0,1
74,74,0.025041458513722414,0.0,1.0,1.0,403.0,585.0,1.0,1,2012.0,1
75,75,0.5630982304846385,0.6,0.0,0.0,413.0,762.0,0.0,1,225.0,1
76,76,-0.8645885628388582,-0.9,1.0,0.0,321.0,596.0,0.0,0,273.0,1
77,77,-0.04592792599057416,-0.0,1.0,0.0,455.0,566.0,0.0,0,1979.0,1
78,78,-0.3616145474086411,-0.4,1.0,0.0,297.0,543.0,0.0,0,580.0,1
79,79,0.41491733660433583,0.4,0.0,0.0,312.0,668.0,0.0,1,110.0,1
80,80,-0.5559009186053255,-0.6,1.0,0.0,331.0,869.0,0.0,0,160.0,1
81,81,-0.18559766622256235,-0.2,1.0,0.0,409.0,693.0,0.0,0,908.0,1
82,82,-0.5063041052673845,-0.5,0.0,1.0,361.0,587.0,1.0,0,282.0,1
83,83,-0.4884284036312434,-0.5,1.0,0.0,284.0,886.0,0.0,0,770.0,1
84,84,-0.506980241019989,-0.5,0.0,1.0,398.0,700.0,1.0,0,412.0,1
85,85,0.5855512689016585,0.6,1.0,1.0,313.0,939.0,1.0,1,268.0,1
86,86,-0.5946870269203763,-0.6,0.0,1.0,492.0,930.0,1.0,0,458.0,1
87,87,0.3207795619460493,0.3,1.0,1.0,258.0,905.0,1.0,1,207.0,1
88,88,0.7703697949288587,0.8,1.0,1.0,480.0,622.0,1.0,1,278.0,1
89,89,0.12668322103536422,0.1,1.0,1.0,367.0,527.0,1.0,1,2106.0,1
90,90,-0.674719385878577,-0.7,1.0,0.0,354.0,896.0,0.0,0,210.0,1
91,91,-0.8196986115833463,-0.8,1.0,0.0,378.0,540.0,0.0,0,42.0,1
92,92,-0.4944446685967276,-0.5,1.0,0.0,312.0,592.0,0.0,0,466.0,1
93,93,0.5254085816234938,0.5,1.0,1.0,280.0,757.0,1.0,1,413.0,1
94,94,-0.7736656092763265,-0.8,0.0,1.0,336.0,659.0,1.0,0,375.0,1
95,95,0.5792471504734932,0.6,1.0,1.0,378.0,685.0,1.0,1,297.0,1
96,96,-0.19217304336149021,-0.2,0.0,1.0,449.0,848.0,0.0,1,1073.0,0
97,97,-0.3337101267986353,-0.3,1.0,0.0,311.0,675.0,0.0,0,544.0,1
98,98,0.539623508359815,0.5,0.0,0.0,364.0,983.0,0.0,1,-227.0,1
99,99,-0.8171557952473019,-0.8,1.0,0.0,480.0,970.0,0.0,0,-180.0,1
100,100,0.23816977307518183,0.2,0.0,0.0,418.0,973.0,0.0,1,389.0,1
101,101,-0.881625820783876,-0.9,1.0,0.0,259.0,785.0,0.0,0,296.0,1
102,102,0.6518875840457047,0.7,1.0,1.0,267.0,775.0,1.0,1,208.0,1
103,103,0.22845178864159432,0.2,0.0,0.0,268.0,924.0,0.0,1,458.0,1
104,104,-0.4094935349143057,-0.4,1.0,0.0,360.0,923.0,0.0,0,527.0,1
105,105,0.3332451654978964,0.3,1.0,1.0,376.0,515.0,1.0,1,339.0,1
106,106,0.11637774986980254,0.1,1.0,1.0,475.0,725.0,1.0,1,1800.0,1
107,107,0.607765969871977,0.6,0.0,0.0,464.0,678.0,0.0,1,-302.0,1
108,108,-0.13032624860613995,-0.1,0.0,1.0,459.0,852.0,0.0,1,-461.0,0
109,109,0.2231711085603526,0.2,1.0,1.0,308.0,797.0,1.0,1,775.0,1
110,110,0.4219859063531658,0.4,1.0,1.0,406.0,716.0,1.0,1,208.0,1
111,111,0.4684139395347363,0.5,1.0,1.0,390.0,966.0,1.0,1,434.0,1
112,112,-0.13076562029351768,-0.1,1.0,0.0,320.0,740.0,1.0,1,-120.0,0
113,113,-0.02447613094632428,-0.0,1.0,0.0,474.0,628.0,1.0,1,1898.0,0
114,114,0.11680219525486024,0.1,1.0,1.0,333.0,776.0,1.0,1,1661.0,1
115,115,-0.4972304758265754,-0.5,0.0,1.0,378.0,870.0,1.0,0,242.0,1
116,116,-0.7364187186918949,-0.7,1.0,0.0,452.0,843.0,0.0,0,485.0,1
117,117,0.27226729044754283,0.3,1.0,1.0,464.0,955.0,1.0,1,471.0,1
118,118,0.4109167274669093,0.4,1.0,1.0,444.0,830.0,1.0,1,386.0,1
119,119,0.8648675250084542,0.9,1.0,1.0,251.0,735.0,1.0,1,134.0,1
120,120,-0.2080269228630891,-0.2,1.0,0.0,394.0,998.0,0.0,0,1228.0,1
121,121,-0.5188762541910552,-0.5,0.0,1.0,478.0,714.0,1.0,0,388.0,1
122,122,0.3737468090555246,0.4,0.0,0.0,497.0,625.0,0.0,1,308.0,1
123,123,0.517442737242764,0.5,1.0,1.0,319.0,808.0,1.0,1,343.0,1
124,124,0.5012119438459758,0.5,1.0,1.0,351.0,518.0,0.0,0,-109.0,0
125,125,-0.25702067845704224,-0.3,1.0,0.0,312.0,684.0,0.0,0,-176.0,1
126,126,0.6097869352867714,0.6,1.0,1.0,291.0,976.0,1.0,1,223.0,1
127,127,0.7787245647193205,0.8,0.0,0.0,293.0,820.0,0.0,1,-103.0,1
128,128,0.28558710072399374,0.3,1.0,1.0,290.0,992.0,1.0,1,198.0,1
129,129,-0.5206107702805177,-0.5,1.0,0.0,409.0,598.0,0.0,0,383.0,1
130,130,-0.7825957446534008,-0.8,0.0,1.0,494.0,861.0,1.0,0,235.0,1
131,131,-0.6184165233443728,-0.6,0.0,1.0,498.0,796.0,1.0,0,306.0,1
132,132,-0.03267282179744191,-0.0,0.0,1.0,398.0,750.0,1.0,0,1852.0,1
133,133,-0.4866363284038379,-0.5,0.0,1.0,300.0,606.0,1.0,0,724.0,1
134,134,0.7982619602503725,0.8,1.0,1.0,443.0,616.0,1.0,1,201.0,1
135,135,0.49629782948785806,0.5,0.0,0.0,268.0,756.0,0.0,1,186.0,1
136,136,-0.49809748302512324,-0.5,1.0,0.0,495.0,717.0,0.0,0,68.0,1
137,137,0.2750601326615937,0.3,1.0,1.0,298.0,715.0,0.0,0,-113.0,0
138,138,0.8352302163582975,0.8,1.0,1.0,403.0,679.0,1.0,1,278.0,1
139,139,-0.6119930636986388,-0.6,0.0,1.0,354.0,763.0,1.0,0,353.0,1
140,140,0.7437498596837059,0.7,1.0,1.0,466.0,626.0,1.0,1,-182.0,1
141,141,0.7421092950475053,0.7,1.0,1.0,356.0,644.0,1.0,1,100.0,1
142,142,0.6004047771552669,0.6,1.0,1.0,270.0,584.0,1.0,1,676.0,1
143,143,-0.05300834810756894,-0.1,1.0,0.0,342.0,662.0,0.0,0,1996.0,1
144,144,0.8309404239051091,0.8,1.0,1.0,432.0,949.0,1.0,1,179.0,1
145,145,0.44778684864147833,0.4,0.0,0.0,418.0,752.0,0.0,1,-250.0,1
146,146,0.8464216135995509,0.8,0.0,0.0,469.0,767.0,0.0,1,234.0,1
147,147,0.8334504224516525,0.8,0.0,0.0,460.0,758.0,0.0,1,182.0,1
148,148,-0.07455606041288187,-0.1,1.0,0.0,255.0,549.0,0.0,0,-54.0,1
149,149,-0.41341612763998414,-0.4,1.0,0.0,317.0,907.0,0.0,0,726.0,1
150,150,-0.8869809225274555,-0.9,0.0,1.0,271.0,638.0,0.0,1,-99.0,0
151,151,0.2712323077822204,0.3,1.0,1.0,340.0,505.0,1.0,1,765.0,1
152,152,0.1677899422959891,0.2,1.0,1.0,294.0,892.0,1.0,1,124.0,1
153,153,-0.03781701656653369,-0.0,0.0,1.0,446.0,739.0,0.0,1,1365.0,0
154,154,0.056402634823525144,0.1,1.0,1.0,343.0,990.0,1.0,1,1507.0,1
155,155,0.341942966530978,0.3,1.0,1.0,267.0,957.0,1.0,1,566.0,1
156,156,-0.5931338652199574,-0.6,1.0,0.0,353.0,987.0,0.0,0,230.0,1
157,157,-0.6867975207918534,-0.7,0.0,1.0,460.0,978.0,0.0,1,42.0,0
158,158,-0.7534560004874923,-0.8,1.0,0.0,410.0,771.0,0.0,0,249.0,1
159,159,-0.8706636336875095,-0.9,1.0,0.0,260.0,945.0,0.0,0,-85.0,1
160,160,0.5182891253442549,0.5,1.0,1.0,340.0,555.0,1.0,1,585.0,1
161,161,-0.7900026640569743,-0.8,1.0,0.0,251.0,672.0,0.0,0,-143.0,1
162,162,0.2701448584052467,0.3,1.0,1.0,488.0,608.0,1.0,1,864.0,1
163,163,-0.011969894851946772,-0.0,0.0,1.0,415.0,608.0,0.0,1,207.0,0
164,164,0.6185454714472279,0.6,0.0,0.0,296.0,687.0,0.0,1,137.0,1
165,165,-0.3619709918707076,-0.4,1.0,0.0,278.0,650.0,0.0,0,402.0,1
166,166,-0.7876840905899638,-0.8,1.0,0.0,262.0,776.0,0.0,0,182.0,1
167,167,-0.0992793850104664,-0.1,0.0,1.0,254.0,960.0,0.0,1,-494.0,0
168,168,-0.44456480452028657,-0.4,0.0,1.0,325.0,981.0,1.0,0,814.0,1
169,169,0.2223721840502607,0.2,0.0,0.0,266.0,768.0,0.0,1,-334.0,1
170,170,0.8396595832397197,0.8,1.0,1.0,281.0,620.0,1.0,1,219.0,1
171,171,-0.010097643711009519,-0.0,0.0,1.0,288.0,986.0,0.0,1,-504.0,0
172,172,0.3928072764975562,0.4,1.0,1.0,373.0,619.0,1.0,1,338.0,1
173,173,0.27724924080155533,0.3,0.0,0.0,330.0,665.0,0.0,1,-115.0,1
174,174,0.6091700246138697,0.6,0.0,0.0,364.0,891.0,0.0,1,-305.0,1
175,175,-0.7848410226599357,-0.8,1.0,0.0,319.0,774.0,1.0,1,-343.0,0
176,176,-0.2553708204838234,-0.3,1.0,0.0,301.0,841.0,0.0,0,338.0,1
177,177,0.47134428171593756,0.5,0.0,0.0,414.0,831.0,0.0,1,115.0,1
178,178,-0.8000068061353497,-0.8,0.0,1.0,466.0,751.0,1.0,0,173.0,1
179,179,-0.7889304164299376,-0.8,1.0,0.0,452.0,767.0,0.0,0,-99.0,1
180,180,-0.6131654124281607,-0.6,1.0,0.0,336.0,770.0,0.0,0,394.0,1
181,181,0.10020019818020398,0.1,1.0,1.0,384.0,805.0,1.0,1,1571.0,1
182,182,-0.4420122356631652,-0.4,1.0,0.0,488.0,608.0,0.0,0,334.0,1
183,183,-0.3704966615151212,-0.4,0.0,1.0,265.0,647.0,0.0,1,-232.0,0
184,184,-0.059194018109600566,-0.1,0.0,1.0,356.0,954.0,0.0,1,-90.0,0
185,185,0.7059820011738639,0.7,1.0,1.0,373.0,664.0,1.0,1,153.0,1
186,186,0.7972649564256936,0.8,1.0,1.0,367.0,582.0,1.0,1,171.0,1
187,187,0.3050358365922615,0.3,1.0,1.0,318.0,900.0,1.0,1,932.0,1
188,188,0.3100411591250304,0.3,1.0,1.0,476.0,920.0,1.0,1,704.0,1
189,189,0.27923170453618595,0.3,1.0,1.0,266.0,576.0,1.0,1,568.0,1
190,190,0.368783372642253,0.4,0.0,0.0,253.0,620.0,0.0,1,697.0,1
191,191,0.764100794323121,0.8,0.0,0.0,321.0,721.0,0.0,1,148.0,1
192,192,-0.2788489394246375,-0.3,1.0,0.0,472.0,972.0,0.0,0,456.0,1
193,193,-0.23423022876579147,-0.2,0.0,1.0,306.0,761.0,0.0,1,263.0,0
194,194,0.28472014113512,0.3,1.0,1.0,469.0,878.0,0.0,0,-797.0,0
195,195,0.12826810194120986,0.1,0.0,0.0,431.0,751.0,0.0,1,-442.0,1
196,196,0.3777798985595361,0.4,0.0,0.0,464.0,556.0,0.0,1,90.0,1
197,197,0.6740120273034859,0.7,0.0,0.0,324.0,613.0,0.0,1,-377.0,1
198,198,-0.8531727153655599,-0.9,0.0,1.0,437.0,661.0,1.0,0,522.0,1
199,199,-0.12860946899230818,-0.1,1.0,0.0,469.0,836.0,0.0,0,315.0,1
200,200,0.6381917012064761,0.6,0.0,0.0,315.0,863.0,0.0,1,212.0,1
201,201,0.7790407421338384,0.8,0.0,0.0,325.0,574.0,0.0,1,-269.0,1
202,202,0.7183393506302925,0.7,1.0,1.0,428.0,700.0,1.0,1,172.0,1
203,203,0.2407716478150822,0.2,0.0,0.0,453.0,922.0,0.0,1,-335.0,1
204,204,-0.6335212306093551,-0.6,0.0,1.0,463.0,805.0,1.0,0,152.0,1
205,205,-0.006478202044354675,-0.0,0.0,1.0,338.0,779.0,0.0,1,73.0,0
206,206,-0.548775318753506,-0.5,0.0,1.0,436.0,948.0,1.0,0,556.0,1
207,207,0.5790108783039526,0.6,1.0,1.0,372.0,858.0,1.0,1,340.0,1
208,208,0.12000253629976598,0.1,1.0,1.0,270.0,685.0,1.0,1,1645.0,1
209,209,0.2506330117761556,0.3,0.0,0.0,486.0,792.0,0.0,1,562.0,1
210,210,0.17612139147310424,0.2,0.0,0.0,265.0,926.0,0.0,1,189.0,1
211,211,-0.5845130331286399,-0.6,0.0,1.0,382.0,871.0,1.0,0,367.0,1
212,212,0.5574894966576992,0.6,1.0,1.0,358.0,578.0,1.0,1,554.0,1
213,213,0.2060392508783958,0.2,0.0,0.0,443.0,593.0,0.0,1,394.0,1
214,214,-0.0831812158812153,-0.1,0.0,1.0,315.0,616.0,0.0,1,-231.0,0
215,215,0.7593792985603854,0.8,1.0,1.0,288.0,826.0,1.0,1,126.0,1
216,216,-0.12891956618790923,-0.1,0.0,1.0,323.0,960.0,0.0,1,-413.0,0
217,217,0.8344693785885876,0.8,1.0,1.0,476.0,646.0,1.0,1,238.0,1
218,218,0.06005009696474117,0.1,1.0,1.0,360.0,648.0,1.0,1,1992.0,1
219,219,0.43130544658486103,0.4,1.0,1.0,428.0,986.0,1.0,1,156.0,1
220,220,-0.6769025985103194,-0.7,1.0,0.0,472.0,999.0,0.0,0,279.0,1
221,221,0.8643144379206679,0.9,0.0,0.0,440.0,556.0,0.0,1,174.0,1
222,222,-0.8268082159150534,-0.8,1.0,0.0,442.0,865.0,0.0,0,163.0,1
223,223,0.49688861192815736,0.5,1.0,1.0,281.0,624.0,0.0,0,-185.0,0
224,224,0.12112056917415204,0.1,1.0,1.0,266.0,943.0,1.0,1,1371.0,1
225,225,0.4470701497264863,0.4,0.0,0.0,451.0,503.0,0.0,1,206.0,1
226,226,0.365592900475023,0.4,0.0,0.0,490.0,578.0,0.0,1,112.0,1
227,227,-0.5316219972050928,-0.5,1.0,0.0,358.0,621.0,0.0,0,761.0,1
228,228,0.6372301603074387,0.6,0.0,0.0,466.0,867.0,0.0,1,837.0,1
229,229,-0.24744377026088626,-0.2,1.0,0.0,445.0,821.0,0.0,0,814.0,1
230,230,0.8301170212842112,0.8,0.0,0.0,404.0,528.0,0.0,1,-2.0,1
231,231,0.2689896013885945,0.3,1.0,1.0,364.0,998.0,1.0,1,508.0,1
232,232,0.28496594918675944,0.3,0.0,0.0,257.0,824.0,0.0,1,19.0,1
233,233,-0.4574318792628087,-0.5,0.0,1.0,381.0,757.0,1.0,0,392.0,1
234,234,0.8544100612304136,0.9,1.0,1.0,285.0,826.0,1.0,1,139.0,1
235,235,0.8435908161337561,0.8,1.0,1.0,366.0,659.0,1.0,1,105.0,1
236,236,-0.7494315739904128,-0.7,1.0,0.0,359.0,640.0,0.0,0,301.0,1
237,237,-0.18893971821310274,-0.2,1.0,0.0,341.0,527.0,0.0,0,1082.0,1
238,238,-0.3779992282406217,-0.4,0.0,1.0,329.0,878.0,1.0,0,1623.0,1
239,239,0.5901146047353697,0.6,1.0,1.0,420.0,526.0,1.0,1,164.0,1
240,240,-0.8962426307392286,-0.9,1.0,0.0,349.0,998.0,0.0,0,233.0,1
241,241,0.6161842512632757,0.6,0.0,0.0,365.0,842.0,0.0,1,-47.0,1
242,242,0.6423144224770899,0.6,0.0,0.0,481.0,824.0,0.0,1,295.0,1
243,243,0.30951548861493594,0.3,0.0,0.0,447.0,966.0,0.0,1,97.0,1
244,244,-0.23565822339262132,-0.2,1.0,0.0,273.0,690.0,0.0,0,1867.0,1
245,245,0.7237674451013788,0.7,1.0,1.0,364.0,776.0,1.0,1,180.0,1
246,246,0.8431238693823179,0.8,1.0,1.0,393.0,692.0,1.0,1,195.0,1
247,247,-0.8230330592629601,-0.8,1.0,0.0,272.0,858.0,0.0,0,310.0,1
248,248,-0.515705414748816,-0.5,0.0,1.0,377.0,648.0,0.0,1,-5.0,0
249,249,0.5770563151620368,0.6,1.0,1.0,467.0,581.0,1.0,1,312.0,1
250,250,-0.6409568935377394,-0.6,1.0,0.0,309.0,830.0,0.0,0,221.0,1
251,251,-0.6840281290879731,-0.7,1.0,0.0,458.0,772.0,0.0,0,230.0,1
252,252,0.2709198259741826,0.3,1.0,1.0,479.0,898.0,1.0,1,843.0,1
253,253,0.022084390311073898,0.0,1.0,1.0,306.0,840.0,1.0,1,1854.0,1
254,254,-0.898629374584559,-0.9,1.0,0.0,449.0,880.0,0.0,0,261.0,1
255,255,0.5587497401928564,0.6,0.0,0.0,470.0,652.0,0.0,1,478.0,1
256,256,0.8979311733726817,0.9,1.0,1.0,313.0,831.0,1.0,1,106.0,1
257,257,0.12024495957627257,0.1,1.0,1.0,477.0,528.0,1.0,1,1695.0,1
258,258,-0.7599592833792577,-0.8,0.0,1.0,464.0,784.0,1.0,0,42.0,1
259,259,0.4602502931292277,0.5,0.0,0.0,432.0,625.0,0.0,1,123.0,1
260,260,-0.3255264163080246,-0.3,0.0,1.0,496.0,574.0,1.0,0,730.0,1
261,261,-0.5508307329603783,-0.6,0.0,1.0,275.0,856.0,1.0,0,109.0,1
262,262,0.8602990525029311,0.9,0.0,0.0,258.0,569.0,0.0,1,-67.0,1
263,263,-0.1465733901544567,-0.1,1.0,0.0,385.0,542.0,0.0,0,1053.0,1
264,264,-0.2314428414859987,-0.2,0.0,1.0,371.0,829.0,1.0,0,420.0,1
265,265,-0.31882630653660227,-0.3,1.0,0.0,311.0,812.0,0.0,0,687.0,1
266,266,0.2832072782176033,0.3,1.0,1.0,353.0,703.0,1.0,1,1074.0,1
267,267,-0.6662709148385193,-0.7,1.0,0.0,477.0,541.0,0.0,0,242.0,1
268,268,0.7988116500695944,0.8,0.0,0.0,360.0,771.0,0.0,1,-51.0,1
269,269,-0.24556818852067275,-0.2,1.0,0.0,317.0,976.0,0.0,0,907.0,1
270,270,-0.310037817704821,-0.3,1.0,0.0,321.0,784.0,0.0,0,475.0,1
271,271,0.5504570047042473,0.6,1.0,1.0,415.0,849.0,1.0,1,316.0,1
272,272,-0.863028388249531,-0.9,1.0,0.0,268.0,511.0,0.0,0,101.0,1
273,273,-0.3374664552451062,-0.3,0.0,1.0,329.0,528.0,0.0,1,-27.0,0
274,274,-0.8520969961276735,-0.9,1.0,0.0,473.0,618.0,0.0,0,339.0,1
275,275,0.3574487898226216,0.4,0.0,0.0,419.0,915.0,0.0,1,156.0,1
276,276,0.16825996209310146,0.2,0.0,0.0,337.0,518.0,0.0,1,785.0,1
277,277,-0.12051758953772862,-0.1,1.0,0.0,387.0,803.0,0.0,0,830.0,1
278,278,-0.46062935414982875,-0.5,0.0,1.0,391.0,567.0,1.0,0,582.0,1
279,279,0.5938845464075534,0.6,1.0,1.0,452.0,776.0,1.0,1,212.0,1
280,280,-0.8160494230614571,-0.8,0.0,1.0,495.0,632.0,1.0,0,113.0,1
281,281,-0.6210468153471417,-0.6,1.0,0.0,318.0,946.0,0.0,0,166.0,1
282,282,-0.3328703751976392,-0.3,1.0,0.0,290.0,525.0,0.0,0,735.0,1
283,283,0.4994407867977134,0.5,1.0,1.0,383.0,679.0,1.0,1,288.0,1
284,284,0.0882955770367857,0.1,1.0,1.0,463.0,851.0,1.0,1,1686.0,1
285,285,0.6347673505481249,0.6,1.0,1.0,481.0,912.0,1.0,1,497.0,1
286,286,0.8382251259164449,0.8,0.0,0.0,424.0,886.0,0.0,1,150.0,1
287,287,0.6371222474281114,0.6,1.0,1.0,310.0,901.0,1.0,1,159.0,1
288,288,0.8296465604348139,0.8,0.0,0.0,391.0,924.0,0.0,1,-375.0,1
289,289,0.16134857668601732,0.2,0.0,0.0,428.0,964.0,0.0,1,598.0,1
290,290,0.7000282164144492,0.7,0.0,0.0,476.0,985.0,0.0,1,-41.0,1
291,291,-0.6513588227099901,-0.7,0.0,1.0,263.0,871.0,0.0,1,16.0,0
292,292,-0.09608646013468036,-0.1,0.0,1.0,476.0,733.0,0.0,1,371.0,0
293,293,-0.31164349330646257,-0.3,0.0,1.0,360.0,669.0,1.0,0,-19.0,1
294,294,0.5648791113210735,0.6,1.0,1.0,352.0,972.0,1.0,1,216.0,1
295,295,0.34819839569069233,0.3,1.0,1.0,339.0,738.0,1.0,1,483.0,1
296,296,0.8738479380111298,0.9,1.0,1.0,255.0,589.0,1.0,1,206.0,1
297,297,-0.030105479898893228,-0.0,1.0,0.0,374.0,592.0,1.0,1,2034.0,0
298,298,-0.6042926028189656,-0.6,0.0,1.0,282.0,888.0,1.0,0,180.0,1
299,299,-0.6569370866501353,-0.7,0.0,1.0,376.0,768.0,0.0,1,-484.0,0
300,300,-0.2191883714127325,-0.2,0.0,1.0,421.0,757.0,0.0,1,-338.0,0
301,301,0.5403244698298283,0.5,0.0,0.0,263.0,960.0,0.0,1,-373.0,1
302,302,0.02995908129141367,0.0,1.0,1.0,308.0,727.0,1.0,1,1255.0,1
303,303,-0.1412902156816387,-0.1,0.0,1.0,488.0,670.0,1.0,0,1022.0,1
304,304,0.6618986617808277,0.7,1.0,1.0,349.0,678.0,1.0,1,83.0,1
305,305,0.8204928646153765,0.8,1.0,1.0,467.0,573.0,1.0,1,160.0,1
306,306,0.19320750070050574,0.2,1.0,1.0,259.0,835.0,1.0,1,1066.0,1
307,307,0.7984043821909731,0.8,0.0,0.0,355.0,884.0,0.0,1,91.0,1
308,308,-0.6874174075308264,-0.7,1.0,0.0,479.0,766.0,0.0,0,215.0,1
309,309,0.24437845635558986,0.2,1.0,1.0,451.0,886.0,1.0,1,663.0,1
310,310,0.7947141282066242,0.8,0.0,0.0,323.0,726.0,0.0,1,401.0,1
311,311,0.7492240875184734,0.7,0.0,0.0,456.0,731.0,0.0,1,153.0,1
312,312,0.22073822106618335,0.2,0.0,0.0,426.0,709.0,0.0,1,455.0,1
313,313,-0.6576449110503934,-0.7,0.0,1.0,481.0,714.0,1.0,0,195.0,1
314,314,0.39922838972973806,0.4,0.0,0.0,443.0,928.0,0.0,1,29.0,1
315,315,0.6525026629421041,0.7,0.0,0.0,271.0,935.0,0.0,1,-516.0,1
316,316,0.09844774638382381,0.1,0.0,0.0,490.0,626.0,0.0,1,1014.0,1
317,317,-0.2420234212452963,-0.2,0.0,1.0,310.0,662.0,1.0,0,378.0,1
318,318,0.7862656706783894,0.8,1.0,1.0,294.0,525.0,1.0,1,261.0,1
319,319,0.6235047213051051,0.6,1.0,1.0,301.0,713.0,1.0,1,216.0,1
320,320,0.10281371842991838,0.1,1.0,1.0,317.0,805.0,1.0,1,488.0,1
321,321,-0.010987866671179014,-0.0,0.0,1.0,301.0,789.0,0.0,1,-420.0,0
322,322,-0.37822637019231964,-0.4,0.0,1.0,468.0,651.0,1.0,0,631.0,1
323,323,-0.1597240423648043,-0.2,1.0,0.0,457.0,657.0,0.0,0,256.0,1
324,324,-0.7044898829548466,-0.7,0.0,1.0,364.0,666.0,1.0,0,290.0,1
325,325,-0.29801075743049676,-0.3,0.0,1.0,456.0,964.0,0.0,1,-80.0,0
326,326,-0.7825422979859988,-0.8,1.0,0.0,311.0,804.0,0.0,0,185.0,1
327,327,0.4288685736983161,0.4,0.0,0.0,298.0,919.0,0.0,1,83.0,1
328,328,-0.7715486437215366,-0.8,1.0,0.0,361.0,831.0,0.0,0,68.0,1
329,329,-0.7940044635453551,-0.8,1.0,0.0,277.0,502.0,0.0,0,121.0,1
330,330,-0.8609629180392261,-0.9,0.0,1.0,427.0,724.0,0.0,1,-511.0,0
331,331,0.7720023550962686,0.8,0.0,0.0,265.0,712.0,0.0,1,43.0,1
332,332,-0.3285892682737752,-0.3,1.0,0.0,262.0,831.0,0.0,0,277.0,1
333,333,0.5111845774223144,0.5,0.0,0.0,367.0,815.0,0.0,1,518.0,1
334,334,0.41448722909039193,0.4,1.0,1.0,464.0,760.0,1.0,1,366.0,1
335,335,-0.41685521235070394,-0.4,1.0,0.0,291.0,995.0,0.0,0,574.0,1
336,336,-0.4540455855632558,-0.5,1.0,0.0,410.0,568.0,0.0,0,252.0,1
337,337,-0.4457085914324375,-0.4,1.0,0.0,342.0,604.0,0.0,0,424.0,1
338,338,-0.5984723468633487,-0.6,0.0,1.0,345.0,548.0,1.0,0,237.0,1
339,339,-0.09005434267085755,-0.1,0.0,1.0,468.0,650.0,0.0,1,452.0,0
340,340,0.3120757403542648,0.3,1.0,1.0,283.0,822.0,1.0,1,615.0,1
341,341,0.7978685272402871,0.8,1.0,1.0,407.0,667.0,1.0,1,126.0,1
342,342,-0.31547997594665966,-0.3,1.0,0.0,483.0,517.0,0.0,0,780.0,1
343,343,0.20282824509241848,0.2,1.0,1.0,367.0,573.0,1.0,1,710.0,1
344,344,-0.5227677729599284,-0.5,0.0,1.0,486.0,731.0,1.0,0,313.0,1
345,345,0.25347486807952946,0.3,1.0,1.0,471.0,725.0,1.0,1,404.0,1
346,346,0.5029961305326468,0.5,1.0,1.0,409.0,577.0,0.0,0,-106.0,0
347,347,0.14048639105005367,0.1,0.0,0.0,328.0,862.0,0.0,1,290.0,1
348,348,0.48371637458388184,0.5,1.0,1.0,330.0,696.0,0.0,0,-196.0,0
349,349,0.3021550836132302,0.3,1.0,1.0,357.0,520.0,1.0,1,493.0,1
350,350,-0.5900152642863022,-0.6,0.0,1.0,283.0,832.0,1.0,0,515.0,1
351,351,0.6257466800605928,0.6,1.0,1.0,397.0,615.0,1.0,1,568.0,1
352,352,0.5326487362691635,0.5,1.0,1.0,427.0,531.0,1.0,1,262.0,1
353,353,0.07543516746454937,0.1,1.0,1.0,354.0,608.0,1.0,1,1388.0,1
354,354,0.6678218217847453,0.7,1.0,1.0,274.0,889.0,1.0,1,547.0,1
355,355,-0.1538158786598598,-0.2,1.0,0.0,399.0,613.0,0.0,0,598.0,1
356,356,0.41090393969023087,0.4,0.0,0.0,312.0,515.0,0.0,1,243.0,1
357,357,0.2866695845737298,0.3,0.0,0.0,377.0,509.0,0.0,1,84.0,1
358,358,0.28975608044069034,0.3,1.0,1.0,309.0,685.0,1.0,1,776.0,1
359,359,-0.4512518547997486,-0.5,0.0,1.0,438.0,662.0,0.0,1,10.0,0
360,360,-0.6271364004304786,-0.6,0.0,1.0,391.0,754.0,0.0,1,-225.0,0
361,361,0.02903480607833886,0.0,0.0,0.0,320.0,623.0,0.0,1,247.0,1
362,362,0.14546247541097268,0.1,0.0,0.0,330.0,935.0,0.0,1,-395.0,1
363,363,0.3367913920195228,0.3,0.0,0.0,450.0,671.0,0.0,1,119.0,1
364,364,-0.6978099896865121,-0.7,0.0,1.0,286.0,705.0,1.0,0,449.0,1
365,365,-0.11531292758066336,-0.1,1.0,0.0,387.0,971.0,0.0,0,1642.0,1
366,366,0.4616075157630787,0.5,1.0,1.0,300.0,522.0,1.0,1,338.0,1
367,367,0.26519213284256604,0.3,0.0,0.0,322.0,709.0,0.0,1,-211.0,1
368,368,-0.5371309167776588,-0.5,1.0,0.0,345.0,669.0,0.0,0,426.0,1
369,369,-0.7151523016321345,-0.7,0.0,1.0,370.0,895.0,0.0,1,-15.0,0
370,370,-0.17252803514151727,-0.2,0.0,1.0,343.0,626.0,1.0,0,521.0,1
371,371,0.24448582776598415,0.2,1.0,1.0,434.0,796.0,1.0,1,710.0,1
372,372,0.8891561196075687,0.9,0.0,0.0,376.0,814.0,0.0,1,310.0,1
373,373,0.03568965458838946,0.0,0.0,0.0,490.0,996.0,0.0,1,14.0,1
374,374,-0.12530079595453736,-0.1,0.0,1.0,422.0,531.0,0.0,1,-283.0,0
375,375,-0.2532825704009689,-0.3,1.0,0.0,454.0,900.0,0.0,0,666.0,1
376,376,0.7425192908160555,0.7,0.0,0.0,331.0,814.0,0.0,1,165.0,1
377,377,-0.40247093610984724,-0.4,1.0,0.0,257.0,948.0,0.0,0,-175.0,1
378,378,-0.07254591140516442,-0.1,1.0,0.0,289.0,645.0,1.0,1,2066.0,0
379,379,-0.3183514676132606,-0.3,1.0,0.0,283.0,946.0,0.0,0,401.0,1
380,380,-0.024283986515776124,-0.0,1.0,0.0,263.0,627.0,1.0,1,2040.0,0
381,381,0.01619820322298382,0.0,0.0,0.0,445.0,888.0,0.0,1,577.0,1
382,382,-0.8207890159458121,-0.8,1.0,0.0,436.0,944.0,0.0,0,310.0,1
383,383,-0.8276572995075501,-0.8,1.0,0.0,374.0,888.0,0.0,0,188.0,1
384,384,0.1925968286250882,0.2,1.0,1.0,282.0,702.0,1.0,1,976.0,1
385,385,-0.4624436174265495,-0.5,1.0,0.0,383.0,877.0,0.0,0,760.0,1
386,386,0.744033590451575,0.7,0.0,0.0,426.0,806.0,0.0,1,78.0,1
387,387,0.5519996817739229,0.6,0.0,0.0,266.0,739.0,0.0,1,45.0,1
388,388,-0.7719526871918833,-0.8,1.0,0.0,333.0,937.0,0.0,0,-210.0,1
389,389,0.8425677374649575,0.8,1.0,1.0,268.0,674.0,1.0,1,88.0,1
390,390,0.5560650772080081,0.6,0.0,0.0,498.0,707.0,0.0,1,265.0,1
391,391,-0.48576665997150237,-0.5,0.0,1.0,383.0,756.0,0.0,1,-59.0,0
392,392,-0.12463658371958986,-0.1,0.0,1.0,398.0,983.0,1.0,0,1289.0,1
393,393,0.765469212224477,0.8,0.0,0.0,389.0,930.0,0.0,1,121.0,1
394,394,0.35880666381316295,0.4,1.0,1.0,349.0,555.0,1.0,1,266.0,1
395,395,-0.5733647355083664,-0.6,0.0,1.0,368.0,636.0,1.0,0,716.0,1
396,396,0.749996515689965,0.7,0.0,0.0,329.0,783.0,0.0,1,-42.0,1
397,397,0.00036243564797344696,0.0,1.0,1.0,404.0,589.0,0.0,0,317.0,0
398,398,0.8602716501666922,0.9,0.0,0.0,480.0,560.0,0.0,1,170.0,1
399,399,-0.007888625298257845,-0.0,1.0,0.0,348.0,944.0,1.0,1,1708.0,0
400,400,-0.6481252799358591,-0.6,0.0,1.0,280.0,671.0,1.0,0,239.0,1
401,401,0.7763123420721697,0.8,0.0,0.0,330.0,782.0,0.0,1,-112.0,1
402,402,-0.44566017731613294,-0.4,0.0,1.0,352.0,785.0,0.0,1,-7.0,0
403,403,0.7481691362021471,0.7,1.0,1.0,422.0,719.0,1.0,1,189.0,1
404,404,-0.5660495669178583,-0.6,0.0,1.0,458.0,892.0,1.0,0,370.0,1
405,405,0.6953858646426013,0.7,0.0,0.0,301.0,978.0,0.0,1,-159.0,1
406,406,0.2835306967014576,0.3,0.0,0.0,336.0,756.0,0.0,1,-102.0,1
407,407,0.7133525911757276,0.7,0.0,0.0,253.0,762.0,0.0,1,115.0,1
408,408,-0.21452573109660877,-0.2,1.0,0.0,415.0,577.0,0.0,0,1338.0,1
409,409,-0.40601711771188725,-0.4,0.0,1.0,483.0,510.0,1.0,0,517.0,1
410,410,0.7065728182244225,0.7,1.0,1.0,281.0,973.0,1.0,1,236.0,1
411,411,0.5284240685896683,0.5,0.0,0.0,361.0,614.0,0.0,1,-15.0,1
412,412,0.04382013653046479,0.0,1.0,1.0,366.0,899.0,1.0,1,1735.0,1
413,413,0.2490928521709278,0.2,1.0,1.0,339.0,623.0,1.0,1,428.0,1
414,414,-0.08430967711312953,-0.1,0.0,1.0,279.0,924.0,1.0,0,397.0,1
415,415,0.8780065384687467,0.9,0.0,0.0,290.0,574.0,0.0,1,-214.0,1
416,416,0.39871571678672446,0.4,0.0,0.0,497.0,645.0,0.0,1,348.0,1
417,417,-0.29286284865175716,-0.3,0.0,1.0,349.0,999.0,1.0,0,532.0,1
418,418,0.4950528673475477,0.5,0.0,0.0,329.0,945.0,0.0,1,146.0,1
419,419,-0.8037255355123688,-0.8,1.0,0.0,283.0,630.0,0.0,0,187.0,1
420,420,-0.8156105332696654,-0.8,0.0,1.0,270.0,803.0,1.0,0,197.0,1
421,421,-0.4667230055842429,-0.5,1.0,0.0,400.0,724.0,0.0,0,356.0,1
422,422,0.17677185692697617,0.2,1.0,1.0,460.0,924.0,1.0,1,1616.0,1
423,423,0.6638567185256282,0.7,0.0,0.0,430.0,647.0,0.0,1,103.0,1
424,424,-0.29065525624244937,-0.3,0.0,1.0,479.0,508.0,1.0,0,223.0,1
425,425,-0.8338973936273252,-0.8,0.0,1.0,254.0,538.0,1.0,0,398.0,1
426,426,0.6311522616821313,0.6,0.0,0.0,317.0,553.0,0.0,1,230.0,1
427,427,-0.20257006241527187,-0.2,0.0,1.0,474.0,674.0,0.0,1,522.0,0
428,428,0.5951864000734298,0.6,1.0,1.0,493.0,767.0,1.0,1,160.0,1
429,429,-0.10568964376761358,-0.1,0.0,1.0,352.0,604.0,1.0,0,644.0,1
430,430,0.7510305411005437,0.8,1.0,1.0,392.0,633.0,1.0,1,215.0,1
431,431,-0.4026718476889403,-0.4,0.0,1.0,398.0,644.0,1.0,0,588.0,1
432,432,0.6612483120789531,0.7,0.0,0.0,440.0,976.0,0.0,1,-466.0,1
433,433,0.21065838670029235,0.2,0.0,0.0,474.0,960.0,0.0,1,-124.0,1
434,434,-0.3134425626370796,-0.3,0.0,1.0,385.0,842.0,1.0,0,423.0,1
435,435,-0.41693984499860715,-0.4,0.0,1.0,482.0,727.0,1.0,0,961.0,1
436,436,-0.511758335316606,-0.5,0.0,1.0,319.0,787.0,1.0,0,464.0,1
437,437,-0.5677490244343434,-0.6,0.0,1.0,487.0,617.0,0.0,1,26.0,0
438,438,-0.19992689724249713,-0.2,1.0,0.0,278.0,707.0,0.0,0,2015.0,1
439,439,0.029828711415834652,0.0,0.0,0.0,270.0,616.0,0.0,1,1254.0,1
440,440,0.04863830190976892,0.0,0.0,0.0,306.0,952.0,0.0,1,-418.0,1
441,441,0.12376948824357659,0.1,1.0,1.0,400.0,820.0,1.0,1,180.0,1
442,442,-0.5506395977837362,-0.6,1.0,0.0,321.0,604.0,0.0,0,235.0,1
443,443,0.7351185483278414,0.7,1.0,1.0,497.0,580.0,1.0,1,203.0,1
444,444,-0.8110492974822406,-0.8,1.0,0.0,434.0,904.0,0.0,0,142.0,1
445,445,0.26980502959224817,0.3,0.0,0.0,468.0,878.0,0.0,1,664.0,1
446,446,-0.16979531314156193,-0.2,0.0,1.0,301.0,951.0,0.0,1,-672.0,0
447,447,0.2986931611514555,0.3,1.0,1.0,427.0,843.0,1.0,1,210.0,1
448,448,-0.20578355702623274,-0.2,0.0,1.0,484.0,618.0,1.0,0,778.0,1
449,449,0.5434050026613507,0.5,0.0,0.0,350.0,572.0,0.0,1,318.0,1
450,450,-0.8715106719771274,-0.9,0.0,1.0,489.0,568.0,1.0,0,403.0,1
451,451,-0.8246944337451838,-0.8,1.0,0.0,279.0,568.0,0.0,0,233.0,1
452,452,0.6477732883015196,0.6,0.0,0.0,461.0,841.0,0.0,1,328.0,1
453,453,-0.35662508173920215,-0.4,0.0,1.0,269.0,607.0,1.0,0,1064.0,1
454,454,-0.7000344409361038,-0.7,0.0,1.0,381.0,952.0,0.0,1,-673.0,0
455,455,0.6956494179072518,0.7,0.0,0.0,341.0,669.0,0.0,1,-380.0,1
456,456,0.7360148458405632,0.7,1.0,1.0,449.0,692.0,1.0,1,299.0,1
457,457,-0.02405745147187721,-0.0,1.0,0.0,437.0,822.0,1.0,1,1741.0,0
458,458,-0.40114581040340747,-0.4,0.0,1.0,417.0,927.0,1.0,0,-174.0,1
459,459,-0.30227776051920285,-0.3,1.0,0.0,430.0,802.0,0.0,0,418.0,1
460,460,0.4060660825628347,0.4,0.0,0.0,440.0,519.0,0.0,1,1151.0,1
461,461,0.24518850833691952,0.2,0.0,0.0,477.0,757.0,0.0,1,196.0,1
462,462,0.37355797251902423,0.4,0.0,0.0,253.0,932.0,0.0,1,-335.0,1
463,463,-0.4756403311879272,-0.5,1.0,0.0,285.0,881.0,0.0,0,74.0,1
464,464,0.6303613592830387,0.6,0.0,0.0,348.0,943.0,0.0,1,99.0,1
465,465,-0.5743145342880234,-0.6,0.0,1.0,385.0,544.0,1.0,0,461.0,1
466,466,-0.7454808494415818,-0.7,0.0,1.0,487.0,575.0,0.0,1,-12.0,0
467,467,0.8913283514853919,0.9,0.0,0.0,262.0,811.0,0.0,1,-263.0,1
468,468,-0.5685735948926609,-0.6,0.0,1.0,424.0,979.0,0.0,1,-343.0,0
469,469,0.07395914962399208,0.1,1.0,1.0,402.0,734.0,1.0,1,1864.0,1
470,470,-0.542271415517269,-0.5,1.0,0.0,278.0,894.0,0.0,0,448.0,1
471,471,0.2128737672216342,0.2,1.0,1.0,264.0,554.0,1.0,1,222.0,1
472,472,0.8447271601985066,0.8,1.0,1.0,304.0,715.0,1.0,1,-29.0,1
473,473,0.7144045789941446,0.7,1.0,1.0,487.0,867.0,1.0,1,116.0,1
474,474,-0.46070537827225394,-0.5,0.0,1.0,476.0,532.0,1.0,0,752.0,1
475,475,-0.6043627665335887,-0.6,0.0,1.0,446.0,948.0,0.0,1,-824.0,0
476,476,0.3802888464605866,0.4,0.0,0.0,363.0,656.0,0.0,1,161.0,1
477,477,0.11051363535166969,0.1,1.0,1.0,339.0,975.0,1.0,1,1186.0,1
478,478,-0.8499748615931203,-0.8,1.0,0.0,343.0,860.0,0.0,0,-93.0,1
479,479,-0.2875543562172552,-0.3,0.0,1.0,422.0,856.0,1.0,0,862.0,1
480,480,-0.8295162476043733,-0.8,0.0,1.0,294.0,529.0,1.0,0,607.0,1
481,481,0.6292715555477734,0.6,0.0,0.0,327.0,631.0,0.0,1,-348.0,1
482,482,-0.5460936141164119,-0.5,1.0,0.0,335.0,739.0,0.0,0,536.0,1
483,483,0.43194893268984347,0.4,1.0,1.0,268.0,576.0,0.0,0,-814.0,0
484,484,-0.0024362283289907083,-0.0,1.0,0.0,355.0,992.0,0.0,0,1653.0,1
485,485,-0.6423109018965096,-0.6,1.0,0.0,451.0,836.0,0.0,0,113.0,1
486,486,0.6290224226050382,0.6,0.0,0.0,432.0,607.0,0.0,1,171.0,1
487,487,-0.4825618104559946,-0.5,0.0,1.0,394.0,710.0,1.0,0,516.0,1
488,488,-0.8290556226067586,-0.8,0.0,1.0,252.0,916.0,0.0,1,-208.0,0
489,489,-0.38810521286669586,-0.4,0.0,1.0,422.0,806.0,0.0,1,-288.0,0
490,490,0.4882880116874121,0.5,1.0,1.0,496.0,550.0,1.0,1,464.0,1
491,491,0.7820090340380478,0.8,0.0,0.0,345.0,653.0,0.0,1,462.0,1
492,492,0.4764333669446982,0.5,1.0,1.0,462.0,922.0,1.0,1,326.0,1
493,493,-0.11997186997948561,-0.1,0.0,1.0,444.0,876.0,0.0,1,-90.0,0
494,494,0.5924271226903245,0.6,0.0,0.0,422.0,556.0,0.0,1,82.0,1
495,495,0.790573598777473,0.8,0.0,0.0,308.0,875.0,0.0,1,-663.0,1
496,496,0.6887619526614078,0.7,0.0,0.0,425.0,500.0,0.0,1,-15.0,1
497,497,0.4231408111247327,0.4,0.0,0.0,432.0,751.0,0.0,1,477.0,1
498,498,0.8198404537214877,0.8,1.0,1.0,315.0,969.0,1.0,1,-344.0,1
499,499,0.8578107645181156,0.9,1.0,1.0,459.0,840.0,1.0,1,171.0,1
500,500,-0.4419712614217774,-0.4,1.0,0.0,396.0,777.0,0.0,0,497.0,1
501,501,-0.034474075766413925,-0.0,0.0,1.0,328.0,786.0,0.0,1,846.0,0
502,502,-0.6002960714649346,-0.6,0.0,1.0,328.0,860.0,0.0,1,-498.0,0
503,503,-0.29317373506757516,-0.3,0.0,1.0,376.0,561.0,1.0,0,183.0,1
504,504,-0.5534483778083596,-0.6,1.0,0.0,365.0,887.0,0.0,0,238.0,1
505,505,-0.3887348680280419,-0.4,0.0,1.0,268.0,941.0,1.0,0,1241.0,1
506,506,0.16422749449433394,0.2,0.0,0.0,438.0,656.0,0.0,1,-14.0,1
507,507,0.6561147377785744,0.7,1.0,1.0,437.0,723.0,1.0,1,320.0,1
508,508,0.06310980051545967,0.1,0.0,0.0,483.0,919.0,0.0,1,778.0,1
509,509,-0.4307932383988284,-0.4,0.0,1.0,422.0,642.0,1.0,0,696.0,1
510,510,-0.5602014304805207,-0.6,1.0,0.0,406.0,674.0,0.0,0,310.0,1
511,511,0.5410391986422532,0.5,0.0,0.0,407.0,955.0,0.0,1,238.0,1
512,512,-0.43034244377678504,-0.4,1.0,0.0,466.0,657.0,0.0,0,667.0,1
513,513,-0.2357440584228372,-0.2,0.0,1.0,362.0,813.0,1.0,0,365.0,1
514,514,-0.0021044463336925556,-0.0,1.0,0.0,438.0,859.0,1.0,1,273.0,0
515,515,-0.6453689388430488,-0.6,0.0,1.0,395.0,684.0,1.0,0,281.0,1
516,516,-0.8098721131480396,-0.8,0.0,1.0,436.0,698.0,1.0,0,146.0,1
517,517,-0.3749277701607844,-0.4,1.0,0.0,253.0,881.0,0.0,0,296.0,1
518,518,-0.7655799192375445,-0.8,0.0,1.0,434.0,776.0,0.0,1,40.0,0
519,519,0.8983102077268376,0.9,0.0,0.0,304.0,866.0,0.0,1,-200.0,1
520,520,0.21805415991457455,0.2,1.0,1.0,322.0,725.0,1.0,1,143.0,1
521,521,-0.16948826037129017,-0.2,1.0,0.0,290.0,652.0,0.0,0,2058.0,1
522,522,-0.011578330441298634,-0.0,1.0,0.0,480.0,766.0,0.0,0,1004.0,1
523,523,-0.8541093241605909,-0.9,1.0,0.0,378.0,856.0,0.0,0,236.0,1
524,524,0.2676288627056943,0.3,0.0,0.0,455.0,737.0,0.0,1,178.0,1
525,525,-0.7067125374951797,-0.7,0.0,1.0,304.0,856.0,1.0,0,220.0,1
526,526,0.6865906519090884,0.7,1.0,1.0,275.0,813.0,1.0,1,132.0,1
527,527,-0.1303234841834282,-0.1,1.0,0.0,447.0,810.0,0.0,0,1743.0,1
528,528,0.0380255715042398,0.0,0.0,0.0,493.0,969.0,0.0,1,378.0,1
529,529,-0.5530232068290488,-0.6,0.0,1.0,468.0,552.0,1.0,0,420.0,1
530,530,0.2911904364829371,0.3,1.0,1.0,371.0,748.0,1.0,1,371.0,1
531,531,0.525320765466775,0.5,1.0,1.0,330.0,886.0,1.0,1,234.0,1
532,532,0.16259598404576459,0.2,0.0,0.0,265.0,830.0,0.0,1,855.0,1
533,533,0.07022805628768913,0.1,0.0,0.0,337.0,788.0,0.0,1,-245.0,1
534,534,0.8093332424531959,0.8,1.0,1.0,352.0,765.0,1.0,1,83.0,1
535,535,0.44162326916963257,0.4,0.0,0.0,449.0,757.0,0.0,1,244.0,1
536,536,0.23487645323023532,0.2,0.0,0.0,321.0,550.0,0.0,1,119.0,1
537,537,-0.4236246472343596,-0.4,0.0,1.0,427.0,951.0,0.0,1,82.0,0
538,538,-0.10667613259925424,-0.1,0.0,1.0,371.0,952.0,1.0,0,1677.0,1
539,539,-0.6095587662254647,-0.6,1.0,0.0,300.0,899.0,0.0,0,221.0,1
540,540,-0.48881582541538654,-0.5,0.0,1.0,482.0,748.0,1.0,0,610.0,1
541,541,0.37716568649954374,0.4,1.0,1.0,422.0,624.0,1.0,1,154.0,1
542,542,0.34812492228696523,0.3,1.0,1.0,273.0,723.0,1.0,1,284.0,1
543,543,-0.02767118511595701,-0.0,0.0,1.0,382.0,801.0,1.0,0,1817.0,1
544,544,-0.22755691629539176,-0.2,1.0,0.0,308.0,578.0,0.0,0,1204.0,1
545,545,0.6907587886688878,0.7,1.0,1.0,391.0,528.0,1.0,1,391.0,1
546,546,0.8967080067523506,0.9,0.0,0.0,345.0,754.0,0.0,1,-169.0,1
547,547,0.3611105013612196,0.4,1.0,1.0,464.0,934.0,1.0,1,322.0,1
548,548,-0.1198558619424912,-0.1,0.0,1.0,387.0,781.0,0.0,1,332.0,0
549,549,-0.03579162600050667,-0.0,0.0,1.0,497.0,786.0,0.0,1,147.0,0
550,550,-0.6807405915320848,-0.7,1.0,0.0,407.0,579.0,0.0,0,214.0,1
551,551,0.2648311852310937,0.3,1.0,1.0,465.0,975.0,1.0,1,240.0,1
552,552,-0.5939728522879499,-0.6,0.0,1.0,310.0,711.0,0.0,1,-201.0,0
553,553,-0.40539894194791304,-0.4,0.0,1.0,324.0,915.0,0.0,1,1.0,0
554,554,0.10044660564661478,0.1,0.0,0.0,332.0,836.0,0.0,1,202.0,1
555,555,-0.3070922037717345,-0.3,1.0,0.0,493.0,636.0,0.0,0,831.0,1
556,556,-0.7511654392377571,-0.8,1.0,0.0,437.0,632.0,0.0,0,391.0,1
557,557,0.364777565026254,0.4,1.0,1.0,261.0,901.0,1.0,1,898.0,1
558,558,-0.4374392644520717,-0.4,0.0,1.0,336.0,899.0,1.0,0,505.0,1
559,559,0.626155192294208,0.6,1.0,1.0,282.0,696.0,1.0,1,412.0,1
560,560,0.4041829915243983,0.4,0.0,0.0,425.0,982.0,0.0,1,-127.0,1
561,561,0.29255915796345533,0.3,0.0,0.0,473.0,663.0,0.0,1,374.0,1
562,562,-0.8059515013013439,-0.8,0.0,1.0,303.0,835.0,1.0,0,142.0,1
563,563,-0.19303249220038865,-0.2,1.0,0.0,296.0,778.0,0.0,0,1736.0,1
564,564,-0.47528245853315304,-0.5,0.0,1.0,319.0,906.0,1.0,0,475.0,1
565,565,-0.12346323307439344,-0.1,1.0,0.0,455.0,991.0,0.0,0,1554.0,1
566,566,0.5942233029055092,0.6,0.0,0.0,300.0,743.0,0.0,1,87.0,1
567,567,-0.5375589794471702,-0.5,0.0,1.0,351.0,673.0,0.0,1,-34.0,0
568,568,0.010608910105372238,0.0,1.0,1.0,261.0,845.0,1.0,1,1894.0,1
569,569,-0.3693130977480634,-0.4,1.0,0.0,367.0,529.0,0.0,0,134.0,1
570,570,-0.4198630188873575,-0.4,0.0,1.0,425.0,543.0,1.0,0,212.0,1
571,571,0.5984939410143714,0.6,0.0,0.0,412.0,974.0,0.0,1,324.0,1
572,572,-0.7505403250982496,-0.8,0.0,1.0,434.0,517.0,1.0,0,369.0,1
573,573,0.12867672924972007,0.1,1.0,1.0,335.0,892.0,0.0,0,83.0,0
574,574,-0.30381494463786385,-0.3,1.0,0.0,438.0,874.0,0.0,0,828.0,1
575,575,0.04433477662964025,0.0,1.0,1.0,469.0,899.0,1.0,1,1632.0,1
576,576,0.34283119414418406,0.3,1.0,1.0,306.0,986.0,1.0,1,238.0,1
577,577,-0.4803098919024784,-0.5,0.0,1.0,339.0,839.0,0.0,1,-348.0,0
578,578,0.3187300680512891,0.3,1.0,1.0,398.0,514.0,1.0,1,738.0,1
579,579,-0.5342418026462082,-0.5,0.0,1.0,287.0,918.0,1.0,0,755.0,1
580,580,0.7912106028392499,0.8,0.0,0.0,304.0,894.0,0.0,1,112.0,1
581,581,0.005664350976875343,0.0,1.0,1.0,295.0,669.0,1.0,1,2036.0,1
582,582,0.4584437739156436,0.5,1.0,1.0,480.0,543.0,1.0,1,157.0,1
583,583,-0.6361377335888061,-0.6,1.0,0.0,466.0,588.0,0.0,0,146.0,1
584,584,0.3273134647489314,0.3,1.0,1.0,282.0,726.0,1.0,1,532.0,1
585,585,-0.10157164688521236,-0.1,0.0,1.0,284.0,684.0,0.0,1,-138.0,0
586,586,0.23262404373214463,0.2,0.0,0.0,255.0,865.0,0.0,1,400.0,1
587,587,-0.6839899746741389,-0.7,0.0,1.0,260.0,693.0,1.0,0,277.0,1
588,588,-0.8420713901679704,-0.8,0.0,1.0,407.0,772.0,1.0,0,141.0,1
589,589,-0.2684478006773455,-0.3,1.0,0.0,255.0,934.0,0.0,0,981.0,1
590,590,-0.6785150119194013,-0.7,1.0,0.0,456.0,636.0,0.0,0,218.0,1
591,591,0.402025249923219,0.4,0.0,0.0,252.0,878.0,0.0,1,200.0,1
592,592,0.08219521675119268,0.1,1.0,1.0,324.0,889.0,1.0,1,937.0,1
593,593,0.5306979605540115,0.5,1.0,1.0,404.0,661.0,1.0,1,275.0,1
594,594,0.6850895296747349,0.7,1.0,1.0,331.0,814.0,1.0,1,365.0,1
595,595,0.46344196318674025,0.5,1.0,1.0,377.0,781.0,0.0,0,-528.0,0
596,596,0.7921249078066085,0.8,1.0,1.0,453.0,639.0,1.0,1,128.0,1
597,597,0.10517544064336837,0.1,1.0,1.0,466.0,927.0,1.0,1,167.0,1
598,598,0.09756449503853559,0.1,0.0,0.0,326.0,741.0,0.0,1,-107.0,1
599,599,-0.7824084738177317,-0.8,0.0,1.0,445.0,524.0,1.0,0,181.0,1
600,600,0.03636306841736414,0.0,1.0,1.0,405.0,589.0,1.0,1,1226.0,1
601,601,-0.43348680871679846,-0.4,1.0,0.0,280.0,957.0,0.0,0,283.0,1
602,602,0.7597555736568958,0.8,1.0,1.0,352.0,755.0,0.0,0,-407.0,0
603,603,-0.37030094959804205,-0.4,1.0,0.0,291.0,976.0,0.0,0,1233.0,1
604,604,-0.30024541115224623,-0.3,0.0,1.0,438.0,685.0,0.0,1,-143.0,0
605,605,0.33758073107021447,0.3,1.0,1.0,388.0,752.0,1.0,1,620.0,1
606,606,-0.5596400720441725,-0.6,1.0,0.0,448.0,733.0,0.0,0,199.0,1
607,607,0.003479218325535882,0.0,1.0,1.0,479.0,778.0,0.0,0,-667.0,0
608,608,0.06297452546474058,0.1,1.0,1.0,471.0,995.0,1.0,1,1534.0,1
609,609,-0.34949855276835495,-0.3,0.0,1.0,405.0,673.0,1.0,0,802.0,1
610,610,-0.34151636343687297,-0.3,0.0,1.0,335.0,644.0,0.0,1,-159.0,0
611,611,-0.7053927749866575,-0.7,0.0,1.0,421.0,621.0,1.0,0,418.0,1
612,612,-0.48584092920863403,-0.5,1.0,0.0,460.0,871.0,0.0,0,-471.0,1
613,613,0.2827944570575621,0.3,0.0,0.0,318.0,991.0,0.0,1,-499.0,1
614,614,-0.13611598346087495,-0.1,0.0,1.0,277.0,793.0,1.0,0,470.0,1
615,615,-0.01524129127944207,-0.0,0.0,1.0,262.0,733.0,0.0,1,-85.0,0
616,616,-0.7798533671152341,-0.8,0.0,1.0,388.0,835.0,0.0,1,-153.0,0
617,617,-0.4811817045060973,-0.5,0.0,1.0,395.0,888.0,1.0,0,987.0,1
618,618,-0.8608222540124431,-0.9,0.0,1.0,345.0,919.0,0.0,1,-354.0,0
619,619,-0.4917897028953299,-0.5,1.0,0.0,404.0,743.0,0.0,0,543.0,1
620,620,0.36165160572385535,0.4,0.0,0.0,345.0,556.0,0.0,1,239.0,1
621,621,-0.2888121930937736,-0.3,1.0,0.0,445.0,628.0,0.0,0,1367.0,1
622,622,0.28789620689568507,0.3,1.0,1.0,405.0,579.0,1.0,1,356.0,1
623,623,0.8826735639134576,0.9,0.0,0.0,406.0,813.0,0.0,1,-309.0,1
624,624,0.3472807831177339,0.3,0.0,0.0,328.0,920.0,0.0,1,52.0,1
625,625,0.6946352988673513,0.7,1.0,1.0,283.0,999.0,1.0,1,88.0,1
626,626,-0.2668808967314896,-0.3,0.0,1.0,499.0,522.0,0.0,1,19.0,0
627,627,-0.18728618310211875,-0.2,0.0,1.0,357.0,749.0,1.0,0,674.0,1
628,628,0.31024529365401776,0.3,0.0,0.0,498.0,778.0,0.0,1,234.0,1
629,629,0.8960154666050998,0.9,1.0,1.0,324.0,909.0,1.0,1,217.0,1
630,630,-0.14535492517007798,-0.1,1.0,0.0,379.0,841.0,0.0,0,-550.0,1
631,631,0.04730628890243094,0.0,1.0,1.0,443.0,640.0,1.0,1,997.0,1
632,632,0.5767417381791452,0.6,1.0,1.0,350.0,636.0,1.0,1,494.0,1
633,633,-0.5660222914349449,-0.6,0.0,1.0,338.0,807.0,1.0,0,185.0,1
634,634,-0.09947912215224353,-0.1,0.0,1.0,453.0,678.0,1.0,0,549.0,1
635,635,-0.5013096411083826,-0.5,0.0,1.0,392.0,623.0,0.0,1,-25.0,0
636,636,0.5481563642420578,0.5,0.0,0.0,433.0,533.0,0.0,1,-186.0,1
637,637,-0.5465380523548218,-0.5,1.0,0.0,390.0,616.0,0.0,0,144.0,1
638,638,0.6881580102475858,0.7,1.0,1.0,422.0,934.0,1.0,1,94.0,1
639,639,0.597054252973778,0.6,0.0,0.0,488.0,500.0,0.0,1,282.0,1
640,640,0.14470642203822537,0.1,0.0,0.0,327.0,856.0,0.0,1,507.0,1
641,641,0.1303989971648104,0.1,0.0,0.0,377.0,920.0,0.0,1,-697.0,1
642,642,0.18616092010233853,0.2,0.0,0.0,383.0,996.0,0.0,1,451.0,1
643,643,-0.7437494444159602,-0.7,0.0,1.0,275.0,721.0,1.0,0,124.0,1
644,644,-0.729561333608975,-0.7,0.0,1.0,252.0,693.0,0.0,1,-65.0,0
645,645,-0.35511307670208214,-0.4,0.0,1.0,374.0,760.0,1.0,0,336.0,1
646,646,-0.5654193004303998,-0.6,1.0,0.0,305.0,807.0,0.0,0,318.0,1
647,647,0.7780179489244486,0.8,1.0,1.0,496.0,894.0,1.0,1,160.0,1
648,648,0.42475887403093815,0.4,0.0,0.0,456.0,715.0,0.0,1,-251.0,1
649,649,-0.009914456157594675,-0.0,0.0,1.0,273.0,840.0,0.0,1,-43.0,0
650,650,0.16209164509709872,0.2,1.0,1.0,308.0,955.0,1.0,1,1737.0,1
651,651,-0.7891437663403132,-0.8,1.0,0.0,294.0,889.0,0.0,0,177.0,1
652,652,0.4417867952584137,0.4,0.0,0.0,411.0,661.0,0.0,1,728.0,1
653,653,-0.7511496853049286,-0.8,1.0,0.0,434.0,858.0,0.0,0,198.0,1
654,654,-0.46546384710399735,-0.5,1.0,0.0,451.0,537.0,0.0,0,202.0,1
655,655,-0.28731679220932527,-0.3,0.0,1.0,270.0,949.0,0.0,1,-459.0,0
656,656,0.7148320462352212,0.7,0.0,0.0,395.0,552.0,0.0,1,-17.0,1
657,657,-0.04162788515978699,-0.0,1.0,0.0,476.0,663.0,1.0,1,531.0,0
658,658,0.014461652450973639,0.0,1.0,1.0,336.0,848.0,1.0,1,1816.0,1
659,659,-0.8289286017602623,-0.8,0.0,1.0,401.0,995.0,0.0,1,-336.0,0
660,660,0.8277291372298677,0.8,1.0,1.0,313.0,754.0,1.0,1,213.0,1
661,661,0.6092193278731487,0.6,1.0,1.0,331.0,617.0,1.0,1,72.0,1
662,662,0.13451387871634723,0.1,1.0,1.0,417.0,633.0,1.0,1,730.0,1
663,663,0.3380905414998897,0.3,1.0,1.0,287.0,863.0,1.0,1,400.0,1
664,664,-0.7033130098891116,-0.7,0.0,1.0,457.0,763.0,1.0,0,360.0,1
665,665,-0.7328644985731856,-0.7,0.0,1.0,447.0,821.0,1.0,0,302.0,1
666,666,-0.3089386165272979,-0.3,1.0,0.0,311.0,524.0,0.0,0,295.0,1
667,667,-0.3791326848977733,-0.4,1.0,0.0,437.0,584.0,0.0,0,539.0,1
668,668,0.5983493127449443,0.6,0.0,0.0,302.0,580.0,0.0,1,-2.0,1
669,669,0.7921772365611875,0.8,0.0,0.0,446.0,612.0,0.0,1,532.0,1
670,670,-0.7683979585108347,-0.8,0.0,1.0,344.0,917.0,1.0,0,389.0,1
671,671,-0.49085824711261844,-0.5,1.0,0.0,296.0,854.0,0.0,0,410.0,1
672,672,-0.45222703673787196,-0.5,1.0,0.0,324.0,741.0,0.0,0,305.0,1
673,673,0.4280647722036405,0.4,1.0,1.0,453.0,513.0,1.0,1,884.0,1
674,674,-0.8811405915465643,-0.9,0.0,1.0,286.0,806.0,1.0,0,258.0,1
675,675,-0.2402333455140674,-0.2,0.0,1.0,492.0,612.0,0.0,1,-74.0,0
676,676,-0.14951414039597288,-0.1,0.0,1.0,493.0,798.0,0.0,1,229.0,0
677,677,-0.44514942640553806,-0.4,1.0,0.0,451.0,911.0,0.0,0,-292.0,1
678,678,0.27518826876446056,0.3,1.0,1.0,403.0,716.0,1.0,1,261.0,1
679,679,-0.21030206907514803,-0.2,0.0,1.0,364.0,732.0,0.0,1,1204.0,0
680,680,-0.1223549914024068,-0.1,1.0,0.0,453.0,693.0,1.0,1,1854.0,0
681,681,0.43993523704039694,0.4,1.0,1.0,304.0,688.0,1.0,1,668.0,1
682,682,0.49395582040390573,0.5,0.0,0.0,351.0,698.0,0.0,1,221.0,1
683,683,-0.09843584607020506,-0.1,0.0,1.0,388.0,569.0,0.0,1,-17.0,0
684,684,-0.30303874389213514,-0.3,0.0,1.0,374.0,789.0,0.0,1,-513.0,0
685,685,-0.5446667866704795,-0.5,0.0,1.0,389.0,544.0,0.0,1,-243.0,0
686,686,0.2153492211720086,0.2,0.0,0.0,475.0,892.0,0.0,1,-67.0,1
687,687,-0.5711920596796325,-0.6,1.0,0.0,352.0,679.0,0.0,0,99.0,1
688,688,0.029869027761064038,0.0,1.0,1.0,320.0,622.0,1.0,1,1248.0,1
689,689,-0.7492573064990165,-0.7,0.0,1.0,450.0,622.0,0.0,1,-142.0,0
690,690,0.3601662889065017,0.4,1.0,1.0,400.0,770.0,1.0,1,370.0,1
691,691,0.2154989331622329,0.2,1.0,1.0,286.0,728.0,1.0,1,276.0,1
692,692,0.6303551948983289,0.6,0.0,0.0,340.0,992.0,0.0,1,88.0,1
693,693,-0.24585326801949414,-0.2,0.0,1.0,400.0,953.0,0.0,1,-483.0,0
694,694,-0.1249620584986364,-0.1,1.0,0.0,379.0,800.0,0.0,0,731.0,1
695,695,0.4164931302602556,0.4,0.0,0.0,397.0,912.0,0.0,1,-549.0,1
696,696,-0.23721094617347183,-0.2,0.0,1.0,465.0,848.0,0.0,1,-63.0,0
697,697,0.15005885339574243,0.2,1.0,1.0,264.0,762.0,1.0,1,594.0,1
698,698,-0.18248411077214932,-0.2,1.0,0.0,298.0,592.0,0.0,0,2110.0,1
699,699,-0.5554889842278024,-0.6,1.0,0.0,461.0,911.0,0.0,0,248.0,1
700,700,0.29784546811603196,0.3,0.0,0.0,405.0,976.0,0.0,1,-211.0,1
701,701,0.8939860783827563,0.9,1.0,1.0,383.0,866.0,1.0,1,111.0,1
702,702,-0.3616518561131079,-0.4,1.0,0.0,309.0,861.0,0.0,0,1360.0,1
703,703,-0.06164902409205275,-0.1,0.0,1.0,374.0,635.0,0.0,1,-219.0,0
704,704,-0.36780205634318397,-0.4,1.0,0.0,335.0,653.0,0.0,0,352.0,1
705,705,0.28745105745739086,0.3,1.0,1.0,287.0,957.0,1.0,1,516.0,1
706,706,-0.1388257442483587,-0.1,0.0,1.0,306.0,699.0,0.0,1,-115.0,0
707,707,0.6509870368215854,0.7,0.0,0.0,355.0,770.0,0.0,1,265.0,1
708,708,-0.2706496359658169,-0.3,1.0,0.0,303.0,862.0,0.0,0,705.0,1
709,709,-0.23547283612654746,-0.2,1.0,0.0,391.0,933.0,0.0,0,1676.0,1
710,710,-0.7160190804380334,-0.7,1.0,0.0,475.0,924.0,0.0,0,201.0,1
711,711,0.4729378467827142,0.5,1.0,1.0,267.0,891.0,1.0,1,392.0,1
712,712,-0.5795530928056676,-0.6,1.0,0.0,279.0,906.0,0.0,0,315.0,1
713,713,-0.8901317940383198,-0.9,1.0,0.0,458.0,651.0,0.0,0,241.0,1
714,714,-0.24083955065740836,-0.2,1.0,0.0,476.0,551.0,0.0,0,1703.0,1
715,715,0.7877778728909363,0.8,1.0,1.0,394.0,798.0,1.0,1,178.0,1
716,716,-0.8401672808287936,-0.8,0.0,1.0,411.0,934.0,1.0,0,225.0,1
717,717,0.6881129734121451,0.7,0.0,0.0,388.0,859.0,0.0,1,-107.0,1
718,718,0.5058921990883357,0.5,0.0,0.0,298.0,660.0,0.0,1,-78.0,1
719,719,-0.6247506210532563,-0.6,0.0,1.0,272.0,979.0,0.0,1,-381.0,0
720,720,-0.36909786443555126,-0.4,1.0,0.0,375.0,637.0,0.0,0,238.0,1
721,721,-0.1695496899181399,-0.2,1.0,0.0,300.0,782.0,0.0,0,688.0,1
722,722,-0.007274820533597515,-0.0,1.0,0.0,303.0,542.0,0.0,0,1235.0,1
723,723,0.8129772010281483,0.8,1.0,1.0,374.0,739.0,1.0,1,107.0,1
724,724,-0.8188420066067365,-0.8,1.0,0.0,338.0,734.0,0.0,0,-332.0,1
725,725,-0.2622529222601435,-0.3,0.0,1.0,446.0,931.0,1.0,0,1303.0,1
726,726,0.41974334703634264,0.4,1.0,1.0,356.0,797.0,1.0,1,357.0,1
727,727,0.6182717867607767,0.6,1.0,1.0,424.0,654.0,1.0,1,132.0,1
728,728,-0.12319503480414407,-0.1,0.0,1.0,436.0,853.0,0.0,1,1711.0,0
729,729,-0.4182877303987036,-0.4,1.0,0.0,492.0,959.0,0.0,0,709.0,1
730,730,0.32705255138366585,0.3,0.0,0.0,297.0,979.0,0.0,1,224.0,1
731,731,0.7018281391157369,0.7,0.0,0.0,275.0,522.0,0.0,1,133.0,1
732,732,0.007905546238946348,0.0,0.0,0.0,443.0,998.0,0.0,1,1089.0,1
733,733,0.6019995174332701,0.6,1.0,1.0,315.0,787.0,0.0,0,-212.0,0
734,734,-0.6605268334467161,-0.7,1.0,0.0,336.0,820.0,0.0,0,304.0,1
735,735,0.7942988568890718,0.8,0.0,0.0,420.0,683.0,0.0,1,97.0,1
736,736,0.4141100406251096,0.4,0.0,0.0,426.0,811.0,0.0,1,363.0,1
737,737,0.8036427197747215,0.8,1.0,1.0,488.0,548.0,1.0,1,154.0,1
738,738,0.3875631879556033,0.4,1.0,1.0,486.0,627.0,1.0,1,287.0,1
739,739,-0.3752003273936212,-0.4,1.0,0.0,390.0,841.0,0.0,0,369.0,1
740,740,-0.1258711430893279,-0.1,0.0,1.0,474.0,555.0,0.0,1,1571.0,0
741,741,-0.774577241929516,-0.8,1.0,0.0,438.0,849.0,0.0,0,213.0,1
742,742,-0.15159519488456963,-0.2,0.0,1.0,291.0,633.0,0.0,1,26.0,0
743,743,0.09723620062286142,0.1,1.0,1.0,266.0,552.0,1.0,1,1832.0,1
744,744,0.48739255407674,0.5,1.0,1.0,341.0,880.0,1.0,1,239.0,1
745,745,-0.23008539192677835,-0.2,0.0,1.0,449.0,553.0,0.0,1,-92.0,0
746,746,0.25104804891334964,0.3,1.0,1.0,474.0,761.0,0.0,0,-5.0,0
747,747,-0.19865562595911324,-0.2,0.0,1.0,399.0,607.0,1.0,0,564.0,1
748,748,0.43804020142783184,0.4,1.0,1.0,284.0,726.0,0.0,0,-200.0,0
749,749,0.4346089879848133,0.4,1.0,1.0,447.0,858.0,1.0,1,285.0,1
750,750,-0.13752975309719273,-0.1,1.0,0.0,309.0,517.0,1.0,1,2174.0,0
751,751,0.107007956473958,0.1,0.0,0.0,467.0,526.0,0.0,1,917.0,1
752,752,-0.1584833012162834,-0.2,0.0,1.0,298.0,796.0,0.0,1,-224.0,0
753,753,0.12225567097737644,0.1,1.0,1.0,257.0,927.0,1.0,1,1746.0,1
754,754,-0.3241354978756599,-0.3,1.0,0.0,392.0,897.0,0.0,0,381.0,1
755,755,0.16933108914233774,0.2,0.0,0.0,341.0,883.0,0.0,1,-174.0,1
756,756,0.776618930030197,0.8,0.0,0.0,367.0,615.0,0.0,1,-182.0,1
757,757,0.6642596702322215,0.7,0.0,0.0,483.0,609.0,0.0,1,138.0,1
758,758,-0.6039857970231817,-0.6,1.0,0.0,481.0,678.0,0.0,0,251.0,1
759,759,-0.6477783443342819,-0.6,0.0,1.0,479.0,641.0,0.0,1,30.0,0
760,760,-0.23812733803617614,-0.2,1.0,0.0,312.0,980.0,0.0,0,1098.0,1
761,761,0.10362661111535665,0.1,1.0,1.0,399.0,762.0,1.0,1,1839.0,1
762,762,0.34736562093135837,0.3,0.0,0.0,367.0,707.0,0.0,1,1056.0,1
763,763,-0.825419147804647,-0.8,0.0,1.0,370.0,621.0,0.0,1,-291.0,0
764,764,0.22218651572462356,0.2,0.0,0.0,373.0,600.0,0.0,1,77.0,1
765,765,0.32774231480081395,0.3,0.0,0.0,383.0,517.0,1.0,0,-100.0,0
766,766,-0.20736727210186068,-0.2,0.0,1.0,373.0,754.0,0.0,1,-227.0,0
767,767,0.45024829643531417,0.5,0.0,0.0,490.0,919.0,0.0,1,191.0,1
768,768,0.8965790598840248,0.9,0.0,0.0,392.0,935.0,0.0,1,-357.0,1
769,769,0.7579878527877898,0.8,0.0,0.0,441.0,756.0,0.0,1,163.0,1
770,770,0.7468440248184888,0.7,0.0,0.0,394.0,913.0,0.0,1,103.0,1
771,771,-0.5690162718712173,-0.6,0.0,1.0,416.0,595.0,0.0,1,-241.0,0
772,772,-0.527711516516447,-0.5,1.0,0.0,305.0,526.0,0.0,0,139.0,1
773,773,-0.30142429688433137,-0.3,1.0,0.0,298.0,875.0,0.0,0,467.0,1
774,774,0.11159397592792619,0.1,1.0,1.0,381.0,946.0,1.0,1,713.0,1
775,775,-0.5088707208392491,-0.5,1.0,0.0,319.0,712.0,0.0,0,449.0,1
776,776,0.8367732022346982,0.8,1.0,1.0,374.0,813.0,1.0,1,233.0,1
777,777,0.7296529554929553,0.7,0.0,0.0,426.0,625.0,0.0,1,-201.0,1
778,778,0.5530270553866058,0.6,1.0,1.0,251.0,614.0,1.0,1,345.0,1
779,779,-0.05494638453063194,-0.1,0.0,1.0,404.0,983.0,0.0,1,333.0,0
780,780,0.5766893146815831,0.6,0.0,0.0,281.0,542.0,0.0,1,167.0,1
781,781,-0.481207358507136,-0.5,1.0,0.0,487.0,976.0,0.0,0,327.0,1
782,782,0.5512960407144133,0.6,1.0,1.0,445.0,612.0,1.0,1,233.0,1
783,783,0.09373859164493858,0.1,0.0,0.0,264.0,612.0,0.0,1,164.0,1
784,784,-0.01551763410067053,-0.0,1.0,0.0,270.0,762.0,0.0,0,1968.0,1
785,785,0.8165989016113256,0.8,0.0,0.0,380.0,824.0,0.0,1,56.0,1
786,786,-0.007819676398679754,-0.0,1.0,0.0,433.0,678.0,1.0,1,1889.0,0
787,787,-0.08570567204251434,-0.1,1.0,0.0,390.0,787.0,1.0,1,1823.0,0
788,788,-0.6966154171022568,-0.7,0.0,1.0,261.0,790.0,0.0,1,-21.0,0
789,789,-0.11386271320404495,-0.1,1.0,0.0,326.0,779.0,1.0,1,1895.0,0
790,790,0.30511733585111467,0.3,1.0,1.0,490.0,528.0,1.0,1,362.0,1
791,791,0.45262461623607686,0.5,1.0,1.0,363.0,807.0,1.0,1,340.0,1
792,792,-0.7957746642787774,-0.8,1.0,0.0,380.0,957.0,0.0,0,313.0,1
793,793,0.00767095184219857,0.0,0.0,0.0,375.0,507.0,0.0,1,238.0,1
794,794,0.7532481337700822,0.8,0.0,0.0,488.0,887.0,0.0,1,145.0,1
795,795,-0.3263084725875949,-0.3,0.0,1.0,350.0,758.0,1.0,0,1202.0,1
796,796,-0.5485346276987955,-0.5,0.0,1.0,416.0,799.0,1.0,0,345.0,1
797,797,0.6632439773280535,0.7,1.0,1.0,472.0,817.0,0.0,0,-339.0,0
798,798,-0.6164780806613794,-0.6,0.0,1.0,310.0,902.0,0.0,1,-332.0,0
799,799,0.8442548968165687,0.8,0.0,0.0,463.0,678.0,0.0,1,-181.0,1
800,800,-0.7003878252849355,-0.7,0.0,1.0,306.0,999.0,0.0,1,-465.0,0
801,801,0.4930277451751711,0.5,0.0,0.0,444.0,529.0,0.0,1,27.0,1
802,802,0.14828447754568475,0.1,1.0,1.0,354.0,657.0,1.0,1,839.0,1
803,803,-0.3573019695742765,-0.4,1.0,0.0,454.0,536.0,0.0,0,100.0,1
804,804,0.5707627719390059,0.6,0.0,0.0,303.0,639.0,0.0,1,48.0,1
805,805,-0.37138165560092107,-0.4,0.0,1.0,468.0,817.0,0.0,1,-165.0,0
806,806,0.49214191713872724,0.5,1.0,1.0,482.0,958.0,1.0,1,480.0,1
807,807,-0.7906005662456271,-0.8,1.0,0.0,280.0,771.0,0.0,0,179.0,1
808,808,0.833842391081132,0.8,1.0,1.0,299.0,741.0,1.0,1,90.0,1
809,809,-0.049740348949231405,-0.0,1.0,0.0,335.0,851.0,1.0,1,1814.0,0
810,810,-0.5700022848647193,-0.6,1.0,0.0,267.0,688.0,0.0,0,245.0,1
811,811,0.69218220183923,0.7,1.0,1.0,435.0,565.0,1.0,1,250.0,1
812,812,-0.70840946823413,-0.7,1.0,0.0,457.0,848.0,0.0,0,205.0,1
813,813,0.3244742860210946,0.3,0.0,0.0,324.0,829.0,0.0,1,67.0,1
814,814,-0.2411250543049277,-0.2,0.0,1.0,296.0,675.0,0.0,1,-281.0,0
815,815,0.09870132952456556,0.1,0.0,0.0,363.0,957.0,0.0,1,1490.0,1
816,816,0.35611008627794793,0.4,0.0,0.0,376.0,659.0,0.0,1,535.0,1
817,817,0.8324351616496909,0.8,1.0,1.0,338.0,879.0,1.0,1,153.0,1
818,818,0.7118425024170961,0.7,0.0,0.0,296.0,642.0,0.0,1,332.0,1
819,819,-0.18183592200188448,-0.2,0.0,1.0,284.0,746.0,0.0,1,1120.0,0
820,820,0.77929896265147,0.8,0.0,0.0,428.0,689.0,0.0,1,-907.0,1
821,821,0.290999859641245,0.3,0.0,0.0,386.0,570.0,0.0,1,1244.0,1
822,822,-0.4278583716075064,-0.4,0.0,1.0,270.0,937.0,1.0,0,563.0,1
823,823,0.8050947323134222,0.8,0.0,0.0,384.0,698.0,0.0,1,-12.0,1
824,824,-0.8253559686246323,-0.8,1.0,0.0,323.0,513.0,0.0,0,104.0,1
825,825,-0.14042195852277217,-0.1,1.0,0.0,429.0,876.0,0.0,0,-685.0,1
826,826,-0.4990223124083546,-0.5,1.0,0.0,462.0,926.0,0.0,0,492.0,1
827,827,-0.35834508161363376,-0.4,0.0,1.0,349.0,842.0,1.0,0,709.0,1
828,828,-0.7194370208828087,-0.7,0.0,1.0,459.0,961.0,1.0,0,310.0,1
829,829,-0.3325215339504758,-0.3,0.0,1.0,327.0,840.0,1.0,0,543.0,1
830,830,-0.6070305259083617,-0.6,0.0,1.0,384.0,685.0,0.0,1,-99.0,0
831,831,-0.15830902239119005,-0.2,0.0,1.0,442.0,717.0,0.0,1,431.0,0
832,832,-0.7933432328803074,-0.8,1.0,0.0,460.0,762.0,1.0,1,-322.0,0
833,833,0.5207862193371914,0.5,1.0,1.0,284.0,575.0,1.0,1,331.0,1
834,834,0.21353357956070862,0.2,1.0,1.0,394.0,765.0,1.0,1,1021.0,1
835,835,0.30771681355799607,0.3,1.0,1.0,434.0,757.0,1.0,1,69.0,1
836,836,-0.39751343277943274,-0.4,0.0,1.0,417.0,597.0,0.0,1,-254.0,0
837,837,0.8150516458473088,0.8,1.0,1.0,355.0,815.0,1.0,1,140.0,1
838,838,0.12772612098241776,0.1,1.0,1.0,425.0,861.0,1.0,1,1714.0,1
839,839,-0.04765543873034006,-0.0,0.0,1.0,435.0,845.0,0.0,1,330.0,0
840,840,0.7829706098369283,0.8,1.0,1.0,469.0,524.0,1.0,1,217.0,1
841,841,0.864188934370261,0.9,1.0,1.0,362.0,525.0,1.0,1,123.0,1
842,842,-0.0773146164175823,-0.1,1.0,0.0,447.0,776.0,1.0,1,1777.0,0
843,843,-0.4336475768037911,-0.4,1.0,0.0,438.0,620.0,0.0,0,332.0,1
844,844,-0.28216768316979157,-0.3,0.0,1.0,447.0,877.0,1.0,0,366.0,1
845,845,-0.8051196705415529,-0.8,1.0,0.0,391.0,727.0,0.0,0,362.0,1
846,846,0.7100075072371167,0.7,0.0,0.0,454.0,933.0,0.0,1,-87.0,1
847,847,0.7173145479021544,0.7,1.0,1.0,310.0,679.0,1.0,1,101.0,1
848,848,0.7532775987408157,0.8,0.0,0.0,252.0,774.0,0.0,1,-176.0,1
849,849,0.619313564772899,0.6,0.0,0.0,464.0,672.0,0.0,1,374.0,1
850,850,0.6148172857705075,0.6,1.0,1.0,481.0,635.0,1.0,1,174.0,1
851,851,0.6492700750053316,0.6,0.0,0.0,488.0,712.0,0.0,1,270.0,1
852,852,0.13840756623816997,0.1,0.0,0.0,422.0,861.0,0.0,1,-313.0,1
853,853,0.32563364713716425,0.3,1.0,1.0,288.0,525.0,1.0,1,427.0,1
854,854,0.10674872551358516,0.1,0.0,0.0,442.0,841.0,0.0,1,317.0,1
855,855,0.03955729950942177,0.0,1.0,1.0,441.0,557.0,1.0,1,2002.0,1
856,856,-0.8113177630303191,-0.8,1.0,0.0,324.0,878.0,0.0,0,248.0,1
857,857,-0.7009949803514288,-0.7,0.0,1.0,275.0,695.0,1.0,0,270.0,1
858,858,-0.19427380348005108,-0.2,0.0,1.0,450.0,959.0,0.0,1,-159.0,0
859,859,-0.3916077244750449,-0.4,1.0,0.0,294.0,703.0,0.0,0,463.0,1
860,860,-0.03789391729388092,-0.0,1.0,0.0,444.0,842.0,1.0,1,1714.0,0
861,861,-0.8440806990256415,-0.8,0.0,1.0,454.0,939.0,0.0,1,-493.0,0
862,862,0.7424822263909417,0.7,0.0,0.0,268.0,909.0,0.0,1,-177.0,1
863,863,0.16968853904803793,0.2,1.0,1.0,404.0,741.0,1.0,1,1305.0,1
864,864,-0.6532356085342241,-0.7,1.0,0.0,372.0,592.0,0.0,0,296.0,1
865,865,0.3869579290631272,0.4,1.0,1.0,280.0,886.0,0.0,0,-446.0,0
866,866,0.7840995795501752,0.8,1.0,1.0,362.0,699.0,1.0,1,119.0,1
867,867,0.03698803471018908,0.0,0.0,0.0,323.0,998.0,0.0,1,349.0,1
868,868,0.3313703785571439,0.3,1.0,1.0,372.0,837.0,1.0,1,321.0,1
869,869,0.8088467241469489,0.8,1.0,1.0,490.0,768.0,0.0,0,-328.0,0
870,870,0.1351470058516634,0.1,0.0,0.0,288.0,531.0,0.0,1,341.0,1
871,871,0.14829057330187256,0.1,1.0,1.0,327.0,614.0,0.0,0,-131.0,0
872,872,0.6929904002477466,0.7,0.0,0.0,478.0,951.0,0.0,1,-399.0,1
873,873,0.17446221924893723,0.2,1.0,1.0,346.0,876.0,1.0,1,448.0,1
874,874,-0.8592706553881907,-0.9,1.0,0.0,277.0,831.0,0.0,0,192.0,1
875,875,-0.7149619733040068,-0.7,0.0,1.0,463.0,632.0,1.0,0,345.0,1
876,876,-0.40382828813936567,-0.4,1.0,0.0,299.0,937.0,0.0,0,114.0,1
877,877,0.8231496896684775,0.8,1.0,1.0,464.0,886.0,0.0,0,-550.0,0
878,878,0.39701802889667326,0.4,1.0,1.0,368.0,852.0,1.0,1,500.0,1
879,879,-0.5622732915944204,-0.6,1.0,0.0,403.0,930.0,0.0,0,437.0,1
880,880,0.34279489232156013,0.3,1.0,1.0,347.0,649.0,1.0,1,274.0,1
881,881,0.7279819211871058,0.7,0.0,0.0,379.0,975.0,0.0,1,-104.0,1
882,882,0.03573169652073416,0.0,0.0,0.0,348.0,806.0,0.0,1,416.0,1
883,883,-0.2030022429033922,-0.2,1.0,0.0,277.0,814.0,0.0,0,1909.0,1
884,884,0.4926683938808788,0.5,0.0,0.0,361.0,888.0,0.0,1,181.0,1
885,885,-0.3847610219530161,-0.4,0.0,1.0,382.0,646.0,1.0,0,242.0,1
886,886,-0.4380474222149033,-0.4,1.0,0.0,494.0,569.0,0.0,0,347.0,1
887,887,-0.5146204813276942,-0.5,0.0,1.0,356.0,581.0,0.0,1,13.0,0
888,888,0.32385242800423997,0.3,0.0,0.0,395.0,719.0,0.0,1,66.0,1
889,889,0.5663978881376405,0.6,1.0,1.0,433.0,772.0,1.0,1,175.0,1
890,890,0.7023199530178791,0.7,1.0,1.0,462.0,973.0,1.0,1,145.0,1
891,891,-0.14209019744141205,-0.1,0.0,1.0,427.0,881.0,0.0,1,222.0,0
892,892,0.032833460213520405,0.0,1.0,1.0,350.0,866.0,1.0,1,1784.0,1
893,893,-0.41884557737665945,-0.4,0.0,1.0,492.0,932.0,0.0,1,-64.0,0
894,894,-0.5334621360393912,-0.5,1.0,0.0,302.0,968.0,0.0,0,340.0,1
895,895,0.1158128558364554,0.1,1.0,1.0,300.0,930.0,1.0,1,460.0,1
896,896,-0.6633805910488115,-0.7,0.0,1.0,484.0,711.0,0.0,1,-205.0,0
897,897,0.3532304352516912,0.4,0.0,0.0,485.0,502.0,0.0,1,-147.0,1
898,898,0.339353284220106,0.3,0.0,0.0,361.0,599.0,0.0,1,320.0,1
899,899,0.669951382511132,0.7,1.0,1.0,436.0,778.0,1.0,1,226.0,1
900,900,-0.23445357741696005,-0.2,0.0,1.0,447.0,882.0,0.0,1,-339.0,0
901,901,-0.09655325422408967,-0.1,1.0,0.0,308.0,920.0,1.0,1,-68.0,0
902,902,-0.015779805336420982,-0.0,0.0,1.0,348.0,898.0,1.0,0,1754.0,1
903,903,0.8996042097110063,0.9,0.0,0.0,421.0,963.0,0.0,1,-234.0,1
904,904,0.20190338557482856,0.2,0.0,0.0,498.0,560.0,0.0,1,562.0,1
905,905,0.6520554081465618,0.7,1.0,1.0,356.0,789.0,1.0,1,145.0,1
906,906,-0.5756181756729273,-0.6,1.0,0.0,359.0,706.0,0.0,0,585.0,1
907,907,-0.826814519603567,-0.8,1.0,0.0,481.0,964.0,1.0,1,-85.0,0
908,908,0.6943284030641569,0.7,0.0,0.0,408.0,615.0,0.0,1,-203.0,1
909,909,-0.8160564576659985,-0.8,0.0,1.0,389.0,870.0,1.0,0,171.0,1
910,910,0.09597400658580657,0.1,0.0,0.0,412.0,612.0,0.0,1,-24.0,1
911,911,0.04666551364189642,0.0,0.0,0.0,480.0,565.0,0.0,1,685.0,1
912,912,-0.12438482687017482,-0.1,0.0,1.0,334.0,864.0,0.0,1,592.0,0
913,913,-0.45512439679540695,-0.5,1.0,0.0,317.0,695.0,0.0,0,378.0,1
914,914,0.32857333727667715,0.3,0.0,0.0,453.0,569.0,0.0,1,138.0,1
915,915,0.34049183565995367,0.3,1.0,1.0,498.0,813.0,1.0,1,439.0,1
916,916,-0.1428000220810448,-0.1,1.0,0.0,356.0,705.0,0.0,0,1129.0,1
917,917,0.14048084080325662,0.1,0.0,0.0,387.0,541.0,0.0,1,302.0,1
918,918,0.5911889706726899,0.6,1.0,1.0,366.0,832.0,1.0,1,192.0,1
919,919,0.2709985923604942,0.3,0.0,0.0,265.0,959.0,0.0,1,326.0,1
920,920,0.28397766721836326,0.3,0.0,0.0,272.0,707.0,0.0,1,501.0,1
921,921,-0.6891838668676175,-0.7,0.0,1.0,412.0,893.0,1.0,0,175.0,1
922,922,0.816399062885237,0.8,1.0,1.0,415.0,572.0,1.0,1,283.0,1
923,923,0.4239246973182108,0.4,1.0,1.0,438.0,706.0,1.0,1,366.0,1
924,924,0.2520433299907444,0.3,0.0,0.0,423.0,541.0,0.0,1,146.0,1
925,925,0.8682438743999698,0.9,0.0,0.0,274.0,880.0,0.0,1,6.0,1
926,926,0.3331089043060619,0.3,1.0,1.0,250.0,521.0,1.0,1,689.0,1
927,927,0.06595153220734395,0.1,0.0,0.0,396.0,875.0,1.0,0,-111.0,0
928,928,-0.20368327017853516,-0.2,1.0,0.0,395.0,872.0,0.0,0,1733.0,1
929,929,0.3907109994719885,0.4,0.0,0.0,339.0,730.0,0.0,1,641.0,1
930,930,0.7591133415489816,0.8,1.0,1.0,287.0,628.0,1.0,1,205.0,1
931,931,0.2199403115958113,0.2,0.0,0.0,375.0,909.0,0.0,1,-84.0,1
932,932,0.5320887679525445,0.5,0.0,0.0,347.0,846.0,0.0,1,27.0,1
933,933,-0.7414233557433278,-0.7,0.0,1.0,412.0,585.0,1.0,0,683.0,1
934,934,-0.17997393755722724,-0.2,0.0,1.0,489.0,976.0,0.0,1,-835.0,0
935,935,0.33748750093466506,0.3,1.0,1.0,282.0,689.0,1.0,1,339.0,1
936,936,-0.3895627452507239,-0.4,1.0,0.0,283.0,865.0,0.0,0,762.0,1
937,937,-0.015445788762678214,-0.0,1.0,0.0,484.0,779.0,0.0,0,1737.0,1
938,938,0.2743628745145995,0.3,0.0,0.0,276.0,539.0,0.0,1,165.0,1
939,939,-0.19623767850154394,-0.2,0.0,1.0,446.0,608.0,1.0,0,1786.0,1
940,940,-0.44329159875642327,-0.4,0.0,1.0,412.0,642.0,1.0,0,676.0,1
941,941,0.5545191572249529,0.6,1.0,1.0,480.0,754.0,1.0,1,406.0,1
942,942,-0.7595565335072074,-0.8,1.0,0.0,352.0,872.0,0.0,0,136.0,1
943,943,0.5547618299793212,0.6,0.0,0.0,418.0,936.0,0.0,1,236.0,1
944,944,0.8214967071137175,0.8,0.0,0.0,470.0,648.0,0.0,1,62.0,1
945,945,0.07715529757733564,0.1,1.0,1.0,495.0,562.0,1.0,1,293.0,1
946,946,0.1341228824755739,0.1,0.0,0.0,447.0,703.0,0.0,1,530.0,1
947,947,-0.7555992856768287,-0.8,1.0,0.0,325.0,641.0,0.0,0,394.0,1
948,948,0.8362190100210464,0.8,1.0,1.0,371.0,868.0,1.0,1,201.0,1
949,949,-0.8822865954601551,-0.9,0.0,1.0,449.0,533.0,1.0,0,288.0,1
950,950,-0.476995142931507,-0.5,0.0,1.0,390.0,967.0,1.0,0,293.0,1
951,951,-0.21752036717607892,-0.2,1.0,0.0,406.0,611.0,0.0,0,593.0,1
952,952,-0.6929032477664514,-0.7,1.0,0.0,442.0,641.0,0.0,0,187.0,1
953,953,-0.196679146261601,-0.2,0.0,1.0,496.0,815.0,0.0,1,-211.0,0
954,954,0.5563958706622921,0.6,0.0,0.0,432.0,913.0,0.0,1,135.0,1
955,955,-0.10500165063540134,-0.1,0.0,1.0,285.0,779.0,0.0,1,-34.0,0
956,956,0.41424650643883376,0.4,1.0,1.0,431.0,970.0,1.0,1,129.0,1
957,957,-0.45581575828772514,-0.5,1.0,0.0,269.0,635.0,0.0,0,376.0,1
958,958,0.5927570933055276,0.6,1.0,1.0,311.0,534.0,1.0,1,95.0,1
959,959,0.2160526844274958,0.2,0.0,0.0,473.0,545.0,0.0,1,332.0,1
960,960,0.4888056877619277,0.5,0.0,0.0,387.0,921.0,0.0,1,-248.0,1
961,961,0.8350042864829169,0.8,1.0,1.0,453.0,993.0,1.0,1,194.0,1
962,962,-0.3492995747317126,-0.3,0.0,1.0,397.0,577.0,1.0,0,736.0,1
963,963,-0.08071166226102522,-0.1,0.0,1.0,475.0,820.0,0.0,1,205.0,0
964,964,-0.6458306510898044,-0.6,1.0,0.0,339.0,820.0,0.0,0,201.0,1
965,965,-0.6960073156037128,-0.7,1.0,0.0,370.0,785.0,0.0,0,205.0,1
966,966,-0.04732072065630688,-0.0,0.0,1.0,313.0,693.0,0.0,1,474.0,0
967,967,-0.6266862943681721,-0.6,0.0,1.0,288.0,881.0,1.0,0,171.0,1
968,968,0.09608506517140503,0.1,0.0,0.0,379.0,771.0,0.0,1,380.0,1
969,969,0.8778012003813579,0.9,0.0,0.0,365.0,664.0,0.0,1,121.0,1
970,970,0.8674847810496246,0.9,1.0,1.0,324.0,717.0,1.0,1,199.0,1
971,971,-0.14744812118618322,-0.1,1.0,0.0,317.0,659.0,0.0,0,2024.0,1
972,972,-0.8012135667604738,-0.8,1.0,0.0,405.0,702.0,0.0,0,213.0,1
973,973,-0.4728399479881739,-0.5,1.0,0.0,400.0,871.0,0.0,0,339.0,1
974,974,-0.7656496177088716,-0.8,0.0,1.0,270.0,614.0,1.0,0,426.0,1
975,975,-0.14564648394766944,-0.1,0.0,1.0,428.0,659.0,1.0,0,1913.0,1
976,976,-0.6897186114156918,-0.7,1.0,0.0,420.0,761.0,0.0,0,299.0,1
977,977,0.1520568809235322,0.2,1.0,1.0,309.0,605.0,1.0,1,766.0,1
978,978,0.7986082684042443,0.8,1.0,1.0,252.0,856.0,1.0,1,72.0,1
979,979,0.8087835479097302,0.8,0.0,0.0,250.0,543.0,0.0,1,167.0,1
980,980,-0.48765630306442503,-0.5,1.0,0.0,387.0,525.0,0.0,0,258.0,1
981,981,0.7280977062210922,0.7,1.0,1.0,386.0,967.0,1.0,1,97.0,1
982,982,0.842671628003499,0.8,1.0,1.0,354.0,768.0,1.0,1,128.0,1
983,983,0.1776498121893303,0.2,1.0,1.0,444.0,573.0,1.0,1,1983.0,1
984,984,-0.8478299376879195,-0.8,0.0,1.0,441.0,760.0,1.0,0,219.0,1
985,985,-0.21528352269370177,-0.2,1.0,0.0,439.0,930.0,0.0,0,621.0,1
986,986,-0.28402570048231757,-0.3,1.0,0.0,364.0,666.0,0.0,0,1140.0,1
987,987,0.12842677726241336,0.1,0.0,0.0,266.0,543.0,0.0,1,411.0,1
988,988,-0.5180275714687597,-0.5,0.0,1.0,317.0,568.0,0.0,1,-165.0,0
989,989,0.145381127656511,0.1,1.0,1.0,257.0,582.0,1.0,1,241.0,1
990,990,-0.7351492765753086,-0.7,1.0,0.0,398.0,938.0,0.0,0,174.0,1
991,991,0.049911012572384394,0.0,1.0,1.0,484.0,844.0,0.0,0,1672.0,0
992,992,-0.048235602394650634,-0.0,0.0,1.0,374.0,652.0,0.0,1,864.0,0
993,993,0.6718612108236995,0.7,0.0,0.0,493.0,774.0,0.0,1,503.0,1
994,994,-0.216685296723377,-0.2,1.0,0.0,436.0,799.0,0.0,0,345.0,1
995,995,-0.11032421336417109,-0.1,1.0,0.0,413.0,539.0,1.0,1,2048.0,0
996,996,0.7899593681118356,0.8,1.0,1.0,367.0,803.0,1.0,1,230.0,1
997,997,0.595449809559294,0.6,0.0,0.0,294.0,829.0,0.0,1,-183.0,1
998,998,0.40320911773085266,0.4,0.0,0.0,336.0,894.0,0.0,1,30.0,1
999,999,0.26087259265852636,0.3,1.0,1.0,499.0,651.0,1.0,1,170.0,1
1000,1000,-0.09203463104335963,-0.1,1.0,0.0,251.0,732.0,0.0,0,2017.0,1
1001,1001,0.6024300808911877,0.6,1.0,1.0,416.0,808.0,1.0,1,296.0,1
1002,1002,-0.8192191961008086,-0.8,1.0,0.0,269.0,881.0,0.0,0,300.0,1
1003,1003,-0.18478048466391228,-0.2,1.0,0.0,430.0,854.0,1.0,1,1716.0,0
1004,1004,0.3288986222975264,0.3,1.0,1.0,338.0,582.0,1.0,1,400.0,1
1005,1005,0.7158013359311254,0.7,0.0,0.0,377.0,568.0,0.0,1,65.0,1
1006,1006,-0.5281804536929722,-0.5,0.0,1.0,299.0,951.0,0.0,1,-90.0,0
1007,1007,0.8764689917485801,0.9,0.0,0.0,481.0,558.0,0.0,1,41.0,1
1008,1008,0.8011162722411177,0.8,1.0,1.0,310.0,533.0,1.0,1,267.0,1
1009,1009,0.12515820745412876,0.1,0.0,0.0,276.0,933.0,0.0,1,441.0,1
1010,1010,0.4399737670971121,0.4,1.0,1.0,493.0,666.0,1.0,1,591.0,1
1011,1011,-0.5717192926150029,-0.6,1.0,0.0,279.0,793.0,0.0,0,168.0,1
1012,1012,-0.8196291123998805,-0.8,0.0,1.0,265.0,998.0,1.0,0,397.0,1
1013,1013,-0.8892268337660688,-0.9,1.0,0.0,282.0,728.0,0.0,0,100.0,1
1014,1014,0.2275444825285594,0.2,0.0,0.0,413.0,621.0,0.0,1,366.0,1
1015,1015,0.8834028568211024,0.9,0.0,0.0,286.0,542.0,0.0,1,142.0,1
1016,1016,-0.39077382110313774,-0.4,1.0,0.0,263.0,943.0,0.0,0,584.0,1
1017,1017,-0.312254767193999,-0.3,0.0,1.0,352.0,508.0,1.0,0,530.0,1
1018,1018,0.05023617069295094,0.1,1.0,1.0,345.0,878.0,1.0,1,1237.0,1
1019,1019,0.2560077344136765,0.3,1.0,1.0,454.0,507.0,1.0,1,359.0,1
1020,1020,0.5447531774720916,0.5,1.0,1.0,365.0,952.0,1.0,1,243.0,1
1021,1021,-0.2518546687990486,-0.3,1.0,0.0,364.0,671.0,0.0,0,265.0,1
1022,1022,-0.25668848106738673,-0.3,1.0,0.0,368.0,630.0,0.0,0,2002.0,1
1023,1023,0.014893540625851132,0.0,0.0,0.0,440.0,917.0,0.0,1,-157.0,1
1024,1024,-0.4304496509477034,-0.4,0.0,1.0,348.0,680.0,1.0,0,782.0,1
1025,1025,0.13745855283880315,0.1,0.0,0.0,304.0,985.0,0.0,1,31.0,1
1026,1026,0.30116928907645224,0.3,1.0,1.0,464.0,520.0,1.0,1,266.0,1
1027,1027,-0.10543829521225578,-0.1,1.0,0.0,483.0,843.0,0.0,0,-306.0,1
1028,1028,-0.13099415789055868,-0.1,0.0,1.0,260.0,805.0,1.0,0,1935.0,1
1029,1029,0.616054184433103,0.6,0.0,0.0,470.0,624.0,0.0,1,46.0,1
1030,1030,0.5661014578423286,0.6,0.0,0.0,309.0,784.0,0.0,1,497.0,1
1031,1031,0.5412991848372289,0.5,0.0,0.0,317.0,606.0,0.0,1,217.0,1
1032,1032,-0.4608529260874255,-0.5,1.0,0.0,438.0,509.0,0.0,0,133.0,1
1033,1033,0.3266391549617159,0.3,1.0,1.0,307.0,592.0,1.0,1,651.0,1
1034,1034,0.5707904343374554,0.6,1.0,1.0,308.0,861.0,0.0,0,-59.0,0
1035,1035,-0.42032645139170627,-0.4,1.0,0.0,308.0,791.0,0.0,0,541.0,1
1036,1036,0.6754627377889334,0.7,0.0,0.0,432.0,559.0,0.0,1,159.0,1
1037,1037,-0.7120424326820864,-0.7,1.0,0.0,396.0,881.0,0.0,0,353.0,1
1038,1038,-0.522980235396688,-0.5,0.0,1.0,490.0,937.0,0.0,1,-7.0,0
1039,1039,-0.46969894927026334,-0.5,0.0,1.0,434.0,915.0,0.0,1,-379.0,0
1040,1040,-0.7820453763054452,-0.8,0.0,1.0,440.0,621.0,0.0,1,-61.0,0
1041,1041,-0.30107851009120323,-0.3,0.0,1.0,410.0,981.0,1.0,0,1089.0,1
1042,1042,-0.1027240490546345,-0.1,1.0,0.0,468.0,724.0,0.0,0,838.0,1
1043,1043,-0.2230655694927267,-0.2,1.0,0.0,392.0,819.0,0.0,0,889.0,1
1044,1044,-0.2554144013041971,-0.3,0.0,1.0,338.0,596.0,1.0,0,446.0,1
1045,1045,-0.019174396989404263,-0.0,1.0,0.0,494.0,623.0,1.0,1,1883.0,0
1046,1046,-0.8267050669446249,-0.8,1.0,0.0,489.0,569.0,0.0,0,262.0,1
1047,1047,0.7808762742517391,0.8,0.0,0.0,257.0,527.0,0.0,1,146.0,1
1048,1048,0.3127058406040516,0.3,1.0,1.0,483.0,726.0,1.0,1,501.0,1
1049,1049,0.6866852146034877,0.7,0.0,0.0,387.0,663.0,0.0,1,370.0,1
1050,1050,0.14066327454392213,0.1,0.0,0.0,254.0,511.0,0.0,1,1095.0,1
1051,1051,-0.41093702999926696,-0.4,0.0,1.0,298.0,685.0,1.0,0,1157.0,1
1052,1052,0.8016461473867332,0.8,1.0,1.0,307.0,712.0,1.0,1,551.0,1
1053,1053,0.6305273549683333,0.6,0.0,0.0,363.0,651.0,0.0,1,266.0,1
1054,1054,-0.41218965921005407,-0.4,0.0,1.0,369.0,876.0,0.0,1,-265.0,0
1055,1055,0.5210150098658987,0.5,0.0,0.0,462.0,930.0,0.0,1,128.0,1
1056,1056,-0.3452373282820521,-0.3,0.0,1.0,442.0,630.0,0.0,1,-692.0,0
1057,1057,-0.5653499763163816,-0.6,1.0,0.0,271.0,637.0,0.0,0,162.0,1
1058,1058,-0.31357564326364085,-0.3,1.0,0.0,337.0,827.0,0.0,0,416.0,1
1059,1059,-0.4678759370590869,-0.5,1.0,0.0,281.0,971.0,0.0,0,398.0,1
1060,1060,-0.7026343897323034,-0.7,1.0,0.0,453.0,519.0,0.0,0,98.0,1
1061,1061,0.5890649167937604,0.6,0.0,0.0,398.0,696.0,0.0,1,126.0,1
1062,1062,0.2905853390958003,0.3,1.0,1.0,388.0,815.0,1.0,1,177.0,1
1063,1063,-0.823334951863549,-0.8,0.0,1.0,421.0,752.0,0.0,1,-143.0,0
1064,1064,0.61603347933987,0.6,0.0,0.0,304.0,745.0,0.0,1,411.0,1
1065,1065,0.4941736605781085,0.5,0.0,0.0,471.0,850.0,0.0,1,459.0,1
1066,1066,-0.379308360388382,-0.4,0.0,1.0,430.0,712.0,0.0,1,-112.0,0
1067,1067,0.8592655877195409,0.9,1.0,1.0,382.0,847.0,1.0,1,121.0,1
1068,1068,-0.4343668420318236,-0.4,0.0,1.0,439.0,931.0,0.0,1,-450.0,0
1069,1069,0.5607456343565841,0.6,0.0,0.0,475.0,752.0,0.0,1,-67.0,1
1070,1070,0.4494778647761247,0.4,1.0,1.0,251.0,716.0,1.0,1,163.0,1
1071,1071,-0.6472324709418219,-0.6,0.0,1.0,342.0,601.0,1.0,0,387.0,1
1072,1072,0.5085082270720876,0.5,1.0,1.0,372.0,544.0,1.0,1,284.0,1
1073,1073,0.7054986618381484,0.7,1.0,1.0,489.0,567.0,1.0,1,174.0,1
1074,1074,0.4683977677918775,0.5,1.0,1.0,464.0,581.0,1.0,1,145.0,1
1075,1075,0.30711631698036845,0.3,0.0,0.0,416.0,885.0,0.0,1,-261.0,1
1076,1076,-0.34781737354447495,-0.3,0.0,1.0,269.0,857.0,0.0,1,-196.0,0
1077,1077,-0.7866411882579676,-0.8,0.0,1.0,490.0,954.0,1.0,0,276.0,1
1078,1078,0.35725758050863365,0.4,1.0,1.0,383.0,743.0,1.0,1,464.0,1
1079,1079,0.425061575288853,0.4,1.0,1.0,309.0,835.0,0.0,0,-524.0,0
1080,1080,0.6099044205657723,0.6,0.0,0.0,441.0,588.0,0.0,1,41.0,1
1081,1081,-0.8554507486715859,-0.9,0.0,1.0,427.0,779.0,0.0,1,-256.0,0
1082,1082,-0.4907624780651693,-0.5,0.0,1.0,327.0,936.0,1.0,0,227.0,1
1083,1083,0.12273701506526435,0.1,0.0,0.0,331.0,859.0,0.0,1,200.0,1
1084,1084,-0.7333998794729774,-0.7,1.0,0.0,482.0,616.0,0.0,0,152.0,1
1085,1085,-0.7719985775158791,-0.8,0.0,1.0,268.0,712.0,0.0,1,-30.0,0
1086,1086,-0.31838632321745186,-0.3,1.0,0.0,371.0,552.0,0.0,0,647.0,1
1087,1087,-0.5826242918953555,-0.6,0.0,1.0,409.0,991.0,1.0,0,140.0,1
1088,1088,-0.5351727705415055,-0.5,1.0,0.0,290.0,905.0,0.0,0,85.0,1
1089,1089,-0.1434687263928387,-0.1,0.0,1.0,258.0,570.0,1.0,0,1562.0,1
1090,1090,-0.004590550731516263,-0.0,0.0,1.0,361.0,600.0,0.0,1,519.0,0
1091,1091,0.7624872240099497,0.8,1.0,1.0,451.0,604.0,1.0,1,115.0,1
1092,1092,0.6343228825075503,0.6,1.0,1.0,322.0,695.0,1.0,1,223.0,1
1093,1093,0.5836886486604912,0.6,1.0,1.0,457.0,744.0,1.0,1,229.0,1
1094,1094,-0.052680104902583014,-0.1,1.0,0.0,398.0,566.0,0.0,0,2036.0,1
1095,1095,0.47017017794059635,0.5,1.0,1.0,281.0,819.0,1.0,1,200.0,1
1096,1096,-0.6623924339012082,-0.7,0.0,1.0,258.0,503.0,1.0,0,749.0,1
1097,1097,-0.7671325677698049,-0.8,1.0,0.0,372.0,740.0,0.0,0,518.0,1
1098,1098,0.5094121004597975,0.5,1.0,1.0,420.0,562.0,1.0,1,468.0,1
1099,1099,0.7448719354487724,0.7,1.0,1.0,425.0,719.0,1.0,1,116.0,1
1100,1100,0.6034457444884113,0.6,1.0,1.0,309.0,822.0,1.0,1,619.0,1
1101,1101,0.2415625893129144,0.2,0.0,0.0,417.0,536.0,0.0,1,617.0,1
1102,1102,-0.8074104076292977,-0.8,0.0,1.0,316.0,818.0,0.0,1,-14.0,0
1103,1103,-0.149177803679318,-0.1,1.0,0.0,366.0,646.0,0.0,0,1758.0,1
1104,1104,-0.44867053470065765,-0.4,1.0,0.0,461.0,820.0,0.0,0,1039.0,1
1105,1105,-0.48812097901257234,-0.5,1.0,0.0,281.0,980.0,0.0,0,159.0,1
1106,1106,0.44826019538784545,0.4,0.0,0.0,292.0,519.0,0.0,1,279.0,1
1107,1107,0.8058935825805881,0.8,1.0,1.0,466.0,635.0,1.0,1,189.0,1
1108,1108,-0.7242157883692659,-0.7,0.0,1.0,489.0,587.0,1.0,0,194.0,1
1109,1109,-0.13544516316983668,-0.1,1.0,0.0,436.0,828.0,0.0,0,1736.0,1
1110,1110,0.8070328563864401,0.8,0.0,0.0,326.0,640.0,0.0,1,34.0,1
1111,1111,-0.1681262046525288,-0.2,0.0,1.0,279.0,761.0,1.0,0,560.0,1
1112,1112,-0.04052373859285918,-0.0,1.0,0.0,455.0,973.0,0.0,0,892.0,1
1113,1113,-0.31190828610146315,-0.3,1.0,0.0,399.0,590.0,0.0,0,461.0,1
1114,1114,-0.27721518574740445,-0.3,1.0,0.0,282.0,853.0,0.0,0,475.0,1
1115,1115,-0.2179468220478138,-0.2,0.0,1.0,479.0,562.0,0.0,1,319.0,0
1116,1116,-0.6214384958318468,-0.6,0.0,1.0,429.0,791.0,0.0,1,30.0,0
1117,1117,0.10304849969669372,0.1,0.0,0.0,292.0,541.0,0.0,1,-93.0,1
1118,1118,-0.6852447106198711,-0.7,0.0,1.0,316.0,795.0,0.0,1,-241.0,0
1119,1119,-0.6130946080019422,-0.6,1.0,0.0,280.0,591.0,0.0,0,559.0,1
1120,1120,0.1822919904053274,0.2,0.0,0.0,454.0,992.0,0.0,1,-356.0,1
1121,1121,-0.5606703197324363,-0.6,0.0,1.0,298.0,590.0,1.0,0,282.0,1
1122,1122,0.5956383856412005,0.6,1.0,1.0,403.0,521.0,1.0,1,56.0,1
1123,1123,0.328260785026781,0.3,1.0,1.0,485.0,558.0,1.0,1,1117.0,1
1124,1124,0.43253870820063767,0.4,1.0,1.0,328.0,523.0,1.0,1,199.0,1
1125,1125,-0.6502752952400513,-0.7,0.0,1.0,322.0,756.0,0.0,1,-248.0,0
1126,1126,0.8600053483234454,0.9,1.0,1.0,302.0,861.0,1.0,1,187.0,1
1127,1127,0.6646874938481736,0.7,1.0,1.0,297.0,967.0,1.0,1,146.0,1
1128,1128,0.3754795979695976,0.4,1.0,1.0,268.0,807.0,1.0,1,145.0,1
1129,1129,0.7108646513028948,0.7,0.0,0.0,268.0,642.0,0.0,1,150.0,1
1130,1130,-0.6155165514376777,-0.6,1.0,0.0,438.0,656.0,0.0,0,6.0,1
1131,1131,-0.34280977128332457,-0.3,1.0,0.0,273.0,944.0,0.0,0,563.0,1
1132,1132,-0.8790233715252842,-0.9,0.0,1.0,405.0,899.0,0.0,1,-564.0,0
1133,1133,0.8245094011942088,0.8,0.0,0.0,370.0,565.0,0.0,1,5.0,1
1134,1134,0.3452651463215669,0.3,0.0,0.0,485.0,572.0,0.0,1,83.0,1
1135,1135,-0.6731107635146629,-0.7,0.0,1.0,276.0,887.0,1.0,0,607.0,1
1136,1136,0.48215216643970604,0.5,1.0,1.0,311.0,861.0,1.0,1,218.0,1
1137,1137,0.6933487540611093,0.7,0.0,0.0,303.0,549.0,0.0,1,198.0,1
1138,1138,0.7548516716860839,0.8,0.0,0.0,250.0,610.0,0.0,1,400.0,1
1139,1139,0.516036160242379,0.5,0.0,0.0,308.0,739.0,0.0,1,263.0,1
1140,1140,-0.104327081169722,-0.1,0.0,1.0,264.0,735.0,0.0,1,-119.0,0
1141,1141,0.05803675724611612,0.1,1.0,1.0,453.0,591.0,1.0,1,1526.0,1
1142,1142,-0.009889139527913704,-0.0,1.0,0.0,448.0,995.0,0.0,0,1557.0,1
1143,1143,-0.5761811161014045,-0.6,1.0,0.0,267.0,857.0,0.0,0,-484.0,1
1144,1144,0.5579228071673102,0.6,0.0,0.0,401.0,647.0,0.0,1,82.0,1
1145,1145,0.3139502302174463,0.3,1.0,1.0,303.0,860.0,1.0,1,257.0,1
1146,1146,0.050964712123903744,0.1,1.0,1.0,498.0,635.0,1.0,1,1037.0,1
1147,1147,-0.13503917503512097,-0.1,1.0,0.0,385.0,675.0,0.0,0,320.0,1
1148,1148,0.05381081451080616,0.1,0.0,0.0,385.0,690.0,0.0,1,-85.0,1
1149,1149,0.14983559321751405,0.1,1.0,1.0,326.0,504.0,0.0,0,-110.0,0
1150,1150,0.02488108629825625,0.0,1.0,1.0,362.0,955.0,0.0,0,1683.0,0
1151,1151,0.5873010460098774,0.6,1.0,1.0,490.0,999.0,0.0,0,-669.0,0
1152,1152,0.47300301059424366,0.5,0.0,0.0,261.0,923.0,0.0,1,46.0,1
1153,1153,0.828994384792557,0.8,0.0,0.0,339.0,698.0,0.0,1,223.0,1
1154,1154,0.019049978035176718,0.0,0.0,0.0,259.0,688.0,0.0,1,-17.0,1
1155,1155,-0.21962028894363972,-0.2,1.0,0.0,320.0,618.0,0.0,0,512.0,1
1156,1156,0.7369262782404923,0.7,1.0,1.0,268.0,634.0,1.0,1,208.0,1
1157,1157,-0.43561759971353037,-0.4,0.0,1.0,277.0,828.0,1.0,0,185.0,1
1158,1158,0.38248154641444165,0.4,0.0,0.0,376.0,709.0,0.0,1,45.0,1
1159,1159,0.5791204345783162,0.6,1.0,1.0,260.0,635.0,1.0,1,125.0,1
1160,1160,-0.617075651941297,-0.6,1.0,0.0,294.0,965.0,0.0,0,381.0,1
1161,1161,-0.5814214453459605,-0.6,0.0,1.0,408.0,789.0,0.0,1,-337.0,0
1162,1162,0.28263843768815333,0.3,1.0,1.0,458.0,795.0,1.0,1,207.0,1
1163,1163,0.8223298367061348,0.8,0.0,0.0,385.0,854.0,0.0,1,261.0,1
1164,1164,0.8577977987916928,0.9,0.0,0.0,416.0,804.0,0.0,1,100.0,1
1165,1165,0.12858155615195177,0.1,1.0,1.0,431.0,681.0,1.0,1,608.0,1
1166,1166,0.6512039964238879,0.7,1.0,1.0,318.0,943.0,1.0,1,289.0,1
1167,1167,-0.13865160693151213,-0.1,1.0,0.0,464.0,923.0,0.0,0,183.0,1
1168,1168,0.5821145390531662,0.6,1.0,1.0,304.0,638.0,1.0,1,118.0,1
1169,1169,-0.4078040284509184,-0.4,0.0,1.0,371.0,858.0,1.0,0,131.0,1
1170,1170,0.0433170917961585,0.0,0.0,0.0,357.0,576.0,0.0,1,597.0,1
1171,1171,-0.8121977724951023,-0.8,1.0,0.0,262.0,749.0,0.0,0,149.0,1
1172,1172,-0.35991419655044343,-0.4,0.0,1.0,352.0,513.0,1.0,0,405.0,1
1173,1173,-0.3900486868529418,-0.4,0.0,1.0,266.0,671.0,1.0,0,813.0,1
1174,1174,-0.8927948802443376,-0.9,1.0,0.0,466.0,655.0,0.0,0,129.0,1
1175,1175,0.6715150087381653,0.7,0.0,0.0,297.0,543.0,0.0,1,150.0,1
1176,1176,-0.19240544616519983,-0.2,1.0,0.0,295.0,573.0,0.0,0,262.0,1
1177,1177,0.4361889278801262,0.4,1.0,1.0,412.0,954.0,1.0,1,164.0,1
1178,1178,0.23663713195319158,0.2,1.0,1.0,261.0,658.0,1.0,1,1531.0,1
1179,1179,-0.5775938416014434,-0.6,0.0,1.0,316.0,703.0,1.0,0,341.0,1
1180,1180,0.7538356244692804,0.8,1.0,1.0,413.0,500.0,1.0,1,117.0,1
1181,1181,0.48767301956179854,0.5,0.0,0.0,384.0,844.0,0.0,1,-318.0,1
1182,1182,-0.7028594955821602,-0.7,1.0,0.0,340.0,553.0,0.0,0,217.0,1
1183,1183,-0.568127424960746,-0.6,0.0,1.0,364.0,568.0,0.0,1,38.0,0
1184,1184,0.1334008299488446,0.1,0.0,0.0,389.0,627.0,0.0,1,-36.0,1
1185,1185,-0.478440188551822,-0.5,0.0,1.0,309.0,557.0,1.0,0,164.0,1
1186,1186,0.24922456589759723,0.2,0.0,0.0,397.0,812.0,0.0,1,-159.0,1
1187,1187,-0.085519626312209,-0.1,0.0,1.0,389.0,538.0,0.0,1,-137.0,0
1188,1188,0.520928443234464,0.5,0.0,0.0,373.0,926.0,0.0,1,71.0,1
1189,1189,-0.1084966947708802,-0.1,0.0,1.0,389.0,895.0,0.0,1,-264.0,0
1190,1190,0.43181292907854296,0.4,0.0,0.0,260.0,874.0,0.0,1,-514.0,1
1191,1191,-0.34509411438393367,-0.3,0.0,1.0,387.0,567.0,1.0,0,756.0,1
1192,1192,0.14959907561496644,0.1,1.0,1.0,315.0,889.0,1.0,1,736.0,1
1193,1193,0.750346813397272,0.8,0.0,0.0,265.0,599.0,0.0,1,46.0,1
1194,1194,-0.6989200532743466,-0.7,1.0,0.0,349.0,629.0,0.0,0,242.0,1
1195,1195,0.8610422109650194,0.9,1.0,1.0,271.0,767.0,1.0,1,132.0,1
1196,1196,0.3316232954757258,0.3,0.0,0.0,350.0,768.0,0.0,1,392.0,1
1197,1197,0.8906382047663178,0.9,0.0,0.0,374.0,761.0,0.0,1,-115.0,1
1198,1198,0.18473368284274272,0.2,0.0,0.0,483.0,720.0,0.0,1,177.0,1
1199,1199,-0.5612554490692243,-0.6,1.0,0.0,424.0,739.0,0.0,0,217.0,1
1200,1200,0.8329904175651891,0.8,1.0,1.0,489.0,528.0,1.0,1,113.0,1
1201,1201,-0.4001343881617536,-0.4,1.0,0.0,355.0,840.0,0.0,0,255.0,1
1202,1202,0.218777914587576,0.2,1.0,1.0,355.0,515.0,1.0,1,240.0,1
1203,1203,-0.7630713883663401,-0.8,0.0,1.0,276.0,874.0,1.0,0,160.0,1
1204,1204,-0.23134728008118743,-0.2,0.0,1.0,296.0,932.0,1.0,0,1142.0,1
1205,1205,-0.0530318575131562,-0.1,1.0,0.0,486.0,910.0,0.0,0,1024.0,1
1206,1206,0.4105428592984569,0.4,0.0,0.0,440.0,557.0,0.0,1,173.0,1
1207,1207,0.8870203720724495,0.9,0.0,0.0,397.0,640.0,0.0,1,53.0,1
1208,1208,-0.8620514157709023,-0.9,0.0,1.0,413.0,754.0,0.0,1,-47.0,0
1209,1209,-0.26346345038894436,-0.3,0.0,1.0,454.0,658.0,1.0,0,1358.0,1
1210,1210,-0.5035896375807607,-0.5,0.0,1.0,256.0,752.0,1.0,0,372.0,1
1211,1211,0.5330112884661576,0.5,1.0,1.0,392.0,737.0,1.0,1,171.0,1
1212,1212,0.29225816166966034,0.3,0.0,0.0,459.0,624.0,0.0,1,207.0,1
1213,1213,0.6498950977277328,0.6,1.0,1.0,340.0,970.0,1.0,1,230.0,1
1214,1214,-0.7414179836145363,-0.7,1.0,0.0,414.0,701.0,0.0,0,255.0,1
1215,1215,-0.6635794141846503,-0.7,0.0,1.0,468.0,844.0,1.0,0,198.0,1
1216,1216,-0.24317322004167163,-0.2,1.0,0.0,344.0,534.0,0.0,0,682.0,1
1217,1217,0.04245235778074219,0.0,1.0,1.0,300.0,763.0,1.0,1,1937.0,1
1218,1218,0.33864874767786846,0.3,0.0,0.0,431.0,547.0,0.0,1,182.0,1
1219,1219,0.039760693929916435,0.0,0.0,0.0,424.0,915.0,0.0,1,1011.0,1
1220,1220,0.2927643269706254,0.3,0.0,0.0,474.0,790.0,0.0,1,-344.0,1
1221,1221,-0.0251106600860469,-0.0,0.0,1.0,321.0,755.0,0.0,1,424.0,0
1222,1222,0.05710821412838685,0.1,1.0,1.0,495.0,720.0,1.0,1,1785.0,1
1223,1223,0.6907649138562401,0.7,1.0,1.0,401.0,904.0,1.0,1,245.0,1
1224,1224,-0.717197092465708,-0.7,0.0,1.0,467.0,836.0,1.0,0,387.0,1
1225,1225,-0.4326034292450726,-0.4,1.0,0.0,385.0,952.0,0.0,0,593.0,1
1226,1226,-0.036052542193001025,-0.0,1.0,0.0,348.0,965.0,1.0,1,1687.0,0
1227,1227,-0.692065727669675,-0.7,1.0,0.0,451.0,697.0,0.0,0,532.0,1
1228,1228,0.5200475276072191,0.5,1.0,1.0,433.0,865.0,1.0,1,112.0,1
1229,1229,-0.18063598058421493,-0.2,1.0,0.0,324.0,749.0,0.0,0,1267.0,1
1230,1230,-0.3989742193973943,-0.4,0.0,1.0,402.0,530.0,1.0,0,888.0,1
1231,1231,-0.07891630165740404,-0.1,0.0,1.0,454.0,660.0,0.0,1,186.0,0
1232,1232,-0.4548682305532166,-0.5,1.0,0.0,254.0,908.0,0.0,0,508.0,1
1233,1233,-0.38270277021962884,-0.4,1.0,0.0,408.0,550.0,0.0,0,372.0,1
1234,1234,0.13023423378958177,0.1,1.0,1.0,487.0,925.0,1.0,1,728.0,1
1235,1235,0.8940227856394735,0.9,0.0,0.0,422.0,846.0,1.0,0,-108.0,0
1236,1236,-0.420847975993364,-0.4,1.0,0.0,385.0,616.0,0.0,0,519.0,1
1237,1237,0.5247361011421025,0.5,1.0,1.0,338.0,584.0,1.0,1,298.0,1
1238,1238,-0.7237828122778135,-0.7,0.0,1.0,401.0,938.0,0.0,1,-489.0,0
1239,1239,0.23902458350158595,0.2,0.0,0.0,465.0,826.0,0.0,1,-41.0,1
1240,1240,0.705441110892551,0.7,0.0,0.0,324.0,965.0,0.0,1,251.0,1
1241,1241,0.2727380977723465,0.3,1.0,1.0,320.0,571.0,0.0,0,-11.0,0
1242,1242,0.770515594561329,0.8,1.0,1.0,338.0,761.0,1.0,1,231.0,1
1243,1243,0.6934807053382489,0.7,1.0,1.0,421.0,680.0,1.0,1,249.0,1
1244,1244,0.011577017539112111,0.0,1.0,1.0,280.0,840.0,0.0,0,1880.0,0
1245,1245,-0.4957925215839107,-0.5,1.0,0.0,418.0,805.0,0.0,0,-393.0,1
1246,1246,0.6674282048357371,0.7,0.0,0.0,340.0,726.0,0.0,1,-306.0,1
1247,1247,-0.5002533312696809,-0.5,0.0,1.0,261.0,644.0,1.0,0,525.0,1
1248,1248,-0.4112198838922004,-0.4,0.0,1.0,269.0,771.0,1.0,0,270.0,1
1249,1249,-0.28902423511335695,-0.3,1.0,0.0,321.0,643.0,0.0,0,886.0,1
1250,1250,0.8972554413296671,0.9,1.0,1.0,270.0,505.0,1.0,1,145.0,1
1251,1251,-0.43264831728997455,-0.4,1.0,0.0,413.0,727.0,0.0,0,330.0,1
1252,1252,0.2801075910275176,0.3,0.0,0.0,397.0,554.0,0.0,1,269.0,1
1253,1253,-0.6438602437420312,-0.6,0.0,1.0,282.0,689.0,1.0,0,279.0,1
1254,1254,-0.22563710914110469,-0.2,0.0,1.0,402.0,997.0,0.0,1,-509.0,0
1255,1255,-0.7918691252924874,-0.8,0.0,1.0,306.0,970.0,0.0,1,-116.0,0
1256,1256,0.41754778434202067,0.4,0.0,0.0,298.0,815.0,0.0,1,247.0,1
1257,1257,-0.07461980933200629,-0.1,0.0,1.0,485.0,566.0,0.0,1,629.0,0
1258,1258,0.004519881320717789,0.0,0.0,0.0,303.0,768.0,1.0,0,1929.0,0
1259,1259,0.7026285868212706,0.7,1.0,1.0,396.0,840.0,1.0,1,234.0,1
1260,1260,0.570257856417223,0.6,0.0,0.0,433.0,557.0,0.0,1,40.0,1
1261,1261,-0.025428393475197986,-0.0,1.0,0.0,457.0,638.0,1.0,1,1905.0,0
1262,1262,-0.39122159469502826,-0.4,1.0,0.0,330.0,520.0,0.0,0,730.0,1
1263,1263,0.4877959298340483,0.5,1.0,1.0,295.0,607.0,1.0,1,448.0,1
1264,1264,-0.14664602420733086,-0.1,0.0,1.0,442.0,745.0,0.0,1,-37.0,0
1265,1265,-0.13228707076954793,-0.1,0.0,1.0,268.0,747.0,0.0,1,825.0,0
1266,1266,0.3927019082590465,0.4,1.0,1.0,417.0,593.0,1.0,1,160.0,1
1267,1267,-0.4828759511042805,-0.5,1.0,0.0,276.0,815.0,0.0,0,179.0,1
1268,1268,-0.47998220686834064,-0.5,0.0,1.0,384.0,902.0,0.0,1,-556.0,0
1269,1269,-0.16913702304192868,-0.2,1.0,0.0,342.0,971.0,0.0,0,-723.0,1
1270,1270,0.22157815158036354,0.2,1.0,1.0,352.0,686.0,0.0,0,-38.0,0
1271,1271,-0.7337920735675577,-0.7,1.0,0.0,472.0,838.0,0.0,0,280.0,1
1272,1272,-0.4946385358933088,-0.5,1.0,0.0,481.0,545.0,0.0,0,464.0,1
1273,1273,-0.3081150005869636,-0.3,1.0,0.0,390.0,596.0,0.0,0,394.0,1
1274,1274,0.02391503690537755,0.0,0.0,0.0,475.0,867.0,0.0,1,878.0,1
1275,1275,-0.10521044679987634,-0.1,0.0,1.0,266.0,777.0,0.0,1,1117.0,0
1276,1276,-0.3272937507956264,-0.3,0.0,1.0,483.0,918.0,1.0,0,759.0,1
1277,1277,0.07472885405804808,0.1,1.0,1.0,333.0,601.0,1.0,1,2066.0,1
1278,1278,-0.4831004999404313,-0.5,1.0,0.0,307.0,856.0,0.0,0,-363.0,1
1279,1279,0.8405471446585692,0.8,1.0,1.0,352.0,866.0,1.0,1,-448.0,1
1280,1280,0.3201169839185968,0.3,0.0,0.0,369.0,918.0,0.0,1,-427.0,1
1281,1281,0.40530734349149034,0.4,0.0,0.0,416.0,558.0,0.0,1,196.0,1
1282,1282,-0.5280612993505269,-0.5,0.0,1.0,287.0,566.0,1.0,0,247.0,1
1283,1283,-0.321905503890876,-0.3,1.0,0.0,431.0,951.0,0.0,0,598.0,1
1284,1284,0.5001702913281793,0.5,1.0,1.0,491.0,932.0,1.0,1,237.0,1
1285,1285,0.09462081488858376,0.1,1.0,1.0,281.0,876.0,1.0,1,883.0,1
1286,1286,-0.8112197486170555,-0.8,0.0,1.0,297.0,510.0,1.0,0,163.0,1
1287,1287,0.23110055428911191,0.2,1.0,1.0,426.0,640.0,1.0,1,194.0,1
1288,1288,0.391042783060369,0.4,1.0,1.0,448.0,754.0,1.0,1,48.0,1
1289,1289,-0.3584014851049361,-0.4,0.0,1.0,386.0,575.0,1.0,0,259.0,1
1290,1290,0.11294827632526483,0.1,1.0,1.0,486.0,634.0,1.0,1,1880.0,1
1291,1291,-0.8260720228326862,-0.8,0.0,1.0,293.0,959.0,0.0,1,-402.0,0
1292,1292,0.6682152814296513,0.7,1.0,1.0,301.0,500.0,1.0,1,179.0,1
1293,1293,0.7998555824493331,0.8,0.0,0.0,386.0,901.0,0.0,1,-327.0,1
1294,1294,-0.7833975054859417,-0.8,1.0,0.0,390.0,699.0,0.0,0,111.0,1
1295,1295,0.0347739933312049,0.0,1.0,1.0,478.0,791.0,1.0,1,1731.0,1
1296,1296,-0.365591616131529,-0.4,1.0,0.0,301.0,816.0,0.0,0,433.0,1
1297,1297,0.520881853735908,0.5,0.0,0.0,363.0,930.0,0.0,1,167.0,1
1298,1298,0.5311125833152314,0.5,1.0,1.0,416.0,874.0,1.0,1,190.0,1
1299,1299,-0.25460617660968876,-0.3,0.0,1.0,292.0,615.0,1.0,0,2093.0,1
1300,1300,-0.09962437237965172,-0.1,1.0,0.0,465.0,756.0,0.0,0,1779.0,1
1301,1301,0.581117147701128,0.6,1.0,1.0,413.0,945.0,1.0,1,142.0,1
1302,1302,0.20988728775197185,0.2,0.0,0.0,449.0,728.0,0.0,1,153.0,1
1303,1303,-0.143939384238719,-0.1,0.0,1.0,376.0,694.0,1.0,0,480.0,1
1304,1304,0.6434886015262803,0.6,0.0,0.0,319.0,569.0,0.0,1,232.0,1
1305,1305,-0.8215540956942402,-0.8,0.0,1.0,466.0,626.0,1.0,0,278.0,1
1306,1306,0.33515630408477126,0.3,1.0,1.0,464.0,765.0,1.0,1,321.0,1
1307,1307,-0.568753712459968,-0.6,1.0,0.0,384.0,633.0,0.0,0,273.0,1
1308,1308,-0.08977277850606102,-0.1,1.0,0.0,421.0,725.0,0.0,0,1854.0,1
1309,1309,-0.12069092009126325,-0.1,0.0,1.0,296.0,918.0,0.0,1,1226.0,0
1310,1310,-0.6684670602451982,-0.7,1.0,0.0,434.0,761.0,0.0,0,-655.0,1
1311,1311,0.2899941658071937,0.3,0.0,0.0,471.0,992.0,0.0,1,377.0,1
1312,1312,-0.8763778299317151,-0.9,1.0,0.0,362.0,950.0,0.0,0,278.0,1
1313,1313,-0.03898296750152852,-0.0,1.0,0.0,402.0,652.0,0.0,0,1946.0,1
1314,1314,-0.3391471409232448,-0.3,1.0,0.0,398.0,732.0,0.0,0,40.0,1
1315,1315,0.8373861567378634,0.8,1.0,1.0,482.0,795.0,1.0,1,193.0,1
1316,1316,0.8371585177650146,0.8,1.0,1.0,488.0,750.0,1.0,1,122.0,1
1317,1317,-0.12929820764684385,-0.1,1.0,0.0,316.0,653.0,0.0,0,291.0,1
1318,1318,-0.15304166340628034,-0.2,1.0,0.0,441.0,752.0,0.0,0,1497.0,1
1319,1319,0.5333109055230513,0.5,0.0,0.0,428.0,863.0,0.0,1,109.0,1
1320,1320,-0.5975527357755452,-0.6,1.0,0.0,461.0,835.0,0.0,0,74.0,1
1321,1321,0.6128966628859888,0.6,0.0,0.0,409.0,781.0,0.0,1,-490.0,1
1322,1322,-0.7745281919162864,-0.8,1.0,0.0,424.0,993.0,0.0,0,363.0,1
1323,1323,0.4851261101071688,0.5,0.0,0.0,410.0,763.0,0.0,1,-43.0,1
1324,1324,0.36047363217125217,0.4,1.0,1.0,262.0,789.0,1.0,1,229.0,1
1325,1325,0.021994586823660622,0.0,0.0,0.0,309.0,723.0,0.0,1,-102.0,1
1326,1326,-0.6151306466114188,-0.6,1.0,0.0,497.0,961.0,0.0,0,352.0,1
1327,1327,0.44607226920403786,0.4,1.0,1.0,295.0,520.0,1.0,1,195.0,1
1328,1328,-0.8117287319209417,-0.8,0.0,1.0,474.0,694.0,1.0,0,182.0,1
1329,1329,-0.7876315324858411,-0.8,0.0,1.0,463.0,653.0,1.0,0,384.0,1
1330,1330,0.6812611934647711,0.7,1.0,1.0,273.0,691.0,1.0,1,206.0,1
1331,1331,-0.059468964358404985,-0.1,1.0,0.0,326.0,891.0,1.0,1,1783.0,0
1332,1332,0.1649984838056936,0.2,1.0,1.0,288.0,539.0,1.0,1,1233.0,1
1333,1333,0.03015252996645945,0.0,0.0,0.0,488.0,991.0,0.0,1,461.0,1
1334,1334,0.5990967674774516,0.6,1.0,1.0,338.0,805.0,1.0,1,317.0,1
1335,1335,-0.27218834248204926,-0.3,0.0,1.0,445.0,990.0,0.0,1,235.0,0
1336,1336,-0.3687490361766753,-0.4,0.0,1.0,285.0,861.0,1.0,0,384.0,1
1337,1337,-0.11731033135159985,-0.1,1.0,0.0,368.0,966.0,0.0,0,1666.0,1
1338,1338,0.190064988544156,0.2,0.0,0.0,277.0,705.0,0.0,1,88.0,1
1339,1339,-0.11821530285125692,-0.1,1.0,0.0,450.0,841.0,1.0,1,1399.0,0
1340,1340,-0.2918329417374864,-0.3,0.0,1.0,341.0,913.0,1.0,0,736.0,1
1341,1341,0.2584040051567703,0.3,1.0,1.0,281.0,778.0,1.0,1,451.0,1
1342,1342,-0.005052942440968988,-0.0,1.0,0.0,401.0,814.0,1.0,1,1785.0,0
1343,1343,0.10410519161124887,0.1,0.0,0.0,267.0,528.0,0.0,1,505.0,1
1344,1344,0.6823373186816367,0.7,0.0,0.0,397.0,889.0,0.0,1,124.0,1
1345,1345,-0.1238502592521008,-0.1,1.0,0.0,340.0,537.0,0.0,0,2123.0,1
1346,1346,0.7182025741431405,0.7,0.0,0.0,446.0,838.0,0.0,1,-64.0,1
1347,1347,0.44485956911686986,0.4,0.0,0.0,464.0,800.0,0.0,1,216.0,1
1348,1348,-0.2983803458304286,-0.3,1.0,0.0,374.0,983.0,0.0,0,93.0,1
1349,1349,-0.22501198151632706,-0.2,0.0,1.0,308.0,679.0,1.0,0,703.0,1
1350,1350,-0.4451602249826278,-0.4,1.0,0.0,362.0,964.0,0.0,0,524.0,1
1351,1351,-0.8051060279935427,-0.8,0.0,1.0,435.0,744.0,0.0,1,-209.0,0
1352,1352,0.23131404622558283,0.2,0.0,0.0,274.0,857.0,0.0,1,9.0,1
1353,1353,0.29813681835171,0.3,1.0,1.0,252.0,871.0,1.0,1,357.0,1
1354,1354,-0.4892815666982277,-0.5,0.0,1.0,442.0,616.0,1.0,0,212.0,1
1355,1355,0.49223589073524854,0.5,0.0,0.0,313.0,963.0,0.0,1,224.0,1
1356,1356,-0.5282342565240358,-0.5,0.0,1.0,446.0,533.0,1.0,0,321.0,1
1357,1357,0.8412957546032246,0.8,0.0,0.0,325.0,818.0,0.0,1,67.0,1
1358,1358,-0.5003626852624705,-0.5,0.0,1.0,455.0,609.0,0.0,1,-144.0,0
1359,1359,-0.46821260437936835,-0.5,0.0,1.0,360.0,678.0,1.0,0,412.0,1
1360,1360,0.31541861409487415,0.3,0.0,0.0,283.0,943.0,0.0,1,264.0,1
1361,1361,0.5601215413279402,0.6,0.0,0.0,480.0,984.0,0.0,1,286.0,1
1362,1362,-0.547504971522367,-0.5,0.0,1.0,437.0,773.0,1.0,0,450.0,1
1363,1363,0.21861935587922654,0.2,1.0,1.0,279.0,542.0,1.0,1,499.0,1
1364,1364,0.12764127601800135,0.1,0.0,0.0,467.0,881.0,0.0,1,162.0,1
1365,1365,-0.02347719631488132,-0.0,0.0,1.0,318.0,847.0,0.0,1,805.0,0
1366,1366,0.8359612947856118,0.8,1.0,1.0,438.0,869.0,1.0,1,123.0,1
1367,1367,-0.6099510766005614,-0.6,1.0,0.0,430.0,573.0,0.0,0,317.0,1
1368,1368,-0.7901008219261386,-0.8,0.0,1.0,253.0,772.0,1.0,0,165.0,1
1369,1369,-0.5022130668836248,-0.5,1.0,0.0,406.0,876.0,1.0,1,-412.0,0
1370,1370,0.8495096794957212,0.8,1.0,1.0,459.0,909.0,1.0,1,132.0,1
1371,1371,0.3870147560400373,0.4,0.0,0.0,351.0,554.0,0.0,1,115.0,1
1372,1372,-0.8049398343419712,-0.8,1.0,0.0,495.0,667.0,0.0,0,338.0,1
1373,1373,0.08022733292326478,0.1,0.0,0.0,373.0,913.0,0.0,1,4.0,1
1374,1374,-0.23771015082760738,-0.2,1.0,0.0,280.0,615.0,0.0,0,765.0,1
1375,1375,0.18799850881471014,0.2,0.0,0.0,437.0,930.0,0.0,1,143.0,1
1376,1376,-0.0958067776597703,-0.1,0.0,1.0,363.0,574.0,1.0,0,843.0,1
1377,1377,0.24923103322689177,0.2,0.0,0.0,394.0,836.0,0.0,1,190.0,1
1378,1378,-0.7060369293945656,-0.7,1.0,0.0,424.0,658.0,0.0,0,498.0,1
1379,1379,-0.043493270609782364,-0.0,0.0,1.0,258.0,865.0,0.0,1,357.0,0
1380,1380,-0.3825552938430141,-0.4,1.0,0.0,427.0,615.0,0.0,0,648.0,1
1381,1381,0.04299166647631136,0.0,1.0,1.0,434.0,782.0,1.0,1,1784.0,1
1382,1382,-0.08789561137412483,-0.1,0.0,1.0,497.0,661.0,0.0,1,342.0,0
1383,1383,-0.7787401533540262,-0.8,1.0,0.0,317.0,591.0,0.0,0,232.0,1
1384,1384,-0.40919711272525544,-0.4,1.0,0.0,277.0,935.0,0.0,0,618.0,1
1385,1385,0.4473811991688156,0.4,1.0,1.0,445.0,805.0,1.0,1,60.0,1
1386,1386,0.05640174276509957,0.1,0.0,0.0,345.0,768.0,0.0,1,-323.0,1
1387,1387,-0.638516303633762,-0.6,0.0,1.0,299.0,631.0,1.0,0,260.0,1
1388,1388,0.3114530276000286,0.3,1.0,1.0,325.0,609.0,1.0,1,716.0,1
1389,1389,-0.8710881611480783,-0.9,0.0,1.0,346.0,983.0,0.0,1,-49.0,0
1390,1390,-0.25580373387772715,-0.3,1.0,0.0,485.0,962.0,0.0,0,1553.0,1
1391,1391,0.14761108490130803,0.1,1.0,1.0,404.0,783.0,1.0,1,1463.0,1
1392,1392,0.013019902325362986,0.0,0.0,0.0,312.0,517.0,0.0,1,131.0,1
1393,1393,0.7187489235113654,0.7,0.0,0.0,385.0,687.0,0.0,1,228.0,1
1394,1394,-0.18541834366340681,-0.2,0.0,1.0,309.0,693.0,1.0,0,568.0,1
1395,1395,-0.6792697788177231,-0.7,1.0,0.0,336.0,696.0,0.0,0,308.0,1
1396,1396,0.5935816442743408,0.6,0.0,0.0,308.0,937.0,0.0,1,-285.0,1
1397,1397,0.14998189056948352,0.1,1.0,1.0,475.0,715.0,1.0,1,1640.0,1
1398,1398,-0.7232069069325829,-0.7,0.0,1.0,360.0,775.0,1.0,0,155.0,1
1399,1399,-0.46645216971274034,-0.5,1.0,0.0,336.0,801.0,0.0,0,513.0,1
1400,1400,-0.3470929730949863,-0.3,1.0,0.0,459.0,636.0,0.0,0,185.0,1
1401,1401,0.6035157986622751,0.6,1.0,1.0,482.0,647.0,1.0,1,261.0,1
1402,1402,-0.10547658835613116,-0.1,1.0,0.0,459.0,771.0,0.0,0,1770.0,1
1403,1403,-0.37809031456671915,-0.4,0.0,1.0,431.0,599.0,0.0,1,-40.0,0
1404,1404,-0.5127359221918364,-0.5,1.0,0.0,448.0,902.0,0.0,0,310.0,1
1405,1405,0.32765585807957576,0.3,0.0,0.0,423.0,640.0,0.0,1,7.0,1
1406,1406,-0.4418371694639402,-0.4,0.0,1.0,448.0,762.0,1.0,0,400.0,1
1407,1407,-0.632547722268649,-0.6,1.0,0.0,460.0,859.0,0.0,0,471.0,1
1408,1408,-0.3665022315577625,-0.4,0.0,1.0,419.0,667.0,0.0,1,74.0,0
1409,1409,-0.5983386799595747,-0.6,0.0,1.0,263.0,513.0,1.0,0,354.0,1
1410,1410,0.4463056499804555,0.4,0.0,0.0,256.0,799.0,0.0,1,115.0,1
1411,1411,0.7944685466577176,0.8,1.0,1.0,345.0,758.0,1.0,1,207.0,1
1412,1412,0.21681995063133386,0.2,0.0,0.0,365.0,773.0,0.0,1,62.0,1
1413,1413,-0.3479545732585664,-0.3,0.0,1.0,275.0,597.0,1.0,0,278.0,1
1414,1414,-0.7750747295871369,-0.8,0.0,1.0,314.0,963.0,1.0,0,143.0,1
1415,1415,-0.4820158357918846,-0.5,0.0,1.0,494.0,918.0,0.0,1,-332.0,0
1416,1416,-0.6376376358020045,-0.6,1.0,0.0,265.0,830.0,0.0,0,-245.0,1
1417,1417,-0.41071088995445215,-0.4,1.0,0.0,258.0,941.0,0.0,0,861.0,1
1418,1418,0.0033841921433124256,0.0,0.0,0.0,286.0,992.0,0.0,1,-488.0,1
1419,1419,0.8294804771993706,0.8,1.0,1.0,302.0,734.0,1.0,1,174.0,1
1420,1420,0.7365743488175965,0.7,0.0,0.0,472.0,641.0,0.0,1,-303.0,1
1421,1421,-0.7018018796950931,-0.7,1.0,0.0,410.0,667.0,0.0,0,323.0,1
1422,1422,0.39706766268385596,0.4,0.0,0.0,280.0,968.0,0.0,1,282.0,1
1423,1423,-0.3607145104415522,-0.4,0.0,1.0,407.0,610.0,1.0,0,1113.0,1
1424,1424,0.04268186746006619,0.0,0.0,0.0,295.0,684.0,0.0,1,21.0,1
1425,1425,-0.04158761528342725,-0.0,1.0,0.0,418.0,696.0,1.0,1,1886.0,0
1426,1426,-0.05569143874946125,-0.1,1.0,0.0,391.0,831.0,0.0,0,1778.0,1
1427,1427,-0.12271891983803973,-0.1,0.0,1.0,428.0,846.0,0.0,1,396.0,0
1428,1428,-0.5145592250170596,-0.5,0.0,1.0,412.0,658.0,1.0,0,280.0,1
1429,1429,0.6591574341776826,0.7,0.0,0.0,332.0,703.0,0.0,1,-115.0,1
1430,1430,0.5331647975057511,0.5,1.0,1.0,492.0,520.0,1.0,1,328.0,1
1431,1431,0.4183893219452487,0.4,0.0,0.0,477.0,978.0,0.0,1,25.0,1
1432,1432,0.327200218766028,0.3,1.0,1.0,367.0,852.0,1.0,1,411.0,1
1433,1433,0.004374089579916363,0.0,1.0,1.0,338.0,646.0,1.0,1,2016.0,1
1434,1434,-0.5248923467651728,-0.5,0.0,1.0,303.0,502.0,1.0,0,515.0,1
1435,1435,-0.828355313449731,-0.8,1.0,0.0,404.0,910.0,0.0,0,156.0,1
1436,1436,-0.29664868310214465,-0.3,0.0,1.0,299.0,690.0,1.0,0,381.0,1
1437,1437,-0.7303124897095772,-0.7,1.0,0.0,261.0,687.0,0.0,0,562.0,1
1438,1438,-0.8406751254538208,-0.8,0.0,1.0,330.0,661.0,1.0,0,89.0,1
1439,1439,0.3183862409451129,0.3,1.0,1.0,289.0,901.0,1.0,1,110.0,1
1440,1440,0.8709399746292087,0.9,1.0,1.0,289.0,696.0,1.0,1,155.0,1
1441,1441,0.1380774078334136,0.1,1.0,1.0,492.0,677.0,1.0,1,691.0,1
1442,1442,-0.35995534548823227,-0.4,0.0,1.0,499.0,872.0,1.0,0,1319.0,1
1443,1443,-0.0855194045368064,-0.1,1.0,0.0,433.0,880.0,0.0,0,1687.0,1
1444,1444,-0.8793895388915149,-0.9,1.0,0.0,456.0,949.0,0.0,0,165.0,1
1445,1445,-0.7132577487240428,-0.7,0.0,1.0,322.0,985.0,0.0,1,-827.0,0
1446,1446,-0.5534354065891087,-0.6,0.0,1.0,497.0,755.0,1.0,0,88.0,1
1447,1447,-0.2353809288882528,-0.2,1.0,0.0,314.0,603.0,0.0,0,1463.0,1
1448,1448,0.6272203411570233,0.6,1.0,1.0,387.0,932.0,1.0,1,91.0,1
1449,1449,0.19931713155509378,0.2,1.0,1.0,497.0,958.0,1.0,1,1315.0,1
1450,1450,-0.5845652125319136,-0.6,1.0,0.0,315.0,697.0,0.0,0,268.0,1
1451,1451,0.6231565837569916,0.6,0.0,0.0,357.0,692.0,0.0,1,211.0,1
1452,1452,-0.27153074742896544,-0.3,0.0,1.0,383.0,525.0,1.0,0,672.0,1
1453,1453,0.6482571512666261,0.6,1.0,1.0,474.0,709.0,1.0,1,157.0,1
1454,1454,-0.2993283733378568,-0.3,0.0,1.0,257.0,814.0,0.0,1,-421.0,0
1455,1455,-0.15049438216865085,-0.2,0.0,1.0,485.0,934.0,0.0,1,41.0,0
1456,1456,-0.2785795529092193,-0.3,1.0,0.0,308.0,506.0,0.0,0,1706.0,1
1457,1457,-0.5662973760308232,-0.6,0.0,1.0,463.0,743.0,1.0,0,184.0,1
1458,1458,-0.5545920786112062,-0.6,0.0,1.0,281.0,902.0,0.0,1,-443.0,0
1459,1459,-0.6873999378190123,-0.7,1.0,0.0,309.0,673.0,0.0,0,368.0,1
1460,1460,0.651222343462646,0.7,1.0,1.0,312.0,676.0,1.0,1,302.0,1
1461,1461,-0.33462138589098733,-0.3,0.0,1.0,435.0,560.0,1.0,0,505.0,1
1462,1462,0.058137905629338515,0.1,0.0,0.0,499.0,798.0,0.0,1,243.0,1
1463,1463,0.752784617614734,0.8,1.0,1.0,304.0,877.0,1.0,1,199.0,1
1464,1464,-0.565940889390233,-0.6,0.0,1.0,330.0,568.0,1.0,0,362.0,1
1465,1465,0.4121494095795025,0.4,0.0,0.0,494.0,749.0,0.0,1,-333.0,1
1466,1466,-0.36719975706694985,-0.4,0.0,1.0,442.0,614.0,1.0,0,94.0,1
1467,1467,-0.17024539903222669,-0.2,1.0,0.0,389.0,612.0,1.0,1,1699.0,0
1468,1468,-0.06475889956736436,-0.1,1.0,0.0,303.0,602.0,0.0,0,2095.0,1
1469,1469,-0.367542492632001,-0.4,0.0,1.0,288.0,807.0,0.0,1,-355.0,0
1470,1470,-0.37125666558823367,-0.4,0.0,1.0,402.0,717.0,0.0,1,-99.0,0
1471,1471,0.22157189289457524,0.2,0.0,0.0,346.0,946.0,0.0,1,-442.0,1
1472,1472,-0.05697470964517659,-0.1,0.0,1.0,330.0,784.0,0.0,1,1086.0,0
1473,1473,0.49186020861657476,0.5,0.0,0.0,433.0,590.0,0.0,1,287.0,1
1474,1474,0.04037292755237165,0.0,0.0,0.0,355.0,845.0,0.0,1,20.0,1
1475,1475,-0.6247393008232365,-0.6,0.0,1.0,382.0,913.0,0.0,1,-455.0,0
1476,1476,0.5983321354638028,0.6,1.0,1.0,332.0,845.0,1.0,1,373.0,1
1477,1477,-0.4908367031528433,-0.5,1.0,0.0,441.0,948.0,0.0,0,221.0,1
1478,1478,0.3473940512866901,0.3,0.0,0.0,359.0,637.0,0.0,1,434.0,1
1479,1479,-0.7983749809318385,-0.8,0.0,1.0,362.0,614.0,1.0,0,174.0,1
1480,1480,-0.05935259313420094,-0.1,1.0,0.0,259.0,873.0,0.0,0,1868.0,1
1481,1481,-0.6714235338344694,-0.7,1.0,0.0,281.0,817.0,0.0,0,182.0,1
1482,1482,0.6542941718137479,0.7,0.0,0.0,286.0,692.0,0.0,1,162.0,1
1483,1483,-0.1334489620813245,-0.1,1.0,0.0,266.0,659.0,0.0,0,2075.0,1
1484,1484,0.08648309804651488,0.1,1.0,1.0,426.0,812.0,1.0,1,152.0,1
1485,1485,0.8988451299078318,0.9,0.0,0.0,278.0,516.0,0.0,1,-174.0,1
1486,1486,-0.5638772251619306,-0.6,0.0,1.0,399.0,629.0,0.0,1,22.0,0
1487,1487,0.47191720694334227,0.5,0.0,0.0,406.0,553.0,0.0,1,211.0,1
1488,1488,-0.12966859000475417,-0.1,1.0,0.0,386.0,612.0,0.0,0,692.0,1
1489,1489,0.4630543762929026,0.5,1.0,1.0,293.0,838.0,1.0,1,549.0,1
