,trial,coherence,coherence_bin,green_side,correct_side,target_onset,checker_onset,decision,green_decision,decision_time,correct_decision
0,0,-0.8307470841630293,-0.8,1.0,0.0,457.0,509.0,0.0,0,74.0,1
1,1,0.5767645448448507,0.6,1.0,1.0,256.0,871.0,1.0,1,723.0,1
2,2,-0.29398501537344945,-0.3,0.0,1.0,277.0,817.0,1.0,0,1966.0,1
3,3,0.8758044260440035,0.9,0.0,0.0,405.0,504.0,0.0,1,201.0,1
4,4,0.761848098336323,0.8,1.0,1.0,271.0,561.0,1.0,1,338.0,1
5,5,0.09971620578871687,0.1,1.0,1.0,420.0,713.0,0.0,0,67.0,0
6,6,-0.4049443617349136,-0.4,0.0,1.0,302.0,553.0,1.0,0,505.0,1
7,7,-0.3583689821719096,-0.4,1.0,0.0,294.0,623.0,0.0,0,343.0,1
8,8,0.5071415651486847,0.5,1.0,1.0,467.0,866.0,1.0,1,267.0,1
9,9,-0.31379604075182166,-0.3,1.0,0.0,449.0,787.0,0.0,0,994.0,1
10,10,0.0792333670902785,0.1,0.0,0.0,437.0,797.0,0.0,1,2496.0,1
11,11,-0.6231350355305353,-0.6,1.0,0.0,356.0,878.0,0.0,0,456.0,1
12,12,0.7540254501961984,0.8,0.0,0.0,466.0,760.0,0.0,1,214.0,1
13,13,-0.607591019876004,-0.6,0.0,1.0,326.0,675.0,1.0,0,289.0,1
14,14,0.18606581938743438,0.2,0.0,0.0,414.0,909.0,0.0,1,877.0,1
15,15,-0.185536917054978,-0.2,0.0,1.0,391.0,985.0,1.0,0,314.0,1
16,16,-0.8163363019137607,-0.8,1.0,0.0,305.0,892.0,0.0,0,313.0,1
17,17,-0.5453201310504567,-0.5,0.0,1.0,440.0,826.0,1.0,0,484.0,1
18,18,0.4296430507957495,0.4,1.0,1.0,335.0,907.0,1.0,1,238.0,1
19,19,0.08475355293933784,0.1,1.0,1.0,481.0,754.0,0.0,0,2615.0,0
20,20,-0.09741876279156059,-0.1,0.0,1.0,288.0,912.0,0.0,1,3800.0,0
21,21,-0.11279613974040614,-0.1,0.0,1.0,360.0,559.0,0.0,1,691.0,0
22,22,0.8635189158768114,0.9,1.0,1.0,430.0,776.0,1.0,1,254.0,1
23,23,-0.08253821811151196,-0.1,0.0,1.0,454.0,853.0,1.0,0,2173.0,1
24,24,0.7845696623941613,0.8,1.0,1.0,334.0,749.0,1.0,1,237.0,1
25,25,-0.409315452148867,-0.4,0.0,1.0,327.0,537.0,1.0,0,856.0,1
26,26,0.8148081453715456,0.8,0.0,0.0,426.0,880.0,0.0,1,214.0,1
27,27,-0.39436744701872584,-0.4,1.0,0.0,357.0,715.0,0.0,0,978.0,1
28,28,0.07512558437631212,0.1,0.0,0.0,352.0,597.0,0.0,1,731.0,1
29,29,-0.7761498838009722,-0.8,0.0,1.0,342.0,551.0,1.0,0,567.0,1
30,30,0.4102855406940874,0.4,1.0,1.0,437.0,972.0,0.0,0,-409.0,0
31,31,-0.41463993316335335,-0.4,1.0,0.0,436.0,901.0,0.0,0,363.0,1
32,32,0.7139514181449563,0.7,0.0,0.0,499.0,633.0,0.0,1,468.0,1
33,33,-0.41442408501898204,-0.4,1.0,0.0,443.0,999.0,0.0,0,678.0,1
34,34,-0.2234830355459021,-0.2,0.0,1.0,272.0,586.0,1.0,0,2772.0,1
35,35,-0.3395265623308643,-0.3,0.0,1.0,254.0,964.0,1.0,0,642.0,1
36,36,0.28119444509900016,0.3,1.0,1.0,345.0,605.0,0.0,0,-70.0,0
37,37,-0.41437747184498874,-0.4,0.0,1.0,277.0,950.0,1.0,0,853.0,1
38,38,-0.7143926266719285,-0.7,1.0,0.0,365.0,828.0,0.0,0,697.0,1
39,39,-0.0876520974566628,-0.1,1.0,0.0,454.0,973.0,0.0,0,183.0,1
40,40,0.6541751619404587,0.7,1.0,1.0,328.0,520.0,1.0,1,172.0,1
41,41,0.7741099119319274,0.8,1.0,1.0,269.0,981.0,1.0,1,250.0,1
42,42,0.7498218460545975,0.7,1.0,1.0,334.0,797.0,1.0,1,339.0,1
43,43,-0.7769978822485154,-0.8,0.0,1.0,429.0,962.0,1.0,0,549.0,1
44,44,-0.361975941148987,-0.4,0.0,1.0,279.0,773.0,1.0,0,808.0,1
45,45,-0.6573481490952386,-0.7,0.0,1.0,355.0,955.0,1.0,0,310.0,1
46,46,0.01703481322341871,0.0,1.0,1.0,428.0,753.0,0.0,0,39.0,0
47,47,-0.6709426868170191,-0.7,0.0,1.0,356.0,687.0,1.0,0,267.0,1
48,48,0.4355077264530566,0.4,0.0,0.0,488.0,780.0,0.0,1,792.0,1
49,49,0.2560592428999243,0.3,0.0,0.0,350.0,848.0,0.0,1,432.0,1
50,50,0.5627392673262207,0.6,0.0,0.0,264.0,654.0,0.0,1,22.0,1
51,51,0.051821116164843306,0.1,0.0,0.0,270.0,689.0,0.0,1,1301.0,1
52,52,0.8906517462413087,0.9,0.0,0.0,328.0,700.0,0.0,1,82.0,1
53,53,-0.5439522099238232,-0.5,1.0,0.0,265.0,751.0,0.0,0,504.0,1
54,54,0.5276478888224073,0.5,1.0,1.0,356.0,849.0,1.0,1,515.0,1
55,55,-0.21058314513184462,-0.2,0.0,1.0,331.0,629.0,1.0,0,270.0,1
56,56,0.28085390642351105,0.3,0.0,0.0,423.0,878.0,0.0,1,709.0,1
57,57,-0.5959160224950926,-0.6,1.0,0.0,421.0,894.0,0.0,0,505.0,1
58,58,-0.3999869887745331,-0.4,1.0,0.0,457.0,759.0,0.0,0,834.0,1
59,59,0.6754512589832368,0.7,1.0,1.0,383.0,858.0,1.0,1,259.0,1
60,60,-0.7573444845057576,-0.8,1.0,0.0,294.0,563.0,0.0,0,773.0,1
61,61,-0.3579508319919228,-0.4,0.0,1.0,377.0,936.0,1.0,0,987.0,1
62,62,0.18257198680283138,0.2,1.0,1.0,497.0,993.0,1.0,1,3510.0,1
63,63,-0.18673100625269146,-0.2,0.0,1.0,452.0,829.0,0.0,1,2009.0,0
64,64,-0.5229213576542685,-0.5,1.0,0.0,333.0,667.0,0.0,0,620.0,1
65,65,0.5498592504962506,0.5,1.0,1.0,251.0,568.0,1.0,1,351.0,1
66,66,-0.857997532496944,-0.9,0.0,1.0,380.0,868.0,1.0,0,132.0,1
67,67,-0.8278360376333046,-0.8,0.0,1.0,411.0,561.0,1.0,0,338.0,1
68,68,0.7478833135210762,0.7,1.0,1.0,476.0,828.0,1.0,1,356.0,1
69,69,-0.08752781815148047,-0.1,0.0,1.0,392.0,607.0,0.0,1,-79.0,0
70,70,-0.08694524106806534,-0.1,1.0,0.0,276.0,878.0,0.0,0,-214.0,1
71,71,0.07522278520119641,0.1,1.0,1.0,287.0,904.0,0.0,0,1319.0,0
72,72,0.5465617626576847,0.5,1.0,1.0,414.0,629.0,1.0,1,397.0,1
73,73,-0.6831442278987243,-0.7,1.0,0.0,481.0,899.0,0.0,0,410.0,1
74,74,0.015355093726621916,0.0,0.0,0.0,443.0,939.0,0.0,1,648.0,1
75,75,0.3196796326930612,0.3,0.0,0.0,265.0,831.0,0.0,1,994.0,1
76,76,0.6510071080836185,0.7,0.0,0.0,331.0,543.0,0.0,1,86.0,1
77,77,-0.783037469871466,-0.8,0.0,1.0,301.0,856.0,1.0,0,283.0,1
78,78,-0.45001452317635393,-0.5,1.0,0.0,315.0,692.0,0.0,0,173.0,1
79,79,-0.3486395921217359,-0.3,1.0,0.0,474.0,977.0,0.0,0,-111.0,1
80,80,-0.5896582863754884,-0.6,0.0,1.0,387.0,952.0,1.0,0,231.0,1
81,81,0.18836479838756637,0.2,0.0,0.0,366.0,651.0,0.0,1,583.0,1
82,82,-0.8145130065897694,-0.8,0.0,1.0,328.0,826.0,1.0,0,596.0,1
83,83,0.3602979273663044,0.4,0.0,0.0,416.0,889.0,0.0,1,285.0,1
84,84,0.592855149746916,0.6,0.0,0.0,489.0,581.0,0.0,1,210.0,1
85,85,0.002613837671301411,0.0,0.0,0.0,440.0,664.0,1.0,0,3896.0,0
86,86,0.7183792901257268,0.7,1.0,1.0,387.0,850.0,1.0,1,293.0,1
87,87,-0.18611140712408092,-0.2,1.0,0.0,253.0,601.0,0.0,0,366.0,1
88,88,-0.1349013290335045,-0.1,0.0,1.0,415.0,622.0,1.0,0,3963.0,1
89,89,0.45889823400490204,0.5,0.0,0.0,404.0,952.0,0.0,1,894.0,1
90,90,-0.48087377887317057,-0.5,0.0,1.0,372.0,972.0,1.0,0,436.0,1
91,91,0.04478025411768227,0.0,1.0,1.0,304.0,563.0,0.0,0,1383.0,0
92,92,0.5642264708633099,0.6,1.0,1.0,348.0,797.0,1.0,1,255.0,1
93,93,0.5369373570370154,0.5,0.0,0.0,360.0,516.0,0.0,1,404.0,1
94,94,0.5880392431688021,0.6,1.0,1.0,486.0,873.0,1.0,1,281.0,1
95,95,-0.5592609789519498,-0.6,0.0,1.0,414.0,588.0,1.0,0,328.0,1
96,96,0.3581798561376791,0.4,1.0,1.0,446.0,640.0,1.0,1,584.0,1
97,97,0.7048046364820796,0.7,0.0,0.0,253.0,881.0,0.0,1,306.0,1
98,98,0.4370369805301174,0.4,1.0,1.0,347.0,922.0,1.0,1,261.0,1
99,99,-0.49387567498741725,-0.5,1.0,0.0,386.0,568.0,0.0,0,146.0,1
100,100,0.7633975768441573,0.8,0.0,0.0,489.0,959.0,0.0,1,362.0,1
101,101,-0.5590180330844365,-0.6,1.0,0.0,493.0,709.0,0.0,0,188.0,1
102,102,-0.16191360534905785,-0.2,1.0,0.0,333.0,934.0,0.0,0,1063.0,1
103,103,-0.13587447631295557,-0.1,0.0,1.0,457.0,840.0,1.0,0,3703.0,1
104,104,0.75823544277739,0.8,1.0,1.0,426.0,977.0,1.0,1,207.0,1
105,105,0.06840987693564882,0.1,1.0,1.0,358.0,941.0,1.0,1,3701.0,1
106,106,0.05158159805769058,0.1,0.0,0.0,357.0,528.0,0.0,1,2545.0,1
107,107,-0.3385107556112005,-0.3,1.0,0.0,477.0,607.0,0.0,0,136.0,1
108,108,0.8610387555298448,0.9,0.0,0.0,416.0,773.0,0.0,1,271.0,1
109,109,-0.6761262560896808,-0.7,0.0,1.0,394.0,913.0,1.0,0,473.0,1
110,110,0.4947860326877934,0.5,0.0,0.0,276.0,796.0,0.0,1,638.0,1
111,111,0.007963275689451654,0.0,0.0,0.0,382.0,642.0,0.0,1,3976.0,1
112,112,0.3052252809235295,0.3,1.0,1.0,494.0,639.0,1.0,1,317.0,1
113,113,0.7960047266647584,0.8,0.0,0.0,280.0,798.0,0.0,1,262.0,1
114,114,-0.08977363954661222,-0.1,0.0,1.0,481.0,832.0,1.0,0,1357.0,1
115,115,-0.03949623214413722,-0.0,1.0,0.0,466.0,606.0,0.0,0,2218.0,1
116,116,0.716794034520933,0.7,0.0,0.0,266.0,561.0,0.0,1,333.0,1
117,117,-0.2133824013962844,-0.2,1.0,0.0,472.0,687.0,0.0,0,731.0,1
118,118,-0.5784173081012438,-0.6,0.0,1.0,472.0,692.0,1.0,0,216.0,1
119,119,0.4171165671100775,0.4,0.0,0.0,342.0,804.0,0.0,1,374.0,1
120,120,0.2790765091908124,0.3,0.0,0.0,358.0,567.0,0.0,1,605.0,1
121,121,-0.7432149978203386,-0.7,0.0,1.0,487.0,622.0,1.0,0,221.0,1
122,122,0.37524874220756266,0.4,1.0,1.0,471.0,880.0,0.0,0,39.0,0
123,123,0.5507124788443839,0.6,1.0,1.0,481.0,804.0,1.0,1,815.0,1
124,124,0.693127392584559,0.7,1.0,1.0,433.0,713.0,1.0,1,244.0,1
125,125,-0.02595025769096293,-0.0,0.0,1.0,268.0,883.0,0.0,1,179.0,0
126,126,-0.27906032377903867,-0.3,1.0,0.0,302.0,571.0,0.0,0,277.0,1
127,127,-0.7844949343232959,-0.8,0.0,1.0,336.0,691.0,1.0,0,263.0,1
128,128,0.6394264050297783,0.6,1.0,1.0,254.0,917.0,1.0,1,439.0,1
129,129,0.4473424546946204,0.4,1.0,1.0,419.0,716.0,1.0,1,475.0,1
130,130,0.31724561422190345,0.3,1.0,1.0,493.0,796.0,1.0,1,791.0,1
131,131,0.7402078831373261,0.7,1.0,1.0,313.0,885.0,1.0,1,252.0,1
132,132,0.7826149208972021,0.8,1.0,1.0,319.0,925.0,1.0,1,136.0,1
133,133,0.459066956256743,0.5,0.0,0.0,352.0,975.0,0.0,1,283.0,1
134,134,0.07374302783977238,0.1,1.0,1.0,403.0,978.0,1.0,1,3619.0,1
135,135,0.7082794397584923,0.7,0.0,0.0,298.0,518.0,0.0,1,184.0,1
136,136,-0.41026094183739076,-0.4,1.0,0.0,308.0,575.0,0.0,0,987.0,1
137,137,0.731134348495934,0.7,0.0,0.0,395.0,594.0,0.0,1,561.0,1
138,138,-0.43668740858679533,-0.4,0.0,1.0,288.0,653.0,1.0,0,1079.0,1
139,139,-0.5645224015278768,-0.6,1.0,0.0,337.0,861.0,0.0,0,-128.0,1
140,140,-0.12761620786420436,-0.1,0.0,1.0,463.0,539.0,0.0,1,588.0,0
141,141,0.44705173032799783,0.4,1.0,1.0,413.0,649.0,1.0,1,718.0,1
142,142,0.5376654066368903,0.5,1.0,1.0,359.0,996.0,1.0,1,285.0,1
143,143,0.4507375657413285,0.5,0.0,0.0,314.0,656.0,0.0,1,340.0,1
144,144,-0.7177306404771746,-0.7,1.0,0.0,486.0,584.0,0.0,0,1090.0,1
145,145,-0.4267153505115853,-0.4,1.0,0.0,405.0,868.0,0.0,0,267.0,1
146,146,-0.46885793405143905,-0.5,1.0,0.0,398.0,759.0,0.0,0,433.0,1
147,147,-0.6465259897209961,-0.6,0.0,1.0,303.0,908.0,1.0,0,299.0,1
148,148,-0.473290908486164,-0.5,1.0,0.0,420.0,764.0,0.0,0,-34.0,1
149,149,0.2743679917684,0.3,0.0,0.0,310.0,760.0,0.0,1,150.0,1
150,150,-0.0022871711551790685,-0.0,0.0,1.0,453.0,668.0,0.0,1,789.0,0
151,151,-0.293113378757882,-0.3,1.0,0.0,300.0,815.0,0.0,0,705.0,1
152,152,-0.4341984895530839,-0.4,0.0,1.0,366.0,527.0,1.0,0,677.0,1
153,153,0.14450176575215334,0.1,0.0,0.0,252.0,792.0,0.0,1,2306.0,1
154,154,-0.768479222044099,-0.8,1.0,0.0,344.0,762.0,0.0,0,724.0,1
155,155,-0.8804964567025887,-0.9,1.0,0.0,426.0,590.0,0.0,0,154.0,1
156,156,0.3754711779775982,0.4,1.0,1.0,362.0,908.0,1.0,1,560.0,1
157,157,-0.3093041644440653,-0.3,0.0,1.0,406.0,892.0,1.0,0,1412.0,1
158,158,0.3850758094608059,0.4,1.0,1.0,301.0,802.0,1.0,1,637.0,1
159,159,-0.2032807547212221,-0.2,1.0,0.0,439.0,950.0,0.0,0,1141.0,1
160,160,0.5685778272874861,0.6,0.0,0.0,466.0,893.0,0.0,1,291.0,1
161,161,0.3914286921407758,0.4,1.0,1.0,465.0,923.0,1.0,1,962.0,1
162,162,-0.6205348084920739,-0.6,0.0,1.0,335.0,843.0,1.0,0,312.0,1
163,163,0.8907567457248527,0.9,0.0,0.0,256.0,651.0,0.0,1,203.0,1
164,164,0.23944000842670665,0.2,1.0,1.0,359.0,891.0,1.0,1,1550.0,1
165,165,-0.05057415917247443,-0.1,0.0,1.0,352.0,659.0,1.0,0,-61.0,1
166,166,-0.05831565511414172,-0.1,1.0,0.0,317.0,678.0,0.0,0,1905.0,1
167,167,0.3706637034367556,0.4,0.0,0.0,265.0,700.0,0.0,1,215.0,1
168,168,-0.004121141708194775,-0.0,1.0,0.0,374.0,933.0,0.0,0,733.0,1
169,169,-0.3439162718923128,-0.3,0.0,1.0,407.0,934.0,1.0,0,769.0,1
170,170,0.8450190450693448,0.8,1.0,1.0,382.0,892.0,1.0,1,166.0,1
171,171,-0.3316648978755854,-0.3,0.0,1.0,449.0,742.0,1.0,0,709.0,1
172,172,-0.8157217706395934,-0.8,1.0,0.0,270.0,888.0,0.0,0,182.0,1
173,173,0.07205274819503349,0.1,1.0,1.0,264.0,914.0,0.0,0,892.0,0
174,174,0.62701895264719,0.6,1.0,1.0,294.0,928.0,1.0,1,258.0,1
175,175,-0.10659205248160208,-0.1,0.0,1.0,363.0,502.0,0.0,1,4135.0,0
176,176,-0.843583538638956,-0.8,1.0,0.0,292.0,588.0,0.0,0,320.0,1
177,177,0.6861700118954736,0.7,0.0,0.0,477.0,797.0,0.0,1,676.0,1
178,178,-0.6651527994533694,-0.7,0.0,1.0,480.0,759.0,1.0,0,161.0,1
179,179,-0.20175110119778095,-0.2,1.0,0.0,329.0,623.0,0.0,0,1668.0,1
180,180,-0.679189138660256,-0.7,0.0,1.0,287.0,776.0,1.0,0,467.0,1
181,181,0.045657035338931506,0.0,1.0,1.0,433.0,557.0,1.0,1,3520.0,1
182,182,-0.32159312330545253,-0.3,0.0,1.0,351.0,895.0,1.0,0,1314.0,1
183,183,0.3979696716488964,0.4,0.0,0.0,280.0,914.0,0.0,1,416.0,1
184,184,0.6867573814154441,0.7,0.0,0.0,355.0,910.0,0.0,1,135.0,1
185,185,-0.2119991668827812,-0.2,0.0,1.0,266.0,892.0,0.0,1,-458.0,0
186,186,0.029521076757592635,0.0,1.0,1.0,291.0,501.0,0.0,0,68.0,0
187,187,0.3127120999630203,0.3,1.0,1.0,373.0,500.0,1.0,1,1817.0,1
188,188,-0.6997156804984117,-0.7,1.0,0.0,364.0,908.0,0.0,0,548.0,1
189,189,0.4847939041192654,0.5,1.0,1.0,338.0,682.0,1.0,1,480.0,1
190,190,-0.5481945348099333,-0.5,0.0,1.0,346.0,512.0,1.0,0,602.0,1
191,191,-0.6081315222537229,-0.6,0.0,1.0,311.0,510.0,1.0,0,319.0,1
192,192,0.17345260306490895,0.2,0.0,0.0,481.0,910.0,0.0,1,989.0,1
193,193,0.23063410612671797,0.2,0.0,0.0,447.0,643.0,0.0,1,250.0,1
194,194,0.6521766668657755,0.7,0.0,0.0,319.0,850.0,0.0,1,361.0,1
195,195,0.31722589727894,0.3,1.0,1.0,364.0,737.0,1.0,1,539.0,1
196,196,-0.12147066493244596,-0.1,0.0,1.0,353.0,912.0,0.0,1,915.0,0
197,197,-0.20080597159310554,-0.2,0.0,1.0,421.0,978.0,1.0,0,2741.0,1
198,198,-0.3111257713531922,-0.3,0.0,1.0,491.0,922.0,0.0,1,-133.0,0
199,199,0.4241162726768609,0.4,1.0,1.0,324.0,759.0,1.0,1,717.0,1
200,200,0.22519457294530965,0.2,1.0,1.0,408.0,829.0,1.0,1,1223.0,1
201,201,-0.32767575910030944,-0.3,0.0,1.0,453.0,747.0,1.0,0,460.0,1
202,202,0.2230977741793544,0.2,1.0,1.0,473.0,809.0,1.0,1,2988.0,1
203,203,-0.15406826467902746,-0.2,1.0,0.0,290.0,602.0,0.0,0,-312.0,1
204,204,0.3501082004433328,0.4,1.0,1.0,343.0,643.0,1.0,1,394.0,1
205,205,0.615785456410341,0.6,1.0,1.0,386.0,833.0,1.0,1,321.0,1
206,206,-0.7798940690146875,-0.8,1.0,0.0,389.0,831.0,0.0,0,420.0,1
207,207,0.8044720787297678,0.8,1.0,1.0,409.0,808.0,1.0,1,213.0,1
208,208,0.030028469921194234,0.0,1.0,1.0,417.0,840.0,0.0,0,3743.0,0
209,209,0.5548851680740533,0.6,0.0,0.0,499.0,543.0,0.0,1,348.0,1
210,210,0.383945484054825,0.4,1.0,1.0,314.0,949.0,0.0,0,-263.0,0
211,211,0.3056254287886556,0.3,1.0,1.0,454.0,892.0,1.0,1,1744.0,1
212,212,-0.3479949161914937,-0.3,1.0,0.0,341.0,799.0,0.0,0,170.0,1
213,213,0.48658634451097804,0.5,0.0,0.0,393.0,574.0,0.0,1,123.0,1
214,214,-0.0603280531957765,-0.1,1.0,0.0,332.0,768.0,0.0,0,1580.0,1
215,215,-0.20021877065036542,-0.2,0.0,1.0,450.0,759.0,1.0,0,3041.0,1
216,216,0.3109169151214267,0.3,0.0,0.0,427.0,904.0,0.0,1,599.0,1
217,217,-0.23538474570521262,-0.2,1.0,0.0,384.0,820.0,0.0,0,366.0,1
218,218,-0.15845344520602989,-0.2,1.0,0.0,345.0,667.0,0.0,0,538.0,1
219,219,0.25994327872388767,0.3,0.0,0.0,255.0,594.0,0.0,1,21.0,1
220,220,-0.8170811194050598,-0.8,0.0,1.0,433.0,743.0,1.0,0,304.0,1
221,221,-0.08250651495606531,-0.1,1.0,0.0,268.0,898.0,0.0,0,3834.0,1
222,222,-0.6103624157660643,-0.6,1.0,0.0,486.0,666.0,0.0,0,898.0,1
223,223,-0.00218591376542443,-0.0,0.0,1.0,293.0,510.0,0.0,1,3117.0,0
224,224,-0.1533027848044054,-0.2,1.0,0.0,417.0,736.0,0.0,0,767.0,1
225,225,0.32585802599619573,0.3,1.0,1.0,360.0,737.0,1.0,1,1013.0,1
226,226,-0.7816268718257485,-0.8,1.0,0.0,303.0,935.0,0.0,0,262.0,1
227,227,0.8074824600770957,0.8,0.0,0.0,461.0,996.0,0.0,1,-527.0,1
228,228,-0.7152782788502745,-0.7,1.0,0.0,380.0,656.0,0.0,0,154.0,1
229,229,-0.27078500480429557,-0.3,1.0,0.0,272.0,923.0,0.0,0,-115.0,1
230,230,-0.7693485766908323,-0.8,0.0,1.0,370.0,628.0,1.0,0,182.0,1
231,231,0.3265772143430282,0.3,0.0,0.0,470.0,838.0,0.0,1,352.0,1
232,232,0.7263750225995519,0.7,0.0,0.0,460.0,760.0,0.0,1,580.0,1
233,233,0.3232792403999315,0.3,0.0,0.0,351.0,682.0,0.0,1,177.0,1
234,234,0.08719481920912198,0.1,0.0,0.0,419.0,698.0,0.0,1,2463.0,1
235,235,-0.5539046235457401,-0.6,0.0,1.0,308.0,990.0,1.0,0,112.0,1
236,236,-0.37370502997768074,-0.4,0.0,1.0,480.0,689.0,1.0,0,491.0,1
237,237,-0.35789482241787696,-0.4,0.0,1.0,401.0,818.0,1.0,0,211.0,1
238,238,-0.2867921264155662,-0.3,0.0,1.0,346.0,792.0,1.0,0,782.0,1
239,239,-0.22410143829398876,-0.2,1.0,0.0,494.0,965.0,0.0,0,191.0,1
240,240,0.1546189392421896,0.2,1.0,1.0,485.0,568.0,0.0,0,47.0,0
241,241,0.7103410904910349,0.7,1.0,1.0,306.0,608.0,1.0,1,486.0,1
242,242,0.0920391066639169,0.1,1.0,1.0,373.0,502.0,1.0,1,765.0,1
243,243,0.33620750355201057,0.3,0.0,0.0,401.0,772.0,0.0,1,477.0,1
244,244,-0.06581511257003902,-0.1,1.0,0.0,478.0,993.0,0.0,0,3529.0,1
245,245,-0.84703365614484,-0.8,1.0,0.0,336.0,691.0,0.0,0,193.0,1
246,246,0.11063531482868039,0.1,1.0,1.0,468.0,546.0,0.0,0,166.0,0
247,247,0.07169945569323743,0.1,0.0,0.0,320.0,961.0,0.0,1,2649.0,1
248,248,-0.4005653625432247,-0.4,0.0,1.0,433.0,786.0,1.0,0,281.0,1
249,249,-0.4259042420067005,-0.4,1.0,0.0,400.0,714.0,0.0,0,676.0,1
250,250,0.21651096835002182,0.2,0.0,0.0,381.0,505.0,0.0,1,334.0,1
251,251,0.7527312726860426,0.8,0.0,0.0,257.0,523.0,0.0,1,320.0,1
252,252,-0.8680213344906308,-0.9,1.0,0.0,370.0,518.0,0.0,0,22.0,1
253,253,0.1626188754652692,0.2,1.0,1.0,343.0,805.0,1.0,1,3852.0,1
254,254,0.42443990458793135,0.4,0.0,0.0,255.0,546.0,0.0,1,349.0,1
255,255,0.05406756342340202,0.1,1.0,1.0,419.0,981.0,1.0,1,600.0,1
256,256,-0.8770698249201455,-0.9,0.0,1.0,303.0,654.0,1.0,0,363.0,1
257,257,0.3057931061810938,0.3,0.0,0.0,494.0,756.0,0.0,1,-120.0,1
258,258,0.5339387276264643,0.5,1.0,1.0,357.0,775.0,1.0,1,468.0,1
259,259,-0.8695477426866679,-0.9,0.0,1.0,373.0,723.0,1.0,0,214.0,1
260,260,0.858110761979472,0.9,1.0,1.0,266.0,880.0,1.0,1,294.0,1
261,261,0.15192382833864826,0.2,0.0,0.0,270.0,834.0,0.0,1,756.0,1
262,262,-0.5713503140560922,-0.6,1.0,0.0,490.0,527.0,0.0,0,663.0,1
263,263,0.27168510462373596,0.3,0.0,0.0,374.0,999.0,0.0,1,747.0,1
264,264,0.6566611049202465,0.7,0.0,0.0,389.0,973.0,0.0,1,198.0,1
265,265,-0.8963371220180301,-0.9,0.0,1.0,329.0,710.0,1.0,0,341.0,1
266,266,0.3164721522296615,0.3,0.0,0.0,417.0,830.0,0.0,1,173.0,1
267,267,-0.5135367734909335,-0.5,0.0,1.0,311.0,525.0,1.0,0,1394.0,1
268,268,-0.13920865728449172,-0.1,1.0,0.0,466.0,860.0,0.0,0,774.0,1
269,269,-0.4280905349444285,-0.4,1.0,0.0,266.0,749.0,0.0,0,385.0,1
270,270,0.5603297889243631,0.6,0.0,0.0,397.0,680.0,0.0,1,333.0,1
271,271,0.8346915083326748,0.8,0.0,0.0,309.0,852.0,0.0,1,99.0,1
272,272,0.536269473639441,0.5,1.0,1.0,280.0,845.0,1.0,1,1245.0,1
273,273,0.02418988741850503,0.0,1.0,1.0,263.0,708.0,1.0,1,2319.0,1
274,274,-0.08856553321766547,-0.1,0.0,1.0,484.0,712.0,1.0,0,1954.0,1
275,275,-0.45129101629925844,-0.5,1.0,0.0,483.0,668.0,0.0,0,-161.0,1
276,276,0.7147725309928495,0.7,0.0,0.0,448.0,852.0,0.0,1,220.0,1
277,277,-0.28233779031718986,-0.3,1.0,0.0,468.0,523.0,0.0,0,1449.0,1
278,278,0.3564269353375674,0.4,0.0,0.0,362.0,619.0,0.0,1,499.0,1
279,279,0.7049998751874008,0.7,1.0,1.0,283.0,640.0,1.0,1,87.0,1
280,280,-0.44727550838884916,-0.4,1.0,0.0,337.0,505.0,0.0,0,298.0,1
281,281,-0.5057708658375887,-0.5,0.0,1.0,440.0,646.0,1.0,0,494.0,1
282,282,-0.2972525921002943,-0.3,1.0,0.0,351.0,833.0,0.0,0,676.0,1
283,283,-0.36994558098956454,-0.4,1.0,0.0,277.0,874.0,0.0,0,709.0,1
284,284,0.7063431201709188,0.7,0.0,0.0,398.0,809.0,0.0,1,323.0,1
285,285,-0.0030939120934831976,-0.0,0.0,1.0,443.0,723.0,0.0,1,2344.0,0
286,286,-0.07216772039781338,-0.1,0.0,1.0,280.0,986.0,0.0,1,414.0,0
287,287,0.4477393962888797,0.4,0.0,0.0,408.0,596.0,0.0,1,466.0,1
288,288,-0.2820053360688607,-0.3,0.0,1.0,432.0,746.0,1.0,0,1122.0,1
289,289,-0.5454889220906389,-0.5,0.0,1.0,271.0,656.0,1.0,0,733.0,1
290,290,0.6363984562933646,0.6,0.0,0.0,384.0,653.0,0.0,1,283.0,1
291,291,-0.4314680073788682,-0.4,0.0,1.0,254.0,752.0,1.0,0,554.0,1
292,292,-0.46126342821011684,-0.5,0.0,1.0,414.0,507.0,1.0,0,469.0,1
293,293,0.4571160013254124,0.5,1.0,1.0,463.0,599.0,1.0,1,598.0,1
294,294,0.4378356179551627,0.4,0.0,0.0,395.0,850.0,0.0,1,765.0,1
295,295,-0.09934490363849158,-0.1,0.0,1.0,318.0,623.0,1.0,0,4059.0,1
296,296,0.8293908256478061,0.8,0.0,0.0,361.0,725.0,0.0,1,144.0,1
297,297,0.3341627704577844,0.3,1.0,1.0,398.0,713.0,1.0,1,789.0,1
298,298,-0.8401790593981804,-0.8,0.0,1.0,300.0,957.0,1.0,0,133.0,1
299,299,-0.5112906023391155,-0.5,1.0,0.0,481.0,874.0,0.0,0,245.0,1
300,300,-0.11572564228665638,-0.1,0.0,1.0,358.0,769.0,0.0,1,243.0,0
301,301,-0.010400989462966304,-0.0,0.0,1.0,257.0,572.0,0.0,1,1361.0,0
302,302,0.750488294510311,0.8,0.0,0.0,375.0,871.0,0.0,1,254.0,1
303,303,-0.38182576032554516,-0.4,0.0,1.0,355.0,754.0,1.0,0,671.0,1
304,304,0.8116984377133537,0.8,0.0,0.0,435.0,726.0,0.0,1,319.0,1
305,305,0.0014019821793030962,0.0,1.0,1.0,418.0,764.0,0.0,0,2038.0,0
306,306,-0.6659473780361769,-0.7,1.0,0.0,481.0,831.0,0.0,0,218.0,1
307,307,-0.23456510063016656,-0.2,0.0,1.0,288.0,716.0,0.0,1,116.0,0
308,308,0.23474377176752947,0.2,1.0,1.0,441.0,672.0,1.0,1,2127.0,1
309,309,-0.5445620686935301,-0.5,0.0,1.0,381.0,666.0,1.0,0,1033.0,1
310,310,0.6227035635584738,0.6,0.0,0.0,415.0,885.0,0.0,1,530.0,1
311,311,-0.2703918860654184,-0.3,1.0,0.0,376.0,737.0,0.0,0,907.0,1
312,312,-0.4493647163547438,-0.4,1.0,0.0,476.0,916.0,0.0,0,788.0,1
313,313,-0.8145838552850626,-0.8,0.0,1.0,390.0,660.0,1.0,0,240.0,1
314,314,-0.172668256888743,-0.2,1.0,0.0,257.0,914.0,0.0,0,2189.0,1
315,315,0.7096726250330999,0.7,1.0,1.0,495.0,899.0,1.0,1,346.0,1
316,316,0.4267430044674513,0.4,0.0,0.0,339.0,760.0,0.0,1,571.0,1
317,317,-0.7360764602416764,-0.7,1.0,0.0,334.0,714.0,0.0,0,372.0,1
318,318,-0.6377282233846706,-0.6,1.0,0.0,332.0,575.0,0.0,0,183.0,1
319,319,0.7104615401818176,0.7,1.0,1.0,495.0,680.0,1.0,1,325.0,1
320,320,0.6718006792893688,0.7,0.0,0.0,381.0,592.0,0.0,1,457.0,1
321,321,0.21227614731875366,0.2,0.0,0.0,445.0,581.0,0.0,1,3974.0,1
322,322,0.35530735358257315,0.4,0.0,0.0,471.0,993.0,0.0,1,606.0,1
323,323,0.010175218536974007,0.0,0.0,0.0,488.0,661.0,1.0,0,3851.0,0
324,324,0.8158454620726435,0.8,0.0,0.0,336.0,505.0,0.0,1,79.0,1
325,325,-0.17746518429083535,-0.2,1.0,0.0,286.0,647.0,0.0,0,747.0,1
326,326,-0.27251712801916117,-0.3,1.0,0.0,274.0,503.0,0.0,0,973.0,1
327,327,-0.4851793106555877,-0.5,1.0,0.0,319.0,567.0,0.0,0,694.0,1
328,328,0.7494361787604865,0.7,1.0,1.0,355.0,931.0,1.0,1,534.0,1
329,329,-0.7520036166033807,-0.8,0.0,1.0,446.0,524.0,1.0,0,540.0,1
330,330,0.8958189834885871,0.9,0.0,0.0,416.0,666.0,0.0,1,258.0,1
331,331,-0.017922422856098685,-0.0,1.0,0.0,365.0,947.0,0.0,0,308.0,1
332,332,-0.15518533202641527,-0.2,0.0,1.0,334.0,500.0,1.0,0,2576.0,1
333,333,-0.31760867574780005,-0.3,0.0,1.0,270.0,765.0,1.0,0,365.0,1
334,334,-0.18812278989170428,-0.2,1.0,0.0,391.0,943.0,0.0,0,996.0,1
335,335,0.3645729683315667,0.4,1.0,1.0,433.0,604.0,1.0,1,1053.0,1
336,336,-0.6876049206430674,-0.7,1.0,0.0,326.0,630.0,0.0,0,744.0,1
337,337,-0.45477597249109536,-0.5,0.0,1.0,375.0,774.0,1.0,0,581.0,1
338,338,0.1754916473097633,0.2,0.0,0.0,497.0,809.0,0.0,1,2184.0,1
339,339,0.30749278527553614,0.3,1.0,1.0,467.0,605.0,1.0,1,1008.0,1
340,340,0.740588114345151,0.7,0.0,0.0,408.0,890.0,0.0,1,282.0,1
341,341,-0.02851159785153201,-0.0,1.0,0.0,255.0,683.0,0.0,0,2252.0,1
342,342,-0.45941402025459055,-0.5,0.0,1.0,310.0,559.0,1.0,0,251.0,1
343,343,-0.10561236268013441,-0.1,0.0,1.0,292.0,998.0,1.0,0,1070.0,1
344,344,-0.7780941753549111,-0.8,1.0,0.0,333.0,671.0,0.0,0,276.0,1
345,345,-0.6491384960248892,-0.6,1.0,0.0,278.0,628.0,0.0,0,284.0,1
346,346,0.6014051086535267,0.6,1.0,1.0,469.0,739.0,1.0,1,612.0,1
347,347,-0.10175168138882029,-0.1,1.0,0.0,275.0,605.0,0.0,0,3140.0,1
348,348,-0.872242761810247,-0.9,0.0,1.0,371.0,807.0,1.0,0,322.0,1
349,349,-0.6705950608467993,-0.7,1.0,0.0,288.0,740.0,0.0,0,742.0,1
350,350,-0.6454269409151193,-0.6,0.0,1.0,310.0,540.0,1.0,0,230.0,1
351,351,-0.4929785007057974,-0.5,0.0,1.0,406.0,878.0,1.0,0,606.0,1
352,352,0.12818934892575118,0.1,1.0,1.0,496.0,974.0,1.0,1,2310.0,1
353,353,-0.16979854199061084,-0.2,1.0,0.0,405.0,721.0,0.0,0,1444.0,1
354,354,0.14787210602169243,0.1,1.0,1.0,366.0,860.0,1.0,1,1414.0,1
355,355,-0.8876300862050155,-0.9,1.0,0.0,430.0,876.0,0.0,0,44.0,1
356,356,-0.7959470153652359,-0.8,0.0,1.0,331.0,934.0,1.0,0,385.0,1
357,357,0.7100708709796543,0.7,1.0,1.0,393.0,803.0,1.0,1,184.0,1
358,358,-0.8582960416946706,-0.9,0.0,1.0,339.0,912.0,1.0,0,239.0,1
359,359,0.23308218138040704,0.2,1.0,1.0,354.0,549.0,1.0,1,977.0,1
360,360,-0.6955961068422817,-0.7,0.0,1.0,391.0,750.0,1.0,0,519.0,1
361,361,-0.7576080758374204,-0.8,1.0,0.0,443.0,654.0,0.0,0,163.0,1
362,362,0.4477004596156148,0.4,0.0,0.0,498.0,683.0,0.0,1,179.0,1
363,363,0.8652952757036952,0.9,0.0,0.0,303.0,782.0,0.0,1,75.0,1
364,364,-0.1729611654384553,-0.2,0.0,1.0,475.0,802.0,1.0,0,1933.0,1
365,365,0.0012372904991064804,0.0,1.0,1.0,387.0,654.0,0.0,0,3959.0,0
366,366,-0.6829563585724208,-0.7,0.0,1.0,294.0,964.0,1.0,0,632.0,1
367,367,0.2684108824806001,0.3,0.0,0.0,364.0,662.0,0.0,1,624.0,1
368,368,-0.6550406182156734,-0.7,0.0,1.0,433.0,842.0,1.0,0,365.0,1
369,369,-0.109321924963377,-0.1,1.0,0.0,410.0,766.0,0.0,0,2444.0,1
370,370,0.5098853151492361,0.5,0.0,0.0,410.0,575.0,0.0,1,215.0,1
371,371,0.5189677622059646,0.5,1.0,1.0,253.0,624.0,1.0,1,663.0,1
372,372,-0.1076312786144985,-0.1,1.0,0.0,435.0,827.0,0.0,0,688.0,1
373,373,0.5675563238842821,0.6,1.0,1.0,413.0,574.0,1.0,1,333.0,1
374,374,0.3804257886686283,0.4,1.0,1.0,460.0,557.0,1.0,1,1253.0,1
375,375,-0.840917024730594,-0.8,1.0,0.0,339.0,683.0,0.0,0,488.0,1
376,376,0.6453684800149734,0.6,1.0,1.0,299.0,990.0,1.0,1,661.0,1
377,377,-0.5858649248651584,-0.6,0.0,1.0,495.0,984.0,1.0,0,331.0,1
378,378,-0.6530234149577415,-0.7,1.0,0.0,340.0,710.0,0.0,0,300.0,1
379,379,-0.6539347199308159,-0.7,0.0,1.0,347.0,991.0,1.0,0,302.0,1
380,380,-0.8119101083179389,-0.8,0.0,1.0,390.0,943.0,1.0,0,877.0,1
381,381,0.21148163351506677,0.2,1.0,1.0,344.0,863.0,1.0,1,1873.0,1
382,382,-0.2907959469243877,-0.3,1.0,0.0,261.0,724.0,0.0,0,-245.0,1
383,383,0.12870984867715995,0.1,0.0,0.0,444.0,605.0,0.0,1,1581.0,1
384,384,0.8685947811985729,0.9,1.0,1.0,474.0,606.0,1.0,1,220.0,1
385,385,-0.2643063818430984,-0.3,1.0,0.0,413.0,973.0,0.0,0,434.0,1
386,386,-0.667146053108909,-0.7,1.0,0.0,499.0,680.0,0.0,0,381.0,1
387,387,0.5350096044782761,0.5,0.0,0.0,320.0,762.0,0.0,1,148.0,1
388,388,-0.5487887049260365,-0.5,0.0,1.0,362.0,756.0,1.0,0,392.0,1
389,389,0.8911045534386287,0.9,1.0,1.0,477.0,981.0,1.0,1,372.0,1
390,390,-0.17032060748358768,-0.2,1.0,0.0,423.0,617.0,0.0,0,1000.0,1
391,391,-0.3866451660739182,-0.4,1.0,0.0,268.0,757.0,0.0,0,625.0,1
392,392,0.35973661324886874,0.4,1.0,1.0,301.0,674.0,1.0,1,1465.0,1
393,393,-0.4394946945060178,-0.4,1.0,0.0,392.0,568.0,0.0,0,790.0,1
394,394,-0.2068903256075728,-0.2,0.0,1.0,310.0,922.0,1.0,0,928.0,1
395,395,-0.02474980317926101,-0.0,1.0,0.0,302.0,508.0,0.0,0,3810.0,1
396,396,-0.8118592001002597,-0.8,1.0,0.0,307.0,989.0,0.0,0,114.0,1
397,397,0.839091071670104,0.8,1.0,1.0,348.0,928.0,1.0,1,974.0,1
398,398,0.46476418052818513,0.5,0.0,0.0,480.0,513.0,0.0,1,217.0,1
399,399,0.3391502674581145,0.3,1.0,1.0,303.0,900.0,1.0,1,217.0,1
400,400,0.5116339502352135,0.5,1.0,1.0,348.0,698.0,1.0,1,174.0,1
401,401,0.44880599077637606,0.4,1.0,1.0,328.0,585.0,1.0,1,717.0,1
402,402,0.1210492638683317,0.1,1.0,1.0,387.0,702.0,0.0,0,501.0,0
403,403,0.3216562363914929,0.3,0.0,0.0,338.0,635.0,0.0,1,657.0,1
404,404,-0.38282876330420346,-0.4,1.0,0.0,451.0,843.0,0.0,0,176.0,1
405,405,-0.03893524841185336,-0.0,1.0,0.0,360.0,795.0,0.0,0,245.0,1
406,406,-0.18404376052442306,-0.2,0.0,1.0,389.0,740.0,0.0,1,-449.0,0
407,407,0.6877979929404842,0.7,0.0,0.0,296.0,792.0,0.0,1,412.0,1
408,408,-0.4660136929156021,-0.5,1.0,0.0,448.0,719.0,0.0,0,863.0,1
409,409,0.8738589497201664,0.9,0.0,0.0,442.0,644.0,0.0,1,164.0,1
410,410,-0.6705070154230661,-0.7,1.0,0.0,319.0,908.0,0.0,0,403.0,1
411,411,-0.410885751910739,-0.4,0.0,1.0,287.0,702.0,1.0,0,441.0,1
412,412,-0.7729723599421923,-0.8,1.0,0.0,480.0,665.0,0.0,0,275.0,1
413,413,0.8151366710968871,0.8,1.0,1.0,424.0,501.0,1.0,1,135.0,1
414,414,-0.5694684711421096,-0.6,0.0,1.0,462.0,568.0,1.0,0,990.0,1
415,415,0.5962355584588795,0.6,0.0,0.0,382.0,817.0,0.0,1,-39.0,1
416,416,-0.14813789315149717,-0.1,1.0,0.0,257.0,727.0,0.0,0,1266.0,1
417,417,0.6817760591292398,0.7,0.0,0.0,376.0,692.0,0.0,1,292.0,1
418,418,-0.1723194296917906,-0.2,1.0,0.0,336.0,548.0,0.0,0,1326.0,1
419,419,-0.13584274488297354,-0.1,1.0,0.0,453.0,571.0,0.0,0,1046.0,1
420,420,-0.8693205374652796,-0.9,0.0,1.0,352.0,968.0,1.0,0,200.0,1
421,421,-0.08046043150883897,-0.1,0.0,1.0,347.0,577.0,0.0,1,646.0,0
422,422,-0.3809542840302055,-0.4,0.0,1.0,395.0,683.0,1.0,0,932.0,1
423,423,-0.8132571898532266,-0.8,1.0,0.0,475.0,697.0,0.0,0,748.0,1
424,424,-0.2731344233687213,-0.3,1.0,0.0,481.0,694.0,0.0,0,845.0,1
425,425,-0.5164114376903758,-0.5,0.0,1.0,344.0,539.0,1.0,0,487.0,1
426,426,0.3462269232315497,0.3,0.0,0.0,486.0,989.0,0.0,1,855.0,1
427,427,0.5660678170360848,0.6,0.0,0.0,398.0,917.0,0.0,1,-365.0,1
428,428,-0.2886935479307807,-0.3,0.0,1.0,289.0,738.0,1.0,0,973.0,1
429,429,-0.7125803414825165,-0.7,0.0,1.0,373.0,828.0,1.0,0,339.0,1
430,430,-0.8524500484646838,-0.9,0.0,1.0,254.0,893.0,1.0,0,343.0,1
431,431,0.016380946842976973,0.0,0.0,0.0,277.0,636.0,0.0,1,3587.0,1
432,432,-0.7520309522267601,-0.8,0.0,1.0,303.0,765.0,1.0,0,512.0,1
433,433,-0.5557233611381909,-0.6,0.0,1.0,285.0,754.0,1.0,0,431.0,1
434,434,-0.5727256449562328,-0.6,0.0,1.0,300.0,926.0,1.0,0,624.0,1
435,435,0.31342064356547616,0.3,1.0,1.0,416.0,850.0,0.0,0,-126.0,0
436,436,0.35194369111795465,0.4,0.0,0.0,316.0,552.0,0.0,1,532.0,1
437,437,0.8443676298436354,0.8,1.0,1.0,472.0,799.0,1.0,1,169.0,1
438,438,-0.7358304901743642,-0.7,1.0,0.0,308.0,993.0,0.0,0,269.0,1
439,439,0.8941560878163629,0.9,1.0,1.0,367.0,533.0,1.0,1,180.0,1
440,440,-0.6451771292055157,-0.6,1.0,0.0,323.0,596.0,0.0,0,691.0,1
441,441,0.8857579837944033,0.9,0.0,0.0,288.0,939.0,0.0,1,153.0,1
442,442,-0.7429162174262951,-0.7,1.0,0.0,435.0,846.0,0.0,0,379.0,1
443,443,0.6698772727818686,0.7,1.0,1.0,255.0,808.0,0.0,0,-233.0,0
444,444,-0.643425934999,-0.6,1.0,0.0,430.0,676.0,0.0,0,464.0,1
445,445,-0.6411381996371646,-0.6,0.0,1.0,338.0,597.0,1.0,0,565.0,1
446,446,-0.8378216926586286,-0.8,0.0,1.0,401.0,575.0,1.0,0,14.0,1
447,447,0.6434961793539059,0.6,0.0,0.0,449.0,561.0,0.0,1,420.0,1
448,448,0.18307001079808816,0.2,0.0,0.0,426.0,636.0,0.0,1,668.0,1
449,449,-0.2235790728114747,-0.2,1.0,0.0,464.0,795.0,0.0,0,371.0,1
450,450,0.750599613717804,0.8,1.0,1.0,355.0,844.0,1.0,1,301.0,1
451,451,0.3004321035245404,0.3,0.0,0.0,301.0,838.0,0.0,1,801.0,1
452,452,-0.8960793956324569,-0.9,0.0,1.0,312.0,911.0,1.0,0,247.0,1
453,453,-0.4273305665221226,-0.4,0.0,1.0,446.0,953.0,0.0,1,-449.0,0
454,454,0.3308236838584949,0.3,0.0,0.0,339.0,622.0,0.0,1,759.0,1
455,455,-0.12664924263459254,-0.1,0.0,1.0,314.0,917.0,0.0,1,279.0,0
456,456,0.8248314108726708,0.8,0.0,0.0,495.0,546.0,0.0,1,719.0,1
457,457,0.557166858994084,0.6,1.0,1.0,384.0,614.0,1.0,1,312.0,1
458,458,-0.46289219864455333,-0.5,1.0,0.0,427.0,763.0,0.0,0,190.0,1
459,459,0.7067596847583734,0.7,1.0,1.0,317.0,688.0,1.0,1,665.0,1
460,460,-0.35990672233002285,-0.4,1.0,0.0,493.0,981.0,0.0,0,566.0,1
461,461,-0.08992978262203855,-0.1,1.0,0.0,346.0,573.0,0.0,0,1431.0,1
462,462,-0.7926728850741543,-0.8,0.0,1.0,320.0,881.0,1.0,0,119.0,1
463,463,0.22179296995583953,0.2,0.0,0.0,484.0,845.0,0.0,1,211.0,1
464,464,0.5385595346898838,0.5,1.0,1.0,343.0,804.0,1.0,1,353.0,1
465,465,-0.741843123751297,-0.7,0.0,1.0,379.0,948.0,1.0,0,473.0,1
466,466,-0.6730292511472944,-0.7,0.0,1.0,305.0,629.0,1.0,0,356.0,1
467,467,-0.8595151193292213,-0.9,0.0,1.0,365.0,514.0,1.0,0,251.0,1
468,468,0.5775115438137733,0.6,0.0,0.0,389.0,823.0,0.0,1,358.0,1
469,469,-0.018856439746030573,-0.0,1.0,0.0,261.0,989.0,0.0,0,90.0,1
470,470,0.3797322356081533,0.4,0.0,0.0,264.0,618.0,0.0,1,58.0,1
471,471,0.33813159988396035,0.3,0.0,0.0,362.0,939.0,0.0,1,969.0,1
472,472,0.23792314426889904,0.2,1.0,1.0,361.0,860.0,1.0,1,1519.0,1
473,473,0.5765555506987888,0.6,1.0,1.0,377.0,981.0,1.0,1,422.0,1
474,474,-0.07013099541860413,-0.1,1.0,0.0,331.0,750.0,0.0,0,-251.0,1
475,475,-0.12857202917640842,-0.1,0.0,1.0,256.0,732.0,1.0,0,4012.0,1
476,476,-0.723666134674174,-0.7,1.0,0.0,378.0,873.0,0.0,0,119.0,1
477,477,-0.07678056725109228,-0.1,0.0,1.0,477.0,956.0,0.0,1,-223.0,0
478,478,0.15691972362686657,0.2,1.0,1.0,318.0,538.0,1.0,1,4144.0,1
479,479,-0.7305037588844322,-0.7,0.0,1.0,258.0,793.0,1.0,0,499.0,1
480,480,-0.7262528426762175,-0.7,1.0,0.0,474.0,666.0,0.0,0,560.0,1
481,481,0.17254134727591286,0.2,1.0,1.0,369.0,696.0,1.0,1,3935.0,1
482,482,-0.4723332534841905,-0.5,0.0,1.0,476.0,861.0,1.0,0,203.0,1
483,483,-0.356933583446463,-0.4,1.0,0.0,253.0,522.0,0.0,0,535.0,1
484,484,-0.42130835310030307,-0.4,0.0,1.0,363.0,949.0,1.0,0,968.0,1
485,485,0.16600538990138036,0.2,1.0,1.0,439.0,745.0,1.0,1,2996.0,1
486,486,0.028681058902342405,0.0,1.0,1.0,293.0,641.0,0.0,0,226.0,0
487,487,-0.5648879861533103,-0.6,1.0,0.0,434.0,609.0,0.0,0,187.0,1
488,488,0.3379659669456373,0.3,1.0,1.0,374.0,898.0,1.0,1,588.0,1
489,489,-0.7379233401836136,-0.7,0.0,1.0,442.0,887.0,1.0,0,871.0,1
490,490,-0.6273908158023345,-0.6,1.0,0.0,315.0,597.0,0.0,0,488.0,1
491,491,0.7029346216834537,0.7,0.0,0.0,470.0,886.0,0.0,1,204.0,1
492,492,-0.08765831611617936,-0.1,0.0,1.0,346.0,800.0,0.0,1,3684.0,0
493,493,0.0013030037055812294,0.0,0.0,0.0,388.0,740.0,0.0,1,922.0,1
494,494,0.4739930187983711,0.5,0.0,0.0,283.0,538.0,0.0,1,139.0,1
495,495,-0.8953781496048846,-0.9,0.0,1.0,330.0,572.0,1.0,0,208.0,1
496,496,-0.6226425712341739,-0.6,1.0,0.0,324.0,824.0,0.0,0,92.0,1
497,497,-0.07177171893233258,-0.1,1.0,0.0,252.0,830.0,0.0,0,548.0,1
498,498,-0.08798859964814221,-0.1,0.0,1.0,302.0,548.0,1.0,0,4150.0,1
499,499,0.06748748373643498,0.1,1.0,1.0,437.0,855.0,0.0,0,1128.0,0
500,500,0.7184242901510783,0.7,1.0,1.0,295.0,782.0,1.0,1,363.0,1
501,501,-0.025263090381236086,-0.0,0.0,1.0,473.0,575.0,1.0,0,3952.0,1
502,502,-0.07055932277989985,-0.1,0.0,1.0,391.0,933.0,0.0,1,276.0,0
503,503,-0.41614251067944674,-0.4,0.0,1.0,434.0,537.0,1.0,0,419.0,1
504,504,-0.19726758188717441,-0.2,0.0,1.0,434.0,901.0,1.0,0,3665.0,1
505,505,-0.4255901978305779,-0.4,0.0,1.0,483.0,558.0,1.0,0,799.0,1
506,506,-0.46428308941084356,-0.5,0.0,1.0,376.0,724.0,1.0,0,470.0,1
507,507,-0.20343356663761625,-0.2,0.0,1.0,261.0,734.0,0.0,1,-25.0,0
508,508,0.347945300604363,0.3,0.0,0.0,286.0,880.0,0.0,1,-76.0,1
509,509,0.8893361942856429,0.9,1.0,1.0,468.0,882.0,1.0,1,250.0,1
510,510,0.7847714554562953,0.8,0.0,0.0,329.0,876.0,0.0,1,215.0,1
511,511,0.5589210987322663,0.6,1.0,1.0,347.0,742.0,0.0,0,31.0,0
512,512,0.3589693843787457,0.4,1.0,1.0,304.0,999.0,0.0,0,-133.0,0
513,513,-0.16439099680763147,-0.2,1.0,0.0,383.0,592.0,0.0,0,685.0,1
514,514,0.4980301033051514,0.5,0.0,0.0,250.0,798.0,0.0,1,412.0,1
515,515,0.3866852909609303,0.4,1.0,1.0,414.0,565.0,1.0,1,381.0,1
516,516,0.5515142099884082,0.6,1.0,1.0,317.0,696.0,1.0,1,437.0,1
517,517,0.44466072754920616,0.4,1.0,1.0,263.0,646.0,1.0,1,801.0,1
518,518,-0.6914263102278188,-0.7,0.0,1.0,329.0,785.0,1.0,0,256.0,1
519,519,0.546938991645917,0.5,1.0,1.0,290.0,976.0,1.0,1,324.0,1
520,520,-0.7823174883104451,-0.8,1.0,0.0,473.0,552.0,0.0,0,175.0,1
521,521,-0.16576185142677669,-0.2,0.0,1.0,454.0,669.0,1.0,0,1337.0,1
522,522,-0.18090533714963775,-0.2,0.0,1.0,446.0,846.0,1.0,0,1338.0,1
523,523,-0.8863942714583743,-0.9,1.0,0.0,362.0,814.0,0.0,0,264.0,1
524,524,-0.17452619746115294,-0.2,0.0,1.0,424.0,579.0,1.0,0,1377.0,1
525,525,-0.017297025735365845,-0.0,1.0,0.0,278.0,678.0,0.0,0,4044.0,1
526,526,0.7659709154833995,0.8,0.0,0.0,483.0,738.0,0.0,1,349.0,1
527,527,0.8081089035444661,0.8,1.0,1.0,377.0,593.0,1.0,1,580.0,1
528,528,0.08060390934402473,0.1,0.0,0.0,341.0,842.0,0.0,1,467.0,1
529,529,0.0011105339993859875,0.0,1.0,1.0,289.0,561.0,0.0,0,4150.0,0
530,530,-0.5064871080633364,-0.5,1.0,0.0,385.0,551.0,0.0,0,204.0,1
531,531,-0.13355390133499512,-0.1,1.0,0.0,448.0,827.0,0.0,0,335.0,1
532,532,-0.7080881310662914,-0.7,1.0,0.0,424.0,733.0,0.0,0,253.0,1
533,533,0.18665778481612494,0.2,0.0,0.0,405.0,595.0,0.0,1,360.0,1
534,534,0.7634952086378296,0.8,0.0,0.0,470.0,982.0,0.0,1,-62.0,1
535,535,0.1633416488799192,0.2,1.0,1.0,347.0,754.0,0.0,0,3899.0,0
536,536,-0.17814346475942155,-0.2,1.0,0.0,292.0,887.0,0.0,0,1311.0,1
537,537,-0.8970173261418833,-0.9,1.0,0.0,264.0,937.0,0.0,0,199.0,1
538,538,-0.8683771073664548,-0.9,0.0,1.0,489.0,518.0,1.0,0,183.0,1
539,539,0.5641856935753454,0.6,1.0,1.0,409.0,858.0,1.0,1,273.0,1
540,540,0.4875405226168611,0.5,0.0,0.0,407.0,501.0,0.0,1,292.0,1
541,541,0.18067452080055368,0.2,1.0,1.0,447.0,712.0,0.0,0,-69.0,0
542,542,0.7513189731532891,0.8,0.0,0.0,364.0,740.0,0.0,1,386.0,1
543,543,-0.15533314099290274,-0.2,1.0,0.0,356.0,953.0,0.0,0,2291.0,1
544,544,0.858964280100662,0.9,0.0,0.0,475.0,922.0,0.0,1,73.0,1
545,545,0.11130785253385611,0.1,0.0,0.0,444.0,779.0,0.0,1,477.0,1
546,546,-0.2488368239124228,-0.2,0.0,1.0,340.0,787.0,1.0,0,373.0,1
547,547,-0.3566403538949866,-0.4,1.0,0.0,430.0,648.0,0.0,0,1422.0,1
548,548,0.19336695180023356,0.2,1.0,1.0,438.0,561.0,1.0,1,571.0,1
549,549,-0.16475371486234214,-0.2,0.0,1.0,367.0,921.0,1.0,0,3712.0,1
550,550,-0.40796941168723355,-0.4,0.0,1.0,379.0,728.0,1.0,0,483.0,1
551,551,-0.46840777169430514,-0.5,0.0,1.0,326.0,859.0,0.0,1,-245.0,0
552,552,-0.8862866777671581,-0.9,0.0,1.0,412.0,774.0,1.0,0,164.0,1
553,553,0.4613147042851714,0.5,0.0,0.0,298.0,971.0,0.0,1,-159.0,1
554,554,0.6827166937525962,0.7,0.0,0.0,485.0,912.0,0.0,1,203.0,1
555,555,0.38792989186532434,0.4,1.0,1.0,450.0,965.0,1.0,1,585.0,1
556,556,-0.46111380257253093,-0.5,1.0,0.0,347.0,742.0,0.0,0,311.0,1
557,557,0.4531047642215288,0.5,1.0,1.0,340.0,557.0,1.0,1,893.0,1
558,558,-0.6779164300045203,-0.7,0.0,1.0,398.0,756.0,1.0,0,596.0,1
559,559,-0.3886000039010079,-0.4,0.0,1.0,455.0,901.0,1.0,0,284.0,1
560,560,0.056436098904501186,0.1,0.0,0.0,262.0,526.0,0.0,1,232.0,1
561,561,-0.7510822576013689,-0.8,1.0,0.0,259.0,689.0,0.0,0,512.0,1
562,562,-0.11404272647970148,-0.1,1.0,0.0,295.0,986.0,0.0,0,379.0,1
563,563,-0.15280757398444922,-0.2,1.0,0.0,303.0,731.0,0.0,0,1756.0,1
564,564,0.22274595464489522,0.2,1.0,1.0,415.0,955.0,1.0,1,1030.0,1
565,565,-0.8578891442652051,-0.9,0.0,1.0,371.0,682.0,1.0,0,387.0,1
566,566,-0.24295783480853328,-0.2,0.0,1.0,405.0,583.0,1.0,0,4012.0,1
567,567,-0.144430330368583,-0.1,1.0,0.0,375.0,648.0,0.0,0,257.0,1
568,568,-0.22980340410632993,-0.2,1.0,0.0,272.0,952.0,0.0,0,1676.0,1
569,569,-0.48536886424055803,-0.5,0.0,1.0,396.0,849.0,1.0,0,55.0,1
570,570,0.7619857065830841,0.8,0.0,0.0,398.0,840.0,0.0,1,352.0,1
571,571,0.03731880017732492,0.0,0.0,0.0,497.0,767.0,0.0,1,56.0,1
572,572,-0.7233868814929183,-0.7,1.0,0.0,330.0,502.0,0.0,0,128.0,1
573,573,-0.5479157985150798,-0.5,1.0,0.0,420.0,951.0,0.0,0,539.0,1
574,574,-0.15010646156063445,-0.2,0.0,1.0,433.0,720.0,1.0,0,577.0,1
575,575,-0.5849295496015463,-0.6,1.0,0.0,452.0,692.0,0.0,0,186.0,1
576,576,-0.5281796916900452,-0.5,0.0,1.0,472.0,709.0,1.0,0,199.0,1
577,577,-0.6980265664694851,-0.7,0.0,1.0,400.0,586.0,1.0,0,174.0,1
578,578,0.6138471470557653,0.6,0.0,0.0,446.0,630.0,0.0,1,404.0,1
579,579,-0.5676261167308336,-0.6,0.0,1.0,457.0,955.0,0.0,1,-62.0,0
580,580,-0.3355146011139626,-0.3,1.0,0.0,453.0,901.0,0.0,0,526.0,1
581,581,0.497064732123779,0.5,0.0,0.0,274.0,920.0,0.0,1,326.0,1
582,582,-0.14358510729330543,-0.1,0.0,1.0,380.0,787.0,1.0,0,3833.0,1
583,583,-0.2295831408699459,-0.2,1.0,0.0,388.0,641.0,1.0,1,-339.0,0
584,584,-0.6692608526603773,-0.7,0.0,1.0,271.0,953.0,1.0,0,156.0,1
585,585,0.2121225114954891,0.2,1.0,1.0,444.0,504.0,1.0,1,3642.0,1
586,586,-0.2468865669494651,-0.2,0.0,1.0,434.0,893.0,1.0,0,1303.0,1
587,587,-0.42557032974559944,-0.4,1.0,0.0,309.0,844.0,0.0,0,177.0,1
588,588,0.48345489322255764,0.5,1.0,1.0,298.0,737.0,1.0,1,945.0,1
589,589,-0.08095478906306786,-0.1,1.0,0.0,256.0,730.0,0.0,0,1764.0,1
590,590,-0.7199021582656226,-0.7,0.0,1.0,307.0,821.0,1.0,0,112.0,1
591,591,-0.8556423279615295,-0.9,0.0,1.0,377.0,731.0,1.0,0,172.0,1
592,592,0.35216006788221976,0.4,1.0,1.0,313.0,591.0,1.0,1,986.0,1
593,593,-0.2920458554169326,-0.3,0.0,1.0,283.0,882.0,0.0,1,-495.0,0
594,594,0.13476164897637044,0.1,0.0,0.0,271.0,968.0,0.0,1,1181.0,1
595,595,0.6508019120317609,0.7,1.0,1.0,342.0,513.0,1.0,1,325.0,1
596,596,-0.09489262246050045,-0.1,0.0,1.0,468.0,842.0,1.0,0,3690.0,1
597,597,-0.7889131272772724,-0.8,1.0,0.0,469.0,614.0,0.0,0,367.0,1
598,598,0.5223048393320954,0.5,1.0,1.0,401.0,590.0,1.0,1,349.0,1
599,599,-0.5217365132605898,-0.5,0.0,1.0,316.0,604.0,1.0,0,660.0,1
600,600,-0.05229999771660265,-0.1,0.0,1.0,436.0,524.0,0.0,1,4040.0,0
601,601,-0.18930606603891986,-0.2,0.0,1.0,391.0,595.0,1.0,0,574.0,1
602,602,0.2999156841848588,0.3,0.0,0.0,460.0,741.0,0.0,1,599.0,1
603,603,0.6851619157338728,0.7,0.0,0.0,278.0,626.0,0.0,1,136.0,1
604,604,0.866626705790451,0.9,1.0,1.0,446.0,968.0,1.0,1,446.0,1
605,605,-0.452558129651137,-0.5,1.0,0.0,346.0,518.0,0.0,0,-184.0,1
606,606,-0.8409244643649046,-0.8,1.0,0.0,444.0,795.0,0.0,0,601.0,1
607,607,-0.23493882183113612,-0.2,0.0,1.0,466.0,789.0,1.0,0,695.0,1
608,608,-0.7017818047594439,-0.7,0.0,1.0,483.0,653.0,1.0,0,414.0,1
609,609,0.3107532288944813,0.3,1.0,1.0,316.0,912.0,1.0,1,392.0,1
610,610,0.7958769173711909,0.8,0.0,0.0,356.0,995.0,0.0,1,469.0,1
611,611,0.45897093722170135,0.5,0.0,0.0,459.0,726.0,0.0,1,105.0,1
612,612,0.4695617370128019,0.5,0.0,0.0,402.0,755.0,0.0,1,483.0,1
613,613,-0.2071781745919219,-0.2,1.0,0.0,455.0,511.0,0.0,0,1044.0,1
614,614,-0.10243863256304675,-0.1,0.0,1.0,312.0,737.0,1.0,0,3551.0,1
615,615,0.6746286525577924,0.7,0.0,0.0,277.0,720.0,0.0,1,153.0,1
616,616,-0.2204309761888006,-0.2,1.0,0.0,262.0,627.0,0.0,0,751.0,1
617,617,-0.43861443473140305,-0.4,0.0,1.0,383.0,555.0,1.0,0,762.0,1
618,618,0.35513633027909786,0.4,1.0,1.0,432.0,694.0,1.0,1,444.0,1
619,619,0.8298767272801969,0.8,1.0,1.0,293.0,541.0,0.0,0,-374.0,0
620,620,0.13350398773183214,0.1,1.0,1.0,421.0,648.0,0.0,0,-99.0,0
621,621,0.1790878839513469,0.2,0.0,0.0,499.0,710.0,0.0,1,461.0,1
622,622,0.16658186389964535,0.2,1.0,1.0,378.0,760.0,1.0,1,1352.0,1
623,623,-0.5396075870176382,-0.5,0.0,1.0,257.0,824.0,1.0,0,599.0,1
624,624,-0.26557324781296876,-0.3,0.0,1.0,421.0,710.0,1.0,0,639.0,1
625,625,0.8507605611676093,0.9,1.0,1.0,251.0,568.0,1.0,1,251.0,1
626,626,-0.10704383235108128,-0.1,0.0,1.0,409.0,956.0,0.0,1,305.0,0
627,627,0.4393406197793398,0.4,1.0,1.0,293.0,580.0,1.0,1,347.0,1
628,628,0.16763588209424884,0.2,1.0,1.0,352.0,912.0,0.0,0,2216.0,0
629,629,0.8072556292675058,0.8,0.0,0.0,408.0,660.0,0.0,1,92.0,1
630,630,-0.8794666534138205,-0.9,1.0,0.0,264.0,596.0,0.0,0,290.0,1
631,631,0.047659592899812475,0.0,1.0,1.0,264.0,553.0,0.0,0,1373.0,0
632,632,0.49250690679582776,0.5,1.0,1.0,287.0,614.0,1.0,1,589.0,1
633,633,-0.16473931455895874,-0.2,0.0,1.0,406.0,778.0,1.0,0,996.0,1
634,634,0.4167206190011471,0.4,0.0,0.0,412.0,567.0,0.0,1,21.0,1
635,635,0.42618963066525384,0.4,1.0,1.0,478.0,647.0,1.0,1,465.0,1
636,636,0.7865974583897065,0.8,0.0,0.0,307.0,647.0,0.0,1,186.0,1
637,637,-0.44845172823575336,-0.4,1.0,0.0,320.0,559.0,0.0,0,421.0,1
638,638,-0.6341055045432856,-0.6,0.0,1.0,285.0,906.0,1.0,0,209.0,1
639,639,0.2419521774462291,0.2,1.0,1.0,452.0,674.0,1.0,1,1444.0,1
640,640,-0.4319474107513604,-0.4,0.0,1.0,480.0,945.0,1.0,0,915.0,1
641,641,-0.19415822484612333,-0.2,0.0,1.0,317.0,800.0,1.0,0,1593.0,1
642,642,0.8101392428182724,0.8,0.0,0.0,374.0,897.0,0.0,1,89.0,1
643,643,0.37673704067242164,0.4,0.0,0.0,420.0,968.0,0.0,1,842.0,1
644,644,-0.4675322265193772,-0.5,0.0,1.0,398.0,904.0,1.0,0,1408.0,1
645,645,0.13641517678433968,0.1,1.0,1.0,481.0,590.0,0.0,0,2629.0,0
646,646,-0.8868975699957478,-0.9,0.0,1.0,269.0,580.0,1.0,0,251.0,1
647,647,0.7423256847107146,0.7,0.0,0.0,377.0,773.0,0.0,1,120.0,1
648,648,-0.7130175030272211,-0.7,0.0,1.0,323.0,868.0,1.0,0,289.0,1
649,649,-0.08287344859185164,-0.1,0.0,1.0,351.0,508.0,1.0,0,4141.0,1
650,650,0.34029375263136064,0.3,1.0,1.0,450.0,759.0,0.0,0,-429.0,0
651,651,-0.6711222866425335,-0.7,0.0,1.0,472.0,529.0,1.0,0,499.0,1
652,652,0.33612656001205343,0.3,0.0,0.0,367.0,562.0,0.0,1,101.0,1
653,653,-0.6239161748409192,-0.6,1.0,0.0,382.0,726.0,1.0,1,-58.0,0
654,654,0.30563170139295626,0.3,1.0,1.0,432.0,930.0,1.0,1,1948.0,1
655,655,0.5885668723667768,0.6,1.0,1.0,277.0,530.0,1.0,1,333.0,1
656,656,-0.5975804363161199,-0.6,1.0,0.0,345.0,706.0,0.0,0,349.0,1
657,657,-0.5807617702271204,-0.6,1.0,0.0,263.0,841.0,0.0,0,56.0,1
658,658,-0.3222854373111511,-0.3,0.0,1.0,278.0,906.0,1.0,0,276.0,1
659,659,-0.0464449431691667,-0.0,1.0,0.0,367.0,706.0,0.0,0,277.0,1
660,660,-0.010554130479808799,-0.0,1.0,0.0,453.0,827.0,0.0,0,2160.0,1
661,661,-0.19433367658479916,-0.2,1.0,0.0,498.0,711.0,0.0,0,881.0,1
662,662,-0.02703471174342964,-0.0,1.0,0.0,394.0,585.0,0.0,0,1081.0,1
663,663,-0.013173984644702319,-0.0,0.0,1.0,286.0,605.0,1.0,0,419.0,1
664,664,0.38305909636087143,0.4,1.0,1.0,462.0,931.0,1.0,1,707.0,1
665,665,-0.17700536978719983,-0.2,1.0,0.0,270.0,928.0,0.0,0,332.0,1
666,666,-0.5241742568087822,-0.5,1.0,0.0,478.0,553.0,0.0,0,49.0,1
667,667,0.2587545304830131,0.3,0.0,0.0,471.0,619.0,0.0,1,410.0,1
668,668,-0.07080123200552535,-0.1,1.0,0.0,293.0,804.0,0.0,0,63.0,1
669,669,0.5979435871529889,0.6,1.0,1.0,315.0,988.0,1.0,1,397.0,1
670,670,0.14876027324572105,0.1,1.0,1.0,294.0,975.0,1.0,1,3731.0,1
671,671,0.29995195980195166,0.3,0.0,0.0,477.0,629.0,0.0,1,624.0,1
672,672,-0.8090097087370677,-0.8,0.0,1.0,264.0,906.0,0.0,1,-150.0,0
673,673,0.5086869674141187,0.5,0.0,0.0,309.0,787.0,0.0,1,414.0,1
674,674,-0.711878645055757,-0.7,1.0,0.0,403.0,505.0,0.0,0,192.0,1
675,675,0.07077206660175595,0.1,0.0,0.0,404.0,987.0,0.0,1,-231.0,1
676,676,-0.7024905940492696,-0.7,0.0,1.0,333.0,744.0,1.0,0,133.0,1
677,677,0.8264235913981738,0.8,0.0,0.0,369.0,585.0,0.0,1,166.0,1
678,678,0.29142755612442584,0.3,1.0,1.0,406.0,790.0,0.0,0,-86.0,0
679,679,-0.3510478202148185,-0.4,0.0,1.0,407.0,971.0,1.0,0,612.0,1
680,680,-0.8740100587452827,-0.9,0.0,1.0,310.0,916.0,1.0,0,294.0,1
681,681,-0.3738211509923206,-0.4,0.0,1.0,250.0,585.0,1.0,0,305.0,1
682,682,0.534991828412995,0.5,0.0,0.0,335.0,759.0,0.0,1,156.0,1
683,683,-0.821389803087622,-0.8,0.0,1.0,413.0,546.0,1.0,0,251.0,1
684,684,0.14016804007295558,0.1,1.0,1.0,457.0,723.0,1.0,1,2810.0,1
685,685,0.5307062784470312,0.5,1.0,1.0,365.0,731.0,1.0,1,364.0,1
686,686,0.8756880303706912,0.9,1.0,1.0,499.0,764.0,1.0,1,717.0,1
687,687,0.28435476726529896,0.3,0.0,0.0,359.0,510.0,0.0,1,521.0,1
688,688,0.5267801952983614,0.5,1.0,1.0,357.0,758.0,1.0,1,455.0,1
689,689,0.3137718680921783,0.3,0.0,0.0,265.0,562.0,0.0,1,293.0,1
690,690,-0.4007429128240472,-0.4,1.0,0.0,461.0,941.0,0.0,0,538.0,1
691,691,0.406302167351832,0.4,0.0,0.0,271.0,642.0,0.0,1,487.0,1
692,692,0.723688703626162,0.7,1.0,1.0,386.0,552.0,1.0,1,152.0,1
693,693,-0.5776621516545806,-0.6,0.0,1.0,317.0,520.0,1.0,0,383.0,1
694,694,0.13494793863394727,0.1,0.0,0.0,379.0,936.0,0.0,1,1255.0,1
695,695,-0.2283767752857847,-0.2,1.0,0.0,371.0,561.0,0.0,0,928.0,1
696,696,0.12622032158466345,0.1,0.0,0.0,305.0,671.0,0.0,1,1194.0,1
697,697,0.08704992238042253,0.1,1.0,1.0,447.0,909.0,0.0,0,274.0,0
698,698,0.5850765923990845,0.6,1.0,1.0,398.0,859.0,0.0,0,-97.0,0
699,699,0.6395359170654359,0.6,1.0,1.0,417.0,681.0,1.0,1,312.0,1
700,700,-0.8638948002427858,-0.9,0.0,1.0,250.0,706.0,1.0,0,234.0,1
701,701,-0.8987695415073859,-0.9,0.0,1.0,306.0,658.0,1.0,0,406.0,1
702,702,0.3560382614154306,0.4,0.0,0.0,309.0,634.0,0.0,1,617.0,1
703,703,-0.8644434765980649,-0.9,1.0,0.0,491.0,645.0,0.0,0,274.0,1
704,704,-0.20761502027913303,-0.2,1.0,0.0,460.0,796.0,0.0,0,164.0,1
705,705,0.7806043312287293,0.8,1.0,1.0,446.0,557.0,1.0,1,197.0,1
706,706,-0.7034346387017751,-0.7,0.0,1.0,435.0,986.0,1.0,0,319.0,1
707,707,0.5758175498918269,0.6,0.0,0.0,475.0,516.0,0.0,1,309.0,1
708,708,0.31830360776130007,0.3,1.0,1.0,430.0,525.0,1.0,1,1875.0,1
709,709,-0.8158787193005256,-0.8,1.0,0.0,357.0,624.0,0.0,0,709.0,1
710,710,-0.17351814364302276,-0.2,0.0,1.0,416.0,719.0,1.0,0,835.0,1
711,711,0.14394157592688972,0.1,0.0,0.0,271.0,585.0,0.0,1,1084.0,1
712,712,0.21435832126286425,0.2,0.0,0.0,499.0,942.0,0.0,1,609.0,1
713,713,0.8392275836841451,0.8,0.0,0.0,413.0,789.0,0.0,1,258.0,1
714,714,0.3460800735160311,0.3,0.0,0.0,296.0,862.0,0.0,1,582.0,1
715,715,0.7804980796889852,0.8,1.0,1.0,370.0,632.0,0.0,0,-162.0,0
716,716,-0.8459316149136649,-0.8,1.0,0.0,487.0,581.0,0.0,0,282.0,1
717,717,-0.7539522613170531,-0.8,0.0,1.0,338.0,870.0,0.0,1,-258.0,0
718,718,-0.10823897175876573,-0.1,0.0,1.0,332.0,878.0,1.0,0,1170.0,1
719,719,-0.41551451143687357,-0.4,0.0,1.0,302.0,558.0,1.0,0,350.0,1
720,720,-0.078770270926797,-0.1,1.0,0.0,406.0,750.0,0.0,0,2894.0,1
721,721,0.547380533503144,0.5,1.0,1.0,480.0,787.0,1.0,1,593.0,1
722,722,0.8402412831567813,0.8,0.0,0.0,259.0,920.0,0.0,1,201.0,1
723,723,-0.5981097730628836,-0.6,0.0,1.0,486.0,593.0,1.0,0,341.0,1
724,724,-0.2566030858118272,-0.3,0.0,1.0,406.0,852.0,1.0,0,1612.0,1
725,725,0.6080508571610584,0.6,0.0,0.0,416.0,651.0,0.0,1,173.0,1
726,726,0.32115229349962304,0.3,0.0,0.0,469.0,711.0,0.0,1,-20.0,1
727,727,0.896345127151919,0.9,1.0,1.0,317.0,948.0,1.0,1,275.0,1
728,728,-0.1685729157122109,-0.2,1.0,0.0,353.0,866.0,0.0,0,421.0,1
729,729,0.5565942564905663,0.6,1.0,1.0,259.0,612.0,1.0,1,209.0,1
730,730,-0.21864651042246885,-0.2,1.0,0.0,288.0,668.0,0.0,0,-136.0,1
731,731,0.6929951035293721,0.7,1.0,1.0,304.0,714.0,1.0,1,222.0,1
732,732,-0.7731099106047181,-0.8,1.0,0.0,401.0,513.0,0.0,0,706.0,1
733,733,0.8308054464135798,0.8,0.0,0.0,317.0,805.0,0.0,1,258.0,1
734,734,0.04708677035640463,0.0,0.0,0.0,366.0,985.0,0.0,1,419.0,1
735,735,-0.654392540256854,-0.7,1.0,0.0,263.0,639.0,0.0,0,218.0,1
736,736,-0.5454383751239362,-0.5,1.0,0.0,349.0,659.0,0.0,0,52.0,1
737,737,-0.39798607409984343,-0.4,0.0,1.0,282.0,877.0,1.0,0,631.0,1
738,738,-0.798032724435088,-0.8,1.0,0.0,308.0,987.0,0.0,0,-125.0,1
739,739,-0.07002240155137507,-0.1,1.0,0.0,428.0,836.0,0.0,0,1256.0,1
740,740,-0.43215236517758077,-0.4,0.0,1.0,317.0,874.0,0.0,1,-51.0,0
741,741,-0.6033421790369267,-0.6,0.0,1.0,348.0,967.0,1.0,0,405.0,1
742,742,0.12935721410398104,0.1,1.0,1.0,272.0,787.0,1.0,1,191.0,1
743,743,-0.7520712910967854,-0.8,0.0,1.0,453.0,905.0,1.0,0,202.0,1
744,744,-0.0731554443233643,-0.1,1.0,0.0,289.0,979.0,0.0,0,3732.0,1
745,745,-0.2869500829082774,-0.3,0.0,1.0,369.0,966.0,1.0,0,-425.0,1
746,746,0.18773050926825652,0.2,0.0,0.0,398.0,799.0,0.0,1,893.0,1
747,747,-0.34596927367474684,-0.3,0.0,1.0,257.0,951.0,1.0,0,832.0,1
748,748,0.5013876445878976,0.5,0.0,0.0,389.0,970.0,0.0,1,261.0,1
749,749,0.39463602934160014,0.4,1.0,1.0,455.0,973.0,1.0,1,1112.0,1
750,750,0.5751179983078031,0.6,1.0,1.0,384.0,817.0,1.0,1,269.0,1
751,751,0.6349263478744177,0.6,1.0,1.0,483.0,836.0,1.0,1,481.0,1
752,752,0.08500154352846256,0.1,0.0,0.0,370.0,805.0,0.0,1,905.0,1
753,753,0.03604312981983415,0.0,0.0,0.0,428.0,961.0,0.0,1,3611.0,1
754,754,-0.08455286724504196,-0.1,1.0,0.0,371.0,764.0,0.0,0,1265.0,1
755,755,0.7535232140416278,0.8,0.0,0.0,468.0,749.0,0.0,1,203.0,1
756,756,0.13865428267055158,0.1,0.0,0.0,453.0,985.0,0.0,1,262.0,1
757,757,-0.06571342525914436,-0.1,0.0,1.0,486.0,913.0,1.0,0,2401.0,1
758,758,0.5726342468134505,0.6,0.0,0.0,281.0,731.0,0.0,1,8.0,1
759,759,-0.372321283604906,-0.4,1.0,0.0,465.0,989.0,0.0,0,186.0,1
760,760,0.4329389762928467,0.4,0.0,0.0,349.0,782.0,0.0,1,869.0,1
761,761,0.714334008372086,0.7,1.0,1.0,370.0,824.0,1.0,1,396.0,1
762,762,0.6224854991913272,0.6,1.0,1.0,277.0,844.0,1.0,1,419.0,1
763,763,0.2911809691916426,0.3,1.0,1.0,433.0,842.0,1.0,1,1785.0,1
764,764,0.09894096141778208,0.1,1.0,1.0,482.0,583.0,1.0,1,-95.0,1
765,765,0.7674703520499252,0.8,1.0,1.0,334.0,843.0,0.0,0,-117.0,0
766,766,-0.19617881424771633,-0.2,0.0,1.0,311.0,677.0,1.0,0,1002.0,1
767,767,-0.8590147271319136,-0.9,1.0,0.0,267.0,949.0,0.0,0,404.0,1
768,768,-0.8978436564048552,-0.9,0.0,1.0,463.0,752.0,1.0,0,245.0,1
769,769,0.0619425708970468,0.1,0.0,0.0,405.0,832.0,0.0,1,773.0,1
770,770,0.2213518202634014,0.2,1.0,1.0,441.0,684.0,1.0,1,895.0,1
771,771,-0.5091542148308508,-0.5,1.0,0.0,487.0,618.0,0.0,0,235.0,1
772,772,-0.7156866322619692,-0.7,1.0,0.0,354.0,910.0,0.0,0,516.0,1
773,773,-0.6518254288212522,-0.7,1.0,0.0,341.0,634.0,0.0,0,-215.0,1
774,774,-0.4637893881567947,-0.5,1.0,0.0,462.0,874.0,0.0,0,274.0,1
775,775,-0.4975234906505508,-0.5,1.0,0.0,347.0,987.0,0.0,0,206.0,1
776,776,0.7631813168856193,0.8,0.0,0.0,478.0,669.0,0.0,1,423.0,1
777,777,-0.04097078229477613,-0.0,0.0,1.0,347.0,681.0,0.0,1,1942.0,0
778,778,-0.06353129417806669,-0.1,1.0,0.0,443.0,633.0,0.0,0,2514.0,1
779,779,0.139531277271861,0.1,1.0,1.0,357.0,688.0,0.0,0,1445.0,0
780,780,0.2715055754743009,0.3,0.0,0.0,448.0,700.0,0.0,1,282.0,1
781,781,0.17589921264019515,0.2,1.0,1.0,316.0,700.0,1.0,1,1554.0,1
782,782,0.18790423211118712,0.2,0.0,0.0,262.0,834.0,0.0,1,204.0,1
783,783,-0.18202473523280804,-0.2,0.0,1.0,255.0,722.0,1.0,0,983.0,1
784,784,0.5909093426898627,0.6,0.0,0.0,403.0,970.0,0.0,1,-163.0,1
785,785,0.10387792271157481,0.1,1.0,1.0,376.0,506.0,1.0,1,2488.0,1
786,786,-0.21127103884686915,-0.2,1.0,0.0,301.0,502.0,0.0,0,717.0,1
787,787,0.8772327481307959,0.9,0.0,0.0,326.0,737.0,0.0,1,317.0,1
788,788,0.06856689862268184,0.1,0.0,0.0,448.0,843.0,0.0,1,3709.0,1
789,789,-0.09683864782754315,-0.1,0.0,1.0,448.0,958.0,1.0,0,3594.0,1
790,790,0.7902907888110605,0.8,1.0,1.0,469.0,632.0,1.0,1,129.0,1
791,791,0.7858623074805849,0.8,0.0,0.0,390.0,937.0,0.0,1,173.0,1
792,792,0.6637288410042755,0.7,0.0,0.0,271.0,986.0,0.0,1,503.0,1
793,793,0.3991967088101188,0.4,0.0,0.0,320.0,510.0,0.0,1,1120.0,1
794,794,-0.05072006189212819,-0.1,1.0,0.0,412.0,944.0,0.0,0,-516.0,1
795,795,0.10555256353643527,0.1,1.0,1.0,387.0,633.0,1.0,1,1460.0,1
796,796,0.33560720118682796,0.3,0.0,0.0,338.0,709.0,0.0,1,173.0,1
797,797,-0.8463031839799129,-0.8,0.0,1.0,258.0,765.0,1.0,0,187.0,1
798,798,-0.4421860083557279,-0.4,1.0,0.0,324.0,502.0,0.0,0,494.0,1
799,799,-0.005994697580899988,-0.0,1.0,0.0,403.0,503.0,1.0,1,4094.0,0
800,800,-0.7376841910317138,-0.7,1.0,0.0,492.0,569.0,0.0,0,-301.0,1
801,801,0.8185253937292919,0.8,0.0,0.0,400.0,554.0,0.0,1,266.0,1
802,802,0.6077472488629546,0.6,0.0,0.0,489.0,518.0,0.0,1,13.0,1
803,803,0.3759577986850299,0.4,0.0,0.0,324.0,986.0,0.0,1,650.0,1
804,804,0.5136137960545116,0.5,1.0,1.0,367.0,514.0,1.0,1,579.0,1
805,805,0.8047615854054365,0.8,1.0,1.0,389.0,984.0,1.0,1,197.0,1
806,806,0.5231602049953629,0.5,0.0,0.0,450.0,838.0,0.0,1,152.0,1
807,807,0.7374564467132224,0.7,0.0,0.0,400.0,608.0,0.0,1,212.0,1
808,808,-0.8031548304056543,-0.8,0.0,1.0,457.0,957.0,1.0,0,376.0,1
809,809,0.6470941936674347,0.6,1.0,1.0,385.0,808.0,1.0,1,87.0,1
810,810,0.8598195185161707,0.9,0.0,0.0,455.0,582.0,0.0,1,163.0,1
811,811,0.46403818051480916,0.5,0.0,0.0,379.0,544.0,0.0,1,367.0,1
812,812,-0.0021415937667150775,-0.0,1.0,0.0,435.0,571.0,1.0,1,3994.0,0
813,813,0.7335713821364894,0.7,0.0,0.0,309.0,753.0,0.0,1,208.0,1
814,814,0.7634504151022724,0.8,1.0,1.0,494.0,545.0,1.0,1,411.0,1
815,815,-0.37327723717124317,-0.4,1.0,0.0,297.0,745.0,0.0,0,718.0,1
816,816,0.801003776908663,0.8,1.0,1.0,263.0,872.0,1.0,1,275.0,1
817,817,0.7408338241039832,0.7,0.0,0.0,409.0,768.0,0.0,1,303.0,1
818,818,-0.31632604417673027,-0.3,0.0,1.0,342.0,729.0,1.0,0,969.0,1
819,819,-0.19066375917561607,-0.2,1.0,0.0,460.0,948.0,0.0,0,442.0,1
820,820,0.29485747162409426,0.3,0.0,0.0,354.0,821.0,0.0,1,755.0,1
821,821,0.15774021611470024,0.2,0.0,0.0,477.0,782.0,0.0,1,101.0,1
822,822,0.5367903906793124,0.5,1.0,1.0,411.0,590.0,1.0,1,529.0,1
823,823,-0.42043313769060126,-0.4,0.0,1.0,347.0,923.0,1.0,0,620.0,1
824,824,0.03540181117059782,0.0,0.0,0.0,301.0,751.0,0.0,1,808.0,1
825,825,-0.4954675461059342,-0.5,1.0,0.0,468.0,975.0,0.0,0,387.0,1
826,826,-0.21385459825433262,-0.2,1.0,0.0,357.0,919.0,0.0,0,84.0,1
827,827,0.40352925654232863,0.4,0.0,0.0,388.0,690.0,0.0,1,742.0,1
828,828,0.4003527016264413,0.4,1.0,1.0,296.0,648.0,1.0,1,156.0,1
829,829,-0.24367353044195583,-0.2,1.0,0.0,418.0,614.0,0.0,0,548.0,1
830,830,-0.37994215824638466,-0.4,1.0,0.0,268.0,977.0,0.0,0,255.0,1
831,831,-0.5584996127261783,-0.6,1.0,0.0,277.0,809.0,0.0,0,-36.0,1
832,832,0.0003615783852923826,0.0,0.0,0.0,290.0,729.0,1.0,0,3981.0,0
833,833,0.8144513032244663,0.8,0.0,0.0,410.0,854.0,0.0,1,176.0,1
834,834,-0.5669751120563591,-0.6,0.0,1.0,370.0,781.0,1.0,0,379.0,1
835,835,0.6926616783143821,0.7,1.0,1.0,463.0,551.0,1.0,1,766.0,1
836,836,0.6314656259147694,0.6,0.0,0.0,447.0,875.0,0.0,1,198.0,1
837,837,-0.7448955271190261,-0.7,1.0,0.0,435.0,540.0,0.0,0,135.0,1
838,838,0.366332812850546,0.4,0.0,0.0,370.0,542.0,0.0,1,468.0,1
839,839,-0.28276408694970334,-0.3,1.0,0.0,352.0,819.0,0.0,0,-401.0,1
840,840,0.7409193389405301,0.7,1.0,1.0,468.0,729.0,0.0,0,-127.0,0
841,841,0.26020090371277915,0.3,0.0,0.0,488.0,782.0,0.0,1,-520.0,1
842,842,0.6379381497654705,0.6,0.0,0.0,455.0,969.0,0.0,1,946.0,1
843,843,-0.13946952300813398,-0.1,1.0,0.0,300.0,963.0,0.0,0,837.0,1
844,844,0.8418679411281135,0.8,0.0,0.0,443.0,622.0,0.0,1,175.0,1
845,845,0.42239442340367395,0.4,1.0,1.0,350.0,868.0,1.0,1,1122.0,1
846,846,-0.05276475821741955,-0.1,0.0,1.0,315.0,996.0,0.0,1,2379.0,0
847,847,0.1672912300271977,0.2,0.0,0.0,360.0,667.0,0.0,1,1253.0,1
848,848,0.24916420489891367,0.2,0.0,0.0,361.0,506.0,0.0,1,1173.0,1
849,849,0.5458350018889465,0.5,0.0,0.0,424.0,730.0,0.0,1,-134.0,1
850,850,0.0670962995618275,0.1,1.0,1.0,491.0,972.0,0.0,0,-193.0,0
851,851,0.45093707166750463,0.5,1.0,1.0,424.0,622.0,1.0,1,664.0,1
852,852,-0.047321961089604736,-0.0,1.0,0.0,489.0,535.0,0.0,0,3226.0,1
853,853,0.07267890892391848,0.1,1.0,1.0,416.0,693.0,0.0,0,3891.0,0
854,854,-0.5086990869167916,-0.5,1.0,0.0,319.0,867.0,0.0,0,364.0,1
855,855,0.2866652366437906,0.3,1.0,1.0,313.0,832.0,1.0,1,935.0,1
856,856,-0.6885275690225418,-0.7,0.0,1.0,316.0,829.0,1.0,0,315.0,1
857,857,0.30797062951673715,0.3,1.0,1.0,341.0,837.0,1.0,1,152.0,1
858,858,-0.7552580318411621,-0.8,0.0,1.0,398.0,604.0,1.0,0,108.0,1
859,859,-0.7783639634560079,-0.8,1.0,0.0,260.0,973.0,0.0,0,257.0,1
860,860,-0.31446167281087856,-0.3,1.0,0.0,449.0,795.0,0.0,0,576.0,1
861,861,0.13857226302295567,0.1,0.0,0.0,388.0,890.0,0.0,1,512.0,1
862,862,-0.7065579636346514,-0.7,0.0,1.0,412.0,646.0,1.0,0,122.0,1
863,863,-0.6916622780982429,-0.7,0.0,1.0,352.0,890.0,0.0,1,-362.0,0
864,864,0.5207876512872981,0.5,0.0,0.0,392.0,699.0,0.0,1,439.0,1
865,865,0.7189293615219635,0.7,1.0,1.0,415.0,554.0,1.0,1,621.0,1
866,866,0.722541503643697,0.7,1.0,1.0,252.0,899.0,1.0,1,309.0,1
867,867,-0.8664273899168927,-0.9,0.0,1.0,384.0,696.0,1.0,0,210.0,1
868,868,0.06509428349477964,0.1,0.0,0.0,397.0,912.0,1.0,0,-539.0,0
869,869,0.6548000055601696,0.7,1.0,1.0,350.0,676.0,1.0,1,294.0,1
870,870,0.13984489802139144,0.1,1.0,1.0,262.0,602.0,1.0,1,736.0,1
871,871,-0.29264568431339344,-0.3,0.0,1.0,294.0,975.0,1.0,0,341.0,1
872,872,0.5830553666512465,0.6,0.0,0.0,355.0,956.0,0.0,1,489.0,1
873,873,0.7352421303276407,0.7,0.0,0.0,322.0,508.0,0.0,1,580.0,1
874,874,0.19273275908134313,0.2,1.0,1.0,265.0,826.0,1.0,1,1739.0,1
875,875,-0.41973143764502197,-0.4,0.0,1.0,298.0,783.0,0.0,1,-501.0,0
876,876,0.6117712917293986,0.6,0.0,0.0,337.0,914.0,0.0,1,329.0,1
877,877,-0.08260146462665097,-0.1,0.0,1.0,365.0,973.0,1.0,0,3662.0,1
878,878,0.392165629875184,0.4,0.0,0.0,404.0,713.0,0.0,1,453.0,1
879,879,-0.2412061489331745,-0.2,0.0,1.0,309.0,725.0,0.0,1,-434.0,0
880,880,0.6295821625829646,0.6,1.0,1.0,376.0,667.0,1.0,1,187.0,1
881,881,-0.43769879277767826,-0.4,0.0,1.0,396.0,765.0,0.0,1,-591.0,0
882,882,-0.28034301542469675,-0.3,1.0,0.0,361.0,511.0,0.0,0,528.0,1
883,883,0.030858834998577445,0.0,0.0,0.0,345.0,588.0,1.0,0,4067.0,0
884,884,-0.6962406071630299,-0.7,0.0,1.0,341.0,625.0,1.0,0,184.0,1
885,885,0.346495592277576,0.3,0.0,0.0,426.0,662.0,0.0,1,182.0,1
886,886,-0.5599497867391863,-0.6,1.0,0.0,397.0,719.0,0.0,0,494.0,1
887,887,0.6545727243589644,0.7,1.0,1.0,437.0,633.0,1.0,1,660.0,1
888,888,0.6196776403137755,0.6,1.0,1.0,349.0,980.0,1.0,1,511.0,1
889,889,-0.6487949299745334,-0.6,0.0,1.0,461.0,725.0,1.0,0,174.0,1
890,890,-0.09391378906133518,-0.1,1.0,0.0,389.0,909.0,0.0,0,2612.0,1
891,891,-0.5991215339447269,-0.6,0.0,1.0,255.0,567.0,0.0,1,-192.0,0
892,892,-0.03984927753188572,-0.0,0.0,1.0,273.0,902.0,0.0,1,3595.0,0
893,893,-0.6884239584892862,-0.7,1.0,0.0,372.0,930.0,0.0,0,458.0,1
894,894,-0.26143799328291684,-0.3,0.0,1.0,275.0,895.0,1.0,0,1520.0,1
895,895,0.30540527055554134,0.3,0.0,0.0,429.0,919.0,0.0,1,272.0,1
896,896,-0.7106067581154285,-0.7,0.0,1.0,269.0,957.0,1.0,0,234.0,1
897,897,-0.3306354311482299,-0.3,0.0,1.0,469.0,522.0,0.0,1,-21.0,0
898,898,0.13580721274217045,0.1,0.0,0.0,472.0,643.0,0.0,1,-335.0,1
899,899,0.12180128776206633,0.1,1.0,1.0,254.0,882.0,1.0,1,3864.0,1
900,900,0.05834333718663809,0.1,1.0,1.0,287.0,693.0,1.0,1,4020.0,1
901,901,-0.6533158933908427,-0.7,1.0,0.0,404.0,638.0,0.0,0,278.0,1
902,902,-0.7754982725434801,-0.8,1.0,0.0,345.0,887.0,0.0,0,-12.0,1
903,903,0.27405637263871896,0.3,1.0,1.0,466.0,834.0,1.0,1,1220.0,1
904,904,-0.54115126465972,-0.5,0.0,1.0,319.0,939.0,1.0,0,552.0,1
905,905,0.007646204147041424,0.0,0.0,0.0,281.0,959.0,0.0,1,-590.0,1
906,906,-0.24911189024562408,-0.2,0.0,1.0,372.0,620.0,1.0,0,958.0,1
907,907,-0.03271374915467096,-0.0,1.0,0.0,346.0,773.0,0.0,0,1471.0,1
908,908,0.27588367158810045,0.3,1.0,1.0,337.0,726.0,1.0,1,827.0,1
909,909,0.6676591483391149,0.7,0.0,0.0,329.0,627.0,0.0,1,324.0,1
910,910,-0.12058846673708401,-0.1,0.0,1.0,348.0,808.0,1.0,0,744.0,1
911,911,0.6359738324112433,0.6,1.0,1.0,475.0,978.0,1.0,1,237.0,1
912,912,0.8331486026124187,0.8,1.0,1.0,292.0,976.0,1.0,1,442.0,1
913,913,-0.6098134488248428,-0.6,0.0,1.0,416.0,944.0,1.0,0,510.0,1
914,914,0.3160385543197274,0.3,1.0,1.0,392.0,591.0,1.0,1,277.0,1
915,915,0.8393818707121353,0.8,0.0,0.0,293.0,934.0,0.0,1,243.0,1
916,916,-0.2406111656489014,-0.2,1.0,0.0,315.0,579.0,0.0,0,306.0,1
917,917,0.32672908799711153,0.3,0.0,0.0,340.0,949.0,0.0,1,671.0,1
918,918,-0.03192086743878386,-0.0,0.0,1.0,319.0,898.0,0.0,1,2023.0,0
919,919,0.23018956108030741,0.2,0.0,0.0,495.0,974.0,0.0,1,-219.0,1
920,920,0.23375827490097245,0.2,1.0,1.0,418.0,521.0,1.0,1,2651.0,1
921,921,0.2852188102559766,0.3,0.0,0.0,375.0,976.0,0.0,1,69.0,1
922,922,0.15651353853503147,0.2,0.0,0.0,387.0,787.0,0.0,1,746.0,1
923,923,-0.851558128672416,-0.9,1.0,0.0,334.0,984.0,0.0,0,-318.0,1
924,924,-0.26445938565038674,-0.3,1.0,0.0,328.0,992.0,0.0,0,650.0,1
925,925,-0.7759554107813335,-0.8,1.0,0.0,453.0,657.0,0.0,0,660.0,1
926,926,-0.8456058107451189,-0.8,1.0,0.0,435.0,892.0,0.0,0,173.0,1
927,927,0.09615641456483326,0.1,1.0,1.0,424.0,679.0,0.0,0,-73.0,0
928,928,0.22921465172094624,0.2,1.0,1.0,492.0,748.0,1.0,1,2950.0,1
929,929,0.5717354922551773,0.6,0.0,0.0,281.0,631.0,0.0,1,708.0,1
930,930,-0.6252294288953422,-0.6,1.0,0.0,400.0,516.0,0.0,0,94.0,1
931,931,0.5814901185108868,0.6,0.0,0.0,410.0,950.0,0.0,1,420.0,1
932,932,0.33755187872458137,0.3,0.0,0.0,315.0,675.0,0.0,1,300.0,1
933,933,-0.11124367544491953,-0.1,1.0,0.0,380.0,810.0,0.0,0,860.0,1
934,934,-0.5316656800471051,-0.5,0.0,1.0,496.0,600.0,1.0,0,134.0,1
935,935,0.8080395131048183,0.8,0.0,0.0,396.0,682.0,0.0,1,372.0,1
936,936,-0.2078549147425781,-0.2,0.0,1.0,420.0,756.0,1.0,0,354.0,1
937,937,-0.19558505904271262,-0.2,0.0,1.0,442.0,956.0,1.0,0,1982.0,1
938,938,-0.015053725667309559,-0.0,1.0,0.0,478.0,896.0,0.0,0,1286.0,1
939,939,-0.6327262534935264,-0.6,0.0,1.0,299.0,969.0,1.0,0,412.0,1
940,940,-0.5958678190532516,-0.6,0.0,1.0,305.0,919.0,1.0,0,536.0,1
941,941,-0.37361241722241256,-0.4,1.0,0.0,463.0,828.0,0.0,0,9.0,1
942,942,0.775940618163247,0.8,0.0,0.0,498.0,695.0,0.0,1,197.0,1
943,943,0.4189269821405187,0.4,1.0,1.0,280.0,925.0,1.0,1,1215.0,1
944,944,-0.09183920584735128,-0.1,1.0,0.0,354.0,799.0,0.0,0,687.0,1
945,945,0.3472844588731995,0.3,0.0,0.0,353.0,695.0,0.0,1,122.0,1
946,946,-0.18320185018857693,-0.2,1.0,0.0,376.0,581.0,0.0,0,1203.0,1
947,947,0.7441317094815759,0.7,0.0,0.0,251.0,880.0,0.0,1,319.0,1
948,948,-0.6824127507781357,-0.7,1.0,0.0,417.0,967.0,0.0,0,186.0,1
949,949,-0.05542751452501715,-0.1,0.0,1.0,399.0,796.0,1.0,0,3805.0,1
950,950,0.8661117687182028,0.9,1.0,1.0,340.0,799.0,1.0,1,121.0,1
951,951,-0.06269120476827916,-0.1,1.0,0.0,479.0,578.0,0.0,0,83.0,1
952,952,-0.6978842245474844,-0.7,1.0,0.0,460.0,765.0,0.0,0,545.0,1
953,953,0.374697371767322,0.4,1.0,1.0,421.0,803.0,1.0,1,1266.0,1
954,954,-0.7963370032616977,-0.8,0.0,1.0,487.0,567.0,1.0,0,706.0,1
955,955,-0.10630388002031843,-0.1,1.0,0.0,267.0,845.0,0.0,0,1938.0,1
956,956,0.8243531594466816,0.8,0.0,0.0,334.0,596.0,0.0,1,290.0,1
957,957,0.4677874454717229,0.5,1.0,1.0,263.0,514.0,1.0,1,443.0,1
958,958,0.15605718304168625,0.2,0.0,0.0,400.0,901.0,0.0,1,1389.0,1
959,959,0.7305465479250276,0.7,0.0,0.0,437.0,918.0,0.0,1,245.0,1
960,960,0.22911130771740196,0.2,1.0,1.0,300.0,521.0,1.0,1,3009.0,1
961,961,-0.7018319813532632,-0.7,1.0,0.0,429.0,951.0,0.0,0,-410.0,1
962,962,0.5658193019725982,0.6,1.0,1.0,256.0,789.0,1.0,1,515.0,1
963,963,0.047133442334283626,0.0,0.0,0.0,467.0,915.0,0.0,1,388.0,1
964,964,-0.8466047626294477,-0.8,1.0,0.0,285.0,672.0,0.0,0,403.0,1
965,965,-0.32839717163592175,-0.3,1.0,0.0,256.0,646.0,0.0,0,338.0,1
966,966,0.5731535797930162,0.6,1.0,1.0,422.0,855.0,1.0,1,403.0,1
967,967,0.33593070739100106,0.3,0.0,0.0,343.0,768.0,0.0,1,219.0,1
968,968,-0.7263360898461327,-0.7,0.0,1.0,416.0,610.0,1.0,0,344.0,1
969,969,-0.23904184318513777,-0.2,0.0,1.0,397.0,771.0,1.0,0,732.0,1
970,970,-0.19433828826588295,-0.2,0.0,1.0,319.0,533.0,1.0,0,1568.0,1
971,971,0.6392781998749956,0.6,0.0,0.0,431.0,883.0,0.0,1,446.0,1
972,972,-0.03356835029360261,-0.0,0.0,1.0,293.0,969.0,1.0,0,208.0,1
973,973,-0.1038553946308991,-0.1,0.0,1.0,285.0,548.0,0.0,1,4167.0,0
974,974,-0.11596291772712664,-0.1,0.0,1.0,383.0,999.0,1.0,0,828.0,1
975,975,-0.39558741255379093,-0.4,0.0,1.0,436.0,976.0,1.0,0,1098.0,1
976,976,-0.7401082897981526,-0.7,1.0,0.0,473.0,580.0,0.0,0,-63.0,1
977,977,-0.09118719109640094,-0.1,0.0,1.0,339.0,680.0,1.0,0,2091.0,1
978,978,0.8605068508669783,0.9,0.0,0.0,377.0,708.0,0.0,1,75.0,1
979,979,0.6988244182291249,0.7,1.0,1.0,388.0,735.0,0.0,0,-43.0,0
980,980,-0.7739550539279957,-0.8,1.0,0.0,430.0,726.0,0.0,0,-186.0,1
981,981,0.42269011756226227,0.4,0.0,0.0,443.0,873.0,0.0,1,324.0,1
982,982,0.8878131206012901,0.9,0.0,0.0,468.0,679.0,0.0,1,213.0,1
983,983,-0.01217231024758958,-0.0,0.0,1.0,416.0,552.0,1.0,0,282.0,1
984,984,0.8726624141211977,0.9,1.0,1.0,405.0,521.0,1.0,1,174.0,1
985,985,-0.11853635114343575,-0.1,0.0,1.0,412.0,827.0,0.0,1,-119.0,0
986,986,0.18101886013680935,0.2,0.0,0.0,446.0,838.0,0.0,1,676.0,1
987,987,-0.7383496343726516,-0.7,0.0,1.0,367.0,746.0,1.0,0,297.0,1
988,988,-0.5075134863257648,-0.5,1.0,0.0,467.0,994.0,0.0,0,-281.0,1
989,989,0.3541295349575694,0.4,1.0,1.0,309.0,978.0,1.0,1,253.0,1
990,990,-0.5590487200933916,-0.6,0.0,1.0,461.0,811.0,1.0,0,398.0,1
991,991,-0.35279270419370024,-0.4,0.0,1.0,440.0,507.0,1.0,0,1393.0,1
992,992,0.35810697431405336,0.4,1.0,1.0,373.0,520.0,0.0,0,-303.0,0
993,993,-0.7711292096737095,-0.8,1.0,0.0,279.0,665.0,0.0,0,46.0,1
994,994,-0.8517825976356936,-0.9,0.0,1.0,399.0,848.0,1.0,0,593.0,1
995,995,0.4557674974952509,0.5,0.0,0.0,410.0,545.0,0.0,1,435.0,1
996,996,-0.20662029793365022,-0.2,1.0,0.0,444.0,684.0,0.0,0,982.0,1
997,997,-0.7080480748121484,-0.7,1.0,0.0,267.0,948.0,0.0,0,185.0,1
998,998,0.08728451640249202,0.1,1.0,1.0,383.0,504.0,1.0,1,603.0,1
999,999,0.7043323150410722,0.7,0.0,0.0,271.0,820.0,0.0,1,149.0,1
1000,1000,0.02594749446613931,0.0,1.0,1.0,438.0,921.0,0.0,0,511.0,0
1001,1001,-0.38840604210667673,-0.4,0.0,1.0,400.0,991.0,1.0,0,869.0,1
1002,1002,-0.7886687111303176,-0.8,0.0,1.0,319.0,526.0,1.0,0,395.0,1
1003,1003,-0.7379891066860838,-0.7,1.0,0.0,490.0,918.0,0.0,0,172.0,1
1004,1004,-0.35402329181680225,-0.4,0.0,1.0,413.0,817.0,1.0,0,570.0,1
1005,1005,-0.7014833138265978,-0.7,1.0,0.0,473.0,918.0,0.0,0,859.0,1
1006,1006,0.18669165411460942,0.2,0.0,0.0,336.0,677.0,0.0,1,97.0,1
1007,1007,0.8969428078269487,0.9,0.0,0.0,406.0,618.0,0.0,1,206.0,1
1008,1008,0.7174694961291533,0.7,1.0,1.0,415.0,587.0,1.0,1,148.0,1
1009,1009,0.7895525492753935,0.8,1.0,1.0,407.0,832.0,1.0,1,201.0,1
1010,1010,0.8039309335269152,0.8,0.0,0.0,424.0,977.0,0.0,1,99.0,1
1011,1011,-0.4632880730794992,-0.5,1.0,0.0,362.0,620.0,0.0,0,438.0,1
1012,1012,-0.8776982412602204,-0.9,1.0,0.0,479.0,599.0,0.0,0,312.0,1
1013,1013,-0.3803056066007261,-0.4,1.0,0.0,330.0,658.0,0.0,0,712.0,1
1014,1014,-0.1869760418966946,-0.2,1.0,0.0,497.0,923.0,0.0,0,-10.0,1
1015,1015,0.13810824721206594,0.1,0.0,0.0,435.0,899.0,0.0,1,1226.0,1
1016,1016,0.8736391226313139,0.9,0.0,0.0,286.0,832.0,0.0,1,242.0,1
1017,1017,0.6639830252261768,0.7,0.0,0.0,315.0,801.0,0.0,1,444.0,1
1018,1018,0.23627015684781705,0.2,1.0,1.0,288.0,739.0,1.0,1,1783.0,1
1019,1019,0.2889812796560921,0.3,0.0,0.0,361.0,648.0,0.0,1,-29.0,1
1020,1020,0.5654481153907011,0.6,1.0,1.0,414.0,565.0,0.0,0,-89.0,0
1021,1021,-0.39497167037121894,-0.4,0.0,1.0,433.0,514.0,1.0,0,273.0,1
1022,1022,-0.8839211737366522,-0.9,0.0,1.0,314.0,736.0,1.0,0,230.0,1
1023,1023,-0.09652089549845277,-0.1,0.0,1.0,455.0,660.0,0.0,1,975.0,0
1024,1024,-0.3557661862894458,-0.4,1.0,0.0,298.0,653.0,0.0,0,829.0,1
1025,1025,0.5841499095325732,0.6,0.0,0.0,401.0,960.0,0.0,1,179.0,1
1026,1026,0.45843843278934415,0.5,0.0,0.0,281.0,837.0,0.0,1,532.0,1
1027,1027,0.20964527086969398,0.2,0.0,0.0,371.0,997.0,0.0,1,-158.0,1
1028,1028,0.3649425533375087,0.4,0.0,0.0,457.0,605.0,0.0,1,228.0,1
1029,1029,-0.6641202842890478,-0.7,0.0,1.0,366.0,603.0,1.0,0,821.0,1
1030,1030,0.047215630127003916,0.0,0.0,0.0,279.0,825.0,0.0,1,2736.0,1
1031,1031,0.6292286682636415,0.6,0.0,0.0,322.0,633.0,0.0,1,435.0,1
1032,1032,0.30540622121856276,0.3,1.0,1.0,411.0,681.0,0.0,0,88.0,0
1033,1033,-0.6315739203848953,-0.6,1.0,0.0,461.0,635.0,0.0,0,944.0,1
1034,1034,-0.8510181409244426,-0.9,0.0,1.0,301.0,648.0,1.0,0,331.0,1
1035,1035,-0.5412312827471908,-0.5,0.0,1.0,372.0,517.0,1.0,0,201.0,1
1036,1036,-0.2462329021188241,-0.2,1.0,0.0,387.0,854.0,0.0,0,1009.0,1
1037,1037,0.2930278458950438,0.3,1.0,1.0,323.0,573.0,1.0,1,124.0,1
1038,1038,0.37466025137948133,0.4,0.0,0.0,499.0,898.0,0.0,1,743.0,1
1039,1039,0.410891954066685,0.4,0.0,0.0,433.0,783.0,0.0,1,324.0,1
1040,1040,-0.5996380869625383,-0.6,1.0,0.0,415.0,581.0,0.0,0,374.0,1
1041,1041,0.35041456024130724,0.4,0.0,0.0,498.0,680.0,0.0,1,952.0,1
1042,1042,-0.8172611044664548,-0.8,1.0,0.0,319.0,646.0,0.0,0,405.0,1
1043,1043,0.5555257229144496,0.6,0.0,0.0,489.0,807.0,0.0,1,304.0,1
1044,1044,0.8605230606416595,0.9,0.0,0.0,281.0,757.0,0.0,1,132.0,1
1045,1045,-0.263902361369993,-0.3,1.0,0.0,419.0,712.0,0.0,0,399.0,1
1046,1046,-0.5031032171835497,-0.5,0.0,1.0,459.0,609.0,1.0,0,362.0,1
1047,1047,0.6377406426510356,0.6,0.0,0.0,397.0,529.0,0.0,1,-16.0,1
1048,1048,-0.42327985371612104,-0.4,1.0,0.0,317.0,831.0,0.0,0,1292.0,1
1049,1049,0.5317544256542538,0.5,0.0,0.0,478.0,732.0,0.0,1,320.0,1
1050,1050,-0.6020440400303555,-0.6,1.0,0.0,497.0,874.0,0.0,0,629.0,1
1051,1051,0.8354838573595519,0.8,1.0,1.0,421.0,615.0,1.0,1,324.0,1
1052,1052,-0.8848663318061867,-0.9,0.0,1.0,498.0,624.0,1.0,0,298.0,1
1053,1053,-0.7802759900170996,-0.8,0.0,1.0,489.0,538.0,0.0,1,-67.0,0
1054,1054,0.43161666550206934,0.4,1.0,1.0,405.0,942.0,1.0,1,683.0,1
1055,1055,-0.5337227711284469,-0.5,0.0,1.0,272.0,540.0,1.0,0,188.0,1
1056,1056,-0.42962363990980473,-0.4,0.0,1.0,361.0,844.0,1.0,0,1375.0,1
1057,1057,-0.6187004377567566,-0.6,1.0,0.0,442.0,638.0,0.0,0,150.0,1
1058,1058,0.27991107893474243,0.3,1.0,1.0,438.0,562.0,1.0,1,760.0,1
1059,1059,-0.6037723908895696,-0.6,0.0,1.0,328.0,932.0,1.0,0,480.0,1
1060,1060,0.7003081338910572,0.7,1.0,1.0,268.0,836.0,1.0,1,236.0,1
1061,1061,0.5020966004322848,0.5,1.0,1.0,440.0,816.0,1.0,1,814.0,1
1062,1062,0.7316922848185211,0.7,0.0,0.0,272.0,880.0,0.0,1,208.0,1
1063,1063,0.2936802021834449,0.3,0.0,0.0,410.0,603.0,0.0,1,577.0,1
1064,1064,-0.34002429643848087,-0.3,1.0,0.0,389.0,540.0,0.0,0,261.0,1
1065,1065,0.37293124271328837,0.4,0.0,0.0,465.0,602.0,0.0,1,-197.0,1
1066,1066,0.506734442678528,0.5,0.0,0.0,315.0,562.0,0.0,1,83.0,1
1067,1067,-0.3311062963716025,-0.3,0.0,1.0,311.0,924.0,1.0,0,485.0,1
1068,1068,0.7520961547556942,0.8,1.0,1.0,400.0,590.0,1.0,1,120.0,1
1069,1069,-0.8998479434095951,-0.9,0.0,1.0,453.0,876.0,0.0,1,-129.0,0
1070,1070,-0.6352715525578769,-0.6,0.0,1.0,259.0,639.0,0.0,1,12.0,0
1071,1071,0.7733865851159031,0.8,0.0,0.0,399.0,683.0,0.0,1,198.0,1
1072,1072,-0.3783844037162237,-0.4,0.0,1.0,363.0,901.0,1.0,0,526.0,1
1073,1073,-0.07733848247463726,-0.1,1.0,0.0,426.0,739.0,0.0,0,2515.0,1
1074,1074,0.7482222340469474,0.7,0.0,0.0,403.0,567.0,0.0,1,110.0,1
1075,1075,-0.5511458191751619,-0.6,0.0,1.0,273.0,798.0,1.0,0,269.0,1
1076,1076,-0.8227459935948229,-0.8,1.0,0.0,486.0,821.0,0.0,0,83.0,1
1077,1077,0.893124908191479,0.9,1.0,1.0,460.0,648.0,1.0,1,172.0,1
1078,1078,-0.04306853095877616,-0.0,1.0,0.0,263.0,999.0,0.0,0,1618.0,1
1079,1079,0.07120934179880778,0.1,0.0,0.0,312.0,614.0,0.0,1,294.0,1
1080,1080,-0.3805533817839939,-0.4,0.0,1.0,254.0,735.0,1.0,0,1471.0,1
1081,1081,0.5324549161550826,0.5,1.0,1.0,412.0,915.0,1.0,1,493.0,1
1082,1082,-0.5168821606343177,-0.5,0.0,1.0,454.0,982.0,1.0,0,484.0,1
1083,1083,-0.007129137443025679,-0.0,1.0,0.0,416.0,593.0,0.0,0,1611.0,1
1084,1084,-0.07646039576855679,-0.1,0.0,1.0,431.0,514.0,1.0,0,4055.0,1
1085,1085,-0.752103839490636,-0.8,1.0,0.0,354.0,580.0,0.0,0,156.0,1
1086,1086,-0.10966073830271539,-0.1,0.0,1.0,323.0,568.0,1.0,0,3319.0,1
1087,1087,0.40001452146232175,0.4,0.0,0.0,472.0,698.0,0.0,1,200.0,1
1088,1088,0.020815130162915918,0.0,0.0,0.0,471.0,581.0,0.0,1,2338.0,1
1089,1089,-0.7623549523200124,-0.8,0.0,1.0,262.0,614.0,1.0,0,394.0,1
1090,1090,0.13686254870226866,0.1,0.0,0.0,435.0,853.0,0.0,1,862.0,1
1091,1091,-0.07317105775588362,-0.1,0.0,1.0,375.0,523.0,0.0,1,932.0,0
1092,1092,0.3272246684385022,0.3,1.0,1.0,463.0,695.0,1.0,1,1102.0,1
1093,1093,0.08177862053243201,0.1,0.0,0.0,480.0,523.0,0.0,1,1027.0,1
1094,1094,-0.33376588745213664,-0.3,0.0,1.0,399.0,968.0,1.0,0,743.0,1
1095,1095,-0.7701317104101523,-0.8,0.0,1.0,313.0,899.0,1.0,0,408.0,1
1096,1096,-0.7695771856109881,-0.8,1.0,0.0,355.0,683.0,0.0,0,582.0,1
1097,1097,-0.35025940861312344,-0.4,0.0,1.0,327.0,895.0,1.0,0,988.0,1
1098,1098,-0.4545094527083292,-0.5,0.0,1.0,408.0,574.0,1.0,0,368.0,1
1099,1099,0.35777908308097184,0.4,1.0,1.0,380.0,956.0,1.0,1,454.0,1
1100,1100,-0.3730064471256441,-0.4,0.0,1.0,387.0,957.0,0.0,1,106.0,0
1101,1101,0.7455964162119465,0.7,1.0,1.0,464.0,864.0,1.0,1,302.0,1
1102,1102,0.4617715185302703,0.5,1.0,1.0,340.0,871.0,1.0,1,609.0,1
1103,1103,0.42395517309239417,0.4,1.0,1.0,298.0,671.0,1.0,1,561.0,1
1104,1104,0.46372902850350506,0.5,0.0,0.0,252.0,563.0,0.0,1,445.0,1
1105,1105,-0.1275515565483203,-0.1,1.0,0.0,324.0,656.0,0.0,0,270.0,1
1106,1106,0.42238065629786015,0.4,0.0,0.0,367.0,781.0,0.0,1,202.0,1
1107,1107,-0.7860580369703477,-0.8,1.0,0.0,364.0,627.0,0.0,0,69.0,1
1108,1108,-0.11557124523464013,-0.1,0.0,1.0,279.0,773.0,0.0,1,348.0,0
1109,1109,-0.6627212399921955,-0.7,0.0,1.0,300.0,559.0,1.0,0,581.0,1
1110,1110,-0.03425402728517013,-0.0,1.0,0.0,457.0,803.0,0.0,0,550.0,1
1111,1111,-0.7600312614449009,-0.8,0.0,1.0,484.0,918.0,1.0,0,58.0,1
1112,1112,0.3162766155753002,0.3,0.0,0.0,401.0,838.0,0.0,1,801.0,1
1113,1113,0.646425616320259,0.6,1.0,1.0,266.0,822.0,0.0,0,-378.0,0
1114,1114,0.08624605316189538,0.1,0.0,0.0,333.0,604.0,0.0,1,133.0,1
1115,1115,-0.3115175889162374,-0.3,0.0,1.0,291.0,927.0,1.0,0,1532.0,1
1116,1116,-0.207739494826224,-0.2,0.0,1.0,462.0,701.0,1.0,0,827.0,1
1117,1117,-0.7538359086415874,-0.8,0.0,1.0,330.0,924.0,0.0,1,-164.0,0
1118,1118,0.1493090574285304,0.1,1.0,1.0,384.0,767.0,0.0,0,29.0,0
1119,1119,0.671002623033376,0.7,0.0,0.0,438.0,523.0,0.0,1,289.0,1
1120,1120,-0.2491407735983343,-0.2,0.0,1.0,323.0,725.0,1.0,0,3132.0,1
1121,1121,0.0706793363860676,0.1,0.0,0.0,309.0,915.0,0.0,1,2206.0,1
1122,1122,0.41678451950959017,0.4,1.0,1.0,269.0,844.0,1.0,1,447.0,1
1123,1123,-0.8395456107625447,-0.8,0.0,1.0,408.0,836.0,1.0,0,96.0,1
1124,1124,-0.5826044946494078,-0.6,1.0,0.0,255.0,602.0,0.0,0,643.0,1
1125,1125,-0.00039809427909609507,-0.0,1.0,0.0,487.0,951.0,1.0,1,3562.0,0
1126,1126,-0.30241297822623414,-0.3,1.0,0.0,294.0,570.0,0.0,0,456.0,1
1127,1127,0.08381871153995535,0.1,0.0,0.0,318.0,694.0,0.0,1,1028.0,1
1128,1128,-0.3059668417361372,-0.3,1.0,0.0,497.0,613.0,0.0,0,420.0,1
1129,1129,0.8107017021546111,0.8,1.0,1.0,359.0,634.0,1.0,1,197.0,1
1130,1130,-0.1783118068751156,-0.2,0.0,1.0,484.0,908.0,1.0,0,1608.0,1
1131,1131,-0.4969684435914192,-0.5,1.0,0.0,318.0,590.0,0.0,0,552.0,1
1132,1132,0.16156153886441393,0.2,1.0,1.0,422.0,847.0,1.0,1,3731.0,1
1133,1133,-0.40536137283171425,-0.4,1.0,0.0,434.0,609.0,0.0,0,227.0,1
1134,1134,-0.7488615247702294,-0.7,0.0,1.0,448.0,939.0,1.0,0,233.0,1
1135,1135,-0.7329670978181161,-0.7,0.0,1.0,402.0,553.0,1.0,0,525.0,1
1136,1136,0.8929306333299981,0.9,1.0,1.0,328.0,834.0,1.0,1,108.0,1
1137,1137,0.4402612288513129,0.4,0.0,0.0,402.0,750.0,0.0,1,758.0,1
1138,1138,0.8917853119967108,0.9,1.0,1.0,252.0,843.0,1.0,1,485.0,1
1139,1139,0.017602563691096584,0.0,0.0,0.0,314.0,656.0,0.0,1,3520.0,1
1140,1140,-0.06851217425788814,-0.1,1.0,0.0,250.0,522.0,1.0,1,4228.0,0
1141,1141,0.556077034215486,0.6,1.0,1.0,401.0,709.0,1.0,1,370.0,1
1142,1142,-0.7840880446437047,-0.8,1.0,0.0,319.0,565.0,0.0,0,116.0,1
1143,1143,0.6159681021296167,0.6,1.0,1.0,483.0,722.0,1.0,1,445.0,1
1144,1144,0.7020182811270909,0.7,0.0,0.0,422.0,988.0,0.0,1,100.0,1
1145,1145,-0.6081016833242971,-0.6,1.0,0.0,463.0,567.0,0.0,0,470.0,1
1146,1146,0.5656025037645479,0.6,0.0,0.0,332.0,750.0,0.0,1,-142.0,1
1147,1147,0.33223176382978103,0.3,1.0,1.0,331.0,563.0,1.0,1,186.0,1
1148,1148,-0.5880456870763002,-0.6,1.0,0.0,330.0,652.0,0.0,0,438.0,1
1149,1149,-0.03688231416435195,-0.0,1.0,0.0,470.0,806.0,0.0,0,3724.0,1
1150,1150,0.2829978063908031,0.3,0.0,0.0,376.0,594.0,0.0,1,260.0,1
1151,1151,0.5847750437521618,0.6,0.0,0.0,464.0,561.0,0.0,1,485.0,1
1152,1152,0.7697710714873173,0.8,0.0,0.0,475.0,538.0,0.0,1,327.0,1
1153,1153,-0.28981868289685486,-0.3,1.0,0.0,367.0,549.0,0.0,0,314.0,1
1154,1154,-0.5403094009228875,-0.5,0.0,1.0,443.0,537.0,1.0,0,290.0,1
1155,1155,-0.02470500685279975,-0.0,0.0,1.0,377.0,535.0,0.0,1,408.0,0
1156,1156,-0.03183086271042401,-0.0,0.0,1.0,439.0,958.0,0.0,1,2983.0,0
1157,1157,-0.059004011779440924,-0.1,1.0,0.0,416.0,698.0,0.0,0,506.0,1
1158,1158,0.11186941490037461,0.1,1.0,1.0,389.0,559.0,0.0,0,1002.0,0
1159,1159,0.45466396609474924,0.5,0.0,0.0,476.0,541.0,0.0,1,43.0,1
1160,1160,0.8207740697583658,0.8,0.0,0.0,276.0,666.0,0.0,1,468.0,1
1161,1161,-0.8453959934937493,-0.8,1.0,0.0,279.0,924.0,0.0,0,257.0,1
1162,1162,0.36896839820403204,0.4,0.0,0.0,382.0,626.0,0.0,1,362.0,1
1163,1163,0.8475257553827543,0.8,0.0,0.0,361.0,687.0,0.0,1,252.0,1
1164,1164,0.5026762484696176,0.5,1.0,1.0,434.0,691.0,1.0,1,255.0,1
1165,1165,0.09555166969850248,0.1,1.0,1.0,364.0,636.0,1.0,1,4000.0,1
1166,1166,-0.07878310896781515,-0.1,1.0,0.0,427.0,558.0,0.0,0,2215.0,1
1167,1167,-0.5753992113807649,-0.6,0.0,1.0,499.0,906.0,1.0,0,525.0,1
1168,1168,-0.3692448455972781,-0.4,0.0,1.0,345.0,819.0,1.0,0,256.0,1
1169,1169,0.6891809519568329,0.7,1.0,1.0,421.0,963.0,1.0,1,-424.0,1
1170,1170,0.575437703939569,0.6,0.0,0.0,344.0,939.0,0.0,1,397.0,1
1171,1171,0.17374819891020576,0.2,0.0,0.0,356.0,823.0,0.0,1,941.0,1
1172,1172,0.020505920512129405,0.0,0.0,0.0,404.0,591.0,0.0,1,965.0,1
1173,1173,0.4139546320883992,0.4,0.0,0.0,286.0,653.0,0.0,1,441.0,1
1174,1174,0.0886693793403669,0.1,1.0,1.0,445.0,669.0,1.0,1,3886.0,1
1175,1175,-0.5051425220463769,-0.5,1.0,0.0,394.0,723.0,0.0,0,-427.0,1
1176,1176,0.6500720358236561,0.7,1.0,1.0,405.0,923.0,0.0,0,-258.0,0
1177,1177,0.03618457828838917,0.0,0.0,0.0,429.0,532.0,1.0,0,4039.0,0
1178,1178,0.2219448635193989,0.2,1.0,1.0,327.0,691.0,1.0,1,3102.0,1
1179,1179,-0.280744151056186,-0.3,1.0,0.0,377.0,945.0,0.0,0,-132.0,1
1180,1180,-0.265043049142755,-0.3,0.0,1.0,471.0,703.0,1.0,0,836.0,1
1181,1181,0.10017712463048778,0.1,0.0,0.0,440.0,585.0,0.0,1,2425.0,1
1182,1182,0.13024652444628215,0.1,0.0,0.0,424.0,559.0,0.0,1,2167.0,1
1183,1183,0.33736117879567884,0.3,0.0,0.0,297.0,778.0,0.0,1,815.0,1
1184,1184,-0.8204966378778825,-0.8,1.0,0.0,294.0,596.0,0.0,0,440.0,1
1185,1185,0.010968928449702986,0.0,1.0,1.0,253.0,632.0,0.0,0,3085.0,0
1186,1186,0.808981388667439,0.8,0.0,0.0,351.0,699.0,0.0,1,150.0,1
1187,1187,0.5725032448657034,0.6,0.0,0.0,311.0,678.0,0.0,1,271.0,1
1188,1188,-0.7527606863961593,-0.8,0.0,1.0,360.0,733.0,1.0,0,77.0,1
1189,1189,0.85523095960277,0.9,1.0,1.0,430.0,886.0,1.0,1,264.0,1
1190,1190,-0.15464685618206075,-0.2,1.0,0.0,279.0,561.0,0.0,0,1070.0,1
1191,1191,-0.34293031685813935,-0.3,1.0,0.0,431.0,697.0,0.0,0,-228.0,1
1192,1192,-0.2631567167717287,-0.3,0.0,1.0,298.0,695.0,1.0,0,377.0,1
1193,1193,0.05646275124464084,0.1,0.0,0.0,441.0,937.0,0.0,1,-58.0,1
1194,1194,-0.08718620598619975,-0.1,1.0,0.0,327.0,829.0,0.0,0,664.0,1
1195,1195,-0.04618940101400304,-0.0,0.0,1.0,368.0,963.0,1.0,0,1989.0,1
1196,1196,-0.007195142280684963,-0.0,1.0,0.0,450.0,534.0,0.0,0,2686.0,1
1197,1197,0.8747986699490381,0.9,1.0,1.0,433.0,916.0,1.0,1,581.0,1
1198,1198,-0.6971290391286986,-0.7,1.0,0.0,285.0,971.0,0.0,0,414.0,1
1199,1199,0.4130626457949317,0.4,0.0,0.0,497.0,834.0,0.0,1,-381.0,1
1200,1200,-0.3690396180582898,-0.4,1.0,0.0,305.0,702.0,0.0,0,213.0,1
1201,1201,0.7784954887607759,0.8,1.0,1.0,433.0,734.0,1.0,1,483.0,1
1202,1202,0.6489614725257592,0.6,1.0,1.0,276.0,561.0,1.0,1,493.0,1
1203,1203,0.2853689477804334,0.3,0.0,0.0,296.0,622.0,0.0,1,1042.0,1
1204,1204,-0.7334890239231995,-0.7,1.0,0.0,429.0,864.0,0.0,0,327.0,1
1205,1205,-0.23534658872906955,-0.2,0.0,1.0,361.0,887.0,1.0,0,2002.0,1
1206,1206,0.2247135449280474,0.2,1.0,1.0,273.0,722.0,1.0,1,555.0,1
1207,1207,0.2611274174454471,0.3,0.0,0.0,407.0,645.0,0.0,1,528.0,1
1208,1208,-0.28615656400477607,-0.3,0.0,1.0,309.0,937.0,1.0,0,624.0,1
1209,1209,-0.5896197660129783,-0.6,0.0,1.0,416.0,786.0,1.0,0,418.0,1
1210,1210,0.49786567986777774,0.5,0.0,0.0,315.0,550.0,0.0,1,525.0,1
1211,1211,-0.747471639566349,-0.7,1.0,0.0,301.0,636.0,0.0,0,243.0,1
1212,1212,-0.35004460386528957,-0.4,1.0,0.0,321.0,811.0,0.0,0,598.0,1
1213,1213,-0.5226890897525138,-0.5,1.0,0.0,434.0,768.0,0.0,0,278.0,1
1214,1214,0.8330296156562321,0.8,1.0,1.0,473.0,855.0,1.0,1,222.0,1
1215,1215,0.17374989953040643,0.2,0.0,0.0,289.0,693.0,0.0,1,968.0,1
1216,1216,-0.6221101575741295,-0.6,0.0,1.0,429.0,743.0,1.0,0,438.0,1
1217,1217,0.7906976789706902,0.8,0.0,0.0,429.0,606.0,0.0,1,385.0,1
1218,1218,0.18075017353065037,0.2,0.0,0.0,479.0,623.0,0.0,1,448.0,1
1219,1219,-0.020234655053110173,-0.0,1.0,0.0,383.0,640.0,0.0,0,3977.0,1
1220,1220,-0.41663117959231644,-0.4,0.0,1.0,438.0,595.0,1.0,0,237.0,1
1221,1221,0.28358600067829365,0.3,1.0,1.0,382.0,797.0,1.0,1,541.0,1
1222,1222,0.16003515549285663,0.2,1.0,1.0,297.0,599.0,1.0,1,1684.0,1
1223,1223,-0.4393152569170376,-0.4,0.0,1.0,412.0,647.0,1.0,0,301.0,1
1224,1224,0.45728170177128413,0.5,0.0,0.0,461.0,750.0,0.0,1,269.0,1
1225,1225,-0.5952547078570232,-0.6,0.0,1.0,499.0,880.0,1.0,0,151.0,1
1226,1226,-0.588402083507674,-0.6,1.0,0.0,280.0,998.0,0.0,0,532.0,1
1227,1227,-0.7074343899491616,-0.7,0.0,1.0,384.0,942.0,1.0,0,254.0,1
1228,1228,-0.6880838222937748,-0.7,1.0,0.0,351.0,820.0,0.0,0,329.0,1
1229,1229,0.08294469105218671,0.1,0.0,0.0,400.0,610.0,0.0,1,530.0,1
1230,1230,0.38859377703254505,0.4,0.0,0.0,496.0,711.0,0.0,1,433.0,1
1231,1231,0.4237572962943291,0.4,1.0,1.0,474.0,916.0,1.0,1,580.0,1
1232,1232,0.262234904894196,0.3,1.0,1.0,267.0,656.0,0.0,0,-203.0,0
1233,1233,0.08348745479443553,0.1,0.0,0.0,371.0,531.0,0.0,1,78.0,1
1234,1234,-0.32538650403825775,-0.3,0.0,1.0,307.0,737.0,1.0,0,856.0,1
1235,1235,-0.059298973070090466,-0.1,1.0,0.0,362.0,744.0,0.0,0,434.0,1
1236,1236,-0.4390530901530369,-0.4,1.0,0.0,281.0,670.0,0.0,0,859.0,1
1237,1237,0.42071400252048774,0.4,0.0,0.0,469.0,505.0,0.0,1,566.0,1
1238,1238,0.5365081768689336,0.5,0.0,0.0,365.0,512.0,0.0,1,243.0,1
1239,1239,-0.5897134986782633,-0.6,1.0,0.0,325.0,701.0,0.0,0,434.0,1
1240,1240,-0.10942653907848088,-0.1,1.0,0.0,473.0,844.0,0.0,0,663.0,1
1241,1241,-0.0437499106230782,-0.0,1.0,0.0,319.0,728.0,0.0,0,2273.0,1
1242,1242,-0.1304429039268008,-0.1,1.0,0.0,308.0,501.0,0.0,0,811.0,1
1243,1243,-0.8725481040397098,-0.9,1.0,0.0,385.0,804.0,0.0,0,231.0,1
1244,1244,0.5439633490803156,0.5,1.0,1.0,310.0,959.0,1.0,1,101.0,1
1245,1245,-0.433680582655288,-0.4,0.0,1.0,334.0,669.0,1.0,0,337.0,1
1246,1246,0.04403286428633579,0.0,0.0,0.0,461.0,977.0,0.0,1,3562.0,1
1247,1247,0.5638571361778927,0.6,0.0,0.0,348.0,772.0,0.0,1,360.0,1
1248,1248,0.2680968359170427,0.3,1.0,1.0,499.0,896.0,1.0,1,295.0,1
1249,1249,-0.12711443671775657,-0.1,0.0,1.0,329.0,646.0,1.0,0,1855.0,1
1250,1250,0.5423755478311619,0.5,0.0,0.0,262.0,631.0,0.0,1,617.0,1
1251,1251,0.27534209917094976,0.3,0.0,0.0,346.0,814.0,0.0,1,620.0,1
1252,1252,0.7609440176588943,0.8,1.0,1.0,270.0,872.0,1.0,1,568.0,1
1253,1253,-0.5782213940363634,-0.6,1.0,0.0,462.0,746.0,1.0,1,-18.0,0
1254,1254,-0.4642164953978144,-0.5,1.0,0.0,483.0,970.0,0.0,0,267.0,1
1255,1255,-0.7255865706727429,-0.7,1.0,0.0,251.0,752.0,0.0,0,467.0,1
1256,1256,-0.42702798398241476,-0.4,1.0,0.0,497.0,564.0,0.0,0,579.0,1
1257,1257,-0.8143492401800763,-0.8,1.0,0.0,337.0,629.0,0.0,0,534.0,1
1258,1258,-0.6973739402265993,-0.7,1.0,0.0,427.0,760.0,0.0,0,523.0,1
1259,1259,-0.8919725243248893,-0.9,0.0,1.0,461.0,557.0,1.0,0,382.0,1
1260,1260,0.8454052955535133,0.8,0.0,0.0,418.0,763.0,0.0,1,319.0,1
1261,1261,0.5124182377746339,0.5,1.0,1.0,289.0,832.0,1.0,1,339.0,1
1262,1262,0.08503114709826587,0.1,1.0,1.0,453.0,796.0,1.0,1,1571.0,1
1263,1263,0.14323122631815888,0.1,1.0,1.0,334.0,569.0,1.0,1,1787.0,1
1264,1264,-0.2857172143656256,-0.3,1.0,0.0,259.0,616.0,0.0,0,185.0,1
1265,1265,-0.5451286619439234,-0.5,1.0,0.0,378.0,945.0,0.0,0,227.0,1
1266,1266,0.4372812758482022,0.4,0.0,0.0,303.0,729.0,0.0,1,268.0,1
1267,1267,0.1967772840873,0.2,0.0,0.0,308.0,872.0,0.0,1,-470.0,1
1268,1268,0.19744336190717104,0.2,0.0,0.0,377.0,889.0,0.0,1,774.0,1
1269,1269,0.853222742279962,0.9,0.0,0.0,429.0,666.0,0.0,1,595.0,1
1270,1270,-0.5283759524195704,-0.5,0.0,1.0,417.0,748.0,1.0,0,295.0,1
1271,1271,-0.8956392137389046,-0.9,0.0,1.0,390.0,679.0,1.0,0,471.0,1
1272,1272,-0.1778820474486249,-0.2,0.0,1.0,296.0,855.0,1.0,0,1919.0,1
1273,1273,-0.8779421868105103,-0.9,0.0,1.0,302.0,884.0,1.0,0,274.0,1
1274,1274,0.15203746927542194,0.2,1.0,1.0,469.0,529.0,0.0,0,142.0,0
1275,1275,-0.5655267669256816,-0.6,1.0,0.0,410.0,860.0,0.0,0,320.0,1
1276,1276,-0.8675154220511059,-0.9,0.0,1.0,382.0,745.0,1.0,0,213.0,1
1277,1277,-0.12060506830481976,-0.1,0.0,1.0,450.0,875.0,1.0,0,3675.0,1
1278,1278,0.86289585861875,0.9,0.0,0.0,405.0,758.0,0.0,1,427.0,1
1279,1279,0.045263767434024715,0.0,1.0,1.0,346.0,795.0,1.0,1,3859.0,1
1280,1280,0.22116961598418416,0.2,1.0,1.0,476.0,800.0,1.0,1,1284.0,1
1281,1281,0.4855529641928572,0.5,0.0,0.0,367.0,693.0,0.0,1,130.0,1
1282,1282,-0.4174757421931345,-0.4,0.0,1.0,339.0,694.0,1.0,0,247.0,1
1283,1283,-0.5504210674447064,-0.6,1.0,0.0,333.0,672.0,0.0,0,465.0,1
1284,1284,0.1984130678935424,0.2,1.0,1.0,312.0,885.0,1.0,1,1193.0,1
1285,1285,0.8248150887339368,0.8,0.0,0.0,418.0,842.0,0.0,1,-50.0,1
1286,1286,0.020065325620054697,0.0,1.0,1.0,324.0,711.0,0.0,0,3965.0,0
1287,1287,0.3258370607976323,0.3,0.0,0.0,471.0,969.0,0.0,1,410.0,1
1288,1288,-0.6015459844330076,-0.6,1.0,0.0,459.0,987.0,0.0,0,314.0,1
1289,1289,0.2418570433805819,0.2,1.0,1.0,387.0,838.0,1.0,1,-345.0,1
1290,1290,0.25798093600574645,0.3,1.0,1.0,341.0,545.0,1.0,1,1054.0,1
1291,1291,-0.5482372206780433,-0.5,0.0,1.0,291.0,897.0,1.0,0,362.0,1
1292,1292,0.6758957418722887,0.7,0.0,0.0,479.0,803.0,0.0,1,288.0,1
1293,1293,-0.25399718877627153,-0.3,1.0,0.0,396.0,773.0,0.0,0,391.0,1
1294,1294,0.4583516698054205,0.5,1.0,1.0,275.0,632.0,1.0,1,543.0,1
1295,1295,-0.410329460693812,-0.4,0.0,1.0,367.0,850.0,1.0,0,233.0,1
1296,1296,0.850810481207798,0.9,1.0,1.0,303.0,902.0,1.0,1,215.0,1
1297,1297,-0.40682060202534887,-0.4,0.0,1.0,291.0,580.0,1.0,0,609.0,1
1298,1298,-0.2566880205851797,-0.3,0.0,1.0,473.0,639.0,1.0,0,3388.0,1
1299,1299,-0.3980825697094198,-0.4,1.0,0.0,439.0,835.0,0.0,0,236.0,1
1300,1300,0.021150340930759293,0.0,0.0,0.0,377.0,553.0,0.0,1,3300.0,1
1301,1301,-0.8173796392667001,-0.8,1.0,0.0,257.0,887.0,0.0,0,436.0,1
1302,1302,0.10322082404166466,0.1,0.0,0.0,286.0,601.0,0.0,1,663.0,1
1303,1303,-0.3059882634258677,-0.3,0.0,1.0,296.0,843.0,1.0,0,331.0,1
1304,1304,0.04974755625057836,0.0,0.0,0.0,448.0,763.0,1.0,0,-161.0,0
1305,1305,-0.24251070840222566,-0.2,1.0,0.0,482.0,672.0,0.0,0,606.0,1
1306,1306,0.5418776956549668,0.5,1.0,1.0,364.0,813.0,1.0,1,873.0,1
1307,1307,0.8987651693908117,0.9,0.0,0.0,345.0,726.0,0.0,1,289.0,1
1308,1308,-0.6324421817561615,-0.6,1.0,0.0,499.0,521.0,0.0,0,210.0,1
1309,1309,0.8662464744466692,0.9,0.0,0.0,408.0,629.0,0.0,1,233.0,1
1310,1310,0.12664719950081615,0.1,0.0,0.0,461.0,813.0,0.0,1,1476.0,1
1311,1311,-0.33143723036436246,-0.3,0.0,1.0,491.0,789.0,1.0,0,1440.0,1
1312,1312,-0.7383814508857862,-0.7,1.0,0.0,318.0,512.0,0.0,0,330.0,1
1313,1313,-0.8795434085330145,-0.9,1.0,0.0,374.0,820.0,0.0,0,276.0,1
1314,1314,-0.7451461734523618,-0.7,0.0,1.0,323.0,574.0,1.0,0,213.0,1
1315,1315,0.42165733805681993,0.4,0.0,0.0,464.0,899.0,0.0,1,337.0,1
1316,1316,0.7872024595668848,0.8,1.0,1.0,319.0,570.0,1.0,1,291.0,1
1317,1317,-0.02615077365806029,-0.0,1.0,0.0,377.0,614.0,1.0,1,4009.0,0
1318,1318,0.6619922218462567,0.7,0.0,0.0,328.0,888.0,0.0,1,204.0,1
1319,1319,-0.3197306015118102,-0.3,1.0,0.0,456.0,537.0,0.0,0,757.0,1
1320,1320,-0.456542476568452,-0.5,0.0,1.0,374.0,776.0,1.0,0,620.0,1
1321,1321,0.7822979014024293,0.8,1.0,1.0,478.0,669.0,1.0,1,243.0,1
1322,1322,0.11015160534045643,0.1,1.0,1.0,450.0,806.0,1.0,1,1554.0,1
1323,1323,-0.028701867625228417,-0.0,1.0,0.0,451.0,995.0,0.0,0,2164.0,1
1324,1324,0.6877402605222568,0.7,1.0,1.0,395.0,964.0,1.0,1,191.0,1
1325,1325,0.7126292169827758,0.7,0.0,0.0,412.0,867.0,0.0,1,511.0,1
1326,1326,-0.1266061291801609,-0.1,1.0,0.0,251.0,918.0,0.0,0,3391.0,1
1327,1327,0.2049493384791078,0.2,0.0,0.0,453.0,775.0,0.0,1,-188.0,1
1328,1328,0.07045939257311573,0.1,1.0,1.0,307.0,623.0,0.0,0,2770.0,0
1329,1329,0.2413347771231268,0.2,1.0,1.0,316.0,993.0,1.0,1,931.0,1
1330,1330,0.6568185569160038,0.7,1.0,1.0,465.0,510.0,1.0,1,205.0,1
1331,1331,0.2732585612504118,0.3,0.0,0.0,311.0,989.0,0.0,1,700.0,1
1332,1332,0.14044060677461723,0.1,1.0,1.0,312.0,896.0,1.0,1,1572.0,1
1333,1333,0.11972678652641877,0.1,0.0,0.0,364.0,829.0,0.0,1,577.0,1
1334,1334,0.021906892872419204,0.0,1.0,1.0,407.0,976.0,0.0,0,-523.0,0
1335,1335,0.3934034083789112,0.4,1.0,1.0,250.0,639.0,1.0,1,681.0,1
1336,1336,0.30328908934810117,0.3,0.0,0.0,452.0,770.0,0.0,1,248.0,1
1337,1337,-0.5756262176537184,-0.6,1.0,0.0,385.0,718.0,0.0,0,27.0,1
1338,1338,-0.36315362356381053,-0.4,1.0,0.0,458.0,551.0,0.0,0,181.0,1
1339,1339,0.06145990236866716,0.1,1.0,1.0,301.0,644.0,1.0,1,3185.0,1
1340,1340,0.4918483757088258,0.5,1.0,1.0,447.0,837.0,1.0,1,536.0,1
1341,1341,-0.5749372606626681,-0.6,0.0,1.0,331.0,509.0,1.0,0,310.0,1
1342,1342,0.4938761870808329,0.5,1.0,1.0,416.0,715.0,1.0,1,319.0,1
1343,1343,-0.4325147460763195,-0.4,1.0,0.0,276.0,858.0,0.0,0,136.0,1
1344,1344,-0.6076585085838864,-0.6,1.0,0.0,377.0,700.0,0.0,0,-47.0,1
1345,1345,-0.2679320718520348,-0.3,0.0,1.0,458.0,935.0,1.0,0,767.0,1
1346,1346,0.11197777882525128,0.1,1.0,1.0,442.0,524.0,0.0,0,4034.0,0
1347,1347,-0.7149143569424333,-0.7,0.0,1.0,437.0,877.0,1.0,0,216.0,1
1348,1348,-0.39350623904323323,-0.4,0.0,1.0,450.0,711.0,1.0,0,279.0,1
1349,1349,-0.08450065405183327,-0.1,1.0,0.0,299.0,893.0,0.0,0,3028.0,1
1350,1350,-0.5750357418310158,-0.6,0.0,1.0,348.0,585.0,1.0,0,237.0,1
1351,1351,0.22708511883380578,0.2,0.0,0.0,279.0,667.0,0.0,1,364.0,1
1352,1352,0.5670143010577052,0.6,0.0,0.0,329.0,737.0,0.0,1,764.0,1
1353,1353,0.23822162399661073,0.2,0.0,0.0,410.0,723.0,0.0,1,257.0,1
1354,1354,0.2207031708472399,0.2,0.0,0.0,415.0,610.0,0.0,1,845.0,1
1355,1355,0.13211560506686715,0.1,0.0,0.0,399.0,869.0,0.0,1,672.0,1
1356,1356,0.3788696852852721,0.4,0.0,0.0,351.0,808.0,0.0,1,681.0,1
1357,1357,0.6989288935291668,0.7,1.0,1.0,347.0,510.0,1.0,1,313.0,1
1358,1358,-0.7443497204925971,-0.7,1.0,0.0,474.0,904.0,0.0,0,432.0,1
1359,1359,-0.5522324590585145,-0.6,0.0,1.0,372.0,823.0,1.0,0,485.0,1
1360,1360,0.8087721951700629,0.8,0.0,0.0,486.0,909.0,0.0,1,85.0,1
1361,1361,0.520875395792124,0.5,1.0,1.0,442.0,521.0,1.0,1,557.0,1
1362,1362,0.8132378887946027,0.8,1.0,1.0,418.0,897.0,1.0,1,125.0,1
1363,1363,-0.5872939313265468,-0.6,0.0,1.0,499.0,505.0,1.0,0,316.0,1
1364,1364,0.4493796089436236,0.4,1.0,1.0,459.0,964.0,1.0,1,687.0,1
1365,1365,0.04396546178888916,0.0,0.0,0.0,250.0,550.0,0.0,1,4200.0,1
1366,1366,-0.4780816147586981,-0.5,1.0,0.0,418.0,921.0,0.0,0,381.0,1
1367,1367,-0.7217350265221865,-0.7,0.0,1.0,377.0,976.0,1.0,0,277.0,1
1368,1368,0.45063701922637167,0.5,0.0,0.0,398.0,723.0,0.0,1,669.0,1
1369,1369,-0.4472173345310832,-0.4,1.0,0.0,307.0,809.0,0.0,0,724.0,1
1370,1370,0.5338806049580797,0.5,0.0,0.0,497.0,979.0,0.0,1,364.0,1
1371,1371,0.16458987874515552,0.2,1.0,1.0,309.0,822.0,1.0,1,1679.0,1
1372,1372,-0.6063394192103078,-0.6,0.0,1.0,320.0,935.0,1.0,0,405.0,1
1373,1373,-0.49924109278869017,-0.5,1.0,0.0,282.0,795.0,0.0,0,683.0,1
1374,1374,-0.26119527977013857,-0.3,0.0,1.0,273.0,896.0,1.0,0,1381.0,1
1375,1375,-0.8161887098968167,-0.8,0.0,1.0,487.0,995.0,1.0,0,388.0,1
1376,1376,0.033929957582055525,0.0,1.0,1.0,330.0,517.0,0.0,0,113.0,0
1377,1377,-0.31461409558795694,-0.3,0.0,1.0,318.0,525.0,1.0,0,507.0,1
1378,1378,0.004323332247950895,0.0,1.0,1.0,481.0,944.0,0.0,0,1825.0,0
1379,1379,0.8116928990467366,0.8,1.0,1.0,349.0,580.0,1.0,1,341.0,1
1380,1380,-0.5431059137462807,-0.5,1.0,0.0,459.0,873.0,0.0,0,218.0,1
1381,1381,-0.07952115346023425,-0.1,0.0,1.0,434.0,962.0,1.0,0,3604.0,1
1382,1382,-0.09320592649361736,-0.1,0.0,1.0,291.0,644.0,1.0,0,2745.0,1
1383,1383,0.6890745532443531,0.7,0.0,0.0,430.0,964.0,0.0,1,546.0,1
1384,1384,-0.12175608477084343,-0.1,0.0,1.0,476.0,626.0,0.0,1,-42.0,0
1385,1385,-0.2154900239911055,-0.2,0.0,1.0,478.0,930.0,1.0,0,542.0,1
1386,1386,-0.6200354698057253,-0.6,1.0,0.0,285.0,781.0,0.0,0,614.0,1
1387,1387,0.04551619357844605,0.0,1.0,1.0,411.0,928.0,0.0,0,-269.0,0
1388,1388,0.09570031562028436,0.1,1.0,1.0,267.0,974.0,1.0,1,209.0,1
1389,1389,0.6775271658059102,0.7,0.0,0.0,433.0,531.0,0.0,1,116.0,1
1390,1390,-0.0926223031148371,-0.1,1.0,0.0,273.0,899.0,0.0,0,1558.0,1
1391,1391,-0.8764171185932687,-0.9,0.0,1.0,363.0,711.0,1.0,0,446.0,1
1392,1392,-0.4389809883603397,-0.4,1.0,0.0,385.0,790.0,0.0,0,265.0,1
1393,1393,-0.07821673697078801,-0.1,1.0,0.0,272.0,538.0,0.0,0,2750.0,1
1394,1394,-0.0068828879152394995,-0.0,0.0,1.0,499.0,600.0,0.0,1,1461.0,0
1395,1395,0.3364736766777089,0.3,1.0,1.0,467.0,840.0,1.0,1,323.0,1
1396,1396,0.7633312506251738,0.8,1.0,1.0,328.0,683.0,1.0,1,649.0,1
1397,1397,-0.03262448542625085,-0.0,0.0,1.0,411.0,514.0,0.0,1,275.0,0
1398,1398,0.019906593562328823,0.0,0.0,0.0,274.0,946.0,0.0,1,2650.0,1
1399,1399,-0.4709781356977782,-0.5,1.0,0.0,474.0,822.0,0.0,0,854.0,1
1400,1400,0.10741999041975114,0.1,1.0,1.0,294.0,787.0,1.0,1,3919.0,1
1401,1401,-0.8815289228664586,-0.9,0.0,1.0,413.0,777.0,1.0,0,180.0,1
1402,1402,0.23935887854149251,0.2,0.0,0.0,450.0,665.0,0.0,1,845.0,1
1403,1403,-0.19155870152218446,-0.2,1.0,0.0,325.0,577.0,0.0,0,1438.0,1
1404,1404,-0.761828975506611,-0.8,1.0,0.0,379.0,967.0,0.0,0,164.0,1
1405,1405,0.36767545274066504,0.4,0.0,0.0,373.0,565.0,0.0,1,182.0,1
1406,1406,-0.0034377422952776016,-0.0,0.0,1.0,307.0,919.0,1.0,0,3774.0,1
1407,1407,0.565631633967374,0.6,0.0,0.0,357.0,880.0,0.0,1,223.0,1
1408,1408,0.38584856848809956,0.4,1.0,1.0,467.0,528.0,1.0,1,745.0,1
1409,1409,0.06746583848269017,0.1,1.0,1.0,413.0,561.0,0.0,0,976.0,0
1410,1410,0.8634708873121296,0.9,0.0,0.0,263.0,977.0,0.0,1,-300.0,1
1411,1411,-0.3308632449733777,-0.3,0.0,1.0,270.0,750.0,1.0,0,550.0,1
1412,1412,-0.4290024053667331,-0.4,1.0,0.0,434.0,891.0,0.0,0,135.0,1
1413,1413,0.5133600928266736,0.5,1.0,1.0,274.0,843.0,1.0,1,403.0,1
1414,1414,0.47802138359830326,0.5,1.0,1.0,381.0,782.0,1.0,1,487.0,1
1415,1415,0.6146505080431864,0.6,1.0,1.0,272.0,886.0,1.0,1,562.0,1
1416,1416,-0.7051832766555648,-0.7,0.0,1.0,349.0,831.0,1.0,0,400.0,1
1417,1417,-0.022666440206487448,-0.0,0.0,1.0,407.0,911.0,1.0,0,1062.0,1
1418,1418,-0.8169154952953912,-0.8,0.0,1.0,463.0,901.0,1.0,0,186.0,1
1419,1419,-0.670239147077266,-0.7,1.0,0.0,440.0,987.0,0.0,0,473.0,1
1420,1420,0.5589312805835179,0.6,0.0,0.0,275.0,883.0,0.0,1,72.0,1
1421,1421,0.6127974160284732,0.6,0.0,0.0,369.0,957.0,0.0,1,644.0,1
1422,1422,0.618767936771562,0.6,0.0,0.0,445.0,502.0,0.0,1,433.0,1
1423,1423,-0.27744626211923773,-0.3,1.0,0.0,365.0,505.0,0.0,0,1080.0,1
1424,1424,0.6468869756533614,0.6,0.0,0.0,397.0,834.0,0.0,1,169.0,1
1425,1425,0.868262545594329,0.9,0.0,0.0,355.0,920.0,0.0,1,265.0,1
1426,1426,0.15521571884380536,0.2,1.0,1.0,349.0,695.0,1.0,1,1756.0,1
1427,1427,0.8312998253283205,0.8,1.0,1.0,378.0,674.0,1.0,1,148.0,1
1428,1428,-0.5136875271907426,-0.5,1.0,0.0,455.0,728.0,0.0,0,147.0,1
1429,1429,0.8177176007065973,0.8,1.0,1.0,361.0,506.0,1.0,1,383.0,1
1430,1430,-0.35761940215017984,-0.4,0.0,1.0,255.0,880.0,1.0,0,1185.0,1
1431,1431,0.8483439120238904,0.8,0.0,0.0,370.0,625.0,0.0,1,285.0,1
1432,1432,0.3308251610758651,0.3,1.0,1.0,252.0,567.0,1.0,1,841.0,1
1433,1433,0.7475007118326865,0.7,1.0,1.0,490.0,603.0,1.0,1,207.0,1
1434,1434,-0.6029312436746619,-0.6,1.0,0.0,268.0,563.0,0.0,0,-11.0,1
1435,1435,0.7077518724658775,0.7,1.0,1.0,376.0,691.0,1.0,1,233.0,1
1436,1436,-0.2751875409244263,-0.3,1.0,0.0,388.0,688.0,0.0,0,414.0,1
1437,1437,-0.5620066623526072,-0.6,0.0,1.0,428.0,856.0,1.0,0,256.0,1
1438,1438,-0.8194422879368596,-0.8,1.0,0.0,278.0,546.0,0.0,0,-14.0,1
1439,1439,-0.7043227444150155,-0.7,1.0,0.0,387.0,709.0,0.0,0,124.0,1
1440,1440,-0.0067776205963221425,-0.0,0.0,1.0,281.0,737.0,0.0,1,102.0,0
1441,1441,0.7815587187411835,0.8,0.0,0.0,432.0,647.0,0.0,1,141.0,1
1442,1442,-0.043316821975093234,-0.0,1.0,0.0,311.0,868.0,0.0,0,3071.0,1
1443,1443,-0.0938405082432272,-0.1,1.0,0.0,290.0,713.0,0.0,0,337.0,1
1444,1444,-0.2790343271468183,-0.3,1.0,0.0,437.0,709.0,0.0,0,374.0,1
1445,1445,0.5944042280648726,0.6,0.0,0.0,410.0,567.0,0.0,1,563.0,1
1446,1446,0.12756232145761104,0.1,1.0,1.0,328.0,928.0,1.0,1,694.0,1
1447,1447,0.8529527812328056,0.9,0.0,0.0,282.0,672.0,0.0,1,106.0,1
1448,1448,0.7969791503475813,0.8,1.0,1.0,320.0,538.0,1.0,1,222.0,1
1449,1449,0.7906905235494807,0.8,1.0,1.0,335.0,832.0,1.0,1,143.0,1
1450,1450,-0.5822354095774598,-0.6,0.0,1.0,337.0,814.0,1.0,0,429.0,1
1451,1451,0.6672252839898053,0.7,0.0,0.0,334.0,659.0,0.0,1,547.0,1
1452,1452,0.7252621167083865,0.7,0.0,0.0,448.0,859.0,0.0,1,323.0,1
1453,1453,-0.07006831907049127,-0.1,0.0,1.0,266.0,616.0,0.0,1,908.0,0
1454,1454,0.5223796654300933,0.5,1.0,1.0,472.0,835.0,1.0,1,353.0,1
1455,1455,-0.5980347580039853,-0.6,1.0,0.0,497.0,523.0,0.0,0,320.0,1
1456,1456,0.014414312188125278,0.0,1.0,1.0,381.0,890.0,0.0,0,1519.0,0
1457,1457,0.5543835613708118,0.6,1.0,1.0,341.0,792.0,1.0,1,237.0,1
1458,1458,-0.32482619980073546,-0.3,0.0,1.0,476.0,964.0,1.0,0,660.0,1
1459,1459,0.3037314131321752,0.3,1.0,1.0,451.0,572.0,1.0,1,2317.0,1
1460,1460,0.6182360431178159,0.6,1.0,1.0,380.0,980.0,1.0,1,340.0,1
1461,1461,-0.7697918463412896,-0.8,1.0,0.0,395.0,983.0,0.0,0,312.0,1
1462,1462,-0.518889204959877,-0.5,0.0,1.0,283.0,505.0,1.0,0,602.0,1
1463,1463,0.8218697134677732,0.8,0.0,0.0,251.0,616.0,0.0,1,113.0,1
1464,1464,-0.4183299218698093,-0.4,1.0,0.0,372.0,813.0,0.0,0,695.0,1
1465,1465,0.8400792214239144,0.8,1.0,1.0,323.0,977.0,1.0,1,80.0,1
1466,1466,-0.6003938494652186,-0.6,0.0,1.0,459.0,729.0,1.0,0,192.0,1
1467,1467,0.22966862230806895,0.2,0.0,0.0,314.0,751.0,0.0,1,445.0,1
1468,1468,-0.7589352059117223,-0.8,0.0,1.0,262.0,789.0,1.0,0,319.0,1
1469,1469,-0.34287223065311945,-0.3,0.0,1.0,396.0,810.0,1.0,0,1094.0,1
1470,1470,-0.45891678980006984,-0.5,0.0,1.0,275.0,517.0,1.0,0,758.0,1
1471,1471,0.47338456956809616,0.5,0.0,0.0,449.0,920.0,0.0,1,481.0,1
1472,1472,0.004789285266834309,0.0,1.0,1.0,275.0,685.0,0.0,0,2630.0,0
1473,1473,0.31569891322603316,0.3,1.0,1.0,492.0,634.0,1.0,1,814.0,1
1474,1474,-0.23068891990872653,-0.2,0.0,1.0,294.0,572.0,0.0,1,-16.0,0
1475,1475,0.7258846952333743,0.7,1.0,1.0,381.0,610.0,1.0,1,279.0,1
1476,1476,0.003812268381507833,0.0,0.0,0.0,480.0,866.0,0.0,1,3154.0,1
1477,1477,-0.8278537317240046,-0.8,1.0,0.0,268.0,905.0,0.0,0,347.0,1
1478,1478,-0.5973743126525837,-0.6,0.0,1.0,272.0,823.0,1.0,0,125.0,1
1479,1479,0.5502188081862825,0.6,1.0,1.0,373.0,970.0,1.0,1,267.0,1
1480,1480,-0.8626707399493097,-0.9,1.0,0.0,493.0,842.0,0.0,0,185.0,1
1481,1481,0.8190388260531299,0.8,0.0,0.0,256.0,854.0,0.0,1,170.0,1
1482,1482,-0.351425893053131,-0.4,0.0,1.0,480.0,729.0,1.0,0,1271.0,1
1483,1483,-0.17669927093961468,-0.2,1.0,0.0,344.0,612.0,0.0,0,1134.0,1
1484,1484,-0.37823248819234856,-0.4,0.0,1.0,429.0,614.0,1.0,0,1937.0,1
1485,1485,0.6704042053718385,0.7,1.0,1.0,366.0,813.0,1.0,1,131.0,1
1486,1486,0.030007204057754477,0.0,1.0,1.0,396.0,659.0,0.0,0,3945.0,0
1487,1487,-0.7215389962422023,-0.7,1.0,0.0,327.0,532.0,0.0,0,401.0,1
1488,1488,-0.1404917903105819,-0.1,1.0,0.0,415.0,529.0,0.0,0,236.0,1
