,trial,coherence,coherence_bin,green_side,correct_side,target_onset,checker_onset,decision,green_decision,decision_time,correct_decision
0,0,-0.04848808383370573,-0.0,1.0,0.0,479.0,656.0,1.0,1,1865.0,0
1,1,0.8356500072854817,0.8,0.0,0.0,280.0,885.0,0.0,1,205.0,1
2,2,0.7375922073435767,0.7,0.0,0.0,378.0,717.0,0.0,1,315.0,1
3,3,-0.39792474177695725,-0.4,0.0,1.0,443.0,703.0,1.0,0,434.0,1
4,4,-0.24790605350748307,-0.2,0.0,1.0,285.0,559.0,1.0,0,746.0,1
5,5,-0.8882834414107598,-0.9,0.0,1.0,379.0,717.0,1.0,0,144.0,1
6,6,-0.1177725064398516,-0.1,1.0,0.0,281.0,582.0,1.0,1,2137.0,0
7,7,-0.04542566463816977,-0.0,1.0,0.0,365.0,680.0,1.0,1,835.0,0
8,8,0.4150935149227065,0.4,0.0,0.0,343.0,805.0,0.0,1,272.0,1
9,9,0.05801818267190817,0.1,0.0,0.0,326.0,808.0,0.0,1,1866.0,1
10,10,0.897561175678867,0.9,0.0,0.0,279.0,999.0,0.0,1,152.0,1
11,11,-0.39138634386314486,-0.4,0.0,1.0,357.0,531.0,1.0,0,1122.0,1
12,12,0.5592070426251329,0.6,0.0,0.0,498.0,644.0,0.0,1,348.0,1
13,13,0.2991456227457633,0.3,0.0,0.0,304.0,529.0,0.0,1,657.0,1
14,14,-0.13500569249153505,-0.1,0.0,1.0,452.0,742.0,1.0,0,1026.0,1
15,15,-0.3317568359020121,-0.3,1.0,0.0,256.0,849.0,0.0,0,595.0,1
16,16,-0.43770021375754026,-0.4,1.0,0.0,310.0,612.0,0.0,0,1098.0,1
17,17,0.35172036702335296,0.4,1.0,1.0,327.0,815.0,1.0,1,298.0,1
18,18,0.2344619449628481,0.2,0.0,0.0,481.0,676.0,0.0,1,863.0,1
19,19,-0.4613536082438465,-0.5,1.0,0.0,421.0,577.0,0.0,0,272.0,1
20,20,-0.6330314641320256,-0.6,1.0,0.0,477.0,773.0,0.0,0,460.0,1
21,21,0.41029552288337234,0.4,0.0,0.0,363.0,893.0,0.0,1,424.0,1
22,22,0.6705476663628088,0.7,0.0,0.0,382.0,759.0,0.0,1,249.0,1
23,23,-0.8605668338446176,-0.9,1.0,0.0,356.0,892.0,0.0,0,202.0,1
24,24,0.8728276659014537,0.9,0.0,0.0,483.0,992.0,0.0,1,115.0,1
25,25,-0.8726658902495663,-0.9,1.0,0.0,379.0,848.0,0.0,0,243.0,1
26,26,0.6758479376599661,0.7,0.0,0.0,320.0,952.0,0.0,1,118.0,1
27,27,0.13885333597108585,0.1,0.0,0.0,451.0,839.0,0.0,1,1710.0,1
28,28,0.18238868026529398,0.2,1.0,1.0,273.0,703.0,1.0,1,734.0,1
29,29,0.16510370437020383,0.2,0.0,0.0,359.0,928.0,0.0,1,1013.0,1
30,30,-0.2210455891114903,-0.2,0.0,1.0,409.0,594.0,1.0,0,1627.0,1
31,31,-0.493492696380537,-0.5,1.0,0.0,319.0,981.0,0.0,0,570.0,1
32,32,0.5210772607767574,0.5,0.0,0.0,440.0,573.0,0.0,1,187.0,1
33,33,-0.5120688633880446,-0.5,0.0,1.0,297.0,976.0,1.0,0,57.0,1
34,34,-0.5085374828446687,-0.5,0.0,1.0,258.0,765.0,1.0,0,597.0,1
35,35,0.5962770172504467,0.6,0.0,0.0,380.0,549.0,0.0,1,211.0,1
36,36,0.04007703720345068,0.0,0.0,0.0,452.0,960.0,0.0,1,1588.0,1
37,37,-0.8053629118575266,-0.8,0.0,1.0,339.0,737.0,1.0,0,194.0,1
38,38,0.5593142481973129,0.6,0.0,0.0,364.0,992.0,0.0,1,214.0,1
39,39,-0.5665021191533859,-0.6,0.0,1.0,282.0,660.0,1.0,0,678.0,1
40,40,0.4186271082765102,0.4,0.0,0.0,369.0,988.0,0.0,1,1643.0,1
41,41,0.6020695564090738,0.6,1.0,1.0,254.0,968.0,1.0,1,468.0,1
42,42,-0.13207475803172175,-0.1,1.0,0.0,284.0,606.0,0.0,0,1640.0,1
43,43,0.7166245903732665,0.7,0.0,0.0,429.0,742.0,0.0,1,189.0,1
44,44,0.15023743055294225,0.2,0.0,0.0,374.0,933.0,0.0,1,753.0,1
45,45,0.7338973435392294,0.7,1.0,1.0,299.0,707.0,1.0,1,-296.0,1
46,46,0.22493319776482046,0.2,0.0,0.0,386.0,846.0,0.0,1,858.0,1
47,47,-0.16877251934553816,-0.2,1.0,0.0,492.0,730.0,0.0,0,1778.0,1
48,48,-0.06723773773070152,-0.1,0.0,1.0,486.0,629.0,1.0,0,1885.0,1
49,49,-0.1711133749561322,-0.2,0.0,1.0,381.0,658.0,1.0,0,1961.0,1
50,50,0.05831894199138066,0.1,0.0,0.0,381.0,505.0,0.0,1,2114.0,1
51,51,-0.38356313932922015,-0.4,0.0,1.0,352.0,818.0,1.0,0,1020.0,1
52,52,-0.8558925837691632,-0.9,1.0,0.0,341.0,722.0,0.0,0,297.0,1
53,53,0.2354941425457987,0.2,1.0,1.0,298.0,933.0,1.0,1,-51.0,1
54,54,-0.8931867719401494,-0.9,0.0,1.0,378.0,534.0,1.0,0,98.0,1
55,55,0.06346854172700156,0.1,1.0,1.0,353.0,654.0,1.0,1,623.0,1
56,56,0.5545532936989638,0.6,0.0,0.0,476.0,537.0,0.0,1,517.0,1
57,57,0.4148717582578444,0.4,1.0,1.0,351.0,609.0,1.0,1,260.0,1
58,58,-0.882453014737248,-0.9,0.0,1.0,396.0,813.0,1.0,0,261.0,1
59,59,0.5187793837163032,0.5,1.0,1.0,489.0,672.0,1.0,1,149.0,1
60,60,-0.8918179717293434,-0.9,1.0,0.0,260.0,924.0,0.0,0,186.0,1
61,61,-0.35011210598940157,-0.4,1.0,0.0,336.0,803.0,0.0,0,761.0,1
62,62,-0.3668713605680616,-0.4,1.0,0.0,421.0,863.0,0.0,0,1716.0,1
63,63,0.8112396775470007,0.8,1.0,1.0,478.0,572.0,1.0,1,280.0,1
64,64,-0.1216448714935815,-0.1,1.0,0.0,262.0,526.0,0.0,0,1572.0,1
65,65,0.034535360708028096,0.0,1.0,1.0,442.0,711.0,1.0,1,1497.0,1
66,66,-0.6207665146715327,-0.6,1.0,0.0,358.0,640.0,0.0,0,642.0,1
67,67,-0.5728994171567865,-0.6,0.0,1.0,393.0,674.0,1.0,0,153.0,1
68,68,-0.5151474353345085,-0.5,0.0,1.0,451.0,697.0,1.0,0,302.0,1
69,69,0.3727082003429839,0.4,1.0,1.0,392.0,787.0,1.0,1,11.0,1
70,70,-0.3412455914832393,-0.3,1.0,0.0,306.0,751.0,0.0,0,1943.0,1
71,71,-0.4582282295268195,-0.5,1.0,0.0,498.0,907.0,0.0,0,715.0,1
72,72,0.7245776363081503,0.7,1.0,1.0,316.0,735.0,1.0,1,249.0,1
73,73,0.10831587561923783,0.1,1.0,1.0,252.0,611.0,1.0,1,367.0,1
74,74,-0.22200646594917317,-0.2,1.0,0.0,488.0,794.0,0.0,0,1098.0,1
75,75,-0.33138760322150584,-0.3,0.0,1.0,499.0,577.0,1.0,0,404.0,1
76,76,0.8271332210401007,0.8,0.0,0.0,340.0,626.0,0.0,1,154.0,1
77,77,-0.24085752431004892,-0.2,1.0,0.0,448.0,664.0,0.0,0,1828.0,1
78,78,0.7258430102930661,0.7,1.0,1.0,308.0,526.0,1.0,1,316.0,1
79,79,0.3373061762116226,0.3,0.0,0.0,423.0,783.0,0.0,1,904.0,1
80,80,-0.049130804711129406,-0.0,0.0,1.0,307.0,766.0,1.0,0,1927.0,1
81,81,0.4128100018831601,0.4,0.0,0.0,329.0,571.0,0.0,1,330.0,1
82,82,0.41062173716889416,0.4,1.0,1.0,445.0,857.0,1.0,1,258.0,1
83,83,0.5499756342377277,0.5,0.0,0.0,365.0,713.0,0.0,1,432.0,1
84,84,0.008366744066490295,0.0,1.0,1.0,425.0,606.0,1.0,1,-221.0,1
85,85,-0.05569435180649329,-0.1,0.0,1.0,383.0,585.0,1.0,0,2032.0,1
86,86,-0.7762860231384793,-0.8,0.0,1.0,356.0,869.0,1.0,0,225.0,1
87,87,-0.49223727507034126,-0.5,0.0,1.0,467.0,740.0,1.0,0,333.0,1
88,88,0.10119078329559528,0.1,0.0,0.0,386.0,941.0,0.0,1,1673.0,1
89,89,0.4707452537555753,0.5,0.0,0.0,343.0,548.0,0.0,1,1059.0,1
90,90,-0.31010403732174363,-0.3,1.0,0.0,339.0,636.0,0.0,0,1225.0,1
91,91,0.5018312067111222,0.5,1.0,1.0,447.0,894.0,1.0,1,129.0,1
92,92,-0.15264580662387206,-0.2,0.0,1.0,488.0,758.0,1.0,0,1534.0,1
93,93,-0.8880480834669316,-0.9,0.0,1.0,288.0,918.0,1.0,0,314.0,1
94,94,0.08236124368792819,0.1,0.0,0.0,401.0,547.0,0.0,1,2052.0,1
95,95,-0.5680340701994351,-0.6,0.0,1.0,379.0,961.0,1.0,0,410.0,1
96,96,0.47680777363789517,0.5,0.0,0.0,391.0,587.0,0.0,1,512.0,1
97,97,-0.41868733319788237,-0.4,1.0,0.0,452.0,996.0,0.0,0,432.0,1
98,98,0.5620833859872737,0.6,1.0,1.0,274.0,525.0,1.0,1,511.0,1
99,99,0.24345104186370803,0.2,0.0,0.0,397.0,630.0,0.0,1,1973.0,1
100,100,-0.06517326058688822,-0.1,1.0,0.0,395.0,797.0,1.0,1,48.0,0
101,101,-0.7277066204133918,-0.7,0.0,1.0,413.0,712.0,1.0,0,335.0,1
102,102,-0.7932455976499488,-0.8,0.0,1.0,470.0,832.0,1.0,0,228.0,1
103,103,0.021010817588645092,0.0,0.0,0.0,278.0,555.0,0.0,1,877.0,1
104,104,0.6357806993686689,0.6,0.0,0.0,438.0,801.0,0.0,1,291.0,1
105,105,-0.3464038092226217,-0.3,0.0,1.0,398.0,827.0,1.0,0,455.0,1
106,106,0.834496191697146,0.8,1.0,1.0,425.0,660.0,1.0,1,165.0,1
107,107,-0.4993383585773461,-0.5,0.0,1.0,308.0,834.0,1.0,0,318.0,1
108,108,0.515830375912019,0.5,0.0,0.0,361.0,709.0,0.0,1,930.0,1
109,109,0.8785179436504874,0.9,0.0,0.0,384.0,895.0,0.0,1,491.0,1
110,110,0.6292107532433965,0.6,0.0,0.0,325.0,727.0,0.0,1,368.0,1
111,111,0.13106445424391977,0.1,0.0,0.0,449.0,985.0,0.0,1,1566.0,1
112,112,0.3455762466119817,0.3,0.0,0.0,379.0,635.0,0.0,1,1286.0,1
113,113,0.6577634374819717,0.7,1.0,1.0,443.0,839.0,1.0,1,98.0,1
114,114,-0.4115305001607638,-0.4,1.0,0.0,285.0,727.0,0.0,0,918.0,1
115,115,0.1249630936874101,0.1,1.0,1.0,479.0,691.0,1.0,1,500.0,1
116,116,0.6915916643923704,0.7,1.0,1.0,368.0,787.0,1.0,1,35.0,1
117,117,0.408181547922874,0.4,0.0,0.0,342.0,513.0,0.0,1,985.0,1
118,118,0.016557157646110543,0.0,1.0,1.0,498.0,588.0,1.0,1,1464.0,1
119,119,-0.6575097317009324,-0.7,0.0,1.0,395.0,947.0,1.0,0,318.0,1
120,120,0.5466005477230819,0.5,1.0,1.0,273.0,578.0,1.0,1,239.0,1
121,121,-0.48061883703190794,-0.5,0.0,1.0,329.0,938.0,1.0,0,623.0,1
122,122,0.5064947677100039,0.5,1.0,1.0,439.0,581.0,1.0,1,330.0,1
123,123,-0.3950820066061398,-0.4,1.0,0.0,354.0,503.0,0.0,0,483.0,1
124,124,-0.5186551448370795,-0.5,1.0,0.0,389.0,961.0,0.0,0,810.0,1
125,125,-0.7506089486498542,-0.8,0.0,1.0,416.0,699.0,1.0,0,355.0,1
126,126,0.6851309555975352,0.7,0.0,0.0,310.0,576.0,0.0,1,404.0,1
127,127,0.6874911595475496,0.7,0.0,0.0,304.0,765.0,0.0,1,161.0,1
128,128,0.4414942810312633,0.4,0.0,0.0,393.0,613.0,0.0,1,1114.0,1
129,129,0.6942567547767328,0.7,0.0,0.0,367.0,937.0,0.0,1,286.0,1
130,130,-0.2973299009052176,-0.3,1.0,0.0,351.0,663.0,0.0,0,1396.0,1
131,131,0.541595126219136,0.5,0.0,0.0,265.0,898.0,0.0,1,527.0,1
132,132,0.6897199347676496,0.7,1.0,1.0,404.0,732.0,1.0,1,44.0,1
133,133,0.570725330047808,0.6,0.0,0.0,452.0,708.0,0.0,1,380.0,1
134,134,0.4710226485097838,0.5,1.0,1.0,251.0,714.0,1.0,1,255.0,1
135,135,0.5649933532739692,0.6,0.0,0.0,454.0,593.0,0.0,1,763.0,1
136,136,0.3164482708217763,0.3,0.0,0.0,396.0,776.0,0.0,1,1388.0,1
137,137,0.7701167106258723,0.8,0.0,0.0,285.0,819.0,0.0,1,386.0,1
138,138,-0.09612578031844554,-0.1,1.0,0.0,253.0,507.0,0.0,0,2240.0,1
139,139,-0.5714661292016863,-0.6,0.0,1.0,445.0,810.0,1.0,0,395.0,1
140,140,-0.5101489563670092,-0.5,1.0,0.0,493.0,535.0,0.0,0,402.0,1
141,141,-0.22459337015981995,-0.2,1.0,0.0,303.0,611.0,0.0,0,726.0,1
142,142,-0.26215498335175147,-0.3,0.0,1.0,449.0,613.0,1.0,0,718.0,1
143,143,0.7289334565130307,0.7,1.0,1.0,300.0,735.0,1.0,1,95.0,1
144,144,-0.4681224260334949,-0.5,0.0,1.0,289.0,701.0,1.0,0,900.0,1
145,145,0.8921070146054636,0.9,1.0,1.0,356.0,653.0,1.0,1,61.0,1
146,146,0.168833937562629,0.2,1.0,1.0,420.0,549.0,1.0,1,881.0,1
147,147,-0.20425894940112255,-0.2,0.0,1.0,270.0,929.0,1.0,0,741.0,1
148,148,-0.834898912289868,-0.8,0.0,1.0,357.0,705.0,1.0,0,318.0,1
149,149,0.11324768656837103,0.1,1.0,1.0,471.0,948.0,1.0,1,411.0,1
150,150,0.1602315340901853,0.2,1.0,1.0,418.0,692.0,1.0,1,1070.0,1
151,151,0.23792600377409923,0.2,0.0,0.0,286.0,934.0,0.0,1,1780.0,1
152,152,-0.23190792274707428,-0.2,1.0,0.0,317.0,755.0,0.0,0,1928.0,1
153,153,-0.49631406408702194,-0.5,1.0,0.0,278.0,644.0,1.0,1,-202.0,0
154,154,-0.7029294902974403,-0.7,0.0,1.0,340.0,919.0,1.0,0,171.0,1
155,155,-0.2770678960395663,-0.3,1.0,0.0,293.0,943.0,0.0,0,1624.0,1
156,156,0.08404267322134473,0.1,1.0,1.0,311.0,728.0,1.0,1,1961.0,1
157,157,0.20083337134246537,0.2,1.0,1.0,406.0,912.0,1.0,1,252.0,1
158,158,-0.08530453226666768,-0.1,0.0,1.0,369.0,917.0,1.0,0,1714.0,1
159,159,0.6963764506602489,0.7,1.0,1.0,406.0,954.0,1.0,1,210.0,1
160,160,0.8576565712483076,0.9,1.0,1.0,344.0,857.0,1.0,1,-41.0,1
161,161,-0.5705668547187379,-0.6,1.0,0.0,474.0,525.0,0.0,0,411.0,1
162,162,-0.4000647270313549,-0.4,0.0,1.0,407.0,526.0,1.0,0,197.0,1
163,163,0.2842641073532096,0.3,0.0,0.0,388.0,562.0,0.0,1,1890.0,1
164,164,-0.03046591598137005,-0.0,0.0,1.0,331.0,903.0,1.0,0,1766.0,1
165,165,0.23658078264230575,0.2,0.0,0.0,330.0,869.0,0.0,1,1251.0,1
166,166,-0.6806200537965978,-0.7,1.0,0.0,285.0,855.0,0.0,0,470.0,1
167,167,0.44537085928897013,0.4,1.0,1.0,347.0,800.0,1.0,1,233.0,1
168,168,-0.13742456071461873,-0.1,0.0,1.0,485.0,614.0,1.0,0,1651.0,1
169,169,-0.013726306157605506,-0.0,0.0,1.0,267.0,934.0,1.0,0,949.0,1
170,170,-0.5775873384774656,-0.6,0.0,1.0,419.0,780.0,1.0,0,131.0,1
171,171,-0.5658878251333679,-0.6,0.0,1.0,413.0,523.0,1.0,0,584.0,1
172,172,-0.29463179290182095,-0.3,1.0,0.0,433.0,715.0,0.0,0,1852.0,1
173,173,-0.7150924911186636,-0.7,0.0,1.0,342.0,558.0,1.0,0,320.0,1
174,174,0.753529982354764,0.8,1.0,1.0,435.0,953.0,1.0,1,202.0,1
175,175,0.5008690779708099,0.5,1.0,1.0,336.0,660.0,1.0,1,654.0,1
176,176,0.08912397730518828,0.1,0.0,0.0,250.0,601.0,0.0,1,2149.0,1
177,177,-0.566338827747457,-0.6,0.0,1.0,367.0,826.0,1.0,0,197.0,1
178,178,-0.05516621929415977,-0.1,0.0,1.0,294.0,581.0,1.0,0,2125.0,1
179,179,-0.7398027584794329,-0.7,1.0,0.0,261.0,542.0,0.0,0,687.0,1
180,180,0.25493599353720675,0.3,0.0,0.0,375.0,773.0,0.0,1,1102.0,1
181,181,0.6774289958627461,0.7,1.0,1.0,269.0,624.0,1.0,1,387.0,1
182,182,-0.02967382535080787,-0.0,1.0,0.0,389.0,766.0,1.0,1,1845.0,0
183,183,0.03194264756333254,0.0,1.0,1.0,405.0,653.0,1.0,1,1942.0,1
184,184,-0.7364750107896141,-0.7,0.0,1.0,497.0,920.0,1.0,0,213.0,1
185,185,0.45689516205263747,0.5,0.0,0.0,313.0,700.0,0.0,1,1087.0,1
186,186,-0.7318458155790013,-0.7,1.0,0.0,281.0,566.0,0.0,0,413.0,1
187,187,-0.27597599608524814,-0.3,0.0,1.0,455.0,897.0,1.0,0,328.0,1
188,188,0.847455846159367,0.8,1.0,1.0,339.0,708.0,1.0,1,-47.0,1
189,189,0.25405366735634927,0.3,0.0,0.0,495.0,527.0,0.0,1,1138.0,1
190,190,0.5476864086526819,0.5,1.0,1.0,284.0,661.0,1.0,1,235.0,1
191,191,0.47610208927999,0.5,0.0,0.0,255.0,932.0,0.0,1,303.0,1
192,192,0.748409335642677,0.7,1.0,1.0,368.0,891.0,1.0,1,191.0,1
193,193,-0.23750349038556173,-0.2,0.0,1.0,288.0,878.0,1.0,0,304.0,1
194,194,-0.5613945073286684,-0.6,1.0,0.0,397.0,687.0,0.0,0,1326.0,1
195,195,0.3904242486430466,0.4,1.0,1.0,344.0,793.0,1.0,1,33.0,1
196,196,-0.7027620634655223,-0.7,1.0,0.0,310.0,925.0,0.0,0,205.0,1
197,197,0.7012204703645367,0.7,1.0,1.0,396.0,755.0,1.0,1,139.0,1
198,198,-0.8084772932925044,-0.8,0.0,1.0,485.0,786.0,1.0,0,329.0,1
199,199,0.8871577882496827,0.9,0.0,0.0,452.0,867.0,0.0,1,281.0,1
200,200,-0.8049817700597673,-0.8,1.0,0.0,456.0,899.0,0.0,0,705.0,1
201,201,0.37354295127117465,0.4,0.0,0.0,403.0,896.0,0.0,1,471.0,1
202,202,0.8882507313955851,0.9,1.0,1.0,393.0,528.0,1.0,1,209.0,1
203,203,0.7304171867461281,0.7,0.0,0.0,431.0,600.0,0.0,1,429.0,1
204,204,-0.5360919050442734,-0.5,0.0,1.0,456.0,781.0,1.0,0,363.0,1
205,205,-0.26830445623966814,-0.3,1.0,0.0,438.0,725.0,0.0,0,697.0,1
206,206,0.4726971132251939,0.5,1.0,1.0,253.0,524.0,1.0,1,213.0,1
207,207,-0.7802959029448099,-0.8,0.0,1.0,298.0,579.0,1.0,0,503.0,1
208,208,0.8960959151742224,0.9,1.0,1.0,313.0,759.0,1.0,1,278.0,1
209,209,0.3033150393985661,0.3,0.0,0.0,394.0,888.0,0.0,1,768.0,1
210,210,0.6309154116498125,0.6,1.0,1.0,259.0,542.0,1.0,1,209.0,1
211,211,0.11878228344546493,0.1,1.0,1.0,367.0,830.0,1.0,1,603.0,1
212,212,-0.7912036862330205,-0.8,1.0,0.0,268.0,651.0,0.0,0,451.0,1
213,213,0.8730640194432217,0.9,1.0,1.0,331.0,873.0,1.0,1,216.0,1
214,214,0.3209147312411226,0.3,0.0,0.0,337.0,513.0,0.0,1,730.0,1
215,215,-0.4239162543393464,-0.4,1.0,0.0,335.0,732.0,0.0,0,483.0,1
216,216,0.008925190313844422,0.0,1.0,1.0,286.0,863.0,1.0,1,1851.0,1
217,217,-0.16084812610480714,-0.2,0.0,1.0,351.0,816.0,1.0,0,1323.0,1
218,218,0.2070277427281605,0.2,1.0,1.0,458.0,888.0,1.0,1,504.0,1
219,219,0.5240341242564449,0.5,0.0,0.0,407.0,982.0,0.0,1,261.0,1
220,220,-0.5293608754586692,-0.5,0.0,1.0,296.0,512.0,1.0,0,422.0,1
221,221,-0.16647801454570577,-0.2,0.0,1.0,480.0,886.0,1.0,0,864.0,1
222,222,0.02786443681426165,0.0,0.0,0.0,317.0,643.0,1.0,0,2040.0,0
223,223,0.3922472561757967,0.4,1.0,1.0,455.0,746.0,1.0,1,399.0,1
224,224,-0.12270694480373501,-0.1,1.0,0.0,302.0,859.0,1.0,1,1839.0,0
225,225,-0.10304870066231542,-0.1,0.0,1.0,366.0,563.0,1.0,0,271.0,1
226,226,-0.8435895846613702,-0.8,0.0,1.0,305.0,780.0,1.0,0,265.0,1
227,227,0.5249864472851854,0.5,1.0,1.0,439.0,503.0,1.0,1,648.0,1
228,228,0.6405890604619843,0.6,0.0,0.0,255.0,979.0,0.0,1,266.0,1
229,229,-0.4317322905781276,-0.4,1.0,0.0,437.0,687.0,1.0,1,-64.0,0
230,230,0.7538647955610221,0.8,0.0,0.0,250.0,501.0,0.0,1,399.0,1
231,231,0.8837438481636243,0.9,0.0,0.0,387.0,610.0,0.0,1,183.0,1
232,232,0.008504743799795933,0.0,1.0,1.0,380.0,835.0,1.0,1,1785.0,1
233,233,-0.43343821891185946,-0.4,1.0,0.0,273.0,576.0,0.0,0,681.0,1
234,234,-0.029851398279186148,-0.0,1.0,0.0,389.0,754.0,1.0,1,1857.0,0
235,235,-0.827772812613213,-0.8,1.0,0.0,255.0,711.0,0.0,0,344.0,1
236,236,-0.30199174427429276,-0.3,1.0,0.0,296.0,644.0,0.0,0,2060.0,1
237,237,-0.10061373626566894,-0.1,0.0,1.0,274.0,539.0,1.0,0,537.0,1
238,238,0.28076603991848936,0.3,0.0,0.0,401.0,572.0,0.0,1,667.0,1
239,239,-0.4061890713830147,-0.4,0.0,1.0,457.0,530.0,1.0,0,443.0,1
240,240,-0.5696238894698671,-0.6,1.0,0.0,427.0,972.0,0.0,0,731.0,1
241,241,-0.4861024129641974,-0.5,1.0,0.0,457.0,925.0,0.0,0,238.0,1
242,242,-0.11816088605856867,-0.1,1.0,0.0,483.0,713.0,1.0,1,1804.0,0
243,243,-0.6613122801674125,-0.7,0.0,1.0,359.0,874.0,1.0,0,127.0,1
244,244,0.007284240951163201,0.0,1.0,1.0,353.0,501.0,1.0,1,2146.0,1
245,245,0.7880892807516403,0.8,0.0,0.0,259.0,879.0,0.0,1,212.0,1
246,246,0.41999821209431387,0.4,1.0,1.0,341.0,609.0,1.0,1,980.0,1
247,247,0.6090782758896681,0.6,0.0,0.0,388.0,947.0,0.0,1,695.0,1
248,248,0.7630926110360182,0.8,0.0,0.0,440.0,934.0,0.0,1,256.0,1
249,249,-0.6551274270600238,-0.7,0.0,1.0,334.0,638.0,1.0,0,168.0,1
250,250,-0.6879917698822163,-0.7,1.0,0.0,313.0,861.0,0.0,0,216.0,1
251,251,-0.800923829561171,-0.8,1.0,0.0,461.0,564.0,0.0,0,245.0,1
252,252,0.2990352486228637,0.3,1.0,1.0,358.0,554.0,1.0,1,288.0,1
253,253,0.3203916732651001,0.3,0.0,0.0,323.0,995.0,0.0,1,642.0,1
254,254,0.7330996768291947,0.7,1.0,1.0,387.0,523.0,1.0,1,190.0,1
255,255,-0.8602652615233317,-0.9,0.0,1.0,388.0,592.0,1.0,0,370.0,1
256,256,-0.024744195711734696,-0.0,0.0,1.0,473.0,568.0,0.0,1,1959.0,0
257,257,-0.5893398881646037,-0.6,1.0,0.0,321.0,717.0,1.0,1,-258.0,0
258,258,-0.8485616176452145,-0.8,0.0,1.0,383.0,522.0,1.0,0,135.0,1
259,259,0.260154084123254,0.3,0.0,0.0,276.0,969.0,0.0,1,25.0,1
260,260,0.5856074296983033,0.6,0.0,0.0,393.0,782.0,0.0,1,165.0,1
261,261,-0.8144085124863204,-0.8,0.0,1.0,259.0,958.0,1.0,0,153.0,1
262,262,-0.37355814151312805,-0.4,1.0,0.0,357.0,899.0,0.0,0,1534.0,1
263,263,-0.5043284103319647,-0.5,1.0,0.0,277.0,697.0,0.0,0,626.0,1
264,264,-0.15506598986009934,-0.2,0.0,1.0,429.0,891.0,1.0,0,690.0,1
265,265,0.2413239551717431,0.2,0.0,0.0,296.0,706.0,0.0,1,1468.0,1
266,266,-0.20748835152334144,-0.2,1.0,0.0,476.0,826.0,0.0,0,738.0,1
267,267,0.29335339398551896,0.3,1.0,1.0,377.0,752.0,1.0,1,191.0,1
268,268,-0.32781574765847166,-0.3,0.0,1.0,478.0,705.0,1.0,0,537.0,1
269,269,-0.23497141934291021,-0.2,0.0,1.0,285.0,946.0,1.0,0,959.0,1
270,270,0.13010971884388411,0.1,1.0,1.0,462.0,778.0,1.0,1,1020.0,1
271,271,-0.8645074612417692,-0.9,0.0,1.0,445.0,574.0,1.0,0,91.0,1
272,272,-0.8960600198897902,-0.9,0.0,1.0,435.0,660.0,1.0,0,245.0,1
273,273,0.15715844676722213,0.2,0.0,0.0,490.0,979.0,0.0,1,1471.0,1
274,274,-0.3806126149194814,-0.4,0.0,1.0,454.0,616.0,1.0,0,760.0,1
275,275,0.7528103767828415,0.8,0.0,0.0,461.0,645.0,0.0,1,334.0,1
276,276,0.8255998122226348,0.8,0.0,0.0,302.0,517.0,0.0,1,221.0,1
277,277,0.7106920836533371,0.7,0.0,0.0,486.0,905.0,0.0,1,209.0,1
278,278,-0.675101360281958,-0.7,1.0,0.0,490.0,529.0,0.0,0,271.0,1
279,279,0.7038688238986511,0.7,1.0,1.0,434.0,740.0,1.0,1,126.0,1
280,280,0.7725024180979448,0.8,0.0,0.0,256.0,648.0,0.0,1,226.0,1
281,281,0.660973525637036,0.7,0.0,0.0,491.0,874.0,0.0,1,335.0,1
282,282,0.4529358441299657,0.5,0.0,0.0,329.0,763.0,0.0,1,338.0,1
283,283,-0.08764191350811534,-0.1,1.0,0.0,263.0,547.0,0.0,0,2190.0,1
284,284,0.4891002833146988,0.5,1.0,1.0,359.0,968.0,1.0,1,143.0,1
285,285,-0.10021751054507344,-0.1,0.0,1.0,339.0,970.0,0.0,1,-559.0,0
286,286,0.8176395815670193,0.8,0.0,0.0,441.0,687.0,0.0,1,112.0,1
287,287,0.331314060460279,0.3,1.0,1.0,296.0,823.0,1.0,1,281.0,1
288,288,0.08304907361895619,0.1,1.0,1.0,375.0,806.0,1.0,1,1819.0,1
289,289,-0.34738107412292796,-0.3,0.0,1.0,353.0,644.0,1.0,0,233.0,1
290,290,0.30707717249528976,0.3,1.0,1.0,294.0,988.0,1.0,1,168.0,1
291,291,-0.5581583315998544,-0.6,1.0,0.0,359.0,528.0,0.0,0,513.0,1
292,292,0.6917894717674756,0.7,0.0,0.0,394.0,836.0,0.0,1,270.0,1
293,293,0.7523877051979108,0.8,0.0,0.0,378.0,936.0,0.0,1,246.0,1
294,294,0.8796000188416727,0.9,1.0,1.0,462.0,998.0,1.0,1,50.0,1
295,295,0.5812903220786602,0.6,0.0,0.0,365.0,722.0,0.0,1,283.0,1
296,296,0.3051753145517747,0.3,1.0,1.0,499.0,649.0,1.0,1,132.0,1
297,297,0.2928319213465881,0.3,0.0,0.0,365.0,891.0,0.0,1,1054.0,1
298,298,-0.11566099649330697,-0.1,1.0,0.0,382.0,772.0,1.0,1,1846.0,0
299,299,0.01917639862309961,0.0,0.0,0.0,410.0,623.0,1.0,0,1967.0,0
300,300,-0.15830937853545612,-0.2,1.0,0.0,351.0,573.0,1.0,1,2076.0,0
301,301,0.5497280401348074,0.5,0.0,0.0,469.0,658.0,0.0,1,523.0,1
302,302,0.6217154421733763,0.6,0.0,0.0,390.0,684.0,0.0,1,146.0,1
303,303,-0.4640544083723237,-0.5,1.0,0.0,306.0,734.0,0.0,0,850.0,1
304,304,0.42396033326170224,0.4,1.0,1.0,284.0,851.0,1.0,1,215.0,1
305,305,0.18269142989156462,0.2,1.0,1.0,327.0,817.0,1.0,1,-434.0,1
306,306,0.6242797660462939,0.6,1.0,1.0,282.0,778.0,1.0,1,50.0,1
307,307,-0.21539591863760266,-0.2,1.0,0.0,330.0,762.0,0.0,0,518.0,1
308,308,0.6671782582563771,0.7,1.0,1.0,407.0,617.0,1.0,1,86.0,1
309,309,0.40213627966512056,0.4,1.0,1.0,419.0,928.0,1.0,1,243.0,1
310,310,-0.035176872423288263,-0.0,0.0,1.0,467.0,875.0,1.0,0,1658.0,1
311,311,-0.24905380319263015,-0.2,1.0,0.0,323.0,562.0,0.0,0,1075.0,1
312,312,-0.28838887822111525,-0.3,0.0,1.0,302.0,748.0,1.0,0,710.0,1
313,313,-0.8055315724624996,-0.8,1.0,0.0,471.0,854.0,0.0,0,295.0,1
314,314,0.6185357946473214,0.6,0.0,0.0,338.0,683.0,0.0,1,339.0,1
315,315,0.0138741391344529,0.0,0.0,0.0,470.0,759.0,1.0,0,1771.0,0
316,316,-0.7270015618197345,-0.7,0.0,1.0,429.0,918.0,1.0,0,153.0,1
317,317,-0.8991684454777387,-0.9,0.0,1.0,350.0,532.0,1.0,0,238.0,1
318,318,0.6213246915198215,0.6,1.0,1.0,380.0,607.0,1.0,1,183.0,1
319,319,-0.5811037478493022,-0.6,1.0,0.0,353.0,796.0,0.0,0,451.0,1
320,320,0.5590733348331328,0.6,0.0,0.0,275.0,699.0,0.0,1,346.0,1
321,321,0.4493356727683083,0.4,1.0,1.0,397.0,572.0,1.0,1,471.0,1
322,322,0.7386074407147575,0.7,0.0,0.0,467.0,755.0,0.0,1,368.0,1
323,323,0.07678273101373634,0.1,1.0,1.0,257.0,905.0,1.0,1,-342.0,1
324,324,0.17046871618531123,0.2,0.0,0.0,263.0,611.0,0.0,1,2126.0,1
325,325,-0.5834759950847184,-0.6,1.0,0.0,440.0,768.0,0.0,0,292.0,1
326,326,-0.6341931338775919,-0.6,0.0,1.0,414.0,820.0,1.0,0,366.0,1
327,327,-0.8633559507672105,-0.9,0.0,1.0,359.0,525.0,1.0,0,286.0,1
328,328,-0.688290176619873,-0.7,0.0,1.0,399.0,885.0,1.0,0,446.0,1
329,329,-0.005834978242522659,-0.0,1.0,0.0,462.0,639.0,0.0,0,1899.0,1
330,330,0.001274921633633741,0.0,0.0,0.0,321.0,737.0,1.0,0,1862.0,0
331,331,-0.7353540744425946,-0.7,0.0,1.0,318.0,567.0,1.0,0,155.0,1
332,332,0.6533761635491661,0.7,1.0,1.0,354.0,511.0,1.0,1,245.0,1
333,333,0.7163677153364475,0.7,1.0,1.0,471.0,681.0,1.0,1,198.0,1
334,334,-0.09325432787626597,-0.1,1.0,0.0,414.0,713.0,1.0,1,-337.0,0
335,335,0.6819906910264769,0.7,0.0,0.0,320.0,831.0,0.0,1,269.0,1
336,336,-0.8392324079742151,-0.8,0.0,1.0,392.0,718.0,1.0,0,290.0,1
337,337,0.1334608255776074,0.1,1.0,1.0,424.0,534.0,1.0,1,1192.0,1
338,338,0.533427643618717,0.5,1.0,1.0,420.0,940.0,1.0,1,50.0,1
339,339,0.25805447740890186,0.3,1.0,1.0,293.0,858.0,1.0,1,339.0,1
340,340,0.6912636090790959,0.7,0.0,0.0,317.0,908.0,0.0,1,315.0,1
341,341,-0.6006972398942394,-0.6,0.0,1.0,318.0,791.0,1.0,0,-149.0,1
342,342,-0.5293944323541808,-0.5,1.0,0.0,316.0,944.0,0.0,0,440.0,1
343,343,0.23328718811251503,0.2,0.0,0.0,345.0,756.0,0.0,1,399.0,1
344,344,0.09375609038452937,0.1,1.0,1.0,364.0,991.0,1.0,1,1645.0,1
345,345,-0.7727793653192302,-0.8,1.0,0.0,484.0,884.0,0.0,0,362.0,1
346,346,0.751883489986496,0.8,0.0,0.0,309.0,721.0,0.0,1,180.0,1
347,347,-0.7618684507308426,-0.8,1.0,0.0,274.0,906.0,0.0,0,280.0,1
348,348,-0.8957450357641873,-0.9,0.0,1.0,343.0,509.0,1.0,0,128.0,1
349,349,-0.8870346121657449,-0.9,0.0,1.0,343.0,853.0,1.0,0,264.0,1
350,350,-0.0765411853172232,-0.1,0.0,1.0,327.0,817.0,1.0,0,536.0,1
351,351,-0.3263355624115927,-0.3,0.0,1.0,416.0,764.0,1.0,0,490.0,1
352,352,-0.5559362133352824,-0.6,1.0,0.0,448.0,614.0,0.0,0,418.0,1
353,353,-0.3444248489857421,-0.3,0.0,1.0,435.0,901.0,1.0,0,454.0,1
354,354,0.7770210217453123,0.8,0.0,0.0,257.0,576.0,0.0,1,397.0,1
355,355,-0.7243496058312877,-0.7,0.0,1.0,438.0,892.0,1.0,0,450.0,1
356,356,-0.6454959868713497,-0.6,0.0,1.0,445.0,983.0,1.0,0,162.0,1
357,357,0.3350710983015227,0.3,1.0,1.0,357.0,997.0,1.0,1,806.0,1
358,358,0.37169788021199446,0.4,1.0,1.0,351.0,679.0,1.0,1,270.0,1
359,359,-0.11726832543851862,-0.1,0.0,1.0,278.0,911.0,1.0,0,1421.0,1
360,360,0.4100146045212588,0.4,0.0,0.0,457.0,578.0,0.0,1,665.0,1
361,361,0.17586979572414363,0.2,0.0,0.0,326.0,581.0,0.0,1,1273.0,1
362,362,-0.0849794855569328,-0.1,1.0,0.0,457.0,638.0,0.0,0,1905.0,1
363,363,0.7545867866327419,0.8,0.0,0.0,428.0,814.0,0.0,1,188.0,1
364,364,-0.7259203830850047,-0.7,0.0,1.0,379.0,811.0,1.0,0,630.0,1
365,365,-0.5961987226455467,-0.6,1.0,0.0,443.0,853.0,1.0,1,-426.0,0
366,366,0.5102795752075283,0.5,0.0,0.0,446.0,544.0,0.0,1,250.0,1
367,367,-0.5601475419055479,-0.6,0.0,1.0,345.0,624.0,1.0,0,241.0,1
368,368,0.7647887398486507,0.8,0.0,0.0,254.0,723.0,0.0,1,463.0,1
369,369,0.3036085711728026,0.3,1.0,1.0,303.0,852.0,1.0,1,65.0,1
370,370,0.8744524738774518,0.9,0.0,0.0,454.0,882.0,0.0,1,84.0,1
371,371,-0.5057565789915688,-0.5,1.0,0.0,419.0,709.0,0.0,0,562.0,1
372,372,0.19838479720607338,0.2,0.0,0.0,362.0,686.0,0.0,1,862.0,1
373,373,0.19938066102049434,0.2,1.0,1.0,437.0,911.0,1.0,1,-298.0,1
374,374,0.8607021649543211,0.9,0.0,0.0,476.0,892.0,0.0,1,252.0,1
375,375,-0.5064162125799843,-0.5,1.0,0.0,274.0,770.0,0.0,0,396.0,1
376,376,0.3692328660874399,0.4,1.0,1.0,328.0,911.0,1.0,1,431.0,1
377,377,0.8797288778507083,0.9,0.0,0.0,404.0,698.0,0.0,1,148.0,1
378,378,0.6667742080686311,0.7,1.0,1.0,274.0,964.0,1.0,1,132.0,1
379,379,0.08757345677299555,0.1,1.0,1.0,393.0,518.0,1.0,1,1199.0,1
380,380,0.49666030301872655,0.5,0.0,0.0,382.0,552.0,0.0,1,526.0,1
381,381,0.34426194457364934,0.3,0.0,0.0,457.0,652.0,1.0,0,-329.0,0
382,382,0.4536541041061354,0.5,1.0,1.0,287.0,933.0,1.0,1,-90.0,1
383,383,0.5799856187307334,0.6,0.0,0.0,269.0,526.0,0.0,1,245.0,1
384,384,-0.3831382009802683,-0.4,1.0,0.0,353.0,799.0,0.0,0,888.0,1
385,385,0.5647315906395941,0.6,0.0,0.0,422.0,750.0,0.0,1,1008.0,1
386,386,-0.6822088954353499,-0.7,0.0,1.0,473.0,841.0,1.0,0,406.0,1
387,387,-0.5458336357258009,-0.5,1.0,0.0,317.0,956.0,0.0,0,857.0,1
388,388,0.8208141162687049,0.8,1.0,1.0,389.0,743.0,1.0,1,148.0,1
389,389,-0.4538019998924,-0.5,1.0,0.0,375.0,919.0,0.0,0,966.0,1
390,390,-0.5919076397094281,-0.6,0.0,1.0,374.0,991.0,1.0,0,595.0,1
391,391,0.11978444162545177,0.1,0.0,0.0,317.0,926.0,0.0,1,1757.0,1
392,392,-0.06037884229822621,-0.1,0.0,1.0,352.0,706.0,0.0,1,1942.0,0
393,393,-0.6864007001655654,-0.7,0.0,1.0,300.0,603.0,1.0,0,447.0,1
394,394,-0.3430615667239334,-0.3,1.0,0.0,495.0,591.0,0.0,0,1334.0,1
395,395,0.5218719052618485,0.5,1.0,1.0,375.0,940.0,1.0,1,85.0,1
396,396,0.2628242034794669,0.3,0.0,0.0,342.0,698.0,0.0,1,790.0,1
397,397,0.007570656774742446,0.0,1.0,1.0,484.0,786.0,1.0,1,1730.0,1
398,398,-0.367407879462585,-0.4,1.0,0.0,313.0,903.0,0.0,0,764.0,1
399,399,0.765642215690599,0.8,1.0,1.0,353.0,710.0,1.0,1,177.0,1
400,400,-0.5438341442307866,-0.5,0.0,1.0,321.0,956.0,1.0,0,503.0,1
401,401,-0.0018425188227764178,-0.0,1.0,0.0,328.0,557.0,1.0,1,2115.0,0
402,402,0.46218201979776674,0.5,0.0,0.0,341.0,772.0,0.0,1,677.0,1
403,403,-0.342105691241241,-0.3,1.0,0.0,303.0,583.0,0.0,0,2114.0,1
404,404,-0.13142362071672165,-0.1,1.0,0.0,454.0,576.0,0.0,0,1970.0,1
405,405,0.23902549770590242,0.2,1.0,1.0,320.0,928.0,1.0,1,302.0,1
406,406,0.18711213503335344,0.2,1.0,1.0,413.0,954.0,1.0,1,423.0,1
407,407,0.042654260068607064,0.0,0.0,0.0,471.0,691.0,1.0,0,1838.0,0
408,408,-0.2882857724416472,-0.3,0.0,1.0,300.0,856.0,1.0,0,164.0,1
409,409,-0.2898431068105062,-0.3,1.0,0.0,458.0,561.0,0.0,0,1981.0,1
410,410,0.1635445686546001,0.2,0.0,0.0,269.0,738.0,0.0,1,1993.0,1
411,411,-0.012998744012290397,-0.0,0.0,1.0,495.0,675.0,1.0,0,1830.0,1
412,412,-0.6819687322964869,-0.7,0.0,1.0,425.0,684.0,1.0,0,341.0,1
413,413,-0.5504293787727192,-0.6,0.0,1.0,378.0,636.0,1.0,0,596.0,1
414,414,-0.21850443151966104,-0.2,0.0,1.0,312.0,797.0,1.0,0,991.0,1
415,415,0.14151029909377788,0.1,1.0,1.0,388.0,896.0,1.0,1,-44.0,1
416,416,-0.827625918732632,-0.8,1.0,0.0,302.0,675.0,0.0,0,193.0,1
417,417,-0.4131033565981499,-0.4,0.0,1.0,363.0,689.0,1.0,0,478.0,1
418,418,-0.7928379356743752,-0.8,0.0,1.0,360.0,610.0,1.0,0,440.0,1
419,419,-0.8600377978442043,-0.9,1.0,0.0,331.0,841.0,1.0,1,-152.0,0
420,420,0.8153420078052934,0.8,1.0,1.0,447.0,663.0,1.0,1,-100.0,1
421,421,-0.6376557202196249,-0.6,1.0,0.0,272.0,796.0,0.0,0,222.0,1
422,422,-0.3708666048938104,-0.4,0.0,1.0,407.0,725.0,1.0,0,618.0,1
423,423,-0.24587688810867048,-0.2,0.0,1.0,301.0,654.0,1.0,0,1735.0,1
424,424,0.7739539796186453,0.8,0.0,0.0,449.0,989.0,0.0,1,212.0,1
425,425,0.21888812452018735,0.2,1.0,1.0,293.0,517.0,1.0,1,140.0,1
426,426,-0.13111579254658445,-0.1,0.0,1.0,467.0,549.0,1.0,0,734.0,1
427,427,0.36890985750772,0.4,1.0,1.0,433.0,602.0,1.0,1,1115.0,1
428,428,-0.608014169288664,-0.6,0.0,1.0,376.0,651.0,1.0,0,223.0,1
429,429,-0.43170343454908156,-0.4,0.0,1.0,253.0,920.0,1.0,0,397.0,1
430,430,-0.1157636524435336,-0.1,1.0,0.0,341.0,590.0,1.0,1,2069.0,0
431,431,-0.8039529977218131,-0.8,1.0,0.0,453.0,508.0,0.0,0,529.0,1
432,432,0.7124949547987321,0.7,1.0,1.0,411.0,740.0,1.0,1,-121.0,1
433,433,-0.8846307973168943,-0.9,0.0,1.0,367.0,659.0,1.0,0,644.0,1
434,434,-0.44992164795614603,-0.4,0.0,1.0,439.0,913.0,1.0,0,488.0,1
435,435,-0.40677345830472195,-0.4,0.0,1.0,400.0,896.0,1.0,0,274.0,1
436,436,-0.8268451004940717,-0.8,0.0,1.0,401.0,671.0,1.0,0,528.0,1
437,437,0.35327749698821853,0.4,0.0,0.0,369.0,734.0,0.0,1,387.0,1
438,438,-0.4522461730816308,-0.5,1.0,0.0,379.0,778.0,0.0,0,793.0,1
439,439,-0.11672010759535889,-0.1,0.0,1.0,435.0,676.0,1.0,0,1029.0,1
440,440,-0.12176776619221885,-0.1,1.0,0.0,340.0,623.0,0.0,0,657.0,1
441,441,0.25519960993196833,0.3,0.0,0.0,492.0,617.0,0.0,1,481.0,1
442,442,-0.43193617750730046,-0.4,0.0,1.0,376.0,631.0,1.0,0,1033.0,1
443,443,0.365965050827184,0.4,0.0,0.0,299.0,826.0,0.0,1,385.0,1
444,444,0.7561200501480659,0.8,0.0,0.0,498.0,516.0,0.0,1,176.0,1
445,445,0.2660882107609611,0.3,0.0,0.0,307.0,660.0,0.0,1,983.0,1
446,446,-0.8782829665545296,-0.9,1.0,0.0,411.0,882.0,0.0,0,247.0,1
447,447,0.43648534984350007,0.4,1.0,1.0,367.0,778.0,1.0,1,175.0,1
448,448,-0.34422623086376736,-0.3,1.0,0.0,261.0,661.0,0.0,0,508.0,1
449,449,0.3793920726901455,0.4,1.0,1.0,389.0,651.0,1.0,1,250.0,1
450,450,0.5881002453270251,0.6,0.0,0.0,336.0,658.0,0.0,1,856.0,1
451,451,0.10013444125342008,0.1,0.0,0.0,415.0,783.0,0.0,1,1802.0,1
452,452,-0.5188491961178665,-0.5,0.0,1.0,481.0,759.0,1.0,0,280.0,1
453,453,-0.06170850395824867,-0.1,1.0,0.0,389.0,809.0,1.0,1,392.0,0
454,454,0.2641221900155958,0.3,1.0,1.0,288.0,714.0,1.0,1,338.0,1
455,455,0.40441916517367715,0.4,0.0,0.0,352.0,650.0,0.0,1,998.0,1
456,456,-0.11647444996459067,-0.1,0.0,1.0,388.0,571.0,1.0,0,2041.0,1
457,457,-0.5267820607914997,-0.5,1.0,0.0,295.0,815.0,0.0,0,120.0,1
458,458,0.47586587834944394,0.5,0.0,0.0,481.0,624.0,0.0,1,265.0,1
459,459,-0.22906891319243994,-0.2,1.0,0.0,387.0,565.0,0.0,0,518.0,1
460,460,0.270466155419829,0.3,1.0,1.0,432.0,860.0,1.0,1,478.0,1
461,461,0.3773066945029703,0.4,0.0,0.0,395.0,870.0,0.0,1,745.0,1
462,462,0.5049743826730745,0.5,1.0,1.0,345.0,807.0,1.0,1,318.0,1
463,463,0.05520731617990926,0.1,1.0,1.0,340.0,957.0,1.0,1,-187.0,1
464,464,-0.5660463985120783,-0.6,0.0,1.0,317.0,939.0,1.0,0,404.0,1
465,465,0.14445954411356488,0.1,0.0,0.0,394.0,955.0,0.0,1,1651.0,1
466,466,-0.45275077092667376,-0.5,0.0,1.0,488.0,511.0,1.0,0,251.0,1
467,467,0.0620554839806956,0.1,1.0,1.0,331.0,552.0,1.0,1,1077.0,1
468,468,0.5871604709703034,0.6,0.0,0.0,309.0,886.0,0.0,1,325.0,1
469,469,-0.6170857751110862,-0.6,1.0,0.0,354.0,900.0,0.0,0,376.0,1
470,470,-0.4145982539365843,-0.4,1.0,0.0,347.0,687.0,0.0,0,396.0,1
471,471,-0.17801193322195208,-0.2,0.0,1.0,258.0,684.0,1.0,0,1308.0,1
472,472,0.1786426911992406,0.2,1.0,1.0,288.0,544.0,1.0,1,188.0,1
473,473,-0.004292460008949117,-0.0,1.0,0.0,440.0,589.0,1.0,1,411.0,0
474,474,-0.822277352348087,-0.8,1.0,0.0,310.0,573.0,0.0,0,567.0,1
475,475,-0.8887345006001887,-0.9,0.0,1.0,254.0,634.0,1.0,0,182.0,1
476,476,0.7950415202467312,0.8,1.0,1.0,351.0,968.0,1.0,1,191.0,1
477,477,-0.5331030317308614,-0.5,0.0,1.0,372.0,860.0,1.0,0,268.0,1
478,478,-0.5339627830106197,-0.5,0.0,1.0,381.0,709.0,1.0,0,210.0,1
479,479,-0.5064328660803712,-0.5,1.0,0.0,390.0,657.0,0.0,0,433.0,1
480,480,-0.471650291791677,-0.5,0.0,1.0,448.0,678.0,1.0,0,454.0,1
481,481,0.8023236924629392,0.8,1.0,1.0,451.0,850.0,1.0,1,159.0,1
482,482,-0.0004438256450783884,-0.0,0.0,1.0,258.0,654.0,0.0,1,2088.0,0
483,483,-0.16496674202971084,-0.2,0.0,1.0,434.0,663.0,1.0,0,623.0,1
484,484,-0.2155372219464522,-0.2,0.0,1.0,406.0,682.0,1.0,0,1132.0,1
485,485,-0.8344580018109671,-0.8,0.0,1.0,267.0,693.0,1.0,0,200.0,1
486,486,0.008676501440228246,0.0,1.0,1.0,380.0,702.0,1.0,1,1918.0,1
487,487,0.40088553457824505,0.4,0.0,0.0,410.0,568.0,0.0,1,312.0,1
488,488,0.6241880761325466,0.6,0.0,0.0,492.0,535.0,0.0,1,293.0,1
489,489,0.2827355719572059,0.3,0.0,0.0,310.0,719.0,0.0,1,901.0,1
490,490,0.0820469989114263,0.1,1.0,1.0,277.0,893.0,1.0,1,980.0,1
491,491,0.8327631103012209,0.8,1.0,1.0,358.0,848.0,1.0,1,194.0,1
492,492,0.5778170857751251,0.6,1.0,1.0,282.0,607.0,1.0,1,221.0,1
493,493,-0.7469899760788508,-0.7,1.0,0.0,266.0,637.0,0.0,0,1097.0,1
494,494,0.7012623414299427,0.7,1.0,1.0,469.0,572.0,1.0,1,269.0,1
495,495,0.7849042369209273,0.8,0.0,0.0,422.0,830.0,0.0,1,178.0,1
496,496,-0.24583395033844757,-0.2,0.0,1.0,485.0,842.0,1.0,0,1673.0,1
497,497,0.28639378870682364,0.3,0.0,0.0,280.0,745.0,0.0,1,585.0,1
498,498,0.31177599377448784,0.3,1.0,1.0,387.0,525.0,1.0,1,908.0,1
499,499,-0.8970751233883284,-0.9,1.0,0.0,273.0,606.0,0.0,0,301.0,1
500,500,-0.3659601445411037,-0.4,0.0,1.0,451.0,953.0,1.0,0,486.0,1
501,501,0.7287582187764231,0.7,1.0,1.0,345.0,934.0,1.0,1,171.0,1
502,502,-0.5794117725150765,-0.6,1.0,0.0,306.0,693.0,0.0,0,1181.0,1
503,503,-0.8121958453898499,-0.8,0.0,1.0,479.0,947.0,1.0,0,114.0,1
504,504,-0.8790961766070146,-0.9,0.0,1.0,475.0,867.0,1.0,0,148.0,1
505,505,-0.43191139693490216,-0.4,0.0,1.0,279.0,609.0,1.0,0,202.0,1
506,506,-0.5068835500271738,-0.5,1.0,0.0,357.0,532.0,0.0,0,441.0,1
507,507,0.2595498371828847,0.3,1.0,1.0,471.0,573.0,1.0,1,356.0,1
508,508,-0.6187927169595102,-0.6,1.0,0.0,456.0,850.0,0.0,0,534.0,1
509,509,0.32998341184720437,0.3,1.0,1.0,286.0,798.0,1.0,1,356.0,1
510,510,0.1622574347961082,0.2,0.0,0.0,438.0,937.0,0.0,1,1625.0,1
511,511,-0.7958928632663107,-0.8,0.0,1.0,488.0,786.0,1.0,0,296.0,1
512,512,-0.2471453363866697,-0.2,1.0,0.0,282.0,799.0,0.0,0,1919.0,1
513,513,0.6928421277759201,0.7,0.0,0.0,253.0,646.0,0.0,1,631.0,1
514,514,-0.3631559941061714,-0.4,1.0,0.0,492.0,994.0,0.0,0,434.0,1
515,515,-0.42530629549452015,-0.4,1.0,0.0,498.0,820.0,0.0,0,932.0,1
516,516,0.7622402293614295,0.8,1.0,1.0,408.0,842.0,1.0,1,210.0,1
517,517,-0.26127414632658863,-0.3,0.0,1.0,267.0,599.0,1.0,0,424.0,1
518,518,-0.18365025846336425,-0.2,0.0,1.0,403.0,763.0,1.0,0,694.0,1
519,519,-0.558743570141258,-0.6,1.0,0.0,345.0,907.0,0.0,0,808.0,1
520,520,0.33628701870805167,0.3,0.0,0.0,250.0,845.0,0.0,1,1135.0,1
521,521,0.4118935581800057,0.4,1.0,1.0,495.0,894.0,1.0,1,241.0,1
522,522,-0.26083811195387574,-0.3,1.0,0.0,483.0,767.0,0.0,0,970.0,1
523,523,0.4086994296707599,0.4,1.0,1.0,398.0,837.0,1.0,1,365.0,1
524,524,-0.41408978896071374,-0.4,0.0,1.0,363.0,987.0,1.0,0,480.0,1
525,525,0.23272673288147006,0.2,0.0,0.0,328.0,678.0,0.0,1,1694.0,1
526,526,-0.051980593192947566,-0.1,1.0,0.0,491.0,512.0,1.0,1,287.0,0
527,527,-0.41459674964874055,-0.4,0.0,1.0,453.0,542.0,1.0,0,695.0,1
528,528,-0.8989943491997088,-0.9,0.0,1.0,486.0,788.0,1.0,0,126.0,1
529,529,0.4133725021133884,0.4,0.0,0.0,466.0,793.0,0.0,1,551.0,1
530,530,-0.7729950340698677,-0.8,0.0,1.0,419.0,621.0,1.0,0,190.0,1
531,531,0.531900991177014,0.5,1.0,1.0,371.0,760.0,1.0,1,369.0,1
532,532,0.11979357224791476,0.1,0.0,0.0,285.0,920.0,0.0,1,945.0,1
533,533,-0.8883208897516482,-0.9,0.0,1.0,257.0,746.0,1.0,0,167.0,1
534,534,-0.4982822911751759,-0.5,0.0,1.0,253.0,971.0,1.0,0,556.0,1
535,535,-0.8965141145495013,-0.9,1.0,0.0,259.0,652.0,1.0,1,-131.0,0
536,536,-0.5961888833032696,-0.6,1.0,0.0,453.0,749.0,0.0,0,538.0,1
537,537,-0.7581700732595825,-0.8,1.0,0.0,393.0,641.0,0.0,0,436.0,1
538,538,0.3811981235281158,0.4,0.0,0.0,416.0,775.0,0.0,1,269.0,1
539,539,0.1981856240733294,0.2,0.0,0.0,458.0,714.0,0.0,1,778.0,1
540,540,0.8198592920402049,0.8,1.0,1.0,473.0,774.0,1.0,1,463.0,1
541,541,-0.01165796320527801,-0.0,1.0,0.0,309.0,982.0,1.0,1,1709.0,0
542,542,-0.0843108108738756,-0.1,0.0,1.0,483.0,581.0,1.0,0,1146.0,1
543,543,0.3679606747796075,0.4,0.0,0.0,259.0,653.0,0.0,1,368.0,1
544,544,0.6653758457343079,0.7,0.0,0.0,485.0,663.0,0.0,1,572.0,1
545,545,-0.7947786849966277,-0.8,0.0,1.0,389.0,771.0,1.0,0,270.0,1
546,546,0.35165513916089985,0.4,0.0,0.0,280.0,887.0,0.0,1,803.0,1
547,547,-0.4550231933691704,-0.5,0.0,1.0,292.0,532.0,1.0,0,266.0,1
548,548,-0.1518733358707044,-0.2,0.0,1.0,302.0,557.0,1.0,0,1001.0,1
549,549,0.04692026899912605,0.0,0.0,0.0,363.0,835.0,0.0,1,1802.0,1
550,550,-0.5553063053253107,-0.6,1.0,0.0,339.0,881.0,0.0,0,800.0,1
551,551,-0.10693479270482009,-0.1,1.0,0.0,435.0,667.0,0.0,0,1898.0,1
552,552,-0.3073057174664253,-0.3,0.0,1.0,318.0,950.0,1.0,0,562.0,1
553,553,-0.7547666066266083,-0.8,0.0,1.0,363.0,622.0,1.0,0,85.0,1
554,554,0.5259108002139573,0.5,1.0,1.0,266.0,971.0,1.0,1,3.0,1
555,555,-0.6259411867251086,-0.6,1.0,0.0,283.0,798.0,0.0,0,829.0,1
556,556,0.4055585913601504,0.4,1.0,1.0,450.0,678.0,1.0,1,622.0,1
557,557,0.14222173225160095,0.1,1.0,1.0,277.0,856.0,1.0,1,527.0,1
558,558,0.10799855386435098,0.1,0.0,0.0,423.0,693.0,1.0,0,1884.0,0
559,559,-0.813003698696102,-0.8,1.0,0.0,472.0,764.0,0.0,0,334.0,1
560,560,0.6439189235311874,0.6,1.0,1.0,266.0,812.0,1.0,1,192.0,1
561,561,-0.3570271359776853,-0.4,0.0,1.0,466.0,903.0,1.0,0,201.0,1
562,562,0.5409691616140834,0.5,1.0,1.0,424.0,770.0,1.0,1,236.0,1
563,563,-0.28127468990820637,-0.3,1.0,0.0,257.0,974.0,0.0,0,1369.0,1
564,564,0.7573329144198854,0.8,0.0,0.0,486.0,739.0,0.0,1,255.0,1
565,565,0.8450381995765276,0.8,1.0,1.0,360.0,690.0,1.0,1,170.0,1
566,566,-0.10723387775055115,-0.1,1.0,0.0,319.0,807.0,1.0,1,834.0,0
567,567,-0.3884827989543681,-0.4,1.0,0.0,291.0,991.0,1.0,1,-212.0,0
568,568,0.7610159425837956,0.8,1.0,1.0,387.0,784.0,1.0,1,69.0,1
569,569,0.45625893267979134,0.5,1.0,1.0,264.0,904.0,1.0,1,192.0,1
570,570,-0.75655448739065,-0.8,0.0,1.0,475.0,514.0,1.0,0,471.0,1
571,571,-0.32909461521923844,-0.3,0.0,1.0,377.0,573.0,1.0,0,1590.0,1
572,572,-0.011060657063526103,-0.0,1.0,0.0,455.0,501.0,1.0,1,1054.0,0
573,573,0.08437252582813504,0.1,0.0,0.0,279.0,724.0,1.0,0,1997.0,0
574,574,0.18726458745647878,0.2,1.0,1.0,400.0,961.0,1.0,1,1129.0,1
575,575,-0.18556938471912965,-0.2,1.0,0.0,365.0,835.0,0.0,0,1800.0,1
576,576,0.6665718982273171,0.7,0.0,0.0,288.0,995.0,0.0,1,527.0,1
577,577,0.5077425882990935,0.5,1.0,1.0,443.0,576.0,1.0,1,151.0,1
578,578,0.7950203690467806,0.8,1.0,1.0,300.0,737.0,1.0,1,263.0,1
579,579,-0.01727775153606248,-0.0,0.0,1.0,476.0,702.0,1.0,0,1822.0,1
580,580,-0.22249824739323854,-0.2,1.0,0.0,456.0,653.0,1.0,1,1891.0,0
581,581,-0.7096957920470695,-0.7,0.0,1.0,298.0,683.0,1.0,0,409.0,1
582,582,-0.8109059343589679,-0.8,1.0,0.0,346.0,907.0,1.0,1,-43.0,0
583,583,0.8367325905923674,0.8,0.0,0.0,366.0,615.0,0.0,1,369.0,1
584,584,-0.6613235590877069,-0.7,0.0,1.0,353.0,609.0,1.0,0,268.0,1
585,585,0.29811286254580305,0.3,1.0,1.0,426.0,632.0,1.0,1,352.0,1
586,586,-0.301681432939765,-0.3,1.0,0.0,328.0,529.0,0.0,0,833.0,1
587,587,-0.8187385286583233,-0.8,0.0,1.0,286.0,504.0,1.0,0,130.0,1
588,588,-0.004033793326521318,-0.0,1.0,0.0,488.0,633.0,1.0,1,459.0,0
589,589,-0.014354241323309092,-0.0,1.0,0.0,361.0,597.0,1.0,1,1862.0,0
590,590,0.12256274835345982,0.1,0.0,0.0,318.0,606.0,0.0,1,2076.0,1
591,591,-0.39600117900743326,-0.4,0.0,1.0,265.0,559.0,1.0,0,526.0,1
592,592,-0.26797772585415913,-0.3,0.0,1.0,283.0,712.0,1.0,0,845.0,1
593,593,-0.40983852737691784,-0.4,1.0,0.0,364.0,604.0,0.0,0,372.0,1
594,594,-0.7695803073731353,-0.8,1.0,0.0,373.0,745.0,0.0,0,732.0,1
595,595,0.039424147884008165,0.0,1.0,1.0,297.0,600.0,1.0,1,633.0,1
596,596,0.4739675266755873,0.5,0.0,0.0,296.0,768.0,0.0,1,676.0,1
597,597,0.6474238371568836,0.6,0.0,0.0,423.0,922.0,0.0,1,335.0,1
598,598,-0.42361024561968036,-0.4,0.0,1.0,272.0,620.0,1.0,0,468.0,1
599,599,0.38202821633470363,0.4,1.0,1.0,496.0,505.0,1.0,1,489.0,1
600,600,-0.7339830552878764,-0.7,0.0,1.0,279.0,704.0,1.0,0,237.0,1
601,601,0.24283496928001302,0.2,0.0,0.0,482.0,774.0,0.0,1,1744.0,1
602,602,-0.21809918377902315,-0.2,0.0,1.0,266.0,935.0,1.0,0,769.0,1
603,603,0.316005329766876,0.3,0.0,0.0,486.0,507.0,0.0,1,287.0,1
604,604,0.10285491540557212,0.1,1.0,1.0,289.0,818.0,1.0,1,1893.0,1
605,605,-0.48343110135495365,-0.5,1.0,0.0,273.0,794.0,0.0,0,413.0,1
606,606,0.3038901084264788,0.3,1.0,1.0,379.0,939.0,1.0,1,502.0,1
607,607,0.7682083373604894,0.8,0.0,0.0,456.0,629.0,0.0,1,135.0,1
608,608,0.7522848448715723,0.8,0.0,0.0,477.0,629.0,0.0,1,334.0,1
609,609,0.7796669890255642,0.8,0.0,0.0,458.0,716.0,0.0,1,196.0,1
610,610,-0.583824410475328,-0.6,1.0,0.0,434.0,574.0,0.0,0,202.0,1
611,611,-0.4229126809045208,-0.4,0.0,1.0,425.0,857.0,1.0,0,348.0,1
612,612,0.6151137652755018,0.6,1.0,1.0,475.0,864.0,1.0,1,91.0,1
613,613,0.324022556158292,0.3,0.0,0.0,388.0,907.0,0.0,1,635.0,1
614,614,0.048015753440629916,0.0,1.0,1.0,369.0,713.0,1.0,1,1918.0,1
615,615,-0.7471202282901035,-0.7,0.0,1.0,317.0,947.0,1.0,0,136.0,1
616,616,-3.51660977675472e-05,-0.0,0.0,1.0,491.0,953.0,1.0,0,1206.0,1
617,617,0.2866864859436634,0.3,0.0,0.0,378.0,629.0,0.0,1,843.0,1
618,618,0.6869215893942132,0.7,1.0,1.0,442.0,955.0,1.0,1,93.0,1
619,619,0.14316741140540012,0.1,0.0,0.0,278.0,752.0,0.0,1,1970.0,1
620,620,0.22377319598617385,0.2,1.0,1.0,319.0,559.0,1.0,1,342.0,1
621,621,0.6418925967908328,0.6,0.0,0.0,495.0,995.0,0.0,1,300.0,1
622,622,0.3016465781734464,0.3,1.0,1.0,365.0,537.0,1.0,1,738.0,1
623,623,-0.3438095085833458,-0.3,0.0,1.0,370.0,607.0,1.0,0,723.0,1
624,624,-0.06060164942652191,-0.1,0.0,1.0,492.0,621.0,1.0,0,1887.0,1
625,625,0.3005814692673071,0.3,1.0,1.0,455.0,501.0,1.0,1,154.0,1
626,626,0.11139005053794804,0.1,1.0,1.0,368.0,691.0,1.0,1,751.0,1
627,627,0.06638197607868468,0.1,0.0,0.0,473.0,716.0,1.0,0,41.0,0
628,628,-0.7459782206749874,-0.7,0.0,1.0,392.0,562.0,1.0,0,266.0,1
629,629,-0.41404620449256174,-0.4,0.0,1.0,399.0,770.0,1.0,0,821.0,1
630,630,-0.17490301697001132,-0.2,0.0,1.0,288.0,621.0,1.0,0,1761.0,1
631,631,0.22449768575481943,0.2,0.0,0.0,491.0,758.0,0.0,1,1191.0,1
632,632,0.5723705131844429,0.6,0.0,0.0,294.0,957.0,0.0,1,519.0,1
633,633,-0.023811822498491675,-0.0,1.0,0.0,326.0,583.0,0.0,0,2091.0,1
634,634,-0.30956579979406484,-0.3,0.0,1.0,320.0,702.0,1.0,0,878.0,1
635,635,0.25701901984814957,0.3,0.0,0.0,432.0,962.0,0.0,1,1606.0,1
636,636,0.2163668398424342,0.2,0.0,0.0,319.0,709.0,0.0,1,782.0,1
637,637,0.1754056996039629,0.2,1.0,1.0,360.0,977.0,1.0,1,473.0,1
638,638,0.5918461895996002,0.6,0.0,0.0,264.0,722.0,0.0,1,204.0,1
639,639,0.25947487947237835,0.3,0.0,0.0,432.0,886.0,0.0,1,892.0,1
640,640,-0.5252467080516214,-0.5,1.0,0.0,442.0,616.0,0.0,0,692.0,1
641,641,-0.16974940266283045,-0.2,1.0,0.0,266.0,666.0,0.0,0,2068.0,1
642,642,0.7473170815307809,0.7,0.0,0.0,332.0,627.0,0.0,1,211.0,1
643,643,-0.30450045841318685,-0.3,1.0,0.0,496.0,690.0,0.0,0,524.0,1
644,644,0.5242272999675021,0.5,0.0,0.0,474.0,584.0,0.0,1,732.0,1
645,645,-0.5273938320140179,-0.5,0.0,1.0,433.0,673.0,1.0,0,514.0,1
646,646,-0.8056289279554067,-0.8,0.0,1.0,459.0,740.0,1.0,0,161.0,1
647,647,-0.4432793119072684,-0.4,1.0,0.0,364.0,763.0,0.0,0,333.0,1
648,648,0.4580778957817436,0.5,1.0,1.0,373.0,726.0,1.0,1,281.0,1
649,649,-0.13652699903085175,-0.1,1.0,0.0,478.0,742.0,0.0,0,1530.0,1
650,650,-0.5981613286287524,-0.6,1.0,0.0,253.0,844.0,0.0,0,363.0,1
651,651,0.675482801386824,0.7,1.0,1.0,290.0,816.0,1.0,1,294.0,1
652,652,0.7122841026164667,0.7,0.0,0.0,342.0,961.0,0.0,1,117.0,1
653,653,-0.039118937417690125,-0.0,1.0,0.0,381.0,845.0,1.0,1,-166.0,0
654,654,-0.6986279014528177,-0.7,1.0,0.0,284.0,663.0,0.0,0,153.0,1
655,655,0.26726430492222975,0.3,0.0,0.0,393.0,576.0,0.0,1,1081.0,1
656,656,0.3314283967362074,0.3,1.0,1.0,413.0,968.0,1.0,1,-341.0,1
657,657,0.4672075485249202,0.5,1.0,1.0,443.0,903.0,1.0,1,-266.0,1
658,658,0.44423580937101736,0.4,1.0,1.0,256.0,840.0,1.0,1,154.0,1
659,659,-0.7239556881196165,-0.7,1.0,0.0,276.0,583.0,0.0,0,541.0,1
660,660,-0.48886744870330257,-0.5,1.0,0.0,384.0,624.0,0.0,0,282.0,1
661,661,-0.0798420199722627,-0.1,1.0,0.0,324.0,674.0,1.0,1,2002.0,0
662,662,0.22272728850297752,0.2,1.0,1.0,307.0,862.0,1.0,1,341.0,1
663,663,-0.628990468535975,-0.6,0.0,1.0,380.0,625.0,1.0,0,255.0,1
664,664,-0.8494381454578009,-0.8,1.0,0.0,274.0,601.0,0.0,0,735.0,1
665,665,-0.8783541196555893,-0.9,0.0,1.0,253.0,796.0,1.0,0,301.0,1
666,666,-0.6159629549885496,-0.6,1.0,0.0,357.0,972.0,0.0,0,261.0,1
667,667,-0.6338402228955333,-0.6,0.0,1.0,370.0,736.0,1.0,0,274.0,1
668,668,-0.22275213954008777,-0.2,0.0,1.0,316.0,824.0,1.0,0,910.0,1
669,669,-0.8057475188331639,-0.8,0.0,1.0,471.0,999.0,1.0,0,190.0,1
670,670,0.4568133336090191,0.5,1.0,1.0,363.0,882.0,1.0,1,195.0,1
671,671,0.07382705445699311,0.1,0.0,0.0,314.0,697.0,0.0,1,1629.0,1
672,672,-0.5731456893533364,-0.6,1.0,0.0,405.0,645.0,1.0,1,40.0,0
673,673,-0.17015761507005855,-0.2,1.0,0.0,309.0,742.0,0.0,0,1949.0,1
674,674,0.4227033544220039,0.4,0.0,0.0,451.0,558.0,0.0,1,441.0,1
675,675,0.5655855554972046,0.6,1.0,1.0,306.0,506.0,1.0,1,228.0,1
676,676,0.5566323617512293,0.6,0.0,0.0,408.0,510.0,0.0,1,372.0,1
677,677,0.6884484123257156,0.7,1.0,1.0,460.0,759.0,1.0,1,201.0,1
678,678,0.4902696521378801,0.5,0.0,0.0,301.0,663.0,0.0,1,196.0,1
679,679,-0.3291615892689883,-0.3,1.0,0.0,415.0,564.0,0.0,0,2021.0,1
680,680,-0.5752978686427203,-0.6,0.0,1.0,326.0,942.0,1.0,0,142.0,1
681,681,-0.4240121682301213,-0.4,0.0,1.0,420.0,707.0,1.0,0,743.0,1
682,682,-0.609174850778322,-0.6,1.0,0.0,254.0,809.0,0.0,0,337.0,1
683,683,-0.6914928603477222,-0.7,1.0,0.0,363.0,779.0,0.0,0,358.0,1
684,684,0.52952972438645,0.5,1.0,1.0,312.0,802.0,1.0,1,336.0,1
685,685,-0.7202485991959435,-0.7,1.0,0.0,479.0,919.0,0.0,0,462.0,1
686,686,0.499832787449319,0.5,0.0,0.0,405.0,709.0,0.0,1,266.0,1
687,687,0.7404737627647772,0.7,0.0,0.0,372.0,721.0,0.0,1,437.0,1
688,688,0.8136461822447728,0.8,1.0,1.0,322.0,536.0,1.0,1,212.0,1
689,689,0.4463238794508838,0.4,0.0,0.0,371.0,545.0,0.0,1,694.0,1
690,690,0.8012192367716652,0.8,1.0,1.0,494.0,546.0,1.0,1,150.0,1
691,691,0.8281962282154814,0.8,1.0,1.0,464.0,747.0,1.0,1,219.0,1
692,692,0.714045721662356,0.7,1.0,1.0,456.0,905.0,1.0,1,239.0,1
693,693,0.37571882066194273,0.4,0.0,0.0,355.0,599.0,0.0,1,676.0,1
694,694,0.3655771998906162,0.4,1.0,1.0,478.0,638.0,1.0,1,-156.0,1
695,695,0.19676629967986747,0.2,1.0,1.0,365.0,535.0,1.0,1,570.0,1
696,696,-0.30304572176714517,-0.3,0.0,1.0,253.0,687.0,1.0,0,560.0,1
697,697,0.3164991028064744,0.3,0.0,0.0,348.0,528.0,0.0,1,664.0,1
698,698,0.13863438082717205,0.1,1.0,1.0,394.0,603.0,1.0,1,893.0,1
699,699,0.161800713595747,0.2,1.0,1.0,409.0,892.0,1.0,1,769.0,1
700,700,0.09809806722913805,0.1,0.0,0.0,424.0,676.0,0.0,1,1900.0,1
701,701,0.16010933685374729,0.2,1.0,1.0,365.0,753.0,1.0,1,292.0,1
702,702,0.04695947789761956,0.0,0.0,0.0,295.0,689.0,0.0,1,2016.0,1
703,703,0.6150004776596504,0.6,1.0,1.0,321.0,709.0,1.0,1,140.0,1
704,704,-0.35740524831457676,-0.4,1.0,0.0,474.0,533.0,0.0,0,773.0,1
705,705,-0.1166757199871673,-0.1,0.0,1.0,333.0,698.0,1.0,0,1969.0,1
706,706,-0.8070881690587305,-0.8,0.0,1.0,416.0,954.0,1.0,0,180.0,1
707,707,-0.8110201732850004,-0.8,0.0,1.0,448.0,781.0,1.0,0,211.0,1
708,708,-0.41893589131900816,-0.4,1.0,0.0,361.0,625.0,0.0,0,354.0,1
709,709,-0.34290373040783007,-0.3,0.0,1.0,415.0,609.0,1.0,0,1086.0,1
710,710,0.1338775107165452,0.1,0.0,0.0,378.0,697.0,0.0,1,845.0,1
711,711,-0.16481869928205806,-0.2,1.0,0.0,379.0,603.0,0.0,0,2018.0,1
712,712,0.5775189216502911,0.6,0.0,0.0,447.0,970.0,0.0,1,423.0,1
713,713,-0.27863282869121064,-0.3,1.0,0.0,472.0,730.0,0.0,0,1208.0,1
714,714,-0.43171479291126297,-0.4,0.0,1.0,331.0,834.0,1.0,0,395.0,1
715,715,0.6494099478479572,0.6,1.0,1.0,376.0,627.0,1.0,1,267.0,1
716,716,-0.3480245137318565,-0.3,0.0,1.0,401.0,802.0,1.0,0,417.0,1
717,717,0.7440463498931692,0.7,1.0,1.0,265.0,891.0,1.0,1,194.0,1
718,718,-0.7724487845413196,-0.8,1.0,0.0,362.0,955.0,0.0,0,213.0,1
719,719,-0.5414388748226533,-0.5,0.0,1.0,303.0,535.0,1.0,0,362.0,1
720,720,-0.05421543851972799,-0.1,1.0,0.0,278.0,990.0,1.0,1,-418.0,0
721,721,0.11776961085702642,0.1,0.0,0.0,409.0,822.0,1.0,0,1769.0,0
722,722,-0.6071096132813766,-0.6,1.0,0.0,376.0,656.0,0.0,0,528.0,1
723,723,-0.24774075720366184,-0.2,0.0,1.0,480.0,768.0,1.0,0,712.0,1
724,724,0.5954143072624095,0.6,0.0,0.0,310.0,822.0,0.0,1,638.0,1
725,725,0.27437371437002145,0.3,1.0,1.0,377.0,599.0,1.0,1,524.0,1
726,726,0.7706302572595766,0.8,1.0,1.0,326.0,867.0,1.0,1,147.0,1
727,727,-0.4287938072476467,-0.4,1.0,0.0,296.0,759.0,0.0,0,1015.0,1
728,728,-0.7594188937720253,-0.8,0.0,1.0,263.0,633.0,1.0,0,244.0,1
729,729,0.8763679814242485,0.9,1.0,1.0,414.0,725.0,1.0,1,201.0,1
730,730,-0.23086585564783524,-0.2,0.0,1.0,366.0,764.0,1.0,0,740.0,1
731,731,0.10505268855359151,0.1,0.0,0.0,378.0,688.0,0.0,1,1934.0,1
732,732,0.4117749809080421,0.4,1.0,1.0,494.0,850.0,1.0,1,76.0,1
733,733,-0.7044585064562638,-0.7,1.0,0.0,391.0,786.0,0.0,0,343.0,1
734,734,0.4473154230971318,0.4,0.0,0.0,461.0,609.0,0.0,1,580.0,1
735,735,-0.4655675243965481,-0.5,1.0,0.0,389.0,927.0,0.0,0,414.0,1
736,736,-0.7145242565488823,-0.7,1.0,0.0,470.0,940.0,0.0,0,90.0,1
737,737,0.18219375847276698,0.2,0.0,0.0,407.0,920.0,0.0,1,343.0,1
738,738,0.16820336386077617,0.2,1.0,1.0,464.0,692.0,1.0,1,1554.0,1
739,739,0.7326356511303483,0.7,1.0,1.0,383.0,500.0,1.0,1,187.0,1
740,740,0.24374066711499276,0.2,0.0,0.0,474.0,779.0,0.0,1,1747.0,1
741,741,-0.4506098978999662,-0.5,1.0,0.0,353.0,830.0,0.0,0,797.0,1
742,742,0.10751358473362449,0.1,1.0,1.0,294.0,742.0,1.0,1,124.0,1
743,743,0.10523076812826215,0.1,1.0,1.0,452.0,649.0,1.0,1,889.0,1
744,744,0.03443306926560086,0.0,1.0,1.0,322.0,556.0,1.0,1,-118.0,1
745,745,0.21897184243283896,0.2,1.0,1.0,348.0,527.0,1.0,1,1105.0,1
746,746,0.09794951545461794,0.1,0.0,0.0,439.0,852.0,1.0,0,1709.0,0
747,747,0.7840184043312547,0.8,0.0,0.0,421.0,675.0,0.0,1,124.0,1
748,748,0.7820760748430157,0.8,1.0,1.0,354.0,604.0,1.0,1,112.0,1
749,749,0.6529927731319335,0.7,1.0,1.0,305.0,631.0,1.0,1,244.0,1
750,750,0.47488577420037437,0.5,0.0,0.0,488.0,970.0,0.0,1,502.0,1
751,751,0.24646502632692313,0.2,0.0,0.0,491.0,766.0,0.0,1,643.0,1
752,752,-0.357750481079951,-0.4,1.0,0.0,345.0,685.0,0.0,0,810.0,1
753,753,0.3782321112469219,0.4,0.0,0.0,312.0,523.0,0.0,1,505.0,1
754,754,0.0336917063007508,0.0,1.0,1.0,289.0,688.0,1.0,1,1093.0,1
755,755,0.12614706119852948,0.1,1.0,1.0,300.0,913.0,1.0,1,1667.0,1
756,756,0.8663248753538636,0.9,0.0,0.0,485.0,774.0,0.0,1,251.0,1
757,757,0.4194148901175324,0.4,1.0,1.0,421.0,549.0,1.0,1,610.0,1
758,758,0.4957094855737242,0.5,1.0,1.0,457.0,545.0,1.0,1,158.0,1
759,759,-0.349813240934147,-0.3,0.0,1.0,405.0,605.0,1.0,0,470.0,1
760,760,0.07341687004953301,0.1,1.0,1.0,470.0,602.0,1.0,1,448.0,1
761,761,0.7430760858755542,0.7,0.0,0.0,256.0,815.0,0.0,1,449.0,1
762,762,0.8081884473372195,0.8,0.0,0.0,361.0,760.0,0.0,1,259.0,1
763,763,-0.7224653851292867,-0.7,1.0,0.0,288.0,789.0,0.0,0,333.0,1
764,764,0.15367937535907894,0.2,0.0,0.0,406.0,724.0,0.0,1,1600.0,1
765,765,0.03838665133368846,0.0,0.0,0.0,347.0,749.0,0.0,1,604.0,1
766,766,0.3349773441928693,0.3,0.0,0.0,322.0,749.0,0.0,1,1009.0,1
767,767,0.4052631338721465,0.4,0.0,0.0,453.0,797.0,0.0,1,420.0,1
768,768,0.3187648868696934,0.3,0.0,0.0,450.0,965.0,0.0,1,1585.0,1
769,769,0.8850676008477038,0.9,0.0,0.0,262.0,536.0,0.0,1,172.0,1
770,770,0.5910074561596818,0.6,1.0,1.0,394.0,534.0,1.0,1,472.0,1
771,771,-0.7177175452904838,-0.7,0.0,1.0,301.0,617.0,1.0,0,412.0,1
772,772,-0.8365284780800972,-0.8,0.0,1.0,397.0,808.0,1.0,0,475.0,1
773,773,-0.10836516002606689,-0.1,1.0,0.0,396.0,541.0,1.0,1,2063.0,0
774,774,0.08760121336919446,0.1,0.0,0.0,383.0,706.0,0.0,1,701.0,1
775,775,-0.17853154803524474,-0.2,1.0,0.0,250.0,796.0,0.0,0,1954.0,1
776,776,-0.2580660645769224,-0.3,1.0,0.0,389.0,700.0,0.0,0,1511.0,1
777,777,-0.7813775382375792,-0.8,1.0,0.0,461.0,893.0,0.0,0,266.0,1
778,778,0.10841951167272346,0.1,0.0,0.0,254.0,876.0,1.0,0,1870.0,0
779,779,0.2721130784204867,0.3,0.0,0.0,358.0,501.0,0.0,1,721.0,1
780,780,0.02440087220335474,0.0,0.0,0.0,319.0,657.0,0.0,1,2024.0,1
781,781,-0.7835048059908682,-0.8,0.0,1.0,288.0,664.0,1.0,0,288.0,1
782,782,-0.3514934956885867,-0.4,0.0,1.0,429.0,728.0,1.0,0,683.0,1
783,783,-0.3271573584066637,-0.3,0.0,1.0,267.0,927.0,1.0,0,676.0,1
784,784,-0.19282200503707736,-0.2,0.0,1.0,260.0,778.0,1.0,0,332.0,1
785,785,0.48497299602557187,0.5,1.0,1.0,485.0,906.0,1.0,1,319.0,1
786,786,-0.3662983334468801,-0.4,0.0,1.0,386.0,699.0,1.0,0,465.0,1
787,787,0.12095321083035226,0.1,0.0,0.0,474.0,942.0,0.0,1,1584.0,1
788,788,-0.8362977396819556,-0.8,0.0,1.0,478.0,975.0,1.0,0,337.0,1
789,789,-0.11737836710344063,-0.1,0.0,1.0,362.0,704.0,1.0,0,1934.0,1
790,790,-0.67736781539607,-0.7,1.0,0.0,369.0,719.0,0.0,0,362.0,1
791,791,0.158265799853749,0.2,0.0,0.0,486.0,999.0,0.0,1,205.0,1
792,792,0.3356413675118951,0.3,1.0,1.0,435.0,916.0,1.0,1,339.0,1
793,793,-0.5980575437509082,-0.6,1.0,0.0,429.0,686.0,0.0,0,375.0,1
794,794,-0.6866549896672186,-0.7,1.0,0.0,485.0,869.0,0.0,0,176.0,1
795,795,0.8926423274730962,0.9,1.0,1.0,409.0,824.0,1.0,1,127.0,1
796,796,0.8406550092369866,0.8,1.0,1.0,270.0,904.0,1.0,1,76.0,1
797,797,-0.24491790386179235,-0.2,0.0,1.0,335.0,716.0,1.0,0,1229.0,1
798,798,0.23947443786496525,0.2,0.0,0.0,371.0,987.0,0.0,1,572.0,1
799,799,0.8954597758153467,0.9,0.0,0.0,311.0,615.0,0.0,1,274.0,1
800,800,0.3745864083893927,0.4,1.0,1.0,291.0,907.0,1.0,1,132.0,1
801,801,0.8626597038256046,0.9,0.0,0.0,407.0,555.0,0.0,1,438.0,1
802,802,0.7672212781752771,0.8,1.0,1.0,308.0,654.0,1.0,1,88.0,1
803,803,0.20016057900605355,0.2,0.0,0.0,487.0,591.0,0.0,1,1372.0,1
804,804,0.49198833171961753,0.5,0.0,0.0,438.0,605.0,0.0,1,477.0,1
805,805,-0.4885327201348114,-0.5,0.0,1.0,306.0,694.0,1.0,0,420.0,1
806,806,-0.497082633585961,-0.5,0.0,1.0,412.0,649.0,1.0,0,669.0,1
807,807,0.1313746111786681,0.1,0.0,0.0,296.0,648.0,0.0,1,756.0,1
808,808,0.48230696639161297,0.5,0.0,0.0,472.0,532.0,0.0,1,166.0,1
809,809,-0.5213632269728862,-0.5,0.0,1.0,253.0,505.0,1.0,0,72.0,1
810,810,-0.6737056532266237,-0.7,0.0,1.0,259.0,813.0,1.0,0,548.0,1
811,811,0.10413934054439011,0.1,0.0,0.0,479.0,591.0,0.0,1,670.0,1
812,812,-0.17186392096650704,-0.2,0.0,1.0,493.0,537.0,1.0,0,1480.0,1
813,813,-0.494667953409777,-0.5,0.0,1.0,278.0,540.0,1.0,0,292.0,1
814,814,0.13266042637236997,0.1,1.0,1.0,299.0,942.0,1.0,1,539.0,1
815,815,-0.6847629867139973,-0.7,1.0,0.0,432.0,907.0,0.0,0,581.0,1
816,816,-0.4685822864438299,-0.5,1.0,0.0,271.0,582.0,0.0,0,387.0,1
817,817,-0.37973079183108815,-0.4,0.0,1.0,458.0,999.0,1.0,0,323.0,1
818,818,-0.47642619432390143,-0.5,0.0,1.0,298.0,966.0,1.0,0,146.0,1
819,819,0.7947377620977351,0.8,0.0,0.0,419.0,773.0,0.0,1,458.0,1
820,820,0.3340540826217603,0.3,1.0,1.0,474.0,665.0,1.0,1,1011.0,1
821,821,0.7691006823171872,0.8,1.0,1.0,469.0,630.0,1.0,1,111.0,1
822,822,-0.10075533188586061,-0.1,0.0,1.0,337.0,658.0,1.0,0,2005.0,1
823,823,0.7336546717957576,0.7,0.0,0.0,421.0,706.0,0.0,1,183.0,1
824,824,-0.8310664329936428,-0.8,0.0,1.0,345.0,981.0,1.0,0,254.0,1
825,825,0.6540317829331103,0.7,1.0,1.0,405.0,606.0,1.0,1,-91.0,1
826,826,0.21162010052163016,0.2,1.0,1.0,356.0,592.0,1.0,1,752.0,1
827,827,0.08596568090538947,0.1,1.0,1.0,454.0,875.0,1.0,1,391.0,1
828,828,-0.11689544045205369,-0.1,1.0,0.0,350.0,877.0,1.0,1,1773.0,0
829,829,0.4164683568985009,0.4,1.0,1.0,291.0,792.0,1.0,1,17.0,1
830,830,0.12000745300112114,0.1,0.0,0.0,430.0,827.0,0.0,1,1743.0,1
831,831,-0.4802498467910578,-0.5,1.0,0.0,395.0,848.0,0.0,0,277.0,1
832,832,0.788546476705915,0.8,0.0,0.0,418.0,963.0,0.0,1,319.0,1
833,833,-0.12323406959233152,-0.1,1.0,0.0,365.0,998.0,0.0,0,1637.0,1
834,834,-0.8085443097562365,-0.8,0.0,1.0,496.0,522.0,1.0,0,302.0,1
835,835,-0.3487426210391762,-0.3,1.0,0.0,304.0,662.0,0.0,0,1264.0,1
836,836,0.6592085788850538,0.7,1.0,1.0,368.0,717.0,1.0,1,395.0,1
837,837,-0.218867084165417,-0.2,0.0,1.0,312.0,571.0,1.0,0,847.0,1
838,838,-0.4986062065725172,-0.5,1.0,0.0,276.0,982.0,0.0,0,392.0,1
839,839,0.5237564837394634,0.5,0.0,0.0,253.0,776.0,0.0,1,241.0,1
840,840,-0.07525987283664459,-0.1,1.0,0.0,446.0,893.0,1.0,1,-309.0,0
841,841,-0.4221079692259586,-0.4,1.0,0.0,302.0,965.0,0.0,0,783.0,1
842,842,-0.7852673268847111,-0.8,1.0,0.0,279.0,893.0,0.0,0,1008.0,1
843,843,-0.8012804595489103,-0.8,0.0,1.0,490.0,758.0,1.0,0,242.0,1
844,844,0.17665209636364232,0.2,1.0,1.0,463.0,531.0,1.0,1,126.0,1
845,845,0.1670178986870069,0.2,0.0,0.0,313.0,663.0,0.0,1,2024.0,1
846,846,-0.4071643843791631,-0.4,0.0,1.0,458.0,988.0,1.0,0,774.0,1
847,847,-0.22339891531554723,-0.2,0.0,1.0,283.0,608.0,1.0,0,379.0,1
848,848,-0.489866759812947,-0.5,1.0,0.0,323.0,689.0,0.0,0,688.0,1
849,849,-0.6589061430646862,-0.7,1.0,0.0,447.0,867.0,0.0,0,206.0,1
850,850,0.8075495423635631,0.8,0.0,0.0,367.0,888.0,0.0,1,225.0,1
851,851,-0.3736111429307788,-0.4,0.0,1.0,271.0,838.0,1.0,0,511.0,1
852,852,-0.7203831540803256,-0.7,0.0,1.0,401.0,732.0,1.0,0,377.0,1
853,853,-0.03554637704256358,-0.0,1.0,0.0,425.0,818.0,0.0,0,1757.0,1
854,854,0.722365217518414,0.7,1.0,1.0,384.0,582.0,1.0,1,124.0,1
855,855,0.2593963366323827,0.3,0.0,0.0,410.0,753.0,0.0,1,547.0,1
856,856,-0.49968560670506096,-0.5,0.0,1.0,271.0,506.0,1.0,0,403.0,1
857,857,-0.3410298860352985,-0.3,0.0,1.0,276.0,947.0,1.0,0,747.0,1
858,858,-0.2884858187928504,-0.3,0.0,1.0,305.0,759.0,1.0,0,656.0,1
859,859,-0.7474388410255669,-0.7,1.0,0.0,482.0,636.0,0.0,0,172.0,1
860,860,-0.420596306656795,-0.4,0.0,1.0,363.0,615.0,1.0,0,902.0,1
861,861,-0.14291833925613706,-0.1,1.0,0.0,366.0,547.0,0.0,0,2087.0,1
862,862,-0.6275588471633464,-0.6,0.0,1.0,454.0,645.0,1.0,0,261.0,1
863,863,0.8431734979673141,0.8,1.0,1.0,406.0,674.0,1.0,1,230.0,1
864,864,-0.5320096039532762,-0.5,0.0,1.0,363.0,733.0,1.0,0,714.0,1
865,865,0.030502976513486213,0.0,1.0,1.0,448.0,937.0,0.0,0,1615.0,0
866,866,0.30400145126964817,0.3,0.0,0.0,409.0,500.0,0.0,1,2091.0,1
867,867,-0.7670632967658741,-0.8,0.0,1.0,489.0,525.0,1.0,0,236.0,1
868,868,-0.11834177566805548,-0.1,1.0,0.0,270.0,579.0,1.0,1,2151.0,0
869,869,-0.16709395346448175,-0.2,0.0,1.0,315.0,567.0,1.0,0,918.0,1
870,870,-0.1602164885123113,-0.2,0.0,1.0,406.0,710.0,1.0,0,-66.0,1
871,871,-0.03074532636521987,-0.0,0.0,1.0,392.0,565.0,0.0,1,2043.0,0
872,872,-0.02229220062652837,-0.0,0.0,1.0,448.0,831.0,1.0,0,1721.0,1
873,873,-0.09282207712511392,-0.1,1.0,0.0,440.0,555.0,0.0,0,2005.0,1
874,874,0.5011802544712441,0.5,0.0,0.0,345.0,681.0,0.0,1,374.0,1
875,875,0.42275871244550733,0.4,0.0,0.0,306.0,846.0,0.0,1,518.0,1
876,876,-0.4199360710405799,-0.4,1.0,0.0,257.0,983.0,0.0,0,520.0,1
877,877,-0.4929667614298637,-0.5,0.0,1.0,389.0,730.0,1.0,0,371.0,1
878,878,-0.6463457903920033,-0.6,1.0,0.0,491.0,707.0,0.0,0,1302.0,1
879,879,0.7835214851420785,0.8,0.0,0.0,312.0,873.0,0.0,1,205.0,1
880,880,-0.8504652503454364,-0.9,0.0,1.0,294.0,914.0,1.0,0,122.0,1
881,881,0.176678506986497,0.2,1.0,1.0,280.0,612.0,1.0,1,518.0,1
882,882,-0.8493658358557489,-0.8,0.0,1.0,289.0,876.0,1.0,0,375.0,1
883,883,0.03486082322043238,0.0,0.0,0.0,325.0,944.0,1.0,0,1731.0,0
884,884,0.8676132662743675,0.9,1.0,1.0,330.0,675.0,1.0,1,-95.0,1
885,885,0.06405555116559913,0.1,0.0,0.0,343.0,514.0,0.0,1,2143.0,1
886,886,0.6907093301160426,0.7,0.0,0.0,322.0,676.0,0.0,1,282.0,1
887,887,0.5042974409563467,0.5,1.0,1.0,485.0,617.0,1.0,1,248.0,1
888,888,0.4459659004674005,0.4,1.0,1.0,381.0,524.0,1.0,1,715.0,1
889,889,0.3102243542231077,0.3,0.0,0.0,273.0,891.0,0.0,1,456.0,1
890,890,0.3707544093159415,0.4,1.0,1.0,488.0,840.0,1.0,1,532.0,1
891,891,0.6906726646971274,0.7,0.0,0.0,253.0,959.0,0.0,1,438.0,1
892,892,0.8312334555031856,0.8,1.0,1.0,352.0,539.0,1.0,1,199.0,1
893,893,0.032828833367077204,0.0,1.0,1.0,350.0,836.0,1.0,1,1014.0,1
894,894,-0.497130474531614,-0.5,1.0,0.0,371.0,722.0,0.0,0,637.0,1
895,895,-0.3615412723763939,-0.4,0.0,1.0,460.0,569.0,1.0,0,321.0,1
896,896,-0.7757695551946465,-0.8,0.0,1.0,302.0,562.0,1.0,0,396.0,1
897,897,-0.22909052395598806,-0.2,0.0,1.0,280.0,785.0,1.0,0,885.0,1
898,898,0.2065006321061834,0.2,1.0,1.0,365.0,806.0,1.0,1,399.0,1
899,899,0.8584674199769838,0.9,0.0,0.0,415.0,987.0,0.0,1,768.0,1
900,900,-0.20977599575192452,-0.2,0.0,1.0,258.0,608.0,1.0,0,774.0,1
901,901,-0.5615552683930001,-0.6,1.0,0.0,414.0,756.0,0.0,0,300.0,1
902,902,0.580708290214537,0.6,1.0,1.0,303.0,864.0,1.0,1,243.0,1
903,903,0.28210739448806155,0.3,1.0,1.0,337.0,526.0,1.0,1,1097.0,1
904,904,-0.4557159275919054,-0.5,1.0,0.0,356.0,782.0,0.0,0,432.0,1
905,905,-0.12894334494230975,-0.1,1.0,0.0,337.0,819.0,0.0,0,1844.0,1
906,906,0.12328505210769969,0.1,1.0,1.0,450.0,991.0,1.0,1,299.0,1
907,907,-0.8161256150126874,-0.8,0.0,1.0,445.0,814.0,1.0,0,301.0,1
908,908,0.22241048556204313,0.2,0.0,0.0,451.0,847.0,0.0,1,342.0,1
909,909,-0.25381460783977083,-0.3,0.0,1.0,443.0,992.0,1.0,0,825.0,1
910,910,0.8525289434208491,0.9,0.0,0.0,405.0,911.0,0.0,1,294.0,1
911,911,0.12456124635388577,0.1,0.0,0.0,327.0,662.0,0.0,1,2011.0,1
912,912,-0.05027096181764035,-0.1,0.0,1.0,361.0,792.0,1.0,0,1547.0,1
913,913,-0.8570830466467335,-0.9,0.0,1.0,386.0,610.0,1.0,0,134.0,1
914,914,0.7226975525454958,0.7,0.0,0.0,373.0,559.0,0.0,1,398.0,1
915,915,0.4998546878558715,0.5,1.0,1.0,408.0,574.0,1.0,1,278.0,1
916,916,-0.8491840395914569,-0.8,1.0,0.0,349.0,550.0,0.0,0,321.0,1
917,917,0.7869190211008948,0.8,1.0,1.0,438.0,667.0,1.0,1,185.0,1
918,918,0.33622772970673875,0.3,1.0,1.0,268.0,797.0,1.0,1,175.0,1
919,919,-0.44893784865891556,-0.4,0.0,1.0,327.0,578.0,1.0,0,225.0,1
920,920,-0.5894254634239847,-0.6,0.0,1.0,324.0,740.0,1.0,0,366.0,1
921,921,0.06814458395499712,0.1,0.0,0.0,471.0,600.0,0.0,1,1929.0,1
922,922,0.11868126154730751,0.1,1.0,1.0,435.0,509.0,1.0,1,656.0,1
923,923,-0.8908560495115365,-0.9,0.0,1.0,358.0,519.0,1.0,0,233.0,1
924,924,0.7398917702994753,0.7,1.0,1.0,307.0,592.0,1.0,1,291.0,1
925,925,-0.736412139406776,-0.7,1.0,0.0,370.0,861.0,0.0,0,619.0,1
926,926,0.4621536643521821,0.5,0.0,0.0,258.0,952.0,0.0,1,450.0,1
927,927,0.35186577114089423,0.4,1.0,1.0,250.0,690.0,1.0,1,160.0,1
928,928,-0.35873829244132116,-0.4,0.0,1.0,349.0,939.0,1.0,0,352.0,1
929,929,-0.27997713440259253,-0.3,1.0,0.0,357.0,777.0,0.0,0,646.0,1
930,930,0.01692202546798871,0.0,1.0,1.0,281.0,626.0,1.0,1,973.0,1
931,931,0.1546270376007831,0.2,1.0,1.0,398.0,928.0,1.0,1,104.0,1
932,932,-0.5883227559289637,-0.6,1.0,0.0,353.0,619.0,0.0,0,458.0,1
933,933,0.4011704017206009,0.4,1.0,1.0,417.0,607.0,1.0,1,436.0,1
934,934,-0.40103330404887083,-0.4,0.0,1.0,491.0,694.0,1.0,0,365.0,1
935,935,0.8373009179121372,0.8,1.0,1.0,456.0,727.0,1.0,1,137.0,1
936,936,-0.8426440742930249,-0.8,0.0,1.0,466.0,509.0,1.0,0,385.0,1
937,937,0.7210088146919748,0.7,0.0,0.0,365.0,877.0,0.0,1,198.0,1
938,938,-0.8858864670681407,-0.9,1.0,0.0,380.0,740.0,0.0,0,650.0,1
939,939,-0.500778544152455,-0.5,0.0,1.0,292.0,942.0,1.0,0,256.0,1
940,940,-0.25935623140333,-0.3,1.0,0.0,308.0,889.0,0.0,0,1803.0,1
941,941,0.8844136422364969,0.9,0.0,0.0,367.0,919.0,0.0,1,624.0,1
942,942,-0.782219647405239,-0.8,0.0,1.0,453.0,688.0,1.0,0,219.0,1
943,943,0.8913018268149558,0.9,0.0,0.0,439.0,585.0,0.0,1,506.0,1
944,944,-0.012664994253966166,-0.0,0.0,1.0,287.0,703.0,1.0,0,2010.0,1
945,945,0.047633600588477876,0.0,1.0,1.0,294.0,777.0,1.0,1,669.0,1
946,946,0.1839575958834322,0.2,1.0,1.0,323.0,783.0,1.0,1,1604.0,1
947,947,-0.8061538130800991,-0.8,1.0,0.0,292.0,613.0,0.0,0,195.0,1
948,948,-0.2069645545821196,-0.2,1.0,0.0,378.0,988.0,0.0,0,444.0,1
949,949,-0.7209874789439412,-0.7,1.0,0.0,392.0,879.0,1.0,1,-31.0,0
950,950,-0.531894118256534,-0.5,1.0,0.0,443.0,987.0,0.0,0,1350.0,1
951,951,0.11395516853215593,0.1,1.0,1.0,461.0,588.0,1.0,1,1951.0,1
952,952,0.12927009837011394,0.1,0.0,0.0,342.0,868.0,0.0,1,1790.0,1
953,953,-0.04833772239559431,-0.0,0.0,1.0,422.0,559.0,1.0,0,2019.0,1
954,954,-0.4626513827287632,-0.5,0.0,1.0,436.0,620.0,1.0,0,544.0,1
955,955,-0.8232406321973338,-0.8,1.0,0.0,486.0,588.0,0.0,0,346.0,1
956,956,-0.14067872857524089,-0.1,1.0,0.0,481.0,984.0,0.0,0,1525.0,1
957,957,-0.24684644086358432,-0.2,1.0,0.0,330.0,631.0,0.0,0,1749.0,1
958,958,0.24661282200967738,0.2,1.0,1.0,291.0,951.0,1.0,1,248.0,1
959,959,0.4225899975986126,0.4,0.0,0.0,342.0,500.0,0.0,1,478.0,1
960,960,0.6118541985364309,0.6,1.0,1.0,352.0,758.0,1.0,1,670.0,1
961,961,-0.5576708732921279,-0.6,1.0,0.0,323.0,885.0,0.0,0,992.0,1
962,962,-0.8104140241982488,-0.8,1.0,0.0,357.0,652.0,0.0,0,851.0,1
963,963,0.45480909069673336,0.5,1.0,1.0,388.0,821.0,1.0,1,371.0,1
964,964,0.21908084988292253,0.2,0.0,0.0,358.0,597.0,0.0,1,345.0,1
965,965,-0.3122802902207714,-0.3,1.0,0.0,421.0,867.0,0.0,0,1472.0,1
966,966,0.31519033971001587,0.3,1.0,1.0,456.0,908.0,1.0,1,146.0,1
967,967,-0.5831584507821035,-0.6,1.0,0.0,318.0,762.0,0.0,0,760.0,1
968,968,0.8752325999985618,0.9,1.0,1.0,285.0,755.0,1.0,1,80.0,1
969,969,-0.636872525783819,-0.6,1.0,0.0,326.0,730.0,0.0,0,154.0,1
970,970,-0.8559701230687073,-0.9,1.0,0.0,266.0,812.0,0.0,0,682.0,1
971,971,-0.26057165212376876,-0.3,1.0,0.0,419.0,529.0,0.0,0,732.0,1
972,972,-0.6592187963437295,-0.7,1.0,0.0,380.0,942.0,0.0,0,458.0,1
973,973,-0.2541905865545453,-0.3,1.0,0.0,424.0,676.0,0.0,0,610.0,1
974,974,-0.07570056377160728,-0.1,1.0,0.0,380.0,821.0,1.0,1,1109.0,0
975,975,-0.39185501251017885,-0.4,0.0,1.0,378.0,534.0,1.0,0,408.0,1
976,976,0.058817955937239375,0.1,1.0,1.0,374.0,790.0,1.0,1,1836.0,1
977,977,0.8703723747703381,0.9,0.0,0.0,317.0,876.0,0.0,1,357.0,1
978,978,0.3402478303704798,0.3,0.0,0.0,352.0,743.0,0.0,1,405.0,1
979,979,-0.5107931419864808,-0.5,1.0,0.0,445.0,934.0,0.0,0,741.0,1
980,980,-0.09986257341553839,-0.1,0.0,1.0,259.0,960.0,1.0,0,1161.0,1
981,981,-0.22911652582717656,-0.2,0.0,1.0,469.0,626.0,1.0,0,1275.0,1
982,982,-0.6983482910530397,-0.7,1.0,0.0,466.0,706.0,0.0,0,228.0,1
983,983,0.5782110944634736,0.6,0.0,0.0,261.0,515.0,0.0,1,274.0,1
984,984,-0.6024320128597194,-0.6,1.0,0.0,405.0,976.0,0.0,0,1059.0,1
985,985,-0.30613439995851643,-0.3,0.0,1.0,367.0,921.0,1.0,0,472.0,1
986,986,-0.8320000766490033,-0.8,1.0,0.0,284.0,629.0,0.0,0,277.0,1
987,987,0.0018351029853974632,0.0,0.0,0.0,392.0,656.0,0.0,1,1952.0,1
988,988,-0.07137845501872808,-0.1,1.0,0.0,303.0,857.0,1.0,1,1840.0,0
989,989,0.44691875795551705,0.4,1.0,1.0,401.0,527.0,1.0,1,302.0,1
990,990,-0.17765783624938958,-0.2,1.0,0.0,330.0,866.0,0.0,0,1804.0,1
991,991,-0.30455932173833755,-0.3,1.0,0.0,463.0,984.0,0.0,0,633.0,1
992,992,-0.6986733526600714,-0.7,1.0,0.0,467.0,983.0,0.0,0,270.0,1
993,993,-0.6688853824934271,-0.7,0.0,1.0,288.0,755.0,1.0,0,217.0,1
994,994,-0.7281846734130116,-0.7,1.0,0.0,323.0,820.0,0.0,0,897.0,1
995,995,-0.2940576905263672,-0.3,0.0,1.0,325.0,536.0,1.0,0,469.0,1
996,996,0.40393723521159763,0.4,0.0,0.0,400.0,805.0,0.0,1,445.0,1
997,997,0.7089417147629439,0.7,1.0,1.0,330.0,622.0,1.0,1,198.0,1
998,998,0.005318554359837746,0.0,1.0,1.0,439.0,738.0,1.0,1,1763.0,1
999,999,-0.5193634361464441,-0.5,1.0,0.0,415.0,958.0,0.0,0,637.0,1
1000,1000,-0.7894461934712392,-0.8,1.0,0.0,295.0,576.0,0.0,0,319.0,1
1001,1001,-0.5893304961317922,-0.6,0.0,1.0,390.0,692.0,1.0,0,168.0,1
1002,1002,-0.560973292068937,-0.6,0.0,1.0,479.0,948.0,1.0,0,63.0,1
1003,1003,-0.5710950041020304,-0.6,0.0,1.0,426.0,948.0,1.0,0,196.0,1
1004,1004,0.2557716957944921,0.3,0.0,0.0,449.0,780.0,0.0,1,401.0,1
1005,1005,-0.8123349075386287,-0.8,0.0,1.0,394.0,745.0,1.0,0,271.0,1
1006,1006,0.4949590789333024,0.5,1.0,1.0,323.0,589.0,1.0,1,118.0,1
1007,1007,0.1108885413708226,0.1,0.0,0.0,255.0,956.0,0.0,1,1789.0,1
1008,1008,-0.26145391748363667,-0.3,1.0,0.0,466.0,784.0,0.0,0,1750.0,1
1009,1009,0.34165697359206637,0.3,1.0,1.0,342.0,901.0,1.0,1,437.0,1
1010,1010,-0.3121834421674714,-0.3,0.0,1.0,496.0,758.0,1.0,0,556.0,1
1011,1011,-0.4583698393337482,-0.5,0.0,1.0,301.0,742.0,1.0,0,317.0,1
1012,1012,0.04523445058085285,0.0,1.0,1.0,457.0,889.0,1.0,1,784.0,1
1013,1013,0.40667052539088966,0.4,1.0,1.0,279.0,578.0,1.0,1,213.0,1
1014,1014,-0.3166650752864755,-0.3,1.0,0.0,448.0,650.0,0.0,0,622.0,1
1015,1015,-0.8203982443641749,-0.8,0.0,1.0,426.0,866.0,1.0,0,238.0,1
1016,1016,-0.8465558264108813,-0.8,0.0,1.0,381.0,855.0,1.0,0,414.0,1
1017,1017,0.3543273466860418,0.4,0.0,0.0,471.0,929.0,0.0,1,1320.0,1
1018,1018,-0.4252671450753634,-0.4,1.0,0.0,323.0,577.0,0.0,0,1850.0,1
1019,1019,-0.4122476828383617,-0.4,1.0,0.0,268.0,522.0,0.0,0,1350.0,1
1020,1020,-0.5099531047820975,-0.5,1.0,0.0,429.0,978.0,0.0,0,673.0,1
1021,1021,-0.5550993753877602,-0.6,1.0,0.0,307.0,926.0,0.0,0,1067.0,1
1022,1022,-0.7920760407517548,-0.8,1.0,0.0,408.0,644.0,0.0,0,148.0,1
1023,1023,0.39269696553050115,0.4,0.0,0.0,260.0,629.0,0.0,1,961.0,1
1024,1024,-0.0581782763495825,-0.1,0.0,1.0,255.0,600.0,1.0,0,2145.0,1
1025,1025,-0.7359006246683606,-0.7,1.0,0.0,496.0,968.0,0.0,0,296.0,1
1026,1026,-0.6308165834781465,-0.6,0.0,1.0,396.0,949.0,1.0,0,345.0,1
1027,1027,-0.1878307713802646,-0.2,0.0,1.0,419.0,724.0,1.0,0,677.0,1
1028,1028,0.4475133176206282,0.4,1.0,1.0,480.0,558.0,1.0,1,392.0,1
1029,1029,0.011508257552062084,0.0,0.0,0.0,290.0,792.0,0.0,1,1918.0,1
1030,1030,-0.12761948185546568,-0.1,1.0,0.0,498.0,603.0,1.0,1,1899.0,0
1031,1031,-0.7051813341398295,-0.7,0.0,1.0,480.0,684.0,1.0,0,286.0,1
1032,1032,0.2620329926231407,0.3,0.0,0.0,313.0,683.0,0.0,1,1614.0,1
1033,1033,-0.8426445045156205,-0.8,1.0,0.0,319.0,763.0,0.0,0,398.0,1
1034,1034,0.7727526212477066,0.8,0.0,0.0,372.0,921.0,0.0,1,367.0,1
1035,1035,0.6523506088656713,0.7,0.0,0.0,363.0,708.0,0.0,1,549.0,1
1036,1036,-0.2678782390668123,-0.3,1.0,0.0,255.0,548.0,0.0,0,837.0,1
1037,1037,0.1800027642348453,0.2,1.0,1.0,354.0,666.0,1.0,1,190.0,1
1038,1038,-0.040196608771189024,-0.0,0.0,1.0,267.0,722.0,1.0,0,2011.0,1
1039,1039,-0.4501487965833203,-0.5,1.0,0.0,478.0,827.0,0.0,0,255.0,1
1040,1040,-0.14212479524855226,-0.1,0.0,1.0,470.0,605.0,1.0,0,1925.0,1
1041,1041,-0.4334044261295764,-0.4,0.0,1.0,403.0,849.0,1.0,0,658.0,1
1042,1042,-0.6452148356326193,-0.6,0.0,1.0,385.0,795.0,1.0,0,830.0,1
1043,1043,-0.5622262997292407,-0.6,1.0,0.0,466.0,891.0,0.0,0,443.0,1
1044,1044,-0.13237485003854288,-0.1,1.0,0.0,307.0,649.0,1.0,1,2044.0,0
1045,1045,0.5998658851762072,0.6,0.0,0.0,378.0,571.0,0.0,1,411.0,1
1046,1046,-0.8170031221364922,-0.8,1.0,0.0,325.0,932.0,0.0,0,183.0,1
1047,1047,-0.22419880868798914,-0.2,1.0,0.0,474.0,761.0,0.0,0,1765.0,1
1048,1048,-0.6110757108470866,-0.6,0.0,1.0,366.0,889.0,1.0,0,275.0,1
1049,1049,-0.5586314060551114,-0.6,1.0,0.0,379.0,793.0,0.0,0,408.0,1
1050,1050,0.2809883922895181,0.3,1.0,1.0,423.0,808.0,1.0,1,499.0,1
1051,1051,-0.7920449585493281,-0.8,1.0,0.0,455.0,565.0,0.0,0,550.0,1
1052,1052,0.30853597784325315,0.3,0.0,0.0,265.0,599.0,0.0,1,626.0,1
1053,1053,-0.7041559990588864,-0.7,0.0,1.0,363.0,868.0,1.0,0,589.0,1
1054,1054,-0.6603707921388307,-0.7,1.0,0.0,409.0,852.0,0.0,0,109.0,1
1055,1055,-0.26400474321147327,-0.3,1.0,0.0,418.0,611.0,0.0,0,1971.0,1
1056,1056,0.26024690528686467,0.3,0.0,0.0,280.0,828.0,0.0,1,1392.0,1
1057,1057,0.8919967422297584,0.9,0.0,0.0,414.0,593.0,0.0,1,263.0,1
1058,1058,0.8814040860937445,0.9,1.0,1.0,453.0,624.0,1.0,1,253.0,1
1059,1059,0.4301024775893557,0.4,1.0,1.0,274.0,597.0,1.0,1,239.0,1
1060,1060,-0.07247605907655208,-0.1,0.0,1.0,498.0,765.0,1.0,0,887.0,1
1061,1061,0.38716404711996877,0.4,1.0,1.0,482.0,605.0,1.0,1,243.0,1
1062,1062,0.6103784355547092,0.6,0.0,0.0,383.0,581.0,0.0,1,556.0,1
1063,1063,-0.058606611056791436,-0.1,1.0,0.0,431.0,999.0,1.0,1,590.0,0
1064,1064,0.4887910081455319,0.5,1.0,1.0,283.0,564.0,1.0,1,563.0,1
1065,1065,-0.6748854434299708,-0.7,1.0,0.0,454.0,570.0,0.0,0,176.0,1
1066,1066,-0.0462022113282482,-0.0,1.0,0.0,408.0,611.0,1.0,1,1981.0,0
1067,1067,0.3617757610427449,0.4,0.0,0.0,329.0,945.0,0.0,1,636.0,1
1068,1068,0.10639386560848563,0.1,0.0,0.0,378.0,951.0,0.0,1,1671.0,1
1069,1069,0.091864659449444,0.1,1.0,1.0,421.0,854.0,1.0,1,95.0,1
1070,1070,0.6317158538829769,0.6,0.0,0.0,415.0,603.0,0.0,1,472.0,1
1071,1071,-0.5479909215814458,-0.5,1.0,0.0,419.0,905.0,0.0,0,1336.0,1
1072,1072,-0.7542048247171766,-0.8,1.0,0.0,469.0,576.0,0.0,0,415.0,1
1073,1073,0.5298574275725491,0.5,0.0,0.0,261.0,592.0,0.0,1,547.0,1
1074,1074,0.5326484085502917,0.5,1.0,1.0,304.0,653.0,1.0,1,163.0,1
1075,1075,-0.7932897009804835,-0.8,0.0,1.0,284.0,887.0,1.0,0,229.0,1
1076,1076,0.06157626893764545,0.1,0.0,0.0,272.0,650.0,0.0,1,2078.0,1
1077,1077,0.02632337677542207,0.0,1.0,1.0,486.0,560.0,1.0,1,1854.0,1
1078,1078,-0.8831406545618846,-0.9,1.0,0.0,383.0,521.0,0.0,0,296.0,1
1079,1079,-0.6075187631254674,-0.6,0.0,1.0,493.0,677.0,1.0,0,480.0,1
1080,1080,0.8530934363258352,0.9,1.0,1.0,288.0,582.0,1.0,1,240.0,1
1081,1081,-0.03426318888963853,-0.0,1.0,0.0,397.0,643.0,1.0,1,1510.0,0
1082,1082,0.38379649808269345,0.4,1.0,1.0,444.0,757.0,1.0,1,169.0,1
1083,1083,0.07937007780342054,0.1,1.0,1.0,467.0,844.0,1.0,1,1309.0,1
1084,1084,0.7355065771748851,0.7,1.0,1.0,382.0,547.0,1.0,1,1111.0,1
1085,1085,-0.5463996819546071,-0.5,0.0,1.0,343.0,566.0,1.0,0,741.0,1
1086,1086,-0.006638505709043563,-0.0,1.0,0.0,361.0,662.0,1.0,1,1647.0,0
1087,1087,0.0736751962456903,0.1,0.0,0.0,453.0,549.0,0.0,1,468.0,1
1088,1088,-0.6958612092541522,-0.7,0.0,1.0,255.0,701.0,1.0,0,364.0,1
1089,1089,0.44718931117339433,0.4,1.0,1.0,483.0,500.0,1.0,1,227.0,1
1090,1090,-0.6593586745195287,-0.7,1.0,0.0,350.0,801.0,0.0,0,709.0,1
1091,1091,-0.0001857054921047263,-0.0,0.0,1.0,367.0,881.0,1.0,0,1752.0,1
1092,1092,0.4270644570179497,0.4,0.0,0.0,282.0,938.0,0.0,1,320.0,1
1093,1093,0.7071434385300209,0.7,1.0,1.0,313.0,948.0,1.0,1,-221.0,1
1094,1094,-0.5321407985731232,-0.5,0.0,1.0,377.0,572.0,1.0,0,491.0,1
1095,1095,0.24054929829136495,0.2,1.0,1.0,495.0,692.0,1.0,1,303.0,1
1096,1096,0.7716628328736969,0.8,1.0,1.0,392.0,783.0,1.0,1,105.0,1
1097,1097,0.5530025039955951,0.6,1.0,1.0,362.0,697.0,1.0,1,241.0,1
1098,1098,0.7611163455845383,0.8,0.0,0.0,477.0,979.0,0.0,1,484.0,1
1099,1099,0.5231692354555731,0.5,1.0,1.0,476.0,924.0,1.0,1,140.0,1
1100,1100,-0.2909674117461061,-0.3,0.0,1.0,498.0,703.0,1.0,0,619.0,1
1101,1101,-0.6028744116377711,-0.6,0.0,1.0,345.0,517.0,1.0,0,158.0,1
1102,1102,0.6097715979621384,0.6,0.0,0.0,320.0,539.0,0.0,1,131.0,1
1103,1103,-0.4429554092502349,-0.4,0.0,1.0,318.0,995.0,1.0,0,327.0,1
1104,1104,0.5920882336334922,0.6,0.0,0.0,324.0,736.0,0.0,1,200.0,1
1105,1105,0.23093650755563544,0.2,0.0,0.0,363.0,911.0,0.0,1,1726.0,1
1106,1106,-0.13838080820119925,-0.1,1.0,0.0,309.0,950.0,1.0,1,1741.0,0
1107,1107,-0.1404621064827224,-0.1,1.0,0.0,335.0,563.0,1.0,1,2102.0,0
1108,1108,0.06044029215452029,0.1,0.0,0.0,480.0,900.0,0.0,1,1620.0,1
1109,1109,0.4190608728122177,0.4,0.0,0.0,456.0,852.0,0.0,1,662.0,1
1110,1110,-0.5299992614866934,-0.5,1.0,0.0,389.0,825.0,0.0,0,476.0,1
1111,1111,-0.24398065589230555,-0.2,0.0,1.0,429.0,649.0,1.0,0,1102.0,1
1112,1112,-0.6285882917109069,-0.6,0.0,1.0,369.0,822.0,1.0,0,299.0,1
1113,1113,-0.8469994927592371,-0.8,0.0,1.0,499.0,528.0,1.0,0,73.0,1
1114,1114,0.6982303436019014,0.7,1.0,1.0,359.0,644.0,1.0,1,137.0,1
1115,1115,0.19542279593392087,0.2,1.0,1.0,272.0,742.0,1.0,1,246.0,1
1116,1116,-0.1398543508621013,-0.1,1.0,0.0,483.0,888.0,1.0,1,1559.0,0
1117,1117,-0.060537410495898225,-0.1,1.0,0.0,367.0,996.0,1.0,1,1637.0,0
1118,1118,0.7796684061490832,0.8,1.0,1.0,369.0,895.0,1.0,1,106.0,1
1119,1119,0.6804604058266631,0.7,1.0,1.0,449.0,764.0,1.0,1,117.0,1
1120,1120,-0.8619155696555623,-0.9,0.0,1.0,370.0,551.0,1.0,0,799.0,1
1121,1121,-0.27112692388695514,-0.3,0.0,1.0,389.0,780.0,1.0,0,581.0,1
1122,1122,-0.21798456051580894,-0.2,1.0,0.0,386.0,690.0,0.0,0,1924.0,1
1123,1123,-0.36002402363161634,-0.4,0.0,1.0,451.0,766.0,1.0,0,213.0,1
1124,1124,-0.7201106974205634,-0.7,1.0,0.0,261.0,543.0,0.0,0,296.0,1
1125,1125,-0.012234870259683728,-0.0,1.0,0.0,353.0,824.0,1.0,1,723.0,0
1126,1126,-0.09400542487284724,-0.1,0.0,1.0,361.0,958.0,0.0,1,1681.0,0
1127,1127,0.5640031316846571,0.6,0.0,0.0,492.0,541.0,0.0,1,367.0,1
1128,1128,0.7924676278587527,0.8,1.0,1.0,251.0,819.0,1.0,1,140.0,1
1129,1129,0.1836932555978953,0.2,0.0,0.0,372.0,538.0,0.0,1,1460.0,1
1130,1130,-0.045343833334340444,-0.0,1.0,0.0,284.0,900.0,1.0,1,46.0,0
1131,1131,0.8976257252893408,0.9,1.0,1.0,271.0,620.0,1.0,1,329.0,1
1132,1132,0.036472574802856594,0.0,0.0,0.0,355.0,969.0,1.0,0,1676.0,0
1133,1133,0.10968773156022948,0.1,0.0,0.0,288.0,680.0,0.0,1,2032.0,1
1134,1134,-0.2681198098606856,-0.3,0.0,1.0,484.0,647.0,1.0,0,359.0,1
1135,1135,0.7225390577631049,0.7,1.0,1.0,287.0,859.0,1.0,1,104.0,1
1136,1136,0.37303899730122614,0.4,0.0,0.0,359.0,653.0,0.0,1,1098.0,1
1137,1137,0.6533054975215314,0.7,1.0,1.0,429.0,660.0,1.0,1,171.0,1
1138,1138,0.7870089031981328,0.8,1.0,1.0,467.0,673.0,1.0,1,170.0,1
1139,1139,-0.6218855197989428,-0.6,0.0,1.0,378.0,719.0,1.0,0,83.0,1
1140,1140,0.8389555390953937,0.8,1.0,1.0,295.0,874.0,1.0,1,201.0,1
1141,1141,0.021892597481036558,0.0,1.0,1.0,270.0,702.0,1.0,1,908.0,1
1142,1142,0.231443254683814,0.2,1.0,1.0,451.0,961.0,1.0,1,268.0,1
1143,1143,-0.08269609846555115,-0.1,1.0,0.0,337.0,623.0,0.0,0,2040.0,1
1144,1144,0.35928171680038024,0.4,0.0,0.0,324.0,931.0,0.0,1,495.0,1
1145,1145,0.22864089883470984,0.2,1.0,1.0,382.0,507.0,1.0,1,421.0,1
1146,1146,-0.8640816536707776,-0.9,1.0,0.0,331.0,609.0,0.0,0,290.0,1
1147,1147,0.11637885564519468,0.1,1.0,1.0,364.0,964.0,1.0,1,712.0,1
1148,1148,-0.27649322331494275,-0.3,1.0,0.0,427.0,828.0,0.0,0,1745.0,1
1149,1149,0.0713563815507412,0.1,1.0,1.0,482.0,622.0,1.0,1,1896.0,1
1150,1150,-0.4008426342399661,-0.4,0.0,1.0,259.0,942.0,1.0,0,569.0,1
1151,1151,0.02755729872024204,0.0,0.0,0.0,410.0,894.0,0.0,1,1696.0,1
1152,1152,0.33828415297223324,0.3,1.0,1.0,290.0,509.0,1.0,1,201.0,1
1153,1153,-0.8949662804311237,-0.9,0.0,1.0,408.0,821.0,1.0,0,271.0,1
1154,1154,-0.6275727658542403,-0.6,0.0,1.0,470.0,793.0,1.0,0,407.0,1
1155,1155,-0.4296209822061056,-0.4,1.0,0.0,388.0,847.0,0.0,0,495.0,1
1156,1156,-0.7213851818027852,-0.7,0.0,1.0,367.0,808.0,1.0,0,675.0,1
1157,1157,0.704113810047624,0.7,0.0,0.0,300.0,845.0,0.0,1,535.0,1
1158,1158,0.6171702402218221,0.6,0.0,0.0,400.0,726.0,0.0,1,224.0,1
1159,1159,-0.14397968168914455,-0.1,1.0,0.0,325.0,755.0,0.0,0,1920.0,1
1160,1160,0.6505432599704898,0.7,1.0,1.0,402.0,675.0,1.0,1,193.0,1
1161,1161,-0.6076852318941568,-0.6,1.0,0.0,445.0,637.0,0.0,0,548.0,1
1162,1162,-0.4127164849490245,-0.4,1.0,0.0,449.0,521.0,0.0,0,740.0,1
1163,1163,-0.46095623275037884,-0.5,0.0,1.0,324.0,864.0,1.0,0,52.0,1
1164,1164,0.5905832906834595,0.6,0.0,0.0,258.0,872.0,0.0,1,150.0,1
1165,1165,0.04816254621405591,0.0,1.0,1.0,411.0,788.0,1.0,1,1071.0,1
1166,1166,-0.7607388290004269,-0.8,1.0,0.0,434.0,741.0,0.0,0,295.0,1
1167,1167,0.18334619743054958,0.2,0.0,0.0,383.0,528.0,0.0,1,1659.0,1
1168,1168,-0.22134762133389674,-0.2,0.0,1.0,462.0,636.0,1.0,0,1022.0,1
1169,1169,0.885282386283302,0.9,0.0,0.0,458.0,649.0,0.0,1,183.0,1
1170,1170,0.3385516757195711,0.3,0.0,0.0,426.0,816.0,0.0,1,658.0,1
1171,1171,-0.46836728580717496,-0.5,0.0,1.0,366.0,894.0,1.0,0,230.0,1
1172,1172,0.010309822033435112,0.0,1.0,1.0,396.0,707.0,1.0,1,947.0,1
1173,1173,0.05301088213184757,0.1,0.0,0.0,438.0,753.0,1.0,0,1809.0,0
1174,1174,-0.11797249538535104,-0.1,1.0,0.0,263.0,613.0,0.0,0,2124.0,1
1175,1175,-0.13249174518211604,-0.1,1.0,0.0,422.0,571.0,0.0,0,577.0,1
1176,1176,-0.3359579819062354,-0.3,0.0,1.0,420.0,784.0,1.0,0,526.0,1
1177,1177,0.3336784565085681,0.3,1.0,1.0,335.0,780.0,1.0,1,475.0,1
1178,1178,0.5117328579973636,0.5,0.0,0.0,483.0,973.0,0.0,1,164.0,1
1179,1179,-0.6478400773990287,-0.6,0.0,1.0,445.0,663.0,1.0,0,112.0,1
1180,1180,0.2251330361059608,0.2,1.0,1.0,287.0,976.0,1.0,1,-23.0,1
1181,1181,0.800493059633388,0.8,1.0,1.0,344.0,603.0,1.0,1,113.0,1
1182,1182,0.7205646602995824,0.7,0.0,0.0,448.0,979.0,0.0,1,363.0,1
1183,1183,0.5155754438009469,0.5,0.0,0.0,256.0,611.0,0.0,1,323.0,1
1184,1184,0.3050633053142616,0.3,0.0,0.0,431.0,815.0,0.0,1,854.0,1
1185,1185,-0.301758825152033,-0.3,1.0,0.0,463.0,900.0,0.0,0,257.0,1
1186,1186,-0.2777318260237531,-0.3,1.0,0.0,354.0,580.0,0.0,0,1956.0,1
1187,1187,-0.5911575176986966,-0.6,0.0,1.0,257.0,517.0,1.0,0,296.0,1
1188,1188,0.2756318075901135,0.3,0.0,0.0,344.0,509.0,0.0,1,857.0,1
1189,1189,-0.8476771798734255,-0.8,0.0,1.0,431.0,797.0,1.0,0,202.0,1
1190,1190,0.5391193760396104,0.5,1.0,1.0,333.0,590.0,1.0,1,547.0,1
1191,1191,-0.7710469533014781,-0.8,1.0,0.0,341.0,558.0,0.0,0,421.0,1
1192,1192,-0.2857237678421778,-0.3,0.0,1.0,419.0,747.0,1.0,0,1494.0,1
1193,1193,-0.1793202447733595,-0.2,0.0,1.0,253.0,740.0,1.0,0,457.0,1
1194,1194,0.6051786568900658,0.6,1.0,1.0,280.0,770.0,1.0,1,560.0,1
1195,1195,0.23316830923045095,0.2,0.0,0.0,427.0,704.0,0.0,1,459.0,1
1196,1196,0.6100615406100861,0.6,0.0,0.0,408.0,981.0,0.0,1,301.0,1
1197,1197,-0.3312313702600467,-0.3,1.0,0.0,495.0,802.0,0.0,0,783.0,1
1198,1198,-0.23103950670826134,-0.2,0.0,1.0,351.0,532.0,1.0,0,547.0,1
1199,1199,0.6178302501561109,0.6,1.0,1.0,370.0,562.0,1.0,1,358.0,1
1200,1200,0.831860928015767,0.8,0.0,0.0,262.0,811.0,0.0,1,507.0,1
1201,1201,0.8644307577304023,0.9,1.0,1.0,350.0,547.0,1.0,1,213.0,1
1202,1202,0.8829287081942222,0.9,0.0,0.0,458.0,509.0,0.0,1,263.0,1
1203,1203,-0.56169619329251,-0.6,0.0,1.0,415.0,713.0,1.0,0,412.0,1
1204,1204,-0.15032133949738957,-0.2,0.0,1.0,472.0,615.0,1.0,0,1913.0,1
1205,1205,-0.8235078363934246,-0.8,1.0,0.0,455.0,708.0,0.0,0,547.0,1
1206,1206,-0.8093871148747782,-0.8,0.0,1.0,348.0,513.0,1.0,0,429.0,1
1207,1207,-0.786464369160275,-0.8,0.0,1.0,338.0,885.0,1.0,0,277.0,1
1208,1208,-0.6291596881159138,-0.6,0.0,1.0,331.0,782.0,1.0,0,247.0,1
1209,1209,-0.39136905667135924,-0.4,0.0,1.0,454.0,946.0,1.0,0,320.0,1
1210,1210,-0.36653044950691027,-0.4,1.0,0.0,496.0,695.0,0.0,0,799.0,1
1211,1211,-0.8263510119253826,-0.8,1.0,0.0,446.0,788.0,0.0,0,286.0,1
1212,1212,-0.7582658100039921,-0.8,0.0,1.0,333.0,640.0,1.0,0,247.0,1
1213,1213,-0.061929335581761835,-0.1,0.0,1.0,448.0,530.0,1.0,0,2022.0,1
1214,1214,0.31118534157986166,0.3,1.0,1.0,442.0,613.0,1.0,1,205.0,1
1215,1215,-0.39431291447136774,-0.4,0.0,1.0,447.0,971.0,1.0,0,1292.0,1
1216,1216,0.12377243015505679,0.1,1.0,1.0,398.0,892.0,1.0,1,-390.0,1
1217,1217,-0.03243392529517897,-0.0,0.0,1.0,265.0,998.0,1.0,0,1737.0,1
1218,1218,-0.330603075134554,-0.3,0.0,1.0,387.0,534.0,1.0,0,1079.0,1
1219,1219,0.43619274286935916,0.4,0.0,0.0,366.0,623.0,0.0,1,471.0,1
1220,1220,0.6759483076409992,0.7,0.0,0.0,402.0,548.0,0.0,1,540.0,1
1221,1221,-0.6304002331047097,-0.6,1.0,0.0,497.0,826.0,0.0,0,677.0,1
1222,1222,-0.8623821769781836,-0.9,0.0,1.0,268.0,756.0,1.0,0,246.0,1
1223,1223,0.0799991564567083,0.1,1.0,1.0,436.0,858.0,1.0,1,796.0,1
1224,1224,-0.7967198606100013,-0.8,1.0,0.0,257.0,721.0,0.0,0,182.0,1
1225,1225,0.3794283895655267,0.4,0.0,0.0,304.0,750.0,0.0,1,436.0,1
1226,1226,-0.4371289560693789,-0.4,0.0,1.0,375.0,658.0,1.0,0,367.0,1
1227,1227,-0.17414283058311564,-0.2,0.0,1.0,357.0,894.0,1.0,0,1719.0,1
1228,1228,-0.6683907135030451,-0.7,1.0,0.0,300.0,554.0,0.0,0,496.0,1
1229,1229,0.5883788227840768,0.6,1.0,1.0,378.0,781.0,1.0,1,101.0,1
1230,1230,-0.041395672351762114,-0.0,1.0,0.0,401.0,895.0,0.0,0,1704.0,1
1231,1231,0.4039420043697227,0.4,1.0,1.0,345.0,758.0,1.0,1,-113.0,1
1232,1232,-0.7138124365229789,-0.7,1.0,0.0,288.0,908.0,0.0,0,404.0,1
1233,1233,0.41750880401457324,0.4,0.0,0.0,334.0,851.0,0.0,1,365.0,1
1234,1234,-0.8910139686359569,-0.9,1.0,0.0,408.0,777.0,0.0,0,685.0,1
1235,1235,-0.6561982899139562,-0.7,0.0,1.0,258.0,855.0,1.0,0,407.0,1
1236,1236,-0.7883680495089577,-0.8,1.0,0.0,265.0,595.0,0.0,0,290.0,1
1237,1237,0.8005729905549687,0.8,1.0,1.0,399.0,705.0,1.0,1,16.0,1
1238,1238,0.882734584276975,0.9,1.0,1.0,470.0,536.0,1.0,1,224.0,1
1239,1239,0.02477407654294861,0.0,0.0,0.0,414.0,704.0,1.0,0,1802.0,0
1240,1240,0.7274064566046722,0.7,1.0,1.0,470.0,937.0,1.0,1,363.0,1
1241,1241,0.8381178095980583,0.8,1.0,1.0,400.0,693.0,1.0,1,297.0,1
1242,1242,0.4905268029090296,0.5,1.0,1.0,414.0,831.0,1.0,1,425.0,1
1243,1243,-0.2023397977517375,-0.2,0.0,1.0,395.0,683.0,1.0,0,642.0,1
1244,1244,0.3311537196140796,0.3,1.0,1.0,295.0,726.0,1.0,1,479.0,1
1245,1245,-0.8319014469455304,-0.8,1.0,0.0,301.0,610.0,0.0,0,409.0,1
1246,1246,-0.15330515595530625,-0.2,0.0,1.0,348.0,727.0,1.0,0,1385.0,1
1247,1247,-0.4778387225700929,-0.5,0.0,1.0,375.0,806.0,1.0,0,219.0,1
1248,1248,0.5564645259508579,0.6,1.0,1.0,384.0,591.0,1.0,1,225.0,1
1249,1249,-0.6198549524501455,-0.6,1.0,0.0,413.0,518.0,0.0,0,249.0,1
1250,1250,-0.7481946298194817,-0.7,0.0,1.0,491.0,703.0,1.0,0,276.0,1
1251,1251,0.39998442146334534,0.4,1.0,1.0,333.0,969.0,1.0,1,248.0,1
1252,1252,-0.6700748599196832,-0.7,0.0,1.0,471.0,563.0,1.0,0,286.0,1
1253,1253,0.018279401638261472,0.0,0.0,0.0,301.0,935.0,0.0,1,1764.0,1
1254,1254,0.5954515292306427,0.6,1.0,1.0,471.0,528.0,1.0,1,351.0,1
1255,1255,0.8147991565712677,0.8,1.0,1.0,468.0,574.0,1.0,1,118.0,1
1256,1256,0.7233596821232456,0.7,0.0,0.0,488.0,593.0,0.0,1,329.0,1
1257,1257,0.07845941881823426,0.1,0.0,0.0,384.0,938.0,0.0,1,1678.0,1
1258,1258,0.36661791392449194,0.4,0.0,0.0,492.0,517.0,0.0,1,531.0,1
1259,1259,0.5357993109204969,0.5,1.0,1.0,358.0,786.0,1.0,1,176.0,1
1260,1260,0.8247236951281786,0.8,1.0,1.0,483.0,504.0,1.0,1,263.0,1
1261,1261,-0.8696485284709679,-0.9,1.0,0.0,387.0,659.0,0.0,0,224.0,1
1262,1262,0.8007221072814975,0.8,0.0,0.0,339.0,572.0,0.0,1,249.0,1
1263,1263,0.796632052471176,0.8,0.0,0.0,428.0,748.0,0.0,1,364.0,1
1264,1264,-0.2522140891588366,-0.3,0.0,1.0,494.0,880.0,1.0,0,286.0,1
1265,1265,0.8230213371853586,0.8,0.0,0.0,380.0,503.0,0.0,1,217.0,1
1266,1266,-0.38961301643403723,-0.4,1.0,0.0,357.0,974.0,0.0,0,349.0,1
1267,1267,-0.4401400840610477,-0.4,0.0,1.0,340.0,634.0,1.0,0,496.0,1
1268,1268,0.24054474647121526,0.2,1.0,1.0,359.0,547.0,1.0,1,274.0,1
1269,1269,-0.270257628671438,-0.3,1.0,0.0,434.0,960.0,0.0,0,156.0,1
1270,1270,0.6702714528212831,0.7,1.0,1.0,255.0,535.0,1.0,1,150.0,1
1271,1271,-0.7980300527402822,-0.8,0.0,1.0,274.0,655.0,1.0,0,291.0,1
1272,1272,0.4371746904088719,0.4,1.0,1.0,305.0,680.0,1.0,1,395.0,1
1273,1273,0.48927754880816343,0.5,1.0,1.0,425.0,722.0,1.0,1,253.0,1
1274,1274,0.02352248787651179,0.0,1.0,1.0,432.0,626.0,1.0,1,1942.0,1
1275,1275,0.09347631476570561,0.1,1.0,1.0,398.0,644.0,1.0,1,348.0,1
1276,1276,0.19008986012713314,0.2,1.0,1.0,324.0,523.0,1.0,1,533.0,1
1277,1277,0.0709777576156817,0.1,0.0,0.0,466.0,712.0,0.0,1,1822.0,1
1278,1278,-0.05600130131386327,-0.1,0.0,1.0,284.0,970.0,0.0,1,1746.0,0
1279,1279,0.3560884418944982,0.4,0.0,0.0,493.0,657.0,0.0,1,660.0,1
1280,1280,-0.6426326233420294,-0.6,1.0,0.0,474.0,796.0,1.0,1,-120.0,0
1281,1281,-0.39272190627289083,-0.4,1.0,0.0,275.0,881.0,0.0,0,1114.0,1
1282,1282,0.8998786182723787,0.9,0.0,0.0,289.0,848.0,0.0,1,283.0,1
1283,1283,0.8136375889651905,0.8,1.0,1.0,418.0,747.0,1.0,1,135.0,1
1284,1284,0.009319301546228731,0.0,1.0,1.0,392.0,706.0,1.0,1,912.0,1
1285,1285,-0.7787599253090102,-0.8,1.0,0.0,361.0,678.0,0.0,0,641.0,1
1286,1286,0.8657066353671768,0.9,0.0,0.0,376.0,613.0,0.0,1,121.0,1
1287,1287,-0.3557882742925782,-0.4,0.0,1.0,451.0,889.0,1.0,0,600.0,1
1288,1288,0.36253492761536255,0.4,1.0,1.0,304.0,639.0,1.0,1,77.0,1
1289,1289,0.0925782413637396,0.1,1.0,1.0,289.0,758.0,1.0,1,1173.0,1
1290,1290,0.6346745666595343,0.6,1.0,1.0,384.0,961.0,1.0,1,225.0,1
1291,1291,-0.1507664476063817,-0.2,0.0,1.0,387.0,907.0,1.0,0,1706.0,1
1292,1292,-0.11493688197306595,-0.1,0.0,1.0,371.0,595.0,1.0,0,404.0,1
1293,1293,-0.6007172995709298,-0.6,1.0,0.0,368.0,942.0,1.0,1,-30.0,0
1294,1294,0.5689047462886484,0.6,0.0,0.0,450.0,689.0,0.0,1,321.0,1
1295,1295,-0.6374748259333338,-0.6,0.0,1.0,285.0,530.0,1.0,0,485.0,1
1296,1296,-0.03876333057032788,-0.0,0.0,1.0,385.0,970.0,1.0,0,175.0,1
1297,1297,-0.29778745706073684,-0.3,0.0,1.0,253.0,783.0,1.0,0,1764.0,1
1298,1298,-0.32394803809764516,-0.3,0.0,1.0,300.0,876.0,1.0,0,874.0,1
1299,1299,0.8385748138647865,0.8,0.0,0.0,384.0,888.0,0.0,1,48.0,1
1300,1300,0.2626422315716409,0.3,0.0,0.0,354.0,809.0,0.0,1,167.0,1
1301,1301,-0.25660006341190666,-0.3,1.0,0.0,487.0,582.0,0.0,0,1741.0,1
1302,1302,0.4586737848845587,0.5,0.0,0.0,445.0,519.0,0.0,1,386.0,1
1303,1303,-0.21004855925394594,-0.2,0.0,1.0,415.0,777.0,1.0,0,808.0,1
1304,1304,0.6702398782041791,0.7,0.0,0.0,423.0,877.0,0.0,1,180.0,1
1305,1305,-0.7372213192620578,-0.7,1.0,0.0,329.0,540.0,0.0,0,401.0,1
1306,1306,0.27511597874644445,0.3,0.0,0.0,284.0,976.0,0.0,1,490.0,1
1307,1307,-0.5695481230286668,-0.6,0.0,1.0,458.0,769.0,1.0,0,553.0,1
1308,1308,0.44929290825972645,0.4,0.0,0.0,361.0,829.0,0.0,1,350.0,1
1309,1309,0.5400250611965126,0.5,0.0,0.0,396.0,618.0,0.0,1,466.0,1
1310,1310,-0.01679986700436764,-0.0,0.0,1.0,320.0,558.0,1.0,0,2122.0,1
1311,1311,0.6280991365897298,0.6,0.0,0.0,461.0,884.0,0.0,1,455.0,1
1312,1312,0.23954531908354937,0.2,1.0,1.0,412.0,635.0,1.0,1,423.0,1
1313,1313,0.44414182890578136,0.4,0.0,0.0,411.0,978.0,0.0,1,751.0,1
1314,1314,-0.6803183678008191,-0.7,1.0,0.0,358.0,697.0,0.0,0,545.0,1
1315,1315,0.3233418939543825,0.3,0.0,0.0,301.0,667.0,0.0,1,622.0,1
1316,1316,-0.8715602923791902,-0.9,1.0,0.0,315.0,845.0,0.0,0,210.0,1
1317,1317,-0.18255977415202318,-0.2,0.0,1.0,415.0,963.0,1.0,0,1332.0,1
1318,1318,0.6671574643665502,0.7,0.0,0.0,405.0,730.0,0.0,1,415.0,1
1319,1319,0.28762456443653284,0.3,1.0,1.0,353.0,945.0,1.0,1,392.0,1
1320,1320,0.4409061982696044,0.4,1.0,1.0,310.0,665.0,1.0,1,255.0,1
1321,1321,0.8401197004065147,0.8,0.0,0.0,482.0,951.0,0.0,1,187.0,1
1322,1322,0.30030146423149195,0.3,0.0,0.0,349.0,932.0,0.0,1,1719.0,1
1323,1323,-0.45530423312932106,-0.5,1.0,0.0,262.0,640.0,0.0,0,288.0,1
1324,1324,0.13497327603424514,0.1,1.0,1.0,386.0,945.0,1.0,1,1289.0,1
1325,1325,-0.7355173544154925,-0.7,0.0,1.0,391.0,625.0,1.0,0,244.0,1
1326,1326,-0.8819755659590149,-0.9,0.0,1.0,364.0,675.0,1.0,0,231.0,1
1327,1327,-0.4474567962391901,-0.4,1.0,0.0,288.0,656.0,0.0,0,466.0,1
1328,1328,0.3325084575672176,0.3,0.0,0.0,446.0,963.0,0.0,1,251.0,1
1329,1329,-0.4993713775951107,-0.5,0.0,1.0,270.0,654.0,1.0,0,226.0,1
1330,1330,-0.35864418388235597,-0.4,0.0,1.0,469.0,546.0,1.0,0,1045.0,1
1331,1331,0.8579403312259958,0.9,0.0,0.0,318.0,623.0,0.0,1,169.0,1
1332,1332,-0.31616647195151937,-0.3,1.0,0.0,435.0,855.0,0.0,0,1710.0,1
1333,1333,-0.8964768242240901,-0.9,1.0,0.0,400.0,547.0,0.0,0,353.0,1
1334,1334,-0.8377956780108751,-0.8,1.0,0.0,369.0,968.0,0.0,0,173.0,1
1335,1335,0.05331239520974407,0.1,0.0,0.0,418.0,870.0,0.0,1,1712.0,1
1336,1336,0.5494751724523218,0.5,0.0,0.0,395.0,761.0,0.0,1,454.0,1
1337,1337,0.4181218154978589,0.4,0.0,0.0,337.0,790.0,0.0,1,1053.0,1
1338,1338,-0.8772187050084305,-0.9,0.0,1.0,478.0,534.0,1.0,0,138.0,1
1339,1339,0.5907914108781395,0.6,1.0,1.0,476.0,514.0,1.0,1,120.0,1
1340,1340,0.06400348060227778,0.1,0.0,0.0,279.0,922.0,1.0,0,1799.0,0
1341,1341,0.7142488273728257,0.7,0.0,0.0,411.0,534.0,0.0,1,235.0,1
1342,1342,0.17618451249256173,0.2,1.0,1.0,468.0,998.0,1.0,1,884.0,1
1343,1343,0.5548659278384022,0.6,0.0,0.0,360.0,891.0,1.0,0,-151.0,0
1344,1344,0.31696746657294106,0.3,0.0,0.0,391.0,742.0,0.0,1,427.0,1
1345,1345,-0.09042197757128778,-0.1,1.0,0.0,269.0,985.0,0.0,0,1746.0,1
1346,1346,-0.4863061439666802,-0.5,1.0,0.0,485.0,657.0,0.0,0,1108.0,1
1347,1347,-0.09975940002175299,-0.1,1.0,0.0,436.0,874.0,0.0,0,1690.0,1
1348,1348,-0.49848196627105285,-0.5,0.0,1.0,298.0,572.0,1.0,0,360.0,1
1349,1349,-0.7118127830404968,-0.7,1.0,0.0,498.0,911.0,0.0,0,291.0,1
1350,1350,0.78556849547761,0.8,1.0,1.0,431.0,925.0,1.0,1,194.0,1
1351,1351,0.048505427394095135,0.0,0.0,0.0,330.0,956.0,0.0,1,1714.0,1
1352,1352,0.2393098464423199,0.2,1.0,1.0,366.0,882.0,1.0,1,272.0,1
1353,1353,-0.03473411634959711,-0.0,0.0,1.0,386.0,842.0,1.0,0,1772.0,1
1354,1354,0.42035232867274186,0.4,0.0,0.0,267.0,721.0,0.0,1,632.0,1
1355,1355,-0.4935108225924858,-0.5,0.0,1.0,443.0,994.0,1.0,0,393.0,1
1356,1356,-0.1698652283865969,-0.2,1.0,0.0,430.0,639.0,0.0,0,1741.0,1
1357,1357,-0.18332405675161778,-0.2,0.0,1.0,420.0,658.0,1.0,0,182.0,1
1358,1358,-0.021585957605864126,-0.0,0.0,1.0,356.0,836.0,1.0,0,1808.0,1
1359,1359,-0.795733070229012,-0.8,0.0,1.0,358.0,976.0,1.0,0,176.0,1
1360,1360,-0.8296028600536646,-0.8,0.0,1.0,442.0,627.0,1.0,0,521.0,1
1361,1361,-0.7229530213507828,-0.7,0.0,1.0,498.0,715.0,1.0,0,167.0,1
1362,1362,-0.644106378338074,-0.6,1.0,0.0,485.0,855.0,0.0,0,410.0,1
1363,1363,0.8281571272497842,0.8,1.0,1.0,497.0,591.0,1.0,1,392.0,1
1364,1364,-0.7365119646071661,-0.7,1.0,0.0,436.0,762.0,0.0,0,272.0,1
1365,1365,-0.52321613944651,-0.5,0.0,1.0,469.0,678.0,1.0,0,423.0,1
1366,1366,-0.43030803788757016,-0.4,0.0,1.0,424.0,742.0,1.0,0,404.0,1
1367,1367,-0.2951705873363868,-0.3,1.0,0.0,450.0,652.0,0.0,0,1348.0,1
1368,1368,0.11284054989370451,0.1,0.0,0.0,400.0,527.0,0.0,1,2073.0,1
1369,1369,-0.07205366120058665,-0.1,0.0,1.0,454.0,556.0,1.0,0,1990.0,1
1370,1370,0.8074960288264122,0.8,1.0,1.0,342.0,815.0,1.0,1,313.0,1
1371,1371,0.5477528511659077,0.5,1.0,1.0,306.0,823.0,1.0,1,791.0,1
1372,1372,-0.3012115488364395,-0.3,1.0,0.0,364.0,843.0,0.0,0,813.0,1
1373,1373,0.8739640350665793,0.9,1.0,1.0,386.0,906.0,1.0,1,-222.0,1
1374,1374,0.4844293592076153,0.5,0.0,0.0,443.0,661.0,0.0,1,696.0,1
1375,1375,0.797264586694009,0.8,0.0,0.0,418.0,963.0,0.0,1,409.0,1
1376,1376,-0.2327522686441036,-0.2,0.0,1.0,268.0,695.0,1.0,0,607.0,1
1377,1377,0.32861329286803154,0.3,1.0,1.0,347.0,586.0,1.0,1,617.0,1
1378,1378,-0.5849813776150696,-0.6,1.0,0.0,329.0,578.0,0.0,0,293.0,1
1379,1379,-0.5712563215852873,-0.6,0.0,1.0,279.0,549.0,1.0,0,472.0,1
1380,1380,-0.1801570891920603,-0.2,1.0,0.0,496.0,904.0,0.0,0,1600.0,1
1381,1381,0.732062961167674,0.7,1.0,1.0,381.0,533.0,1.0,1,166.0,1
1382,1382,-0.4125830086261469,-0.4,1.0,0.0,324.0,583.0,0.0,0,2093.0,1
1383,1383,-0.0030920341485360936,-0.0,0.0,1.0,432.0,506.0,1.0,0,2062.0,1
1384,1384,0.8419565600987059,0.8,1.0,1.0,299.0,749.0,1.0,1,172.0,1
1385,1385,-0.25211337954844426,-0.3,0.0,1.0,380.0,969.0,1.0,0,241.0,1
1386,1386,0.1063729140152957,0.1,1.0,1.0,412.0,733.0,1.0,1,795.0,1
1387,1387,0.7128104885261383,0.7,1.0,1.0,343.0,973.0,1.0,1,204.0,1
1388,1388,-0.6426518124752064,-0.6,1.0,0.0,437.0,533.0,0.0,0,1280.0,1
1389,1389,-0.6964327615003707,-0.7,1.0,0.0,301.0,851.0,0.0,0,878.0,1
1390,1390,0.37066847990726604,0.4,1.0,1.0,399.0,913.0,1.0,1,108.0,1
1391,1391,-0.7222838738178873,-0.7,0.0,1.0,281.0,897.0,1.0,0,212.0,1
1392,1392,0.039349368382322614,0.0,0.0,0.0,468.0,873.0,0.0,1,1659.0,1
1393,1393,0.2508075177620249,0.3,1.0,1.0,454.0,730.0,1.0,1,6.0,1
1394,1394,-0.651531362983725,-0.7,0.0,1.0,297.0,779.0,1.0,0,514.0,1
1395,1395,-0.6707170879901877,-0.7,0.0,1.0,380.0,931.0,1.0,0,219.0,1
1396,1396,0.3390284980374375,0.3,1.0,1.0,328.0,566.0,1.0,1,526.0,1
1397,1397,0.20922885592463547,0.2,0.0,0.0,442.0,549.0,0.0,1,1289.0,1
1398,1398,-0.10589505009487876,-0.1,0.0,1.0,496.0,654.0,1.0,0,1850.0,1
1399,1399,0.7145937445542218,0.7,1.0,1.0,465.0,570.0,1.0,1,215.0,1
1400,1400,-0.016149618863197213,-0.0,1.0,0.0,366.0,758.0,1.0,1,1876.0,0
1401,1401,-0.5321424443707252,-0.5,1.0,0.0,351.0,516.0,0.0,0,413.0,1
1402,1402,-0.0369248441689608,-0.0,1.0,0.0,424.0,699.0,1.0,1,357.0,0
1403,1403,0.1490682506115556,0.1,1.0,1.0,269.0,919.0,1.0,1,1202.0,1
1404,1404,-0.6862675971015948,-0.7,1.0,0.0,288.0,873.0,0.0,0,129.0,1
1405,1405,0.09481429660993623,0.1,0.0,0.0,496.0,992.0,0.0,1,1512.0,1
1406,1406,0.6508945521770774,0.7,0.0,0.0,302.0,578.0,0.0,1,420.0,1
1407,1407,-0.8992410698092235,-0.9,1.0,0.0,443.0,660.0,0.0,0,447.0,1
1408,1408,0.802136508051699,0.8,0.0,0.0,390.0,532.0,0.0,1,218.0,1
1409,1409,-0.6592020095456597,-0.7,0.0,1.0,299.0,752.0,1.0,0,389.0,1
1410,1410,-0.6904867531405473,-0.7,1.0,0.0,438.0,685.0,0.0,0,227.0,1
1411,1411,0.44888646188457326,0.4,1.0,1.0,480.0,628.0,1.0,1,582.0,1
1412,1412,0.05722168579415299,0.1,0.0,0.0,388.0,614.0,1.0,0,1998.0,0
1413,1413,-0.3201470886948147,-0.3,0.0,1.0,305.0,745.0,1.0,0,100.0,1
1414,1414,0.538098484800991,0.5,1.0,1.0,461.0,570.0,1.0,1,179.0,1
1415,1415,0.1564634238100998,0.2,0.0,0.0,397.0,976.0,0.0,1,1107.0,1
1416,1416,-0.09047976507145261,-0.1,1.0,0.0,447.0,517.0,1.0,1,1876.0,0
1417,1417,0.2189547071278054,0.2,0.0,0.0,405.0,866.0,0.0,1,309.0,1
1418,1418,0.2806662923605906,0.3,1.0,1.0,481.0,807.0,1.0,1,532.0,1
1419,1419,-0.24139885519163806,-0.2,0.0,1.0,360.0,601.0,1.0,0,579.0,1
1420,1420,-0.7027603929242885,-0.7,1.0,0.0,384.0,693.0,0.0,0,293.0,1
1421,1421,0.21175215659392588,0.2,0.0,0.0,434.0,651.0,0.0,1,1915.0,1
1422,1422,-0.0698632345103406,-0.1,1.0,0.0,474.0,536.0,1.0,1,1170.0,0
1423,1423,-0.7065187735663246,-0.7,1.0,0.0,319.0,924.0,0.0,0,387.0,1
1424,1424,0.5489622003775211,0.5,0.0,0.0,333.0,660.0,0.0,1,157.0,1
1425,1425,-0.8583293423335467,-0.9,0.0,1.0,397.0,872.0,1.0,0,111.0,1
1426,1426,0.683756957277679,0.7,1.0,1.0,353.0,956.0,1.0,1,331.0,1
1427,1427,0.5919368207850334,0.6,1.0,1.0,310.0,795.0,1.0,1,245.0,1
1428,1428,0.8916927138696834,0.9,0.0,0.0,459.0,677.0,0.0,1,284.0,1
1429,1429,-0.579022704461826,-0.6,1.0,0.0,421.0,663.0,0.0,0,416.0,1
1430,1430,-0.6697229319289524,-0.7,0.0,1.0,367.0,693.0,1.0,0,350.0,1
1431,1431,-0.07717327999171864,-0.1,1.0,0.0,346.0,915.0,1.0,1,1739.0,0
1432,1432,0.4746582018433886,0.5,1.0,1.0,400.0,542.0,1.0,1,388.0,1
1433,1433,-0.7549125512017978,-0.8,1.0,0.0,300.0,768.0,0.0,0,392.0,1
1434,1434,0.26096173775922427,0.3,1.0,1.0,421.0,739.0,1.0,1,190.0,1
1435,1435,0.47745926458891164,0.5,0.0,0.0,267.0,634.0,0.0,1,509.0,1
1436,1436,0.38054441643560166,0.4,0.0,0.0,341.0,853.0,0.0,1,946.0,1
1437,1437,0.7854756176056189,0.8,1.0,1.0,458.0,931.0,1.0,1,101.0,1
1438,1438,0.7076859135154313,0.7,1.0,1.0,294.0,601.0,1.0,1,435.0,1
1439,1439,0.5413652591914314,0.5,1.0,1.0,446.0,840.0,1.0,1,-76.0,1
1440,1440,-0.3900170477048108,-0.4,1.0,0.0,338.0,575.0,0.0,0,437.0,1
1441,1441,0.5367023146292355,0.5,0.0,0.0,389.0,540.0,0.0,1,1301.0,1
1442,1442,-0.4010825872892873,-0.4,1.0,0.0,438.0,725.0,0.0,0,757.0,1
1443,1443,-0.6301469372297117,-0.6,1.0,0.0,395.0,678.0,0.0,0,267.0,1
1444,1444,0.06056982140948253,0.1,0.0,0.0,251.0,935.0,0.0,1,1814.0,1
1445,1445,-0.1496211181627246,-0.1,1.0,0.0,309.0,577.0,1.0,1,2114.0,0
1446,1446,-0.7695992228121722,-0.8,0.0,1.0,388.0,864.0,1.0,0,178.0,1
1447,1447,-0.6672104512737002,-0.7,1.0,0.0,379.0,823.0,0.0,0,198.0,1
1448,1448,0.37391606759875773,0.4,1.0,1.0,307.0,919.0,1.0,1,654.0,1
1449,1449,0.352625356356273,0.4,1.0,1.0,329.0,775.0,1.0,1,176.0,1
1450,1450,0.8035155086654103,0.8,0.0,0.0,421.0,842.0,0.0,1,247.0,1
1451,1451,-0.5009993571399508,-0.5,1.0,0.0,307.0,775.0,0.0,0,258.0,1
1452,1452,-0.8900050007610721,-0.9,0.0,1.0,257.0,894.0,1.0,0,649.0,1
1453,1453,0.1955011569198858,0.2,1.0,1.0,497.0,550.0,1.0,1,-57.0,1
1454,1454,-0.8444144937097801,-0.8,1.0,0.0,448.0,679.0,0.0,0,103.0,1
1455,1455,0.6263134070270292,0.6,0.0,0.0,423.0,862.0,0.0,1,295.0,1
1456,1456,0.05411983566127199,0.1,0.0,0.0,328.0,635.0,0.0,1,2037.0,1
1457,1457,0.41423637626319276,0.4,1.0,1.0,407.0,545.0,1.0,1,608.0,1
1458,1458,-0.0772655151703242,-0.1,0.0,1.0,484.0,567.0,1.0,0,1949.0,1
1459,1459,0.2575392907073891,0.3,1.0,1.0,422.0,521.0,1.0,1,267.0,1
1460,1460,-0.27168573912632943,-0.3,0.0,1.0,325.0,625.0,1.0,0,240.0,1
1461,1461,-0.17309068565161634,-0.2,1.0,0.0,407.0,845.0,0.0,0,1748.0,1
1462,1462,-0.7975884617047794,-0.8,1.0,0.0,411.0,647.0,0.0,0,362.0,1
1463,1463,0.742483464116903,0.7,1.0,1.0,356.0,524.0,1.0,1,280.0,1
1464,1464,0.6971552555079096,0.7,0.0,0.0,370.0,713.0,0.0,1,387.0,1
1465,1465,0.2983257114566328,0.3,1.0,1.0,495.0,546.0,1.0,1,779.0,1
1466,1466,0.7632405609518153,0.8,0.0,0.0,425.0,977.0,0.0,1,168.0,1
1467,1467,0.7523839093010264,0.8,0.0,0.0,372.0,790.0,0.0,1,288.0,1
1468,1468,-0.8131112523567706,-0.8,0.0,1.0,455.0,806.0,1.0,0,269.0,1
1469,1469,-0.1277736143903927,-0.1,1.0,0.0,426.0,687.0,0.0,0,1887.0,1
1470,1470,0.36229536925621886,0.4,1.0,1.0,361.0,588.0,1.0,1,-339.0,1
1471,1471,-0.03845403358164534,-0.0,0.0,1.0,473.0,831.0,1.0,0,726.0,1
1472,1472,-0.8102720858991097,-0.8,1.0,0.0,443.0,500.0,0.0,0,397.0,1
1473,1473,0.5055851823141538,0.5,1.0,1.0,431.0,989.0,1.0,1,190.0,1
1474,1474,0.4783597249780992,0.5,1.0,1.0,456.0,795.0,1.0,1,309.0,1
1475,1475,-0.6313736378263224,-0.6,0.0,1.0,345.0,899.0,1.0,0,226.0,1
1476,1476,-0.8684873443914416,-0.9,0.0,1.0,361.0,773.0,1.0,0,66.0,1
1477,1477,-0.4986996291726243,-0.5,0.0,1.0,258.0,804.0,1.0,0,318.0,1
1478,1478,-0.748625302340766,-0.7,1.0,0.0,414.0,602.0,0.0,0,554.0,1
1479,1479,-0.7752888697130519,-0.8,1.0,0.0,362.0,935.0,0.0,0,453.0,1
1480,1480,-0.3809101379575416,-0.4,0.0,1.0,408.0,592.0,1.0,0,670.0,1
1481,1481,-0.39568272836003837,-0.4,1.0,0.0,386.0,693.0,0.0,0,911.0,1
1482,1482,0.6585353005865925,0.7,0.0,0.0,424.0,805.0,0.0,1,181.0,1
1483,1483,-0.5629664605354883,-0.6,0.0,1.0,405.0,541.0,1.0,0,414.0,1
1484,1484,0.19579434738970825,0.2,0.0,0.0,468.0,724.0,0.0,1,1078.0,1
1485,1485,0.8522032171280377,0.9,1.0,1.0,259.0,690.0,1.0,1,51.0,1
1486,1486,0.1765377780335643,0.2,1.0,1.0,271.0,943.0,1.0,1,466.0,1
1487,1487,0.24821639475948365,0.2,1.0,1.0,401.0,986.0,1.0,1,243.0,1
1488,1488,-0.16551494781008425,-0.2,1.0,0.0,438.0,733.0,0.0,0,1829.0,1
