,trial,coherence,coherence_bin,green_side,correct_side,target_onset,checker_onset,decision,green_decision,decision_time,correct_decision
0,0,0.4686213382294403,0.5,1.0,1.0,314.0,844.0,0.0,0,3842.0,0
1,1,-0.8345489951754675,-0.8,0.0,1.0,370.0,735.0,0.0,1,3895.0,0
2,2,-0.5976915612167824,-0.6,0.0,1.0,379.0,828.0,0.0,1,3793.0,0
3,3,-0.012498423130069325,-0.0,0.0,1.0,294.0,864.0,0.0,1,3842.0,0
4,4,-0.20591362501976684,-0.2,1.0,0.0,270.0,648.0,0.0,0,4082.0,1
5,5,0.8523945231130513,0.9,1.0,1.0,344.0,683.0,0.0,0,3973.0,0
6,6,0.6586954558431822,0.7,0.0,0.0,332.0,782.0,0.0,1,3886.0,1
7,7,0.14600475458887419,0.1,1.0,1.0,468.0,624.0,0.0,0,3908.0,0
8,8,0.16854996481417228,0.2,1.0,1.0,349.0,652.0,0.0,0,3999.0,0
9,9,0.3683534888968488,0.4,0.0,0.0,257.0,628.0,0.0,1,4115.0,1
10,10,-0.7249036978833059,-0.7,1.0,0.0,330.0,869.0,0.0,0,3801.0,1
11,11,-0.38595227527119336,-0.4,1.0,0.0,381.0,636.0,0.0,0,3983.0,1
12,12,0.6706144356726621,0.7,0.0,0.0,372.0,632.0,0.0,1,3996.0,1
13,13,-0.5642480640747021,-0.6,1.0,0.0,344.0,831.0,0.0,0,3825.0,1
14,14,0.793133790692565,0.8,0.0,0.0,366.0,711.0,0.0,1,3923.0,1
15,15,-0.3116129674361884,-0.3,1.0,0.0,468.0,743.0,0.0,0,3789.0,1
16,16,0.39851113111144654,0.4,1.0,1.0,311.0,550.0,0.0,0,4139.0,0
17,17,0.42351661397755225,0.4,1.0,1.0,464.0,954.0,0.0,0,-1338.0,0
18,18,0.1734971892301772,0.2,1.0,1.0,350.0,662.0,0.0,0,3988.0,0
19,19,-0.788811266167637,-0.8,1.0,0.0,345.0,800.0,0.0,0,3855.0,1
20,20,0.8963682155705149,0.9,1.0,1.0,492.0,684.0,0.0,0,3824.0,0
21,21,0.83848356201452,0.8,0.0,0.0,461.0,577.0,0.0,1,3962.0,1
22,22,0.866415986070494,0.9,0.0,0.0,438.0,644.0,0.0,1,-1012.0,1
23,23,0.054522103659526255,0.1,1.0,1.0,489.0,604.0,0.0,0,3907.0,0
24,24,0.35141970743703144,0.4,0.0,0.0,324.0,719.0,0.0,1,3957.0,1
25,25,-0.07532418506241989,-0.1,1.0,0.0,486.0,977.0,0.0,0,-1383.0,1
26,26,-0.17990116641343734,-0.2,0.0,1.0,288.0,817.0,0.0,1,3895.0,0
27,27,0.3414599940990023,0.3,1.0,1.0,395.0,645.0,0.0,0,3960.0,0
28,28,0.3360082793550089,0.3,0.0,0.0,268.0,726.0,0.0,1,4006.0,1
29,29,-0.6922481510192412,-0.7,1.0,0.0,465.0,750.0,0.0,0,3785.0,1
30,30,0.04737391499286847,0.0,1.0,1.0,447.0,550.0,0.0,0,4003.0,0
31,31,-0.804698183251202,-0.8,1.0,0.0,337.0,852.0,0.0,0,3811.0,1
32,32,0.7087428066946934,0.7,0.0,0.0,499.0,960.0,0.0,1,3541.0,1
33,33,-0.13528755940115544,-0.1,1.0,0.0,269.0,846.0,0.0,0,3885.0,1
34,34,-0.13271480774321442,-0.1,0.0,1.0,259.0,757.0,1.0,0,-1006.0,1
35,35,0.018155740791265917,0.0,0.0,0.0,485.0,752.0,0.0,1,3763.0,1
36,36,-0.009643765808222238,-0.0,1.0,0.0,342.0,939.0,0.0,0,3719.0,1
37,37,0.608814998803905,0.6,0.0,0.0,430.0,582.0,0.0,1,3988.0,1
38,38,0.24249726683890016,0.2,1.0,1.0,357.0,943.0,0.0,0,3700.0,0
39,39,0.35339466635859285,0.4,0.0,0.0,349.0,928.0,0.0,1,3723.0,1
40,40,0.8452250115680954,0.8,0.0,0.0,350.0,860.0,0.0,1,3790.0,1
41,41,-0.31145308694398144,-0.3,1.0,0.0,291.0,896.0,0.0,0,3813.0,1
42,42,-0.743056733272899,-0.7,0.0,1.0,403.0,900.0,0.0,1,3697.0,0
43,43,-0.7077536436496139,-0.7,0.0,1.0,311.0,616.0,0.0,1,4073.0,0
44,44,0.6631940402914377,0.7,0.0,0.0,313.0,594.0,0.0,1,4093.0,1
45,45,0.6415877711533341,0.6,0.0,0.0,349.0,572.0,0.0,1,4079.0,1
46,46,-0.08956297231276789,-0.1,1.0,0.0,435.0,832.0,0.0,0,3733.0,1
47,47,0.759389628769419,0.8,1.0,1.0,423.0,936.0,0.0,0,-1219.0,0
48,48,-0.36269155704142375,-0.4,1.0,0.0,304.0,734.0,0.0,0,3962.0,1
49,49,0.3918115208068479,0.4,1.0,1.0,260.0,692.0,0.0,0,4048.0,0
50,50,0.7839081580610193,0.8,1.0,1.0,498.0,975.0,0.0,0,3527.0,0
51,51,-0.818665784144646,-0.8,1.0,0.0,391.0,717.0,0.0,0,3892.0,1
52,52,-0.20303854279866584,-0.2,1.0,0.0,363.0,810.0,0.0,0,3827.0,1
53,53,-0.20320088377629886,-0.2,0.0,1.0,497.0,699.0,0.0,1,3804.0,0
54,54,-0.11654854877735032,-0.1,0.0,1.0,328.0,804.0,0.0,1,3868.0,0
55,55,0.3375761780998051,0.3,0.0,0.0,467.0,778.0,0.0,1,3755.0,1
56,56,0.5698597885274849,0.6,1.0,1.0,347.0,923.0,0.0,0,3730.0,0
57,57,0.6157214533134737,0.6,1.0,1.0,376.0,929.0,0.0,0,3695.0,0
58,58,0.11032258154444252,0.1,0.0,0.0,398.0,792.0,0.0,1,3810.0,1
59,59,-0.4055451478248679,-0.4,1.0,0.0,321.0,856.0,0.0,0,3823.0,1
60,60,0.1356425304621266,0.1,1.0,1.0,386.0,525.0,0.0,0,4089.0,0
61,61,0.7116408276218477,0.7,1.0,1.0,418.0,748.0,0.0,0,3834.0,0
62,62,0.14667035352410351,0.1,0.0,0.0,262.0,976.0,0.0,1,3762.0,1
63,63,-0.03161344553954315,-0.0,1.0,0.0,284.0,731.0,0.0,0,-835.0,1
64,64,0.3467561657472443,0.3,1.0,1.0,321.0,753.0,0.0,0,3926.0,0
65,65,0.15701176281882712,0.2,0.0,0.0,485.0,814.0,0.0,1,3701.0,1
66,66,-0.02270098264913145,-0.0,1.0,0.0,312.0,542.0,0.0,0,4146.0,1
67,67,-0.11336258400115273,-0.1,0.0,1.0,351.0,738.0,0.0,1,3911.0,0
68,68,0.7484247812646202,0.7,1.0,1.0,459.0,512.0,0.0,0,4029.0,0
69,69,-0.4181283151579458,-0.4,0.0,1.0,436.0,540.0,0.0,1,4024.0,0
70,70,0.36491081592771846,0.4,0.0,0.0,414.0,686.0,0.0,1,3900.0,1
71,71,-0.576630335495557,-0.6,0.0,1.0,455.0,978.0,0.0,1,3567.0,0
72,72,0.572071965418229,0.6,1.0,1.0,382.0,656.0,0.0,0,3962.0,0
73,73,0.5427708489242454,0.5,1.0,1.0,461.0,792.0,0.0,0,3747.0,0
74,74,-0.7441681284042092,-0.7,0.0,1.0,324.0,537.0,0.0,1,4139.0,0
75,75,-0.689867910704472,-0.7,0.0,1.0,340.0,951.0,0.0,1,3709.0,0
76,76,0.6481834057936632,0.6,0.0,0.0,332.0,613.0,0.0,1,4055.0,1
77,77,0.850892040171786,0.9,1.0,1.0,302.0,841.0,0.0,0,3857.0,0
78,78,-0.8025853672538239,-0.8,0.0,1.0,319.0,676.0,0.0,1,4005.0,0
79,79,0.21092819312349975,0.2,0.0,0.0,358.0,874.0,0.0,1,3768.0,1
80,80,0.397549882133558,0.4,0.0,0.0,376.0,825.0,0.0,1,3799.0,1
81,81,-0.552064372530686,-0.6,0.0,1.0,339.0,901.0,0.0,1,3760.0,0
82,82,-0.25664179845807356,-0.3,0.0,1.0,372.0,573.0,0.0,1,4055.0,0
83,83,0.04967108265843578,0.0,0.0,0.0,255.0,798.0,0.0,1,3947.0,1
84,84,0.5501501352120656,0.6,0.0,0.0,480.0,625.0,0.0,1,3895.0,1
85,85,0.4380951532062761,0.4,0.0,0.0,495.0,843.0,0.0,1,3662.0,1
86,86,0.08722755238190916,0.1,0.0,0.0,256.0,705.0,0.0,1,4039.0,1
87,87,0.2186822715541773,0.2,0.0,0.0,398.0,666.0,0.0,1,3936.0,1
88,88,0.07160005619160037,0.1,1.0,1.0,430.0,753.0,0.0,0,3817.0,0
89,89,0.49289759624944474,0.5,0.0,0.0,320.0,811.0,0.0,1,-861.0,1
90,90,-0.6431841789148276,-0.6,1.0,0.0,389.0,994.0,0.0,0,3617.0,1
91,91,-0.457442343770118,-0.5,0.0,1.0,255.0,798.0,0.0,1,3947.0,0
92,92,-0.5444622302601196,-0.5,0.0,1.0,293.0,650.0,0.0,1,4057.0,0
93,93,0.011308851939997533,0.0,1.0,1.0,396.0,760.0,0.0,0,3844.0,0
94,94,0.7206493888577344,0.7,0.0,0.0,319.0,981.0,0.0,1,3700.0,1
95,95,-0.6099945955643868,-0.6,1.0,0.0,304.0,847.0,0.0,0,3849.0,1
96,96,0.6633462722276428,0.7,0.0,0.0,259.0,706.0,0.0,1,4035.0,1
97,97,-0.6879529564990605,-0.7,0.0,1.0,374.0,668.0,0.0,1,3958.0,0
98,98,0.4428466528412628,0.4,0.0,0.0,403.0,664.0,0.0,1,3933.0,1
99,99,0.8113955875793771,0.8,1.0,1.0,374.0,638.0,0.0,0,3988.0,0
100,100,0.8894480057725426,0.9,0.0,0.0,452.0,889.0,0.0,1,3659.0,1
101,101,0.5525413823113462,0.6,1.0,1.0,435.0,723.0,0.0,0,3842.0,0
102,102,-0.15459118011341932,-0.2,0.0,1.0,353.0,929.0,0.0,1,3718.0,0
103,103,-0.4869892257023823,-0.5,1.0,0.0,315.0,702.0,0.0,0,3983.0,1
104,104,-0.5006847698265297,-0.5,1.0,0.0,303.0,769.0,1.0,1,-832.0,0
105,105,0.3516049645146292,0.4,0.0,0.0,317.0,964.0,0.0,1,3719.0,1
106,106,0.012976894675309936,0.0,1.0,1.0,425.0,907.0,0.0,0,3668.0,0
107,107,-0.2278282645243601,-0.2,0.0,1.0,384.0,605.0,0.0,1,4011.0,0
108,108,0.6232252215230619,0.6,1.0,1.0,448.0,830.0,0.0,0,3722.0,0
109,109,-0.6848919576603675,-0.7,1.0,0.0,419.0,855.0,0.0,0,3726.0,1
110,110,0.4294319303752966,0.4,1.0,1.0,390.0,823.0,0.0,0,3787.0,0
111,111,-0.4892650073768268,-0.5,1.0,0.0,470.0,562.0,0.0,0,3968.0,1
112,112,-0.006395211701920478,-0.0,1.0,0.0,373.0,563.0,0.0,0,4064.0,1
113,113,0.7780462321415237,0.8,1.0,1.0,358.0,649.0,0.0,0,3993.0,0
114,114,-0.5908512674141371,-0.6,0.0,1.0,438.0,769.0,0.0,1,3793.0,0
115,115,0.4644126742592697,0.5,0.0,0.0,251.0,618.0,0.0,1,4131.0,1
116,116,0.16354172237089937,0.2,1.0,1.0,373.0,853.0,0.0,0,3774.0,0
117,117,-0.6710741591978487,-0.7,0.0,1.0,445.0,705.0,0.0,1,3850.0,0
118,118,0.11498532399366457,0.1,1.0,1.0,449.0,881.0,0.0,0,3670.0,0
119,119,0.6760795456608285,0.7,1.0,1.0,411.0,802.0,0.0,0,3787.0,0
120,120,-0.3634098306422253,-0.4,0.0,1.0,329.0,595.0,0.0,1,4076.0,0
121,121,0.32119122891974394,0.3,0.0,0.0,488.0,519.0,0.0,1,3993.0,1
122,122,-0.8364376517467942,-0.8,0.0,1.0,484.0,744.0,0.0,1,3772.0,0
123,123,0.6386159957789354,0.6,1.0,1.0,305.0,526.0,0.0,0,4169.0,0
124,124,-0.019786917668595083,-0.0,0.0,1.0,409.0,909.0,0.0,1,-1168.0,0
125,125,0.8587182277469526,0.9,1.0,1.0,438.0,758.0,0.0,0,3804.0,0
126,126,0.6251639576571962,0.6,0.0,0.0,269.0,691.0,0.0,1,4040.0,1
127,127,-0.4369121787920082,-0.4,0.0,1.0,319.0,645.0,0.0,1,4036.0,0
128,128,-0.4150274039157242,-0.4,1.0,0.0,401.0,957.0,0.0,0,3642.0,1
129,129,-0.31129852225847787,-0.3,0.0,1.0,341.0,901.0,0.0,1,3758.0,0
130,130,-0.23583577788858756,-0.2,0.0,1.0,255.0,960.0,0.0,1,3785.0,0
131,131,-0.4198555733501507,-0.4,0.0,1.0,366.0,895.0,0.0,1,3739.0,0
132,132,-0.5553282842241354,-0.6,0.0,1.0,416.0,786.0,1.0,0,-1182.0,1
133,133,0.1183541397523259,0.1,0.0,0.0,499.0,869.0,0.0,1,3632.0,1
134,134,0.6481242943987767,0.6,0.0,0.0,466.0,922.0,1.0,0,-1338.0,0
135,135,0.7038363150455383,0.7,0.0,0.0,444.0,537.0,0.0,1,4019.0,1
136,136,0.37855660562912863,0.4,1.0,1.0,481.0,653.0,0.0,0,3866.0,0
137,137,0.6219168372565432,0.6,0.0,0.0,312.0,566.0,0.0,1,4122.0,1
138,138,-0.84971697246738,-0.8,0.0,1.0,380.0,530.0,0.0,1,4090.0,0
139,139,-0.6171573097335501,-0.6,1.0,0.0,417.0,791.0,0.0,0,3792.0,1
140,140,0.19720165592365857,0.2,1.0,1.0,311.0,864.0,0.0,0,3825.0,0
141,141,0.30079473106904275,0.3,1.0,1.0,329.0,968.0,0.0,0,3703.0,0
142,142,-0.8465214990144665,-0.8,0.0,1.0,412.0,597.0,0.0,1,3991.0,0
143,143,0.5735676442299714,0.6,1.0,1.0,396.0,701.0,0.0,0,3903.0,0
144,144,-0.8443183378109118,-0.8,1.0,0.0,380.0,677.0,0.0,0,3943.0,1
145,145,0.09486683975649113,0.1,0.0,0.0,332.0,687.0,0.0,1,3981.0,1
146,146,-0.37538721324681723,-0.4,1.0,0.0,283.0,826.0,0.0,0,3891.0,1
147,147,0.24146363140965954,0.2,0.0,0.0,304.0,520.0,0.0,1,4176.0,1
148,148,-0.6749820507106614,-0.7,1.0,0.0,490.0,595.0,0.0,0,3915.0,1
149,149,-0.5368576371888405,-0.5,1.0,0.0,453.0,927.0,0.0,0,3620.0,1
150,150,-0.37231831418033945,-0.4,0.0,1.0,348.0,836.0,0.0,1,3816.0,0
151,151,0.8749256196675844,0.9,0.0,0.0,278.0,735.0,0.0,1,3987.0,1
152,152,0.5947971355370424,0.6,0.0,0.0,396.0,942.0,0.0,1,3662.0,1
153,153,0.4835192356150365,0.5,1.0,1.0,473.0,772.0,0.0,0,3755.0,0
154,154,-0.5458153731262667,-0.5,1.0,0.0,407.0,922.0,0.0,0,3671.0,1
155,155,-0.7285734485816963,-0.7,0.0,1.0,434.0,759.0,0.0,1,3807.0,0
156,156,0.13503667443334788,0.1,0.0,0.0,263.0,957.0,1.0,0,-1100.0,0
157,157,-0.20019153711771087,-0.2,0.0,1.0,464.0,613.0,0.0,1,3923.0,0
158,158,0.33071985703136175,0.3,1.0,1.0,373.0,763.0,0.0,0,3864.0,0
159,159,-0.5483609690430329,-0.5,0.0,1.0,438.0,652.0,0.0,1,3910.0,0
160,160,0.7429804753110679,0.7,1.0,1.0,490.0,588.0,0.0,0,-1008.0,0
161,161,0.8710802367076963,0.9,1.0,1.0,343.0,562.0,0.0,0,4095.0,0
162,162,-0.22889610509557778,-0.2,1.0,0.0,427.0,795.0,0.0,0,3778.0,1
163,163,0.02186786460686685,0.0,0.0,0.0,276.0,736.0,0.0,1,3988.0,1
164,164,-0.5361891365040943,-0.5,1.0,0.0,394.0,583.0,0.0,0,4023.0,1
165,165,0.7712240265427138,0.8,1.0,1.0,365.0,547.0,0.0,0,-912.0,0
166,166,-0.0760589590575782,-0.1,1.0,0.0,259.0,711.0,0.0,0,4030.0,1
167,167,-0.1492277165411804,-0.1,1.0,0.0,422.0,514.0,0.0,0,4064.0,1
168,168,0.4982392650476467,0.5,1.0,1.0,285.0,665.0,0.0,0,4050.0,0
169,169,-0.5798518974107889,-0.6,1.0,0.0,384.0,806.0,0.0,0,3810.0,1
170,170,0.5685524498776572,0.6,1.0,1.0,420.0,729.0,0.0,0,-1109.0,0
171,171,0.7502019205505511,0.8,0.0,0.0,343.0,627.0,0.0,1,4030.0,1
172,172,-0.17328376026387593,-0.2,0.0,1.0,364.0,601.0,0.0,1,4035.0,0
173,173,-0.876416963528141,-0.9,1.0,0.0,366.0,833.0,1.0,1,-1109.0,0
174,174,-0.023647146665756957,-0.0,1.0,0.0,331.0,751.0,0.0,0,-992.0,1
175,175,-0.7650889615880982,-0.8,1.0,0.0,378.0,541.0,0.0,0,4081.0,1
176,176,0.6722575922443667,0.7,0.0,0.0,316.0,771.0,0.0,1,3913.0,1
177,177,0.47344837408885565,0.5,1.0,1.0,435.0,772.0,1.0,1,-1097.0,1
178,178,-0.2281453789830763,-0.2,1.0,0.0,318.0,723.0,0.0,0,3959.0,1
179,179,-0.15828826719227074,-0.2,1.0,0.0,422.0,611.0,0.0,0,3967.0,1
180,180,0.08265261055617257,0.1,1.0,1.0,307.0,739.0,0.0,0,3954.0,0
181,181,-0.6342116642568454,-0.6,1.0,0.0,362.0,952.0,0.0,0,3686.0,1
182,182,-0.394813567346432,-0.4,0.0,1.0,490.0,820.0,0.0,1,-1180.0,0
183,183,0.2550827470562843,0.3,1.0,1.0,482.0,505.0,0.0,0,-987.0,0
184,184,-0.3230564671506423,-0.3,1.0,0.0,384.0,658.0,0.0,0,3958.0,1
185,185,-0.7000561273060796,-0.7,0.0,1.0,414.0,659.0,1.0,0,-1023.0,1
186,186,-0.6056330193560282,-0.6,1.0,0.0,404.0,922.0,0.0,0,3674.0,1
187,187,-0.7747296383662198,-0.8,1.0,0.0,353.0,715.0,0.0,0,3932.0,1
188,188,-0.11322144774315668,-0.1,0.0,1.0,474.0,718.0,0.0,1,3808.0,0
189,189,0.21689333743982997,0.2,1.0,1.0,455.0,960.0,0.0,0,3585.0,0
190,190,0.20624267021052833,0.2,1.0,1.0,263.0,853.0,0.0,0,3884.0,0
191,191,-0.06811684436315224,-0.1,1.0,0.0,497.0,603.0,1.0,1,-1020.0,0
192,192,0.5673887889677737,0.6,0.0,0.0,394.0,938.0,0.0,1,-1232.0,1
193,193,-0.7579687452775552,-0.8,0.0,1.0,385.0,961.0,0.0,1,3654.0,0
194,194,0.5377214448720254,0.5,0.0,0.0,458.0,954.0,0.0,1,-1202.0,1
195,195,0.27593638235285545,0.3,1.0,1.0,259.0,695.0,0.0,0,4046.0,0
196,196,-0.7895067936790037,-0.8,0.0,1.0,259.0,627.0,0.0,1,4114.0,0
197,197,0.6478511765704379,0.6,0.0,0.0,271.0,972.0,0.0,1,3757.0,1
198,198,-0.16399206978587233,-0.2,1.0,0.0,389.0,848.0,1.0,1,-1197.0,0
199,199,0.17208342638633567,0.2,1.0,1.0,269.0,667.0,0.0,0,4064.0,0
200,200,-0.622102602853432,-0.6,0.0,1.0,255.0,898.0,0.0,1,3847.0,0
201,201,0.4059941917390718,0.4,0.0,0.0,445.0,564.0,0.0,1,3991.0,1
202,202,-0.692386195082269,-0.7,0.0,1.0,425.0,941.0,0.0,1,3634.0,0
203,203,0.5041533766849947,0.5,1.0,1.0,414.0,576.0,0.0,0,4010.0,0
204,204,-0.4089307695409215,-0.4,0.0,1.0,465.0,975.0,0.0,1,3560.0,0
205,205,0.3498454267846435,0.3,1.0,1.0,499.0,909.0,0.0,0,3592.0,0
206,206,0.17490139940650995,0.2,1.0,1.0,300.0,653.0,0.0,0,4047.0,0
207,207,0.3811703704004551,0.4,0.0,0.0,294.0,718.0,0.0,1,3988.0,1
208,208,0.7224162364795083,0.7,1.0,1.0,419.0,728.0,0.0,0,-997.0,0
209,209,-0.26039456310534104,-0.3,1.0,0.0,389.0,989.0,0.0,0,-1328.0,1
210,210,0.4397066230437948,0.4,0.0,0.0,427.0,516.0,1.0,0,-863.0,0
211,211,0.021287423186415078,0.0,1.0,1.0,329.0,628.0,0.0,0,4043.0,0
212,212,0.6860499077266823,0.7,0.0,0.0,347.0,790.0,0.0,1,3863.0,1
213,213,-0.22989289055629436,-0.2,1.0,0.0,284.0,694.0,0.0,0,4022.0,1
214,214,0.6237570517371794,0.6,0.0,0.0,382.0,666.0,0.0,1,3952.0,1
215,215,0.8582675543844277,0.9,0.0,0.0,489.0,857.0,0.0,1,3654.0,1
216,216,0.2767484375637944,0.3,1.0,1.0,325.0,965.0,0.0,0,3710.0,0
217,217,-0.7183607880558025,-0.7,1.0,0.0,485.0,971.0,0.0,0,3544.0,1
218,218,0.7567426579208002,0.8,1.0,1.0,351.0,591.0,0.0,0,4058.0,0
219,219,0.20119734346713136,0.2,0.0,0.0,330.0,772.0,0.0,1,3898.0,1
220,220,-0.6314779985724466,-0.6,0.0,1.0,450.0,997.0,0.0,1,3553.0,0
221,221,0.40282873797188035,0.4,0.0,0.0,289.0,763.0,0.0,1,3948.0,1
222,222,-0.5021192612025163,-0.5,1.0,0.0,458.0,959.0,0.0,0,-1247.0,1
223,223,-0.45330055084326987,-0.5,0.0,1.0,388.0,928.0,0.0,1,3684.0,0
224,224,0.7265328961361918,0.7,0.0,0.0,269.0,717.0,1.0,0,-826.0,0
225,225,0.1604765568067189,0.2,1.0,1.0,386.0,540.0,0.0,0,4074.0,0
226,226,0.1790613317604729,0.2,0.0,0.0,317.0,956.0,0.0,1,3727.0,1
227,227,0.39043688456666803,0.4,1.0,1.0,475.0,586.0,0.0,0,3939.0,0
228,228,0.7858728113610366,0.8,0.0,0.0,252.0,779.0,0.0,1,3969.0,1
229,229,0.34074211124055254,0.3,1.0,1.0,482.0,969.0,0.0,0,3549.0,0
230,230,-0.16853687748846813,-0.2,0.0,1.0,433.0,772.0,0.0,1,3795.0,0
231,231,0.6077567675929781,0.6,0.0,0.0,304.0,618.0,0.0,1,4078.0,1
232,232,-0.40619845171995667,-0.4,1.0,0.0,437.0,644.0,0.0,0,3919.0,1
233,233,0.7665597910398122,0.8,0.0,0.0,496.0,986.0,0.0,1,3518.0,1
234,234,-0.743117215123489,-0.7,0.0,1.0,295.0,821.0,0.0,1,3884.0,0
235,235,-0.030703886489470755,-0.0,0.0,1.0,310.0,849.0,0.0,1,3841.0,0
236,236,0.10931929087948855,0.1,0.0,0.0,293.0,695.0,0.0,1,-958.0,1
237,237,0.8931685650879811,0.9,1.0,1.0,312.0,749.0,0.0,0,3939.0,0
238,238,-0.38523530516250604,-0.4,1.0,0.0,255.0,729.0,0.0,0,4016.0,1
239,239,0.10499279340463497,0.1,1.0,1.0,346.0,635.0,0.0,0,4019.0,0
240,240,-0.6286089650541291,-0.6,1.0,0.0,471.0,575.0,0.0,0,3954.0,1
241,241,-0.27235743671879686,-0.3,1.0,0.0,388.0,677.0,0.0,0,3935.0,1
242,242,0.5073648257614015,0.5,0.0,0.0,439.0,918.0,0.0,1,3643.0,1
243,243,0.008374585386708211,0.0,1.0,1.0,468.0,724.0,0.0,0,3808.0,0
244,244,0.676788951546116,0.7,1.0,1.0,429.0,894.0,0.0,0,3677.0,0
245,245,-0.17238864328285008,-0.2,1.0,0.0,378.0,840.0,0.0,0,-1138.0,1
246,246,-0.8042697576702393,-0.8,1.0,0.0,470.0,838.0,0.0,0,3692.0,1
247,247,0.7234139851358133,0.7,0.0,0.0,265.0,748.0,0.0,1,3987.0,1
248,248,-0.023960603256885538,-0.0,1.0,0.0,405.0,958.0,0.0,0,3637.0,1
249,249,-0.41161716727065967,-0.4,1.0,0.0,321.0,513.0,0.0,0,4166.0,1
250,250,-0.0021089557699788264,-0.0,1.0,0.0,401.0,584.0,0.0,0,4015.0,1
251,251,0.7378769493189542,0.7,0.0,0.0,426.0,775.0,0.0,1,3799.0,1
252,252,-0.6390723536586924,-0.6,0.0,1.0,447.0,985.0,1.0,0,-1392.0,1
253,253,0.021624658064410163,0.0,0.0,0.0,434.0,843.0,0.0,1,-1027.0,1
254,254,0.4892999525944953,0.5,0.0,0.0,459.0,533.0,0.0,1,4008.0,1
255,255,-0.30537869726401834,-0.3,1.0,0.0,275.0,845.0,0.0,0,3880.0,1
256,256,0.7097392899670737,0.7,0.0,0.0,423.0,907.0,0.0,1,3670.0,1
257,257,0.8885583150417563,0.9,0.0,0.0,484.0,812.0,0.0,1,3704.0,1
258,258,0.2490752001532862,0.2,0.0,0.0,268.0,779.0,0.0,1,3953.0,1
259,259,0.5081396129836845,0.5,0.0,0.0,434.0,955.0,0.0,1,-1309.0,1
260,260,-0.7942535321065315,-0.8,0.0,1.0,468.0,613.0,0.0,1,3919.0,0
261,261,0.0033795489444062854,0.0,1.0,1.0,448.0,662.0,0.0,0,3890.0,0
262,262,-0.19209246827234816,-0.2,1.0,0.0,314.0,692.0,0.0,0,3994.0,1
263,263,-0.7850610883907755,-0.8,0.0,1.0,402.0,729.0,0.0,1,3869.0,0
264,264,-0.24650175492423232,-0.2,0.0,1.0,390.0,637.0,0.0,1,3973.0,0
265,265,0.2458613875998895,0.2,0.0,0.0,323.0,978.0,0.0,1,3699.0,1
266,266,-0.8291830644810546,-0.8,0.0,1.0,410.0,709.0,0.0,1,3881.0,0
267,267,-0.22099045993384192,-0.2,1.0,0.0,401.0,698.0,0.0,0,3901.0,1
268,268,-0.7560386067705289,-0.8,1.0,0.0,277.0,770.0,0.0,0,3953.0,1
269,269,0.27260561864092303,0.3,0.0,0.0,378.0,705.0,0.0,1,-1013.0,1
270,270,0.8516207984137786,0.9,1.0,1.0,346.0,644.0,0.0,0,4010.0,0
271,271,-0.6491788797638494,-0.6,1.0,0.0,366.0,953.0,0.0,0,3681.0,1
272,272,0.2129116625338886,0.2,0.0,0.0,251.0,547.0,0.0,1,4202.0,1
273,273,-0.7646347181617084,-0.8,1.0,0.0,345.0,549.0,0.0,0,4106.0,1
274,274,0.47510724527157755,0.5,0.0,0.0,476.0,949.0,0.0,1,3575.0,1
275,275,-0.46771954900472784,-0.5,1.0,0.0,388.0,861.0,0.0,0,3751.0,1
276,276,-0.10535558587932226,-0.1,0.0,1.0,297.0,780.0,0.0,1,3923.0,0
277,277,0.5155455427782257,0.5,0.0,0.0,315.0,720.0,0.0,1,3965.0,1
278,278,-0.8805064586676433,-0.9,1.0,0.0,425.0,750.0,0.0,0,3825.0,1
279,279,0.7848895568124846,0.8,0.0,0.0,322.0,855.0,0.0,1,3823.0,1
280,280,0.47311517514077994,0.5,0.0,0.0,362.0,791.0,0.0,1,3847.0,1
281,281,-0.581601662270991,-0.6,0.0,1.0,379.0,941.0,0.0,1,3680.0,0
282,282,-0.6962605348573356,-0.7,0.0,1.0,461.0,722.0,0.0,1,3817.0,0
283,283,0.7865353734797597,0.8,1.0,1.0,373.0,692.0,0.0,0,3935.0,0
284,284,0.5603446853125239,0.6,0.0,0.0,320.0,841.0,0.0,1,3839.0,1
285,285,0.23968717521068894,0.2,0.0,0.0,305.0,966.0,0.0,1,-1211.0,1
286,286,0.6287645892880781,0.6,0.0,0.0,371.0,974.0,0.0,1,3655.0,1
287,287,0.3230166303757843,0.3,0.0,0.0,376.0,512.0,0.0,1,4112.0,1
288,288,0.16252861815935182,0.2,1.0,1.0,365.0,995.0,0.0,0,3640.0,0
289,289,0.0891366351620414,0.1,0.0,0.0,399.0,773.0,0.0,1,3828.0,1
290,290,-0.16474749567170222,-0.2,0.0,1.0,339.0,833.0,1.0,0,-1102.0,1
291,291,-0.8117886871484234,-0.8,0.0,1.0,322.0,802.0,0.0,1,3876.0,0
292,292,-0.7690501936551489,-0.8,1.0,0.0,257.0,573.0,0.0,0,4170.0,1
293,293,-0.10098753615770173,-0.1,0.0,1.0,256.0,707.0,0.0,1,4037.0,0
294,294,-0.6500339871803515,-0.7,0.0,1.0,309.0,521.0,0.0,1,4170.0,0
295,295,-0.6172826614761566,-0.6,0.0,1.0,478.0,859.0,0.0,1,3663.0,0
296,296,-0.5981017555040078,-0.6,0.0,1.0,423.0,949.0,0.0,1,3628.0,0
297,297,0.42195985591801255,0.4,1.0,1.0,414.0,513.0,0.0,0,4073.0,0
298,298,-0.7607581973452946,-0.8,1.0,0.0,434.0,731.0,0.0,0,3835.0,1
299,299,0.24648792822753818,0.2,0.0,0.0,275.0,717.0,0.0,1,4008.0,1
300,300,-0.6862346288016182,-0.7,1.0,0.0,258.0,515.0,0.0,0,4227.0,1
301,301,0.5349203283417981,0.5,1.0,1.0,266.0,503.0,0.0,0,4231.0,0
302,302,-0.40224969969362895,-0.4,0.0,1.0,317.0,633.0,0.0,1,4050.0,0
303,303,-0.3684779747966207,-0.4,1.0,0.0,257.0,830.0,0.0,0,3913.0,1
304,304,-0.3582498153439406,-0.4,0.0,1.0,326.0,932.0,0.0,1,3742.0,0
305,305,0.2901171270361588,0.3,1.0,1.0,467.0,767.0,0.0,0,3766.0,0
306,306,-0.6359767864233239,-0.6,0.0,1.0,423.0,910.0,0.0,1,3667.0,0
307,307,-0.8135835365552103,-0.8,1.0,0.0,333.0,819.0,0.0,0,3848.0,1
308,308,0.2633974770223143,0.3,0.0,0.0,351.0,805.0,1.0,0,-1076.0,0
309,309,-0.07557754169990027,-0.1,0.0,1.0,490.0,876.0,0.0,1,3634.0,0
310,310,0.7772773422201914,0.8,1.0,1.0,400.0,557.0,0.0,0,4043.0,0
311,311,-0.5512999213383147,-0.6,0.0,1.0,402.0,830.0,0.0,1,3768.0,0
312,312,-0.18495824460676813,-0.2,0.0,1.0,337.0,522.0,0.0,1,4141.0,0
313,313,-0.8739850636714873,-0.9,0.0,1.0,483.0,626.0,0.0,1,3891.0,0
314,314,0.2172229889106757,0.2,0.0,0.0,490.0,845.0,0.0,1,3665.0,1
315,315,-0.30458755758130873,-0.3,1.0,0.0,371.0,585.0,0.0,0,4044.0,1
316,316,0.4609962439470786,0.5,1.0,1.0,259.0,612.0,0.0,0,4129.0,0
317,317,-0.6762228605343346,-0.7,1.0,0.0,271.0,880.0,0.0,0,3849.0,1
318,318,-0.01655004911626279,-0.0,0.0,1.0,414.0,860.0,0.0,1,-1144.0,0
319,319,-0.761961182843033,-0.8,0.0,1.0,387.0,978.0,0.0,1,3635.0,0
320,320,0.1748076736105323,0.2,1.0,1.0,415.0,917.0,0.0,0,3668.0,0
321,321,0.0270080380912181,0.0,1.0,1.0,349.0,921.0,0.0,0,3730.0,0
322,322,0.45703376242903737,0.5,0.0,0.0,465.0,790.0,0.0,1,3745.0,1
323,323,0.869322299437724,0.9,1.0,1.0,434.0,964.0,0.0,0,3602.0,0
324,324,-0.14499673846456618,-0.1,1.0,0.0,495.0,505.0,0.0,0,4000.0,1
325,325,0.5243627561806089,0.5,0.0,0.0,304.0,780.0,0.0,1,3916.0,1
326,326,0.8428351750048971,0.8,0.0,0.0,455.0,552.0,0.0,1,3993.0,1
327,327,0.07000967258064439,0.1,0.0,0.0,250.0,731.0,0.0,1,4019.0,1
328,328,-0.23595651734447087,-0.2,1.0,0.0,293.0,850.0,1.0,1,-963.0,0
329,329,-0.28257543882518266,-0.3,0.0,1.0,262.0,707.0,0.0,1,4031.0,0
330,330,-0.43643694040086844,-0.4,0.0,1.0,456.0,679.0,0.0,1,3865.0,0
331,331,-0.38918642983230767,-0.4,1.0,0.0,485.0,521.0,0.0,0,3994.0,1
332,332,0.5671301897485163,0.6,0.0,0.0,283.0,619.0,0.0,1,4098.0,1
333,333,-0.7821760968239789,-0.8,1.0,0.0,269.0,722.0,0.0,0,-921.0,1
334,334,-0.7933798134777456,-0.8,1.0,0.0,375.0,593.0,0.0,0,4032.0,1
335,335,0.6756451016664619,0.7,1.0,1.0,256.0,712.0,0.0,0,4032.0,0
336,336,-0.8455602802866025,-0.8,1.0,0.0,330.0,540.0,0.0,0,4130.0,1
337,337,0.5554533278733308,0.6,1.0,1.0,346.0,991.0,0.0,0,3663.0,0
338,338,-0.03889118797981406,-0.0,1.0,0.0,280.0,509.0,0.0,0,4211.0,1
339,339,-0.17095782702845475,-0.2,1.0,0.0,455.0,727.0,0.0,0,3818.0,1
340,340,0.7305189608220487,0.7,0.0,0.0,487.0,814.0,0.0,1,3699.0,1
341,341,-0.7050074241799347,-0.7,0.0,1.0,495.0,617.0,0.0,1,3888.0,0
342,342,0.21607716708777358,0.2,0.0,0.0,382.0,910.0,0.0,1,3708.0,1
343,343,0.315791262141497,0.3,0.0,0.0,368.0,756.0,1.0,0,-1084.0,0
344,344,0.7964227507417226,0.8,1.0,1.0,481.0,735.0,0.0,0,3784.0,0
345,345,0.6809937360854853,0.7,1.0,1.0,357.0,775.0,1.0,1,-1022.0,1
346,346,0.30432128008629233,0.3,1.0,1.0,306.0,544.0,0.0,0,4150.0,0
347,347,-0.2321406610480069,-0.2,1.0,0.0,498.0,940.0,0.0,0,3562.0,1
348,348,-0.5079721480339121,-0.5,0.0,1.0,335.0,739.0,0.0,1,3926.0,0
349,349,-0.41745855060000964,-0.4,1.0,0.0,342.0,713.0,1.0,1,-1045.0,0
350,350,0.7697162572760662,0.8,1.0,1.0,489.0,665.0,0.0,0,3846.0,0
351,351,0.8962253023186223,0.9,0.0,0.0,346.0,953.0,0.0,1,3701.0,1
352,352,0.7534701722964067,0.8,1.0,1.0,483.0,543.0,0.0,0,3974.0,0
353,353,0.2542872596985951,0.3,1.0,1.0,281.0,628.0,0.0,0,4091.0,0
354,354,0.006009167493568168,0.0,1.0,1.0,269.0,746.0,0.0,0,3985.0,0
355,355,-0.8967294528342501,-0.9,0.0,1.0,446.0,694.0,0.0,1,3860.0,0
356,356,0.37671185742782953,0.4,0.0,0.0,263.0,563.0,0.0,1,4174.0,1
357,357,-0.3369600849242774,-0.3,1.0,0.0,492.0,959.0,0.0,0,3549.0,1
358,358,-0.590993673885259,-0.6,0.0,1.0,453.0,886.0,0.0,1,3661.0,0
359,359,-0.3893957085391504,-0.4,1.0,0.0,462.0,876.0,0.0,0,-1278.0,1
360,360,0.5709103649136672,0.6,1.0,1.0,365.0,829.0,0.0,0,3806.0,0
361,361,0.35003502699994515,0.4,1.0,1.0,282.0,792.0,0.0,0,3926.0,0
362,362,0.8087019006778825,0.8,0.0,0.0,338.0,667.0,0.0,1,3995.0,1
363,363,0.15954532038864622,0.2,1.0,1.0,400.0,570.0,0.0,0,4030.0,0
364,364,0.15043640829552019,0.2,0.0,0.0,380.0,667.0,0.0,1,3953.0,1
365,365,-0.8987400990791669,-0.9,1.0,0.0,259.0,720.0,0.0,0,4021.0,1
366,366,0.796165229773251,0.8,1.0,1.0,254.0,541.0,0.0,0,4205.0,0
367,367,0.3695511793648608,0.4,0.0,0.0,311.0,984.0,0.0,1,-1155.0,1
368,368,0.658457159613813,0.7,0.0,0.0,438.0,642.0,0.0,1,3920.0,1
369,369,-0.21168309183559297,-0.2,1.0,0.0,363.0,714.0,0.0,0,3923.0,1
370,370,-0.7417121059942287,-0.7,1.0,0.0,452.0,565.0,0.0,0,3983.0,1
371,371,0.655041613497911,0.7,1.0,1.0,379.0,561.0,0.0,0,4060.0,0
372,372,0.34896987778406785,0.3,1.0,1.0,321.0,857.0,0.0,0,3822.0,0
373,373,0.8736062972747453,0.9,0.0,0.0,267.0,757.0,0.0,1,3976.0,1
374,374,0.673391801499939,0.7,1.0,1.0,398.0,973.0,0.0,0,-1281.0,0
375,375,-0.7677234686795081,-0.8,1.0,0.0,378.0,829.0,0.0,0,-1067.0,1
376,376,-0.4718610948887766,-0.5,1.0,0.0,479.0,531.0,0.0,0,-930.0,1
377,377,-0.07048724437673914,-0.1,0.0,1.0,401.0,711.0,0.0,1,3888.0,0
378,378,0.17150285326587988,0.2,1.0,1.0,392.0,853.0,0.0,0,3755.0,0
379,379,0.34774976955785875,0.3,0.0,0.0,434.0,650.0,0.0,1,-954.0,1
380,380,-0.20349115314641908,-0.2,1.0,0.0,352.0,973.0,0.0,0,3675.0,1
381,381,-0.7737246517194512,-0.8,0.0,1.0,433.0,586.0,0.0,1,3981.0,0
382,382,0.6237993049857541,0.6,0.0,0.0,360.0,573.0,0.0,1,4067.0,1
383,383,-0.8489583205108134,-0.8,1.0,0.0,342.0,802.0,0.0,0,3856.0,1
384,384,0.5037545287738759,0.5,0.0,0.0,496.0,795.0,0.0,1,3709.0,1
385,385,-0.6588302582479199,-0.7,0.0,1.0,378.0,862.0,0.0,1,3760.0,0
386,386,-0.45046641565690837,-0.5,0.0,1.0,379.0,999.0,0.0,1,3622.0,0
387,387,0.4535946156453722,0.5,0.0,0.0,391.0,679.0,0.0,1,3930.0,1
388,388,0.6803282194589103,0.7,1.0,1.0,459.0,836.0,0.0,0,3705.0,0
389,389,-0.7682269481509824,-0.8,1.0,0.0,306.0,676.0,0.0,0,4018.0,1
390,390,0.3490964777894322,0.3,1.0,1.0,427.0,919.0,0.0,0,3654.0,0
391,391,0.2667124404128044,0.3,1.0,1.0,302.0,815.0,0.0,0,3883.0,0
392,392,-0.6670449999819084,-0.7,0.0,1.0,306.0,863.0,0.0,1,3831.0,0
393,393,0.8456499690598488,0.8,0.0,0.0,384.0,556.0,0.0,1,4060.0,1
394,394,0.15643698269788897,0.2,1.0,1.0,337.0,869.0,0.0,0,3794.0,0
395,395,0.23594095435811557,0.2,0.0,0.0,279.0,776.0,0.0,1,3945.0,1
396,396,-0.11964419145114136,-0.1,0.0,1.0,478.0,603.0,0.0,1,3919.0,0
397,397,-0.7562419569860637,-0.8,0.0,1.0,420.0,897.0,0.0,1,3683.0,0
398,398,-0.019162205445698244,-0.0,1.0,0.0,432.0,810.0,0.0,0,3758.0,1
399,399,-0.29931607723259,-0.3,0.0,1.0,256.0,983.0,0.0,1,3761.0,0
400,400,0.3311899767457872,0.3,0.0,0.0,469.0,643.0,0.0,1,3888.0,1
401,401,-0.18667996927939168,-0.2,1.0,0.0,268.0,796.0,0.0,0,3936.0,1
402,402,0.18696223163153014,0.2,0.0,0.0,295.0,682.0,0.0,1,4023.0,1
403,403,0.5863604765480631,0.6,1.0,1.0,465.0,567.0,0.0,0,3968.0,0
404,404,-0.561462662459495,-0.6,0.0,1.0,484.0,699.0,0.0,1,3817.0,0
405,405,-0.45614872041053633,-0.5,0.0,1.0,285.0,929.0,0.0,1,3786.0,0
406,406,0.33648040801677837,0.3,0.0,0.0,448.0,925.0,0.0,1,3627.0,1
407,407,-0.18360844409301413,-0.2,1.0,0.0,471.0,824.0,0.0,0,3705.0,1
408,408,0.20481563870823238,0.2,1.0,1.0,453.0,739.0,0.0,0,3808.0,0
409,409,0.11696673564299831,0.1,0.0,0.0,473.0,666.0,0.0,1,3861.0,1
410,410,0.5508773074156476,0.6,0.0,0.0,427.0,794.0,1.0,0,-1151.0,0
411,411,-0.8235305771741107,-0.8,0.0,1.0,400.0,687.0,0.0,1,3913.0,0
412,412,-0.6112538284174117,-0.6,1.0,0.0,441.0,871.0,0.0,0,3688.0,1
413,413,0.29113149068741107,0.3,0.0,0.0,458.0,603.0,0.0,1,3939.0,1
414,414,0.5645821559878855,0.6,0.0,0.0,407.0,575.0,0.0,1,4018.0,1
415,415,0.843980468362903,0.8,1.0,1.0,334.0,623.0,0.0,0,4043.0,0
416,416,0.2486654121075086,0.2,0.0,0.0,276.0,738.0,0.0,1,3986.0,1
417,417,-0.45949875792969946,-0.5,1.0,0.0,446.0,588.0,0.0,0,3966.0,1
418,418,-0.35675876557723085,-0.4,1.0,0.0,361.0,735.0,0.0,0,3904.0,1
419,419,0.7539716160692026,0.8,0.0,0.0,484.0,682.0,1.0,0,-1126.0,0
420,420,-0.5491043955329087,-0.5,0.0,1.0,288.0,891.0,0.0,1,3821.0,0
421,421,0.10156270807709611,0.1,1.0,1.0,327.0,747.0,1.0,1,-1004.0,1
422,422,0.46863912363591254,0.5,1.0,1.0,418.0,986.0,0.0,0,3596.0,0
423,423,-0.35474344828775817,-0.4,0.0,1.0,281.0,823.0,0.0,1,3896.0,0
424,424,0.5051547617462849,0.5,0.0,0.0,499.0,907.0,0.0,1,3594.0,1
425,425,-0.44797170201845626,-0.4,1.0,0.0,285.0,990.0,0.0,0,-1005.0,1
426,426,0.0027523443457840857,0.0,1.0,1.0,401.0,609.0,0.0,0,3990.0,0
427,427,0.3554181439605094,0.4,1.0,1.0,499.0,591.0,0.0,0,3910.0,0
428,428,0.18846860817937594,0.2,1.0,1.0,355.0,895.0,0.0,0,3750.0,0
429,429,-0.6278199465005878,-0.6,1.0,0.0,499.0,827.0,1.0,1,-1236.0,0
430,430,0.8978178726201075,0.9,0.0,0.0,487.0,601.0,0.0,1,-978.0,1
431,431,0.12906414286038104,0.1,0.0,0.0,356.0,751.0,0.0,1,3893.0,1
432,432,0.07849252171371246,0.1,0.0,0.0,359.0,507.0,1.0,0,-816.0,0
433,433,-0.024865734373594184,-0.0,1.0,0.0,476.0,657.0,0.0,0,3867.0,1
434,434,-0.6254421124338367,-0.6,1.0,0.0,370.0,657.0,0.0,0,3973.0,1
435,435,-0.4758079336783447,-0.5,1.0,0.0,302.0,865.0,0.0,0,3833.0,1
436,436,0.04860099265944784,0.0,0.0,0.0,432.0,551.0,0.0,1,4017.0,1
437,437,-0.48998360371091443,-0.5,1.0,0.0,493.0,987.0,0.0,0,3520.0,1
438,438,0.08192657709790085,0.1,0.0,0.0,355.0,856.0,0.0,1,3789.0,1
439,439,0.8607781895606043,0.9,1.0,1.0,276.0,564.0,0.0,0,4160.0,0
440,440,0.37800562587418185,0.4,0.0,0.0,296.0,906.0,0.0,1,3798.0,1
441,441,0.22471599830637612,0.2,1.0,1.0,412.0,566.0,0.0,0,4022.0,0
442,442,0.5744221986433778,0.6,0.0,0.0,306.0,568.0,0.0,1,4126.0,1
443,443,0.17644453104126867,0.2,0.0,0.0,261.0,659.0,0.0,1,4080.0,1
444,444,-0.43783337486449586,-0.4,0.0,1.0,253.0,929.0,0.0,1,3818.0,0
445,445,0.3634511171887377,0.4,1.0,1.0,428.0,697.0,0.0,0,3875.0,0
446,446,0.11541242333064561,0.1,0.0,0.0,302.0,697.0,0.0,1,4001.0,1
447,447,-0.5601843462521934,-0.6,1.0,0.0,427.0,652.0,0.0,0,3921.0,1
448,448,-0.6890755682711535,-0.7,1.0,0.0,426.0,886.0,1.0,1,-1132.0,0
449,449,-0.018792159063209413,-0.0,0.0,1.0,290.0,627.0,0.0,1,4083.0,0
450,450,-0.4959536296219343,-0.5,0.0,1.0,319.0,730.0,0.0,1,3951.0,0
451,451,0.264528732448741,0.3,0.0,0.0,293.0,719.0,1.0,0,-1002.0,0
452,452,-0.8790461564513807,-0.9,1.0,0.0,303.0,522.0,0.0,0,4175.0,1
453,453,0.3829144710798721,0.4,0.0,0.0,443.0,830.0,0.0,1,3727.0,1
454,454,0.6356604858621003,0.6,0.0,0.0,350.0,989.0,0.0,1,3661.0,1
455,455,0.23400976399643858,0.2,0.0,0.0,479.0,624.0,0.0,1,3897.0,1
456,456,0.45053525636565983,0.5,0.0,0.0,336.0,610.0,0.0,1,4054.0,1
457,457,0.2639729700511543,0.3,1.0,1.0,467.0,852.0,0.0,0,3681.0,0
458,458,-0.35514595787996206,-0.4,1.0,0.0,261.0,564.0,0.0,0,4175.0,1
459,459,-0.1655075997441191,-0.2,0.0,1.0,270.0,698.0,0.0,1,4032.0,0
460,460,0.19578310384034048,0.2,1.0,1.0,262.0,600.0,0.0,0,4138.0,0
461,461,0.042708589903038385,0.0,0.0,0.0,259.0,673.0,0.0,1,4068.0,1
462,462,-0.33917742788698746,-0.3,1.0,0.0,350.0,597.0,0.0,0,4053.0,1
463,463,0.6586854117080124,0.7,1.0,1.0,268.0,708.0,0.0,0,4024.0,0
464,464,0.4493376483685355,0.4,0.0,0.0,452.0,984.0,1.0,0,-1406.0,0
465,465,-0.49529289150750877,-0.5,0.0,1.0,481.0,679.0,0.0,1,-950.0,0
466,466,0.21119224689819582,0.2,0.0,0.0,471.0,986.0,0.0,1,3543.0,1
467,467,-0.12096576914934154,-0.1,0.0,1.0,452.0,944.0,0.0,1,3604.0,0
468,468,-0.7395413777183172,-0.7,1.0,0.0,435.0,619.0,0.0,0,3946.0,1
469,469,-0.8159016556915227,-0.8,0.0,1.0,388.0,801.0,1.0,0,-1039.0,1
470,470,-0.3209275778672258,-0.3,0.0,1.0,306.0,537.0,0.0,1,4157.0,0
471,471,-0.7889925542382583,-0.8,0.0,1.0,390.0,814.0,0.0,1,3796.0,0
472,472,0.723807876376554,0.7,0.0,0.0,318.0,862.0,1.0,0,-1010.0,0
473,473,0.09329719248389368,0.1,0.0,0.0,434.0,553.0,0.0,1,4013.0,1
474,474,0.7463841577432421,0.7,1.0,1.0,473.0,940.0,0.0,0,3587.0,0
475,475,0.11158386303129098,0.1,1.0,1.0,430.0,780.0,0.0,0,-1180.0,0
476,476,-0.36363394569906815,-0.4,0.0,1.0,399.0,785.0,0.0,1,3816.0,0
477,477,0.7017258650589419,0.7,0.0,0.0,296.0,936.0,0.0,1,3768.0,1
478,478,0.8526837216124022,0.9,0.0,0.0,391.0,537.0,0.0,1,4072.0,1
479,479,0.6897725482349127,0.7,1.0,1.0,318.0,687.0,0.0,0,3995.0,0
480,480,0.42783456115192664,0.4,1.0,1.0,356.0,527.0,1.0,1,-753.0,1
481,481,0.7619458402873317,0.8,1.0,1.0,448.0,879.0,1.0,1,-1047.0,1
482,482,0.12025936130858261,0.1,0.0,0.0,288.0,776.0,0.0,1,3936.0,1
483,483,0.08536466065200798,0.1,1.0,1.0,495.0,960.0,0.0,0,3545.0,0
484,484,-0.5411900139752824,-0.5,1.0,0.0,359.0,870.0,0.0,0,3771.0,1
485,485,-0.33483920935657163,-0.3,0.0,1.0,494.0,904.0,0.0,1,3602.0,0
486,486,0.4674546384134458,0.5,0.0,0.0,424.0,506.0,0.0,1,4070.0,1
487,487,0.3393365170225705,0.3,1.0,1.0,429.0,814.0,0.0,0,-1223.0,0
488,488,-0.014700891371143832,-0.0,1.0,0.0,499.0,651.0,0.0,0,3850.0,1
489,489,0.4642751799838788,0.5,1.0,1.0,281.0,715.0,0.0,0,4004.0,0
490,490,0.8104398362828898,0.8,0.0,0.0,456.0,562.0,0.0,1,3982.0,1
491,491,0.46589801725443014,0.5,0.0,0.0,357.0,910.0,0.0,1,3733.0,1
492,492,-0.8024827565175953,-0.8,0.0,1.0,431.0,652.0,0.0,1,3917.0,0
493,493,0.6244825841751421,0.6,1.0,1.0,265.0,950.0,0.0,0,3785.0,0
494,494,-0.3293417550595146,-0.3,1.0,0.0,353.0,741.0,0.0,0,3906.0,1
495,495,-0.8682530802755329,-0.9,1.0,0.0,482.0,904.0,0.0,0,3614.0,1
496,496,-0.08899002044120996,-0.1,0.0,1.0,458.0,981.0,0.0,1,3561.0,0
497,497,-0.3743243760466468,-0.4,0.0,1.0,316.0,544.0,0.0,1,4140.0,0
498,498,-0.7700137651228862,-0.8,0.0,1.0,316.0,521.0,0.0,1,4163.0,0
499,499,0.07944387594085556,0.1,0.0,0.0,423.0,619.0,0.0,1,3958.0,1
500,500,-0.8204694159337547,-0.8,0.0,1.0,464.0,746.0,0.0,1,3790.0,0
501,501,-0.418365531992578,-0.4,0.0,1.0,415.0,607.0,0.0,1,3978.0,0
502,502,0.8145119042394965,0.8,1.0,1.0,308.0,606.0,0.0,0,4086.0,0
503,503,0.09460690560612317,0.1,1.0,1.0,468.0,629.0,0.0,0,3903.0,0
504,504,-0.06615922644343597,-0.1,1.0,0.0,420.0,724.0,0.0,0,3856.0,1
505,505,-0.7427610823516292,-0.7,0.0,1.0,421.0,971.0,1.0,0,-1262.0,1
506,506,0.15355142536219912,0.2,0.0,0.0,482.0,678.0,0.0,1,3840.0,1
507,507,0.8292447643416777,0.8,0.0,0.0,353.0,684.0,0.0,1,-937.0,1
508,508,-0.8759483794438656,-0.9,0.0,1.0,499.0,699.0,0.0,1,3802.0,0
509,509,-0.5053018904541804,-0.5,0.0,1.0,340.0,749.0,0.0,1,3911.0,0
510,510,-0.6946993148701154,-0.7,1.0,0.0,433.0,929.0,0.0,0,3638.0,1
511,511,0.1943064630224357,0.2,1.0,1.0,440.0,924.0,0.0,0,-1174.0,0
512,512,0.4913834626475889,0.5,0.0,0.0,286.0,572.0,0.0,1,4142.0,1
513,513,0.6394812954866479,0.6,1.0,1.0,392.0,578.0,0.0,0,4030.0,0
514,514,-0.48021696398409924,-0.5,1.0,0.0,460.0,883.0,0.0,0,3657.0,1
515,515,0.8818624661951536,0.9,1.0,1.0,376.0,859.0,0.0,0,3765.0,0
516,516,-0.4079288236305791,-0.4,1.0,0.0,457.0,576.0,0.0,0,3967.0,1
517,517,0.5607803095017588,0.6,0.0,0.0,363.0,783.0,0.0,1,3854.0,1
518,518,0.8286032467878132,0.8,0.0,0.0,291.0,600.0,0.0,1,4109.0,1
519,519,0.2905548106437784,0.3,1.0,1.0,410.0,643.0,1.0,1,-1003.0,1
520,520,-0.1304439275314787,-0.1,1.0,0.0,436.0,527.0,0.0,0,4037.0,1
521,521,0.43481586440867537,0.4,0.0,0.0,472.0,599.0,0.0,1,3929.0,1
522,522,0.06194844517152165,0.1,1.0,1.0,391.0,630.0,0.0,0,3979.0,0
523,523,-0.47814867189446925,-0.5,0.0,1.0,452.0,815.0,0.0,1,3733.0,0
524,524,0.8077856321725142,0.8,1.0,1.0,299.0,636.0,1.0,1,-855.0,1
525,525,-0.5722226990496024,-0.6,1.0,0.0,396.0,522.0,0.0,0,4082.0,1
526,526,-0.3413668844128349,-0.3,0.0,1.0,455.0,642.0,0.0,1,3903.0,0
527,527,-0.48863447932684273,-0.5,0.0,1.0,395.0,579.0,0.0,1,4026.0,0
528,528,0.08819840866437301,0.1,1.0,1.0,316.0,567.0,0.0,0,4117.0,0
529,529,0.39478093748707044,0.4,0.0,0.0,292.0,721.0,0.0,1,3987.0,1
530,530,-0.1149478325927834,-0.1,0.0,1.0,419.0,843.0,0.0,1,3738.0,0
531,531,-0.0713575219002992,-0.1,0.0,1.0,486.0,882.0,0.0,1,3632.0,0
532,532,0.8749063995349183,0.9,0.0,0.0,398.0,637.0,0.0,1,3965.0,1
533,533,-0.18073501173160245,-0.2,0.0,1.0,305.0,771.0,0.0,1,3924.0,0
534,534,0.8249282770443175,0.8,1.0,1.0,295.0,826.0,0.0,0,3879.0,0
535,535,0.6896454258276751,0.7,1.0,1.0,365.0,697.0,0.0,0,3938.0,0
536,536,0.1593025070971653,0.2,0.0,0.0,318.0,788.0,1.0,0,-1076.0,0
537,537,-0.6874157917531155,-0.7,1.0,0.0,424.0,597.0,0.0,0,3979.0,1
538,538,0.37542799255462167,0.4,0.0,0.0,361.0,988.0,0.0,1,3651.0,1
539,539,0.2351059891356858,0.2,1.0,1.0,261.0,808.0,0.0,0,-1019.0,0
540,540,-0.5792107395301613,-0.6,1.0,0.0,472.0,765.0,1.0,1,-1107.0,0
541,541,-0.6249793352159289,-0.6,1.0,0.0,322.0,920.0,0.0,0,3758.0,1
542,542,0.11997714281033167,0.1,1.0,1.0,440.0,994.0,0.0,0,3566.0,0
543,543,0.6901673137350227,0.7,1.0,1.0,441.0,730.0,0.0,0,3829.0,0
544,544,0.2538479501369558,0.3,0.0,0.0,345.0,732.0,0.0,1,3923.0,1
545,545,-0.5922884180687473,-0.6,1.0,0.0,267.0,633.0,0.0,0,4100.0,1
546,546,0.5702103442921399,0.6,0.0,0.0,459.0,791.0,0.0,1,3750.0,1
547,547,0.6346872981890742,0.6,0.0,0.0,363.0,820.0,0.0,1,3817.0,1
548,548,-0.39223859662046234,-0.4,1.0,0.0,296.0,664.0,0.0,0,4040.0,1
549,549,-0.17919331275733252,-0.2,0.0,1.0,419.0,523.0,0.0,1,4058.0,0
550,550,-0.52981660868342,-0.5,0.0,1.0,400.0,728.0,0.0,1,3872.0,0
551,551,0.2811177226018452,0.3,1.0,1.0,377.0,749.0,0.0,0,3874.0,0
552,552,-0.1919739681338004,-0.2,1.0,0.0,330.0,613.0,0.0,0,4057.0,1
553,553,0.8966292873761735,0.9,1.0,1.0,352.0,653.0,0.0,0,3995.0,0
554,554,-0.3442321950219429,-0.3,1.0,0.0,345.0,536.0,0.0,0,4119.0,1
555,555,0.3572492026259947,0.4,0.0,0.0,366.0,552.0,0.0,1,4082.0,1
556,556,0.8581643817733368,0.9,0.0,0.0,277.0,586.0,0.0,1,4137.0,1
557,557,-0.06462307735046813,-0.1,0.0,1.0,363.0,852.0,0.0,1,3785.0,0
558,558,0.8624196981882485,0.9,0.0,0.0,414.0,824.0,0.0,1,3762.0,1
559,559,-0.326274676916794,-0.3,0.0,1.0,473.0,880.0,0.0,1,3647.0,0
560,560,0.6852164045035324,0.7,0.0,0.0,403.0,934.0,0.0,1,3663.0,1
561,561,0.5495569228439278,0.5,0.0,0.0,333.0,804.0,0.0,1,-767.0,1
562,562,0.8199423798651576,0.8,0.0,0.0,430.0,678.0,0.0,1,3892.0,1
563,563,-0.7900280662913336,-0.8,1.0,0.0,299.0,935.0,1.0,1,-1164.0,0
564,564,0.48267586211975855,0.5,0.0,0.0,369.0,734.0,0.0,1,3897.0,1
565,565,0.5623141113081686,0.6,0.0,0.0,446.0,665.0,0.0,1,3889.0,1
566,566,0.6841918205410665,0.7,1.0,1.0,317.0,706.0,0.0,0,3977.0,0
567,567,-0.4938803601269352,-0.5,0.0,1.0,365.0,549.0,0.0,1,4086.0,0
568,568,0.807747100131187,0.8,1.0,1.0,252.0,983.0,0.0,0,3765.0,0
569,569,0.3912652919718448,0.4,0.0,0.0,414.0,784.0,0.0,1,3802.0,1
570,570,-0.7683682362244679,-0.8,1.0,0.0,368.0,561.0,0.0,0,4071.0,1
571,571,-0.7497765576306463,-0.7,0.0,1.0,452.0,818.0,0.0,1,3730.0,0
572,572,-0.3438139091851612,-0.3,1.0,0.0,390.0,787.0,0.0,0,3823.0,1
573,573,0.8872384987642846,0.9,0.0,0.0,359.0,630.0,0.0,1,4011.0,1
574,574,-0.11952018949060239,-0.1,1.0,0.0,474.0,773.0,0.0,0,3753.0,1
575,575,0.5130296978907313,0.5,0.0,0.0,340.0,976.0,0.0,1,3684.0,1
576,576,0.2296467710239355,0.2,1.0,1.0,414.0,971.0,0.0,0,3615.0,0
577,577,-0.3984445606632466,-0.4,0.0,1.0,278.0,873.0,0.0,1,3849.0,0
578,578,-0.06188987216626618,-0.1,0.0,1.0,267.0,506.0,0.0,1,4227.0,0
579,579,-0.8743368504160901,-0.9,0.0,1.0,381.0,609.0,0.0,1,4010.0,0
580,580,-0.4132980801807572,-0.4,1.0,0.0,445.0,642.0,0.0,0,3913.0,1
581,581,-0.6586047708847431,-0.7,0.0,1.0,310.0,890.0,0.0,1,3800.0,0
582,582,-0.43414484415150034,-0.4,1.0,0.0,456.0,979.0,0.0,0,3565.0,1
583,583,-0.8957371796012588,-0.9,0.0,1.0,412.0,632.0,0.0,1,3956.0,0
584,584,0.046669808623344466,0.0,1.0,1.0,279.0,828.0,0.0,0,3893.0,0
585,585,0.7387739660733855,0.7,1.0,1.0,256.0,527.0,0.0,0,4217.0,0
586,586,-0.8073247079988412,-0.8,0.0,1.0,391.0,503.0,0.0,1,4106.0,0
587,587,0.873212035223497,0.9,0.0,0.0,417.0,598.0,0.0,1,3985.0,1
588,588,-0.5765306817142543,-0.6,1.0,0.0,253.0,649.0,0.0,0,4098.0,1
589,589,-0.5919460548908724,-0.6,0.0,1.0,405.0,770.0,1.0,0,-1065.0,1
590,590,0.8689126712538492,0.9,0.0,0.0,449.0,544.0,0.0,1,4007.0,1
591,591,-0.3716388902206115,-0.4,0.0,1.0,272.0,800.0,0.0,1,-942.0,0
592,592,-0.06621457734930625,-0.1,0.0,1.0,253.0,980.0,0.0,1,3767.0,0
593,593,-0.39472155114300056,-0.4,0.0,1.0,323.0,758.0,0.0,1,3919.0,0
594,594,-0.3838764631193625,-0.4,1.0,0.0,368.0,958.0,0.0,0,3674.0,1
595,595,-0.46115850723637786,-0.5,1.0,0.0,390.0,926.0,0.0,0,-1246.0,1
596,596,0.25145164227828076,0.3,0.0,0.0,394.0,750.0,0.0,1,3856.0,1
597,597,0.7044400099166225,0.7,1.0,1.0,375.0,520.0,0.0,0,4105.0,0
598,598,0.5434302696535772,0.5,0.0,0.0,407.0,546.0,0.0,1,4047.0,1
599,599,-0.7476586621998448,-0.7,0.0,1.0,266.0,643.0,0.0,1,4091.0,0
600,600,0.31514953199551987,0.3,1.0,1.0,405.0,997.0,1.0,1,-1402.0,1
601,601,-0.7925383744820588,-0.8,0.0,1.0,257.0,525.0,0.0,1,-752.0,0
602,602,0.8746062902882262,0.9,0.0,0.0,276.0,656.0,0.0,1,4068.0,1
603,603,-0.014956573325885625,-0.0,1.0,0.0,387.0,654.0,1.0,1,-881.0,0
604,604,0.658452647720794,0.7,0.0,0.0,397.0,876.0,0.0,1,3727.0,1
605,605,-0.5045661277239746,-0.5,1.0,0.0,455.0,503.0,0.0,0,4042.0,1
606,606,-0.6324156356519353,-0.6,1.0,0.0,442.0,965.0,0.0,0,3593.0,1
607,607,0.565754120865776,0.6,0.0,0.0,455.0,773.0,0.0,1,3772.0,1
608,608,0.1115107966482326,0.1,0.0,0.0,338.0,753.0,0.0,1,3909.0,1
609,609,0.5965330515436665,0.6,1.0,1.0,402.0,755.0,0.0,0,3843.0,0
610,610,0.16148861916622292,0.2,0.0,0.0,320.0,906.0,1.0,0,-1196.0,0
611,611,-0.15989402678887787,-0.2,1.0,0.0,309.0,995.0,0.0,0,3696.0,1
612,612,-0.4374968051683978,-0.4,1.0,0.0,343.0,978.0,0.0,0,3679.0,1
613,613,-0.8062474058879336,-0.8,1.0,0.0,398.0,704.0,0.0,0,3898.0,1
614,614,0.5212336511808889,0.5,0.0,0.0,301.0,959.0,0.0,1,3740.0,1
615,615,-0.874412335026054,-0.9,0.0,1.0,467.0,869.0,0.0,1,-1126.0,0
616,616,-0.8188613736085525,-0.8,0.0,1.0,482.0,505.0,0.0,1,4013.0,0
617,617,-0.7151926758971452,-0.7,0.0,1.0,486.0,983.0,0.0,1,3531.0,0
618,618,0.44369637272373474,0.4,1.0,1.0,472.0,561.0,0.0,0,3967.0,0
619,619,-0.5623798349182494,-0.6,0.0,1.0,480.0,657.0,0.0,1,3863.0,0
620,620,0.10494031238842128,0.1,0.0,0.0,479.0,872.0,0.0,1,3649.0,1
621,621,-0.3527062865424976,-0.4,0.0,1.0,334.0,981.0,0.0,1,3685.0,0
622,622,0.6973296127415766,0.7,0.0,0.0,369.0,616.0,0.0,1,4015.0,1
623,623,-0.6226172370172363,-0.6,1.0,0.0,368.0,754.0,1.0,1,-852.0,0
624,624,-0.32516739687602714,-0.3,1.0,0.0,272.0,842.0,0.0,0,3886.0,1
625,625,-0.010681703817352672,-0.0,1.0,0.0,313.0,723.0,1.0,1,-966.0,0
626,626,-0.21838266700174946,-0.2,0.0,1.0,322.0,557.0,0.0,1,4121.0,0
627,627,0.4694622504421716,0.5,1.0,1.0,457.0,725.0,0.0,0,3818.0,0
628,628,-0.3656575046185887,-0.4,1.0,0.0,355.0,507.0,0.0,0,4138.0,1
629,629,0.27991391252294495,0.3,0.0,0.0,430.0,883.0,0.0,1,3687.0,1
630,630,-0.4403122336387648,-0.4,1.0,0.0,445.0,580.0,0.0,0,3975.0,1
631,631,-0.48095272019703633,-0.5,0.0,1.0,253.0,728.0,0.0,1,4019.0,0
632,632,-0.3800576215829161,-0.4,1.0,0.0,456.0,754.0,0.0,0,3790.0,1
633,633,-0.5642219280049197,-0.6,1.0,0.0,449.0,888.0,0.0,0,3663.0,1
634,634,-0.4042412869736978,-0.4,1.0,0.0,399.0,659.0,0.0,0,3942.0,1
635,635,0.7254202685338763,0.7,1.0,1.0,408.0,841.0,0.0,0,3751.0,0
636,636,-0.3631170726290386,-0.4,1.0,0.0,480.0,776.0,0.0,0,3744.0,1
637,637,-0.8494168867474592,-0.8,1.0,0.0,314.0,693.0,0.0,0,3993.0,1
638,638,-0.5598033966276161,-0.6,1.0,0.0,418.0,710.0,0.0,0,3872.0,1
639,639,-0.43421516486005174,-0.4,0.0,1.0,299.0,826.0,0.0,1,-1095.0,0
640,640,-0.2537389160501383,-0.3,1.0,0.0,255.0,913.0,0.0,0,3832.0,1
641,641,-0.8203044108584,-0.8,1.0,0.0,340.0,810.0,0.0,0,3850.0,1
642,642,-0.11543969534110532,-0.1,1.0,0.0,493.0,972.0,0.0,0,3535.0,1
643,643,0.3663152592017621,0.4,0.0,0.0,263.0,825.0,0.0,1,3912.0,1
644,644,-0.04252283424476211,-0.0,1.0,0.0,444.0,562.0,0.0,0,3994.0,1
645,645,0.1676724959060737,0.2,0.0,0.0,340.0,995.0,0.0,1,3665.0,1
646,646,0.36455322019512637,0.4,0.0,0.0,284.0,624.0,0.0,1,4092.0,1
647,647,-0.4173895651978861,-0.4,1.0,0.0,342.0,584.0,1.0,1,-836.0,0
648,648,-0.15178074767091476,-0.2,0.0,1.0,395.0,522.0,0.0,1,-767.0,0
649,649,0.7068400958334223,0.7,1.0,1.0,253.0,874.0,0.0,0,3873.0,0
650,650,0.3639451750770838,0.4,1.0,1.0,431.0,631.0,0.0,0,3938.0,0
651,651,0.528430702883279,0.5,1.0,1.0,347.0,908.0,0.0,0,-1115.0,0
652,652,0.07382770988729437,0.1,1.0,1.0,473.0,582.0,0.0,0,3945.0,0
653,653,-0.7164879375078168,-0.7,1.0,0.0,479.0,681.0,0.0,0,3840.0,1
654,654,0.7435507284121993,0.7,0.0,0.0,408.0,920.0,0.0,1,3672.0,1
655,655,-0.20577584314012487,-0.2,0.0,1.0,285.0,888.0,0.0,1,3827.0,0
656,656,0.1647297090551768,0.2,1.0,1.0,307.0,858.0,0.0,0,3835.0,0
657,657,0.8429852150924312,0.8,1.0,1.0,366.0,669.0,0.0,0,3965.0,0
658,658,-0.39218038453007864,-0.4,0.0,1.0,369.0,601.0,0.0,1,4030.0,0
659,659,-0.8634014151373931,-0.9,1.0,0.0,332.0,864.0,0.0,0,3804.0,1
660,660,0.6037690477133232,0.6,0.0,0.0,308.0,765.0,0.0,1,3927.0,1
661,661,0.3456895146092426,0.3,1.0,1.0,421.0,817.0,0.0,0,3762.0,0
662,662,-0.5348315834362134,-0.5,1.0,0.0,454.0,661.0,0.0,0,3885.0,1
663,663,-0.7978742212357126,-0.8,0.0,1.0,372.0,739.0,0.0,1,3889.0,0
664,664,0.5553148325595912,0.6,1.0,1.0,284.0,574.0,0.0,0,4142.0,0
665,665,-0.507117406471656,-0.5,1.0,0.0,254.0,626.0,0.0,0,4120.0,1
666,666,-0.3336325613908553,-0.3,0.0,1.0,470.0,575.0,0.0,1,3955.0,0
667,667,-0.5842978424900391,-0.6,1.0,0.0,483.0,910.0,0.0,0,3607.0,1
668,668,0.7715131597008881,0.8,1.0,1.0,293.0,779.0,0.0,0,3928.0,0
669,669,-0.19697156390301973,-0.2,0.0,1.0,303.0,706.0,0.0,1,3991.0,0
670,670,0.7421280342654751,0.7,0.0,0.0,294.0,787.0,0.0,1,3919.0,1
671,671,-0.4623450886639068,-0.5,1.0,0.0,338.0,666.0,0.0,0,3996.0,1
672,672,0.5409974528528899,0.5,0.0,0.0,348.0,918.0,0.0,1,3734.0,1
673,673,0.238010747864018,0.2,1.0,1.0,487.0,817.0,0.0,0,-1284.0,0
674,674,0.7818469952037704,0.8,0.0,0.0,404.0,721.0,0.0,1,3875.0,1
675,675,-0.6321198435897124,-0.6,0.0,1.0,280.0,846.0,1.0,0,-1106.0,1
676,676,-0.4404301242483159,-0.4,1.0,0.0,404.0,513.0,0.0,0,-777.0,1
677,677,-0.43500536418378183,-0.4,0.0,1.0,481.0,978.0,0.0,1,3541.0,0
678,678,0.4879150396489912,0.5,0.0,0.0,492.0,717.0,0.0,1,-1209.0,1
679,679,-0.31906068050632075,-0.3,1.0,0.0,304.0,780.0,0.0,0,3916.0,1
680,680,0.8926947176840109,0.9,0.0,0.0,338.0,591.0,0.0,1,4071.0,1
681,681,-0.6274112948729698,-0.6,1.0,0.0,250.0,526.0,0.0,0,4224.0,1
682,682,-0.7648255840614545,-0.8,0.0,1.0,431.0,583.0,0.0,1,3986.0,0
683,683,-0.6863201012665112,-0.7,0.0,1.0,338.0,538.0,0.0,1,4124.0,0
684,684,0.6389097540913419,0.6,1.0,1.0,344.0,563.0,0.0,0,4093.0,0
685,685,0.7682886075206151,0.8,0.0,0.0,371.0,696.0,0.0,1,3933.0,1
686,686,0.7757743609472098,0.8,1.0,1.0,477.0,726.0,0.0,0,3797.0,0
687,687,0.35915584740146833,0.4,1.0,1.0,327.0,950.0,0.0,0,3723.0,0
688,688,-0.2254490382539609,-0.2,0.0,1.0,383.0,751.0,0.0,1,3866.0,0
689,689,0.4073020571325151,0.4,1.0,1.0,298.0,623.0,0.0,0,4079.0,0
690,690,-0.17911403254175828,-0.2,1.0,0.0,256.0,935.0,0.0,0,3809.0,1
691,691,0.6842623083260907,0.7,1.0,1.0,417.0,501.0,0.0,0,4082.0,0
692,692,0.8378784079011089,0.8,1.0,1.0,383.0,544.0,0.0,0,4073.0,0
693,693,-0.7806419490933569,-0.8,0.0,1.0,399.0,691.0,0.0,1,-910.0,0
694,694,0.40107371318497653,0.4,1.0,1.0,342.0,896.0,0.0,0,3762.0,0
695,695,0.2936415701087002,0.3,1.0,1.0,469.0,519.0,1.0,1,-938.0,1
696,696,0.8168125193232966,0.8,0.0,0.0,483.0,625.0,0.0,1,3892.0,1
697,697,-0.3379907599959744,-0.3,1.0,0.0,360.0,668.0,0.0,0,3972.0,1
698,698,-0.8534335390120156,-0.9,0.0,1.0,410.0,780.0,0.0,1,3810.0,0
699,699,0.41197281758878324,0.4,1.0,1.0,264.0,809.0,1.0,1,-613.0,1
700,700,0.4773306985505682,0.5,0.0,0.0,301.0,730.0,0.0,1,3969.0,1
701,701,0.17168164880352832,0.2,1.0,1.0,345.0,794.0,0.0,0,3861.0,0
702,702,-0.6987301433491547,-0.7,1.0,0.0,297.0,649.0,0.0,0,4054.0,1
703,703,0.7455296127528498,0.7,1.0,1.0,301.0,848.0,1.0,1,-1099.0,1
704,704,0.005445967054997336,0.0,1.0,1.0,425.0,505.0,0.0,0,4070.0,0
705,705,-0.3232747186180013,-0.3,0.0,1.0,418.0,892.0,0.0,1,3690.0,0
706,706,0.1738116562547135,0.2,0.0,0.0,353.0,976.0,0.0,1,3671.0,1
707,707,0.7123248729475099,0.7,1.0,1.0,364.0,855.0,0.0,0,3781.0,0
708,708,0.5146946419187238,0.5,1.0,1.0,381.0,989.0,0.0,0,3630.0,0
709,709,0.5047122202491997,0.5,1.0,1.0,421.0,880.0,0.0,0,3699.0,0
710,710,0.5594471801965512,0.6,1.0,1.0,416.0,830.0,0.0,0,3754.0,0
711,711,-0.6479860079244211,-0.6,0.0,1.0,323.0,795.0,0.0,1,3882.0,0
712,712,0.533002150512416,0.5,1.0,1.0,399.0,747.0,0.0,0,3854.0,0
713,713,0.8853189042881676,0.9,1.0,1.0,426.0,577.0,1.0,1,-903.0,1
714,714,0.4232238847976172,0.4,0.0,0.0,480.0,752.0,0.0,1,3768.0,1
715,715,0.5579515042464943,0.6,1.0,1.0,404.0,768.0,0.0,0,3828.0,0
716,716,0.297663267109488,0.3,1.0,1.0,442.0,669.0,0.0,0,3889.0,0
717,717,-0.7063066607296938,-0.7,0.0,1.0,291.0,676.0,0.0,1,-887.0,0
718,718,-0.27635894438528585,-0.3,0.0,1.0,465.0,982.0,0.0,1,3553.0,0
719,719,0.49976427358987274,0.5,0.0,0.0,409.0,784.0,0.0,1,3807.0,1
720,720,0.317440643779325,0.3,1.0,1.0,281.0,633.0,1.0,1,-794.0,1
721,721,-0.12626572015535997,-0.1,0.0,1.0,404.0,920.0,0.0,1,3676.0,0
722,722,0.8048392968834858,0.8,1.0,1.0,287.0,549.0,1.0,1,-816.0,1
723,723,0.41630817661476127,0.4,0.0,0.0,363.0,708.0,0.0,1,3929.0,1
724,724,0.5075436097268354,0.5,1.0,1.0,426.0,964.0,0.0,0,3610.0,0
725,725,0.11692900044378984,0.1,0.0,0.0,423.0,604.0,0.0,1,3973.0,1
726,726,0.7747394413527243,0.8,0.0,0.0,351.0,846.0,0.0,1,3803.0,1
727,727,0.20514082935324207,0.2,0.0,0.0,317.0,629.0,0.0,1,4054.0,1
728,728,0.32394309443880587,0.3,0.0,0.0,262.0,939.0,0.0,1,3799.0,1
729,729,0.8330292300814589,0.8,1.0,1.0,337.0,953.0,0.0,0,3710.0,0
730,730,-0.7829002572237092,-0.8,1.0,0.0,477.0,946.0,0.0,0,3577.0,1
731,731,0.6002710304054971,0.6,0.0,0.0,258.0,636.0,0.0,1,4106.0,1
732,732,-0.6995031496076402,-0.7,1.0,0.0,306.0,975.0,0.0,0,3719.0,1
733,733,0.7564939918115275,0.8,1.0,1.0,344.0,776.0,0.0,0,3880.0,0
734,734,-0.1342654275832641,-0.1,1.0,0.0,302.0,886.0,0.0,0,3812.0,1
735,735,-0.46963360316014435,-0.5,1.0,0.0,468.0,768.0,0.0,0,3764.0,1
736,736,-0.38313592110336303,-0.4,0.0,1.0,487.0,802.0,0.0,1,3711.0,0
737,737,0.7596993758351577,0.8,0.0,0.0,451.0,673.0,0.0,1,3876.0,1
738,738,-0.49883390306424796,-0.5,1.0,0.0,375.0,974.0,0.0,0,-1249.0,1
739,739,-0.31994692382651424,-0.3,0.0,1.0,446.0,742.0,0.0,1,3812.0,0
740,740,-0.718099687063761,-0.7,1.0,0.0,356.0,829.0,0.0,0,3815.0,1
741,741,0.2730353914818703,0.3,0.0,0.0,386.0,704.0,0.0,1,3910.0,1
742,742,0.8262936341314405,0.8,1.0,1.0,463.0,805.0,0.0,0,3732.0,0
743,743,0.0886296027361263,0.1,1.0,1.0,340.0,697.0,0.0,0,3963.0,0
744,744,-0.8825273342806782,-0.9,0.0,1.0,273.0,510.0,0.0,1,4217.0,0
745,745,-0.049285307846852144,-0.0,0.0,1.0,389.0,587.0,0.0,1,4024.0,0
746,746,-0.7317061699501084,-0.7,0.0,1.0,482.0,959.0,0.0,1,3559.0,0
747,747,0.6641529061911243,0.7,1.0,1.0,462.0,670.0,0.0,0,3868.0,0
748,748,0.25222181261238996,0.3,1.0,1.0,465.0,846.0,0.0,0,3689.0,0
749,749,0.4577432813319885,0.5,0.0,0.0,310.0,540.0,0.0,1,4150.0,1
750,750,-0.2721942398656234,-0.3,1.0,0.0,411.0,531.0,1.0,1,-902.0,0
751,751,-0.7598208093983836,-0.8,1.0,0.0,472.0,849.0,0.0,0,3679.0,1
752,752,0.6208727390537027,0.6,0.0,0.0,467.0,769.0,0.0,1,3764.0,1
753,753,0.1065011237550425,0.1,0.0,0.0,409.0,947.0,0.0,1,3644.0,1
754,754,-0.17032254202133434,-0.2,1.0,0.0,385.0,925.0,0.0,0,3690.0,1
755,755,0.10347794391487841,0.1,1.0,1.0,279.0,759.0,0.0,0,3962.0,0
756,756,-0.8405194369501499,-0.8,0.0,1.0,336.0,851.0,0.0,1,3813.0,0
757,757,0.6809446960112825,0.7,1.0,1.0,489.0,915.0,0.0,0,3596.0,0
758,758,-0.2792931336687374,-0.3,1.0,0.0,433.0,761.0,0.0,0,3806.0,1
759,759,0.5401769221895801,0.5,0.0,0.0,442.0,963.0,0.0,1,3595.0,1
760,760,-0.045661839963132445,-0.0,0.0,1.0,441.0,960.0,0.0,1,3599.0,0
761,761,-0.8543460826828463,-0.9,1.0,0.0,404.0,841.0,0.0,0,3755.0,1
762,762,0.11223022212146938,0.1,0.0,0.0,310.0,587.0,0.0,1,4103.0,1
763,763,-0.8973368357733574,-0.9,1.0,0.0,389.0,697.0,0.0,0,3914.0,1
764,764,0.6989837766318755,0.7,1.0,1.0,272.0,959.0,0.0,0,3769.0,0
765,765,-0.00513772878321106,-0.0,1.0,0.0,332.0,503.0,0.0,0,4165.0,1
766,766,0.06437117888601929,0.1,1.0,1.0,473.0,687.0,0.0,0,3840.0,0
767,767,-0.6092909679400619,-0.6,1.0,0.0,481.0,647.0,0.0,0,3872.0,1
768,768,-0.3723558179934189,-0.4,0.0,1.0,287.0,932.0,0.0,1,-1049.0,0
769,769,-0.41865025750241425,-0.4,0.0,1.0,338.0,830.0,0.0,1,3832.0,0
770,770,-0.15474614185487623,-0.2,1.0,0.0,348.0,874.0,0.0,0,3778.0,1
771,771,0.7370327552505754,0.7,1.0,1.0,285.0,694.0,0.0,0,4021.0,0
772,772,0.4116265991364897,0.4,0.0,0.0,430.0,972.0,0.0,1,3598.0,1
773,773,0.19936397628440694,0.2,0.0,0.0,372.0,807.0,0.0,1,3821.0,1
774,774,-0.3179147529934687,-0.3,0.0,1.0,301.0,501.0,0.0,1,4198.0,0
775,775,-0.050608992672574904,-0.1,1.0,0.0,259.0,793.0,0.0,0,3948.0,1
776,776,-0.44349063340174777,-0.4,1.0,0.0,435.0,591.0,0.0,0,3974.0,1
777,777,-0.033228801474243785,-0.0,1.0,0.0,275.0,533.0,0.0,0,4192.0,1
778,778,-0.0801848449236714,-0.1,1.0,0.0,412.0,502.0,0.0,0,4086.0,1
779,779,0.39834395617100216,0.4,1.0,1.0,340.0,531.0,0.0,0,4129.0,0
780,780,-0.8168224243301345,-0.8,0.0,1.0,478.0,983.0,0.0,1,-1211.0,0
781,781,0.5657903286941007,0.6,0.0,0.0,263.0,796.0,0.0,1,-1049.0,1
782,782,-0.002091737314424469,-0.0,0.0,1.0,409.0,775.0,0.0,1,3816.0,0
783,783,0.44257521598746374,0.4,0.0,0.0,273.0,807.0,0.0,1,3920.0,1
784,784,0.23197008161427102,0.2,1.0,1.0,434.0,874.0,0.0,0,3692.0,0
785,785,0.3072291827582011,0.3,1.0,1.0,340.0,886.0,0.0,0,3774.0,0
786,786,0.8355259230525426,0.8,1.0,1.0,416.0,889.0,0.0,0,3695.0,0
787,787,-0.608957781612692,-0.6,1.0,0.0,454.0,507.0,0.0,0,4039.0,1
788,788,0.8043641555531861,0.8,0.0,0.0,311.0,806.0,0.0,1,3883.0,1
789,789,-0.7690580599263616,-0.8,0.0,1.0,461.0,842.0,0.0,1,3697.0,0
790,790,-0.563981611831001,-0.6,1.0,0.0,290.0,746.0,0.0,0,3964.0,1
791,791,0.3820050885119527,0.4,0.0,0.0,269.0,533.0,0.0,1,4198.0,1
792,792,0.3494047742126395,0.3,0.0,0.0,414.0,602.0,0.0,1,3984.0,1
793,793,-0.5028761658763388,-0.5,1.0,0.0,374.0,502.0,0.0,0,4124.0,1
794,794,0.7845553218056506,0.8,1.0,1.0,314.0,912.0,0.0,0,3774.0,0
795,795,-0.3381412281764443,-0.3,1.0,0.0,379.0,668.0,1.0,1,-1017.0,0
796,796,0.5076939834111068,0.5,0.0,0.0,343.0,974.0,0.0,1,3683.0,1
797,797,-0.3719784026971451,-0.4,0.0,1.0,446.0,581.0,0.0,1,3973.0,0
798,798,0.5530460683475719,0.6,0.0,0.0,261.0,614.0,0.0,1,4125.0,1
799,799,-0.36815023594061935,-0.4,0.0,1.0,401.0,888.0,0.0,1,3711.0,0
800,800,-0.8481260834482006,-0.8,0.0,1.0,478.0,701.0,0.0,1,3821.0,0
801,801,-0.805219961758601,-0.8,0.0,1.0,310.0,871.0,0.0,1,3819.0,0
802,802,-0.26565684886212293,-0.3,1.0,0.0,458.0,942.0,0.0,0,3600.0,1
803,803,0.7807220252651857,0.8,1.0,1.0,265.0,657.0,0.0,0,4078.0,0
804,804,0.6731018013341413,0.7,1.0,1.0,338.0,738.0,0.0,0,3924.0,0
805,805,0.5185390383647684,0.5,0.0,0.0,277.0,753.0,0.0,1,3970.0,1
806,806,-0.12121025321946288,-0.1,0.0,1.0,447.0,674.0,0.0,1,3879.0,0
807,807,0.7393663404882741,0.7,0.0,0.0,261.0,618.0,0.0,1,4121.0,1
808,808,0.1602808534012582,0.2,1.0,1.0,293.0,876.0,0.0,0,3831.0,0
809,809,0.032510772103408137,0.0,0.0,0.0,316.0,517.0,0.0,1,4167.0,1
810,810,0.6137438823647129,0.6,1.0,1.0,445.0,747.0,0.0,0,3808.0,0
811,811,-0.44031151044421357,-0.4,0.0,1.0,287.0,729.0,1.0,0,-986.0,1
812,812,0.45819792298942874,0.5,1.0,1.0,276.0,657.0,0.0,0,4067.0,0
813,813,0.5143221672486372,0.5,0.0,0.0,389.0,566.0,0.0,1,4045.0,1
814,814,0.83717034205805,0.8,0.0,0.0,462.0,718.0,0.0,1,3820.0,1
815,815,0.5788082858215405,0.6,1.0,1.0,483.0,962.0,0.0,0,3555.0,0
816,816,-0.07838323282444348,-0.1,0.0,1.0,253.0,570.0,1.0,0,-803.0,1
817,817,-0.8484223313606833,-0.8,0.0,1.0,412.0,714.0,1.0,0,-1076.0,1
818,818,-0.5533804200214191,-0.6,1.0,0.0,397.0,788.0,0.0,0,3815.0,1
819,819,0.20861864376773698,0.2,0.0,0.0,399.0,893.0,0.0,1,3708.0,1
820,820,0.6400408382398867,0.6,0.0,0.0,350.0,614.0,0.0,1,4036.0,1
821,821,-0.5675191318677812,-0.6,0.0,1.0,472.0,925.0,0.0,1,3603.0,0
822,822,0.7867158416005539,0.8,1.0,1.0,426.0,838.0,0.0,0,3736.0,0
823,823,-0.4788389042794762,-0.5,1.0,0.0,404.0,529.0,0.0,0,4067.0,1
824,824,-0.3349504076181128,-0.3,0.0,1.0,324.0,944.0,0.0,1,3732.0,0
825,825,-0.5144896681894264,-0.5,1.0,0.0,370.0,923.0,0.0,0,3707.0,1
826,826,-0.7380002545491422,-0.7,1.0,0.0,363.0,990.0,0.0,0,3647.0,1
827,827,0.06948016578611738,0.1,0.0,0.0,409.0,840.0,0.0,1,3751.0,1
828,828,-0.5687969897070009,-0.6,1.0,0.0,432.0,731.0,0.0,0,3837.0,1
829,829,0.027234747568262052,0.0,0.0,0.0,452.0,752.0,1.0,0,-1194.0,0
830,830,0.20455122734779352,0.2,1.0,1.0,407.0,889.0,0.0,0,3704.0,0
831,831,0.5071921987635665,0.5,0.0,0.0,403.0,514.0,0.0,1,4083.0,1
832,832,-0.7564798810224345,-0.8,0.0,1.0,470.0,895.0,0.0,1,3635.0,0
833,833,0.7738373773233626,0.8,0.0,0.0,430.0,678.0,0.0,1,3892.0,1
834,834,-0.19314884138925403,-0.2,1.0,0.0,467.0,581.0,0.0,0,3952.0,1
835,835,0.11988080472199669,0.1,0.0,0.0,446.0,933.0,0.0,1,3621.0,1
836,836,-0.8246199712537364,-0.8,0.0,1.0,378.0,905.0,0.0,1,3717.0,0
837,837,0.5112314744968908,0.5,1.0,1.0,442.0,628.0,0.0,0,3930.0,0
838,838,0.050582296826489626,0.1,1.0,1.0,459.0,734.0,0.0,0,3807.0,0
839,839,0.7887415960680625,0.8,1.0,1.0,460.0,946.0,0.0,0,3594.0,0
840,840,-0.7759541754214191,-0.8,0.0,1.0,453.0,852.0,0.0,1,-1235.0,0
841,841,-0.6770219129325222,-0.7,0.0,1.0,256.0,791.0,0.0,1,3953.0,0
842,842,-0.4250090692226742,-0.4,0.0,1.0,294.0,891.0,0.0,1,3815.0,0
843,843,0.8415036126664569,0.8,0.0,0.0,323.0,667.0,0.0,1,4010.0,1
844,844,0.8325056817907516,0.8,1.0,1.0,394.0,567.0,0.0,0,4039.0,0
845,845,-0.04540454418639639,-0.0,0.0,1.0,399.0,699.0,0.0,1,3902.0,0
846,846,-0.6589459577019093,-0.7,1.0,0.0,499.0,711.0,1.0,1,-1030.0,0
847,847,-0.7389539854562249,-0.7,0.0,1.0,431.0,749.0,0.0,1,3820.0,0
848,848,-0.4360638343288127,-0.4,1.0,0.0,271.0,975.0,0.0,0,3754.0,1
849,849,0.4382695868461205,0.4,1.0,1.0,257.0,653.0,0.0,0,4090.0,0
850,850,-0.8103219967205825,-0.8,0.0,1.0,398.0,721.0,0.0,1,3881.0,0
851,851,-0.8232113109749999,-0.8,0.0,1.0,470.0,713.0,0.0,1,3817.0,0
852,852,0.02335218908961345,0.0,1.0,1.0,404.0,630.0,0.0,0,-884.0,0
853,853,0.7575237597027312,0.8,1.0,1.0,397.0,832.0,0.0,0,3771.0,0
854,854,0.43820465302561395,0.4,1.0,1.0,467.0,651.0,0.0,0,3882.0,0
855,855,-0.040543483001474256,-0.0,1.0,0.0,290.0,796.0,0.0,0,3914.0,1
856,856,0.09757551702877576,0.1,1.0,1.0,300.0,976.0,0.0,0,3724.0,0
857,857,-0.5909666713642966,-0.6,1.0,0.0,358.0,543.0,0.0,0,4099.0,1
858,858,0.06427357675457446,0.1,1.0,1.0,350.0,902.0,0.0,0,3748.0,0
859,859,0.5664115036637122,0.6,0.0,0.0,482.0,809.0,0.0,1,3709.0,1
860,860,-0.7003535344943665,-0.7,1.0,0.0,469.0,657.0,0.0,0,3874.0,1
861,861,-0.6641347540617853,-0.7,0.0,1.0,281.0,845.0,0.0,1,-1056.0,0
862,862,0.8799045518666607,0.9,1.0,1.0,445.0,636.0,0.0,0,3919.0,0
863,863,-0.5982364685002909,-0.6,1.0,0.0,310.0,755.0,0.0,0,3935.0,1
864,864,0.1793184365415278,0.2,0.0,0.0,430.0,516.0,0.0,1,4054.0,1
865,865,0.37252629742171217,0.4,1.0,1.0,351.0,640.0,0.0,0,-811.0,0
866,866,0.24982126814334948,0.2,1.0,1.0,252.0,621.0,0.0,0,4127.0,0
867,867,-0.5606592176934297,-0.6,1.0,0.0,270.0,519.0,0.0,0,4211.0,1
868,868,0.633951619858847,0.6,0.0,0.0,306.0,681.0,0.0,1,4013.0,1
869,869,-0.21119408673836293,-0.2,1.0,0.0,453.0,686.0,0.0,0,3861.0,1
870,870,0.3264457345886137,0.3,1.0,1.0,363.0,672.0,0.0,0,3965.0,0
871,871,-0.7204834726803973,-0.7,1.0,0.0,257.0,760.0,0.0,0,3983.0,1
872,872,-0.331014715884025,-0.3,0.0,1.0,453.0,811.0,0.0,1,3736.0,0
873,873,-0.08434564025821367,-0.1,1.0,0.0,490.0,832.0,0.0,0,3678.0,1
874,874,-0.0366094025047673,-0.0,1.0,0.0,446.0,510.0,0.0,0,4044.0,1
875,875,-0.4871149650329651,-0.5,1.0,0.0,470.0,608.0,0.0,0,3922.0,1
876,876,0.12003043838857608,0.1,0.0,0.0,471.0,725.0,0.0,1,3804.0,1
877,877,-0.039537941870432025,-0.0,0.0,1.0,339.0,734.0,0.0,1,3927.0,0
878,878,-0.2786499797052958,-0.3,0.0,1.0,479.0,948.0,0.0,1,3573.0,0
879,879,0.1915267342936834,0.2,0.0,0.0,487.0,775.0,0.0,1,3738.0,1
880,880,0.34156227233946035,0.3,0.0,0.0,259.0,590.0,0.0,1,4151.0,1
881,881,0.18192588584703617,0.2,0.0,0.0,300.0,917.0,0.0,1,-1177.0,1
882,882,0.1782864527996676,0.2,1.0,1.0,422.0,710.0,0.0,0,3868.0,0
883,883,-0.671026370398276,-0.7,1.0,0.0,377.0,807.0,0.0,0,-1154.0,1
884,884,-0.17127867064578928,-0.2,0.0,1.0,413.0,549.0,0.0,1,4038.0,0
885,885,0.18588690277079645,0.2,1.0,1.0,471.0,591.0,0.0,0,3938.0,0
886,886,0.6356946052397955,0.6,1.0,1.0,353.0,659.0,0.0,0,-992.0,0
887,887,-0.7639393028002021,-0.8,0.0,1.0,450.0,982.0,0.0,1,3568.0,0
888,888,0.3306400818551839,0.3,0.0,0.0,358.0,830.0,0.0,1,3812.0,1
889,889,-0.4644742531595127,-0.5,1.0,0.0,491.0,611.0,0.0,0,3898.0,1
890,890,-0.09591128546711802,-0.1,1.0,0.0,489.0,936.0,0.0,0,3575.0,1
891,891,0.18203997562575813,0.2,1.0,1.0,293.0,924.0,0.0,0,3783.0,0
892,892,0.7692861258719031,0.8,1.0,1.0,255.0,510.0,0.0,0,4235.0,0
893,893,-0.5321126726304852,-0.5,1.0,0.0,292.0,723.0,0.0,0,3985.0,1
894,894,0.018337884972711382,0.0,1.0,1.0,340.0,529.0,0.0,0,4131.0,0
895,895,-0.8004944018681636,-0.8,0.0,1.0,493.0,713.0,0.0,1,3794.0,0
896,896,0.28618694584273097,0.3,1.0,1.0,474.0,663.0,0.0,0,3863.0,0
897,897,0.8284939314894862,0.8,1.0,1.0,374.0,722.0,0.0,0,3904.0,0
898,898,-0.4547171630539173,-0.5,0.0,1.0,298.0,845.0,0.0,1,3857.0,0
899,899,0.2713166376417352,0.3,0.0,0.0,264.0,967.0,0.0,1,3769.0,1
900,900,-0.05109167280995308,-0.1,0.0,1.0,467.0,581.0,0.0,1,3952.0,0
901,901,0.6058542982592193,0.6,0.0,0.0,489.0,763.0,0.0,1,3748.0,1
902,902,-0.2992571015546531,-0.3,1.0,0.0,350.0,591.0,0.0,0,4059.0,1
903,903,-0.11710830505195591,-0.1,1.0,0.0,385.0,712.0,0.0,0,3903.0,1
904,904,0.017609518608507235,0.0,0.0,0.0,428.0,534.0,0.0,1,4038.0,1
905,905,0.2781455678952972,0.3,0.0,0.0,495.0,966.0,0.0,1,3539.0,1
906,906,-0.320880012165331,-0.3,0.0,1.0,328.0,554.0,0.0,1,4118.0,0
907,907,0.13041934049378956,0.1,1.0,1.0,379.0,962.0,0.0,0,3659.0,0
908,908,0.2654120485542434,0.3,0.0,0.0,486.0,895.0,0.0,1,3619.0,1
909,909,0.8391591543212443,0.8,0.0,0.0,468.0,500.0,1.0,0,-968.0,0
910,910,0.744463403786258,0.7,0.0,0.0,368.0,578.0,0.0,1,4054.0,1
911,911,0.278799803483169,0.3,1.0,1.0,410.0,749.0,0.0,0,3841.0,0
912,912,0.15566423294525011,0.2,0.0,0.0,479.0,525.0,0.0,1,3996.0,1
913,913,0.5562001937242206,0.6,1.0,1.0,454.0,603.0,0.0,0,3943.0,0
914,914,-0.5556374969879323,-0.6,1.0,0.0,450.0,606.0,0.0,0,3944.0,1
915,915,-0.7353859783376177,-0.7,1.0,0.0,452.0,713.0,0.0,0,3835.0,1
916,916,0.2553023960170998,0.3,0.0,0.0,468.0,541.0,0.0,1,3991.0,1
917,917,0.2719719350755766,0.3,1.0,1.0,442.0,906.0,0.0,0,3652.0,0
918,918,-0.32423649071712335,-0.3,0.0,1.0,449.0,742.0,1.0,0,-1011.0,1
919,919,-0.455472979127463,-0.5,1.0,0.0,267.0,589.0,0.0,0,4144.0,1
920,920,-0.48874796544651916,-0.5,1.0,0.0,318.0,796.0,0.0,0,3886.0,1
921,921,-0.5680019126829841,-0.6,1.0,0.0,397.0,539.0,0.0,0,4064.0,1
922,922,-0.2830116954326558,-0.3,1.0,0.0,475.0,920.0,0.0,0,3605.0,1
923,923,0.24028483817337276,0.2,1.0,1.0,380.0,827.0,0.0,0,3793.0,0
924,924,-0.21075852471885914,-0.2,1.0,0.0,397.0,889.0,0.0,0,3714.0,1
925,925,0.6060420845366014,0.6,1.0,1.0,346.0,811.0,0.0,0,3843.0,0
926,926,-0.42914918835467175,-0.4,1.0,0.0,409.0,999.0,0.0,0,3592.0,1
927,927,-0.3242187448253313,-0.3,1.0,0.0,393.0,743.0,0.0,0,3864.0,1
928,928,0.5717194786043199,0.6,1.0,1.0,283.0,663.0,0.0,0,4054.0,0
929,929,0.36208692689164235,0.4,0.0,0.0,291.0,944.0,0.0,1,3765.0,1
930,930,0.576350637182573,0.6,1.0,1.0,463.0,827.0,0.0,0,3710.0,0
931,931,-0.6647774308382043,-0.7,0.0,1.0,378.0,864.0,0.0,1,3758.0,0
932,932,0.3042913268712871,0.3,0.0,0.0,302.0,778.0,0.0,1,3920.0,1
933,933,-0.8191847015580648,-0.8,0.0,1.0,444.0,827.0,0.0,1,3729.0,0
934,934,-0.12330782016165842,-0.1,0.0,1.0,260.0,729.0,0.0,1,4011.0,0
935,935,-0.4656487388069832,-0.5,1.0,0.0,463.0,908.0,0.0,0,3629.0,1
936,936,-0.03984018824116531,-0.0,0.0,1.0,457.0,646.0,0.0,1,3897.0,0
937,937,0.7192510778479936,0.7,1.0,1.0,478.0,862.0,0.0,0,3660.0,0
938,938,-0.4657435555213963,-0.5,0.0,1.0,271.0,804.0,0.0,1,3925.0,0
939,939,0.46875416446062623,0.5,1.0,1.0,431.0,739.0,0.0,0,3830.0,0
940,940,-0.5068002420056377,-0.5,0.0,1.0,456.0,706.0,0.0,1,3838.0,0
941,941,-0.0838349721579652,-0.1,0.0,1.0,297.0,623.0,0.0,1,4080.0,0
942,942,-0.6016780772821126,-0.6,0.0,1.0,374.0,625.0,0.0,1,4001.0,0
943,943,0.6691555017334866,0.7,1.0,1.0,338.0,706.0,0.0,0,3956.0,0
944,944,0.203815000495008,0.2,0.0,0.0,388.0,927.0,1.0,0,-1215.0,0
945,945,-0.796774777975781,-0.8,0.0,1.0,440.0,780.0,0.0,1,3780.0,0
946,946,-0.31847954959043545,-0.3,1.0,0.0,455.0,567.0,0.0,0,3978.0,1
947,947,-0.4327101217148958,-0.4,0.0,1.0,337.0,562.0,0.0,1,4101.0,0
948,948,-0.48091734453749824,-0.5,0.0,1.0,361.0,635.0,1.0,0,-906.0,1
949,949,0.05892931963465109,0.1,1.0,1.0,316.0,616.0,0.0,0,4068.0,0
950,950,0.8571881780830409,0.9,1.0,1.0,321.0,559.0,1.0,1,-800.0,1
951,951,-0.2871907466344137,-0.3,0.0,1.0,350.0,758.0,0.0,1,3892.0,0
952,952,0.37440526330407475,0.4,0.0,0.0,492.0,854.0,0.0,1,3654.0,1
953,953,0.48371378949010924,0.5,1.0,1.0,294.0,787.0,0.0,0,3919.0,0
954,954,-0.44469124818288003,-0.4,1.0,0.0,388.0,542.0,1.0,1,-910.0,0
955,955,0.002185205757765596,0.0,1.0,1.0,486.0,872.0,0.0,0,3642.0,0
956,956,-0.8219296633371341,-0.8,0.0,1.0,406.0,946.0,0.0,1,3648.0,0
957,957,0.13381493891092566,0.1,0.0,0.0,386.0,709.0,0.0,1,3905.0,1
958,958,-0.2580512856473617,-0.3,1.0,0.0,360.0,828.0,0.0,0,3812.0,1
959,959,0.5839840139587359,0.6,1.0,1.0,439.0,935.0,0.0,0,3626.0,0
960,960,-0.11941144948970761,-0.1,1.0,0.0,478.0,654.0,0.0,0,3868.0,1
961,961,0.8107179332621562,0.8,1.0,1.0,438.0,982.0,0.0,0,3580.0,0
962,962,0.6065076287933323,0.6,0.0,0.0,380.0,636.0,0.0,1,3984.0,1
963,963,0.7636574476980041,0.8,1.0,1.0,339.0,590.0,0.0,0,4071.0,0
964,964,-0.8147222110938284,-0.8,1.0,0.0,392.0,702.0,0.0,0,3906.0,1
965,965,-0.4787696190478246,-0.5,1.0,0.0,285.0,584.0,0.0,0,4131.0,1
966,966,-0.6732113557437047,-0.7,0.0,1.0,421.0,982.0,0.0,1,3597.0,0
967,967,0.6700851425460544,0.7,0.0,0.0,365.0,844.0,0.0,1,3791.0,1
968,968,-0.7816662674304372,-0.8,0.0,1.0,461.0,909.0,1.0,0,-1210.0,1
969,969,0.2636908477996994,0.3,1.0,1.0,291.0,568.0,0.0,0,4141.0,0
970,970,-0.4168062153107324,-0.4,0.0,1.0,356.0,741.0,0.0,1,3903.0,0
971,971,-0.2803310747112874,-0.3,1.0,0.0,263.0,693.0,0.0,0,4044.0,1
972,972,-0.6723789088981322,-0.7,0.0,1.0,320.0,659.0,0.0,1,4021.0,0
973,973,-0.6965840516895105,-0.7,0.0,1.0,343.0,711.0,0.0,1,3946.0,0
974,974,0.3712894221711164,0.4,0.0,0.0,300.0,788.0,0.0,1,3912.0,1
975,975,0.44048937394494947,0.4,0.0,0.0,406.0,582.0,0.0,1,4012.0,1
976,976,-0.12461952410579824,-0.1,0.0,1.0,343.0,575.0,0.0,1,4082.0,0
977,977,-0.6400822589144234,-0.6,1.0,0.0,439.0,540.0,1.0,1,-949.0,0
978,978,-0.7218753796018773,-0.7,1.0,0.0,426.0,974.0,0.0,0,3600.0,1
979,979,0.04914719899488662,0.0,0.0,0.0,428.0,876.0,0.0,1,3696.0,1
980,980,-0.20370997182013117,-0.2,0.0,1.0,340.0,622.0,0.0,1,4038.0,0
981,981,0.5394272417541167,0.5,0.0,0.0,487.0,916.0,0.0,1,3597.0,1
982,982,0.6257956950377576,0.6,0.0,0.0,355.0,786.0,0.0,1,3859.0,1
983,983,-0.10641822334765905,-0.1,0.0,1.0,268.0,647.0,0.0,1,4085.0,0
984,984,-0.18202812790083578,-0.2,0.0,1.0,470.0,706.0,0.0,1,3824.0,0
985,985,0.7302425468667414,0.7,1.0,1.0,257.0,529.0,1.0,1,-766.0,1
986,986,0.27066896450362365,0.3,0.0,0.0,333.0,666.0,0.0,1,4001.0,1
987,987,0.05607969695466508,0.1,1.0,1.0,388.0,833.0,0.0,0,3779.0,0
988,988,-0.12853727736958287,-0.1,1.0,0.0,439.0,775.0,0.0,0,3786.0,1
989,989,-0.3511892352711443,-0.4,1.0,0.0,393.0,972.0,1.0,1,-1305.0,0
990,990,-0.40126083360140435,-0.4,0.0,1.0,315.0,849.0,0.0,1,3836.0,0
991,991,-0.8404496626109347,-0.8,0.0,1.0,334.0,694.0,0.0,1,3972.0,0
992,992,-0.6616876680892229,-0.7,0.0,1.0,468.0,889.0,0.0,1,3643.0,0
993,993,-0.48459371047296446,-0.5,0.0,1.0,315.0,935.0,1.0,0,-1160.0,1
994,994,0.6607368522395539,0.7,1.0,1.0,280.0,787.0,0.0,0,3933.0,0
995,995,0.7194946175230846,0.7,1.0,1.0,401.0,980.0,0.0,0,3619.0,0
996,996,-0.5450742501392416,-0.5,1.0,0.0,357.0,733.0,0.0,0,3910.0,1
997,997,0.20911207187782554,0.2,0.0,0.0,426.0,568.0,0.0,1,4006.0,1
998,998,0.3223040046964424,0.3,0.0,0.0,383.0,763.0,0.0,1,3854.0,1
999,999,0.7751427511380607,0.8,1.0,1.0,269.0,906.0,0.0,0,3825.0,0
1000,1000,-0.2806031179153261,-0.3,0.0,1.0,313.0,553.0,0.0,1,4134.0,0
1001,1001,0.4967096629830027,0.5,0.0,0.0,311.0,531.0,0.0,1,4158.0,1
1002,1002,-0.5880544502481229,-0.6,1.0,0.0,419.0,886.0,0.0,0,3695.0,1
1003,1003,0.3960894929303621,0.4,0.0,0.0,465.0,506.0,0.0,1,-731.0,1
1004,1004,0.4509999395819463,0.5,0.0,0.0,307.0,707.0,0.0,1,3986.0,1
1005,1005,0.6821164593045995,0.7,1.0,1.0,297.0,655.0,0.0,0,4048.0,0
1006,1006,0.1541438289022271,0.2,1.0,1.0,369.0,620.0,0.0,0,4011.0,0
1007,1007,0.1554840064920312,0.2,1.0,1.0,337.0,948.0,0.0,0,3715.0,0
1008,1008,-0.04219957314427192,-0.0,0.0,1.0,347.0,841.0,0.0,1,3812.0,0
1009,1009,0.22418514713299775,0.2,0.0,0.0,455.0,677.0,0.0,1,3868.0,1
1010,1010,0.7177602013382566,0.7,0.0,0.0,361.0,591.0,0.0,1,4048.0,1
1011,1011,0.6746519717704825,0.7,0.0,0.0,303.0,619.0,1.0,0,-732.0,0
1012,1012,0.21877725906806134,0.2,0.0,0.0,411.0,742.0,0.0,1,3847.0,1
1013,1013,-0.37414184047579235,-0.4,1.0,0.0,472.0,551.0,0.0,0,3977.0,1
1014,1014,-0.4953207387932361,-0.5,0.0,1.0,423.0,683.0,0.0,1,3894.0,0
1015,1015,-0.005449120432937105,-0.0,1.0,0.0,414.0,872.0,0.0,0,3714.0,1
1016,1016,0.121346058475439,0.1,1.0,1.0,372.0,595.0,0.0,0,4033.0,0
1017,1017,0.8899220156653774,0.9,1.0,1.0,344.0,818.0,0.0,0,3838.0,0
1018,1018,0.43142866132340807,0.4,1.0,1.0,290.0,819.0,0.0,0,3891.0,0
1019,1019,0.5130213305656007,0.5,1.0,1.0,348.0,586.0,1.0,1,-814.0,1
1020,1020,0.4323798698406237,0.4,0.0,0.0,396.0,517.0,0.0,1,4087.0,1
1021,1021,-0.11010133353264273,-0.1,1.0,0.0,403.0,901.0,0.0,0,3696.0,1
1022,1022,-0.5163882307775975,-0.5,0.0,1.0,421.0,586.0,1.0,0,-917.0,1
1023,1023,-0.66157211571292,-0.7,0.0,1.0,298.0,646.0,0.0,1,4056.0,0
1024,1024,0.6596141856645804,0.7,0.0,0.0,430.0,754.0,0.0,1,3816.0,1
1025,1025,0.3226029933392144,0.3,0.0,0.0,382.0,793.0,0.0,1,3825.0,1
1026,1026,0.20472290998577514,0.2,1.0,1.0,497.0,869.0,1.0,1,-1316.0,1
1027,1027,-0.8087749524210751,-0.8,0.0,1.0,343.0,816.0,1.0,0,-1159.0,1
1028,1028,0.6888345255481049,0.7,0.0,0.0,430.0,664.0,0.0,1,3906.0,1
1029,1029,0.8518273101254191,0.9,0.0,0.0,257.0,728.0,0.0,1,4015.0,1
1030,1030,-0.8956229837955654,-0.9,1.0,0.0,405.0,628.0,0.0,0,3967.0,1
1031,1031,0.4851389956070281,0.5,1.0,1.0,431.0,994.0,0.0,0,3575.0,0
1032,1032,0.5607969972499046,0.6,1.0,1.0,250.0,766.0,0.0,0,3984.0,0
1033,1033,-0.20454179907349046,-0.2,0.0,1.0,341.0,994.0,0.0,1,3665.0,0
1034,1034,-0.1300137380519154,-0.1,0.0,1.0,257.0,911.0,0.0,1,3832.0,0
1035,1035,-0.3176889061070187,-0.3,0.0,1.0,466.0,547.0,0.0,1,3987.0,0
1036,1036,-0.31382523180037525,-0.3,0.0,1.0,287.0,947.0,0.0,1,3766.0,0
1037,1037,0.13069446056224898,0.1,1.0,1.0,413.0,861.0,1.0,1,-1084.0,1
1038,1038,-0.11033220007691158,-0.1,0.0,1.0,463.0,993.0,0.0,1,3544.0,0
1039,1039,0.5577645605601248,0.6,0.0,0.0,330.0,839.0,0.0,1,3831.0,1
1040,1040,0.6247179878758614,0.6,0.0,0.0,311.0,695.0,0.0,1,3994.0,1
1041,1041,0.3259596690043708,0.3,1.0,1.0,402.0,590.0,0.0,0,4008.0,0
1042,1042,-0.4302522328113447,-0.4,0.0,1.0,382.0,536.0,0.0,1,4082.0,0
1043,1043,-0.791010542706944,-0.8,1.0,0.0,287.0,743.0,0.0,0,3970.0,1
1044,1044,-0.4716361550952903,-0.5,1.0,0.0,435.0,600.0,0.0,0,3965.0,1
1045,1045,0.14081702971976362,0.1,1.0,1.0,405.0,501.0,0.0,0,4094.0,0
1046,1046,-0.4761384834660722,-0.5,0.0,1.0,329.0,639.0,0.0,1,4032.0,0
1047,1047,0.6927017502640685,0.7,1.0,1.0,258.0,787.0,0.0,0,3955.0,0
1048,1048,-0.3833923488320631,-0.4,0.0,1.0,395.0,640.0,1.0,0,-995.0,1
1049,1049,-0.06913472154869327,-0.1,1.0,0.0,288.0,984.0,0.0,0,3728.0,1
1050,1050,-0.1844151483713995,-0.2,0.0,1.0,384.0,690.0,1.0,0,-954.0,1
1051,1051,0.16426625204419742,0.2,0.0,0.0,300.0,658.0,0.0,1,4042.0,1
1052,1052,-0.3636470980846268,-0.4,1.0,0.0,264.0,853.0,0.0,0,3883.0,1
1053,1053,-0.7945892854866512,-0.8,1.0,0.0,452.0,605.0,0.0,0,3943.0,1
1054,1054,-0.8845142454868835,-0.9,1.0,0.0,416.0,511.0,0.0,0,4073.0,1
1055,1055,-0.581806661475045,-0.6,1.0,0.0,463.0,995.0,1.0,1,-1238.0,0
1056,1056,0.4749533577719952,0.5,0.0,0.0,366.0,881.0,1.0,0,-1227.0,0
1057,1057,-0.18298113778482183,-0.2,1.0,0.0,384.0,562.0,0.0,0,-886.0,1
1058,1058,0.6908132767455971,0.7,1.0,1.0,416.0,581.0,0.0,0,4003.0,0
1059,1059,0.13623469317793757,0.1,0.0,0.0,395.0,643.0,0.0,1,3962.0,1
1060,1060,0.6146636927277219,0.6,1.0,1.0,409.0,607.0,0.0,0,3984.0,0
1061,1061,-0.8891365861184568,-0.9,1.0,0.0,274.0,684.0,0.0,0,-838.0,1
1062,1062,0.8390924897583009,0.8,1.0,1.0,364.0,520.0,0.0,0,4116.0,0
1063,1063,-0.23389734792012962,-0.2,1.0,0.0,386.0,992.0,0.0,0,3622.0,1
1064,1064,-0.39629207241951525,-0.4,1.0,0.0,450.0,955.0,0.0,0,3595.0,1
1065,1065,0.7773522330914812,0.8,1.0,1.0,394.0,565.0,0.0,0,4041.0,0
1066,1066,0.31810007669522566,0.3,1.0,1.0,409.0,989.0,0.0,0,3602.0,0
1067,1067,0.8086334759127328,0.8,1.0,1.0,474.0,813.0,0.0,0,3713.0,0
1068,1068,0.5521556061887615,0.6,1.0,1.0,436.0,941.0,0.0,0,3623.0,0
1069,1069,0.5738832399530974,0.6,0.0,0.0,452.0,951.0,0.0,1,-1333.0,1
1070,1070,0.06254029808691797,0.1,0.0,0.0,435.0,676.0,0.0,1,3889.0,1
1071,1071,-0.8937276377631795,-0.9,1.0,0.0,475.0,617.0,0.0,0,3908.0,1
1072,1072,0.2748087325558225,0.3,0.0,0.0,329.0,547.0,0.0,1,4124.0,1
1073,1073,0.40286042621294127,0.4,1.0,1.0,251.0,514.0,0.0,0,4235.0,0
1074,1074,-0.4467470753577693,-0.4,0.0,1.0,299.0,809.0,0.0,1,3892.0,0
1075,1075,-0.6006669443690773,-0.6,1.0,0.0,256.0,548.0,0.0,0,4196.0,1
1076,1076,0.4932966344056068,0.5,0.0,0.0,262.0,548.0,0.0,1,4190.0,1
1077,1077,0.20725621097143476,0.2,0.0,0.0,321.0,599.0,0.0,1,-850.0,1
1078,1078,-0.6523665946680178,-0.7,1.0,0.0,399.0,582.0,0.0,0,4019.0,1
1079,1079,0.5048138926498905,0.5,1.0,1.0,322.0,518.0,0.0,0,4160.0,0
1080,1080,-0.7921978425045699,-0.8,1.0,0.0,319.0,617.0,0.0,0,4064.0,1
1081,1081,-0.7594821758777275,-0.8,1.0,0.0,461.0,880.0,0.0,0,-1191.0,1
1082,1082,0.5560800818403352,0.6,0.0,0.0,339.0,738.0,0.0,1,-1017.0,1
1083,1083,0.08714677960238926,0.1,0.0,0.0,468.0,898.0,0.0,1,3634.0,1
1084,1084,-0.3915285234942729,-0.4,0.0,1.0,339.0,731.0,0.0,1,3930.0,0
1085,1085,0.24677662629891384,0.2,0.0,0.0,492.0,627.0,0.0,1,3881.0,1
1086,1086,0.7452143314385987,0.7,1.0,1.0,289.0,674.0,0.0,0,4037.0,0
1087,1087,0.09854593275553836,0.1,1.0,1.0,354.0,735.0,0.0,0,3911.0,0
1088,1088,0.8329818666533831,0.8,0.0,0.0,413.0,832.0,0.0,1,3755.0,1
1089,1089,-0.4468138291923573,-0.4,1.0,0.0,448.0,530.0,0.0,0,4022.0,1
1090,1090,-0.009615190986710265,-0.0,0.0,1.0,281.0,779.0,0.0,1,-1030.0,0
1091,1091,-0.7572802878283312,-0.8,0.0,1.0,494.0,790.0,0.0,1,3716.0,0
1092,1092,0.7875001248157344,0.8,1.0,1.0,332.0,566.0,0.0,0,4102.0,0
1093,1093,0.0648993809444901,0.1,0.0,0.0,415.0,832.0,0.0,1,-1057.0,1
1094,1094,0.2196278350775588,0.2,1.0,1.0,365.0,756.0,0.0,0,3879.0,0
1095,1095,0.2844798617053822,0.3,0.0,0.0,392.0,767.0,0.0,1,3841.0,1
1096,1096,-0.12909289226916054,-0.1,1.0,0.0,256.0,813.0,0.0,0,3931.0,1
1097,1097,-0.25486554466719336,-0.3,0.0,1.0,476.0,680.0,0.0,1,3844.0,0
1098,1098,-0.08700012657270817,-0.1,0.0,1.0,490.0,565.0,0.0,1,-1025.0,0
1099,1099,-0.6325091402677634,-0.6,0.0,1.0,302.0,856.0,0.0,1,3842.0,0
1100,1100,0.15663750355025285,0.2,0.0,0.0,380.0,850.0,0.0,1,3770.0,1
1101,1101,-0.8992551423769192,-0.9,1.0,0.0,345.0,606.0,0.0,0,4049.0,1
1102,1102,0.07198542184867973,0.1,0.0,0.0,340.0,515.0,0.0,1,4145.0,1
1103,1103,0.5585188402393019,0.6,1.0,1.0,324.0,870.0,0.0,0,-1094.0,0
1104,1104,0.18874683634767664,0.2,1.0,1.0,452.0,899.0,0.0,0,3649.0,0
1105,1105,-0.4961661837043736,-0.5,1.0,0.0,362.0,528.0,0.0,0,4110.0,1
1106,1106,-0.6922869457253924,-0.7,0.0,1.0,391.0,589.0,1.0,0,-880.0,1
1107,1107,-0.5784538503672716,-0.6,1.0,0.0,423.0,657.0,0.0,0,3920.0,1
1108,1108,-0.3187803728960589,-0.3,0.0,1.0,354.0,624.0,0.0,1,4022.0,0
1109,1109,0.8588466830895395,0.9,0.0,0.0,414.0,724.0,0.0,1,3862.0,1
1110,1110,0.8513139593496103,0.9,1.0,1.0,401.0,608.0,0.0,0,3991.0,0
1111,1111,0.030281606916568893,0.0,1.0,1.0,421.0,783.0,0.0,0,3796.0,0
1112,1112,0.733586696859,0.7,0.0,0.0,383.0,577.0,0.0,1,-920.0,1
1113,1113,0.556313687551132,0.6,0.0,0.0,357.0,917.0,0.0,1,3726.0,1
1114,1114,0.3683772227447323,0.4,0.0,0.0,320.0,829.0,0.0,1,3851.0,1
1115,1115,-0.37390419487181215,-0.4,1.0,0.0,312.0,979.0,0.0,0,3709.0,1
1116,1116,0.32179228097815027,0.3,0.0,0.0,298.0,768.0,0.0,1,3934.0,1
1117,1117,-0.3570921397527682,-0.4,0.0,1.0,413.0,826.0,0.0,1,3761.0,0
1118,1118,-0.06120204533916229,-0.1,0.0,1.0,442.0,759.0,0.0,1,3799.0,0
1119,1119,0.15588534337775373,0.2,0.0,0.0,396.0,839.0,0.0,1,3765.0,1
1120,1120,0.06800262748530217,0.1,0.0,0.0,463.0,846.0,0.0,1,3691.0,1
1121,1121,-0.5184467504707597,-0.5,1.0,0.0,338.0,661.0,0.0,0,4001.0,1
1122,1122,0.7096538119590897,0.7,1.0,1.0,473.0,882.0,0.0,0,3645.0,0
1123,1123,-0.6169166071579417,-0.6,1.0,0.0,435.0,837.0,0.0,0,3728.0,1
1124,1124,-0.37343245288634097,-0.4,0.0,1.0,289.0,826.0,0.0,1,3885.0,0
1125,1125,-0.5923819792196491,-0.6,1.0,0.0,465.0,756.0,0.0,0,3779.0,1
1126,1126,0.17001108572140533,0.2,0.0,0.0,354.0,697.0,0.0,1,3949.0,1
1127,1127,-0.45233476533394135,-0.5,0.0,1.0,276.0,993.0,0.0,1,3731.0,0
1128,1128,-0.07496049833327134,-0.1,1.0,0.0,497.0,918.0,0.0,0,3585.0,1
1129,1129,-0.26233811403807283,-0.3,1.0,0.0,387.0,992.0,0.0,0,3621.0,1
1130,1130,0.5356531877323308,0.5,1.0,1.0,379.0,588.0,0.0,0,4033.0,0
1131,1131,0.2055515929353996,0.2,1.0,1.0,413.0,917.0,0.0,0,3670.0,0
1132,1132,0.7955628938916134,0.8,0.0,0.0,311.0,856.0,0.0,1,3833.0,1
1133,1133,0.7334794313823886,0.7,0.0,0.0,483.0,851.0,0.0,1,3666.0,1
1134,1134,-0.6917892197003432,-0.7,0.0,1.0,339.0,562.0,0.0,1,-871.0,0
1135,1135,-0.7200750383495902,-0.7,0.0,1.0,499.0,718.0,0.0,1,3783.0,0
1136,1136,-0.5899448468008198,-0.6,1.0,0.0,299.0,674.0,0.0,0,4027.0,1
1137,1137,-0.36026172015338553,-0.4,1.0,0.0,492.0,999.0,0.0,0,3509.0,1
1138,1138,0.715137882631517,0.7,0.0,0.0,268.0,538.0,0.0,1,4194.0,1
1139,1139,-0.724037864966083,-0.7,0.0,1.0,425.0,868.0,1.0,0,-1183.0,1
1140,1140,-0.09175097177062996,-0.1,1.0,0.0,435.0,786.0,0.0,0,3779.0,1
1141,1141,0.5236310002932486,0.5,1.0,1.0,283.0,509.0,0.0,0,4208.0,0
1142,1142,-0.3458575377327151,-0.3,1.0,0.0,342.0,933.0,0.0,0,3725.0,1
1143,1143,-0.8784256139747071,-0.9,1.0,0.0,386.0,732.0,0.0,0,3882.0,1
1144,1144,-0.7547834715761137,-0.8,0.0,1.0,319.0,594.0,0.0,1,4087.0,0
1145,1145,-0.8340002347984335,-0.8,1.0,0.0,407.0,698.0,0.0,0,3895.0,1
1146,1146,0.2585856031035113,0.3,0.0,0.0,352.0,829.0,0.0,1,3819.0,1
1147,1147,-0.7134001297181674,-0.7,1.0,0.0,326.0,674.0,0.0,0,4000.0,1
1148,1148,-0.2948563124619279,-0.3,1.0,0.0,420.0,722.0,0.0,0,3858.0,1
1149,1149,0.7892835756244715,0.8,0.0,0.0,296.0,699.0,0.0,1,4005.0,1
1150,1150,-0.6831778723005766,-0.7,0.0,1.0,487.0,509.0,0.0,1,4004.0,0
1151,1151,-0.02595085142261233,-0.0,0.0,1.0,499.0,940.0,0.0,1,3561.0,0
1152,1152,-0.6519042132614759,-0.7,1.0,0.0,372.0,657.0,0.0,0,3971.0,1
1153,1153,0.6671805956354414,0.7,0.0,0.0,415.0,714.0,0.0,1,3871.0,1
1154,1154,-0.08775433883722039,-0.1,1.0,0.0,414.0,518.0,0.0,0,-892.0,1
1155,1155,-0.42630179058333645,-0.4,1.0,0.0,409.0,883.0,0.0,0,3708.0,1
1156,1156,-0.00011910067384779399,-0.0,0.0,1.0,356.0,653.0,0.0,1,3991.0,0
1157,1157,0.2830044446970138,0.3,0.0,0.0,284.0,754.0,0.0,1,3962.0,1
1158,1158,0.7150638053645194,0.7,0.0,0.0,302.0,628.0,0.0,1,4070.0,1
1159,1159,0.3624287122136346,0.4,1.0,1.0,376.0,986.0,0.0,0,3638.0,0
1160,1160,-0.1392798923864791,-0.1,0.0,1.0,252.0,757.0,0.0,1,3991.0,0
1161,1161,-0.21738993297324516,-0.2,1.0,0.0,422.0,780.0,0.0,0,3798.0,1
1162,1162,0.16776185575816138,0.2,0.0,0.0,288.0,788.0,0.0,1,-1036.0,1
1163,1163,0.8254112705185049,0.8,0.0,0.0,444.0,529.0,0.0,1,4027.0,1
1164,1164,0.37389188946606666,0.4,1.0,1.0,284.0,553.0,0.0,0,4163.0,0
1165,1165,0.031247202120697648,0.0,1.0,1.0,352.0,791.0,0.0,0,3857.0,0
1166,1166,-0.12988287594052006,-0.1,1.0,0.0,343.0,937.0,1.0,1,-1170.0,0
1167,1167,-0.794720127267191,-0.8,1.0,0.0,415.0,648.0,0.0,0,3937.0,1
1168,1168,0.65470195772061,0.7,1.0,1.0,499.0,521.0,0.0,0,3980.0,0
1169,1169,-0.7121479183721763,-0.7,0.0,1.0,462.0,819.0,0.0,1,3719.0,0
1170,1170,0.5986601348522463,0.6,1.0,1.0,358.0,673.0,0.0,0,3969.0,0
1171,1171,0.7273203014394466,0.7,1.0,1.0,330.0,799.0,0.0,0,3871.0,0
1172,1172,0.13558567527942877,0.1,1.0,1.0,259.0,841.0,0.0,0,3900.0,0
1173,1173,0.5388532984034925,0.5,1.0,1.0,459.0,652.0,0.0,0,3889.0,0
1174,1174,0.6597997051014283,0.7,1.0,1.0,491.0,767.0,0.0,0,3742.0,0
1175,1175,-0.46982100831338297,-0.5,1.0,0.0,437.0,866.0,0.0,0,3697.0,1
1176,1176,-0.8701618305864454,-0.9,1.0,0.0,383.0,819.0,0.0,0,3798.0,1
1177,1177,-0.33871470767552936,-0.3,1.0,0.0,497.0,659.0,0.0,0,3844.0,1
1178,1178,-0.25122297911641744,-0.3,0.0,1.0,475.0,853.0,0.0,1,3672.0,0
1179,1179,0.27435311416032826,0.3,0.0,0.0,392.0,668.0,0.0,1,3940.0,1
1180,1180,-0.09011580652479301,-0.1,1.0,0.0,260.0,963.0,0.0,0,3777.0,1
1181,1181,-0.3500776621931587,-0.4,0.0,1.0,347.0,567.0,0.0,1,4086.0,0
1182,1182,0.34500734614221373,0.3,1.0,1.0,457.0,957.0,0.0,0,3586.0,0
1183,1183,-0.7060755747644776,-0.7,0.0,1.0,337.0,839.0,0.0,1,3824.0,0
1184,1184,-0.3270128003926168,-0.3,1.0,0.0,250.0,551.0,0.0,0,4199.0,1
1185,1185,0.7707529255424016,0.8,1.0,1.0,429.0,570.0,0.0,0,4001.0,0
1186,1186,0.47347184469878545,0.5,0.0,0.0,303.0,771.0,0.0,1,3926.0,1
1187,1187,0.3360304615274482,0.3,0.0,0.0,475.0,737.0,0.0,1,3788.0,1
1188,1188,0.8922759473810223,0.9,1.0,1.0,407.0,704.0,0.0,0,3889.0,0
1189,1189,0.36815313300008257,0.4,0.0,0.0,280.0,651.0,0.0,1,4069.0,1
1190,1190,0.2520475367655596,0.3,1.0,1.0,282.0,922.0,0.0,0,3796.0,0
1191,1191,-0.11395618634085292,-0.1,1.0,0.0,293.0,736.0,0.0,0,3971.0,1
1192,1192,0.82907755910313,0.8,0.0,0.0,308.0,654.0,0.0,1,4038.0,1
1193,1193,0.8802790060895748,0.9,1.0,1.0,405.0,773.0,0.0,0,3822.0,0
1194,1194,-0.6364577601700946,-0.6,1.0,0.0,384.0,609.0,0.0,0,4007.0,1
1195,1195,-0.19392140871537678,-0.2,1.0,0.0,288.0,552.0,0.0,0,4160.0,1
1196,1196,0.5349710935024662,0.5,1.0,1.0,455.0,854.0,0.0,0,3691.0,0
1197,1197,-0.4612784513438017,-0.5,0.0,1.0,257.0,670.0,0.0,1,4073.0,0
1198,1198,-0.3822603647082399,-0.4,0.0,1.0,459.0,767.0,0.0,1,3774.0,0
1199,1199,0.4763025028552813,0.5,0.0,0.0,462.0,802.0,0.0,1,-1234.0,1
1200,1200,0.7331548826816933,0.7,1.0,1.0,262.0,903.0,0.0,0,3835.0,0
1201,1201,0.15341183374676837,0.2,0.0,0.0,484.0,812.0,0.0,1,3704.0,1
1202,1202,-0.06479087105584147,-0.1,1.0,0.0,474.0,902.0,0.0,0,3624.0,1
1203,1203,0.8195167623010137,0.8,1.0,1.0,478.0,802.0,0.0,0,3720.0,0
1204,1204,0.36439168786976317,0.4,1.0,1.0,265.0,834.0,0.0,0,3901.0,0
1205,1205,0.49449245159243527,0.5,0.0,0.0,267.0,541.0,0.0,1,-808.0,1
1206,1206,0.5656681197499894,0.6,1.0,1.0,422.0,709.0,0.0,0,3869.0,0
1207,1207,0.10543145013842048,0.1,0.0,0.0,433.0,897.0,0.0,1,3670.0,1
1208,1208,0.6406517509849406,0.6,1.0,1.0,453.0,887.0,0.0,0,3660.0,0
1209,1209,0.7133382082801872,0.7,0.0,0.0,303.0,667.0,0.0,1,4030.0,1
1210,1210,-0.8635155816039796,-0.9,1.0,0.0,321.0,990.0,0.0,0,3689.0,1
1211,1211,-0.21823152933151302,-0.2,1.0,0.0,359.0,998.0,0.0,0,3643.0,1
1212,1212,0.82089064916467,0.8,1.0,1.0,435.0,864.0,0.0,0,3701.0,0
1213,1213,0.011028442441903041,0.0,0.0,0.0,315.0,744.0,0.0,1,3941.0,1
1214,1214,0.49237614602296487,0.5,0.0,0.0,442.0,512.0,0.0,1,4046.0,1
1215,1215,0.8290237961418839,0.8,0.0,0.0,266.0,847.0,0.0,1,3887.0,1
1216,1216,0.06744674705897968,0.1,1.0,1.0,490.0,831.0,0.0,0,3679.0,0
1217,1217,-0.02816238930377546,-0.0,0.0,1.0,464.0,782.0,0.0,1,3754.0,0
1218,1218,0.09638994925754452,0.1,0.0,0.0,263.0,998.0,0.0,1,3739.0,1
1219,1219,-0.23143531539843598,-0.2,1.0,0.0,272.0,727.0,0.0,0,4001.0,1
1220,1220,-0.5965214480590515,-0.6,1.0,0.0,395.0,822.0,1.0,1,-1207.0,0
1221,1221,0.6645084967096108,0.7,1.0,1.0,252.0,841.0,0.0,0,3907.0,0
1222,1222,-0.2793220998358841,-0.3,0.0,1.0,432.0,591.0,0.0,1,3977.0,0
1223,1223,-0.5334278605801828,-0.5,1.0,0.0,285.0,698.0,0.0,0,4017.0,1
1224,1224,-0.8376440028508871,-0.8,1.0,0.0,411.0,942.0,0.0,0,-1333.0,1
1225,1225,0.6554468051341255,0.7,0.0,0.0,332.0,814.0,0.0,1,3854.0,1
1226,1226,-0.40057116627755923,-0.4,0.0,1.0,436.0,889.0,0.0,1,3675.0,0
1227,1227,0.6769495796906239,0.7,1.0,1.0,303.0,755.0,0.0,0,3942.0,0
1228,1228,0.44620164917515825,0.4,1.0,1.0,477.0,870.0,0.0,0,3653.0,0
1229,1229,0.19740622429059862,0.2,0.0,0.0,310.0,708.0,0.0,1,3982.0,1
1230,1230,-0.6802323865847232,-0.7,0.0,1.0,355.0,921.0,0.0,1,3724.0,0
1231,1231,-0.8242674474667679,-0.8,0.0,1.0,405.0,957.0,0.0,1,3638.0,0
1232,1232,0.6577446091253348,0.7,1.0,1.0,319.0,531.0,0.0,0,4150.0,0
1233,1233,0.045061988661557306,0.0,1.0,1.0,273.0,870.0,0.0,0,3857.0,0
1234,1234,0.15309474198269324,0.2,1.0,1.0,484.0,940.0,0.0,0,3576.0,0
1235,1235,-0.6441579520614411,-0.6,0.0,1.0,495.0,626.0,0.0,1,3879.0,0
1236,1236,0.15275231206056594,0.2,1.0,1.0,306.0,789.0,0.0,0,3905.0,0
1237,1237,-0.07285608042338099,-0.1,0.0,1.0,347.0,559.0,0.0,1,4094.0,0
1238,1238,-0.8219632801521073,-0.8,1.0,0.0,323.0,988.0,0.0,0,3689.0,1
1239,1239,0.3858978411163153,0.4,0.0,0.0,316.0,593.0,0.0,1,4091.0,1
1240,1240,0.7380691087201873,0.7,1.0,1.0,335.0,773.0,0.0,0,3892.0,0
1241,1241,0.35422150899369254,0.4,0.0,0.0,324.0,987.0,0.0,1,3689.0,1
1242,1242,-0.03733447548036206,-0.0,0.0,1.0,437.0,791.0,0.0,1,3772.0,0
1243,1243,0.5441585373780665,0.5,1.0,1.0,473.0,603.0,1.0,1,-1046.0,1
1244,1244,-0.0021711695260654418,-0.0,0.0,1.0,312.0,720.0,0.0,1,3968.0,0
1245,1245,0.3761498295972191,0.4,0.0,0.0,364.0,711.0,0.0,1,3925.0,1
1246,1246,-0.01962382665138218,-0.0,1.0,0.0,347.0,579.0,0.0,0,4074.0,1
1247,1247,-0.4319903285215661,-0.4,0.0,1.0,416.0,672.0,0.0,1,-1068.0,0
1248,1248,-0.16962640275724294,-0.2,0.0,1.0,470.0,957.0,0.0,1,3573.0,0
1249,1249,-0.6831991475195046,-0.7,0.0,1.0,321.0,814.0,1.0,0,-1135.0,1
1250,1250,-0.5478855120423597,-0.5,1.0,0.0,415.0,510.0,0.0,0,-805.0,1
1251,1251,-0.5264855659908814,-0.5,0.0,1.0,353.0,819.0,0.0,1,3828.0,0
1252,1252,0.8594347848060627,0.9,1.0,1.0,406.0,601.0,0.0,0,3993.0,0
1253,1253,-0.6885720157779619,-0.7,1.0,0.0,478.0,553.0,0.0,0,3969.0,1
1254,1254,-0.1608666740875453,-0.2,0.0,1.0,276.0,666.0,1.0,0,-562.0,1
1255,1255,-0.5983107639260382,-0.6,1.0,0.0,356.0,651.0,0.0,0,3993.0,1
1256,1256,0.2794657295811912,0.3,0.0,0.0,357.0,988.0,0.0,1,3655.0,1
1257,1257,0.595321798873759,0.6,1.0,1.0,369.0,570.0,0.0,0,4061.0,0
1258,1258,-0.009101833167369788,-0.0,0.0,1.0,433.0,927.0,0.0,1,3640.0,0
1259,1259,-0.6334689999320421,-0.6,0.0,1.0,483.0,873.0,0.0,1,3644.0,0
1260,1260,-0.17760715228598534,-0.2,0.0,1.0,440.0,780.0,0.0,1,3780.0,0
1261,1261,0.8537021269131176,0.9,0.0,0.0,409.0,669.0,0.0,1,3922.0,1
1262,1262,-0.23924486913511522,-0.2,1.0,0.0,410.0,943.0,0.0,0,3647.0,1
1263,1263,0.8692247170007675,0.9,0.0,0.0,312.0,693.0,0.0,1,3995.0,1
1264,1264,0.22344658853952304,0.2,1.0,1.0,252.0,546.0,0.0,0,4202.0,0
1265,1265,-0.3617824540861021,-0.4,0.0,1.0,383.0,917.0,0.0,1,3700.0,0
1266,1266,0.6851676764100502,0.7,1.0,1.0,476.0,691.0,0.0,0,3833.0,0
1267,1267,-0.8106329434096856,-0.8,0.0,1.0,417.0,750.0,0.0,1,3833.0,0
1268,1268,0.5866705149485231,0.6,1.0,1.0,390.0,564.0,0.0,0,4046.0,0
1269,1269,-0.5580000504070137,-0.6,1.0,0.0,358.0,776.0,1.0,1,-714.0,0
1270,1270,0.37312629325335556,0.4,1.0,1.0,323.0,757.0,0.0,0,3920.0,0
1271,1271,-0.7959457510028569,-0.8,1.0,0.0,326.0,854.0,0.0,0,3820.0,1
1272,1272,0.7380820982638424,0.7,0.0,0.0,297.0,783.0,0.0,1,3920.0,1
1273,1273,-0.01960333624476751,-0.0,0.0,1.0,387.0,905.0,0.0,1,3708.0,0
1274,1274,-0.6324749786040847,-0.6,1.0,0.0,277.0,715.0,0.0,0,-772.0,1
1275,1275,0.813219138709724,0.8,0.0,0.0,431.0,918.0,0.0,1,3651.0,1
1276,1276,-0.7417880280661133,-0.7,1.0,0.0,336.0,839.0,0.0,0,3825.0,1
1277,1277,-0.25218897203266566,-0.3,1.0,0.0,280.0,797.0,1.0,1,-817.0,0
1278,1278,-0.8670555963115681,-0.9,0.0,1.0,479.0,920.0,0.0,1,3601.0,0
1279,1279,-0.13239144027164473,-0.1,1.0,0.0,345.0,583.0,0.0,0,4072.0,1
1280,1280,0.7334168925696557,0.7,1.0,1.0,286.0,858.0,0.0,0,3856.0,0
1281,1281,-0.43738243641945007,-0.4,1.0,0.0,366.0,618.0,0.0,0,4016.0,1
1282,1282,0.27221606581287683,0.3,1.0,1.0,374.0,521.0,0.0,0,4105.0,0
1283,1283,0.2750903904923988,0.3,0.0,0.0,398.0,789.0,0.0,1,3813.0,1
1284,1284,0.6714281766452331,0.7,1.0,1.0,281.0,956.0,0.0,0,3763.0,0
1285,1285,0.33069433889083,0.3,1.0,1.0,445.0,653.0,0.0,0,3902.0,0
1286,1286,-0.7341874957220913,-0.7,1.0,0.0,379.0,813.0,0.0,0,3808.0,1
1287,1287,0.7497829758299864,0.7,0.0,0.0,395.0,752.0,0.0,1,3853.0,1
1288,1288,0.3579598035928483,0.4,0.0,0.0,279.0,834.0,0.0,1,3887.0,1
1289,1289,0.291156055089448,0.3,1.0,1.0,463.0,833.0,0.0,0,3704.0,0
1290,1290,0.24764002078806613,0.2,0.0,0.0,436.0,703.0,0.0,1,3861.0,1
1291,1291,-0.28428867628276033,-0.3,1.0,0.0,315.0,990.0,0.0,0,3695.0,1
1292,1292,0.13059841333672073,0.1,0.0,0.0,291.0,677.0,0.0,1,4032.0,1
1293,1293,0.3139996248990885,0.3,1.0,1.0,309.0,938.0,0.0,0,3753.0,0
1294,1294,0.1770898637884738,0.2,0.0,0.0,336.0,600.0,0.0,1,4064.0,1
1295,1295,-0.20053000023255374,-0.2,0.0,1.0,378.0,699.0,0.0,1,-1067.0,0
1296,1296,-0.5328988852570584,-0.5,1.0,0.0,355.0,639.0,0.0,0,4006.0,1
1297,1297,-0.5417227382880296,-0.5,0.0,1.0,308.0,656.0,0.0,1,4036.0,0
1298,1298,-0.25887988683735563,-0.3,1.0,0.0,267.0,957.0,0.0,0,3776.0,1
1299,1299,-0.03153547521365274,-0.0,1.0,0.0,428.0,904.0,0.0,0,3668.0,1
1300,1300,-0.0685121557618048,-0.1,0.0,1.0,486.0,723.0,0.0,1,3791.0,0
1301,1301,-0.07024721762696884,-0.1,0.0,1.0,307.0,536.0,0.0,1,4157.0,0
1302,1302,0.03656615606307878,0.0,0.0,0.0,429.0,873.0,0.0,1,3698.0,1
1303,1303,-0.4581012006839154,-0.5,1.0,0.0,407.0,814.0,0.0,0,3779.0,1
1304,1304,-0.5006323305286856,-0.5,0.0,1.0,465.0,771.0,0.0,1,3764.0,0
1305,1305,-0.8361305506911779,-0.8,0.0,1.0,250.0,802.0,0.0,1,3948.0,0
1306,1306,-0.683198665833936,-0.7,1.0,0.0,389.0,606.0,0.0,0,4005.0,1
1307,1307,-0.31863488846303967,-0.3,1.0,0.0,418.0,643.0,1.0,1,-991.0,0
1308,1308,-0.43070138027666466,-0.4,1.0,0.0,431.0,909.0,0.0,0,3660.0,1
1309,1309,-0.7292120836843771,-0.7,0.0,1.0,302.0,939.0,0.0,1,-891.0,0
1310,1310,-0.47472220752103905,-0.5,1.0,0.0,397.0,775.0,0.0,0,3828.0,1
1311,1311,0.34734115968454404,0.3,1.0,1.0,258.0,740.0,0.0,0,4002.0,0
1312,1312,0.803005181894679,0.8,0.0,0.0,281.0,767.0,0.0,1,3952.0,1
1313,1313,0.5587457118727325,0.6,0.0,0.0,450.0,738.0,0.0,1,3812.0,1
1314,1314,-0.8473837279717987,-0.8,0.0,1.0,497.0,847.0,0.0,1,3656.0,0
1315,1315,0.30389221548719847,0.3,0.0,0.0,477.0,595.0,0.0,1,3928.0,1
1316,1316,0.48932475284593313,0.5,0.0,0.0,456.0,814.0,0.0,1,3730.0,1
1317,1317,0.8051625055950099,0.8,1.0,1.0,328.0,565.0,0.0,0,4107.0,0
1318,1318,0.09586132047279938,0.1,0.0,0.0,334.0,536.0,0.0,1,4130.0,1
1319,1319,0.5654971073934901,0.6,0.0,0.0,326.0,947.0,1.0,0,-1083.0,0
1320,1320,-0.0693328417304131,-0.1,1.0,0.0,330.0,951.0,1.0,1,-1071.0,0
1321,1321,-0.8970265009096753,-0.9,1.0,0.0,416.0,934.0,1.0,1,-1340.0,0
1322,1322,-0.07194480659069769,-0.1,1.0,0.0,478.0,935.0,0.0,0,3587.0,1
1323,1323,0.3681469325461947,0.4,0.0,0.0,250.0,656.0,0.0,1,4094.0,1
1324,1324,-0.7178167804363281,-0.7,1.0,0.0,466.0,591.0,0.0,0,3943.0,1
1325,1325,0.09728828793668998,0.1,0.0,0.0,375.0,927.0,0.0,1,3698.0,1
1326,1326,-0.8721497171000158,-0.9,1.0,0.0,313.0,577.0,0.0,0,4110.0,1
1327,1327,0.8365791246413169,0.8,0.0,0.0,362.0,588.0,0.0,1,4050.0,1
1328,1328,-0.28302427938741925,-0.3,0.0,1.0,271.0,628.0,0.0,1,4101.0,0
1329,1329,0.3299806238753987,0.3,0.0,0.0,388.0,945.0,0.0,1,3667.0,1
1330,1330,0.39025703994028216,0.4,1.0,1.0,351.0,629.0,0.0,0,4020.0,0
1331,1331,0.6313590638112144,0.6,1.0,1.0,490.0,504.0,0.0,0,4006.0,0
1332,1332,0.5357640238515026,0.5,1.0,1.0,476.0,702.0,0.0,0,-968.0,0
1333,1333,-0.15664911528405656,-0.2,0.0,1.0,480.0,747.0,0.0,1,3773.0,0
1334,1334,0.4509695504548671,0.5,1.0,1.0,348.0,880.0,0.0,0,3772.0,0
1335,1335,-0.49728818466000474,-0.5,1.0,0.0,348.0,967.0,0.0,0,3685.0,1
1336,1336,-0.762225154531017,-0.8,1.0,0.0,420.0,855.0,0.0,0,3725.0,1
1337,1337,0.4063710492178819,0.4,0.0,0.0,425.0,594.0,0.0,1,3981.0,1
1338,1338,-0.1457703239335073,-0.1,0.0,1.0,402.0,649.0,0.0,1,3949.0,0
1339,1339,-0.7051745696241425,-0.7,0.0,1.0,390.0,625.0,0.0,1,3985.0,0
1340,1340,0.49453934157169,0.5,0.0,0.0,341.0,899.0,0.0,1,3760.0,1
1341,1341,0.2106300525187893,0.2,1.0,1.0,329.0,671.0,0.0,0,4000.0,0
1342,1342,0.48735129066614336,0.5,1.0,1.0,454.0,525.0,0.0,0,-959.0,0
1343,1343,-0.23061960241948054,-0.2,1.0,0.0,389.0,790.0,0.0,0,-1159.0,1
1344,1344,-0.4619106145396385,-0.5,0.0,1.0,393.0,806.0,0.0,1,3801.0,0
1345,1345,0.8422274659832104,0.8,0.0,0.0,379.0,951.0,0.0,1,3670.0,1
1346,1346,-0.37111880935589514,-0.4,0.0,1.0,463.0,824.0,0.0,1,3713.0,0
1347,1347,-0.0424801492450666,-0.0,1.0,0.0,260.0,759.0,0.0,0,3981.0,1
1348,1348,0.13147375749993973,0.1,0.0,0.0,484.0,508.0,0.0,1,4008.0,1
1349,1349,-0.4411831722486653,-0.4,1.0,0.0,448.0,983.0,0.0,0,3569.0,1
1350,1350,0.6153566446868274,0.6,1.0,1.0,482.0,718.0,0.0,0,3800.0,0
1351,1351,0.21948223260613486,0.2,1.0,1.0,283.0,935.0,0.0,0,3782.0,0
1352,1352,0.18598667639552924,0.2,1.0,1.0,477.0,587.0,0.0,0,3936.0,0
1353,1353,0.6846995396949555,0.7,0.0,0.0,421.0,520.0,0.0,1,4059.0,1
1354,1354,-0.05890536170809646,-0.1,0.0,1.0,340.0,570.0,0.0,1,4090.0,0
1355,1355,-0.2109224261242576,-0.2,0.0,1.0,411.0,524.0,0.0,1,4065.0,0
1356,1356,-0.6780552718996139,-0.7,1.0,0.0,291.0,971.0,0.0,0,3738.0,1
1357,1357,0.6754662576821667,0.7,0.0,0.0,483.0,722.0,0.0,1,-1115.0,1
1358,1358,-0.5894818208460606,-0.6,1.0,0.0,432.0,952.0,0.0,0,3616.0,1
1359,1359,0.21089681210972822,0.2,1.0,1.0,408.0,960.0,0.0,0,3632.0,0
1360,1360,0.3784372353926361,0.4,0.0,0.0,453.0,637.0,0.0,1,3910.0,1
1361,1361,0.2845946325377461,0.3,1.0,1.0,341.0,974.0,0.0,0,3685.0,0
1362,1362,-0.2845834113730793,-0.3,0.0,1.0,487.0,981.0,0.0,1,3532.0,0
1363,1363,0.42407368795059897,0.4,0.0,0.0,332.0,614.0,0.0,1,4054.0,1
1364,1364,0.19147308372106953,0.2,0.0,0.0,389.0,811.0,0.0,1,3800.0,1
1365,1365,-0.6405678752832533,-0.6,0.0,1.0,441.0,796.0,0.0,1,3763.0,0
1366,1366,-0.09317087288346237,-0.1,1.0,0.0,342.0,905.0,0.0,0,3753.0,1
1367,1367,0.6628824199691293,0.7,1.0,1.0,290.0,878.0,0.0,0,3832.0,0
1368,1368,-0.2008919844412259,-0.2,0.0,1.0,367.0,840.0,0.0,1,3793.0,0
1369,1369,0.4883507033208655,0.5,0.0,0.0,293.0,599.0,0.0,1,-862.0,1
1370,1370,0.6246480396776642,0.6,0.0,0.0,272.0,993.0,0.0,1,3735.0,1
1371,1371,-0.43543808735264705,-0.4,1.0,0.0,364.0,678.0,0.0,0,3958.0,1
1372,1372,-0.7859426014173492,-0.8,1.0,0.0,413.0,738.0,0.0,0,3849.0,1
1373,1373,0.6299748029924587,0.6,1.0,1.0,342.0,691.0,0.0,0,3967.0,0
1374,1374,-0.08570430081244063,-0.1,0.0,1.0,427.0,922.0,0.0,1,3651.0,0
1375,1375,-0.1524574207710554,-0.2,1.0,0.0,431.0,692.0,0.0,0,3877.0,1
1376,1376,0.5667167623329551,0.6,0.0,0.0,464.0,635.0,0.0,1,3901.0,1
1377,1377,0.1547572470915587,0.2,1.0,1.0,412.0,574.0,0.0,0,-916.0,0
1378,1378,-0.48251866612928934,-0.5,0.0,1.0,269.0,814.0,0.0,1,3917.0,0
1379,1379,-0.4611647383525275,-0.5,0.0,1.0,461.0,745.0,0.0,1,3794.0,0
1380,1380,0.7477645726425955,0.7,0.0,0.0,383.0,763.0,0.0,1,3854.0,1
1381,1381,-0.7980715944703181,-0.8,1.0,0.0,372.0,838.0,0.0,0,3790.0,1
1382,1382,-0.5483155201563357,-0.5,1.0,0.0,463.0,714.0,0.0,0,3823.0,1
1383,1383,-0.2873727034923096,-0.3,1.0,0.0,416.0,770.0,0.0,0,3814.0,1
1384,1384,0.06586551818323916,0.1,1.0,1.0,300.0,923.0,0.0,0,3777.0,0
1385,1385,0.5480488326125373,0.5,0.0,0.0,498.0,758.0,0.0,1,3744.0,1
1386,1386,-0.8564538451030906,-0.9,0.0,1.0,270.0,571.0,0.0,1,4159.0,0
1387,1387,0.27162403141322133,0.3,1.0,1.0,328.0,913.0,0.0,0,3759.0,0
1388,1388,0.6706066028567422,0.7,1.0,1.0,331.0,511.0,1.0,1,-762.0,1
1389,1389,0.7584558946269077,0.8,0.0,0.0,331.0,851.0,0.0,1,3818.0,1
1390,1390,-0.0006667558071785651,-0.0,1.0,0.0,309.0,840.0,0.0,0,3851.0,1
1391,1391,0.013989122626675954,0.0,0.0,0.0,450.0,813.0,0.0,1,3737.0,1
1392,1392,-0.864171945484577,-0.9,1.0,0.0,322.0,788.0,0.0,0,3890.0,1
1393,1393,0.39897776014901487,0.4,0.0,0.0,430.0,942.0,0.0,1,-1362.0,1
1394,1394,-0.2902944939651898,-0.3,0.0,1.0,294.0,788.0,0.0,1,3918.0,0
1395,1395,-0.026052477341236502,-0.0,0.0,1.0,289.0,781.0,0.0,1,3930.0,0
1396,1396,0.054806655919608316,0.1,0.0,0.0,289.0,557.0,0.0,1,4154.0,1
1397,1397,0.09908869793312713,0.1,1.0,1.0,469.0,734.0,0.0,0,3797.0,0
1398,1398,-0.42581309765695774,-0.4,1.0,0.0,256.0,624.0,0.0,0,4120.0,1
1399,1399,0.23625180034603666,0.2,1.0,1.0,498.0,861.0,0.0,0,3641.0,0
1400,1400,0.8034863152215558,0.8,0.0,0.0,308.0,567.0,0.0,1,4125.0,1
1401,1401,-0.6490653477737769,-0.6,0.0,1.0,266.0,610.0,0.0,1,4124.0,0
1402,1402,-0.48305611516857083,-0.5,1.0,0.0,483.0,597.0,0.0,0,3920.0,1
1403,1403,-0.5660642744082933,-0.6,0.0,1.0,454.0,532.0,0.0,1,4014.0,0
1404,1404,0.27927151358586155,0.3,1.0,1.0,285.0,659.0,0.0,0,4056.0,0
1405,1405,-0.31848957943191825,-0.3,0.0,1.0,353.0,682.0,0.0,1,3965.0,0
1406,1406,0.6899328893278004,0.7,1.0,1.0,466.0,502.0,0.0,0,4032.0,0
1407,1407,0.46548718900887576,0.5,0.0,0.0,375.0,634.0,0.0,1,3991.0,1
1408,1408,0.24371272982665004,0.2,0.0,0.0,304.0,901.0,0.0,1,3795.0,1
1409,1409,0.8082765996965878,0.8,1.0,1.0,324.0,750.0,0.0,0,3926.0,0
1410,1410,-0.4965807201155792,-0.5,1.0,0.0,371.0,883.0,0.0,0,3746.0,1
1411,1411,-0.007101900144643958,-0.0,1.0,0.0,314.0,975.0,0.0,0,3711.0,1
1412,1412,0.07184239647480617,0.1,1.0,1.0,331.0,630.0,0.0,0,4039.0,0
1413,1413,-0.3812726431095165,-0.4,0.0,1.0,475.0,608.0,0.0,1,3917.0,0
1414,1414,0.5288047496424338,0.5,0.0,0.0,496.0,566.0,0.0,1,3938.0,1
1415,1415,0.8969118271331674,0.9,1.0,1.0,368.0,989.0,0.0,0,3643.0,0
1416,1416,-0.15898179856964434,-0.2,1.0,0.0,339.0,914.0,0.0,0,3747.0,1
1417,1417,-0.06395052892021091,-0.1,0.0,1.0,293.0,675.0,0.0,1,4032.0,0
1418,1418,0.6676300132646046,0.7,1.0,1.0,335.0,577.0,0.0,0,4088.0,0
1419,1419,0.0018467468019621736,0.0,1.0,1.0,264.0,543.0,0.0,0,4193.0,0
1420,1420,0.07735007221002455,0.1,0.0,0.0,266.0,585.0,0.0,1,4149.0,1
1421,1421,0.4460688890008607,0.4,1.0,1.0,476.0,538.0,0.0,0,3986.0,0
1422,1422,0.07897801850309849,0.1,0.0,0.0,443.0,609.0,0.0,1,3948.0,1
1423,1423,-0.4868204027072787,-0.5,1.0,0.0,424.0,585.0,0.0,0,3991.0,1
1424,1424,0.8783637206939988,0.9,0.0,0.0,421.0,562.0,0.0,1,4017.0,1
1425,1425,-0.13220738603834747,-0.1,0.0,1.0,497.0,985.0,1.0,0,-1362.0,1
1426,1426,0.7136170086797692,0.7,0.0,0.0,304.0,687.0,0.0,1,4009.0,1
1427,1427,0.7973245325751322,0.8,0.0,0.0,423.0,949.0,0.0,1,3628.0,1
1428,1428,-0.5140067123638552,-0.5,0.0,1.0,499.0,651.0,0.0,1,3850.0,0
1429,1429,-0.6490360661092522,-0.6,0.0,1.0,455.0,771.0,0.0,1,3774.0,0
1430,1430,-0.6490574788730301,-0.6,1.0,0.0,294.0,946.0,0.0,0,3760.0,1
1431,1431,-0.7450102478263576,-0.7,1.0,0.0,495.0,723.0,0.0,0,3782.0,1
1432,1432,0.44564929133115483,0.4,0.0,0.0,456.0,727.0,0.0,1,3817.0,1
1433,1433,-0.5900436426973396,-0.6,1.0,0.0,291.0,600.0,0.0,0,4109.0,1
1434,1434,-0.3336845240583931,-0.3,0.0,1.0,255.0,769.0,0.0,1,3976.0,0
1435,1435,0.3475451456119526,0.3,0.0,0.0,334.0,838.0,0.0,1,3828.0,1
1436,1436,-0.06302520593394856,-0.1,1.0,0.0,365.0,772.0,0.0,0,3863.0,1
1437,1437,-0.14746793658679302,-0.1,1.0,0.0,391.0,775.0,0.0,0,3834.0,1
1438,1438,-0.05019326684926739,-0.1,0.0,1.0,395.0,757.0,0.0,1,3848.0,0
1439,1439,-0.25533012373324293,-0.3,1.0,0.0,266.0,962.0,0.0,0,3772.0,1
1440,1440,-0.09241146452346394,-0.1,1.0,0.0,393.0,902.0,0.0,0,3705.0,1
1441,1441,-0.5694049971734876,-0.6,1.0,0.0,345.0,790.0,0.0,0,3865.0,1
1442,1442,-0.5923992226232286,-0.6,1.0,0.0,399.0,764.0,0.0,0,3837.0,1
1443,1443,-0.38757255853773875,-0.4,1.0,0.0,433.0,779.0,0.0,0,3788.0,1
1444,1444,0.10689367990918541,0.1,0.0,0.0,354.0,657.0,0.0,1,3989.0,1
1445,1445,-0.18045684613288415,-0.2,1.0,0.0,397.0,958.0,1.0,1,-1325.0,0
1446,1446,-0.5196715348119456,-0.5,0.0,1.0,436.0,996.0,0.0,1,3568.0,0
1447,1447,0.5353502177443038,0.5,1.0,1.0,372.0,962.0,0.0,0,3666.0,0
1448,1448,0.4863143649878944,0.5,0.0,0.0,358.0,692.0,0.0,1,3950.0,1
1449,1449,-0.8456269227176072,-0.8,0.0,1.0,450.0,837.0,0.0,1,3713.0,0
1450,1450,-0.4608289273855234,-0.5,0.0,1.0,298.0,639.0,0.0,1,4063.0,0
1451,1451,-0.8458423543847936,-0.8,1.0,0.0,421.0,891.0,0.0,0,3688.0,1
1452,1452,0.34644383647803456,0.3,0.0,0.0,263.0,697.0,0.0,1,4040.0,1
1453,1453,-0.6023464605372086,-0.6,0.0,1.0,436.0,664.0,0.0,1,3900.0,0
1454,1454,0.39288234689499035,0.4,1.0,1.0,296.0,711.0,0.0,0,3993.0,0
1455,1455,-0.8375636016083007,-0.8,1.0,0.0,302.0,688.0,0.0,0,4010.0,1
1456,1456,0.8413846750375483,0.8,1.0,1.0,392.0,550.0,0.0,0,4058.0,0
1457,1457,-0.4537590916517996,-0.5,0.0,1.0,371.0,839.0,1.0,0,-1070.0,1
1458,1458,0.24010465580545926,0.2,0.0,0.0,420.0,934.0,0.0,1,3646.0,1
1459,1459,0.40951582626083927,0.4,1.0,1.0,355.0,881.0,0.0,0,3764.0,0
1460,1460,-0.7485207436929311,-0.7,0.0,1.0,408.0,557.0,0.0,1,4035.0,0
1461,1461,0.5010877056632511,0.5,1.0,1.0,295.0,623.0,0.0,0,4082.0,0
1462,1462,-0.30021412725035335,-0.3,1.0,0.0,403.0,869.0,0.0,0,3728.0,1
1463,1463,0.7994260066808508,0.8,1.0,1.0,369.0,842.0,0.0,0,-1171.0,0
1464,1464,-0.6741203415171554,-0.7,0.0,1.0,411.0,617.0,0.0,1,3972.0,0
1465,1465,-0.31051256386672077,-0.3,1.0,0.0,267.0,979.0,0.0,0,3754.0,1
1466,1466,0.3259164955887718,0.3,1.0,1.0,400.0,926.0,0.0,0,3674.0,0
1467,1467,0.6199298565338068,0.6,1.0,1.0,277.0,646.0,0.0,0,4077.0,0
1468,1468,0.6242394844491611,0.6,1.0,1.0,449.0,935.0,0.0,0,3616.0,0
1469,1469,0.3549878727069512,0.4,1.0,1.0,417.0,589.0,0.0,0,3994.0,0
1470,1470,-0.7561607443678369,-0.8,1.0,0.0,482.0,843.0,0.0,0,3675.0,1
