,trial,coherence,coherence_bin,green_side,correct_side,target_onset,checker_onset,decision,green_decision,decision_time,correct_decision
0,0,0.27244160358352765,0.3,0.0,0.0,436.0,764.0,0.0,1,780.0,1
1,1,-0.5231698495594441,-0.5,1.0,0.0,404.0,703.0,0.0,0,733.0,1
2,2,-0.694346383042,-0.7,1.0,0.0,421.0,873.0,0.0,0,516.0,1
3,3,0.5844438526211712,0.6,0.0,0.0,384.0,680.0,0.0,1,286.0,1
4,4,0.47093082022996346,0.5,1.0,1.0,478.0,837.0,1.0,1,205.0,1
5,5,-0.010890543959987231,-0.0,0.0,1.0,296.0,633.0,1.0,0,-19.0,1
6,6,-0.07238576255432849,-0.1,0.0,1.0,382.0,704.0,1.0,0,284.0,1
7,7,0.6686825021562669,0.7,0.0,0.0,388.0,642.0,0.0,1,870.0,1
8,8,-0.45289547263410085,-0.5,1.0,0.0,395.0,641.0,0.0,0,694.0,1
9,9,-0.8691005929586522,-0.9,0.0,1.0,443.0,740.0,1.0,0,187.0,1
10,10,-0.5811800643295362,-0.6,1.0,0.0,430.0,510.0,0.0,0,330.0,1
11,11,-0.459885725722138,-0.5,0.0,1.0,455.0,881.0,1.0,0,274.0,1
12,12,0.8192581172323891,0.8,1.0,1.0,410.0,533.0,1.0,1,17.0,1
13,13,0.15314114044052707,0.2,1.0,1.0,303.0,595.0,1.0,1,412.0,1
14,14,-0.5511445316591435,-0.6,1.0,0.0,260.0,956.0,0.0,0,1014.0,1
15,15,0.757834257896362,0.8,1.0,1.0,346.0,983.0,1.0,1,381.0,1
16,16,0.09454499849429876,0.1,1.0,1.0,490.0,545.0,1.0,1,375.0,1
17,17,-0.6671658441846886,-0.7,0.0,1.0,339.0,792.0,1.0,0,179.0,1
18,18,-0.1593486448858783,-0.2,0.0,1.0,319.0,770.0,1.0,0,451.0,1
19,19,0.6114948086019868,0.6,0.0,0.0,413.0,789.0,0.0,1,278.0,1
20,20,0.6504950097641681,0.7,0.0,0.0,347.0,983.0,0.0,1,370.0,1
21,21,-0.5847133740083381,-0.6,1.0,0.0,416.0,702.0,0.0,0,192.0,1
22,22,-0.7411636601873178,-0.7,0.0,1.0,260.0,868.0,1.0,0,-8.0,1
23,23,0.28656310340371693,0.3,0.0,0.0,260.0,628.0,0.0,1,812.0,1
24,24,-0.27092777831027437,-0.3,1.0,0.0,485.0,870.0,0.0,0,1645.0,1
25,25,0.006071271405995504,0.0,0.0,0.0,396.0,794.0,1.0,0,1810.0,0
26,26,-0.7877762236192499,-0.8,0.0,1.0,338.0,579.0,1.0,0,-77.0,1
27,27,0.5112721584355747,0.5,1.0,1.0,351.0,982.0,1.0,1,297.0,1
28,28,0.20073889539840428,0.2,0.0,0.0,447.0,944.0,0.0,1,349.0,1
29,29,0.05148738835087718,0.1,0.0,0.0,398.0,989.0,1.0,0,-127.0,0
30,30,0.1282002305805766,0.1,0.0,0.0,424.0,749.0,0.0,1,517.0,1
31,31,0.4455396730426592,0.4,1.0,1.0,415.0,607.0,1.0,1,438.0,1
32,32,0.15469537775209374,0.2,1.0,1.0,281.0,519.0,1.0,1,340.0,1
33,33,-0.6016730478550065,-0.6,1.0,0.0,328.0,787.0,0.0,0,265.0,1
34,34,-0.023409385440530728,-0.0,1.0,0.0,446.0,850.0,1.0,1,1704.0,0
35,35,-0.1335892682382709,-0.1,1.0,0.0,407.0,685.0,1.0,1,318.0,0
36,36,0.5056295225847262,0.5,0.0,0.0,374.0,848.0,0.0,1,568.0,1
37,37,-0.6738891340768476,-0.7,1.0,0.0,283.0,971.0,0.0,0,216.0,1
38,38,0.2742779029547545,0.3,1.0,1.0,472.0,729.0,1.0,1,-141.0,1
39,39,0.7559648473707249,0.8,0.0,0.0,308.0,566.0,0.0,1,306.0,1
40,40,0.5361315655849809,0.5,0.0,0.0,289.0,891.0,0.0,1,310.0,1
41,41,0.5165135563206132,0.5,1.0,1.0,304.0,529.0,1.0,1,317.0,1
42,42,0.12262090663584047,0.1,0.0,0.0,279.0,990.0,0.0,1,1731.0,1
43,43,0.1491975966708471,0.1,0.0,0.0,492.0,561.0,0.0,1,1127.0,1
44,44,0.6655306152648995,0.7,1.0,1.0,483.0,521.0,1.0,1,146.0,1
45,45,-0.21789361770002869,-0.2,0.0,1.0,383.0,771.0,1.0,0,516.0,1
46,46,0.35745342640053235,0.4,1.0,1.0,305.0,670.0,1.0,1,225.0,1
47,47,-0.6748238681123513,-0.7,0.0,1.0,450.0,975.0,1.0,0,115.0,1
48,48,-0.2143073359340143,-0.2,0.0,1.0,269.0,861.0,1.0,0,800.0,1
49,49,-0.7615332658265019,-0.8,1.0,0.0,413.0,929.0,0.0,0,338.0,1
50,50,-0.003905407756785384,-0.0,0.0,1.0,315.0,770.0,1.0,0,945.0,1
51,51,0.7730515428287289,0.8,1.0,1.0,388.0,865.0,1.0,1,157.0,1
52,52,0.12120800976186186,0.1,1.0,1.0,414.0,758.0,1.0,1,538.0,1
53,53,-0.4329797252234137,-0.4,1.0,0.0,443.0,705.0,0.0,0,562.0,1
54,54,-0.7589102832111561,-0.8,0.0,1.0,261.0,730.0,1.0,0,279.0,1
55,55,-0.7535619999455359,-0.8,0.0,1.0,272.0,796.0,1.0,0,-298.0,1
56,56,0.6293229183543828,0.6,0.0,0.0,348.0,553.0,0.0,1,309.0,1
57,57,0.5462055032736116,0.5,1.0,1.0,420.0,775.0,1.0,1,135.0,1
58,58,0.14853797746099262,0.1,1.0,1.0,453.0,950.0,1.0,1,337.0,1
59,59,-0.41122649379302945,-0.4,1.0,0.0,290.0,820.0,0.0,0,620.0,1
60,60,0.14981303478045815,0.1,1.0,1.0,464.0,784.0,1.0,1,772.0,1
61,61,-0.4892415452934053,-0.5,1.0,0.0,381.0,825.0,0.0,0,1054.0,1
62,62,-0.08212335090714062,-0.1,1.0,0.0,391.0,866.0,1.0,1,533.0,0
63,63,-0.72503613035536,-0.7,0.0,1.0,411.0,903.0,1.0,0,286.0,1
64,64,0.11319860821675876,0.1,1.0,1.0,289.0,634.0,1.0,1,1017.0,1
65,65,-0.05103925198142911,-0.1,0.0,1.0,291.0,620.0,1.0,0,169.0,1
66,66,0.3047675877712629,0.3,0.0,0.0,387.0,879.0,0.0,1,274.0,1
67,67,-0.09601975018142928,-0.1,0.0,1.0,386.0,627.0,1.0,0,677.0,1
68,68,0.3365509225157023,0.3,1.0,1.0,462.0,946.0,1.0,1,262.0,1
69,69,0.6311354266751527,0.6,1.0,1.0,448.0,756.0,1.0,1,256.0,1
70,70,0.3142424139683747,0.3,0.0,0.0,428.0,748.0,0.0,1,624.0,1
71,71,-0.03173570661417269,-0.0,0.0,1.0,334.0,645.0,1.0,0,1521.0,1
72,72,-0.1476546269582536,-0.1,1.0,0.0,317.0,761.0,0.0,0,1922.0,1
73,73,-0.724256834737348,-0.7,0.0,1.0,403.0,930.0,1.0,0,-153.0,1
74,74,-0.6541521406590567,-0.7,1.0,0.0,302.0,826.0,0.0,0,502.0,1
75,75,0.14285085755644455,0.1,1.0,1.0,253.0,633.0,1.0,1,104.0,1
76,76,0.1399146237315797,0.1,1.0,1.0,489.0,678.0,1.0,1,483.0,1
77,77,-0.745178778892666,-0.7,1.0,0.0,426.0,635.0,0.0,0,299.0,1
78,78,-0.7118387374146666,-0.7,0.0,1.0,273.0,859.0,1.0,0,148.0,1
79,79,-0.4031607407222744,-0.4,1.0,0.0,325.0,837.0,0.0,0,1838.0,1
80,80,-0.6321299428438512,-0.6,1.0,0.0,474.0,629.0,0.0,0,577.0,1
81,81,-0.5781952894093423,-0.6,0.0,1.0,344.0,716.0,1.0,0,250.0,1
82,82,-0.7956895971852531,-0.8,1.0,0.0,391.0,588.0,0.0,0,421.0,1
83,83,0.8122441961528489,0.8,1.0,1.0,315.0,770.0,1.0,1,105.0,1
84,84,-0.4173630169918034,-0.4,0.0,1.0,483.0,790.0,1.0,0,207.0,1
85,85,0.4849237883452254,0.5,0.0,0.0,291.0,600.0,0.0,1,739.0,1
86,86,-0.27204228445533873,-0.3,0.0,1.0,335.0,544.0,1.0,0,521.0,1
87,87,-0.2046705238158658,-0.2,0.0,1.0,405.0,640.0,1.0,0,365.0,1
88,88,-0.20420111265004148,-0.2,0.0,1.0,270.0,933.0,1.0,0,107.0,1
89,89,-0.6806928767059939,-0.7,0.0,1.0,434.0,922.0,1.0,0,214.0,1
90,90,-0.6682636891590903,-0.7,1.0,0.0,362.0,672.0,0.0,0,246.0,1
91,91,0.6463136060872924,0.6,1.0,1.0,350.0,818.0,1.0,1,162.0,1
92,92,-0.6474231982573627,-0.6,1.0,0.0,295.0,926.0,0.0,0,609.0,1
93,93,-0.19046679598349692,-0.2,0.0,1.0,384.0,664.0,1.0,0,592.0,1
94,94,-0.4614730392689683,-0.5,0.0,1.0,483.0,807.0,1.0,0,390.0,1
95,95,0.5612495416447755,0.6,1.0,1.0,320.0,979.0,1.0,1,-49.0,1
96,96,-0.44134716453829126,-0.4,0.0,1.0,345.0,572.0,1.0,0,283.0,1
97,97,0.5796392835378893,0.6,1.0,1.0,374.0,692.0,1.0,1,144.0,1
98,98,-0.5107999880401299,-0.5,0.0,1.0,426.0,597.0,1.0,0,67.0,1
99,99,-0.6394003041957848,-0.6,1.0,0.0,290.0,538.0,0.0,0,462.0,1
100,100,-0.6775399023184984,-0.7,0.0,1.0,476.0,952.0,1.0,0,172.0,1
101,101,0.6609436839017001,0.7,0.0,0.0,484.0,628.0,0.0,1,318.0,1
102,102,0.45461428629804634,0.5,1.0,1.0,298.0,804.0,1.0,1,208.0,1
103,103,0.09775317212956491,0.1,1.0,1.0,424.0,710.0,1.0,1,776.0,1
104,104,-0.1999596525442061,-0.2,0.0,1.0,306.0,750.0,1.0,0,1684.0,1
105,105,0.8434518223288655,0.8,1.0,1.0,267.0,688.0,1.0,1,75.0,1
106,106,0.19209389312481873,0.2,0.0,0.0,326.0,554.0,0.0,1,1380.0,1
107,107,-0.2512174792656656,-0.3,1.0,0.0,477.0,669.0,0.0,0,1594.0,1
108,108,-0.7215097641632214,-0.7,0.0,1.0,274.0,562.0,1.0,0,364.0,1
109,109,0.16136594145315108,0.2,0.0,0.0,370.0,515.0,0.0,1,2115.0,1
110,110,0.33122331266315574,0.3,1.0,1.0,403.0,602.0,1.0,1,145.0,1
111,111,-0.3873631490820333,-0.4,0.0,1.0,302.0,603.0,1.0,0,905.0,1
112,112,-0.1754058362807599,-0.2,1.0,0.0,419.0,870.0,1.0,1,1711.0,0
113,113,0.45069405993852596,0.5,1.0,1.0,495.0,577.0,1.0,1,338.0,1
114,114,0.2633589506030033,0.3,1.0,1.0,340.0,641.0,1.0,1,279.0,1
115,115,0.5964141471981964,0.6,1.0,1.0,256.0,913.0,1.0,1,131.0,1
116,116,-0.7030282682318807,-0.7,0.0,1.0,293.0,633.0,1.0,0,114.0,1
117,117,0.20775143102432858,0.2,0.0,0.0,495.0,532.0,0.0,1,523.0,1
118,118,0.4053017498670227,0.4,0.0,0.0,305.0,901.0,0.0,1,444.0,1
119,119,-0.21317095732363223,-0.2,0.0,1.0,339.0,752.0,1.0,0,239.0,1
120,120,-0.8284638801001906,-0.8,0.0,1.0,432.0,934.0,1.0,0,-206.0,1
121,121,-0.474753914810271,-0.5,1.0,0.0,431.0,670.0,0.0,0,349.0,1
122,122,-0.7245052073608134,-0.7,0.0,1.0,493.0,755.0,1.0,0,22.0,1
123,123,0.15051743988918298,0.2,0.0,0.0,361.0,534.0,1.0,0,2105.0,0
124,124,-0.28569965794942975,-0.3,1.0,0.0,418.0,665.0,0.0,0,1917.0,1
125,125,-0.8233943864805463,-0.8,1.0,0.0,473.0,529.0,0.0,0,548.0,1
126,126,-0.7339673563191207,-0.7,0.0,1.0,324.0,609.0,1.0,0,157.0,1
127,127,0.7364128460698393,0.7,1.0,1.0,440.0,974.0,1.0,1,106.0,1
128,128,-0.4613631737793628,-0.5,0.0,1.0,404.0,656.0,1.0,0,210.0,1
129,129,0.1424402735589737,0.1,1.0,1.0,380.0,601.0,1.0,1,899.0,1
130,130,0.11134391081627293,0.1,0.0,0.0,341.0,520.0,0.0,1,379.0,1
131,131,0.6098072973979846,0.6,1.0,1.0,436.0,796.0,1.0,1,308.0,1
132,132,-0.5041559996714275,-0.5,1.0,0.0,403.0,797.0,0.0,0,1120.0,1
133,133,-0.536034996925571,-0.5,1.0,0.0,467.0,764.0,0.0,0,849.0,1
134,134,-0.20625560484295458,-0.2,1.0,0.0,301.0,908.0,0.0,0,841.0,1
135,135,0.07723988370999135,0.1,1.0,1.0,311.0,618.0,1.0,1,981.0,1
136,136,0.738524246196045,0.7,1.0,1.0,410.0,591.0,1.0,1,129.0,1
137,137,-0.06917792924737365,-0.1,1.0,0.0,457.0,812.0,1.0,1,1731.0,0
138,138,0.20267876967448972,0.2,0.0,0.0,499.0,964.0,1.0,0,-293.0,0
139,139,0.6661248779838232,0.7,0.0,0.0,476.0,816.0,0.0,1,188.0,1
140,140,-0.8556626346135944,-0.9,1.0,0.0,312.0,664.0,0.0,0,384.0,1
141,141,0.869063188145558,0.9,1.0,1.0,310.0,828.0,1.0,1,122.0,1
142,142,0.3079670672831806,0.3,0.0,0.0,455.0,511.0,0.0,1,404.0,1
143,143,0.648780475568078,0.6,0.0,0.0,479.0,702.0,0.0,1,109.0,1
144,144,-0.3693172173780641,-0.4,0.0,1.0,332.0,923.0,1.0,0,435.0,1
145,145,-0.8335287248223769,-0.8,0.0,1.0,415.0,896.0,1.0,0,99.0,1
146,146,-0.8978939748621778,-0.9,0.0,1.0,470.0,688.0,1.0,0,72.0,1
147,147,0.7527534522231826,0.8,1.0,1.0,422.0,567.0,1.0,1,81.0,1
148,148,0.6150696724643648,0.6,1.0,1.0,382.0,571.0,1.0,1,187.0,1
149,149,-0.09164716463156342,-0.1,0.0,1.0,323.0,721.0,1.0,0,706.0,1
150,150,-0.21881191848862114,-0.2,0.0,1.0,427.0,535.0,1.0,0,568.0,1
151,151,0.40199438971725765,0.4,0.0,0.0,351.0,701.0,0.0,1,1658.0,1
152,152,0.5168975936566723,0.5,0.0,0.0,275.0,710.0,0.0,1,325.0,1
153,153,-0.6671580932714731,-0.7,1.0,0.0,407.0,534.0,0.0,0,549.0,1
154,154,-0.5116406313123436,-0.5,1.0,0.0,447.0,986.0,0.0,0,1567.0,1
155,155,-0.6831399146436625,-0.7,0.0,1.0,384.0,565.0,1.0,0,171.0,1
156,156,-0.7519761590770601,-0.8,1.0,0.0,369.0,502.0,0.0,0,549.0,1
157,157,-0.024810876891052436,-0.0,0.0,1.0,402.0,803.0,1.0,0,1315.0,1
158,158,-0.6633843292340063,-0.7,0.0,1.0,325.0,884.0,1.0,0,-589.0,1
159,159,0.5035033997495658,0.5,1.0,1.0,376.0,601.0,1.0,1,373.0,1
160,160,-0.8793357659977026,-0.9,1.0,0.0,442.0,879.0,0.0,0,249.0,1
161,161,-0.6227406591243458,-0.6,0.0,1.0,307.0,771.0,1.0,0,212.0,1
162,162,0.2969090471998571,0.3,1.0,1.0,427.0,702.0,1.0,1,301.0,1
163,163,0.6798657564887728,0.7,0.0,0.0,396.0,914.0,0.0,1,190.0,1
164,164,-0.7102974622581294,-0.7,0.0,1.0,349.0,625.0,1.0,0,226.0,1
165,165,-0.8137021938146541,-0.8,0.0,1.0,325.0,605.0,1.0,0,440.0,1
166,166,0.539783798479485,0.5,1.0,1.0,307.0,984.0,1.0,1,-31.0,1
167,167,-0.5387631145822807,-0.5,1.0,0.0,495.0,972.0,0.0,0,643.0,1
168,168,-0.17938455543541543,-0.2,0.0,1.0,467.0,610.0,1.0,0,53.0,1
169,169,-0.7301229915973784,-0.7,0.0,1.0,284.0,695.0,1.0,0,81.0,1
170,170,-0.7134475299443289,-0.7,0.0,1.0,273.0,779.0,1.0,0,238.0,1
171,171,-0.20841880439797367,-0.2,1.0,0.0,284.0,523.0,0.0,0,2193.0,1
172,172,-0.5479519177492772,-0.5,1.0,0.0,353.0,692.0,1.0,1,-45.0,0
173,173,-0.17247236660831355,-0.2,0.0,1.0,430.0,915.0,1.0,0,-15.0,1
174,174,-0.3092686230530942,-0.3,0.0,1.0,435.0,854.0,1.0,0,661.0,1
175,175,-0.658373967882719,-0.7,0.0,1.0,476.0,897.0,1.0,0,217.0,1
176,176,-0.7349758152583291,-0.7,0.0,1.0,285.0,957.0,1.0,0,158.0,1
177,177,-0.3123616868506839,-0.3,0.0,1.0,315.0,767.0,1.0,0,188.0,1
178,178,0.017241712935452957,0.0,1.0,1.0,310.0,934.0,1.0,1,1756.0,1
179,179,0.16716901237649007,0.2,0.0,0.0,378.0,899.0,0.0,1,703.0,1
180,180,-0.2724849805862435,-0.3,0.0,1.0,398.0,935.0,1.0,0,-273.0,1
181,181,0.7273928839254921,0.7,0.0,0.0,448.0,684.0,0.0,1,328.0,1
182,182,0.24315285672103826,0.2,1.0,1.0,414.0,920.0,1.0,1,456.0,1
183,183,-0.8759741822388682,-0.9,1.0,0.0,355.0,695.0,0.0,0,420.0,1
184,184,-0.04902241978538191,-0.0,0.0,1.0,374.0,691.0,1.0,0,1935.0,1
185,185,0.8353211364045418,0.8,1.0,1.0,478.0,594.0,1.0,1,78.0,1
186,186,-0.5846572368667731,-0.6,0.0,1.0,408.0,552.0,1.0,0,350.0,1
187,187,-0.3596131798514577,-0.4,0.0,1.0,284.0,886.0,1.0,0,170.0,1
188,188,-0.5073544852594551,-0.5,1.0,0.0,454.0,673.0,0.0,0,653.0,1
189,189,0.2633150655495803,0.3,0.0,0.0,467.0,909.0,0.0,1,104.0,1
190,190,0.8627023441138176,0.9,0.0,0.0,295.0,846.0,1.0,0,-511.0,0
191,191,-0.6239467586411366,-0.6,0.0,1.0,436.0,532.0,1.0,0,342.0,1
192,192,-0.42549863166913754,-0.4,0.0,1.0,454.0,933.0,1.0,0,123.0,1
193,193,0.4138471936441147,0.4,1.0,1.0,255.0,831.0,1.0,1,204.0,1
194,194,0.6058305463980201,0.6,0.0,0.0,484.0,998.0,0.0,1,238.0,1
195,195,0.5508040953304826,0.6,1.0,1.0,276.0,608.0,1.0,1,146.0,1
196,196,-0.8977580382101463,-0.9,0.0,1.0,465.0,959.0,1.0,0,136.0,1
197,197,-0.3465969007170462,-0.3,0.0,1.0,293.0,607.0,1.0,0,470.0,1
198,198,0.27575397789429335,0.3,1.0,1.0,302.0,519.0,1.0,1,229.0,1
199,199,-0.6259161933675308,-0.6,0.0,1.0,304.0,978.0,0.0,1,-662.0,0
200,200,0.5792407406929571,0.6,1.0,1.0,306.0,888.0,1.0,1,66.0,1
201,201,0.1612439961097475,0.2,1.0,1.0,319.0,754.0,1.0,1,417.0,1
202,202,-0.2624059835428232,-0.3,1.0,0.0,356.0,823.0,1.0,1,591.0,0
203,203,-0.6540714275156508,-0.7,0.0,1.0,274.0,850.0,1.0,0,156.0,1
204,204,0.40035309145576103,0.4,1.0,1.0,364.0,544.0,1.0,1,172.0,1
205,205,0.5248506063173292,0.5,0.0,0.0,300.0,810.0,0.0,1,430.0,1
206,206,0.6671156509294306,0.7,1.0,1.0,342.0,530.0,1.0,1,318.0,1
207,207,0.06126027897815545,0.1,1.0,1.0,289.0,741.0,1.0,1,420.0,1
208,208,-0.22683555471667205,-0.2,1.0,0.0,288.0,621.0,1.0,1,2091.0,0
209,209,0.6206565942999075,0.6,0.0,0.0,454.0,522.0,0.0,1,354.0,1
210,210,0.32706531888851453,0.3,0.0,0.0,473.0,977.0,0.0,1,520.0,1
211,211,0.4492353268021835,0.4,1.0,1.0,350.0,696.0,1.0,1,44.0,1
212,212,0.3373831587493915,0.3,1.0,1.0,349.0,820.0,1.0,1,301.0,1
213,213,0.6675478621486252,0.7,0.0,0.0,327.0,626.0,0.0,1,317.0,1
214,214,-0.1475401998781244,-0.1,0.0,1.0,251.0,942.0,1.0,0,177.0,1
215,215,-0.2937829822310607,-0.3,1.0,0.0,280.0,885.0,1.0,1,-185.0,0
216,216,0.6170985876750633,0.6,0.0,0.0,377.0,960.0,0.0,1,143.0,1
217,217,-0.8793856190367467,-0.9,0.0,1.0,454.0,843.0,1.0,0,73.0,1
218,218,-0.09508775733601793,-0.1,1.0,0.0,408.0,542.0,1.0,1,2050.0,0
219,219,0.5106408490267688,0.5,1.0,1.0,438.0,575.0,1.0,1,257.0,1
220,220,-0.8659571774275875,-0.9,1.0,0.0,354.0,862.0,0.0,0,294.0,1
221,221,-0.6290833133634421,-0.6,1.0,0.0,369.0,710.0,0.0,0,741.0,1
222,222,-0.716116500382723,-0.7,1.0,0.0,311.0,504.0,0.0,0,485.0,1
223,223,0.10348258349667427,0.1,0.0,0.0,495.0,550.0,0.0,1,1385.0,1
224,224,0.5594891726952017,0.6,1.0,1.0,480.0,986.0,1.0,1,124.0,1
225,225,-0.5925610265786814,-0.6,1.0,0.0,251.0,564.0,0.0,0,415.0,1
226,226,0.13901829839589663,0.1,0.0,0.0,426.0,858.0,1.0,0,-314.0,0
227,227,-0.19528687766344988,-0.2,0.0,1.0,295.0,642.0,1.0,0,763.0,1
228,228,-0.33794572756049335,-0.3,0.0,1.0,313.0,989.0,1.0,0,308.0,1
229,229,0.6077641632879242,0.6,1.0,1.0,413.0,787.0,1.0,1,250.0,1
230,230,0.049946732744803546,0.0,1.0,1.0,380.0,923.0,1.0,1,-633.0,1
231,231,0.8063739116471326,0.8,1.0,1.0,320.0,901.0,1.0,1,69.0,1
232,232,0.8111015735555972,0.8,0.0,0.0,442.0,534.0,0.0,1,134.0,1
233,233,-0.8998740583833201,-0.9,0.0,1.0,363.0,774.0,1.0,0,93.0,1
234,234,-0.587760812644613,-0.6,0.0,1.0,271.0,528.0,1.0,0,231.0,1
235,235,-0.03533594038729315,-0.0,1.0,0.0,344.0,719.0,1.0,1,1897.0,0
236,236,0.3411880249754494,0.3,0.0,0.0,406.0,814.0,0.0,1,870.0,1
237,237,-0.41699231733279285,-0.4,0.0,1.0,463.0,863.0,1.0,0,104.0,1
238,238,0.29845289196213687,0.3,1.0,1.0,397.0,935.0,1.0,1,308.0,1
239,239,-0.42724194426178297,-0.4,0.0,1.0,302.0,834.0,0.0,1,-366.0,0
240,240,-0.6724662571212008,-0.7,1.0,0.0,440.0,766.0,0.0,0,304.0,1
241,241,0.8073856459828547,0.8,1.0,1.0,461.0,872.0,1.0,1,137.0,1
242,242,0.7305590005033565,0.7,0.0,0.0,394.0,966.0,1.0,0,-720.0,0
243,243,0.8881299777092576,0.9,0.0,0.0,300.0,856.0,1.0,0,-6.0,0
244,244,0.09823075237202128,0.1,0.0,0.0,480.0,996.0,1.0,0,174.0,0
245,245,-0.6131405411602666,-0.6,0.0,1.0,440.0,606.0,1.0,0,184.0,1
246,246,-0.5971705360366049,-0.6,0.0,1.0,346.0,955.0,1.0,0,159.0,1
247,247,-0.46913762319580005,-0.5,0.0,1.0,418.0,791.0,1.0,0,201.0,1
248,248,-0.2749644855920881,-0.3,0.0,1.0,334.0,788.0,1.0,0,228.0,1
249,249,-0.19953696507986263,-0.2,1.0,0.0,271.0,739.0,0.0,0,1990.0,1
250,250,-0.5226210770891894,-0.5,0.0,1.0,321.0,883.0,1.0,0,186.0,1
251,251,-0.20735969473448523,-0.2,0.0,1.0,432.0,506.0,1.0,0,1152.0,1
252,252,0.4033429002308663,0.4,0.0,0.0,256.0,656.0,0.0,1,438.0,1
253,253,-0.5132468508392058,-0.5,0.0,1.0,334.0,592.0,1.0,0,1094.0,1
254,254,-0.8820857101291443,-0.9,1.0,0.0,375.0,606.0,0.0,0,609.0,1
255,255,0.2279710447990705,0.2,1.0,1.0,357.0,772.0,1.0,1,221.0,1
256,256,0.8505750127781458,0.9,1.0,1.0,264.0,527.0,1.0,1,9.0,1
257,257,0.7877007478486237,0.8,0.0,0.0,298.0,863.0,0.0,1,189.0,1
258,258,-0.7894219727900349,-0.8,0.0,1.0,411.0,644.0,1.0,0,305.0,1
259,259,-0.11871853351129491,-0.1,1.0,0.0,295.0,992.0,1.0,1,-807.0,0
260,260,0.46986914737438357,0.5,0.0,0.0,305.0,802.0,0.0,1,63.0,1
261,261,-0.7131616949760158,-0.7,0.0,1.0,455.0,735.0,1.0,0,-50.0,1
262,262,0.2893255969757659,0.3,0.0,0.0,448.0,879.0,0.0,1,453.0,1
263,263,-0.18485335661346258,-0.2,1.0,0.0,388.0,594.0,0.0,0,2018.0,1
264,264,-0.4514013760267124,-0.5,0.0,1.0,414.0,605.0,1.0,0,261.0,1
265,265,0.3668776804490771,0.4,1.0,1.0,421.0,722.0,1.0,1,287.0,1
266,266,0.3059641937253642,0.3,0.0,0.0,357.0,504.0,0.0,1,449.0,1
267,267,-0.07041361200631491,-0.1,1.0,0.0,288.0,805.0,1.0,1,597.0,0
268,268,-0.5679428110192623,-0.6,0.0,1.0,433.0,930.0,1.0,0,187.0,1
269,269,-0.39842051808332646,-0.4,0.0,1.0,377.0,514.0,1.0,0,409.0,1
270,270,0.1255611167746632,0.1,0.0,0.0,328.0,785.0,1.0,0,157.0,0
271,271,0.1507937544047716,0.2,1.0,1.0,271.0,747.0,1.0,1,842.0,1
272,272,-0.43033601344802896,-0.4,0.0,1.0,499.0,878.0,1.0,0,273.0,1
273,273,0.41410899845519167,0.4,1.0,1.0,292.0,951.0,1.0,1,-603.0,1
274,274,-0.8018179013553768,-0.8,0.0,1.0,408.0,882.0,1.0,0,100.0,1
275,275,-0.7250975971753443,-0.7,1.0,0.0,347.0,904.0,0.0,0,339.0,1
276,276,0.27376860040712725,0.3,1.0,1.0,259.0,649.0,1.0,1,322.0,1
277,277,0.16558539291951602,0.2,1.0,1.0,316.0,570.0,1.0,1,284.0,1
278,278,0.8088072655124762,0.8,0.0,0.0,408.0,697.0,0.0,1,135.0,1
279,279,-0.8763089636772011,-0.9,1.0,0.0,318.0,901.0,0.0,0,291.0,1
280,280,-0.46234657147618374,-0.5,0.0,1.0,334.0,530.0,1.0,0,-294.0,1
281,281,-0.290197014430023,-0.3,1.0,0.0,291.0,567.0,0.0,0,2142.0,1
282,282,0.052004404244369584,0.1,1.0,1.0,284.0,920.0,1.0,1,-534.0,1
283,283,-0.22240481072272456,-0.2,0.0,1.0,288.0,516.0,1.0,0,806.0,1
284,284,0.29642762399313904,0.3,0.0,0.0,492.0,580.0,0.0,1,478.0,1
285,285,0.5162564101290433,0.5,1.0,1.0,322.0,540.0,1.0,1,278.0,1
286,286,-0.29928488269409426,-0.3,1.0,0.0,381.0,973.0,0.0,0,1246.0,1
287,287,-0.14899212252807859,-0.1,1.0,0.0,252.0,558.0,0.0,0,2190.0,1
288,288,-0.6565925467555441,-0.7,0.0,1.0,370.0,890.0,1.0,0,280.0,1
289,289,0.7731054246315389,0.8,1.0,1.0,372.0,659.0,1.0,1,189.0,1
290,290,0.19512176735446418,0.2,1.0,1.0,300.0,554.0,1.0,1,416.0,1
291,291,-0.7019830504627811,-0.7,0.0,1.0,252.0,643.0,1.0,0,275.0,1
292,292,-0.7717488361545377,-0.8,0.0,1.0,473.0,787.0,1.0,0,200.0,1
293,293,-0.6307978141020969,-0.6,1.0,0.0,276.0,761.0,0.0,0,733.0,1
294,294,-0.11421937089135015,-0.1,1.0,0.0,256.0,787.0,1.0,1,17.0,0
295,295,-0.5169997834164346,-0.5,1.0,0.0,464.0,983.0,1.0,1,-697.0,0
296,296,-0.8114842801104881,-0.8,0.0,1.0,439.0,598.0,1.0,0,73.0,1
297,297,-0.2371559954712561,-0.2,0.0,1.0,313.0,768.0,1.0,0,359.0,1
298,298,-0.7015752610625918,-0.7,1.0,0.0,346.0,643.0,0.0,0,321.0,1
299,299,-0.40385271431656633,-0.4,1.0,0.0,372.0,843.0,0.0,0,595.0,1
300,300,-0.06538938669026872,-0.1,1.0,0.0,471.0,972.0,1.0,1,127.0,0
301,301,-0.11247085154616843,-0.1,0.0,1.0,274.0,561.0,1.0,0,495.0,1
302,302,0.8133788284496263,0.8,0.0,0.0,441.0,657.0,0.0,1,362.0,1
303,303,0.5889190515382384,0.6,0.0,0.0,301.0,960.0,1.0,0,-31.0,0
304,304,-0.2614585457542712,-0.3,0.0,1.0,430.0,708.0,1.0,0,512.0,1
305,305,0.7930003518812457,0.8,1.0,1.0,335.0,714.0,1.0,1,-299.0,1
306,306,-0.4012876716032848,-0.4,0.0,1.0,473.0,536.0,1.0,0,531.0,1
307,307,0.6491431482384401,0.6,1.0,1.0,336.0,875.0,1.0,1,139.0,1
308,308,0.4378127938626052,0.4,0.0,0.0,440.0,779.0,0.0,1,451.0,1
309,309,0.051272064296320585,0.1,0.0,0.0,254.0,692.0,1.0,0,214.0,0
310,310,0.3397265746266914,0.3,0.0,0.0,456.0,846.0,0.0,1,-272.0,1
311,311,0.388245229304207,0.4,0.0,0.0,410.0,607.0,0.0,1,453.0,1
312,312,0.18540081215108206,0.2,1.0,1.0,487.0,829.0,1.0,1,384.0,1
313,313,-0.7093718463651669,-0.7,0.0,1.0,356.0,803.0,1.0,0,-199.0,1
314,314,0.7521439829421152,0.8,0.0,0.0,300.0,853.0,0.0,1,317.0,1
315,315,-0.0458289078477756,-0.0,0.0,1.0,312.0,820.0,1.0,0,698.0,1
316,316,-0.06754162440389422,-0.1,0.0,1.0,423.0,724.0,1.0,0,123.0,1
317,317,0.8243630993777048,0.8,1.0,1.0,450.0,929.0,1.0,1,191.0,1
318,318,0.5821660309925017,0.6,0.0,0.0,329.0,827.0,0.0,1,154.0,1
319,319,0.6460122358158024,0.6,1.0,1.0,457.0,608.0,1.0,1,355.0,1
320,320,-0.2965956156446834,-0.3,1.0,0.0,253.0,880.0,0.0,0,1867.0,1
321,321,0.8318866366019649,0.8,1.0,1.0,463.0,816.0,1.0,1,91.0,1
322,322,-0.5868039700323249,-0.6,0.0,1.0,275.0,521.0,1.0,0,354.0,1
323,323,-0.5454243868427677,-0.5,1.0,0.0,273.0,811.0,0.0,0,286.0,1
324,324,-0.5735357499123488,-0.6,1.0,0.0,429.0,994.0,0.0,0,597.0,1
325,325,-0.284382315569363,-0.3,1.0,0.0,402.0,974.0,0.0,0,624.0,1
326,326,0.460149753457218,0.5,0.0,0.0,479.0,722.0,0.0,1,1159.0,1
327,327,0.5047465853531611,0.5,1.0,1.0,302.0,579.0,1.0,1,-11.0,1
328,328,0.7527465466364954,0.8,1.0,1.0,382.0,512.0,1.0,1,196.0,1
329,329,-0.5862055246778566,-0.6,1.0,0.0,373.0,975.0,0.0,0,462.0,1
330,330,0.19486880164474363,0.2,1.0,1.0,460.0,692.0,1.0,1,858.0,1
331,331,0.01746530536028612,0.0,1.0,1.0,297.0,771.0,1.0,1,172.0,1
332,332,0.3407830915547446,0.3,1.0,1.0,272.0,971.0,1.0,1,287.0,1
333,333,0.620556530613224,0.6,1.0,1.0,288.0,536.0,1.0,1,116.0,1
334,334,-0.2803825810575372,-0.3,1.0,0.0,395.0,957.0,1.0,1,1648.0,0
335,335,0.18613964859515708,0.2,0.0,0.0,266.0,662.0,0.0,1,1342.0,1
336,336,-0.2291008726314504,-0.2,0.0,1.0,480.0,632.0,1.0,0,978.0,1
337,337,-0.17202330508135744,-0.2,0.0,1.0,318.0,913.0,1.0,0,529.0,1
338,338,-0.5616573605392858,-0.6,0.0,1.0,283.0,726.0,1.0,0,71.0,1
339,339,-0.010882758825004779,-0.0,1.0,0.0,379.0,868.0,1.0,1,273.0,0
340,340,0.3928432655008972,0.4,1.0,1.0,413.0,999.0,1.0,1,268.0,1
341,341,-0.8883948879758076,-0.9,0.0,1.0,405.0,806.0,1.0,0,159.0,1
342,342,-0.5341296698708295,-0.5,0.0,1.0,480.0,514.0,1.0,0,166.0,1
343,343,0.49680525778885876,0.5,0.0,0.0,473.0,612.0,0.0,1,295.0,1
344,344,0.527866784593301,0.5,0.0,0.0,371.0,962.0,0.0,1,247.0,1
345,345,-0.19889384140248134,-0.2,0.0,1.0,481.0,701.0,1.0,0,-2.0,1
346,346,-0.5914378698839278,-0.6,1.0,0.0,304.0,917.0,0.0,0,339.0,1
347,347,-0.34247549635058083,-0.3,1.0,0.0,270.0,836.0,0.0,0,1004.0,1
348,348,0.012068781148104946,0.0,1.0,1.0,464.0,909.0,1.0,1,1627.0,1
349,349,0.5200435235839188,0.5,0.0,0.0,274.0,665.0,0.0,1,-169.0,1
350,350,-0.891872080984759,-0.9,1.0,0.0,439.0,862.0,0.0,0,159.0,1
351,351,0.32746034807213265,0.3,1.0,1.0,448.0,509.0,1.0,1,293.0,1
352,352,0.8569241916253857,0.9,0.0,0.0,289.0,508.0,0.0,1,243.0,1
353,353,-0.7926532430474625,-0.8,0.0,1.0,479.0,572.0,1.0,0,209.0,1
354,354,-0.552226521254762,-0.6,0.0,1.0,328.0,761.0,1.0,0,221.0,1
355,355,-0.4698165773006268,-0.5,1.0,0.0,447.0,991.0,0.0,0,1562.0,1
356,356,-0.23660129953528186,-0.2,1.0,0.0,457.0,839.0,0.0,0,1704.0,1
357,357,0.08681633557949175,0.1,1.0,1.0,310.0,659.0,1.0,1,1141.0,1
358,358,-0.39946237194012557,-0.4,1.0,0.0,382.0,653.0,0.0,0,295.0,1
359,359,0.7223876330253686,0.7,1.0,1.0,386.0,953.0,1.0,1,11.0,1
360,360,0.5889750165003228,0.6,0.0,0.0,346.0,810.0,0.0,1,974.0,1
361,361,0.6759450608665197,0.7,0.0,0.0,446.0,722.0,0.0,1,242.0,1
362,362,0.8588481393792279,0.9,0.0,0.0,276.0,572.0,0.0,1,112.0,1
363,363,-0.33081156372607334,-0.3,0.0,1.0,463.0,523.0,1.0,0,394.0,1
364,364,-0.49639183193714537,-0.5,1.0,0.0,330.0,839.0,0.0,0,331.0,1
365,365,-0.3299197731213387,-0.3,0.0,1.0,318.0,704.0,1.0,0,248.0,1
366,366,0.6452687170105725,0.6,1.0,1.0,491.0,575.0,1.0,1,54.0,1
367,367,-0.675323589437955,-0.7,0.0,1.0,308.0,789.0,1.0,0,123.0,1
368,368,0.5801010429700663,0.6,1.0,1.0,480.0,917.0,1.0,1,163.0,1
369,369,0.49460829889956626,0.5,1.0,1.0,283.0,857.0,1.0,1,150.0,1
370,370,-0.847166793018839,-0.8,1.0,0.0,481.0,580.0,0.0,0,229.0,1
371,371,-0.02580948267922678,-0.0,0.0,1.0,317.0,829.0,1.0,0,1344.0,1
372,372,-0.05659395918839838,-0.1,0.0,1.0,281.0,715.0,0.0,1,-406.0,0
373,373,-0.09611646035038157,-0.1,0.0,1.0,453.0,655.0,1.0,0,812.0,1
374,374,0.6592084689046539,0.7,0.0,0.0,310.0,524.0,1.0,0,-24.0,0
375,375,0.030197059917549063,0.0,0.0,0.0,492.0,656.0,1.0,0,1852.0,0
376,376,0.31667006968919365,0.3,0.0,0.0,314.0,601.0,0.0,1,855.0,1
377,377,-0.24420980482039345,-0.2,1.0,0.0,427.0,530.0,0.0,0,2043.0,1
378,378,-0.6414899861234729,-0.6,1.0,0.0,476.0,810.0,0.0,0,694.0,1
379,379,-0.40857455872466136,-0.4,1.0,0.0,349.0,901.0,0.0,0,940.0,1
380,380,0.6732081897110497,0.7,0.0,0.0,296.0,975.0,0.0,1,169.0,1
381,381,0.36143875016279325,0.4,1.0,1.0,410.0,557.0,1.0,1,263.0,1
382,382,-0.05401642957191399,-0.1,1.0,0.0,324.0,789.0,1.0,1,1467.0,0
383,383,-0.31887044622851823,-0.3,0.0,1.0,445.0,576.0,1.0,0,389.0,1
384,384,-0.17077633178647622,-0.2,1.0,0.0,316.0,629.0,0.0,0,2055.0,1
385,385,0.05249842364185575,0.1,0.0,0.0,342.0,987.0,1.0,0,1211.0,0
386,386,-0.5243785658236442,-0.5,0.0,1.0,439.0,750.0,1.0,0,321.0,1
387,387,0.20532995383113872,0.2,0.0,0.0,286.0,662.0,0.0,1,762.0,1
388,388,0.8812999259760793,0.9,1.0,1.0,470.0,887.0,1.0,1,193.0,1
389,389,-0.8035914999956986,-0.8,0.0,1.0,443.0,622.0,1.0,0,265.0,1
390,390,0.06557539881053809,0.1,1.0,1.0,449.0,626.0,1.0,1,355.0,1
391,391,-0.6050155287365058,-0.6,0.0,1.0,450.0,761.0,1.0,0,249.0,1
392,392,-0.6384805748734363,-0.6,0.0,1.0,436.0,568.0,1.0,0,196.0,1
393,393,0.6969697129393518,0.7,0.0,0.0,484.0,670.0,0.0,1,126.0,1
394,394,-0.8583647576937704,-0.9,1.0,0.0,413.0,575.0,0.0,0,212.0,1
395,395,0.11070766325247872,0.1,0.0,0.0,485.0,592.0,0.0,1,163.0,1
396,396,0.8676836903353299,0.9,0.0,0.0,306.0,574.0,0.0,1,220.0,1
397,397,0.031115578763768692,0.0,1.0,1.0,494.0,741.0,1.0,1,785.0,1
398,398,-0.3497974983469885,-0.3,1.0,0.0,459.0,810.0,0.0,0,1731.0,1
399,399,-0.20099466211984518,-0.2,1.0,0.0,335.0,569.0,1.0,1,46.0,0
400,400,-0.5764618219911983,-0.6,0.0,1.0,273.0,969.0,1.0,0,158.0,1
401,401,0.4424763549584504,0.4,1.0,1.0,276.0,636.0,1.0,1,508.0,1
402,402,-0.0956805584617274,-0.1,1.0,0.0,326.0,963.0,0.0,0,1711.0,1
403,403,0.8342356057809904,0.8,1.0,1.0,328.0,505.0,1.0,1,187.0,1
404,404,-0.03778601813627058,-0.0,1.0,0.0,425.0,550.0,1.0,1,1135.0,0
405,405,0.3396866573278522,0.3,0.0,0.0,432.0,647.0,0.0,1,411.0,1
406,406,0.35404783608816504,0.4,0.0,0.0,499.0,584.0,0.0,1,727.0,1
407,407,-0.6438680950251968,-0.6,1.0,0.0,267.0,770.0,0.0,0,713.0,1
408,408,0.8133959311259721,0.8,0.0,0.0,481.0,972.0,0.0,1,257.0,1
409,409,0.39711509237192655,0.4,0.0,0.0,475.0,590.0,0.0,1,535.0,1
410,410,-0.17311648192631546,-0.2,0.0,1.0,391.0,765.0,1.0,0,134.0,1
411,411,0.8978840274276328,0.9,1.0,1.0,493.0,954.0,1.0,1,-137.0,1
412,412,0.41628081523891247,0.4,0.0,0.0,391.0,519.0,0.0,1,450.0,1
413,413,0.11361923384862249,0.1,0.0,0.0,429.0,822.0,0.0,1,829.0,1
414,414,-0.4251950325205872,-0.4,1.0,0.0,306.0,804.0,0.0,0,1220.0,1
415,415,-0.6455665624302951,-0.6,0.0,1.0,386.0,559.0,1.0,0,145.0,1
416,416,0.16555088296383758,0.2,0.0,0.0,473.0,675.0,0.0,1,882.0,1
417,417,-0.7105642457420547,-0.7,1.0,0.0,478.0,554.0,0.0,0,308.0,1
418,418,0.06441965511107672,0.1,0.0,0.0,377.0,562.0,0.0,1,2061.0,1
419,419,0.06164013387485734,0.1,1.0,1.0,476.0,722.0,1.0,1,1132.0,1
420,420,0.7642801723370699,0.8,0.0,0.0,318.0,922.0,0.0,1,190.0,1
421,421,-0.7199251934033877,-0.7,1.0,0.0,404.0,705.0,0.0,0,341.0,1
422,422,-0.11792017649842024,-0.1,0.0,1.0,480.0,644.0,1.0,0,386.0,1
423,423,-0.4404164294829296,-0.4,0.0,1.0,478.0,693.0,1.0,0,99.0,1
424,424,0.8587410429856496,0.9,1.0,1.0,311.0,719.0,1.0,1,90.0,1
425,425,-0.873724117979412,-0.9,0.0,1.0,268.0,714.0,1.0,0,158.0,1
426,426,-0.13710403089275225,-0.1,0.0,1.0,317.0,852.0,1.0,0,1541.0,1
427,427,0.8486178167260457,0.8,1.0,1.0,255.0,543.0,1.0,1,82.0,1
428,428,-0.2776003637364266,-0.3,1.0,0.0,380.0,856.0,0.0,0,1764.0,1
429,429,0.46552414996278235,0.5,0.0,0.0,289.0,875.0,0.0,1,356.0,1
430,430,0.6473180147946541,0.6,0.0,0.0,393.0,801.0,0.0,1,466.0,1
431,431,-0.7333647104988354,-0.7,1.0,0.0,321.0,914.0,1.0,1,-425.0,0
432,432,-0.7774018445009258,-0.8,0.0,1.0,479.0,886.0,1.0,0,265.0,1
433,433,0.6169348289842264,0.6,0.0,0.0,440.0,615.0,0.0,1,275.0,1
434,434,-0.8805182659004583,-0.9,0.0,1.0,454.0,607.0,1.0,0,279.0,1
435,435,-0.17364711685036904,-0.2,1.0,0.0,286.0,604.0,1.0,1,2110.0,0
436,436,0.534896921640665,0.5,0.0,0.0,307.0,595.0,0.0,1,248.0,1
437,437,0.4225297124417514,0.4,1.0,1.0,352.0,756.0,1.0,1,-8.0,1
438,438,-0.6211902891112007,-0.6,1.0,0.0,279.0,521.0,0.0,0,510.0,1
439,439,-0.8950535627823465,-0.9,0.0,1.0,391.0,570.0,1.0,0,89.0,1
440,440,-0.256790295895865,-0.3,1.0,0.0,385.0,537.0,0.0,0,638.0,1
441,441,-0.15370170702597075,-0.2,1.0,0.0,368.0,953.0,1.0,1,-541.0,0
442,442,0.39759648960161875,0.4,0.0,0.0,374.0,839.0,0.0,1,487.0,1
443,443,0.6466602180308968,0.6,0.0,0.0,499.0,827.0,1.0,0,-436.0,0
444,444,-0.12868121125332732,-0.1,0.0,1.0,321.0,561.0,1.0,0,1048.0,1
445,445,0.6170515894015421,0.6,1.0,1.0,320.0,511.0,1.0,1,169.0,1
446,446,-0.04357452632030667,-0.0,1.0,0.0,324.0,559.0,1.0,1,1677.0,0
447,447,-0.8267186323041514,-0.8,1.0,0.0,342.0,530.0,0.0,0,328.0,1
448,448,0.6203532634167072,0.6,0.0,0.0,368.0,517.0,0.0,1,295.0,1
449,449,-0.1724526591066763,-0.2,1.0,0.0,426.0,664.0,1.0,1,1910.0,0
450,450,0.7033052700972621,0.7,1.0,1.0,326.0,531.0,1.0,1,553.0,1
451,451,-0.38783772646305714,-0.4,0.0,1.0,397.0,963.0,1.0,0,410.0,1
452,452,0.5537950418002698,0.6,1.0,1.0,329.0,569.0,1.0,1,82.0,1
453,453,0.011143481152775636,0.0,1.0,1.0,493.0,554.0,1.0,1,1953.0,1
454,454,0.03212511998733247,0.0,1.0,1.0,308.0,780.0,1.0,1,762.0,1
455,455,0.7296333367088165,0.7,0.0,0.0,420.0,752.0,0.0,1,298.0,1
456,456,-0.8202732934778083,-0.8,1.0,0.0,259.0,540.0,0.0,0,241.0,1
457,457,0.5853525012675674,0.6,1.0,1.0,278.0,909.0,1.0,1,83.0,1
458,458,-0.09606472044390879,-0.1,0.0,1.0,393.0,535.0,1.0,0,382.0,1
459,459,-0.5689097646581813,-0.6,0.0,1.0,395.0,602.0,1.0,0,183.0,1
460,460,0.05589038649253164,0.1,1.0,1.0,373.0,683.0,1.0,1,844.0,1
461,461,-0.7490993212625324,-0.7,1.0,0.0,267.0,904.0,0.0,0,309.0,1
462,462,-0.7782179117424279,-0.8,1.0,0.0,289.0,693.0,1.0,1,-2.0,0
463,463,0.6451651178609271,0.6,1.0,1.0,489.0,772.0,1.0,1,-161.0,1
464,464,-0.7086133985900394,-0.7,1.0,0.0,354.0,868.0,0.0,0,278.0,1
465,465,-0.39168768128037335,-0.4,0.0,1.0,492.0,671.0,1.0,0,287.0,1
466,466,-0.10786009181527778,-0.1,1.0,0.0,338.0,709.0,1.0,1,1293.0,0
467,467,-0.06262735718294288,-0.1,0.0,1.0,363.0,536.0,1.0,0,1131.0,1
468,468,0.17250138856534092,0.2,1.0,1.0,318.0,800.0,1.0,1,-28.0,1
469,469,-0.7869895581717107,-0.8,1.0,0.0,298.0,677.0,0.0,0,325.0,1
470,470,0.39217104133626524,0.4,1.0,1.0,267.0,879.0,1.0,1,214.0,1
471,471,0.4875685062093952,0.5,1.0,1.0,399.0,633.0,1.0,1,-112.0,1
472,472,-0.3275244693857813,-0.3,0.0,1.0,263.0,566.0,1.0,0,491.0,1
473,473,0.8940207923416071,0.9,0.0,0.0,317.0,970.0,0.0,1,193.0,1
474,474,-0.6772772171981374,-0.7,1.0,0.0,335.0,929.0,0.0,0,456.0,1
475,475,0.08970381964715168,0.1,1.0,1.0,336.0,967.0,1.0,1,-93.0,1
476,476,0.5887823177832395,0.6,0.0,0.0,478.0,688.0,0.0,1,384.0,1
477,477,0.0750835376647172,0.1,0.0,0.0,282.0,567.0,1.0,0,-129.0,0
478,478,0.02530667893117855,0.0,1.0,1.0,313.0,671.0,1.0,1,336.0,1
479,479,-0.7825252308534432,-0.8,1.0,0.0,498.0,907.0,0.0,0,235.0,1
480,480,-0.1389149618573453,-0.1,1.0,0.0,441.0,756.0,1.0,1,513.0,0
481,481,-0.1521566776949328,-0.2,1.0,0.0,328.0,974.0,0.0,0,1698.0,1
482,482,-0.7553760294402726,-0.8,0.0,1.0,479.0,536.0,1.0,0,165.0,1
483,483,-0.6947410238188043,-0.7,0.0,1.0,294.0,857.0,1.0,0,189.0,1
484,484,-0.5969311517368286,-0.6,1.0,0.0,295.0,780.0,0.0,0,655.0,1
485,485,-0.802445710564293,-0.8,1.0,0.0,363.0,650.0,0.0,0,217.0,1
486,486,-0.8492434484691664,-0.8,1.0,0.0,464.0,538.0,0.0,0,258.0,1
487,487,-0.13209648011757058,-0.1,0.0,1.0,424.0,583.0,1.0,0,563.0,1
488,488,-0.1547926452229571,-0.2,0.0,1.0,454.0,514.0,1.0,0,1892.0,1
489,489,-0.2293554477217119,-0.2,1.0,0.0,433.0,666.0,1.0,1,1901.0,0
490,490,-0.7567373986534751,-0.8,1.0,0.0,408.0,609.0,0.0,0,303.0,1
491,491,0.2959099180984365,0.3,1.0,1.0,274.0,562.0,1.0,1,124.0,1
492,492,-0.7273223422333994,-0.7,0.0,1.0,469.0,758.0,1.0,0,383.0,1
493,493,0.3984583752079339,0.4,1.0,1.0,425.0,932.0,1.0,1,33.0,1
494,494,-0.710314151214269,-0.7,1.0,0.0,257.0,763.0,0.0,0,490.0,1
495,495,-0.36454111045301585,-0.4,0.0,1.0,431.0,619.0,1.0,0,370.0,1
496,496,0.8447151519761221,0.8,0.0,0.0,256.0,729.0,0.0,1,115.0,1
497,497,0.586222102966704,0.6,1.0,1.0,382.0,931.0,1.0,1,267.0,1
498,498,-0.7009543148985802,-0.7,1.0,0.0,410.0,960.0,1.0,1,30.0,0
499,499,0.2858569579380913,0.3,0.0,0.0,487.0,593.0,0.0,1,920.0,1
500,500,-0.2621772305989065,-0.3,1.0,0.0,280.0,711.0,1.0,1,179.0,0
501,501,-0.7797515681746385,-0.8,1.0,0.0,344.0,910.0,0.0,0,236.0,1
502,502,0.1709544053448281,0.2,0.0,0.0,318.0,572.0,0.0,1,810.0,1
503,503,0.3489113782843577,0.3,0.0,0.0,352.0,507.0,0.0,1,601.0,1
504,504,0.8870695978905229,0.9,0.0,0.0,333.0,598.0,0.0,1,189.0,1
505,505,0.50044897729935,0.5,1.0,1.0,468.0,929.0,1.0,1,-267.0,1
506,506,0.4467672064210412,0.4,0.0,0.0,261.0,513.0,0.0,1,366.0,1
507,507,0.749061640132113,0.7,1.0,1.0,467.0,887.0,1.0,1,-464.0,1
508,508,-0.8605718347823036,-0.9,0.0,1.0,254.0,734.0,1.0,0,92.0,1
509,509,-0.4132911046366243,-0.4,1.0,0.0,470.0,742.0,0.0,0,548.0,1
510,510,0.3483859429229964,0.3,0.0,0.0,265.0,727.0,0.0,1,628.0,1
511,511,0.5626832864916665,0.6,1.0,1.0,493.0,780.0,1.0,1,107.0,1
512,512,0.03338823861887952,0.0,1.0,1.0,484.0,780.0,1.0,1,126.0,1
513,513,0.2738489720083649,0.3,0.0,0.0,460.0,732.0,0.0,1,548.0,1
514,514,-0.3683721324757766,-0.4,1.0,0.0,304.0,856.0,0.0,0,1000.0,1
515,515,-0.08982771874948248,-0.1,1.0,0.0,465.0,668.0,1.0,1,1867.0,0
516,516,-0.3139418738211891,-0.3,1.0,0.0,480.0,960.0,0.0,0,600.0,1
517,517,-0.2794783228862705,-0.3,0.0,1.0,397.0,903.0,1.0,0,120.0,1
518,518,0.8103284620705647,0.8,1.0,1.0,477.0,907.0,1.0,1,166.0,1
519,519,0.5939954254934253,0.6,0.0,0.0,430.0,535.0,0.0,1,205.0,1
520,520,0.07642284162084967,0.1,0.0,0.0,362.0,605.0,0.0,1,883.0,1
521,521,-0.5538203750512745,-0.6,0.0,1.0,414.0,759.0,1.0,0,267.0,1
522,522,-0.41891831005006663,-0.4,1.0,0.0,310.0,651.0,0.0,0,269.0,1
523,523,0.4163940692846667,0.4,1.0,1.0,342.0,818.0,1.0,1,360.0,1
524,524,-0.11724706310363142,-0.1,1.0,0.0,323.0,928.0,0.0,0,1749.0,1
525,525,-0.2044446094904413,-0.2,0.0,1.0,311.0,549.0,1.0,0,250.0,1
526,526,-0.1633239678716395,-0.2,1.0,0.0,292.0,935.0,1.0,1,1773.0,0
527,527,-0.24647466780180505,-0.2,0.0,1.0,254.0,960.0,1.0,0,356.0,1
528,528,-0.7789687555654695,-0.8,1.0,0.0,443.0,596.0,0.0,0,341.0,1
529,529,-0.3776512538099751,-0.4,1.0,0.0,291.0,552.0,0.0,0,1387.0,1
530,530,-0.3314957271852619,-0.3,1.0,0.0,361.0,599.0,0.0,0,2040.0,1
531,531,0.059665525210108816,0.1,0.0,0.0,416.0,659.0,1.0,0,715.0,0
532,532,-0.8872133250909595,-0.9,0.0,1.0,398.0,904.0,1.0,0,188.0,1
533,533,0.3744727272799705,0.4,1.0,1.0,368.0,878.0,1.0,1,214.0,1
534,534,0.5259931457328174,0.5,0.0,0.0,425.0,807.0,0.0,1,368.0,1
535,535,0.6593251028935551,0.7,0.0,0.0,484.0,829.0,1.0,0,-73.0,0
536,536,-0.7437572500176068,-0.7,1.0,0.0,484.0,501.0,0.0,0,345.0,1
537,537,0.15296773473952185,0.2,0.0,0.0,388.0,633.0,0.0,1,1379.0,1
538,538,0.6361134039328312,0.6,0.0,0.0,448.0,840.0,0.0,1,282.0,1
539,539,-0.7970613146448546,-0.8,0.0,1.0,378.0,742.0,1.0,0,-460.0,1
540,540,-0.5767402510343037,-0.6,1.0,0.0,410.0,558.0,0.0,0,272.0,1
541,541,-0.008238301101164636,-0.0,1.0,0.0,303.0,949.0,1.0,1,1348.0,0
542,542,-0.7130893104427692,-0.7,1.0,0.0,321.0,585.0,0.0,0,334.0,1
543,543,-0.12033666838839518,-0.1,0.0,1.0,451.0,669.0,1.0,0,120.0,1
544,544,-0.5601305217662063,-0.6,0.0,1.0,378.0,667.0,1.0,0,305.0,1
545,545,0.7466937837567599,0.7,1.0,1.0,428.0,537.0,1.0,1,175.0,1
546,546,0.8907390405306833,0.9,0.0,0.0,267.0,707.0,0.0,1,236.0,1
547,547,0.5575892103650842,0.6,0.0,0.0,252.0,834.0,0.0,1,344.0,1
548,548,-0.6112352120117215,-0.6,0.0,1.0,436.0,519.0,1.0,0,525.0,1
549,549,0.37037903381908366,0.4,1.0,1.0,405.0,550.0,1.0,1,-185.0,1
550,550,-0.041542263563554505,-0.0,1.0,0.0,307.0,792.0,1.0,1,431.0,0
551,551,0.22940524182694577,0.2,1.0,1.0,421.0,932.0,1.0,1,177.0,1
552,552,-0.23845913205804514,-0.2,0.0,1.0,288.0,957.0,1.0,0,35.0,1
553,553,0.8059413535488277,0.8,0.0,0.0,405.0,729.0,0.0,1,206.0,1
554,554,0.42578717042038583,0.4,0.0,0.0,385.0,754.0,0.0,1,171.0,1
555,555,0.3694726094740365,0.4,1.0,1.0,404.0,508.0,1.0,1,358.0,1
556,556,0.8689177756291552,0.9,1.0,1.0,285.0,648.0,1.0,1,247.0,1
557,557,0.6065443251615855,0.6,1.0,1.0,372.0,754.0,1.0,1,384.0,1
558,558,0.5513700823857463,0.6,1.0,1.0,428.0,548.0,1.0,1,294.0,1
559,559,0.5611107816430468,0.6,1.0,1.0,278.0,650.0,1.0,1,352.0,1
560,560,0.5429965528699797,0.5,0.0,0.0,385.0,922.0,1.0,0,-447.0,0
561,561,0.7011561710840629,0.7,1.0,1.0,272.0,614.0,1.0,1,184.0,1
562,562,0.5672634351807361,0.6,1.0,1.0,493.0,653.0,1.0,1,594.0,1
563,563,0.7508896472904635,0.8,1.0,1.0,325.0,886.0,1.0,1,109.0,1
564,564,-0.7838567838721188,-0.8,0.0,1.0,407.0,789.0,0.0,1,-6.0,0
565,565,0.81400251243278,0.8,1.0,1.0,421.0,760.0,1.0,1,-271.0,1
566,566,-0.6953888416044033,-0.7,0.0,1.0,426.0,703.0,1.0,0,181.0,1
567,567,-0.8932510553273235,-0.9,1.0,0.0,290.0,631.0,0.0,0,299.0,1
568,568,-0.8250614913110963,-0.8,1.0,0.0,447.0,720.0,0.0,0,253.0,1
569,569,-0.605309062248315,-0.6,0.0,1.0,255.0,740.0,1.0,0,-265.0,1
570,570,0.2463376761155992,0.2,1.0,1.0,451.0,731.0,1.0,1,-512.0,1
571,571,-0.4796463719190164,-0.5,1.0,0.0,426.0,641.0,0.0,0,873.0,1
572,572,-0.25545575010821586,-0.3,0.0,1.0,398.0,792.0,1.0,0,190.0,1
573,573,-0.6017479387748286,-0.6,1.0,0.0,268.0,725.0,0.0,0,447.0,1
574,574,-0.35677515870551313,-0.4,1.0,0.0,340.0,871.0,0.0,0,679.0,1
575,575,0.1796373110332362,0.2,1.0,1.0,429.0,660.0,1.0,1,261.0,1
576,576,-0.2645645458611916,-0.3,0.0,1.0,275.0,758.0,1.0,0,57.0,1
577,577,-0.11900773705700352,-0.1,0.0,1.0,324.0,835.0,1.0,0,21.0,1
578,578,-0.39394959011198893,-0.4,1.0,0.0,401.0,941.0,1.0,1,-202.0,0
579,579,-0.4912597403601337,-0.5,1.0,0.0,341.0,938.0,0.0,0,331.0,1
580,580,0.5872571203714526,0.6,1.0,1.0,438.0,872.0,1.0,1,310.0,1
581,581,-0.8764882664555597,-0.9,1.0,0.0,312.0,972.0,1.0,1,-454.0,0
582,582,0.7513314573600006,0.8,1.0,1.0,388.0,670.0,1.0,1,112.0,1
583,583,0.5086769519243911,0.5,1.0,1.0,430.0,768.0,1.0,1,312.0,1
584,584,0.16112903824133828,0.2,0.0,0.0,359.0,572.0,0.0,1,2069.0,1
585,585,0.044326194810490605,0.0,0.0,0.0,317.0,689.0,1.0,0,704.0,0
586,586,0.6028823357138272,0.6,1.0,1.0,280.0,565.0,1.0,1,345.0,1
587,587,0.770624625862662,0.8,0.0,0.0,448.0,716.0,0.0,1,186.0,1
588,588,-0.5570542079968165,-0.6,1.0,0.0,273.0,741.0,0.0,0,906.0,1
589,589,0.13736003065489977,0.1,0.0,0.0,391.0,612.0,1.0,0,697.0,0
590,590,0.6777049252175703,0.7,1.0,1.0,441.0,735.0,1.0,1,54.0,1
591,591,-0.1568549801079484,-0.2,0.0,1.0,263.0,678.0,1.0,0,679.0,1
592,592,-0.3690520976419308,-0.4,0.0,1.0,385.0,685.0,1.0,0,140.0,1
593,593,0.07301970760665921,0.1,1.0,1.0,277.0,937.0,1.0,1,416.0,1
594,594,-0.8261248459345785,-0.8,0.0,1.0,386.0,525.0,1.0,0,419.0,1
595,595,0.04887189061313402,0.0,0.0,0.0,472.0,910.0,0.0,1,1318.0,1
596,596,0.15132408856671964,0.2,0.0,0.0,351.0,913.0,0.0,1,1736.0,1
597,597,-0.6909718713975508,-0.7,1.0,0.0,336.0,826.0,0.0,0,518.0,1
598,598,0.3172336015996805,0.3,0.0,0.0,490.0,929.0,0.0,1,771.0,1
599,599,0.867149237817986,0.9,0.0,0.0,335.0,804.0,0.0,1,231.0,1
600,600,0.5422840519130622,0.5,1.0,1.0,255.0,916.0,1.0,1,49.0,1
601,601,-0.15596344000207496,-0.2,0.0,1.0,474.0,963.0,1.0,0,113.0,1
602,602,0.7076551676343737,0.7,1.0,1.0,403.0,674.0,1.0,1,143.0,1
603,603,-0.755469711601335,-0.8,1.0,0.0,330.0,618.0,0.0,0,282.0,1
604,604,-0.13253683053179965,-0.1,1.0,0.0,258.0,931.0,0.0,0,1811.0,1
605,605,0.6158499096373607,0.6,1.0,1.0,400.0,709.0,1.0,1,161.0,1
606,606,0.687823959031964,0.7,1.0,1.0,379.0,714.0,1.0,1,157.0,1
607,607,0.16743599209857918,0.2,0.0,0.0,383.0,871.0,0.0,1,1116.0,1
608,608,-0.7774537508935918,-0.8,1.0,0.0,332.0,759.0,0.0,0,309.0,1
609,609,-0.10250818615914081,-0.1,0.0,1.0,447.0,917.0,1.0,0,566.0,1
610,610,0.6037412582929512,0.6,1.0,1.0,297.0,596.0,1.0,1,27.0,1
611,611,0.5055590310981367,0.5,1.0,1.0,282.0,883.0,1.0,1,25.0,1
612,612,-0.015604133526058162,-0.0,1.0,0.0,345.0,926.0,1.0,1,769.0,0
613,613,0.502573059518817,0.5,0.0,0.0,357.0,696.0,0.0,1,497.0,1
614,614,0.09572560375547667,0.1,0.0,0.0,473.0,710.0,0.0,1,1817.0,1
615,615,0.5826608336482987,0.6,0.0,0.0,326.0,552.0,0.0,1,212.0,1
616,616,0.5519277411168343,0.6,1.0,1.0,330.0,680.0,1.0,1,430.0,1
617,617,0.36806941776996493,0.4,0.0,0.0,464.0,804.0,0.0,1,662.0,1
618,618,0.6200132370234114,0.6,1.0,1.0,262.0,695.0,1.0,1,63.0,1
619,619,0.7563821474665039,0.8,0.0,0.0,340.0,688.0,0.0,1,192.0,1
620,620,0.6459313619008412,0.6,1.0,1.0,409.0,699.0,1.0,1,262.0,1
621,621,-0.05306177003626944,-0.1,0.0,1.0,385.0,589.0,1.0,0,996.0,1
622,622,-0.1884612775531853,-0.2,0.0,1.0,307.0,861.0,1.0,0,302.0,1
623,623,0.8204870476438221,0.8,0.0,0.0,306.0,880.0,0.0,1,114.0,1
624,624,0.44933220069984336,0.4,1.0,1.0,400.0,930.0,1.0,1,160.0,1
625,625,-0.1615199861713812,-0.2,1.0,0.0,331.0,880.0,1.0,1,1789.0,0
626,626,-0.503193765884324,-0.5,1.0,0.0,401.0,713.0,0.0,0,646.0,1
627,627,0.5889358947393989,0.6,0.0,0.0,282.0,673.0,0.0,1,295.0,1
628,628,0.5450996677184033,0.5,1.0,1.0,457.0,505.0,1.0,1,118.0,1
629,629,-0.648981645029787,-0.6,1.0,0.0,455.0,846.0,0.0,0,529.0,1
630,630,0.1459981680914303,0.1,0.0,0.0,432.0,528.0,1.0,0,2040.0,0
631,631,-0.6272707953486893,-0.6,0.0,1.0,353.0,712.0,1.0,0,125.0,1
632,632,0.16468899749191246,0.2,0.0,0.0,275.0,504.0,0.0,1,2221.0,1
633,633,-0.6347048632988614,-0.6,1.0,0.0,255.0,512.0,1.0,1,-17.0,0
634,634,-0.6302467807598873,-0.6,0.0,1.0,343.0,734.0,1.0,0,-57.0,1
635,635,-0.38464982530136194,-0.4,1.0,0.0,466.0,761.0,0.0,0,1773.0,1
636,636,-0.7513726784140976,-0.8,0.0,1.0,492.0,939.0,0.0,1,-91.0,0
637,637,-0.7131578401365345,-0.7,1.0,0.0,264.0,531.0,0.0,0,405.0,1
638,638,0.4452401316856337,0.4,0.0,0.0,269.0,734.0,0.0,1,497.0,1
639,639,0.4381129942280241,0.4,1.0,1.0,470.0,597.0,1.0,1,503.0,1
640,640,0.6954482832589725,0.7,0.0,0.0,413.0,581.0,0.0,1,236.0,1
641,641,0.6832648331502035,0.7,0.0,0.0,441.0,585.0,0.0,1,324.0,1
642,642,0.620325272785066,0.6,0.0,0.0,291.0,796.0,0.0,1,383.0,1
643,643,-0.7266525149070011,-0.7,0.0,1.0,389.0,950.0,1.0,0,241.0,1
644,644,0.30143630252829545,0.3,0.0,0.0,368.0,717.0,0.0,1,505.0,1
645,645,-0.8659200344752574,-0.9,0.0,1.0,479.0,640.0,0.0,1,-79.0,0
646,646,0.32166188087291137,0.3,1.0,1.0,315.0,573.0,1.0,1,192.0,1
647,647,-0.6250556015088078,-0.6,1.0,0.0,281.0,879.0,0.0,0,210.0,1
648,648,-0.36300967956021013,-0.4,1.0,0.0,319.0,717.0,0.0,0,1304.0,1
649,649,-0.8984984727082855,-0.9,1.0,0.0,458.0,508.0,0.0,0,234.0,1
650,650,0.7683445372074226,0.8,1.0,1.0,260.0,910.0,1.0,1,140.0,1
651,651,-0.8311148744044514,-0.8,0.0,1.0,476.0,700.0,1.0,0,204.0,1
652,652,-0.29103463300836263,-0.3,1.0,0.0,482.0,728.0,0.0,0,1790.0,1
653,653,0.1312765769953651,0.1,1.0,1.0,283.0,843.0,1.0,1,574.0,1
654,654,0.22134135515098163,0.2,0.0,0.0,277.0,748.0,0.0,1,885.0,1
655,655,-0.7528071400539358,-0.8,1.0,0.0,389.0,535.0,0.0,0,256.0,1
656,656,-0.7160526874640387,-0.7,0.0,1.0,465.0,955.0,1.0,0,-330.0,1
657,657,-0.5747488660260722,-0.6,0.0,1.0,282.0,978.0,1.0,0,110.0,1
658,658,-0.7615962111607832,-0.8,0.0,1.0,417.0,876.0,1.0,0,-463.0,1
659,659,0.07195812449680106,0.1,1.0,1.0,428.0,821.0,1.0,1,741.0,1
660,660,-0.6654944539333751,-0.7,1.0,0.0,494.0,968.0,0.0,0,228.0,1
661,661,0.6353242068448622,0.6,1.0,1.0,355.0,723.0,1.0,1,242.0,1
662,662,-0.19418563556825819,-0.2,0.0,1.0,350.0,652.0,1.0,0,638.0,1
663,663,0.13685809843243313,0.1,0.0,0.0,364.0,608.0,0.0,1,1768.0,1
664,664,0.8679283994048429,0.9,0.0,0.0,299.0,772.0,0.0,1,169.0,1
665,665,0.15542692878477438,0.2,1.0,1.0,400.0,725.0,1.0,1,225.0,1
666,666,-0.8598872881119145,-0.9,1.0,0.0,339.0,838.0,0.0,0,443.0,1
667,667,0.7114586581054162,0.7,0.0,0.0,485.0,942.0,1.0,0,-237.0,0
668,668,-0.6241191494803922,-0.6,1.0,0.0,481.0,635.0,0.0,0,264.0,1
669,669,-0.25115544590120664,-0.3,0.0,1.0,306.0,776.0,1.0,0,308.0,1
670,670,-0.6749770854106408,-0.7,1.0,0.0,291.0,831.0,0.0,0,438.0,1
671,671,-0.17516056062536578,-0.2,0.0,1.0,292.0,508.0,1.0,0,360.0,1
672,672,0.030660103554330687,0.0,1.0,1.0,288.0,545.0,1.0,1,177.0,1
673,673,-0.8740130598823054,-0.9,1.0,0.0,284.0,611.0,0.0,0,555.0,1
674,674,-0.6583563795761286,-0.7,0.0,1.0,421.0,617.0,1.0,0,312.0,1
675,675,-0.5647250324917925,-0.6,1.0,0.0,274.0,655.0,0.0,0,851.0,1
676,676,-0.5140396993354992,-0.5,1.0,0.0,356.0,845.0,0.0,0,709.0,1
677,677,-0.393422163866765,-0.4,1.0,0.0,452.0,851.0,0.0,0,647.0,1
678,678,0.41386241208453367,0.4,1.0,1.0,374.0,604.0,1.0,1,342.0,1
679,679,0.3162485948354531,0.3,0.0,0.0,344.0,927.0,0.0,1,749.0,1
680,680,-0.8997731513934032,-0.9,0.0,1.0,258.0,925.0,1.0,0,167.0,1
681,681,-0.14197515554164364,-0.1,0.0,1.0,420.0,966.0,0.0,1,1614.0,0
682,682,0.8765089169850141,0.9,0.0,0.0,476.0,645.0,0.0,1,239.0,1
683,683,0.8473124151049402,0.8,0.0,0.0,421.0,832.0,0.0,1,177.0,1
684,684,0.27709663761993697,0.3,1.0,1.0,362.0,609.0,1.0,1,469.0,1
685,685,-0.45549583956141504,-0.5,0.0,1.0,450.0,901.0,1.0,0,1289.0,1
686,686,0.8769179762280793,0.9,1.0,1.0,376.0,988.0,1.0,1,46.0,1
687,687,0.2989200774327069,0.3,1.0,1.0,269.0,608.0,1.0,1,-117.0,1
688,688,-0.04047957336310115,-0.0,1.0,0.0,275.0,766.0,1.0,1,1959.0,0
689,689,0.8730694733766479,0.9,1.0,1.0,255.0,861.0,1.0,1,114.0,1
690,690,0.39742462576956206,0.4,0.0,0.0,431.0,510.0,0.0,1,379.0,1
691,691,-0.6986578774070423,-0.7,0.0,1.0,271.0,710.0,1.0,0,179.0,1
692,692,-0.27092279640268546,-0.3,1.0,0.0,309.0,729.0,0.0,0,1962.0,1
693,693,0.68802926924669,0.7,0.0,0.0,439.0,681.0,0.0,1,360.0,1
694,694,-0.6828080334421518,-0.7,0.0,1.0,420.0,519.0,1.0,0,191.0,1
695,695,0.48902781136015194,0.5,0.0,0.0,431.0,657.0,0.0,1,312.0,1
696,696,-0.8734061769257899,-0.9,0.0,1.0,467.0,895.0,1.0,0,168.0,1
697,697,0.062215169020014116,0.1,0.0,0.0,484.0,859.0,1.0,0,1077.0,0
698,698,0.29908792147606167,0.3,1.0,1.0,376.0,975.0,1.0,1,329.0,1
699,699,0.8071125443536916,0.8,1.0,1.0,398.0,690.0,1.0,1,172.0,1
700,700,-0.20039389019728215,-0.2,0.0,1.0,355.0,501.0,1.0,0,484.0,1
701,701,0.7599449240360713,0.8,1.0,1.0,489.0,905.0,1.0,1,156.0,1
702,702,-0.889541347883125,-0.9,1.0,0.0,329.0,518.0,0.0,0,363.0,1
703,703,-0.8661581004622483,-0.9,0.0,1.0,433.0,955.0,1.0,0,122.0,1
704,704,-0.49125358394648305,-0.5,0.0,1.0,441.0,911.0,1.0,0,188.0,1
705,705,0.6062666634423327,0.6,1.0,1.0,429.0,596.0,1.0,1,65.0,1
706,706,-0.34748651542593345,-0.3,0.0,1.0,363.0,756.0,1.0,0,11.0,1
707,707,0.8909373822954362,0.9,0.0,0.0,343.0,647.0,0.0,1,140.0,1
708,708,-0.11710450706318742,-0.1,0.0,1.0,475.0,545.0,1.0,0,410.0,1
709,709,0.334247282765776,0.3,1.0,1.0,358.0,816.0,1.0,1,66.0,1
710,710,-0.35397962045728515,-0.4,0.0,1.0,459.0,723.0,1.0,0,388.0,1
711,711,-0.2795432953616436,-0.3,0.0,1.0,294.0,689.0,1.0,0,-403.0,1
712,712,-0.21806695781575625,-0.2,0.0,1.0,264.0,529.0,1.0,0,997.0,1
713,713,0.07570948457485105,0.1,1.0,1.0,495.0,851.0,1.0,1,1654.0,1
714,714,0.8697235860800309,0.9,0.0,0.0,259.0,612.0,0.0,1,279.0,1
715,715,-0.7714765159700221,-0.8,0.0,1.0,484.0,988.0,1.0,0,208.0,1
716,716,-0.2715706464883122,-0.3,0.0,1.0,311.0,566.0,1.0,0,383.0,1
717,717,-0.6293369860872858,-0.6,0.0,1.0,307.0,587.0,1.0,0,416.0,1
718,718,-0.4520243329108446,-0.5,0.0,1.0,446.0,780.0,1.0,0,-246.0,1
719,719,-0.5148095608172881,-0.5,1.0,0.0,257.0,769.0,0.0,0,554.0,1
720,720,0.14081159228864382,0.1,1.0,1.0,250.0,665.0,1.0,1,255.0,1
721,721,0.2733327826448574,0.3,1.0,1.0,381.0,777.0,1.0,1,712.0,1
722,722,-0.5088284202620177,-0.5,1.0,0.0,362.0,908.0,0.0,0,560.0,1
723,723,0.3277031869398862,0.3,1.0,1.0,309.0,795.0,1.0,1,-254.0,1
724,724,-0.4603038790490485,-0.5,0.0,1.0,255.0,801.0,1.0,0,444.0,1
725,725,0.1679969068201509,0.2,1.0,1.0,475.0,597.0,1.0,1,438.0,1
726,726,0.8227269293358327,0.8,0.0,0.0,360.0,808.0,0.0,1,332.0,1
727,727,0.5810504080183726,0.6,0.0,0.0,409.0,603.0,0.0,1,158.0,1
728,728,0.2451233457778207,0.2,0.0,0.0,297.0,799.0,0.0,1,564.0,1
729,729,0.49156939577385594,0.5,0.0,0.0,345.0,750.0,0.0,1,295.0,1
730,730,-0.06098428993432081,-0.1,1.0,0.0,360.0,827.0,0.0,0,1813.0,1
731,731,0.13988944749043564,0.1,1.0,1.0,323.0,944.0,1.0,1,463.0,1
732,732,0.8008210033998461,0.8,0.0,0.0,331.0,821.0,0.0,1,168.0,1
733,733,-0.02480379807616795,-0.0,1.0,0.0,311.0,647.0,1.0,1,972.0,0
734,734,0.7498275113986087,0.7,1.0,1.0,303.0,796.0,1.0,1,171.0,1
735,735,0.5690433388717288,0.6,1.0,1.0,462.0,811.0,1.0,1,247.0,1
736,736,0.39756566206996136,0.4,1.0,1.0,277.0,658.0,1.0,1,365.0,1
737,737,-0.2608603929869219,-0.3,0.0,1.0,485.0,870.0,1.0,0,235.0,1
738,738,0.22475270939270697,0.2,0.0,0.0,335.0,988.0,0.0,1,-303.0,1
739,739,-0.1436201604603694,-0.1,1.0,0.0,293.0,641.0,1.0,1,766.0,0
740,740,-0.8353617803361902,-0.8,1.0,0.0,325.0,512.0,0.0,0,303.0,1
741,741,0.45745785675748396,0.5,0.0,0.0,266.0,656.0,0.0,1,538.0,1
742,742,-0.216172201048908,-0.2,0.0,1.0,359.0,956.0,0.0,1,-345.0,0
743,743,-0.12954941553498978,-0.1,1.0,0.0,462.0,853.0,1.0,1,1005.0,0
744,744,-0.2630836794361656,-0.3,1.0,0.0,278.0,683.0,1.0,1,2039.0,0
745,745,0.31238768167531117,0.3,1.0,1.0,392.0,721.0,1.0,1,217.0,1
746,746,0.2920898998847926,0.3,0.0,0.0,497.0,857.0,0.0,1,426.0,1
747,747,-0.588821505393494,-0.6,1.0,0.0,262.0,743.0,0.0,0,545.0,1
748,748,0.44782878834702766,0.4,0.0,0.0,368.0,587.0,0.0,1,155.0,1
749,749,0.8527961782368553,0.9,0.0,0.0,302.0,543.0,0.0,1,175.0,1
750,750,-0.7925428634899706,-0.8,1.0,0.0,308.0,948.0,0.0,0,294.0,1
751,751,-0.4761119252734163,-0.5,0.0,1.0,390.0,672.0,1.0,0,248.0,1
752,752,0.0054949933630075165,0.0,1.0,1.0,399.0,503.0,1.0,1,2098.0,1
753,753,-0.7797022931216846,-0.8,0.0,1.0,357.0,526.0,1.0,0,127.0,1
754,754,-0.18683844421510554,-0.2,0.0,1.0,446.0,916.0,1.0,0,378.0,1
755,755,0.42017877973563944,0.4,1.0,1.0,469.0,748.0,1.0,1,413.0,1
756,756,-0.7926344959723035,-0.8,0.0,1.0,415.0,733.0,1.0,0,122.0,1
757,757,0.19686794848958156,0.2,1.0,1.0,277.0,775.0,1.0,1,448.0,1
758,758,0.13147439673641526,0.1,1.0,1.0,272.0,588.0,1.0,1,410.0,1
759,759,-0.773195303632238,-0.8,1.0,0.0,394.0,676.0,0.0,0,240.0,1
760,760,0.5226322825263842,0.5,1.0,1.0,334.0,866.0,1.0,1,300.0,1
761,761,0.8798551103396762,0.9,0.0,0.0,350.0,690.0,0.0,1,150.0,1
762,762,0.5901514976657466,0.6,0.0,0.0,318.0,640.0,1.0,0,-128.0,0
763,763,0.2784667872134502,0.3,1.0,1.0,281.0,608.0,1.0,1,81.0,1
764,764,-0.8255349394194977,-0.8,0.0,1.0,485.0,893.0,1.0,0,122.0,1
765,765,-0.09355231549195098,-0.1,0.0,1.0,321.0,746.0,1.0,0,-207.0,1
766,766,-0.5721296189863481,-0.6,1.0,0.0,492.0,998.0,0.0,0,430.0,1
767,767,0.10247672384635365,0.1,1.0,1.0,359.0,577.0,1.0,1,1444.0,1
768,768,0.3062659495374177,0.3,0.0,0.0,351.0,743.0,0.0,1,526.0,1
769,769,0.6341380846251988,0.6,0.0,0.0,465.0,747.0,0.0,1,658.0,1
770,770,0.09954745452145053,0.1,0.0,0.0,381.0,969.0,0.0,1,1650.0,1
771,771,0.8994026655217818,0.9,0.0,0.0,274.0,537.0,0.0,1,159.0,1
772,772,0.774557623396218,0.8,0.0,0.0,297.0,986.0,0.0,1,217.0,1
773,773,0.5468631897436825,0.5,1.0,1.0,369.0,542.0,1.0,1,169.0,1
774,774,0.20531476571740737,0.2,1.0,1.0,360.0,719.0,1.0,1,-79.0,1
775,775,-0.10577295574585133,-0.1,1.0,0.0,487.0,631.0,1.0,1,-288.0,0
776,776,0.8301958864813975,0.8,1.0,1.0,495.0,689.0,1.0,1,216.0,1
777,777,0.8410231175978228,0.8,0.0,0.0,332.0,520.0,0.0,1,238.0,1
778,778,0.33449468817336425,0.3,1.0,1.0,428.0,977.0,1.0,1,475.0,1
779,779,-0.754442975372026,-0.8,0.0,1.0,342.0,643.0,1.0,0,375.0,1
780,780,-0.08766011839610488,-0.1,0.0,1.0,381.0,921.0,1.0,0,1698.0,1
781,781,0.415653707065777,0.4,0.0,0.0,342.0,516.0,0.0,1,282.0,1
782,782,0.7997769881991569,0.8,1.0,1.0,338.0,553.0,1.0,1,119.0,1
783,783,0.0637093461974586,0.1,0.0,0.0,405.0,720.0,0.0,1,1875.0,1
784,784,0.3776616742902096,0.4,1.0,1.0,287.0,789.0,1.0,1,-346.0,1
785,785,-0.7183825288996227,-0.7,1.0,0.0,308.0,824.0,0.0,0,418.0,1
786,786,0.019955400908817422,0.0,0.0,0.0,259.0,601.0,1.0,0,110.0,0
787,787,-0.4242817883977635,-0.4,0.0,1.0,284.0,933.0,1.0,0,-517.0,1
788,788,0.2203987008330709,0.2,0.0,0.0,354.0,752.0,1.0,0,224.0,0
789,789,0.21631747153970837,0.2,0.0,0.0,269.0,923.0,0.0,1,88.0,1
790,790,0.660558097844618,0.7,0.0,0.0,483.0,502.0,0.0,1,315.0,1
791,791,-0.5110473651142013,-0.5,0.0,1.0,332.0,883.0,1.0,0,465.0,1
792,792,-0.08298516221082364,-0.1,1.0,0.0,337.0,834.0,0.0,0,1829.0,1
793,793,-0.7591324808239042,-0.8,0.0,1.0,297.0,602.0,1.0,0,91.0,1
794,794,-0.4724592224492701,-0.5,0.0,1.0,493.0,862.0,1.0,0,235.0,1
795,795,0.2822225824943828,0.3,0.0,0.0,326.0,798.0,1.0,0,-244.0,0
796,796,0.6041117219853559,0.6,1.0,1.0,371.0,686.0,1.0,1,253.0,1
797,797,0.7479179090113496,0.7,1.0,1.0,343.0,922.0,1.0,1,55.0,1
798,798,-0.7463564335522715,-0.7,0.0,1.0,388.0,532.0,1.0,0,300.0,1
799,799,-0.7374879967695758,-0.7,1.0,0.0,413.0,854.0,0.0,0,453.0,1
800,800,-0.21342254028858332,-0.2,1.0,0.0,304.0,573.0,0.0,0,2123.0,1
801,801,0.13923755241259783,0.1,1.0,1.0,470.0,677.0,1.0,1,403.0,1
802,802,0.32485582226390786,0.3,1.0,1.0,323.0,855.0,1.0,1,352.0,1
803,803,0.8905129922988654,0.9,1.0,1.0,371.0,619.0,1.0,1,110.0,1
804,804,-0.8046724148828812,-0.8,1.0,0.0,271.0,558.0,0.0,0,291.0,1
805,805,0.18310532062768703,0.2,1.0,1.0,322.0,927.0,1.0,1,1101.0,1
806,806,0.16399988086641015,0.2,0.0,0.0,266.0,866.0,0.0,1,1488.0,1
807,807,0.7600195117440419,0.8,0.0,0.0,471.0,753.0,0.0,1,166.0,1
808,808,0.1951416949915531,0.2,0.0,0.0,406.0,632.0,0.0,1,242.0,1
809,809,0.05842370985473566,0.1,0.0,0.0,476.0,923.0,0.0,1,211.0,1
810,810,-0.21376446485629574,-0.2,1.0,0.0,354.0,908.0,0.0,0,1738.0,1
811,811,0.42491071858401586,0.4,1.0,1.0,441.0,759.0,1.0,1,90.0,1
812,812,0.7315691376255095,0.7,0.0,0.0,283.0,647.0,0.0,1,260.0,1
813,813,-0.6833584025190171,-0.7,0.0,1.0,357.0,666.0,1.0,0,317.0,1
814,814,-0.6867018027869245,-0.7,0.0,1.0,346.0,643.0,1.0,0,81.0,1
815,815,0.19252295669839914,0.2,1.0,1.0,373.0,726.0,1.0,1,521.0,1
816,816,-0.23613981734111678,-0.2,1.0,0.0,385.0,550.0,1.0,1,2065.0,0
817,817,-0.33808525062098516,-0.3,0.0,1.0,449.0,598.0,1.0,0,313.0,1
818,818,-0.12271083764126933,-0.1,0.0,1.0,360.0,812.0,1.0,0,228.0,1
819,819,-0.824887069253352,-0.8,0.0,1.0,457.0,643.0,1.0,0,220.0,1
820,820,-0.07839198163891892,-0.1,0.0,1.0,344.0,967.0,1.0,0,249.0,1
821,821,-0.15936527626505692,-0.2,1.0,0.0,361.0,725.0,0.0,0,1914.0,1
822,822,-0.18571736265992012,-0.2,1.0,0.0,285.0,688.0,0.0,0,2027.0,1
823,823,-0.6875154577943177,-0.7,1.0,0.0,426.0,505.0,0.0,0,509.0,1
824,824,-0.20222392838362946,-0.2,0.0,1.0,395.0,921.0,1.0,0,274.0,1
825,825,0.37699284400707744,0.4,0.0,0.0,366.0,688.0,0.0,1,36.0,1
826,826,-0.8113822015220632,-0.8,0.0,1.0,283.0,974.0,1.0,0,263.0,1
827,827,-0.24381565754660373,-0.2,0.0,1.0,273.0,650.0,1.0,0,337.0,1
828,828,-0.27997240801675405,-0.3,0.0,1.0,389.0,768.0,1.0,0,-17.0,1
829,829,-0.04032093333404685,-0.0,1.0,0.0,441.0,688.0,1.0,1,461.0,0
830,830,-0.5827042085763336,-0.6,1.0,0.0,341.0,613.0,0.0,0,706.0,1
831,831,-0.4590143944214526,-0.5,0.0,1.0,414.0,816.0,1.0,0,490.0,1
832,832,0.17498715937242426,0.2,1.0,1.0,495.0,596.0,1.0,1,329.0,1
833,833,-0.859770704850026,-0.9,0.0,1.0,263.0,930.0,1.0,0,-693.0,1
834,834,0.6857942977222279,0.7,1.0,1.0,480.0,915.0,1.0,1,275.0,1
835,835,0.806376307835171,0.8,0.0,0.0,302.0,659.0,0.0,1,269.0,1
836,836,0.8279643671525078,0.8,0.0,0.0,483.0,536.0,0.0,1,131.0,1
837,837,-0.19926712333065755,-0.2,1.0,0.0,308.0,821.0,1.0,1,1871.0,0
838,838,0.5187990601267737,0.5,0.0,0.0,430.0,615.0,0.0,1,255.0,1
839,839,0.02748710351992223,0.0,1.0,1.0,452.0,873.0,1.0,1,1625.0,1
840,840,0.23352694538943652,0.2,0.0,0.0,270.0,548.0,0.0,1,822.0,1
841,841,-0.3513198577938563,-0.4,1.0,0.0,492.0,716.0,0.0,0,1792.0,1
842,842,-0.536693499174673,-0.5,0.0,1.0,279.0,910.0,1.0,0,421.0,1
843,843,-0.1202642054054669,-0.1,1.0,0.0,408.0,596.0,0.0,0,1996.0,1
844,844,0.11277466595771923,0.1,0.0,0.0,271.0,607.0,0.0,1,572.0,1
845,845,-0.6352705634868355,-0.6,0.0,1.0,366.0,598.0,1.0,0,246.0,1
846,846,0.35938960451833546,0.4,0.0,0.0,488.0,825.0,0.0,1,347.0,1
847,847,-0.4271499484180519,-0.4,1.0,0.0,300.0,577.0,0.0,0,773.0,1
848,848,0.7729891962892582,0.8,0.0,0.0,403.0,694.0,0.0,1,283.0,1
849,849,0.7582583700740845,0.8,0.0,0.0,466.0,852.0,0.0,1,292.0,1
850,850,0.057097312975663894,0.1,1.0,1.0,357.0,852.0,1.0,1,571.0,1
851,851,0.6884233996588146,0.7,0.0,0.0,339.0,621.0,0.0,1,220.0,1
852,852,-0.008805988586750413,-0.0,0.0,1.0,472.0,767.0,1.0,0,191.0,1
853,853,-0.0718024126925969,-0.1,1.0,0.0,308.0,636.0,0.0,0,2056.0,1
854,854,0.16434424529772274,0.2,1.0,1.0,474.0,938.0,1.0,1,-372.0,1
855,855,-0.8397267966646313,-0.8,0.0,1.0,483.0,850.0,1.0,0,107.0,1
856,856,-0.030605638861912587,-0.0,0.0,1.0,327.0,819.0,1.0,0,-166.0,1
857,857,-0.06408546661008874,-0.1,1.0,0.0,481.0,585.0,1.0,1,1234.0,0
858,858,0.11173982534131122,0.1,0.0,0.0,476.0,654.0,1.0,0,300.0,0
859,859,-0.8797354814265034,-0.9,1.0,0.0,453.0,562.0,0.0,0,375.0,1
860,860,0.0008309126921365317,0.0,1.0,1.0,485.0,889.0,1.0,1,46.0,1
861,861,-0.7986867923547294,-0.8,0.0,1.0,359.0,715.0,1.0,0,296.0,1
862,862,-0.238972127208962,-0.2,1.0,0.0,349.0,907.0,1.0,1,-526.0,0
863,863,-0.41677943638111026,-0.4,0.0,1.0,254.0,510.0,1.0,0,396.0,1
864,864,0.04607891431488076,0.0,1.0,1.0,451.0,728.0,1.0,1,-9.0,1
865,865,-0.2486327058167942,-0.2,0.0,1.0,461.0,915.0,1.0,0,504.0,1
866,866,0.5655528553775998,0.6,0.0,0.0,297.0,784.0,0.0,1,519.0,1
867,867,-0.10982088221669273,-0.1,0.0,1.0,251.0,655.0,1.0,0,814.0,1
868,868,-0.3684323837937904,-0.4,0.0,1.0,493.0,674.0,1.0,0,183.0,1
869,869,0.43720016895835256,0.4,1.0,1.0,255.0,836.0,1.0,1,119.0,1
870,870,0.6355215461695453,0.6,1.0,1.0,469.0,782.0,1.0,1,149.0,1
871,871,-0.7821001276255354,-0.8,0.0,1.0,357.0,967.0,1.0,0,126.0,1
872,872,-0.6928028394781647,-0.7,1.0,0.0,389.0,761.0,0.0,0,260.0,1
873,873,-0.23727579561542,-0.2,0.0,1.0,329.0,616.0,1.0,0,755.0,1
874,874,0.8090611184828359,0.8,1.0,1.0,447.0,761.0,1.0,1,302.0,1
875,875,-0.7351114493349388,-0.7,0.0,1.0,342.0,553.0,1.0,0,205.0,1
876,876,0.27325804041965684,0.3,1.0,1.0,341.0,966.0,1.0,1,403.0,1
877,877,-0.3743772132186427,-0.4,1.0,0.0,410.0,805.0,1.0,1,-25.0,0
878,878,0.11946327193966255,0.1,1.0,1.0,305.0,665.0,1.0,1,780.0,1
879,879,0.30480732964028145,0.3,0.0,0.0,250.0,721.0,0.0,1,259.0,1
880,880,-0.18699428719589584,-0.2,0.0,1.0,345.0,999.0,1.0,0,166.0,1
881,881,-0.14210807179421847,-0.1,0.0,1.0,399.0,691.0,1.0,0,570.0,1
882,882,0.17599784205441094,0.2,1.0,1.0,304.0,587.0,1.0,1,329.0,1
883,883,0.8993697683058316,0.9,0.0,0.0,375.0,507.0,0.0,1,248.0,1
884,884,-0.2996151789201429,-0.3,0.0,1.0,455.0,620.0,1.0,0,975.0,1
885,885,0.30643277508415256,0.3,1.0,1.0,421.0,722.0,1.0,1,277.0,1
886,886,0.0006500264354281082,0.0,1.0,1.0,309.0,962.0,1.0,1,479.0,1
887,887,0.18734861050548168,0.2,1.0,1.0,302.0,502.0,1.0,1,616.0,1
888,888,0.7103605717364686,0.7,1.0,1.0,282.0,944.0,1.0,1,-116.0,1
889,889,-0.08899184707052876,-0.1,0.0,1.0,414.0,844.0,1.0,0,402.0,1
890,890,-0.8725503801592577,-0.9,0.0,1.0,441.0,535.0,1.0,0,84.0,1
891,891,-0.4432636643404491,-0.4,0.0,1.0,320.0,743.0,1.0,0,117.0,1
892,892,0.016053700167921736,0.0,0.0,0.0,472.0,594.0,0.0,1,1344.0,1
893,893,-0.6092242001612683,-0.6,0.0,1.0,448.0,951.0,1.0,0,101.0,1
894,894,-0.10943531420261321,-0.1,1.0,0.0,333.0,890.0,1.0,1,-163.0,0
895,895,-0.2674387481225352,-0.3,0.0,1.0,338.0,851.0,1.0,0,141.0,1
896,896,0.7936749462150573,0.8,0.0,0.0,490.0,584.0,0.0,1,206.0,1
897,897,0.5079217186330661,0.5,1.0,1.0,348.0,902.0,1.0,1,260.0,1
898,898,0.4524096714195526,0.5,0.0,0.0,442.0,884.0,0.0,1,224.0,1
899,899,-0.5787726322031241,-0.6,1.0,0.0,422.0,513.0,0.0,0,315.0,1
900,900,-0.20588062030435772,-0.2,0.0,1.0,332.0,775.0,1.0,0,573.0,1
901,901,-0.2540206655509918,-0.3,1.0,0.0,370.0,925.0,1.0,1,1705.0,0
902,902,0.15531637588874647,0.2,1.0,1.0,396.0,916.0,1.0,1,488.0,1
903,903,-0.7722674773316863,-0.8,0.0,1.0,349.0,870.0,1.0,0,81.0,1
904,904,-0.7680283486568168,-0.8,0.0,1.0,483.0,937.0,1.0,0,40.0,1
905,905,0.8835308439594441,0.9,1.0,1.0,263.0,538.0,1.0,1,59.0,1
906,906,-0.013076363971116223,-0.0,0.0,1.0,360.0,839.0,1.0,0,1801.0,1
907,907,0.42828629365612236,0.4,1.0,1.0,336.0,721.0,1.0,1,103.0,1
908,908,0.66819979080641,0.7,0.0,0.0,290.0,792.0,0.0,1,158.0,1
909,909,0.5454156731479095,0.5,0.0,0.0,488.0,756.0,0.0,1,376.0,1
910,910,0.514000514675509,0.5,1.0,1.0,442.0,663.0,1.0,1,115.0,1
911,911,-0.7853862561214674,-0.8,0.0,1.0,491.0,697.0,1.0,0,292.0,1
912,912,-0.5455686228568872,-0.5,1.0,0.0,397.0,601.0,0.0,0,352.0,1
913,913,0.2068449477617006,0.2,1.0,1.0,473.0,817.0,1.0,1,340.0,1
914,914,-0.615454501100259,-0.6,0.0,1.0,374.0,873.0,1.0,0,123.0,1
915,915,-0.6102474425073504,-0.6,0.0,1.0,329.0,826.0,1.0,0,205.0,1
916,916,-0.3634035696011273,-0.4,0.0,1.0,391.0,780.0,1.0,0,19.0,1
917,917,-0.37597868919283883,-0.4,0.0,1.0,261.0,980.0,1.0,0,39.0,1
918,918,0.17167726536685557,0.2,0.0,0.0,388.0,986.0,0.0,1,1626.0,1
919,919,0.1253826133967212,0.1,1.0,1.0,367.0,588.0,1.0,1,1225.0,1
920,920,0.7170206492623431,0.7,1.0,1.0,347.0,809.0,1.0,1,94.0,1
921,921,-0.30886053045390127,-0.3,1.0,0.0,405.0,821.0,1.0,1,1774.0,0
922,922,-0.5161120005121951,-0.5,1.0,0.0,377.0,588.0,0.0,0,1005.0,1
923,923,0.3687306741135482,0.4,0.0,0.0,345.0,818.0,0.0,1,687.0,1
924,924,0.7234043634403983,0.7,0.0,0.0,415.0,734.0,0.0,1,251.0,1
925,925,0.7103090505364861,0.7,0.0,0.0,283.0,588.0,0.0,1,569.0,1
926,926,-0.890230501282592,-0.9,0.0,1.0,296.0,828.0,1.0,0,36.0,1
927,927,-0.2960768924513708,-0.3,1.0,0.0,335.0,683.0,0.0,0,1252.0,1
928,928,-0.07008572648222511,-0.1,0.0,1.0,388.0,923.0,1.0,0,619.0,1
929,929,-0.32511403157831253,-0.3,1.0,0.0,261.0,871.0,0.0,0,1868.0,1
930,930,0.3491913514572266,0.3,1.0,1.0,336.0,924.0,1.0,1,190.0,1
931,931,0.3659779031880489,0.4,1.0,1.0,406.0,981.0,1.0,1,263.0,1
932,932,0.6298862302333071,0.6,0.0,0.0,365.0,653.0,0.0,1,202.0,1
933,933,0.010546240276410157,0.0,1.0,1.0,379.0,743.0,1.0,1,1878.0,1
934,934,0.012965174930284262,0.0,0.0,0.0,333.0,532.0,1.0,0,285.0,0
935,935,-0.043246245971502506,-0.0,1.0,0.0,331.0,802.0,1.0,1,1867.0,0
936,936,-0.584157461907262,-0.6,0.0,1.0,304.0,850.0,1.0,0,136.0,1
937,937,0.6202324234662241,0.6,0.0,0.0,270.0,741.0,0.0,1,209.0,1
938,938,0.6577435072099523,0.7,1.0,1.0,341.0,652.0,1.0,1,207.0,1
939,939,0.20028762583674042,0.2,0.0,0.0,428.0,703.0,1.0,0,-11.0,0
940,940,-0.7953344327443913,-0.8,0.0,1.0,415.0,648.0,1.0,0,367.0,1
941,941,-0.43160506914470237,-0.4,0.0,1.0,353.0,970.0,1.0,0,117.0,1
942,942,0.0578636040713405,0.1,0.0,0.0,380.0,955.0,0.0,1,1665.0,1
943,943,-0.36963132558762213,-0.4,1.0,0.0,494.0,773.0,0.0,0,303.0,1
944,944,-0.25001349112521853,-0.3,1.0,0.0,357.0,743.0,1.0,1,-140.0,0
945,945,-0.5681943909960867,-0.6,1.0,0.0,262.0,990.0,0.0,0,498.0,1
946,946,0.04771401154521482,0.0,1.0,1.0,404.0,678.0,1.0,1,1338.0,1
947,947,-0.17247241919231848,-0.2,0.0,1.0,350.0,944.0,1.0,0,926.0,1
948,948,0.19236521702170906,0.2,1.0,1.0,448.0,785.0,1.0,1,87.0,1
949,949,-0.8313512204087072,-0.8,0.0,1.0,263.0,680.0,1.0,0,97.0,1
950,950,-0.29593525314746805,-0.3,1.0,0.0,280.0,788.0,0.0,0,1932.0,1
951,951,-0.15188689630241392,-0.2,0.0,1.0,263.0,814.0,1.0,0,1483.0,1
952,952,-0.2631451600683833,-0.3,1.0,0.0,256.0,870.0,0.0,0,794.0,1
953,953,-0.4062097628165408,-0.4,1.0,0.0,497.0,531.0,0.0,0,1972.0,1
954,954,0.8487086331375254,0.8,0.0,0.0,465.0,822.0,0.0,1,333.0,1
955,955,0.06683604228797912,0.1,1.0,1.0,438.0,573.0,1.0,1,549.0,1
956,956,-0.8835781907534006,-0.9,0.0,1.0,253.0,608.0,1.0,0,239.0,1
957,957,-0.28666033550600745,-0.3,1.0,0.0,353.0,663.0,0.0,0,1964.0,1
958,958,-0.8711739059849637,-0.9,1.0,0.0,300.0,550.0,0.0,0,300.0,1
959,959,0.34188599470972225,0.3,0.0,0.0,477.0,621.0,0.0,1,742.0,1
960,960,0.4529978017609194,0.5,1.0,1.0,289.0,931.0,1.0,1,-250.0,1
961,961,0.4718267164888218,0.5,1.0,1.0,445.0,731.0,1.0,1,284.0,1
962,962,0.29673393275052173,0.3,1.0,1.0,408.0,835.0,1.0,1,47.0,1
963,963,0.5201661334136959,0.5,1.0,1.0,324.0,637.0,1.0,1,179.0,1
964,964,0.703483832926093,0.7,0.0,0.0,425.0,868.0,0.0,1,187.0,1
965,965,0.15514868212953903,0.2,0.0,0.0,470.0,732.0,0.0,1,528.0,1
966,966,-0.47724512429098276,-0.5,1.0,0.0,465.0,505.0,0.0,0,400.0,1
967,967,-0.5394970162089336,-0.5,1.0,0.0,412.0,825.0,0.0,0,313.0,1
968,968,-0.6871175485947393,-0.7,0.0,1.0,492.0,721.0,1.0,0,207.0,1
969,969,-0.625872965334547,-0.6,0.0,1.0,471.0,915.0,1.0,0,244.0,1
970,970,-0.026819579913611946,-0.0,0.0,1.0,326.0,595.0,1.0,0,1469.0,1
971,971,0.1397423904280225,0.1,1.0,1.0,320.0,717.0,1.0,1,373.0,1
972,972,0.8620858615368611,0.9,0.0,0.0,355.0,945.0,0.0,1,180.0,1
973,973,0.3571624811380806,0.4,1.0,1.0,481.0,800.0,1.0,1,69.0,1
974,974,0.02143990998403489,0.0,0.0,0.0,437.0,832.0,0.0,1,1061.0,1
975,975,0.46751566851102433,0.5,1.0,1.0,349.0,956.0,1.0,1,275.0,1
976,976,0.6750590448064856,0.7,0.0,0.0,285.0,684.0,0.0,1,231.0,1
977,977,-0.6615658314153006,-0.7,0.0,1.0,264.0,970.0,1.0,0,346.0,1
978,978,0.7558228532806855,0.8,1.0,1.0,263.0,752.0,1.0,1,125.0,1
979,979,0.09753683117670231,0.1,0.0,0.0,428.0,716.0,1.0,0,1576.0,0
980,980,-0.43846124047402785,-0.4,1.0,0.0,255.0,905.0,0.0,0,720.0,1
981,981,-0.6706988505774145,-0.7,0.0,1.0,290.0,985.0,1.0,0,-695.0,1
982,982,0.5696012138000449,0.6,0.0,0.0,350.0,546.0,0.0,1,434.0,1
983,983,-0.7811303746874472,-0.8,0.0,1.0,465.0,922.0,1.0,0,-97.0,1
984,984,0.0679251000885408,0.1,0.0,0.0,495.0,891.0,1.0,0,374.0,0
985,985,-0.5852554376862135,-0.6,0.0,1.0,351.0,652.0,1.0,0,-173.0,1
986,986,0.40531467040579383,0.4,1.0,1.0,356.0,685.0,1.0,1,219.0,1
987,987,0.26640583316996846,0.3,1.0,1.0,430.0,872.0,1.0,1,-122.0,1
988,988,-0.8193362069802129,-0.8,0.0,1.0,306.0,942.0,1.0,0,202.0,1
989,989,-0.6232498180905988,-0.6,0.0,1.0,351.0,513.0,1.0,0,196.0,1
990,990,0.8716286938494128,0.9,0.0,0.0,266.0,664.0,0.0,1,150.0,1
991,991,0.441387466184897,0.4,1.0,1.0,450.0,669.0,1.0,1,311.0,1
992,992,0.3910172364348513,0.4,1.0,1.0,252.0,656.0,1.0,1,502.0,1
993,993,0.4778640835140421,0.5,0.0,0.0,319.0,923.0,0.0,1,518.0,1
994,994,-0.47214327008361046,-0.5,0.0,1.0,318.0,973.0,1.0,0,489.0,1
995,995,0.24903437606516132,0.2,1.0,1.0,280.0,570.0,1.0,1,90.0,1
996,996,-0.019494634191433935,-0.0,0.0,1.0,309.0,597.0,1.0,0,894.0,1
997,997,0.05809911183174876,0.1,0.0,0.0,421.0,657.0,0.0,1,1922.0,1
998,998,-0.6391054965592122,-0.6,1.0,0.0,263.0,713.0,0.0,0,294.0,1
999,999,0.49423755860185936,0.5,1.0,1.0,403.0,886.0,1.0,1,21.0,1
1000,1000,-0.015465674360019,-0.0,1.0,0.0,458.0,913.0,1.0,1,1299.0,0
1001,1001,0.1143089451785898,0.1,0.0,0.0,470.0,704.0,0.0,1,1456.0,1
1002,1002,0.6503695839508011,0.7,0.0,0.0,370.0,619.0,0.0,1,381.0,1
1003,1003,0.6327037623634705,0.6,0.0,0.0,451.0,957.0,0.0,1,192.0,1
1004,1004,-0.42864118854180955,-0.4,0.0,1.0,366.0,520.0,1.0,0,184.0,1
1005,1005,-0.5915378165269014,-0.6,0.0,1.0,478.0,668.0,1.0,0,164.0,1
1006,1006,0.2963367979687709,0.3,1.0,1.0,417.0,737.0,1.0,1,366.0,1
1007,1007,-0.8770898969218908,-0.9,0.0,1.0,365.0,503.0,1.0,0,222.0,1
1008,1008,0.06715993119236252,0.1,0.0,0.0,381.0,748.0,1.0,0,391.0,0
1009,1009,0.5626851837232522,0.6,1.0,1.0,303.0,748.0,1.0,1,-201.0,1
1010,1010,0.005843063614987765,0.0,1.0,1.0,364.0,592.0,1.0,1,-96.0,1
1011,1011,-0.586195248288095,-0.6,1.0,0.0,442.0,786.0,0.0,0,842.0,1
1012,1012,-0.527076066177377,-0.5,0.0,1.0,479.0,710.0,1.0,0,231.0,1
1013,1013,-0.7908182003529056,-0.8,1.0,0.0,414.0,539.0,0.0,0,587.0,1
1014,1014,-0.20015629809445323,-0.2,0.0,1.0,317.0,894.0,1.0,0,199.0,1
1015,1015,0.359475591482015,0.4,1.0,1.0,379.0,586.0,1.0,1,335.0,1
1016,1016,0.06695557079550829,0.1,0.0,0.0,315.0,507.0,1.0,0,588.0,0
1017,1017,0.03849658867286587,0.0,0.0,0.0,440.0,510.0,0.0,1,1660.0,1
1018,1018,-0.2372928729345105,-0.2,1.0,0.0,364.0,857.0,1.0,1,1779.0,0
1019,1019,-0.6081991965159519,-0.6,0.0,1.0,414.0,813.0,1.0,0,143.0,1
1020,1020,0.12030309941399164,0.1,0.0,0.0,475.0,972.0,0.0,1,1003.0,1
1021,1021,-0.46546921595795915,-0.5,1.0,0.0,464.0,766.0,0.0,0,870.0,1
1022,1022,-0.1619324405688799,-0.2,1.0,0.0,479.0,753.0,1.0,1,1768.0,0
1023,1023,0.355237190470861,0.4,0.0,0.0,459.0,523.0,0.0,1,428.0,1
1024,1024,-0.726718696739677,-0.7,0.0,1.0,250.0,778.0,1.0,0,122.0,1
1025,1025,0.3456335633629649,0.3,1.0,1.0,462.0,621.0,1.0,1,-93.0,1
1026,1026,0.40759150421597823,0.4,1.0,1.0,349.0,883.0,1.0,1,218.0,1
1027,1027,0.7887233684907772,0.8,1.0,1.0,255.0,780.0,1.0,1,125.0,1
1028,1028,-0.5763435952331546,-0.6,0.0,1.0,444.0,924.0,1.0,0,202.0,1
1029,1029,0.06083016400966046,0.1,1.0,1.0,468.0,611.0,1.0,1,771.0,1
1030,1030,0.45484713178995395,0.5,0.0,0.0,304.0,545.0,0.0,1,181.0,1
1031,1031,0.15220673355598435,0.2,1.0,1.0,350.0,780.0,1.0,1,1650.0,1
1032,1032,-0.7040366768128583,-0.7,0.0,1.0,411.0,503.0,1.0,0,66.0,1
1033,1033,-0.15596474177960995,-0.2,1.0,0.0,308.0,868.0,1.0,1,-106.0,0
1034,1034,-0.7854846192363804,-0.8,1.0,0.0,408.0,503.0,0.0,0,169.0,1
1035,1035,-0.8961436986922859,-0.9,0.0,1.0,380.0,793.0,1.0,0,207.0,1
1036,1036,-0.2983165802694232,-0.3,0.0,1.0,395.0,854.0,1.0,0,831.0,1
1037,1037,-0.6537213270109579,-0.7,1.0,0.0,289.0,530.0,0.0,0,211.0,1
1038,1038,-0.39344677289021424,-0.4,1.0,0.0,324.0,655.0,0.0,0,381.0,1
1039,1039,0.8154759610779431,0.8,0.0,0.0,429.0,692.0,0.0,1,389.0,1
1040,1040,-0.01067594600141164,-0.0,0.0,1.0,301.0,786.0,1.0,0,1263.0,1
1041,1041,-0.7733944489403843,-0.8,0.0,1.0,486.0,843.0,1.0,0,-679.0,1
1042,1042,0.5796133620350487,0.6,1.0,1.0,495.0,879.0,1.0,1,346.0,1
1043,1043,-0.3514880682493339,-0.4,1.0,0.0,460.0,804.0,0.0,0,336.0,1
1044,1044,-0.8877881352296089,-0.9,0.0,1.0,391.0,562.0,1.0,0,127.0,1
1045,1045,-0.7797494453187102,-0.8,0.0,1.0,376.0,635.0,1.0,0,29.0,1
1046,1046,0.30021324461897814,0.3,0.0,0.0,396.0,948.0,1.0,0,-424.0,0
1047,1047,-0.39930184970221816,-0.4,1.0,0.0,336.0,986.0,0.0,0,1498.0,1
1048,1048,-0.8037655050539435,-0.8,1.0,0.0,438.0,920.0,1.0,1,-258.0,0
1049,1049,-0.6867854240563966,-0.7,1.0,0.0,418.0,683.0,0.0,0,289.0,1
1050,1050,-0.33039109910096587,-0.3,0.0,1.0,426.0,659.0,1.0,0,615.0,1
1051,1051,-0.7622806036860997,-0.8,0.0,1.0,390.0,557.0,1.0,0,213.0,1
1052,1052,-0.29555162224642917,-0.3,1.0,0.0,445.0,860.0,1.0,1,305.0,0
1053,1053,0.5169741944340448,0.5,1.0,1.0,316.0,770.0,1.0,1,374.0,1
1054,1054,0.775953082455561,0.8,0.0,0.0,270.0,623.0,0.0,1,367.0,1
1055,1055,0.1316415797835161,0.1,1.0,1.0,266.0,648.0,1.0,1,1026.0,1
1056,1056,0.8160807933131112,0.8,0.0,0.0,490.0,962.0,0.0,1,148.0,1
1057,1057,0.15860188052520907,0.2,0.0,0.0,497.0,832.0,1.0,0,71.0,0
1058,1058,0.4034793597033698,0.4,0.0,0.0,391.0,503.0,0.0,1,386.0,1
1059,1059,0.3132190162271088,0.3,0.0,0.0,419.0,751.0,0.0,1,670.0,1
1060,1060,-0.3333631274493509,-0.3,0.0,1.0,318.0,670.0,1.0,0,652.0,1
1061,1061,0.6377780637456153,0.6,0.0,0.0,252.0,525.0,0.0,1,223.0,1
1062,1062,0.12165060967430075,0.1,1.0,1.0,455.0,693.0,1.0,1,572.0,1
1063,1063,0.8117360819745562,0.8,1.0,1.0,476.0,626.0,1.0,1,58.0,1
1064,1064,-0.5761270804933467,-0.6,1.0,0.0,350.0,948.0,0.0,0,222.0,1
1065,1065,-0.3614505269045464,-0.4,1.0,0.0,288.0,873.0,0.0,0,829.0,1
1066,1066,0.3975071610950255,0.4,0.0,0.0,426.0,602.0,0.0,1,522.0,1
1067,1067,-0.6521108167385767,-0.7,0.0,1.0,467.0,941.0,1.0,0,282.0,1
1068,1068,-0.7930251312220519,-0.8,0.0,1.0,301.0,554.0,1.0,0,-25.0,1
1069,1069,-0.05055248006022939,-0.1,0.0,1.0,458.0,581.0,1.0,0,401.0,1
1070,1070,0.5563783203979712,0.6,1.0,1.0,494.0,835.0,1.0,1,-139.0,1
1071,1071,-0.834200062915765,-0.8,0.0,1.0,351.0,551.0,1.0,0,198.0,1
1072,1072,-0.3599348025710679,-0.4,1.0,0.0,412.0,878.0,0.0,0,1710.0,1
1073,1073,-0.5619231628593356,-0.6,0.0,1.0,366.0,904.0,1.0,0,170.0,1
1074,1074,0.5003714529399704,0.5,1.0,1.0,326.0,797.0,1.0,1,117.0,1
1075,1075,0.7394033374829502,0.7,1.0,1.0,460.0,753.0,1.0,1,257.0,1
1076,1076,0.6206050351102254,0.6,1.0,1.0,295.0,735.0,1.0,1,180.0,1
1077,1077,0.5895869710681912,0.6,0.0,0.0,422.0,770.0,0.0,1,248.0,1
1078,1078,0.22241296150430034,0.2,0.0,0.0,359.0,875.0,0.0,1,206.0,1
1079,1079,-0.7628782773543377,-0.8,0.0,1.0,277.0,530.0,1.0,0,313.0,1
1080,1080,0.6711436607189124,0.7,0.0,0.0,255.0,970.0,0.0,1,205.0,1
1081,1081,0.3158597874103205,0.3,0.0,0.0,393.0,556.0,0.0,1,581.0,1
1082,1082,0.6005621595834078,0.6,1.0,1.0,431.0,648.0,1.0,1,301.0,1
1083,1083,0.6296055529645986,0.6,0.0,0.0,348.0,626.0,0.0,1,286.0,1
1084,1084,0.4980977524307403,0.5,1.0,1.0,495.0,673.0,1.0,1,132.0,1
1085,1085,0.7689912691140691,0.8,1.0,1.0,490.0,825.0,1.0,1,285.0,1
1086,1086,0.6874202896745315,0.7,1.0,1.0,324.0,506.0,1.0,1,70.0,1
1087,1087,-0.5300295858847759,-0.5,1.0,0.0,324.0,801.0,0.0,0,175.0,1
1088,1088,-0.08173026993298083,-0.1,1.0,0.0,340.0,858.0,1.0,1,1752.0,0
1089,1089,-0.3873016362566025,-0.4,0.0,1.0,480.0,697.0,1.0,0,283.0,1
1090,1090,-0.17399281021098667,-0.2,0.0,1.0,302.0,797.0,1.0,0,521.0,1
1091,1091,0.11347241745019898,0.1,1.0,1.0,478.0,628.0,1.0,1,314.0,1
1092,1092,-0.8712387311178263,-0.9,0.0,1.0,295.0,591.0,1.0,0,4.0,1
1093,1093,0.32948230381730037,0.3,1.0,1.0,496.0,810.0,1.0,1,94.0,1
1094,1094,0.43856939891964164,0.4,0.0,0.0,444.0,997.0,0.0,1,539.0,1
1095,1095,-0.8204895312872689,-0.8,0.0,1.0,276.0,721.0,1.0,0,133.0,1
1096,1096,-0.5849677419910739,-0.6,1.0,0.0,264.0,622.0,0.0,0,584.0,1
1097,1097,-0.036411869818846254,-0.0,1.0,0.0,273.0,594.0,1.0,1,243.0,0
1098,1098,-0.2591304644522926,-0.3,1.0,0.0,264.0,909.0,1.0,1,137.0,0
1099,1099,-0.568731188968655,-0.6,0.0,1.0,481.0,594.0,1.0,0,-415.0,1
1100,1100,0.3538112969063477,0.4,0.0,0.0,435.0,567.0,0.0,1,418.0,1
1101,1101,0.847514270343764,0.8,1.0,1.0,428.0,698.0,1.0,1,114.0,1
1102,1102,0.2939754019814237,0.3,0.0,0.0,279.0,662.0,0.0,1,399.0,1
1103,1103,0.2632456892714409,0.3,1.0,1.0,384.0,992.0,1.0,1,724.0,1
1104,1104,0.8108559939375221,0.8,0.0,0.0,340.0,596.0,0.0,1,644.0,1
1105,1105,0.42466325221464796,0.4,1.0,1.0,387.0,772.0,1.0,1,131.0,1
1106,1106,-0.01782451142552255,-0.0,1.0,0.0,471.0,932.0,1.0,1,-523.0,0
1107,1107,0.2501315417008071,0.3,1.0,1.0,277.0,679.0,1.0,1,824.0,1
1108,1108,0.8658352285749228,0.9,0.0,0.0,449.0,794.0,0.0,1,167.0,1
1109,1109,0.28956500671841245,0.3,1.0,1.0,379.0,735.0,1.0,1,316.0,1
1110,1110,0.6414870550289448,0.6,0.0,0.0,484.0,942.0,0.0,1,204.0,1
1111,1111,0.44330935272920524,0.4,1.0,1.0,419.0,963.0,1.0,1,8.0,1
1112,1112,0.44983133521982965,0.4,0.0,0.0,393.0,902.0,0.0,1,615.0,1
1113,1113,0.7301067208419193,0.7,1.0,1.0,287.0,896.0,1.0,1,247.0,1
1114,1114,0.5949914231322152,0.6,1.0,1.0,466.0,655.0,1.0,1,199.0,1
1115,1115,-0.27575682282379266,-0.3,0.0,1.0,411.0,686.0,1.0,0,693.0,1
1116,1116,0.4624628549719375,0.5,1.0,1.0,359.0,701.0,1.0,1,250.0,1
1117,1117,0.8275279441253561,0.8,1.0,1.0,331.0,826.0,1.0,1,153.0,1
1118,1118,-0.15599654469057544,-0.2,1.0,0.0,355.0,572.0,0.0,0,2073.0,1
1119,1119,-0.1326047684875562,-0.1,0.0,1.0,483.0,693.0,1.0,0,184.0,1
1120,1120,0.7495178707863289,0.7,1.0,1.0,272.0,730.0,1.0,1,268.0,1
1121,1121,-0.5579417677518674,-0.6,0.0,1.0,434.0,698.0,1.0,0,68.0,1
1122,1122,0.5260688943503763,0.5,0.0,0.0,278.0,775.0,0.0,1,297.0,1
1123,1123,-0.1879121911721393,-0.2,0.0,1.0,374.0,825.0,1.0,0,461.0,1
1124,1124,0.3534701458427548,0.4,1.0,1.0,484.0,934.0,1.0,1,122.0,1
1125,1125,-0.5647427755768137,-0.6,0.0,1.0,484.0,792.0,1.0,0,94.0,1
1126,1126,0.755213488056237,0.8,1.0,1.0,472.0,739.0,1.0,1,179.0,1
1127,1127,0.18617453520909855,0.2,1.0,1.0,475.0,963.0,1.0,1,1302.0,1
1128,1128,-0.385394129032844,-0.4,0.0,1.0,293.0,963.0,1.0,0,654.0,1
1129,1129,0.0018679653135257324,0.0,1.0,1.0,468.0,546.0,1.0,1,1986.0,1
1130,1130,-0.2126498887342596,-0.2,1.0,0.0,339.0,942.0,0.0,0,1719.0,1
1131,1131,0.24797590391653757,0.2,1.0,1.0,318.0,790.0,1.0,1,462.0,1
1132,1132,-0.695819141328684,-0.7,0.0,1.0,351.0,721.0,1.0,0,198.0,1
1133,1133,0.2503088267759793,0.3,1.0,1.0,318.0,516.0,1.0,1,276.0,1
1134,1134,-0.7880123033726248,-0.8,0.0,1.0,427.0,633.0,1.0,0,190.0,1
1135,1135,-0.23956880306735828,-0.2,0.0,1.0,412.0,530.0,1.0,0,458.0,1
1136,1136,-0.15518700784138484,-0.2,0.0,1.0,491.0,584.0,1.0,0,515.0,1
1137,1137,0.4007710013173976,0.4,0.0,0.0,463.0,935.0,0.0,1,462.0,1
1138,1138,0.12605113109658894,0.1,0.0,0.0,429.0,794.0,1.0,0,-243.0,0
1139,1139,-0.34325686351491735,-0.3,1.0,0.0,337.0,683.0,0.0,0,350.0,1
1140,1140,0.1377093279331142,0.1,0.0,0.0,359.0,787.0,0.0,1,1704.0,1
1141,1141,-0.15470523597386876,-0.2,0.0,1.0,320.0,708.0,1.0,0,902.0,1
1142,1142,-0.46686091703905747,-0.5,0.0,1.0,346.0,867.0,1.0,0,-423.0,1
1143,1143,0.6582046391818704,0.7,1.0,1.0,342.0,906.0,1.0,1,142.0,1
1144,1144,0.1957533939499515,0.2,0.0,0.0,290.0,782.0,0.0,1,1928.0,1
1145,1145,-0.7490652423795083,-0.7,1.0,0.0,339.0,700.0,0.0,0,241.0,1
1146,1146,-0.1584505959196889,-0.2,1.0,0.0,441.0,742.0,1.0,1,1817.0,0
1147,1147,0.35597474276112495,0.4,1.0,1.0,496.0,731.0,1.0,1,93.0,1
1148,1148,-0.3735395469372442,-0.4,1.0,0.0,400.0,546.0,0.0,0,894.0,1
1149,1149,-0.588684675702506,-0.6,0.0,1.0,419.0,973.0,1.0,0,78.0,1
1150,1150,0.025674809652106112,0.0,0.0,0.0,315.0,940.0,1.0,0,715.0,0
1151,1151,-0.3845762305182683,-0.4,0.0,1.0,452.0,989.0,1.0,0,439.0,1
1152,1152,-0.5727566249614664,-0.6,0.0,1.0,354.0,658.0,1.0,0,218.0,1
1153,1153,0.15767541167551624,0.2,0.0,0.0,395.0,701.0,0.0,1,1884.0,1
1154,1154,0.06288823941009569,0.1,0.0,0.0,366.0,589.0,1.0,0,945.0,0
1155,1155,0.4735482953290081,0.5,1.0,1.0,444.0,943.0,1.0,1,153.0,1
1156,1156,-0.41137827759566264,-0.4,0.0,1.0,385.0,843.0,1.0,0,142.0,1
1157,1157,0.8908744915411825,0.9,0.0,0.0,433.0,664.0,0.0,1,173.0,1
1158,1158,-0.2859682551578584,-0.3,0.0,1.0,413.0,975.0,1.0,0,462.0,1
1159,1159,-0.4816220535539582,-0.5,0.0,1.0,319.0,636.0,1.0,0,445.0,1
1160,1160,-0.5369490866276254,-0.5,1.0,0.0,312.0,565.0,0.0,0,453.0,1
1161,1161,-0.6850101403569009,-0.7,0.0,1.0,289.0,725.0,1.0,0,236.0,1
1162,1162,-0.0940326545162865,-0.1,0.0,1.0,464.0,786.0,1.0,0,620.0,1
1163,1163,-0.6343994292732544,-0.6,1.0,0.0,405.0,716.0,0.0,0,579.0,1
1164,1164,-0.15437970057825434,-0.2,0.0,1.0,422.0,581.0,1.0,0,1537.0,1
1165,1165,0.274746271147012,0.3,0.0,0.0,385.0,816.0,1.0,0,439.0,0
1166,1166,0.2511200323704338,0.3,1.0,1.0,325.0,938.0,1.0,1,-753.0,1
1167,1167,-0.7607325483515704,-0.8,1.0,0.0,390.0,643.0,0.0,0,687.0,1
1168,1168,0.3789463308692952,0.4,0.0,0.0,342.0,760.0,0.0,1,438.0,1
1169,1169,0.7969647007597856,0.8,1.0,1.0,490.0,857.0,1.0,1,153.0,1
1170,1170,-0.13300685843159588,-0.1,1.0,0.0,310.0,798.0,0.0,0,1892.0,1
1171,1171,0.10301827420675369,0.1,0.0,0.0,304.0,718.0,0.0,1,168.0,1
1172,1172,-0.834787103096673,-0.8,0.0,1.0,313.0,767.0,1.0,0,200.0,1
1173,1173,-0.25137253593195974,-0.3,0.0,1.0,309.0,962.0,1.0,0,-681.0,1
1174,1174,0.1944479539767977,0.2,0.0,0.0,274.0,897.0,0.0,1,179.0,1
1175,1175,-0.06869252685683058,-0.1,0.0,1.0,426.0,635.0,1.0,0,209.0,1
1176,1176,0.7230873368798475,0.7,1.0,1.0,276.0,599.0,1.0,1,235.0,1
1177,1177,-0.29581838395548476,-0.3,0.0,1.0,472.0,872.0,1.0,0,576.0,1
1178,1178,0.8111438182963936,0.8,0.0,0.0,275.0,814.0,0.0,1,231.0,1
1179,1179,0.4717136252136692,0.5,1.0,1.0,344.0,988.0,1.0,1,218.0,1
1180,1180,0.6662784624360604,0.7,1.0,1.0,424.0,995.0,1.0,1,121.0,1
1181,1181,-0.041658794711965985,-0.0,1.0,0.0,300.0,551.0,1.0,1,2149.0,0
1182,1182,-0.20986199657921933,-0.2,1.0,0.0,464.0,744.0,1.0,1,-128.0,0
1183,1183,0.6005489767581792,0.6,0.0,0.0,294.0,930.0,0.0,1,106.0,1
1184,1184,0.8320873216374464,0.8,1.0,1.0,408.0,930.0,1.0,1,112.0,1
1185,1185,-0.321926652906243,-0.3,0.0,1.0,367.0,824.0,1.0,0,579.0,1
1186,1186,-0.6015807558605386,-0.6,1.0,0.0,313.0,897.0,0.0,0,640.0,1
1187,1187,0.5510262102060696,0.6,1.0,1.0,302.0,957.0,1.0,1,221.0,1
1188,1188,-0.8924231138380562,-0.9,0.0,1.0,322.0,553.0,1.0,0,155.0,1
1189,1189,-0.5079442494726293,-0.5,0.0,1.0,374.0,570.0,1.0,0,166.0,1
1190,1190,0.7246653645932836,0.7,0.0,0.0,496.0,778.0,0.0,1,176.0,1
1191,1191,-0.12604907125742704,-0.1,1.0,0.0,472.0,857.0,1.0,1,811.0,0
1192,1192,0.8462094431552422,0.8,0.0,0.0,304.0,878.0,0.0,1,108.0,1
1193,1193,0.3887418954253795,0.4,1.0,1.0,423.0,734.0,1.0,1,93.0,1
1194,1194,0.7916886406719216,0.8,1.0,1.0,313.0,775.0,1.0,1,152.0,1
1195,1195,0.7214641858261156,0.7,0.0,0.0,367.0,837.0,0.0,1,316.0,1
1196,1196,-0.8446440324830126,-0.8,0.0,1.0,250.0,570.0,1.0,0,140.0,1
1197,1197,0.08735169472428717,0.1,1.0,1.0,467.0,975.0,1.0,1,-582.0,1
1198,1198,-0.13394268530243458,-0.1,1.0,0.0,360.0,561.0,1.0,1,2079.0,0
1199,1199,-0.43580397871317345,-0.4,1.0,0.0,304.0,919.0,0.0,0,377.0,1
1200,1200,0.7371599631952571,0.7,0.0,0.0,437.0,598.0,0.0,1,225.0,1
1201,1201,0.22629410529582905,0.2,0.0,0.0,456.0,678.0,0.0,1,1126.0,1
1202,1202,-0.07916807048978047,-0.1,1.0,0.0,341.0,733.0,1.0,1,-414.0,0
1203,1203,0.2533929939671725,0.3,1.0,1.0,379.0,763.0,1.0,1,508.0,1
1204,1204,0.5324828563714689,0.5,1.0,1.0,496.0,778.0,1.0,1,156.0,1
1205,1205,0.1953690410730743,0.2,0.0,0.0,250.0,910.0,0.0,1,490.0,1
1206,1206,-0.29877067251170464,-0.3,1.0,0.0,482.0,747.0,0.0,0,1771.0,1
1207,1207,0.5965460754696795,0.6,1.0,1.0,338.0,700.0,1.0,1,262.0,1
1208,1208,0.7236653112126931,0.7,1.0,1.0,266.0,943.0,1.0,1,161.0,1
1209,1209,-0.20910455553786733,-0.2,1.0,0.0,351.0,780.0,1.0,1,999.0,0
1210,1210,0.47559447634300855,0.5,0.0,0.0,272.0,762.0,0.0,1,296.0,1
1211,1211,-0.3873708174937672,-0.4,1.0,0.0,481.0,590.0,0.0,0,1019.0,1
1212,1212,-0.0618777246514457,-0.1,0.0,1.0,422.0,756.0,1.0,0,1132.0,1
1213,1213,-0.7265953661613773,-0.7,1.0,0.0,433.0,880.0,0.0,0,147.0,1
1214,1214,-0.19957306030795152,-0.2,1.0,0.0,289.0,927.0,0.0,0,1784.0,1
1215,1215,-0.32268237908481956,-0.3,1.0,0.0,402.0,998.0,1.0,1,-440.0,0
1216,1216,0.38361237026621764,0.4,0.0,0.0,414.0,657.0,0.0,1,229.0,1
1217,1217,0.14294130553614648,0.1,0.0,0.0,416.0,998.0,1.0,0,1006.0,0
1218,1218,0.8330247034567727,0.8,0.0,0.0,286.0,526.0,0.0,1,308.0,1
1219,1219,-0.5234082331904255,-0.5,0.0,1.0,457.0,563.0,1.0,0,440.0,1
1220,1220,-0.6308339286305074,-0.6,0.0,1.0,447.0,620.0,1.0,0,583.0,1
1221,1221,-0.6293515680128688,-0.6,0.0,1.0,340.0,987.0,0.0,1,-417.0,0
1222,1222,-0.0397275595497546,-0.0,1.0,0.0,378.0,528.0,1.0,1,1394.0,0
1223,1223,0.17720924189411924,0.2,0.0,0.0,310.0,582.0,0.0,1,758.0,1
1224,1224,-0.8917483439157889,-0.9,0.0,1.0,277.0,759.0,1.0,0,134.0,1
1225,1225,-0.7693511963777803,-0.8,1.0,0.0,477.0,813.0,0.0,0,450.0,1
1226,1226,0.5602412725207367,0.6,1.0,1.0,262.0,861.0,1.0,1,107.0,1
1227,1227,0.20068710258670908,0.2,1.0,1.0,447.0,664.0,1.0,1,429.0,1
1228,1228,-0.83858203238736,-0.8,0.0,1.0,371.0,623.0,1.0,0,426.0,1
1229,1229,0.09186787648505523,0.1,1.0,1.0,391.0,699.0,1.0,1,170.0,1
1230,1230,0.5319696405736815,0.5,0.0,0.0,375.0,720.0,1.0,0,-305.0,0
1231,1231,0.7020555456887793,0.7,0.0,0.0,396.0,951.0,0.0,1,-57.0,1
1232,1232,-0.1615461918772223,-0.2,0.0,1.0,337.0,786.0,1.0,0,1547.0,1
1233,1233,0.6171367373389379,0.6,1.0,1.0,347.0,808.0,1.0,1,45.0,1
1234,1234,0.3125790125696556,0.3,1.0,1.0,364.0,617.0,1.0,1,289.0,1
1235,1235,-0.8809635771569626,-0.9,0.0,1.0,292.0,791.0,1.0,0,177.0,1
1236,1236,-0.5086424387644365,-0.5,0.0,1.0,497.0,555.0,1.0,0,78.0,1
1237,1237,0.5194562535321597,0.5,0.0,0.0,294.0,709.0,0.0,1,247.0,1
1238,1238,-0.6749307852528691,-0.7,0.0,1.0,439.0,672.0,1.0,0,259.0,1
1239,1239,-0.661371434549429,-0.7,0.0,1.0,329.0,822.0,1.0,0,139.0,1
1240,1240,0.1854428193661245,0.2,1.0,1.0,370.0,889.0,1.0,1,811.0,1
1241,1241,-0.29212820877311774,-0.3,0.0,1.0,297.0,817.0,1.0,0,406.0,1
1242,1242,-0.13610627210206927,-0.1,0.0,1.0,378.0,708.0,1.0,0,304.0,1
1243,1243,-0.8934682434227108,-0.9,1.0,0.0,376.0,732.0,0.0,0,252.0,1
1244,1244,0.5833022728275211,0.6,1.0,1.0,339.0,506.0,1.0,1,165.0,1
1245,1245,-0.3080705422933706,-0.3,0.0,1.0,343.0,621.0,1.0,0,426.0,1
1246,1246,-0.6891439963411118,-0.7,0.0,1.0,273.0,725.0,1.0,0,252.0,1
1247,1247,-0.4228387302838769,-0.4,0.0,1.0,384.0,568.0,1.0,0,518.0,1
1248,1248,0.7243641007264893,0.7,1.0,1.0,458.0,822.0,1.0,1,-400.0,1
1249,1249,0.5877094066791989,0.6,0.0,0.0,485.0,972.0,0.0,1,323.0,1
1250,1250,-0.35062316634645063,-0.4,0.0,1.0,291.0,830.0,1.0,0,349.0,1
1251,1251,0.4712087228405769,0.5,0.0,0.0,492.0,912.0,0.0,1,496.0,1
1252,1252,0.17517185173634597,0.2,0.0,0.0,443.0,924.0,0.0,1,653.0,1
1253,1253,-0.22639953558990722,-0.2,0.0,1.0,493.0,998.0,1.0,0,129.0,1
1254,1254,-0.20749410828268222,-0.2,1.0,0.0,472.0,771.0,0.0,0,1757.0,1
1255,1255,-0.7207090499609323,-0.7,1.0,0.0,346.0,886.0,1.0,1,-232.0,0
1256,1256,0.21152924188681987,0.2,1.0,1.0,463.0,638.0,1.0,1,189.0,1
1257,1257,0.5839720898158817,0.6,1.0,1.0,403.0,712.0,1.0,1,175.0,1
1258,1258,-0.40215728461302985,-0.4,1.0,0.0,347.0,778.0,0.0,0,1145.0,1
1259,1259,-0.16198185326071446,-0.2,0.0,1.0,492.0,959.0,1.0,0,1229.0,1
1260,1260,0.4478061675155801,0.4,0.0,0.0,431.0,636.0,0.0,1,363.0,1
1261,1261,-0.5076506071578076,-0.5,0.0,1.0,374.0,618.0,1.0,0,-322.0,1
1262,1262,-0.4008015704257479,-0.4,0.0,1.0,458.0,848.0,1.0,0,-26.0,1
1263,1263,0.793654893286302,0.8,0.0,0.0,472.0,624.0,0.0,1,164.0,1
1264,1264,-0.6415689105549934,-0.6,1.0,0.0,316.0,828.0,0.0,0,756.0,1
1265,1265,0.7323222932615484,0.7,0.0,0.0,255.0,913.0,0.0,1,132.0,1
1266,1266,0.7621160474003231,0.8,1.0,1.0,415.0,505.0,1.0,1,180.0,1
1267,1267,-0.35136548665289347,-0.4,1.0,0.0,482.0,741.0,0.0,0,1137.0,1
1268,1268,-0.3553685564866116,-0.4,0.0,1.0,360.0,890.0,1.0,0,200.0,1
1269,1269,0.060330812873057416,0.1,0.0,0.0,481.0,569.0,0.0,1,1950.0,1
1270,1270,-0.5605856612164348,-0.6,0.0,1.0,388.0,839.0,1.0,0,353.0,1
1271,1271,0.7812601839421448,0.8,0.0,0.0,282.0,886.0,0.0,1,282.0,1
1272,1272,-0.7352904547234832,-0.7,1.0,0.0,345.0,723.0,0.0,0,312.0,1
1273,1273,0.13097108204621566,0.1,0.0,0.0,494.0,574.0,0.0,1,1932.0,1
1274,1274,-0.7552747378047057,-0.8,0.0,1.0,405.0,937.0,1.0,0,58.0,1
1275,1275,0.47870490924044684,0.5,1.0,1.0,358.0,638.0,1.0,1,204.0,1
1276,1276,0.7770930634422014,0.8,0.0,0.0,379.0,782.0,0.0,1,139.0,1
1277,1277,-0.4584225541377657,-0.5,0.0,1.0,355.0,531.0,1.0,0,794.0,1
1278,1278,0.3921907339303491,0.4,1.0,1.0,422.0,595.0,1.0,1,153.0,1
1279,1279,-0.7649998620521518,-0.8,1.0,0.0,290.0,709.0,0.0,0,321.0,1
1280,1280,-0.573244906319254,-0.6,0.0,1.0,366.0,850.0,1.0,0,104.0,1
1281,1281,-0.7254193694128551,-0.7,1.0,0.0,285.0,795.0,0.0,0,320.0,1
1282,1282,0.5711095764147197,0.6,0.0,0.0,483.0,881.0,0.0,1,106.0,1
1283,1283,-0.06776911215226822,-0.1,1.0,0.0,308.0,806.0,1.0,1,186.0,0
1284,1284,-0.24928423510205566,-0.2,0.0,1.0,297.0,586.0,1.0,0,157.0,1
1285,1285,0.04467513048389338,0.0,1.0,1.0,375.0,788.0,1.0,1,1367.0,1
1286,1286,-0.843012220330795,-0.8,0.0,1.0,292.0,971.0,1.0,0,117.0,1
1287,1287,-0.07909757658241923,-0.1,1.0,0.0,331.0,535.0,1.0,1,2134.0,0
1288,1288,0.2728816588798345,0.3,0.0,0.0,415.0,849.0,0.0,1,426.0,1
1289,1289,0.5259926064660484,0.5,1.0,1.0,379.0,705.0,1.0,1,486.0,1
1290,1290,-0.8899651154186486,-0.9,0.0,1.0,432.0,539.0,1.0,0,509.0,1
1291,1291,-0.07435276367314458,-0.1,0.0,1.0,337.0,747.0,1.0,0,1496.0,1
1292,1292,0.006942446120496437,0.0,1.0,1.0,391.0,566.0,1.0,1,943.0,1
1293,1293,-0.11014274733895846,-0.1,1.0,0.0,461.0,726.0,1.0,1,1813.0,0
1294,1294,0.2417431782345515,0.2,0.0,0.0,440.0,917.0,0.0,1,623.0,1
1295,1295,-0.005537238770912722,-0.0,0.0,1.0,445.0,803.0,1.0,0,1642.0,1
1296,1296,0.07896544819514173,0.1,0.0,0.0,355.0,970.0,1.0,0,205.0,0
1297,1297,0.12911007247559259,0.1,0.0,0.0,417.0,676.0,1.0,0,-113.0,0
1298,1298,-0.223020800897491,-0.2,0.0,1.0,281.0,567.0,1.0,0,882.0,1
1299,1299,0.8776988966687321,0.9,1.0,1.0,279.0,580.0,1.0,1,151.0,1
1300,1300,0.4343301731309249,0.4,0.0,0.0,410.0,958.0,0.0,1,472.0,1
1301,1301,-0.3210829550525748,-0.3,0.0,1.0,370.0,636.0,1.0,0,334.0,1
1302,1302,0.45877662627504046,0.5,1.0,1.0,431.0,666.0,1.0,1,203.0,1
1303,1303,0.7177784892873821,0.7,1.0,1.0,413.0,800.0,1.0,1,417.0,1
1304,1304,-0.12633695561755964,-0.1,1.0,0.0,319.0,697.0,1.0,1,1274.0,0
1305,1305,-0.08904418910310896,-0.1,0.0,1.0,428.0,828.0,1.0,0,294.0,1
1306,1306,0.5355764660246934,0.5,0.0,0.0,410.0,508.0,0.0,1,132.0,1
1307,1307,0.7611119742188638,0.8,0.0,0.0,457.0,555.0,0.0,1,268.0,1
1308,1308,-0.05024771668276773,-0.1,1.0,0.0,392.0,729.0,1.0,1,249.0,0
1309,1309,0.7042548060639516,0.7,1.0,1.0,400.0,765.0,1.0,1,155.0,1
1310,1310,-0.7250577674963081,-0.7,1.0,0.0,386.0,671.0,0.0,0,273.0,1
1311,1311,-0.1107654827868162,-0.1,1.0,0.0,287.0,698.0,1.0,1,-355.0,0
1312,1312,-0.6496673081411666,-0.6,0.0,1.0,254.0,926.0,1.0,0,-450.0,1
1313,1313,-0.1937403172008273,-0.2,0.0,1.0,261.0,557.0,1.0,0,372.0,1
1314,1314,-0.4866292414320425,-0.5,1.0,0.0,458.0,834.0,0.0,0,738.0,1
1315,1315,0.46275949242995285,0.5,1.0,1.0,444.0,907.0,1.0,1,-111.0,1
1316,1316,0.15040772612622944,0.2,0.0,0.0,461.0,638.0,1.0,0,101.0,0
1317,1317,-0.008355004785777331,-0.0,1.0,0.0,439.0,682.0,1.0,1,849.0,0
1318,1318,-0.14131475209506994,-0.1,1.0,0.0,333.0,552.0,0.0,0,2115.0,1
1319,1319,-0.02678338883766429,-0.0,0.0,1.0,310.0,551.0,1.0,0,279.0,1
1320,1320,-0.3288728125582965,-0.3,1.0,0.0,435.0,766.0,1.0,1,-341.0,0
1321,1321,0.022634839354613412,0.0,0.0,0.0,342.0,568.0,1.0,0,630.0,0
1322,1322,0.1566251693803139,0.2,0.0,0.0,353.0,815.0,1.0,0,162.0,0
1323,1323,0.3256233260515843,0.3,1.0,1.0,356.0,716.0,1.0,1,198.0,1
1324,1324,-0.1427705164322043,-0.1,0.0,1.0,260.0,798.0,1.0,0,1122.0,1
1325,1325,0.46513909315797186,0.5,0.0,0.0,280.0,795.0,0.0,1,535.0,1
1326,1326,0.3745577781941901,0.4,1.0,1.0,303.0,565.0,1.0,1,942.0,1
1327,1327,0.7014697564711013,0.7,1.0,1.0,308.0,683.0,1.0,1,219.0,1
1328,1328,0.06898633915089292,0.1,1.0,1.0,495.0,747.0,1.0,1,608.0,1
1329,1329,0.4078116850027632,0.4,0.0,0.0,294.0,684.0,0.0,1,1022.0,1
1330,1330,0.774232527713186,0.8,1.0,1.0,434.0,796.0,1.0,1,230.0,1
1331,1331,-0.1660243191801265,-0.2,1.0,0.0,261.0,888.0,1.0,1,1851.0,0
1332,1332,0.685334979015339,0.7,0.0,0.0,259.0,651.0,0.0,1,270.0,1
1333,1333,0.194423052259746,0.2,0.0,0.0,264.0,976.0,0.0,1,990.0,1
1334,1334,0.2786543464584498,0.3,1.0,1.0,485.0,583.0,1.0,1,172.0,1
1335,1335,0.616772188701861,0.6,1.0,1.0,387.0,685.0,1.0,1,-192.0,1
1336,1336,-0.401848196355908,-0.4,1.0,0.0,414.0,652.0,0.0,0,444.0,1
1337,1337,-0.5541260997679323,-0.6,0.0,1.0,401.0,843.0,1.0,0,46.0,1
1338,1338,0.45622726664878155,0.5,1.0,1.0,472.0,960.0,1.0,1,78.0,1
1339,1339,-0.41305743208413764,-0.4,0.0,1.0,470.0,502.0,1.0,0,348.0,1
1340,1340,-0.8457080721377647,-0.8,1.0,0.0,454.0,588.0,0.0,0,428.0,1
1341,1341,-0.4872731761775663,-0.5,1.0,0.0,346.0,917.0,0.0,0,1567.0,1
1342,1342,0.38236919320625373,0.4,1.0,1.0,325.0,697.0,1.0,1,328.0,1
1343,1343,-0.7927080987219458,-0.8,1.0,0.0,366.0,557.0,0.0,0,277.0,1
1344,1344,-0.013521424291766393,-0.0,1.0,0.0,387.0,984.0,1.0,1,109.0,0
1345,1345,0.6652163973412318,0.7,1.0,1.0,369.0,703.0,1.0,1,168.0,1
1346,1346,0.04410623139771075,0.0,0.0,0.0,308.0,727.0,1.0,0,155.0,0
1347,1347,0.05649165386257926,0.1,0.0,0.0,391.0,885.0,1.0,0,1724.0,0
1348,1348,0.3754982038521216,0.4,1.0,1.0,314.0,580.0,1.0,1,366.0,1
1349,1349,0.7972140389740657,0.8,1.0,1.0,374.0,789.0,1.0,1,177.0,1
1350,1350,-0.03547156294691789,-0.0,1.0,0.0,339.0,883.0,1.0,1,1778.0,0
1351,1351,-0.47131082809834884,-0.5,1.0,0.0,321.0,618.0,0.0,0,1241.0,1
1352,1352,-0.4654551049308901,-0.5,0.0,1.0,315.0,699.0,1.0,0,66.0,1
1353,1353,-0.36716592264270076,-0.4,0.0,1.0,336.0,506.0,1.0,0,108.0,1
1354,1354,-0.7383824903573345,-0.7,0.0,1.0,391.0,606.0,1.0,0,653.0,1
1355,1355,-0.636117695222338,-0.6,1.0,0.0,296.0,749.0,0.0,0,255.0,1
1356,1356,0.2877081645035796,0.3,1.0,1.0,336.0,681.0,1.0,1,873.0,1
1357,1357,-0.5434434656336204,-0.5,0.0,1.0,310.0,751.0,1.0,0,-411.0,1
1358,1358,0.035883025601648466,0.0,1.0,1.0,456.0,838.0,1.0,1,-14.0,1
1359,1359,-0.14381247756401505,-0.1,1.0,0.0,312.0,660.0,1.0,1,2028.0,0
1360,1360,-0.3400007744512291,-0.3,0.0,1.0,327.0,736.0,1.0,0,267.0,1
1361,1361,0.48345205963445703,0.5,1.0,1.0,472.0,568.0,1.0,1,400.0,1
1362,1362,-0.7725641363909146,-0.8,1.0,0.0,492.0,883.0,0.0,0,265.0,1
1363,1363,-0.04685042197071709,-0.0,0.0,1.0,416.0,632.0,1.0,0,1952.0,1
1364,1364,0.5123380895325859,0.5,0.0,0.0,301.0,920.0,0.0,1,179.0,1
1365,1365,0.04809062726809721,0.0,1.0,1.0,443.0,617.0,1.0,1,1940.0,1
1366,1366,0.831444183454863,0.8,1.0,1.0,333.0,500.0,1.0,1,137.0,1
1367,1367,-0.44153320091739384,-0.4,1.0,0.0,413.0,821.0,0.0,0,1446.0,1
1368,1368,0.17420844854124196,0.2,0.0,0.0,293.0,547.0,0.0,1,2160.0,1
1369,1369,-0.828204396121017,-0.8,0.0,1.0,474.0,913.0,1.0,0,113.0,1
1370,1370,0.2855163244412714,0.3,0.0,0.0,444.0,634.0,0.0,1,722.0,1
1371,1371,-0.6582607952995385,-0.7,0.0,1.0,447.0,987.0,1.0,0,316.0,1
1372,1372,0.005201680232262418,0.0,0.0,0.0,292.0,630.0,0.0,1,2078.0,1
1373,1373,0.7084309698892947,0.7,1.0,1.0,357.0,907.0,1.0,1,356.0,1
1374,1374,0.550863509925981,0.6,0.0,0.0,351.0,940.0,1.0,0,-131.0,0
1375,1375,-0.08058101362117875,-0.1,1.0,0.0,412.0,934.0,0.0,0,1654.0,1
1376,1376,0.2449367077626473,0.2,1.0,1.0,333.0,871.0,1.0,1,246.0,1
1377,1377,-0.5652880793219806,-0.6,1.0,0.0,337.0,938.0,0.0,0,725.0,1
1378,1378,-0.5879012882632696,-0.6,1.0,0.0,340.0,593.0,0.0,0,377.0,1
1379,1379,0.4453039857737394,0.4,0.0,0.0,344.0,531.0,0.0,1,265.0,1
1380,1380,-0.6263707145476554,-0.6,0.0,1.0,379.0,891.0,1.0,0,170.0,1
1381,1381,-0.3364805937298364,-0.3,1.0,0.0,254.0,546.0,0.0,0,2200.0,1
1382,1382,-0.16290928560407592,-0.2,0.0,1.0,452.0,586.0,1.0,0,772.0,1
1383,1383,-0.7476880923441717,-0.7,0.0,1.0,369.0,885.0,1.0,0,166.0,1
1384,1384,0.004016705015186139,0.0,1.0,1.0,411.0,638.0,1.0,1,701.0,1
1385,1385,-0.7166163750930069,-0.7,0.0,1.0,307.0,736.0,1.0,0,277.0,1
1386,1386,-0.5113054827575498,-0.5,1.0,0.0,492.0,631.0,0.0,0,317.0,1
1387,1387,0.21573233553773752,0.2,1.0,1.0,453.0,580.0,1.0,1,407.0,1
1388,1388,-0.3137314805027711,-0.3,0.0,1.0,427.0,617.0,1.0,0,226.0,1
1389,1389,0.46568078584696393,0.5,0.0,0.0,394.0,901.0,0.0,1,195.0,1
1390,1390,-0.40000746877662735,-0.4,1.0,0.0,302.0,544.0,0.0,0,424.0,1
1391,1391,0.09678798951334788,0.1,1.0,1.0,376.0,840.0,1.0,1,464.0,1
1392,1392,0.37487666964670796,0.4,0.0,0.0,332.0,831.0,0.0,1,-373.0,1
1393,1393,0.39444174487746475,0.4,0.0,0.0,378.0,875.0,0.0,1,407.0,1
1394,1394,0.493983968343536,0.5,0.0,0.0,471.0,595.0,0.0,1,184.0,1
1395,1395,-0.8975649391501099,-0.9,1.0,0.0,334.0,631.0,0.0,0,535.0,1
1396,1396,0.2521037653648307,0.3,1.0,1.0,470.0,901.0,1.0,1,209.0,1
1397,1397,-0.1860663679644129,-0.2,0.0,1.0,360.0,964.0,1.0,0,766.0,1
1398,1398,0.4525168153861646,0.5,0.0,0.0,346.0,926.0,1.0,0,-152.0,0
1399,1399,0.30373881868337393,0.3,1.0,1.0,293.0,501.0,1.0,1,76.0,1
1400,1400,0.4441597402834777,0.4,1.0,1.0,389.0,531.0,1.0,1,600.0,1
1401,1401,0.4196876338497443,0.4,0.0,0.0,269.0,824.0,0.0,1,617.0,1
1402,1402,0.7925839889990195,0.8,1.0,1.0,468.0,919.0,1.0,1,-297.0,1
1403,1403,0.46754678443721087,0.5,1.0,1.0,393.0,594.0,1.0,1,83.0,1
1404,1404,0.5814193723419477,0.6,0.0,0.0,437.0,576.0,0.0,1,407.0,1
1405,1405,0.3863662531163844,0.4,0.0,0.0,438.0,678.0,1.0,0,-76.0,0
1406,1406,0.2612162470624343,0.3,1.0,1.0,293.0,715.0,1.0,1,112.0,1
1407,1407,0.09215421449178918,0.1,1.0,1.0,463.0,932.0,1.0,1,695.0,1
1408,1408,-0.6646675640021752,-0.7,1.0,0.0,265.0,731.0,0.0,0,254.0,1
1409,1409,-0.06592542164439263,-0.1,0.0,1.0,346.0,925.0,1.0,0,-401.0,1
1410,1410,0.4627075395284427,0.5,0.0,0.0,312.0,620.0,0.0,1,328.0,1
1411,1411,-0.43381720676736696,-0.4,0.0,1.0,382.0,581.0,1.0,0,867.0,1
1412,1412,-0.5971416068534436,-0.6,0.0,1.0,384.0,634.0,1.0,0,532.0,1
1413,1413,0.04494463266939497,0.0,1.0,1.0,341.0,664.0,1.0,1,605.0,1
1414,1414,-0.39562698238490535,-0.4,0.0,1.0,324.0,692.0,1.0,0,354.0,1
1415,1415,0.5989750934665795,0.6,1.0,1.0,474.0,723.0,1.0,1,223.0,1
1416,1416,-0.16340474557188733,-0.2,0.0,1.0,477.0,811.0,1.0,0,532.0,1
1417,1417,0.5373369566351266,0.5,1.0,1.0,315.0,783.0,1.0,1,152.0,1
1418,1418,-0.0548414527706913,-0.1,0.0,1.0,382.0,595.0,0.0,1,2023.0,0
1419,1419,0.7253216178331218,0.7,1.0,1.0,261.0,864.0,1.0,1,245.0,1
1420,1420,0.027521609594361784,0.0,1.0,1.0,353.0,728.0,1.0,1,1759.0,1
1421,1421,0.36485078454728115,0.4,0.0,0.0,433.0,538.0,0.0,1,239.0,1
1422,1422,-0.6688333047261241,-0.7,0.0,1.0,291.0,908.0,1.0,0,-9.0,1
1423,1423,0.19924515238624452,0.2,1.0,1.0,319.0,690.0,1.0,1,871.0,1
1424,1424,-0.463709476524435,-0.5,0.0,1.0,321.0,544.0,1.0,0,495.0,1
1425,1425,-0.37881195559953174,-0.4,1.0,0.0,277.0,915.0,0.0,0,668.0,1
1426,1426,0.17073983631407852,0.2,1.0,1.0,272.0,668.0,1.0,1,490.0,1
1427,1427,0.7386607815364218,0.7,1.0,1.0,347.0,648.0,1.0,1,185.0,1
1428,1428,0.2471766221409667,0.2,0.0,0.0,275.0,774.0,0.0,1,411.0,1
1429,1429,0.501026926546064,0.5,1.0,1.0,298.0,876.0,1.0,1,-84.0,1
1430,1430,-0.1461363252725898,-0.1,1.0,0.0,250.0,542.0,0.0,0,2208.0,1
1431,1431,0.5288265613163127,0.5,0.0,0.0,318.0,910.0,0.0,1,142.0,1
1432,1432,0.5348647747004373,0.5,0.0,0.0,252.0,642.0,0.0,1,196.0,1
1433,1433,-0.0032052599637895085,-0.0,1.0,0.0,297.0,849.0,1.0,1,1854.0,0
1434,1434,0.05220964191319255,0.1,0.0,0.0,261.0,786.0,1.0,0,1173.0,0
1435,1435,0.7522178688311892,0.8,1.0,1.0,439.0,589.0,1.0,1,132.0,1
1436,1436,-0.32986668559894217,-0.3,1.0,0.0,390.0,685.0,0.0,0,305.0,1
1437,1437,-0.1997879898552738,-0.2,1.0,0.0,270.0,541.0,0.0,0,1689.0,1
1438,1438,-0.5203969157966517,-0.5,0.0,1.0,477.0,736.0,1.0,0,287.0,1
1439,1439,0.5066528952181463,0.5,1.0,1.0,407.0,632.0,1.0,1,111.0,1
1440,1440,0.47979200916305265,0.5,1.0,1.0,344.0,623.0,1.0,1,443.0,1
1441,1441,-0.38351917028440274,-0.4,1.0,0.0,303.0,654.0,0.0,0,893.0,1
1442,1442,0.7660986408262015,0.8,0.0,0.0,484.0,922.0,0.0,1,114.0,1
1443,1443,0.07016501867952318,0.1,1.0,1.0,474.0,773.0,1.0,1,363.0,1
1444,1444,0.8201285991412198,0.8,1.0,1.0,438.0,642.0,1.0,1,120.0,1
1445,1445,-0.04974484564766124,-0.0,0.0,1.0,423.0,982.0,1.0,0,205.0,1
1446,1446,-0.04909037817036832,-0.0,0.0,1.0,290.0,639.0,1.0,0,641.0,1
1447,1447,0.4452231102854741,0.4,1.0,1.0,258.0,929.0,1.0,1,93.0,1
1448,1448,-0.3634573878328742,-0.4,1.0,0.0,376.0,588.0,0.0,0,806.0,1
1449,1449,0.8932618303858039,0.9,0.0,0.0,288.0,651.0,0.0,1,181.0,1
1450,1450,0.3259246710598914,0.3,1.0,1.0,384.0,564.0,1.0,1,452.0,1
1451,1451,0.30992259093247954,0.3,1.0,1.0,359.0,508.0,1.0,1,543.0,1
1452,1452,0.017604739022435312,0.0,1.0,1.0,494.0,766.0,1.0,1,1740.0,1
1453,1453,0.34140567479190975,0.3,1.0,1.0,442.0,620.0,1.0,1,298.0,1
1454,1454,0.4317976387772825,0.4,0.0,0.0,286.0,799.0,0.0,1,345.0,1
1455,1455,0.34466407542934163,0.3,1.0,1.0,392.0,892.0,1.0,1,116.0,1
1456,1456,0.42738766699329356,0.4,1.0,1.0,276.0,829.0,1.0,1,155.0,1
1457,1457,0.31969549611891257,0.3,0.0,0.0,376.0,880.0,0.0,1,354.0,1
1458,1458,-0.3026276132074893,-0.3,1.0,0.0,404.0,740.0,0.0,0,1856.0,1
1459,1459,0.4300262403272873,0.4,1.0,1.0,252.0,605.0,1.0,1,113.0,1
1460,1460,-0.31988069897864324,-0.3,1.0,0.0,263.0,797.0,0.0,0,940.0,1
1461,1461,0.6158136242405589,0.6,1.0,1.0,297.0,794.0,1.0,1,189.0,1
1462,1462,0.004818697208217371,0.0,1.0,1.0,366.0,512.0,1.0,1,-8.0,1
1463,1463,-0.8818094568485212,-0.9,1.0,0.0,449.0,946.0,0.0,0,395.0,1
1464,1464,0.15866700420450053,0.2,0.0,0.0,336.0,586.0,0.0,1,1228.0,1
1465,1465,0.7703306698450642,0.8,1.0,1.0,476.0,750.0,1.0,1,74.0,1
1466,1466,-0.21509731346521266,-0.2,1.0,0.0,395.0,706.0,0.0,0,1899.0,1
1467,1467,-0.2692249451796359,-0.3,1.0,0.0,372.0,939.0,0.0,0,1689.0,1
1468,1468,-0.895520662878127,-0.9,0.0,1.0,317.0,544.0,1.0,0,99.0,1
1469,1469,-0.32438292502669885,-0.3,1.0,0.0,317.0,525.0,0.0,0,1358.0,1
1470,1470,0.582655781850384,0.6,0.0,0.0,389.0,652.0,0.0,1,149.0,1
1471,1471,0.11385112887338444,0.1,1.0,1.0,442.0,522.0,1.0,1,1216.0,1
1472,1472,0.7159948394630508,0.7,0.0,0.0,302.0,730.0,0.0,1,178.0,1
1473,1473,0.7828066314543661,0.8,0.0,0.0,304.0,971.0,0.0,1,215.0,1
1474,1474,0.4001091887276714,0.4,1.0,1.0,296.0,536.0,1.0,1,578.0,1
1475,1475,-0.6546305227151784,-0.7,1.0,0.0,276.0,844.0,0.0,0,240.0,1
1476,1476,-0.546882307621074,-0.5,0.0,1.0,363.0,668.0,1.0,0,169.0,1
1477,1477,-0.4285223182428269,-0.4,0.0,1.0,403.0,992.0,1.0,0,515.0,1
1478,1478,0.8704693706871801,0.9,1.0,1.0,255.0,691.0,1.0,1,114.0,1
1479,1479,-0.45776424003175,-0.5,1.0,0.0,371.0,521.0,0.0,0,578.0,1
1480,1480,-0.5963840570241458,-0.6,0.0,1.0,460.0,505.0,1.0,0,265.0,1
1481,1481,0.6248347652862866,0.6,0.0,0.0,365.0,584.0,0.0,1,281.0,1
1482,1482,-0.2826936272626437,-0.3,1.0,0.0,431.0,988.0,0.0,0,1281.0,1
1483,1483,-0.271547236388871,-0.3,0.0,1.0,374.0,916.0,1.0,0,300.0,1
1484,1484,0.41745385026577975,0.4,1.0,1.0,431.0,757.0,1.0,1,262.0,1
1485,1485,-0.8582550470354834,-0.9,1.0,0.0,472.0,952.0,0.0,0,286.0,1
1486,1486,-0.5379870171778596,-0.5,0.0,1.0,441.0,978.0,1.0,0,-79.0,1
1487,1487,-0.4369543004154086,-0.4,1.0,0.0,493.0,638.0,0.0,0,1399.0,1
1488,1488,-0.6142710565162549,-0.6,0.0,1.0,294.0,725.0,1.0,0,241.0,1
1489,1489,-0.03903282305337774,-0.0,0.0,1.0,460.0,737.0,1.0,0,823.0,1
1490,1490,-0.0499989882404307,-0.0,0.0,1.0,459.0,664.0,1.0,0,7.0,1
