,trial,coherence,coherence_bin,green_side,correct_side,target_onset,checker_onset,decision,green_decision,decision_time,correct_decision
0,0,-0.3398292029545772,-0.3,1.0,0.0,318.0,744.0,0.0,0,1938.0,1
1,1,0.23085680461525204,0.2,0.0,0.0,292.0,670.0,0.0,1,2038.0,1
2,2,0.8413412424275059,0.8,0.0,0.0,436.0,896.0,0.0,1,1668.0,1
3,3,0.15094931433430359,0.2,1.0,1.0,358.0,549.0,0.0,0,2093.0,0
4,4,-0.5124705238075806,-0.5,0.0,1.0,342.0,557.0,0.0,1,2101.0,0
5,5,0.09422152334857459,0.1,1.0,1.0,292.0,540.0,0.0,0,2168.0,0
6,6,-0.781829504238438,-0.8,0.0,1.0,344.0,738.0,0.0,1,1918.0,0
7,7,-0.4510706528693658,-0.5,0.0,1.0,468.0,836.0,0.0,1,1696.0,0
8,8,-0.8328888325407455,-0.8,0.0,1.0,316.0,968.0,0.0,1,1716.0,0
9,9,0.2978616712958094,0.3,0.0,0.0,457.0,715.0,0.0,1,1828.0,1
10,10,0.6548359072360704,0.7,0.0,0.0,492.0,566.0,0.0,1,1942.0,1
11,11,-0.10701957158939412,-0.1,0.0,1.0,456.0,564.0,0.0,1,1980.0,0
12,12,0.34018589450499814,0.3,0.0,0.0,404.0,517.0,0.0,1,-911.0,1
13,13,-0.6035088312661485,-0.6,0.0,1.0,340.0,673.0,1.0,0,-963.0,1
14,14,0.37738635909008955,0.4,1.0,1.0,356.0,912.0,0.0,0,1732.0,0
15,15,0.3054848268642122,0.3,1.0,1.0,319.0,897.0,0.0,0,1784.0,0
16,16,0.4215081603430536,0.4,1.0,1.0,343.0,809.0,0.0,0,1848.0,0
17,17,0.6947759759571336,0.7,1.0,1.0,286.0,958.0,0.0,0,1756.0,0
18,18,0.3246518157610948,0.3,0.0,0.0,376.0,878.0,0.0,1,1746.0,1
19,19,0.19827667545880712,0.2,0.0,0.0,485.0,694.0,0.0,1,-1149.0,1
20,20,-0.015474770585895525,-0.0,0.0,1.0,443.0,635.0,0.0,1,1922.0,0
21,21,0.19277525795042505,0.2,1.0,1.0,380.0,954.0,0.0,0,1666.0,0
22,22,0.22551427863317464,0.2,0.0,0.0,405.0,860.0,0.0,1,1735.0,1
23,23,-0.11933886874197519,-0.1,0.0,1.0,454.0,676.0,0.0,1,1870.0,0
24,24,0.2598498290071264,0.3,1.0,1.0,352.0,945.0,0.0,0,1703.0,0
25,25,0.8389031977083484,0.8,0.0,0.0,287.0,990.0,0.0,1,1723.0,1
26,26,-0.4669319789989653,-0.5,0.0,1.0,339.0,811.0,0.0,1,1850.0,0
27,27,0.4553277130797798,0.5,0.0,0.0,298.0,642.0,0.0,1,2060.0,1
28,28,0.2956807233661888,0.3,0.0,0.0,268.0,856.0,0.0,1,1876.0,1
29,29,0.8474062522905691,0.8,1.0,1.0,430.0,996.0,0.0,0,1574.0,0
30,30,0.10086085338798567,0.1,0.0,0.0,265.0,524.0,0.0,1,2211.0,1
31,31,-0.22917931815548054,-0.2,0.0,1.0,279.0,688.0,0.0,1,2033.0,0
32,32,0.7503588007098015,0.8,1.0,1.0,360.0,912.0,0.0,0,1728.0,0
33,33,0.055286940828925046,0.1,0.0,0.0,413.0,663.0,0.0,1,1924.0,1
34,34,0.5689449438769135,0.6,0.0,0.0,256.0,681.0,0.0,1,2063.0,1
35,35,0.09024820097669162,0.1,1.0,1.0,349.0,796.0,0.0,0,1855.0,0
36,36,0.08982925512720852,0.1,0.0,0.0,277.0,741.0,0.0,1,1982.0,1
37,37,0.44555178192428746,0.4,0.0,0.0,320.0,539.0,0.0,1,2141.0,1
38,38,0.4574278316700938,0.5,1.0,1.0,324.0,880.0,0.0,0,1796.0,0
39,39,0.6981068234694449,0.7,0.0,0.0,339.0,892.0,0.0,1,1769.0,1
40,40,-0.48119981153965385,-0.5,1.0,0.0,414.0,914.0,0.0,0,1672.0,1
41,41,0.7652149101711055,0.8,1.0,1.0,418.0,568.0,0.0,0,2014.0,0
42,42,0.588096891637946,0.6,1.0,1.0,446.0,726.0,0.0,0,1828.0,0
43,43,-0.5539110178737152,-0.6,0.0,1.0,446.0,570.0,0.0,1,1984.0,0
44,44,0.1977131494018588,0.2,1.0,1.0,292.0,887.0,0.0,0,1821.0,0
45,45,0.06766281994448875,0.1,0.0,0.0,384.0,532.0,0.0,1,2084.0,1
46,46,-0.06839850933527836,-0.1,1.0,0.0,424.0,646.0,0.0,0,1930.0,1
47,47,0.8945881640037868,0.9,0.0,0.0,303.0,720.0,0.0,1,1977.0,1
48,48,0.13804372358824135,0.1,1.0,1.0,252.0,813.0,0.0,0,1935.0,0
49,49,-0.7845670261580003,-0.8,0.0,1.0,274.0,937.0,0.0,1,1789.0,0
50,50,-0.4586928228809622,-0.5,0.0,1.0,450.0,837.0,0.0,1,1713.0,0
51,51,-0.5211121974283124,-0.5,0.0,1.0,456.0,763.0,0.0,1,1781.0,0
52,52,0.036088915872124594,0.0,0.0,0.0,475.0,502.0,0.0,1,2023.0,1
53,53,-0.31574934784171604,-0.3,0.0,1.0,436.0,557.0,0.0,1,2007.0,0
54,54,-0.8922151012816056,-0.9,1.0,0.0,403.0,949.0,0.0,0,1648.0,1
55,55,-0.2379205710686988,-0.2,0.0,1.0,299.0,988.0,0.0,1,1713.0,0
56,56,0.009372142066224387,0.0,0.0,0.0,310.0,735.0,0.0,1,1955.0,1
57,57,0.04896698611735284,0.0,0.0,0.0,362.0,939.0,0.0,1,1699.0,1
58,58,-0.3061285492088629,-0.3,1.0,0.0,423.0,548.0,0.0,0,2029.0,1
59,59,-0.6067928179095665,-0.6,0.0,1.0,418.0,772.0,0.0,1,1810.0,0
60,60,0.6563910287295155,0.7,1.0,1.0,453.0,593.0,0.0,0,1954.0,0
61,61,-0.6122324805563759,-0.6,1.0,0.0,438.0,911.0,0.0,0,1651.0,1
62,62,0.3149980110712737,0.3,1.0,1.0,306.0,985.0,0.0,0,1709.0,0
63,63,-0.368982232049325,-0.4,1.0,0.0,374.0,519.0,1.0,1,-873.0,0
64,64,-0.33493603774688785,-0.3,0.0,1.0,353.0,517.0,0.0,1,2130.0,0
65,65,-0.838581586331149,-0.8,0.0,1.0,437.0,594.0,1.0,0,-1031.0,1
66,66,-0.5360578169074389,-0.5,0.0,1.0,313.0,577.0,0.0,1,2110.0,0
67,67,-0.5696570223213169,-0.6,0.0,1.0,401.0,647.0,1.0,0,-978.0,1
68,68,0.49212465867687294,0.5,0.0,0.0,268.0,871.0,0.0,1,1861.0,1
69,69,0.8533116589207247,0.9,1.0,1.0,455.0,892.0,0.0,0,1653.0,0
70,70,-0.42867179044484854,-0.4,0.0,1.0,375.0,709.0,0.0,1,1916.0,0
71,71,0.7808573475677573,0.8,0.0,0.0,446.0,607.0,0.0,1,1947.0,1
72,72,0.34160938102890326,0.3,1.0,1.0,337.0,967.0,0.0,0,1696.0,0
73,73,0.27379366073553546,0.3,1.0,1.0,259.0,723.0,0.0,0,2018.0,0
74,74,0.4229146818511672,0.4,0.0,0.0,303.0,792.0,0.0,1,1905.0,1
75,75,0.20010574328408837,0.2,0.0,0.0,447.0,834.0,0.0,1,1719.0,1
76,76,0.04136784682614025,0.0,1.0,1.0,288.0,538.0,0.0,0,2174.0,0
77,77,-0.5223000805825201,-0.5,0.0,1.0,455.0,915.0,0.0,1,1630.0,0
78,78,-0.6831817802578959,-0.7,1.0,0.0,386.0,658.0,0.0,0,1956.0,1
79,79,0.042426559088510674,0.0,1.0,1.0,460.0,569.0,1.0,1,-1029.0,1
80,80,-0.5961796398570227,-0.6,0.0,1.0,360.0,690.0,0.0,1,1950.0,0
81,81,0.21288738971598098,0.2,0.0,0.0,358.0,534.0,0.0,1,2108.0,1
82,82,0.25985060248088343,0.3,1.0,1.0,489.0,765.0,0.0,0,1746.0,0
83,83,-0.2577105130859738,-0.3,1.0,0.0,470.0,967.0,0.0,0,1563.0,1
84,84,0.3345247143924276,0.3,1.0,1.0,428.0,710.0,0.0,0,1862.0,0
85,85,0.169888495199212,0.2,0.0,0.0,297.0,847.0,0.0,1,1856.0,1
86,86,-0.4345848053767508,-0.4,0.0,1.0,318.0,789.0,0.0,1,1893.0,0
87,87,-0.1298700036679452,-0.1,0.0,1.0,298.0,991.0,0.0,1,1711.0,0
88,88,0.7884245157811217,0.8,0.0,0.0,351.0,760.0,0.0,1,1889.0,1
89,89,0.2138907840735801,0.2,0.0,0.0,452.0,809.0,0.0,1,1739.0,1
90,90,-0.40979094062302507,-0.4,1.0,0.0,482.0,750.0,0.0,0,1768.0,1
91,91,0.17843278799734563,0.2,0.0,0.0,482.0,803.0,0.0,1,1715.0,1
92,92,-0.828165661783522,-0.8,1.0,0.0,343.0,529.0,0.0,0,2128.0,1
93,93,-0.833142859430054,-0.8,1.0,0.0,438.0,946.0,0.0,0,1616.0,1
94,94,0.34554325096466265,0.3,0.0,0.0,395.0,602.0,0.0,1,2003.0,1
95,95,0.6814925306960559,0.7,1.0,1.0,298.0,837.0,0.0,0,1865.0,0
96,96,0.69020163014457,0.7,0.0,0.0,461.0,776.0,0.0,1,1763.0,1
97,97,0.229721244728761,0.2,0.0,0.0,250.0,992.0,0.0,1,1758.0,1
98,98,-0.5658389436578534,-0.6,0.0,1.0,335.0,682.0,0.0,1,1983.0,0
99,99,0.15609221731287437,0.2,0.0,0.0,477.0,592.0,0.0,1,1931.0,1
100,100,0.6449645591048184,0.6,0.0,0.0,360.0,977.0,0.0,1,1663.0,1
101,101,0.2618598394798951,0.3,0.0,0.0,319.0,585.0,0.0,1,2096.0,1
102,102,0.6597918732422149,0.7,0.0,0.0,367.0,675.0,0.0,1,1958.0,1
103,103,-0.01474813880952175,-0.0,1.0,0.0,367.0,965.0,0.0,0,1668.0,1
104,104,-0.1696351408343596,-0.2,1.0,0.0,256.0,878.0,1.0,1,-1054.0,0
105,105,-0.5633502458564184,-0.6,0.0,1.0,391.0,548.0,0.0,1,2061.0,0
106,106,0.09727967212095834,0.1,0.0,0.0,311.0,594.0,0.0,1,2095.0,1
107,107,-0.013330597467448135,-0.0,0.0,1.0,314.0,924.0,0.0,1,1762.0,0
108,108,0.5418927682740354,0.5,1.0,1.0,262.0,988.0,0.0,0,1750.0,0
109,109,-0.3773876022650977,-0.4,1.0,0.0,350.0,673.0,1.0,1,-993.0,0
110,110,-0.5719986939582687,-0.6,1.0,0.0,336.0,909.0,0.0,0,1755.0,1
111,111,0.32197920820347103,0.3,1.0,1.0,471.0,974.0,0.0,0,1555.0,0
112,112,0.8196905955032169,0.8,0.0,0.0,264.0,902.0,0.0,1,-1136.0,1
113,113,0.28988141521442345,0.3,1.0,1.0,476.0,959.0,0.0,0,1565.0,0
114,114,0.10258591576294862,0.1,0.0,0.0,490.0,536.0,0.0,1,1974.0,1
115,115,-0.48427258548020524,-0.5,1.0,0.0,424.0,554.0,0.0,0,2022.0,1
116,116,0.40545626278855107,0.4,1.0,1.0,332.0,574.0,0.0,0,2094.0,0
117,117,0.14830227340540547,0.1,1.0,1.0,358.0,909.0,1.0,1,-1057.0,1
118,118,-0.06804447154316329,-0.1,1.0,0.0,361.0,747.0,0.0,0,1892.0,1
119,119,0.1653746973808944,0.2,1.0,1.0,435.0,710.0,0.0,0,1855.0,0
120,120,-0.5836753770235965,-0.6,1.0,0.0,428.0,898.0,0.0,0,1674.0,1
121,121,-0.8402793434728493,-0.8,0.0,1.0,356.0,984.0,0.0,1,1660.0,0
122,122,0.6316212283572346,0.6,1.0,1.0,359.0,872.0,0.0,0,1769.0,0
123,123,-0.18862034449002374,-0.2,0.0,1.0,446.0,593.0,0.0,1,1961.0,0
124,124,0.14199770484274044,0.1,1.0,1.0,486.0,642.0,0.0,0,1872.0,0
125,125,-0.12497995337089562,-0.1,0.0,1.0,351.0,948.0,0.0,1,1701.0,0
126,126,-0.07004146831694724,-0.1,1.0,0.0,457.0,677.0,1.0,1,-1094.0,0
127,127,-0.7091711758562218,-0.7,1.0,0.0,445.0,584.0,0.0,0,1971.0,1
128,128,0.5694365927691508,0.6,0.0,0.0,393.0,752.0,0.0,1,1855.0,1
129,129,-0.3340979975316182,-0.3,1.0,0.0,466.0,630.0,0.0,0,1904.0,1
130,130,0.5433932111500069,0.5,1.0,1.0,484.0,542.0,0.0,0,1974.0,0
131,131,-0.004711797352436209,-0.0,0.0,1.0,284.0,774.0,0.0,1,1942.0,0
132,132,0.11497926295956173,0.1,0.0,0.0,409.0,553.0,0.0,1,2038.0,1
133,133,-0.5629768654895831,-0.6,0.0,1.0,278.0,781.0,0.0,1,1941.0,0
134,134,0.8574156838329833,0.9,0.0,0.0,413.0,799.0,0.0,1,1788.0,1
135,135,0.5101586001755803,0.5,0.0,0.0,266.0,571.0,0.0,1,2163.0,1
136,136,-0.49290924774498984,-0.5,1.0,0.0,406.0,629.0,1.0,1,-935.0,0
137,137,0.21393582645727738,0.2,0.0,0.0,348.0,792.0,0.0,1,1860.0,1
138,138,0.5769407656953286,0.6,1.0,1.0,316.0,688.0,0.0,0,1996.0,0
139,139,-0.4625435025387233,-0.5,1.0,0.0,286.0,628.0,0.0,0,2086.0,1
140,140,-0.0500141562388724,-0.1,1.0,0.0,305.0,861.0,0.0,0,1834.0,1
141,141,-0.1401425741356802,-0.1,0.0,1.0,433.0,978.0,1.0,0,-1361.0,1
142,142,0.45427687963994445,0.5,1.0,1.0,291.0,885.0,0.0,0,1824.0,0
143,143,-0.7285765687885054,-0.7,0.0,1.0,478.0,511.0,0.0,1,2011.0,0
144,144,-0.3118578043249297,-0.3,0.0,1.0,496.0,546.0,0.0,1,1958.0,0
145,145,0.6048083250588462,0.6,0.0,0.0,445.0,650.0,0.0,1,1905.0,1
146,146,0.16028670499739228,0.2,0.0,0.0,281.0,984.0,0.0,1,1735.0,1
147,147,0.5155817984130512,0.5,0.0,0.0,428.0,703.0,0.0,1,1869.0,1
148,148,0.4810211438071549,0.5,0.0,0.0,471.0,990.0,0.0,1,1539.0,1
149,149,0.6641405051436539,0.7,1.0,1.0,333.0,781.0,0.0,0,1886.0,0
150,150,-0.6588869337239164,-0.7,0.0,1.0,372.0,722.0,0.0,1,1906.0,0
151,151,-0.48423050187734773,-0.5,0.0,1.0,400.0,894.0,0.0,1,1706.0,0
152,152,-0.4494287578955802,-0.4,0.0,1.0,408.0,744.0,0.0,1,1848.0,0
153,153,-0.43691010403855357,-0.4,1.0,0.0,374.0,938.0,0.0,0,1688.0,1
154,154,0.15913522161666982,0.2,1.0,1.0,401.0,943.0,0.0,0,1656.0,0
155,155,0.8067709314502606,0.8,0.0,0.0,488.0,724.0,0.0,1,1788.0,1
156,156,-0.18403117523116375,-0.2,0.0,1.0,283.0,581.0,0.0,1,2136.0,0
157,157,0.571780636696522,0.6,0.0,0.0,303.0,600.0,0.0,1,2097.0,1
158,158,-0.7913327204983089,-0.8,0.0,1.0,470.0,577.0,0.0,1,1953.0,0
159,159,0.36886494272595105,0.4,0.0,0.0,315.0,762.0,0.0,1,1923.0,1
160,160,0.3908653813250521,0.4,1.0,1.0,397.0,885.0,0.0,0,1718.0,0
161,161,0.2063598045098186,0.2,1.0,1.0,403.0,878.0,0.0,0,1719.0,0
162,162,0.7032662973189848,0.7,1.0,1.0,348.0,760.0,0.0,0,1892.0,0
163,163,0.5464024460461833,0.5,1.0,1.0,402.0,745.0,0.0,0,1853.0,0
164,164,0.6344200364755138,0.6,1.0,1.0,337.0,587.0,0.0,0,2076.0,0
165,165,-0.6650644930309058,-0.7,1.0,0.0,439.0,593.0,0.0,0,1968.0,1
166,166,-0.014234339200481227,-0.0,0.0,1.0,364.0,698.0,0.0,1,1938.0,0
167,167,-0.4181840081212529,-0.4,0.0,1.0,494.0,945.0,0.0,1,1561.0,0
168,168,-0.3376267347473334,-0.3,0.0,1.0,472.0,794.0,0.0,1,1734.0,0
169,169,-0.08170890779863416,-0.1,1.0,0.0,271.0,805.0,0.0,0,1924.0,1
170,170,0.6698658061075317,0.7,1.0,1.0,332.0,900.0,0.0,0,1768.0,0
171,171,0.3231405577910641,0.3,1.0,1.0,326.0,909.0,0.0,0,1765.0,0
172,172,-0.7474719079600202,-0.7,0.0,1.0,402.0,523.0,0.0,1,2075.0,0
173,173,0.6357241659912484,0.6,0.0,0.0,447.0,938.0,0.0,1,1615.0,1
174,174,0.3776120929817187,0.4,0.0,0.0,379.0,725.0,0.0,1,1896.0,1
175,175,0.8410776368457001,0.8,0.0,0.0,480.0,566.0,0.0,1,1954.0,1
176,176,0.44177484939436373,0.4,0.0,0.0,443.0,623.0,0.0,1,1934.0,1
177,177,-0.1779938094306439,-0.2,1.0,0.0,357.0,559.0,0.0,0,2084.0,1
178,178,0.22951893741920426,0.2,1.0,1.0,430.0,746.0,0.0,0,1824.0,0
179,179,0.613770637919869,0.6,1.0,1.0,279.0,862.0,0.0,0,1859.0,0
180,180,-0.33239719652426825,-0.3,0.0,1.0,316.0,729.0,0.0,1,1955.0,0
181,181,-0.12941885553303034,-0.1,0.0,1.0,429.0,903.0,0.0,1,1668.0,0
182,182,0.5823225151508594,0.6,0.0,0.0,388.0,804.0,0.0,1,1808.0,1
183,183,0.15398884449838535,0.2,1.0,1.0,315.0,664.0,0.0,0,2021.0,0
184,184,0.7520890452760368,0.8,0.0,0.0,498.0,891.0,0.0,1,1611.0,1
185,185,-0.4368127696755508,-0.4,0.0,1.0,473.0,768.0,0.0,1,1759.0,0
186,186,-0.3835263039864528,-0.4,1.0,0.0,405.0,724.0,0.0,0,1871.0,1
187,187,-0.1970762092942131,-0.2,1.0,0.0,355.0,900.0,0.0,0,1745.0,1
188,188,-0.7458873577028885,-0.7,1.0,0.0,284.0,986.0,0.0,0,1730.0,1
189,189,-0.4315285056798683,-0.4,1.0,0.0,459.0,635.0,0.0,0,1906.0,1
190,190,-0.6699391316185657,-0.7,1.0,0.0,369.0,839.0,1.0,1,-1198.0,0
191,191,-0.28840260646402527,-0.3,1.0,0.0,396.0,874.0,0.0,0,1730.0,1
192,192,0.5814653104858946,0.6,0.0,0.0,473.0,914.0,0.0,1,1613.0,1
193,193,-0.15429118993643898,-0.2,0.0,1.0,290.0,907.0,0.0,1,-1107.0,0
194,194,0.6706108405256715,0.7,1.0,1.0,346.0,794.0,1.0,1,-1120.0,1
195,195,-0.5155310411734342,-0.5,0.0,1.0,391.0,626.0,0.0,1,1983.0,0
196,196,0.7480009242083633,0.7,0.0,0.0,452.0,973.0,0.0,1,1575.0,1
197,197,0.12255041186396454,0.1,0.0,0.0,273.0,565.0,0.0,1,2162.0,1
198,198,-0.42959982649994655,-0.4,1.0,0.0,257.0,906.0,0.0,0,1837.0,1
199,199,-0.13261844742518125,-0.1,1.0,0.0,412.0,894.0,0.0,0,1694.0,1
200,200,0.736468580282634,0.7,1.0,1.0,471.0,529.0,0.0,0,2000.0,0
201,201,0.8725558979948492,0.9,1.0,1.0,371.0,926.0,0.0,0,1703.0,0
202,202,-0.8790127741030994,-0.9,1.0,0.0,462.0,939.0,0.0,0,1599.0,1
203,203,-0.04202805510059704,-0.0,0.0,1.0,398.0,792.0,0.0,1,1810.0,0
204,204,-0.528631052371571,-0.5,1.0,0.0,405.0,686.0,0.0,0,1909.0,1
205,205,-0.629234537560314,-0.6,1.0,0.0,455.0,742.0,0.0,0,1803.0,1
206,206,-0.3587302601281738,-0.4,0.0,1.0,386.0,576.0,0.0,1,2038.0,0
207,207,0.5947243829330341,0.6,1.0,1.0,359.0,781.0,1.0,1,-1050.0,1
208,208,-0.8701776938681206,-0.9,0.0,1.0,275.0,772.0,0.0,1,1953.0,0
209,209,-0.5446039623786678,-0.5,1.0,0.0,360.0,859.0,0.0,0,1781.0,1
210,210,0.4886491107428229,0.5,0.0,0.0,333.0,562.0,0.0,1,2105.0,1
211,211,0.4340680178318631,0.4,1.0,1.0,309.0,776.0,0.0,0,1915.0,0
212,212,-0.8229019087798007,-0.8,0.0,1.0,467.0,694.0,0.0,1,1839.0,0
213,213,0.05399210828698997,0.1,1.0,1.0,258.0,572.0,0.0,0,2170.0,0
214,214,-0.5557141899578115,-0.6,0.0,1.0,286.0,602.0,0.0,1,2112.0,0
215,215,0.3337149998376897,0.3,1.0,1.0,430.0,768.0,0.0,0,1802.0,0
216,216,-0.08623891333307143,-0.1,1.0,0.0,439.0,836.0,0.0,0,1725.0,1
217,217,-0.7801182018971818,-0.8,0.0,1.0,463.0,743.0,0.0,1,1794.0,0
218,218,0.5985164922190213,0.6,1.0,1.0,409.0,585.0,0.0,0,2006.0,0
219,219,0.805777844253145,0.8,0.0,0.0,405.0,530.0,0.0,1,2065.0,1
220,220,0.11767697643169928,0.1,0.0,0.0,457.0,552.0,0.0,1,1991.0,1
221,221,-0.8466451420105867,-0.8,1.0,0.0,259.0,674.0,0.0,0,2067.0,1
222,222,0.8525769286594748,0.9,1.0,1.0,499.0,534.0,0.0,0,1967.0,0
223,223,0.0217011324791323,0.0,1.0,1.0,385.0,791.0,0.0,0,-1126.0,0
224,224,0.40762504157184865,0.4,1.0,1.0,488.0,939.0,0.0,0,1573.0,0
225,225,-0.6722640972450693,-0.7,0.0,1.0,476.0,501.0,0.0,1,2023.0,0
226,226,0.7792748111197195,0.8,1.0,1.0,475.0,895.0,0.0,0,1630.0,0
227,227,-0.1542642005048951,-0.2,1.0,0.0,316.0,726.0,0.0,0,1958.0,1
228,228,0.00040340253201198717,0.0,0.0,0.0,364.0,863.0,0.0,1,1773.0,1
229,229,0.11482306175416224,0.1,1.0,1.0,357.0,917.0,0.0,0,1726.0,0
230,230,-0.848303870693872,-0.8,0.0,1.0,356.0,514.0,0.0,1,2130.0,0
231,231,-0.7801377021797319,-0.8,1.0,0.0,476.0,506.0,0.0,0,2018.0,1
232,232,-0.15971944808466776,-0.2,0.0,1.0,320.0,793.0,0.0,1,-1093.0,0
233,233,-0.43657052901736587,-0.4,0.0,1.0,268.0,984.0,0.0,1,1748.0,0
234,234,0.38797605435641513,0.4,1.0,1.0,496.0,767.0,0.0,0,1737.0,0
235,235,-0.2782595474512335,-0.3,1.0,0.0,411.0,520.0,0.0,0,2069.0,1
236,236,0.12769281998375648,0.1,0.0,0.0,272.0,576.0,0.0,1,2152.0,1
237,237,-0.3708583548423554,-0.4,1.0,0.0,465.0,592.0,0.0,0,1943.0,1
238,238,0.37309260814637624,0.4,1.0,1.0,457.0,648.0,0.0,0,1895.0,0
239,239,0.7586932994764716,0.8,0.0,0.0,376.0,743.0,0.0,1,1881.0,1
240,240,0.39763354737479906,0.4,1.0,1.0,387.0,683.0,0.0,0,1930.0,0
241,241,0.15112170713891004,0.2,1.0,1.0,372.0,567.0,0.0,0,2061.0,0
242,242,-0.6491900311597494,-0.6,1.0,0.0,476.0,915.0,0.0,0,1609.0,1
243,243,0.013945008164382044,0.0,0.0,0.0,263.0,597.0,0.0,1,-820.0,1
244,244,-0.2671486618959835,-0.3,0.0,1.0,380.0,688.0,0.0,1,1932.0,0
245,245,-0.6920620412207146,-0.7,1.0,0.0,405.0,769.0,0.0,0,1826.0,1
246,246,-0.6315003268437986,-0.6,0.0,1.0,391.0,737.0,0.0,1,-1118.0,0
247,247,-0.18837467749827252,-0.2,1.0,0.0,269.0,506.0,1.0,1,-715.0,0
248,248,-0.3055596330017478,-0.3,0.0,1.0,428.0,714.0,0.0,1,1858.0,0
249,249,-0.23248765722682885,-0.2,1.0,0.0,310.0,676.0,0.0,0,2014.0,1
250,250,-0.6356677415174078,-0.6,0.0,1.0,468.0,516.0,0.0,1,2016.0,0
251,251,-0.26821220159986314,-0.3,1.0,0.0,425.0,711.0,0.0,0,1864.0,1
252,252,0.5004797257920722,0.5,1.0,1.0,448.0,903.0,0.0,0,1649.0,0
253,253,-0.34892085145473084,-0.3,1.0,0.0,263.0,984.0,0.0,0,1753.0,1
254,254,0.23113861792971668,0.2,1.0,1.0,375.0,851.0,0.0,0,1774.0,0
255,255,0.6671414193626862,0.7,0.0,0.0,440.0,502.0,0.0,1,2058.0,1
256,256,-0.576649506936471,-0.6,1.0,0.0,359.0,818.0,0.0,0,1823.0,1
257,257,0.6192124542108354,0.6,0.0,0.0,447.0,960.0,0.0,1,1593.0,1
258,258,-0.8743009526822508,-0.9,1.0,0.0,387.0,551.0,0.0,0,2062.0,1
259,259,-0.38325779927543924,-0.4,0.0,1.0,414.0,658.0,0.0,1,1928.0,0
260,260,-0.0832467632601932,-0.1,0.0,1.0,427.0,636.0,0.0,1,1937.0,0
261,261,0.17215688435175436,0.2,1.0,1.0,341.0,632.0,0.0,0,2027.0,0
262,262,-0.10542421908928012,-0.1,1.0,0.0,493.0,681.0,0.0,0,1826.0,1
263,263,0.014072483251826973,0.0,1.0,1.0,254.0,945.0,0.0,0,1801.0,0
264,264,0.844292272048056,0.8,0.0,0.0,341.0,715.0,0.0,1,1944.0,1
265,265,-0.28648880726110626,-0.3,0.0,1.0,483.0,511.0,1.0,0,-914.0,1
266,266,-0.2395609934389452,-0.2,1.0,0.0,462.0,599.0,0.0,0,1939.0,1
267,267,0.6155415381875035,0.6,0.0,0.0,438.0,704.0,0.0,1,1858.0,1
268,268,0.24401102281817522,0.2,0.0,0.0,296.0,872.0,0.0,1,1832.0,1
269,269,0.2866040974386662,0.3,0.0,0.0,396.0,889.0,0.0,1,1715.0,1
270,270,0.17369797338663095,0.2,0.0,0.0,485.0,550.0,0.0,1,1965.0,1
271,271,-0.15320987292891386,-0.2,0.0,1.0,458.0,664.0,0.0,1,1878.0,0
272,272,-0.5189125351731119,-0.5,1.0,0.0,424.0,616.0,0.0,0,1960.0,1
273,273,0.29668610521594563,0.3,1.0,1.0,351.0,978.0,0.0,0,1671.0,0
274,274,0.0011920403317507988,0.0,1.0,1.0,339.0,688.0,0.0,0,1973.0,0
275,275,0.545428614196262,0.5,1.0,1.0,250.0,826.0,0.0,0,1924.0,0
276,276,-0.708839062646577,-0.7,1.0,0.0,422.0,895.0,0.0,0,1683.0,1
277,277,-0.5760620837473704,-0.6,1.0,0.0,421.0,730.0,0.0,0,1849.0,1
278,278,-0.412979741487867,-0.4,1.0,0.0,497.0,598.0,0.0,0,1905.0,1
279,279,0.23045200830422397,0.2,0.0,0.0,326.0,757.0,0.0,1,1917.0,1
280,280,-0.1665026178280652,-0.2,0.0,1.0,272.0,785.0,0.0,1,1943.0,0
281,281,0.04140398200663731,0.0,0.0,0.0,252.0,879.0,0.0,1,1869.0,1
282,282,0.06303584449465793,0.1,1.0,1.0,297.0,818.0,0.0,0,1885.0,0
283,283,-0.6528196400425839,-0.7,1.0,0.0,309.0,985.0,0.0,0,1706.0,1
284,284,0.8707006879701037,0.9,0.0,0.0,419.0,726.0,0.0,1,1855.0,1
285,285,-0.41036925695322646,-0.4,1.0,0.0,286.0,558.0,0.0,0,2156.0,1
286,286,0.4457307688858517,0.4,1.0,1.0,368.0,881.0,0.0,0,1751.0,0
287,287,0.5254804233776394,0.5,0.0,0.0,487.0,897.0,0.0,1,1616.0,1
288,288,-0.8617554191418567,-0.9,1.0,0.0,332.0,841.0,0.0,0,1827.0,1
289,289,-0.2633998593677819,-0.3,0.0,1.0,314.0,624.0,0.0,1,2062.0,0
290,290,-0.14669372886769838,-0.1,1.0,0.0,263.0,833.0,0.0,0,1904.0,1
291,291,-0.444622770156919,-0.4,1.0,0.0,294.0,801.0,0.0,0,1905.0,1
292,292,0.8661567579446764,0.9,1.0,1.0,441.0,692.0,0.0,0,1867.0,0
293,293,-0.04076213260507455,-0.0,1.0,0.0,431.0,600.0,0.0,0,1969.0,1
294,294,0.5280723409634408,0.5,0.0,0.0,291.0,769.0,0.0,1,1940.0,1
295,295,-0.4804980155326873,-0.5,1.0,0.0,446.0,898.0,0.0,0,1656.0,1
296,296,0.7545273355663163,0.8,0.0,0.0,408.0,860.0,0.0,1,1732.0,1
297,297,-0.7077902723872256,-0.7,0.0,1.0,330.0,932.0,0.0,1,1738.0,0
298,298,0.46496436311230427,0.5,1.0,1.0,450.0,904.0,0.0,0,-1314.0,0
299,299,-0.5611287012576636,-0.6,1.0,0.0,379.0,944.0,0.0,0,1677.0,1
300,300,-0.8491354318263217,-0.8,1.0,0.0,335.0,943.0,0.0,0,1722.0,1
301,301,-0.21279391905422884,-0.2,0.0,1.0,326.0,582.0,0.0,1,2092.0,0
302,302,0.4044052880166261,0.4,1.0,1.0,320.0,975.0,0.0,0,1705.0,0
303,303,-0.18479175476174925,-0.2,1.0,0.0,396.0,683.0,0.0,0,1921.0,1
304,304,-0.2722808108197198,-0.3,1.0,0.0,288.0,837.0,0.0,0,1875.0,1
305,305,0.18269205668186095,0.2,0.0,0.0,387.0,847.0,0.0,1,1766.0,1
306,306,0.5092911714055989,0.5,0.0,0.0,360.0,932.0,0.0,1,1708.0,1
307,307,0.6757942707210461,0.7,1.0,1.0,472.0,605.0,0.0,0,1923.0,0
308,308,0.20172045182103904,0.2,1.0,1.0,305.0,873.0,0.0,0,1822.0,0
309,309,-0.7446069904265827,-0.7,1.0,0.0,264.0,677.0,0.0,0,2059.0,1
310,310,0.2924655638756898,0.3,0.0,0.0,325.0,840.0,0.0,1,1835.0,1
311,311,-0.678803923945305,-0.7,0.0,1.0,482.0,746.0,0.0,1,1772.0,0
312,312,0.6267035749342816,0.6,1.0,1.0,337.0,552.0,0.0,0,2111.0,0
313,313,0.2925532224142132,0.3,0.0,0.0,470.0,922.0,0.0,1,1608.0,1
314,314,-0.41329704853551796,-0.4,1.0,0.0,438.0,999.0,0.0,0,1563.0,1
315,315,0.2935610878152809,0.3,1.0,1.0,459.0,982.0,0.0,0,1559.0,0
316,316,0.5450260419823861,0.5,1.0,1.0,329.0,573.0,0.0,0,2098.0,0
317,317,-0.6322464594278343,-0.6,1.0,0.0,301.0,707.0,0.0,0,1992.0,1
318,318,-0.06496790003118769,-0.1,0.0,1.0,315.0,700.0,0.0,1,1985.0,0
319,319,-0.8572556702974048,-0.9,1.0,0.0,332.0,643.0,0.0,0,2025.0,1
320,320,0.7203271465769242,0.7,1.0,1.0,456.0,843.0,0.0,0,1701.0,0
321,321,0.028860611143846193,0.0,1.0,1.0,477.0,630.0,0.0,0,1893.0,0
322,322,-0.5830848001627464,-0.6,0.0,1.0,489.0,963.0,0.0,1,1548.0,0
323,323,0.8732892808173124,0.9,1.0,1.0,372.0,512.0,0.0,0,2116.0,0
324,324,0.46531772748002587,0.5,1.0,1.0,399.0,569.0,0.0,0,2032.0,0
325,325,-0.0957039756310124,-0.1,1.0,0.0,354.0,549.0,0.0,0,2097.0,1
326,326,0.7166140271378495,0.7,0.0,0.0,442.0,689.0,0.0,1,1869.0,1
327,327,-0.7966544298722739,-0.8,0.0,1.0,478.0,847.0,0.0,1,1675.0,0
328,328,0.4855764614824306,0.5,0.0,0.0,462.0,550.0,0.0,1,1988.0,1
329,329,-0.8498773319873182,-0.8,1.0,0.0,401.0,791.0,0.0,0,1808.0,1
330,330,0.5539496954509441,0.6,0.0,0.0,309.0,953.0,0.0,1,1738.0,1
331,331,0.8844266155083186,0.9,0.0,0.0,328.0,544.0,0.0,1,2128.0,1
332,332,0.14267799544115845,0.1,0.0,0.0,491.0,584.0,0.0,1,1925.0,1
333,333,-0.4440649405645679,-0.4,0.0,1.0,317.0,862.0,0.0,1,1821.0,0
334,334,0.2517042014289811,0.3,1.0,1.0,314.0,705.0,0.0,0,1981.0,0
335,335,-0.5150522350226059,-0.5,0.0,1.0,291.0,864.0,0.0,1,1845.0,0
336,336,-0.5117085506296057,-0.5,0.0,1.0,416.0,791.0,0.0,1,1793.0,0
337,337,-0.040231194570830575,-0.0,0.0,1.0,423.0,945.0,0.0,1,1632.0,0
338,338,0.7972478398347166,0.8,1.0,1.0,343.0,914.0,0.0,0,1743.0,0
339,339,0.06300238563491689,0.1,1.0,1.0,457.0,575.0,0.0,0,1968.0,0
340,340,0.8906866808872785,0.9,1.0,1.0,464.0,719.0,0.0,0,1817.0,0
341,341,-0.7880927705479531,-0.8,0.0,1.0,407.0,731.0,0.0,1,1862.0,0
342,342,-0.5011507533822945,-0.5,1.0,0.0,391.0,905.0,0.0,0,1704.0,1
343,343,-0.48710933045944554,-0.5,1.0,0.0,265.0,953.0,0.0,0,1782.0,1
344,344,0.4553160711110723,0.5,0.0,0.0,342.0,640.0,0.0,1,2018.0,1
345,345,-0.37132751783444706,-0.4,0.0,1.0,299.0,926.0,0.0,1,1775.0,0
346,346,-0.2198989176213766,-0.2,0.0,1.0,318.0,666.0,0.0,1,2016.0,0
347,347,0.13508239944035416,0.1,1.0,1.0,373.0,778.0,0.0,0,1849.0,0
348,348,-0.23025549431661652,-0.2,0.0,1.0,315.0,934.0,0.0,1,1751.0,0
349,349,0.1251885600715944,0.1,1.0,1.0,423.0,777.0,0.0,0,1800.0,0
350,350,-0.40559554848905427,-0.4,0.0,1.0,250.0,570.0,0.0,1,2180.0,0
351,351,-0.25814580404480925,-0.3,1.0,0.0,256.0,913.0,0.0,0,1831.0,1
352,352,-0.23726513282662787,-0.2,1.0,0.0,280.0,652.0,0.0,0,2068.0,1
353,353,-0.21865862409383507,-0.2,0.0,1.0,480.0,739.0,0.0,1,1781.0,0
354,354,0.8907950358159701,0.9,0.0,0.0,419.0,996.0,0.0,1,1585.0,1
355,355,0.3727005852071118,0.4,0.0,0.0,404.0,559.0,1.0,0,-943.0,0
356,356,0.42675785380421705,0.4,1.0,1.0,316.0,500.0,0.0,0,-696.0,0
357,357,0.6213518930664156,0.6,0.0,0.0,369.0,787.0,0.0,1,1844.0,1
358,358,-0.3824228548876861,-0.4,1.0,0.0,467.0,504.0,0.0,0,2029.0,1
359,359,-0.8093068057649228,-0.8,1.0,0.0,393.0,547.0,0.0,0,2060.0,1
360,360,0.5102410375889529,0.5,0.0,0.0,264.0,585.0,0.0,1,2151.0,1
361,361,0.11453370786433126,0.1,1.0,1.0,266.0,678.0,0.0,0,-864.0,0
362,362,0.062146377509434414,0.1,1.0,1.0,301.0,908.0,0.0,0,1791.0,0
363,363,-0.27194922281968936,-0.3,0.0,1.0,350.0,634.0,0.0,1,2016.0,0
364,364,-0.4842535780384391,-0.5,0.0,1.0,415.0,825.0,0.0,1,1760.0,0
365,365,0.20093516273900092,0.2,0.0,0.0,428.0,638.0,0.0,1,1934.0,1
366,366,-0.6992865468681232,-0.7,0.0,1.0,397.0,763.0,0.0,1,1840.0,0
367,367,0.6476028944293218,0.6,1.0,1.0,332.0,881.0,0.0,0,1787.0,0
368,368,0.08616771857972805,0.1,1.0,1.0,480.0,748.0,0.0,0,1772.0,0
369,369,0.44872792378745874,0.4,1.0,1.0,387.0,973.0,0.0,0,1640.0,0
370,370,0.05080402407512963,0.1,1.0,1.0,435.0,826.0,0.0,0,1739.0,0
371,371,0.09804272028199124,0.1,1.0,1.0,277.0,733.0,0.0,0,1990.0,0
372,372,0.6637367967544078,0.7,1.0,1.0,404.0,974.0,0.0,0,1622.0,0
373,373,-0.19789075053771066,-0.2,0.0,1.0,255.0,627.0,0.0,1,2118.0,0
374,374,0.7708485110452342,0.8,1.0,1.0,272.0,806.0,0.0,0,1922.0,0
375,375,0.8391552260135019,0.8,1.0,1.0,435.0,850.0,0.0,0,1715.0,0
376,376,0.6845027457473655,0.7,0.0,0.0,285.0,725.0,0.0,1,1990.0,1
377,377,0.02821241639974248,0.0,0.0,0.0,313.0,899.0,0.0,1,1788.0,1
378,378,0.6418553025746058,0.6,1.0,1.0,437.0,879.0,0.0,0,1684.0,0
379,379,0.2948100439789595,0.3,1.0,1.0,344.0,830.0,0.0,0,1826.0,0
380,380,-0.6063829751249163,-0.6,1.0,0.0,263.0,969.0,0.0,0,1768.0,1
381,381,-0.007195771664391781,-0.0,1.0,0.0,422.0,690.0,0.0,0,1888.0,1
382,382,-0.6959037426580793,-0.7,1.0,0.0,376.0,682.0,0.0,0,1942.0,1
383,383,-0.6478222583065721,-0.6,0.0,1.0,417.0,728.0,0.0,1,1855.0,0
384,384,0.027318164828242564,0.0,0.0,0.0,488.0,907.0,0.0,1,1605.0,1
385,385,0.333371709367296,0.3,0.0,0.0,284.0,660.0,0.0,1,2056.0,1
386,386,-0.27656621329642683,-0.3,0.0,1.0,328.0,556.0,0.0,1,2116.0,0
387,387,-0.5942314744884887,-0.6,1.0,0.0,322.0,955.0,0.0,0,1723.0,1
388,388,0.6169231318174025,0.6,0.0,0.0,401.0,995.0,0.0,1,1604.0,1
389,389,-0.4119907041222541,-0.4,1.0,0.0,263.0,784.0,0.0,0,1953.0,1
390,390,0.2512354787908432,0.3,0.0,0.0,437.0,913.0,0.0,1,1650.0,1
391,391,0.295660138873303,0.3,1.0,1.0,305.0,561.0,0.0,0,2134.0,0
392,392,-0.40793697855459576,-0.4,0.0,1.0,315.0,590.0,0.0,1,2095.0,0
393,393,-0.8553796358367715,-0.9,1.0,0.0,346.0,792.0,0.0,0,1862.0,1
394,394,-0.2577672344761679,-0.3,1.0,0.0,497.0,514.0,0.0,0,1989.0,1
395,395,-0.759846815049833,-0.8,0.0,1.0,447.0,789.0,0.0,1,1764.0,0
396,396,-0.09024151923592172,-0.1,0.0,1.0,397.0,867.0,0.0,1,1736.0,0
397,397,0.38784621106988626,0.4,1.0,1.0,312.0,740.0,0.0,0,1948.0,0
398,398,-0.6324369673146744,-0.6,1.0,0.0,450.0,944.0,0.0,0,1606.0,1
399,399,-0.3678048579641674,-0.4,1.0,0.0,279.0,835.0,0.0,0,1886.0,1
400,400,-0.7558191875451239,-0.8,0.0,1.0,298.0,804.0,0.0,1,1898.0,0
401,401,0.5388893955180089,0.5,1.0,1.0,279.0,963.0,0.0,0,1758.0,0
402,402,-0.18797738100485528,-0.2,0.0,1.0,280.0,820.0,0.0,1,1900.0,0
403,403,0.7162687035405572,0.7,0.0,0.0,309.0,959.0,0.0,1,1732.0,1
404,404,-0.44844285348601404,-0.4,1.0,0.0,427.0,755.0,0.0,0,1818.0,1
405,405,-0.4589901565766364,-0.5,0.0,1.0,347.0,547.0,0.0,1,2106.0,0
406,406,0.8947447024034573,0.9,1.0,1.0,362.0,651.0,0.0,0,1987.0,0
407,407,0.48588219077073214,0.5,1.0,1.0,461.0,899.0,0.0,0,1640.0,0
408,408,-0.5245250799488894,-0.5,0.0,1.0,415.0,582.0,0.0,1,2003.0,0
409,409,0.4102417650907123,0.4,0.0,0.0,455.0,980.0,0.0,1,1565.0,1
410,410,-0.6383331647899795,-0.6,1.0,0.0,351.0,828.0,0.0,0,1821.0,1
411,411,0.4719603634410473,0.5,0.0,0.0,425.0,764.0,0.0,1,1811.0,1
412,412,-0.30639342108791023,-0.3,0.0,1.0,477.0,850.0,0.0,1,1673.0,0
413,413,-0.6596250725846563,-0.7,1.0,0.0,315.0,920.0,1.0,1,-1075.0,0
414,414,0.7015327469097391,0.7,0.0,0.0,269.0,826.0,0.0,1,1905.0,1
415,415,0.14387927162796765,0.1,1.0,1.0,425.0,892.0,0.0,0,1683.0,0
416,416,-0.6409139666730883,-0.6,0.0,1.0,497.0,783.0,0.0,1,1720.0,0
417,417,-0.3367828859829509,-0.3,0.0,1.0,268.0,851.0,0.0,1,1881.0,0
418,418,0.7155524772771277,0.7,1.0,1.0,370.0,568.0,0.0,0,2062.0,0
419,419,-0.3231503745828097,-0.3,0.0,1.0,485.0,858.0,1.0,0,-1283.0,1
420,420,0.4244887264584506,0.4,0.0,0.0,483.0,847.0,0.0,1,1670.0,1
421,421,0.4803093781267739,0.5,0.0,0.0,256.0,991.0,0.0,1,1753.0,1
422,422,-0.3344896284443073,-0.3,1.0,0.0,336.0,932.0,0.0,0,1732.0,1
423,423,0.509872312615545,0.5,0.0,0.0,352.0,880.0,0.0,1,1768.0,1
424,424,0.7027052337963772,0.7,1.0,1.0,357.0,976.0,0.0,0,1667.0,0
425,425,-0.8552402358214202,-0.9,1.0,0.0,324.0,831.0,0.0,0,1845.0,1
426,426,0.22687578968897937,0.2,0.0,0.0,427.0,538.0,0.0,1,2035.0,1
427,427,-0.80279345210439,-0.8,0.0,1.0,421.0,973.0,0.0,1,1606.0,0
428,428,-0.7618967166996345,-0.8,1.0,0.0,488.0,692.0,0.0,0,1820.0,1
429,429,-0.25868633810298947,-0.3,1.0,0.0,291.0,985.0,0.0,0,1724.0,1
430,430,-0.4557625008712169,-0.5,0.0,1.0,345.0,762.0,0.0,1,1893.0,0
431,431,0.8704929333402883,0.9,1.0,1.0,332.0,975.0,0.0,0,1693.0,0
432,432,0.10177237043937126,0.1,1.0,1.0,415.0,948.0,0.0,0,1637.0,0
433,433,0.7960319700943858,0.8,1.0,1.0,395.0,784.0,0.0,0,1821.0,0
434,434,0.18281472810548138,0.2,0.0,0.0,382.0,678.0,0.0,1,1940.0,1
435,435,-0.46820758509790333,-0.5,1.0,0.0,378.0,796.0,0.0,0,1826.0,1
436,436,-0.19430480684235207,-0.2,1.0,0.0,362.0,833.0,0.0,0,1805.0,1
437,437,-0.37900902733159114,-0.4,0.0,1.0,397.0,613.0,0.0,1,1990.0,0
438,438,-0.08893611918832411,-0.1,1.0,0.0,352.0,519.0,0.0,0,2129.0,1
439,439,0.01976615837991358,0.0,1.0,1.0,328.0,517.0,0.0,0,2155.0,0
440,440,0.11301034791887188,0.1,0.0,0.0,305.0,743.0,0.0,1,1952.0,1
441,441,-0.8304342450282693,-0.8,0.0,1.0,344.0,682.0,0.0,1,1974.0,0
442,442,-0.2473826476037312,-0.2,0.0,1.0,426.0,540.0,0.0,1,2034.0,0
443,443,0.5739925430770724,0.6,1.0,1.0,485.0,723.0,0.0,0,1792.0,0
444,444,0.5917920445614374,0.6,1.0,1.0,496.0,915.0,0.0,0,1589.0,0
445,445,0.09689884420792028,0.1,1.0,1.0,409.0,536.0,0.0,0,2055.0,0
446,446,0.6452975300194604,0.6,1.0,1.0,294.0,956.0,0.0,0,1750.0,0
447,447,0.8761976357059541,0.9,1.0,1.0,394.0,605.0,0.0,0,2001.0,0
448,448,0.19798179877217048,0.2,0.0,0.0,253.0,989.0,0.0,1,1758.0,1
449,449,0.2675827102164331,0.3,1.0,1.0,482.0,540.0,0.0,0,1978.0,0
450,450,0.7647270759205486,0.8,0.0,0.0,491.0,781.0,0.0,1,1728.0,1
451,451,0.6767246869548488,0.7,0.0,0.0,382.0,808.0,0.0,1,1810.0,1
452,452,-0.7355466522717767,-0.7,0.0,1.0,347.0,783.0,0.0,1,1870.0,0
453,453,0.7007002549752562,0.7,0.0,0.0,306.0,639.0,0.0,1,2055.0,1
454,454,0.7435238688227618,0.7,0.0,0.0,441.0,946.0,0.0,1,1613.0,1
455,455,0.8651353514339041,0.9,0.0,0.0,470.0,593.0,0.0,1,1937.0,1
456,456,0.6062808693390555,0.6,0.0,0.0,257.0,980.0,0.0,1,1763.0,1
457,457,-0.5503714488061697,-0.6,0.0,1.0,398.0,805.0,0.0,1,1797.0,0
458,458,-0.89960115615326,-0.9,0.0,1.0,273.0,540.0,0.0,1,2187.0,0
459,459,-0.0039199066828661255,-0.0,1.0,0.0,316.0,881.0,0.0,0,1803.0,1
460,460,-0.5052290850504176,-0.5,1.0,0.0,296.0,605.0,0.0,0,2099.0,1
461,461,-0.15479056086225151,-0.2,0.0,1.0,366.0,521.0,0.0,1,2113.0,0
462,462,0.7683633413623555,0.8,1.0,1.0,376.0,819.0,0.0,0,1805.0,0
463,463,0.052046842143037786,0.1,0.0,0.0,314.0,595.0,0.0,1,2091.0,1
464,464,0.6466616489413107,0.6,1.0,1.0,272.0,986.0,0.0,0,1742.0,0
465,465,0.058502863012726,0.1,1.0,1.0,367.0,924.0,0.0,0,1709.0,0
466,466,0.7137597150980753,0.7,0.0,0.0,488.0,759.0,0.0,1,1753.0,1
467,467,-0.3618228823125311,-0.4,0.0,1.0,492.0,721.0,0.0,1,1787.0,0
468,468,-0.227915610965427,-0.2,0.0,1.0,294.0,856.0,0.0,1,1850.0,0
469,469,0.01818819806049421,0.0,0.0,0.0,250.0,589.0,0.0,1,2161.0,1
470,470,0.7828110176830828,0.8,1.0,1.0,433.0,919.0,0.0,0,1648.0,0
471,471,-0.33798793189361787,-0.3,1.0,0.0,352.0,823.0,0.0,0,1825.0,1
472,472,-0.35731397477536575,-0.4,1.0,0.0,374.0,963.0,0.0,0,1663.0,1
473,473,-0.029528280967467846,-0.0,0.0,1.0,372.0,983.0,0.0,1,1645.0,0
474,474,-0.818190922556241,-0.8,0.0,1.0,305.0,622.0,0.0,1,2073.0,0
475,475,0.6323873810771298,0.6,0.0,0.0,446.0,970.0,0.0,1,1584.0,1
476,476,0.8132531398968298,0.8,1.0,1.0,468.0,515.0,0.0,0,2017.0,0
477,477,0.5360787942410686,0.5,1.0,1.0,459.0,672.0,0.0,0,1869.0,0
478,478,0.7254783623579028,0.7,1.0,1.0,299.0,829.0,0.0,0,1872.0,0
479,479,-0.31380900426046066,-0.3,1.0,0.0,353.0,678.0,0.0,0,1969.0,1
480,480,-0.6379068603792221,-0.6,0.0,1.0,417.0,858.0,0.0,1,1725.0,0
481,481,0.49945103365450894,0.5,0.0,0.0,382.0,552.0,0.0,1,2066.0,1
482,482,0.385530138829144,0.4,0.0,0.0,429.0,682.0,0.0,1,1889.0,1
483,483,-0.8348934243987431,-0.8,1.0,0.0,402.0,921.0,0.0,0,1677.0,1
484,484,0.5998326611164962,0.6,0.0,0.0,279.0,660.0,1.0,0,-729.0,0
485,485,-0.07510940548641831,-0.1,0.0,1.0,403.0,740.0,0.0,1,1857.0,0
486,486,0.5028158187387871,0.5,0.0,0.0,400.0,884.0,0.0,1,1716.0,1
487,487,-0.5930181867811124,-0.6,0.0,1.0,358.0,665.0,0.0,1,1977.0,0
488,488,0.653053355481389,0.7,0.0,0.0,499.0,658.0,0.0,1,-1017.0,1
489,489,-0.829741159863283,-0.8,1.0,0.0,439.0,642.0,0.0,0,1919.0,1
490,490,0.06801429044878471,0.1,0.0,0.0,499.0,985.0,0.0,1,1516.0,1
491,491,0.08032577067036539,0.1,1.0,1.0,369.0,959.0,0.0,0,1672.0,0
492,492,0.4980650299609811,0.5,1.0,1.0,399.0,833.0,0.0,0,1768.0,0
493,493,-0.627484979296034,-0.6,1.0,0.0,348.0,873.0,0.0,0,1779.0,1
494,494,0.7992738109256817,0.8,0.0,0.0,254.0,600.0,0.0,1,2146.0,1
495,495,-0.8659360255092048,-0.9,0.0,1.0,257.0,960.0,0.0,1,1783.0,0
496,496,-0.6234182510863804,-0.6,1.0,0.0,474.0,870.0,0.0,0,1656.0,1
497,497,0.5486340718990276,0.5,1.0,1.0,381.0,978.0,0.0,0,1641.0,0
498,498,-0.6390280437004846,-0.6,0.0,1.0,480.0,902.0,0.0,1,1618.0,0
499,499,-0.4297075781956807,-0.4,1.0,0.0,413.0,908.0,0.0,0,1679.0,1
500,500,-0.31307108236889714,-0.3,1.0,0.0,465.0,564.0,0.0,0,1971.0,1
501,501,-0.11602678194269433,-0.1,1.0,0.0,335.0,782.0,0.0,0,1883.0,1
502,502,0.32088979098216497,0.3,0.0,0.0,429.0,632.0,0.0,1,1939.0,1
503,503,0.8944502582537252,0.9,0.0,0.0,319.0,526.0,0.0,1,2155.0,1
504,504,0.05833773743808324,0.1,1.0,1.0,399.0,507.0,0.0,0,2094.0,0
505,505,-0.31165780951587785,-0.3,1.0,0.0,412.0,976.0,0.0,0,1612.0,1
506,506,0.1657082049347841,0.2,1.0,1.0,313.0,680.0,0.0,0,2007.0,0
507,507,-0.25053797511913145,-0.3,0.0,1.0,288.0,926.0,0.0,1,1786.0,0
508,508,-0.4588509505980091,-0.5,0.0,1.0,252.0,716.0,0.0,1,2032.0,0
509,509,0.12036154085765827,0.1,1.0,1.0,314.0,905.0,0.0,0,-1179.0,0
510,510,-0.2933408548560702,-0.3,0.0,1.0,410.0,535.0,0.0,1,2055.0,0
511,511,0.6010865713066612,0.6,1.0,1.0,357.0,788.0,0.0,0,1855.0,0
512,512,0.2627794585770905,0.3,1.0,1.0,311.0,555.0,0.0,0,2134.0,0
513,513,-0.5995216301520809,-0.6,0.0,1.0,285.0,949.0,0.0,1,1766.0,0
514,514,0.6570762758699135,0.7,0.0,0.0,351.0,742.0,0.0,1,1907.0,1
515,515,0.7726776769973084,0.8,1.0,1.0,293.0,577.0,0.0,0,2130.0,0
516,516,-0.6160378214692348,-0.6,0.0,1.0,376.0,708.0,0.0,1,1916.0,0
517,517,-0.08626174137772058,-0.1,0.0,1.0,376.0,753.0,1.0,0,-1109.0,1
518,518,-0.17745144627972387,-0.2,0.0,1.0,362.0,703.0,0.0,1,1935.0,0
519,519,0.5367064716198068,0.5,0.0,0.0,283.0,831.0,0.0,1,1886.0,1
520,520,0.4173177177836763,0.4,1.0,1.0,336.0,926.0,0.0,0,1738.0,0
521,521,0.2506981961272733,0.3,0.0,0.0,409.0,997.0,0.0,1,1594.0,1
522,522,0.6719434498979769,0.7,0.0,0.0,428.0,852.0,0.0,1,1720.0,1
523,523,0.2076719672467865,0.2,0.0,0.0,319.0,527.0,0.0,1,2154.0,1
524,524,-0.037198870583062926,-0.0,0.0,1.0,392.0,970.0,0.0,1,1638.0,0
525,525,-0.18725841601868043,-0.2,1.0,0.0,373.0,505.0,0.0,0,2122.0,1
526,526,-0.3809510580736861,-0.4,1.0,0.0,271.0,708.0,0.0,0,2021.0,1
527,527,0.03502625250281832,0.0,0.0,0.0,311.0,967.0,0.0,1,1722.0,1
528,528,0.2098985514248578,0.2,1.0,1.0,366.0,781.0,0.0,0,1853.0,0
529,529,0.09523803995694258,0.1,1.0,1.0,283.0,580.0,0.0,0,2137.0,0
530,530,0.6895556459839874,0.7,0.0,0.0,295.0,760.0,0.0,1,1945.0,1
531,531,-0.5336017494846429,-0.5,0.0,1.0,332.0,904.0,0.0,1,1764.0,0
532,532,0.47164041336454743,0.5,1.0,1.0,289.0,561.0,0.0,0,2150.0,0
533,533,-0.2612579604850478,-0.3,1.0,0.0,359.0,945.0,0.0,0,1696.0,1
534,534,0.09144847125695466,0.1,1.0,1.0,455.0,854.0,0.0,0,1691.0,0
535,535,-0.1580089415020397,-0.2,0.0,1.0,368.0,685.0,0.0,1,1947.0,0
536,536,0.7540175344973176,0.8,0.0,0.0,467.0,818.0,0.0,1,1715.0,1
537,537,0.14393347907362297,0.1,0.0,0.0,357.0,777.0,0.0,1,1866.0,1
538,538,0.8663421242084465,0.9,0.0,0.0,304.0,934.0,0.0,1,1762.0,1
539,539,0.8000437121843028,0.8,1.0,1.0,321.0,856.0,0.0,0,1823.0,0
540,540,-0.07736605646291794,-0.1,1.0,0.0,439.0,571.0,0.0,0,1990.0,1
541,541,0.8309642119775217,0.8,0.0,0.0,434.0,969.0,0.0,1,1597.0,1
542,542,-0.36360676757867316,-0.4,1.0,0.0,332.0,618.0,0.0,0,2050.0,1
543,543,-0.8785867640105148,-0.9,0.0,1.0,451.0,690.0,0.0,1,1859.0,0
544,544,0.6892079394670777,0.7,1.0,1.0,290.0,686.0,0.0,0,2024.0,0
545,545,0.3712105625412162,0.4,1.0,1.0,493.0,961.0,0.0,0,1546.0,0
546,546,-0.6018595719627636,-0.6,0.0,1.0,422.0,671.0,0.0,1,1907.0,0
547,547,-0.02466936394267072,-0.0,1.0,0.0,308.0,654.0,0.0,0,2038.0,1
548,548,-0.6781930844009042,-0.7,0.0,1.0,288.0,576.0,0.0,1,2136.0,0
549,549,0.6349841354494902,0.6,1.0,1.0,334.0,753.0,0.0,0,1913.0,0
550,550,-0.76928566566992,-0.8,1.0,0.0,304.0,991.0,0.0,0,1705.0,1
551,551,-0.03395809623460533,-0.0,1.0,0.0,333.0,663.0,0.0,0,2004.0,1
552,552,-0.8110152758838614,-0.8,0.0,1.0,484.0,954.0,0.0,1,-1268.0,0
553,553,0.1790971495237973,0.2,0.0,0.0,455.0,776.0,0.0,1,1769.0,1
554,554,0.8524387699148074,0.9,1.0,1.0,299.0,658.0,0.0,0,2043.0,0
555,555,0.3829496380191678,0.4,0.0,0.0,479.0,587.0,0.0,1,1934.0,1
556,556,0.8840174183870672,0.9,0.0,0.0,278.0,749.0,0.0,1,1973.0,1
557,557,-0.30335220340556335,-0.3,1.0,0.0,408.0,615.0,1.0,1,-1003.0,0
558,558,0.37443489077122327,0.4,0.0,0.0,278.0,958.0,0.0,1,1764.0,1
559,559,-0.25108170482791003,-0.3,0.0,1.0,356.0,661.0,0.0,1,1983.0,0
560,560,0.29245760156531697,0.3,1.0,1.0,427.0,894.0,0.0,0,1679.0,0
561,561,-0.8485796952966693,-0.8,0.0,1.0,487.0,644.0,0.0,1,1869.0,0
562,562,0.8670973764613671,0.9,0.0,0.0,429.0,769.0,0.0,1,1802.0,1
563,563,-0.4612419895163014,-0.5,0.0,1.0,427.0,982.0,0.0,1,1591.0,0
564,564,0.6952443932276952,0.7,1.0,1.0,484.0,645.0,0.0,0,1871.0,0
565,565,0.8532090300863419,0.9,0.0,0.0,282.0,832.0,0.0,1,1886.0,1
566,566,0.6902901794724586,0.7,0.0,0.0,432.0,593.0,0.0,1,-975.0,1
567,567,-0.2008437879541054,-0.2,0.0,1.0,376.0,913.0,0.0,1,1711.0,0
568,568,-0.3436052892395657,-0.3,1.0,0.0,476.0,786.0,0.0,0,1738.0,1
569,569,0.6689235640409671,0.7,1.0,1.0,354.0,540.0,0.0,0,-824.0,0
570,570,0.774460104416499,0.8,1.0,1.0,390.0,646.0,0.0,0,1964.0,0
571,571,0.6632359709031105,0.7,1.0,1.0,319.0,663.0,0.0,0,2018.0,0
572,572,-0.4627293999007552,-0.5,0.0,1.0,428.0,896.0,0.0,1,1676.0,0
573,573,0.1670155065844644,0.2,1.0,1.0,335.0,520.0,0.0,0,2145.0,0
574,574,0.5511028146745028,0.6,0.0,0.0,328.0,611.0,0.0,1,2061.0,1
575,575,0.6323769209543816,0.6,0.0,0.0,281.0,885.0,0.0,1,1834.0,1
576,576,-0.1493651785229877,-0.1,0.0,1.0,367.0,732.0,0.0,1,1901.0,0
577,577,0.729359750550591,0.7,0.0,0.0,428.0,532.0,0.0,1,2040.0,1
578,578,0.5592839418398815,0.6,0.0,0.0,396.0,581.0,0.0,1,2023.0,1
579,579,0.0945316169265924,0.1,1.0,1.0,289.0,914.0,0.0,0,1797.0,0
580,580,0.6095694784642486,0.6,0.0,0.0,317.0,970.0,0.0,1,1713.0,1
581,581,-0.4306557139531865,-0.4,1.0,0.0,333.0,776.0,0.0,0,-1069.0,1
582,582,0.7531168454716405,0.8,0.0,0.0,452.0,649.0,0.0,1,1899.0,1
583,583,0.6550581480975864,0.7,0.0,0.0,315.0,843.0,0.0,1,1842.0,1
584,584,0.281180046634096,0.3,0.0,0.0,419.0,786.0,0.0,1,1795.0,1
585,585,0.12864832920684754,0.1,1.0,1.0,373.0,858.0,0.0,0,1769.0,0
586,586,0.8829246986100164,0.9,1.0,1.0,323.0,963.0,0.0,0,1714.0,0
587,587,0.8767292235450516,0.9,0.0,0.0,352.0,890.0,0.0,1,1758.0,1
588,588,-0.4981038908721431,-0.5,0.0,1.0,411.0,730.0,0.0,1,1859.0,0
589,589,0.48311516020761147,0.5,1.0,1.0,344.0,744.0,0.0,0,1912.0,0
590,590,0.6171298738940215,0.6,0.0,0.0,292.0,668.0,1.0,0,-870.0,0
591,591,0.8561132700322239,0.9,0.0,0.0,369.0,849.0,0.0,1,1782.0,1
592,592,0.3886338139031348,0.4,0.0,0.0,267.0,514.0,0.0,1,2219.0,1
593,593,-0.8520207502611712,-0.9,0.0,1.0,489.0,837.0,0.0,1,1674.0,0
594,594,-0.2894274903808204,-0.3,1.0,0.0,415.0,625.0,0.0,0,1960.0,1
595,595,0.38114789088805334,0.4,0.0,0.0,424.0,947.0,0.0,1,1629.0,1
596,596,0.3342023815300684,0.3,0.0,0.0,440.0,715.0,0.0,1,1845.0,1
597,597,-0.8823386448635899,-0.9,0.0,1.0,356.0,808.0,0.0,1,1836.0,0
598,598,-0.6135238223446251,-0.6,1.0,0.0,345.0,991.0,1.0,1,-1306.0,0
599,599,-0.8495769118296552,-0.8,1.0,0.0,488.0,553.0,0.0,0,1959.0,1
600,600,-0.7031663632690479,-0.7,1.0,0.0,404.0,799.0,0.0,0,1797.0,1
601,601,-0.3311377547985589,-0.3,0.0,1.0,357.0,625.0,0.0,1,2018.0,0
602,602,-0.5128125043964484,-0.5,1.0,0.0,285.0,652.0,0.0,0,2063.0,1
603,603,0.02958755075257935,0.0,0.0,0.0,440.0,607.0,0.0,1,1953.0,1
604,604,0.42593302558102597,0.4,1.0,1.0,269.0,946.0,0.0,0,1785.0,0
605,605,0.8868975272987313,0.9,0.0,0.0,252.0,605.0,0.0,1,2143.0,1
606,606,-0.7570170771451065,-0.8,0.0,1.0,361.0,606.0,0.0,1,2033.0,0
607,607,0.16430532934301512,0.2,1.0,1.0,377.0,640.0,0.0,0,1983.0,0
608,608,0.7058620585027032,0.7,0.0,0.0,482.0,594.0,0.0,1,1924.0,1
609,609,0.2666336458497024,0.3,0.0,0.0,276.0,905.0,1.0,0,-1111.0,0
610,610,0.7728289337413307,0.8,1.0,1.0,395.0,943.0,0.0,0,1662.0,0
611,611,0.2492915548935669,0.2,0.0,0.0,390.0,797.0,0.0,1,1813.0,1
612,612,0.4272842345910842,0.4,0.0,0.0,272.0,552.0,0.0,1,2176.0,1
613,613,-0.39344496849799737,-0.4,1.0,0.0,295.0,750.0,0.0,0,1955.0,1
614,614,-0.3674645701659184,-0.4,0.0,1.0,276.0,621.0,0.0,1,2103.0,0
615,615,0.582534793103978,0.6,0.0,0.0,477.0,734.0,0.0,1,1789.0,1
616,616,-0.2955567111478482,-0.3,0.0,1.0,373.0,711.0,0.0,1,1916.0,0
617,617,0.06431080801334488,0.1,0.0,0.0,418.0,969.0,0.0,1,1613.0,1
618,618,0.8332751390377137,0.8,0.0,0.0,299.0,635.0,0.0,1,2066.0,1
619,619,0.8285645000088123,0.8,1.0,1.0,373.0,849.0,0.0,0,1778.0,0
620,620,-0.8931157780673546,-0.9,0.0,1.0,465.0,718.0,0.0,1,1817.0,0
621,621,0.0927423123670369,0.1,1.0,1.0,363.0,738.0,0.0,0,1899.0,0
622,622,-0.5387184877585298,-0.5,0.0,1.0,331.0,934.0,0.0,1,1735.0,0
623,623,-0.5166261148455558,-0.5,0.0,1.0,281.0,842.0,0.0,1,1877.0,0
624,624,0.7054837175490084,0.7,1.0,1.0,279.0,547.0,0.0,0,2174.0,0
625,625,-0.40013653752306516,-0.4,1.0,0.0,434.0,729.0,0.0,0,1837.0,1
626,626,0.5301271547265379,0.5,1.0,1.0,314.0,505.0,0.0,0,2181.0,0
627,627,0.7654706645767521,0.8,1.0,1.0,344.0,892.0,0.0,0,1764.0,0
628,628,-0.8492087674782114,-0.8,1.0,0.0,397.0,635.0,0.0,0,1968.0,1
629,629,0.49216988134019923,0.5,0.0,0.0,387.0,969.0,0.0,1,1644.0,1
630,630,0.2441837982172127,0.2,0.0,0.0,354.0,795.0,0.0,1,-1069.0,1
631,631,-0.21163507330032139,-0.2,1.0,0.0,309.0,776.0,0.0,0,1915.0,1
632,632,-0.7421497345005981,-0.7,0.0,1.0,372.0,981.0,0.0,1,1647.0,0
633,633,0.3751160413292435,0.4,1.0,1.0,394.0,984.0,0.0,0,1622.0,0
634,634,-0.5557115796203458,-0.6,1.0,0.0,271.0,940.0,0.0,0,1789.0,1
635,635,0.667267681737631,0.7,1.0,1.0,306.0,581.0,0.0,0,2113.0,0
636,636,-0.35004887165247023,-0.4,0.0,1.0,488.0,951.0,0.0,1,1561.0,0
637,637,0.6915611367317466,0.7,0.0,0.0,278.0,648.0,0.0,1,2074.0,1
638,638,0.12404861876364925,0.1,1.0,1.0,468.0,890.0,0.0,0,1642.0,0
639,639,0.5865022123790539,0.6,0.0,0.0,488.0,960.0,0.0,1,1552.0,1
640,640,0.6499740875220382,0.6,1.0,1.0,399.0,528.0,0.0,0,2073.0,0
641,641,-0.3060386718277621,-0.3,0.0,1.0,489.0,516.0,0.0,1,1995.0,0
642,642,-0.635411304547568,-0.6,0.0,1.0,312.0,681.0,0.0,1,2007.0,0
643,643,0.5392493815062661,0.5,1.0,1.0,362.0,855.0,0.0,0,1783.0,0
644,644,-0.37812907014796804,-0.4,0.0,1.0,330.0,507.0,0.0,1,2163.0,0
645,645,-0.8927104478696986,-0.9,1.0,0.0,379.0,611.0,0.0,0,2010.0,1
646,646,0.36588010917524716,0.4,1.0,1.0,342.0,872.0,0.0,0,1786.0,0
647,647,-0.8277872467979777,-0.8,1.0,0.0,308.0,722.0,0.0,0,1970.0,1
648,648,-0.16107392080677074,-0.2,0.0,1.0,489.0,553.0,0.0,1,1958.0,0
649,649,-0.6502177854473934,-0.7,0.0,1.0,359.0,568.0,0.0,1,-917.0,0
650,650,0.6744554440077469,0.7,1.0,1.0,388.0,965.0,0.0,0,1647.0,0
651,651,-0.280045899203509,-0.3,1.0,0.0,406.0,941.0,0.0,0,1653.0,1
652,652,0.47937474441673145,0.5,1.0,1.0,272.0,659.0,0.0,0,2069.0,0
653,653,-0.6988091615016699,-0.7,0.0,1.0,284.0,576.0,0.0,1,2140.0,0
654,654,0.6482920619175373,0.6,1.0,1.0,250.0,691.0,0.0,0,2059.0,0
655,655,0.6790480531895343,0.7,0.0,0.0,321.0,961.0,0.0,1,1718.0,1
656,656,-0.4595335754262919,-0.5,0.0,1.0,300.0,900.0,0.0,1,1800.0,0
657,657,0.5781055070686515,0.6,1.0,1.0,442.0,948.0,0.0,0,1610.0,0
658,658,0.3511115676058797,0.4,0.0,0.0,401.0,956.0,0.0,1,1643.0,1
659,659,0.05522488315703378,0.1,0.0,0.0,360.0,935.0,0.0,1,1705.0,1
660,660,0.29701174956695475,0.3,0.0,0.0,329.0,999.0,0.0,1,1672.0,1
661,661,-0.8585852670460495,-0.9,0.0,1.0,258.0,607.0,0.0,1,2135.0,0
662,662,0.6546362939162339,0.7,0.0,0.0,460.0,751.0,0.0,1,1789.0,1
663,663,0.04446211991901183,0.0,0.0,0.0,466.0,953.0,0.0,1,1581.0,1
664,664,-0.19260820402798695,-0.2,1.0,0.0,307.0,508.0,0.0,0,2185.0,1
665,665,-0.027293319377852288,-0.0,1.0,0.0,356.0,862.0,0.0,0,1782.0,1
666,666,-0.680424382988444,-0.7,1.0,0.0,439.0,571.0,1.0,1,-890.0,0
667,667,-0.7052678187343087,-0.7,0.0,1.0,290.0,650.0,0.0,1,2060.0,0
668,668,-0.8953689708496432,-0.9,0.0,1.0,345.0,889.0,0.0,1,1766.0,0
669,669,-0.45473325708747414,-0.5,0.0,1.0,385.0,802.0,0.0,1,1813.0,0
670,670,-0.446744074814296,-0.4,0.0,1.0,323.0,852.0,1.0,0,-1085.0,1
671,671,-0.7762872229196798,-0.8,0.0,1.0,341.0,861.0,0.0,1,1798.0,0
672,672,-0.46294939056040274,-0.5,1.0,0.0,402.0,998.0,0.0,0,1600.0,1
673,673,0.026198368073247047,0.0,0.0,0.0,287.0,626.0,0.0,1,2087.0,1
674,674,0.6043784806414142,0.6,1.0,1.0,281.0,535.0,0.0,0,2184.0,0
675,675,-0.08824930541204246,-0.1,0.0,1.0,373.0,591.0,0.0,1,2036.0,0
676,676,-0.275233498526822,-0.3,0.0,1.0,342.0,740.0,0.0,1,1918.0,0
677,677,-0.8848388674071546,-0.9,0.0,1.0,316.0,778.0,0.0,1,1906.0,0
678,678,0.6631562486659529,0.7,1.0,1.0,401.0,699.0,0.0,0,1900.0,0
679,679,0.18466689179620077,0.2,1.0,1.0,327.0,744.0,0.0,0,1929.0,0
680,680,0.7747658955062823,0.8,1.0,1.0,343.0,898.0,1.0,1,-1221.0,1
681,681,0.27020513826825854,0.3,1.0,1.0,327.0,697.0,0.0,0,1976.0,0
682,682,-0.2309329515629014,-0.2,0.0,1.0,251.0,806.0,0.0,1,1943.0,0
683,683,-0.26945025056090643,-0.3,0.0,1.0,440.0,814.0,0.0,1,1746.0,0
684,684,-0.5086936357988424,-0.5,0.0,1.0,479.0,955.0,1.0,0,-1414.0,1
685,685,0.14774051347891015,0.1,0.0,0.0,307.0,911.0,0.0,1,1782.0,1
686,686,0.5454298330236708,0.5,1.0,1.0,262.0,978.0,0.0,0,1760.0,0
687,687,0.886993876026655,0.9,1.0,1.0,442.0,670.0,0.0,0,1888.0,0
688,688,0.5507648089413305,0.6,1.0,1.0,265.0,643.0,0.0,0,2092.0,0
689,689,0.11974859196269005,0.1,1.0,1.0,364.0,526.0,0.0,0,2110.0,0
690,690,-0.7424317820628484,-0.7,0.0,1.0,265.0,761.0,0.0,1,1974.0,0
691,691,-0.4355721862548713,-0.4,1.0,0.0,395.0,511.0,0.0,0,-906.0,1
692,692,-0.1968973919573429,-0.2,0.0,1.0,462.0,920.0,0.0,1,1618.0,0
693,693,0.4678641363500521,0.5,0.0,0.0,340.0,869.0,0.0,1,1791.0,1
694,694,0.025228806238836277,0.0,0.0,0.0,293.0,830.0,0.0,1,1877.0,1
695,695,0.6004782278788742,0.6,0.0,0.0,440.0,752.0,0.0,1,1808.0,1
696,696,-0.2544644919228318,-0.3,1.0,0.0,488.0,608.0,0.0,0,1904.0,1
697,697,-0.2858832510696816,-0.3,1.0,0.0,483.0,648.0,0.0,0,1869.0,1
698,698,0.3623039226368244,0.4,1.0,1.0,357.0,567.0,0.0,0,2076.0,0
699,699,0.5277537436837222,0.5,0.0,0.0,272.0,657.0,0.0,1,2071.0,1
700,700,-0.17108182775921243,-0.2,0.0,1.0,294.0,532.0,0.0,1,2174.0,0
701,701,-0.07635760546709314,-0.1,0.0,1.0,448.0,943.0,0.0,1,1609.0,0
702,702,0.5156706568772379,0.5,0.0,0.0,390.0,932.0,0.0,1,1678.0,1
703,703,-0.3136335872025079,-0.3,1.0,0.0,449.0,817.0,0.0,0,1734.0,1
704,704,0.40551258938111634,0.4,1.0,1.0,457.0,795.0,0.0,0,1748.0,0
705,705,0.7511942223395701,0.8,1.0,1.0,425.0,681.0,0.0,0,1894.0,0
706,706,0.36331259484136835,0.4,0.0,0.0,341.0,626.0,0.0,1,2033.0,1
707,707,0.15877973903673726,0.2,1.0,1.0,453.0,636.0,0.0,0,1911.0,0
708,708,-0.0444649635894635,-0.0,0.0,1.0,269.0,909.0,0.0,1,1822.0,0
709,709,0.6616805983955479,0.7,0.0,0.0,440.0,719.0,0.0,1,1841.0,1
710,710,0.3955114407318673,0.4,1.0,1.0,277.0,674.0,0.0,0,2049.0,0
711,711,-0.6090900334603089,-0.6,0.0,1.0,258.0,603.0,0.0,1,2139.0,0
712,712,-0.41572684752988975,-0.4,1.0,0.0,436.0,875.0,0.0,0,1689.0,1
713,713,0.025752427989296445,0.0,1.0,1.0,276.0,974.0,0.0,0,1750.0,0
714,714,0.8101068322514747,0.8,0.0,0.0,448.0,813.0,1.0,0,-1231.0,0
715,715,-0.7539656203360297,-0.8,0.0,1.0,306.0,701.0,0.0,1,1993.0,0
716,716,-0.31725725230952495,-0.3,1.0,0.0,410.0,574.0,0.0,0,2016.0,1
717,717,0.6494654827122374,0.6,1.0,1.0,438.0,704.0,0.0,0,1858.0,0
718,718,-0.07091760680611447,-0.1,0.0,1.0,291.0,537.0,0.0,1,2172.0,0
719,719,0.6180422487280758,0.6,0.0,0.0,305.0,908.0,0.0,1,1787.0,1
720,720,-0.4450726696544582,-0.4,0.0,1.0,464.0,565.0,0.0,1,1971.0,0
721,721,0.8677952780734534,0.9,1.0,1.0,418.0,744.0,0.0,0,-1152.0,0
722,722,0.06561014524132813,0.1,1.0,1.0,264.0,629.0,0.0,0,2107.0,0
723,723,0.13309358230752666,0.1,0.0,0.0,400.0,887.0,0.0,1,1713.0,1
724,724,0.7683357891916459,0.8,0.0,0.0,292.0,931.0,0.0,1,1777.0,1
725,725,-0.5956617841408258,-0.6,0.0,1.0,438.0,843.0,0.0,1,1719.0,0
726,726,-0.10540090517982459,-0.1,0.0,1.0,345.0,710.0,0.0,1,1945.0,0
727,727,-0.1841461236097871,-0.2,1.0,0.0,296.0,772.0,0.0,0,1932.0,1
728,728,-0.1523033343454815,-0.2,1.0,0.0,437.0,879.0,0.0,0,1684.0,1
729,729,-0.49943464366231977,-0.5,0.0,1.0,412.0,733.0,0.0,1,1855.0,0
730,730,-0.13843399472548756,-0.1,1.0,0.0,408.0,928.0,0.0,0,1664.0,1
731,731,-0.5008146711187482,-0.5,1.0,0.0,314.0,847.0,0.0,0,1839.0,1
732,732,-0.06120659533594264,-0.1,1.0,0.0,309.0,584.0,0.0,0,2107.0,1
733,733,-0.63114303439468,-0.6,0.0,1.0,461.0,613.0,0.0,1,1926.0,0
734,734,-0.35239591526702085,-0.4,0.0,1.0,368.0,563.0,0.0,1,2069.0,0
735,735,0.38251558719183143,0.4,0.0,0.0,380.0,831.0,0.0,1,1789.0,1
736,736,-0.11360505706559709,-0.1,0.0,1.0,291.0,762.0,0.0,1,1947.0,0
737,737,-0.24376752171094285,-0.2,0.0,1.0,272.0,647.0,0.0,1,2081.0,0
738,738,0.12581387106702524,0.1,0.0,0.0,319.0,979.0,0.0,1,1702.0,1
739,739,0.40597210226236824,0.4,1.0,1.0,258.0,815.0,0.0,0,1927.0,0
740,740,-0.4281068891167193,-0.4,0.0,1.0,495.0,676.0,0.0,1,1829.0,0
741,741,0.7670970070302182,0.8,0.0,0.0,322.0,723.0,0.0,1,1955.0,1
742,742,-0.7376658964760469,-0.7,1.0,0.0,313.0,971.0,0.0,0,1716.0,1
743,743,-0.5460698389378876,-0.5,0.0,1.0,419.0,859.0,0.0,1,1722.0,0
744,744,-0.3681151014573488,-0.4,0.0,1.0,388.0,510.0,0.0,1,2102.0,0
745,745,-0.46129491952416746,-0.5,0.0,1.0,289.0,534.0,0.0,1,2177.0,0
746,746,0.35681960555483505,0.4,0.0,0.0,396.0,612.0,0.0,1,1992.0,1
747,747,-0.7748469370484861,-0.8,0.0,1.0,257.0,981.0,0.0,1,1762.0,0
748,748,-0.018961846117075742,-0.0,1.0,0.0,416.0,950.0,0.0,0,1634.0,1
749,749,-0.170245298164323,-0.2,1.0,0.0,382.0,533.0,0.0,0,2085.0,1
750,750,0.13093321502600064,0.1,1.0,1.0,497.0,758.0,0.0,0,1745.0,0
751,751,0.8972256107262265,0.9,0.0,0.0,287.0,975.0,0.0,1,1738.0,1
752,752,0.12752123674630156,0.1,1.0,1.0,307.0,602.0,0.0,0,2091.0,0
753,753,-0.29070197735436865,-0.3,1.0,0.0,323.0,575.0,0.0,0,-788.0,1
754,754,-0.5631139072791554,-0.6,0.0,1.0,416.0,521.0,0.0,1,2063.0,0
755,755,-0.8389764910043491,-0.8,1.0,0.0,393.0,701.0,0.0,0,1906.0,1
756,756,0.7960761289023252,0.8,1.0,1.0,418.0,552.0,0.0,0,2030.0,0
757,757,0.48139555170692006,0.5,1.0,1.0,345.0,703.0,0.0,0,1952.0,0
758,758,-0.8414135517439616,-0.8,0.0,1.0,465.0,964.0,0.0,1,1571.0,0
759,759,0.785238299230491,0.8,1.0,1.0,448.0,852.0,0.0,0,1700.0,0
760,760,0.4898461592322142,0.5,0.0,0.0,256.0,910.0,0.0,1,1834.0,1
761,761,-0.2616229893554842,-0.3,1.0,0.0,416.0,608.0,0.0,0,1976.0,1
762,762,0.761923672804021,0.8,1.0,1.0,284.0,934.0,0.0,0,1782.0,0
763,763,0.15254441323017043,0.2,0.0,0.0,263.0,758.0,0.0,1,-1001.0,1
764,764,0.15203159339017935,0.2,1.0,1.0,458.0,674.0,0.0,0,1868.0,0
765,765,0.2049866304603768,0.2,0.0,0.0,400.0,711.0,0.0,1,1889.0,1
766,766,0.4495510855298456,0.4,1.0,1.0,444.0,534.0,0.0,0,2022.0,0
767,767,-0.12239595033957396,-0.1,0.0,1.0,265.0,547.0,0.0,1,2188.0,0
768,768,0.12476359402828974,0.1,0.0,0.0,487.0,565.0,0.0,1,1948.0,1
769,769,0.7549805050906014,0.8,0.0,0.0,462.0,647.0,0.0,1,1891.0,1
770,770,-0.33002775253764716,-0.3,0.0,1.0,322.0,716.0,0.0,1,1962.0,0
771,771,-0.5367978263886538,-0.5,1.0,0.0,429.0,697.0,0.0,0,1874.0,1
772,772,0.726254639599165,0.7,0.0,0.0,257.0,961.0,0.0,1,1782.0,1
773,773,0.19721487373007862,0.2,0.0,0.0,452.0,529.0,0.0,1,2019.0,1
774,774,-0.22264798810368647,-0.2,1.0,0.0,323.0,720.0,0.0,0,1957.0,1
775,775,0.4551540145187215,0.5,1.0,1.0,379.0,734.0,0.0,0,1887.0,0
776,776,0.4716304391803966,0.5,0.0,0.0,383.0,511.0,0.0,1,2106.0,1
777,777,0.09297456823974426,0.1,1.0,1.0,379.0,666.0,0.0,0,1955.0,0
778,778,-0.7448741628299149,-0.7,1.0,0.0,388.0,626.0,0.0,0,1986.0,1
779,779,-0.2950766137868358,-0.3,0.0,1.0,276.0,940.0,0.0,1,1784.0,0
780,780,0.4821973189580352,0.5,1.0,1.0,250.0,634.0,0.0,0,2116.0,0
781,781,0.6908480155300952,0.7,1.0,1.0,379.0,979.0,0.0,0,1642.0,0
782,782,0.008915767233216187,0.0,0.0,0.0,271.0,888.0,0.0,1,1841.0,1
783,783,-0.26159031994960114,-0.3,0.0,1.0,269.0,552.0,0.0,1,2179.0,0
784,784,0.8666806115608584,0.9,1.0,1.0,488.0,781.0,0.0,0,1731.0,0
785,785,0.7259681428569492,0.7,0.0,0.0,455.0,983.0,0.0,1,1562.0,1
786,786,0.8804620779707996,0.9,0.0,0.0,277.0,876.0,0.0,1,1847.0,1
787,787,0.15479650758380126,0.2,0.0,0.0,390.0,919.0,0.0,1,-1259.0,1
788,788,-0.27130025771275845,-0.3,1.0,0.0,465.0,834.0,0.0,0,1701.0,1
789,789,-0.36707711064627946,-0.4,1.0,0.0,443.0,690.0,0.0,0,1867.0,1
790,790,0.319162694177756,0.3,0.0,0.0,319.0,805.0,0.0,1,1876.0,1
791,791,0.09507049793746902,0.1,1.0,1.0,432.0,676.0,0.0,0,1892.0,0
792,792,0.7755128359061433,0.8,0.0,0.0,311.0,577.0,0.0,1,2112.0,1
793,793,0.6701603907086678,0.7,1.0,1.0,365.0,787.0,0.0,0,1848.0,0
794,794,0.6200628616879625,0.6,0.0,0.0,479.0,501.0,0.0,1,2020.0,1
795,795,-0.6301484371525901,-0.6,0.0,1.0,290.0,765.0,0.0,1,1945.0,0
796,796,-0.6464652465387186,-0.6,0.0,1.0,267.0,518.0,0.0,1,2215.0,0
797,797,-0.4899958121809801,-0.5,0.0,1.0,323.0,956.0,0.0,1,1721.0,0
798,798,0.18245424318682024,0.2,0.0,0.0,291.0,759.0,0.0,1,1950.0,1
799,799,0.2907747145052969,0.3,0.0,0.0,340.0,991.0,0.0,1,-1231.0,1
800,800,-0.815764922867873,-0.8,0.0,1.0,351.0,805.0,0.0,1,1844.0,0
801,801,-0.5711697270071179,-0.6,0.0,1.0,493.0,569.0,0.0,1,1938.0,0
802,802,0.02694646458125638,0.0,0.0,0.0,337.0,768.0,0.0,1,1895.0,1
803,803,-0.35602978968559296,-0.4,1.0,0.0,324.0,848.0,0.0,0,1828.0,1
804,804,0.031322042116271875,0.0,0.0,0.0,467.0,688.0,1.0,0,-1085.0,0
805,805,0.8824775050499102,0.9,1.0,1.0,342.0,828.0,0.0,0,1830.0,0
806,806,0.7088072508780577,0.7,0.0,0.0,272.0,768.0,0.0,1,1960.0,1
807,807,-0.7301986043730693,-0.7,1.0,0.0,371.0,964.0,0.0,0,1665.0,1
808,808,0.6830095960110024,0.7,1.0,1.0,463.0,948.0,0.0,0,1589.0,0
809,809,-0.44290745973227674,-0.4,1.0,0.0,472.0,990.0,0.0,0,1538.0,1
810,810,0.7339401680438743,0.7,0.0,0.0,291.0,776.0,0.0,1,1933.0,1
811,811,0.8910635670940336,0.9,1.0,1.0,329.0,652.0,0.0,0,2019.0,0
812,812,0.645007160163,0.6,0.0,0.0,321.0,705.0,0.0,1,1974.0,1
813,813,0.7447577500667123,0.7,1.0,1.0,489.0,874.0,0.0,0,1637.0,0
814,814,-0.24110899175848677,-0.2,0.0,1.0,292.0,532.0,0.0,1,2176.0,0
815,815,0.18941205216978207,0.2,1.0,1.0,372.0,727.0,0.0,0,1901.0,0
816,816,0.7561129240241206,0.8,1.0,1.0,320.0,828.0,0.0,0,1852.0,0
817,817,-0.7317791792842765,-0.7,0.0,1.0,252.0,986.0,0.0,1,1762.0,0
818,818,0.0008186512126939771,0.0,0.0,0.0,382.0,833.0,0.0,1,1785.0,1
819,819,0.2686467552726072,0.3,1.0,1.0,339.0,660.0,0.0,0,2001.0,0
820,820,0.2614354625582086,0.3,1.0,1.0,449.0,914.0,0.0,0,1637.0,0
821,821,0.852002131377766,0.9,1.0,1.0,412.0,947.0,0.0,0,1641.0,0
822,822,-0.3657996370302463,-0.4,1.0,0.0,395.0,938.0,0.0,0,1667.0,1
823,823,-0.07113309488640507,-0.1,0.0,1.0,341.0,507.0,0.0,1,2152.0,0
824,824,-0.21911581376742661,-0.2,0.0,1.0,489.0,910.0,1.0,0,-1259.0,1
825,825,0.7519201706156503,0.8,0.0,0.0,422.0,590.0,0.0,1,1988.0,1
826,826,0.051041127540493836,0.1,1.0,1.0,410.0,532.0,0.0,0,2058.0,0
827,827,0.8231523971041653,0.8,0.0,0.0,260.0,562.0,0.0,1,2178.0,1
828,828,-0.14024891778489224,-0.1,1.0,0.0,255.0,784.0,0.0,0,1961.0,1
829,829,-0.8758994951189938,-0.9,1.0,0.0,260.0,791.0,0.0,0,1949.0,1
830,830,-0.7798756223399962,-0.8,0.0,1.0,269.0,774.0,0.0,1,1957.0,0
831,831,-0.7618329620779742,-0.8,1.0,0.0,451.0,933.0,0.0,0,1616.0,1
832,832,0.5267045097439248,0.5,1.0,1.0,353.0,664.0,0.0,0,1983.0,0
833,833,0.08351344056310372,0.1,0.0,0.0,416.0,622.0,0.0,1,1962.0,1
834,834,0.16450735368454417,0.2,1.0,1.0,378.0,758.0,0.0,0,1864.0,0
835,835,0.5984429272838462,0.6,1.0,1.0,312.0,910.0,0.0,0,1778.0,0
836,836,0.6570538504606792,0.7,1.0,1.0,443.0,645.0,0.0,0,1912.0,0
837,837,0.5129325105804096,0.5,0.0,0.0,402.0,791.0,1.0,0,-1183.0,0
838,838,0.5606947894669242,0.6,1.0,1.0,379.0,848.0,0.0,0,1773.0,0
839,839,0.3191388553013693,0.3,0.0,0.0,407.0,556.0,0.0,1,2037.0,1
840,840,0.421866719190516,0.4,1.0,1.0,387.0,989.0,0.0,0,1624.0,0
841,841,0.6009961547492554,0.6,0.0,0.0,325.0,674.0,0.0,1,2001.0,1
842,842,0.8293876604258746,0.8,0.0,0.0,437.0,941.0,0.0,1,1622.0,1
843,843,-0.685449073996153,-0.7,1.0,0.0,250.0,732.0,0.0,0,2018.0,1
844,844,0.35305299891948694,0.4,0.0,0.0,404.0,991.0,0.0,1,1605.0,1
845,845,-0.12310594037954459,-0.1,1.0,0.0,353.0,913.0,1.0,1,-1246.0,0
846,846,0.7014132163654662,0.7,1.0,1.0,282.0,640.0,0.0,0,2078.0,0
847,847,0.7486614504300236,0.7,0.0,0.0,414.0,522.0,1.0,0,-876.0,0
848,848,-0.8076696464462744,-0.8,0.0,1.0,433.0,983.0,0.0,1,1584.0,0
849,849,-0.16090849458132273,-0.2,1.0,0.0,333.0,536.0,0.0,0,2131.0,1
850,850,-0.6257938674086072,-0.6,0.0,1.0,438.0,847.0,1.0,0,-1235.0,1
851,851,-0.830819839393341,-0.8,1.0,0.0,489.0,718.0,0.0,0,1793.0,1
852,852,0.6247467174067071,0.6,0.0,0.0,498.0,816.0,0.0,1,1686.0,1
853,853,-0.5281464136466605,-0.5,1.0,0.0,477.0,767.0,0.0,0,1756.0,1
854,854,-0.5669872943715875,-0.6,0.0,1.0,441.0,688.0,0.0,1,1871.0,0
855,855,0.5779134176120403,0.6,0.0,0.0,452.0,658.0,0.0,1,1890.0,1
856,856,0.2815400500228845,0.3,1.0,1.0,499.0,532.0,0.0,0,1969.0,0
857,857,0.2708506713202655,0.3,1.0,1.0,345.0,764.0,0.0,0,1891.0,0
858,858,0.34716770843827394,0.3,0.0,0.0,336.0,544.0,0.0,1,2120.0,1
859,859,0.19800470134887627,0.2,1.0,1.0,460.0,884.0,0.0,0,1656.0,0
860,860,-0.038774628047152926,-0.0,0.0,1.0,317.0,906.0,0.0,1,1777.0,0
861,861,-0.8495401609140858,-0.8,1.0,0.0,333.0,785.0,0.0,0,1882.0,1
862,862,0.4243411456885354,0.4,1.0,1.0,306.0,650.0,0.0,0,2044.0,0
863,863,-0.7877535790373705,-0.8,0.0,1.0,449.0,579.0,0.0,1,1972.0,0
864,864,-0.49565354034307924,-0.5,1.0,0.0,347.0,998.0,0.0,0,-1275.0,1
865,865,-0.10024991910927117,-0.1,0.0,1.0,367.0,998.0,0.0,1,1635.0,0
866,866,0.23621705068401389,0.2,0.0,0.0,365.0,849.0,0.0,1,1786.0,1
867,867,-0.7169410329963337,-0.7,0.0,1.0,478.0,713.0,0.0,1,1809.0,0
868,868,-0.03007969248682607,-0.0,0.0,1.0,393.0,591.0,0.0,1,2016.0,0
869,869,0.657530200712172,0.7,0.0,0.0,283.0,942.0,0.0,1,1775.0,1
870,870,-0.16837984106008475,-0.2,0.0,1.0,471.0,739.0,1.0,0,-1190.0,1
871,871,0.34046045181583706,0.3,1.0,1.0,376.0,734.0,1.0,1,-980.0,1
872,872,-0.39395637220024493,-0.4,0.0,1.0,431.0,812.0,0.0,1,1757.0,0
873,873,0.5508987509521269,0.6,1.0,1.0,301.0,525.0,0.0,0,2174.0,0
874,874,0.01266982665800509,0.0,1.0,1.0,456.0,781.0,0.0,0,1763.0,0
875,875,-0.8650447728980474,-0.9,1.0,0.0,329.0,930.0,0.0,0,1741.0,1
876,876,0.6940881756837064,0.7,0.0,0.0,276.0,995.0,0.0,1,1729.0,1
877,877,0.299183830316032,0.3,1.0,1.0,253.0,984.0,0.0,0,1763.0,0
878,878,-0.8797653884323294,-0.9,1.0,0.0,480.0,682.0,0.0,0,1838.0,1
879,879,-0.2723588117159821,-0.3,0.0,1.0,253.0,919.0,0.0,1,1828.0,0
880,880,-0.2049108809949155,-0.2,1.0,0.0,460.0,781.0,0.0,0,1759.0,1
881,881,-0.3046855441941566,-0.3,1.0,0.0,326.0,864.0,0.0,0,1810.0,1
882,882,0.09299691329513127,0.1,0.0,0.0,333.0,670.0,0.0,1,1997.0,1
883,883,-0.13948203228848444,-0.1,1.0,0.0,439.0,533.0,0.0,0,2028.0,1
884,884,-0.00423769560884335,-0.0,0.0,1.0,255.0,863.0,0.0,1,1882.0,0
885,885,0.34566233560913384,0.3,0.0,0.0,275.0,825.0,0.0,1,1900.0,1
886,886,-0.5096847883708642,-0.5,1.0,0.0,366.0,516.0,0.0,0,2118.0,1
887,887,-0.6322461054132125,-0.6,0.0,1.0,424.0,794.0,0.0,1,1782.0,0
888,888,-0.6532112320381934,-0.7,1.0,0.0,426.0,773.0,0.0,0,1801.0,1
889,889,-0.10111469479349611,-0.1,1.0,0.0,282.0,551.0,0.0,0,2167.0,1
890,890,-0.3217177990376262,-0.3,1.0,0.0,424.0,749.0,0.0,0,1827.0,1
891,891,-0.20686201172795649,-0.2,0.0,1.0,306.0,518.0,0.0,1,2176.0,0
892,892,-0.5340987271111493,-0.5,1.0,0.0,438.0,909.0,0.0,0,1653.0,1
893,893,-0.8731070452838425,-0.9,0.0,1.0,302.0,954.0,1.0,0,-1206.0,1
894,894,-0.45439198527182195,-0.5,1.0,0.0,471.0,524.0,0.0,0,2005.0,1
895,895,0.6353474155184818,0.6,1.0,1.0,427.0,812.0,0.0,0,1761.0,0
896,896,-0.4062989734044423,-0.4,1.0,0.0,358.0,556.0,0.0,0,2086.0,1
897,897,-0.05055141238470684,-0.1,0.0,1.0,428.0,937.0,0.0,1,1635.0,0
898,898,-0.1271429395669672,-0.1,0.0,1.0,251.0,961.0,0.0,1,-1072.0,0
899,899,-0.34557559210936784,-0.3,0.0,1.0,277.0,722.0,0.0,1,2001.0,0
900,900,-0.5932903944717758,-0.6,1.0,0.0,335.0,994.0,0.0,0,1671.0,1
901,901,-0.19425406581987992,-0.2,1.0,0.0,338.0,706.0,0.0,0,1956.0,1
902,902,-0.8294105444539946,-0.8,0.0,1.0,262.0,873.0,0.0,1,1865.0,0
903,903,0.8339680762519209,0.8,0.0,0.0,286.0,915.0,1.0,0,-1201.0,0
904,904,0.13896733458390031,0.1,1.0,1.0,466.0,741.0,0.0,0,1793.0,0
905,905,0.843433016868287,0.8,0.0,0.0,482.0,871.0,0.0,1,1647.0,1
906,906,-0.3657797182477095,-0.4,0.0,1.0,468.0,800.0,0.0,1,1732.0,0
907,907,0.14459784136958442,0.1,0.0,0.0,288.0,796.0,0.0,1,1916.0,1
908,908,-0.047875566877311204,-0.0,1.0,0.0,389.0,755.0,0.0,0,1856.0,1
909,909,0.3304069200949781,0.3,1.0,1.0,254.0,772.0,0.0,0,1974.0,0
910,910,0.8372999138818499,0.8,1.0,1.0,408.0,911.0,0.0,0,1681.0,0
911,911,-0.12130168151524579,-0.1,1.0,0.0,458.0,584.0,0.0,0,1958.0,1
912,912,0.24473005240680357,0.2,1.0,1.0,392.0,801.0,0.0,0,1807.0,0
913,913,0.42739868438845996,0.4,0.0,0.0,307.0,754.0,0.0,1,1939.0,1
914,914,0.8738582652809009,0.9,0.0,0.0,342.0,668.0,0.0,1,1990.0,1
915,915,0.6960718808047149,0.7,1.0,1.0,369.0,961.0,0.0,0,1670.0,0
916,916,0.20997058698953286,0.2,1.0,1.0,274.0,838.0,0.0,0,1888.0,0
917,917,-0.485419210277278,-0.5,0.0,1.0,310.0,875.0,0.0,1,1815.0,0
918,918,0.32905125629628096,0.3,0.0,0.0,289.0,746.0,0.0,1,1965.0,1
919,919,0.6905351625616539,0.7,0.0,0.0,281.0,852.0,0.0,1,1867.0,1
920,920,0.789680423402041,0.8,1.0,1.0,314.0,693.0,0.0,0,1993.0,0
921,921,-0.8691941559281229,-0.9,0.0,1.0,482.0,802.0,0.0,1,1716.0,0
922,922,-0.1090410802871562,-0.1,1.0,0.0,450.0,768.0,0.0,0,1782.0,1
923,923,0.32743497704982183,0.3,0.0,0.0,371.0,620.0,0.0,1,2009.0,1
924,924,-0.4240381260159061,-0.4,1.0,0.0,427.0,845.0,1.0,1,-1152.0,0
925,925,-0.35319697064364053,-0.4,1.0,0.0,391.0,758.0,0.0,0,1851.0,1
926,926,0.5915109485279916,0.6,0.0,0.0,295.0,529.0,0.0,1,2176.0,1
927,927,0.7067673349029587,0.7,0.0,0.0,494.0,689.0,0.0,1,1817.0,1
928,928,-0.26530655925536284,-0.3,0.0,1.0,321.0,864.0,0.0,1,1815.0,0
929,929,0.4458951571754103,0.4,1.0,1.0,458.0,615.0,0.0,0,1927.0,0
930,930,0.7794674934668336,0.8,1.0,1.0,412.0,894.0,0.0,0,1694.0,0
931,931,-0.7585133597624552,-0.8,1.0,0.0,428.0,709.0,0.0,0,1863.0,1
932,932,0.8120361859521962,0.8,1.0,1.0,433.0,551.0,0.0,0,2016.0,0
933,933,0.07271442217441793,0.1,0.0,0.0,371.0,570.0,0.0,1,2059.0,1
934,934,0.5760567753340132,0.6,0.0,0.0,250.0,528.0,1.0,0,-778.0,0
935,935,0.3317577671909536,0.3,0.0,0.0,411.0,705.0,0.0,1,1884.0,1
936,936,-0.24937102391159027,-0.2,0.0,1.0,380.0,949.0,0.0,1,1671.0,0
937,937,0.5456412025225762,0.5,1.0,1.0,260.0,797.0,0.0,0,1943.0,0
938,938,-0.313319518409895,-0.3,1.0,0.0,392.0,873.0,0.0,0,1735.0,1
939,939,-0.1052903557343835,-0.1,0.0,1.0,397.0,971.0,0.0,1,1632.0,0
940,940,0.17604395614567536,0.2,0.0,0.0,263.0,641.0,0.0,1,2096.0,1
941,941,-0.7230484391461263,-0.7,0.0,1.0,479.0,790.0,0.0,1,1731.0,0
942,942,-0.5845633247766246,-0.6,0.0,1.0,391.0,683.0,0.0,1,1926.0,0
943,943,0.2712767700366342,0.3,1.0,1.0,445.0,888.0,0.0,0,1667.0,0
944,944,-0.6544387682891807,-0.7,0.0,1.0,382.0,963.0,0.0,1,1655.0,0
945,945,-0.772286431503477,-0.8,0.0,1.0,443.0,951.0,0.0,1,1606.0,0
946,946,0.3175536086603604,0.3,0.0,0.0,368.0,804.0,0.0,1,1828.0,1
947,947,0.46800836495691434,0.5,1.0,1.0,403.0,614.0,0.0,0,1983.0,0
948,948,0.20366916902005572,0.2,0.0,0.0,321.0,802.0,0.0,1,1877.0,1
949,949,-0.7038931251952528,-0.7,1.0,0.0,359.0,598.0,0.0,0,2043.0,1
950,950,-0.13963864614684451,-0.1,0.0,1.0,449.0,559.0,0.0,1,1992.0,0
951,951,-0.5694227798693461,-0.6,0.0,1.0,468.0,875.0,0.0,1,1657.0,0
952,952,-0.48195515883048806,-0.5,0.0,1.0,287.0,627.0,0.0,1,2086.0,0
953,953,-0.10546692799446156,-0.1,0.0,1.0,483.0,751.0,0.0,1,1766.0,0
954,954,0.7300277122595874,0.7,1.0,1.0,485.0,533.0,0.0,0,-848.0,0
955,955,-0.36392288912966997,-0.4,0.0,1.0,308.0,897.0,0.0,1,1795.0,0
956,956,0.06763760846370526,0.1,0.0,0.0,331.0,934.0,0.0,1,1735.0,1
957,957,-0.5316941391304306,-0.5,1.0,0.0,408.0,781.0,0.0,0,1811.0,1
958,958,0.5987993688262582,0.6,0.0,0.0,290.0,595.0,0.0,1,2115.0,1
959,959,0.6574072571406396,0.7,1.0,1.0,421.0,877.0,0.0,0,-1258.0,0
960,960,0.35758100376747304,0.4,0.0,0.0,471.0,676.0,0.0,1,1853.0,1
961,961,0.5471181612699992,0.5,1.0,1.0,423.0,597.0,0.0,0,1980.0,0
962,962,0.39148602893370554,0.4,1.0,1.0,452.0,970.0,0.0,0,1578.0,0
963,963,-0.10744951018407245,-0.1,1.0,0.0,305.0,588.0,0.0,0,2107.0,1
964,964,-0.4455581557571692,-0.4,0.0,1.0,304.0,723.0,0.0,1,1973.0,0
965,965,-0.7890997766931259,-0.8,1.0,0.0,306.0,724.0,0.0,0,1970.0,1
966,966,0.12892142560679998,0.1,0.0,0.0,467.0,606.0,1.0,0,-873.0,0
967,967,0.2582106161960077,0.3,1.0,1.0,391.0,789.0,0.0,0,1820.0,0
968,968,-0.790665632306351,-0.8,1.0,0.0,444.0,987.0,1.0,1,-1351.0,0
969,969,-0.12466572295179634,-0.1,0.0,1.0,426.0,672.0,0.0,1,1902.0,0
970,970,-0.519034933738538,-0.5,1.0,0.0,363.0,511.0,0.0,0,2126.0,1
971,971,-0.13695681616723454,-0.1,1.0,0.0,483.0,788.0,0.0,0,1729.0,1
972,972,0.6601890431666891,0.7,1.0,1.0,454.0,853.0,0.0,0,1693.0,0
973,973,-0.3008730760062943,-0.3,0.0,1.0,301.0,505.0,0.0,1,2194.0,0
974,974,-0.22042895181525268,-0.2,0.0,1.0,253.0,863.0,0.0,1,1884.0,0
975,975,-0.49930669311188636,-0.5,0.0,1.0,379.0,826.0,0.0,1,1795.0,0
976,976,0.3086818149823042,0.3,0.0,0.0,392.0,886.0,0.0,1,1722.0,1
977,977,0.662022397765286,0.7,1.0,1.0,272.0,551.0,0.0,0,2177.0,0
978,978,-0.48613935325219265,-0.5,1.0,0.0,280.0,708.0,0.0,0,2012.0,1
979,979,0.7965439363452583,0.8,1.0,1.0,418.0,564.0,0.0,0,2018.0,0
980,980,0.7797602222152796,0.8,0.0,0.0,317.0,789.0,0.0,1,1894.0,1
981,981,0.7204684276080301,0.7,0.0,0.0,257.0,579.0,0.0,1,2164.0,1
982,982,0.1719238572530103,0.2,0.0,0.0,270.0,605.0,1.0,0,-875.0,0
983,983,-0.6153046264949433,-0.6,1.0,0.0,328.0,812.0,0.0,0,1860.0,1
984,984,0.8392879560920389,0.8,1.0,1.0,254.0,929.0,0.0,0,1817.0,0
985,985,-0.019505627803832026,-0.0,1.0,0.0,302.0,596.0,0.0,0,2102.0,1
986,986,-0.8184948961117459,-0.8,1.0,0.0,451.0,569.0,0.0,0,1980.0,1
987,987,0.27554379076380353,0.3,1.0,1.0,318.0,846.0,0.0,0,1836.0,0
988,988,0.7657796903675503,0.8,1.0,1.0,491.0,683.0,0.0,0,1826.0,0
989,989,0.162290178991925,0.2,1.0,1.0,467.0,819.0,0.0,0,1714.0,0
990,990,-0.7827457257252491,-0.8,1.0,0.0,337.0,714.0,0.0,0,1949.0,1
991,991,0.07939111293502887,0.1,0.0,0.0,293.0,730.0,0.0,1,1977.0,1
992,992,-0.1730833665827738,-0.2,0.0,1.0,476.0,902.0,0.0,1,1622.0,0
993,993,-0.5157705019207788,-0.5,0.0,1.0,275.0,826.0,0.0,1,1899.0,0
994,994,-0.30300928259318394,-0.3,1.0,0.0,403.0,614.0,0.0,0,1983.0,1
995,995,-0.0040619062500389935,-0.0,1.0,0.0,472.0,644.0,0.0,0,1884.0,1
996,996,-0.7114792882711733,-0.7,0.0,1.0,384.0,800.0,0.0,1,1816.0,0
997,997,0.721352931880428,0.7,0.0,0.0,415.0,513.0,0.0,1,2072.0,1
998,998,-0.3398210072524769,-0.3,1.0,0.0,354.0,704.0,0.0,0,1942.0,1
999,999,0.7171666999770455,0.7,0.0,0.0,251.0,643.0,0.0,1,-864.0,1
1000,1000,-0.6293010361361164,-0.6,0.0,1.0,476.0,640.0,0.0,1,1884.0,0
1001,1001,-0.05274168731186901,-0.1,1.0,0.0,405.0,543.0,0.0,0,2052.0,1
1002,1002,0.3216814968406193,0.3,0.0,0.0,388.0,997.0,0.0,1,1615.0,1
1003,1003,-0.3167542044713071,-0.3,0.0,1.0,381.0,506.0,0.0,1,2113.0,0
1004,1004,0.1865339744861999,0.2,1.0,1.0,402.0,501.0,0.0,0,2097.0,0
1005,1005,-0.11473215499267331,-0.1,1.0,0.0,404.0,568.0,0.0,0,2028.0,1
1006,1006,0.26015643258163,0.3,1.0,1.0,314.0,797.0,0.0,0,1889.0,0
1007,1007,0.1771726847071503,0.2,0.0,0.0,313.0,795.0,0.0,1,1892.0,1
1008,1008,0.5605149863603632,0.6,0.0,0.0,380.0,995.0,0.0,1,1625.0,1
1009,1009,0.8295679414334397,0.8,1.0,1.0,442.0,512.0,0.0,0,2046.0,0
1010,1010,-0.6657714414429321,-0.7,1.0,0.0,263.0,609.0,0.0,0,2128.0,1
1011,1011,-0.809404122639485,-0.8,0.0,1.0,305.0,855.0,0.0,1,1840.0,0
1012,1012,0.1960907616639681,0.2,1.0,1.0,323.0,723.0,0.0,0,1954.0,0
1013,1013,-0.34577447651074666,-0.3,1.0,0.0,414.0,674.0,1.0,1,-1048.0,0
1014,1014,-0.12202157324369989,-0.1,0.0,1.0,270.0,865.0,0.0,1,1865.0,0
1015,1015,-0.8160507032616827,-0.8,0.0,1.0,497.0,721.0,0.0,1,1782.0,0
1016,1016,0.8968137571414433,0.9,1.0,1.0,474.0,979.0,0.0,0,1547.0,0
1017,1017,0.07238548932518274,0.1,1.0,1.0,250.0,734.0,0.0,0,2016.0,0
1018,1018,-0.5762677109521874,-0.6,0.0,1.0,330.0,922.0,0.0,1,1748.0,0
1019,1019,-0.09712714858309968,-0.1,1.0,0.0,302.0,835.0,0.0,0,1863.0,1
1020,1020,0.8361049292272241,0.8,1.0,1.0,499.0,640.0,0.0,0,1861.0,0
1021,1021,-0.6098298914774547,-0.6,0.0,1.0,465.0,720.0,1.0,0,-1155.0,1
1022,1022,-0.8206443582383289,-0.8,1.0,0.0,391.0,949.0,0.0,0,1660.0,1
1023,1023,0.41761701848430455,0.4,1.0,1.0,412.0,636.0,0.0,0,1952.0,0
1024,1024,0.28568825099200057,0.3,1.0,1.0,349.0,733.0,0.0,0,1918.0,0
1025,1025,0.36920778894193995,0.4,0.0,0.0,401.0,860.0,0.0,1,1739.0,1
1026,1026,-0.3930828685680401,-0.4,1.0,0.0,485.0,688.0,0.0,0,1827.0,1
1027,1027,-0.0810571368905395,-0.1,0.0,1.0,295.0,548.0,0.0,1,2157.0,0
1028,1028,0.621866845062561,0.6,0.0,0.0,481.0,683.0,0.0,1,1836.0,1
1029,1029,0.7217865645123424,0.7,1.0,1.0,438.0,838.0,0.0,0,-1246.0,0
1030,1030,-0.8016633974218119,-0.8,1.0,0.0,454.0,757.0,0.0,0,1789.0,1
1031,1031,-0.8214410300647113,-0.8,0.0,1.0,283.0,714.0,0.0,1,2003.0,0
1032,1032,0.8280263311831312,0.8,1.0,1.0,261.0,509.0,0.0,0,2230.0,0
1033,1033,0.5098623407648627,0.5,1.0,1.0,311.0,991.0,0.0,0,1698.0,0
1034,1034,-0.18300057071816733,-0.2,0.0,1.0,389.0,686.0,0.0,1,1925.0,0
1035,1035,0.5436196457044075,0.5,1.0,1.0,368.0,865.0,0.0,0,1767.0,0
1036,1036,0.08702835569065448,0.1,1.0,1.0,324.0,796.0,0.0,0,1880.0,0
1037,1037,-0.7925078525266989,-0.8,1.0,0.0,363.0,763.0,0.0,0,1874.0,1
1038,1038,-0.5336759013355614,-0.5,1.0,0.0,346.0,840.0,0.0,0,1814.0,1
1039,1039,-0.7826300183926959,-0.8,0.0,1.0,322.0,911.0,0.0,1,1767.0,0
1040,1040,-0.1547735889520635,-0.2,0.0,1.0,457.0,980.0,1.0,0,-1387.0,1
1041,1041,0.32302357611697985,0.3,0.0,0.0,265.0,864.0,0.0,1,1871.0,1
1042,1042,-0.5664529292062153,-0.6,1.0,0.0,455.0,914.0,0.0,0,1631.0,1
1043,1043,0.5417826516704604,0.5,0.0,0.0,444.0,856.0,0.0,1,1700.0,1
1044,1044,0.5715729214512774,0.6,1.0,1.0,300.0,597.0,0.0,0,2103.0,0
1045,1045,0.07098914054260463,0.1,1.0,1.0,376.0,626.0,0.0,0,1998.0,0
1046,1046,0.7538528527155636,0.8,0.0,0.0,441.0,944.0,0.0,1,1615.0,1
1047,1047,-0.7607335654748626,-0.8,0.0,1.0,358.0,848.0,0.0,1,1794.0,0
1048,1048,-0.09685589265246242,-0.1,1.0,0.0,311.0,502.0,0.0,0,2187.0,1
1049,1049,-0.7584058206428396,-0.8,1.0,0.0,458.0,541.0,0.0,0,2001.0,1
1050,1050,-0.2541072212824186,-0.3,1.0,0.0,390.0,900.0,0.0,0,1710.0,1
1051,1051,-0.4576474709543393,-0.5,1.0,0.0,325.0,986.0,0.0,0,1689.0,1
1052,1052,-0.22391994874981558,-0.2,0.0,1.0,396.0,699.0,0.0,1,1905.0,0
1053,1053,-0.2995160156651605,-0.3,1.0,0.0,371.0,617.0,0.0,0,2012.0,1
1054,1054,0.10285553120448687,0.1,0.0,0.0,262.0,847.0,0.0,1,1891.0,1
1055,1055,0.2756579006940528,0.3,1.0,1.0,276.0,756.0,0.0,0,1968.0,0
1056,1056,0.36895027838942773,0.4,1.0,1.0,466.0,982.0,0.0,0,1552.0,0
1057,1057,-0.6259341873086901,-0.6,1.0,0.0,465.0,869.0,0.0,0,1666.0,1
1058,1058,-0.39868437542403345,-0.4,0.0,1.0,388.0,981.0,0.0,1,1631.0,0
1059,1059,-0.6903795517721109,-0.7,1.0,0.0,317.0,652.0,1.0,1,-949.0,0
1060,1060,0.8545963579374593,0.9,0.0,0.0,261.0,692.0,0.0,1,2047.0,1
1061,1061,-0.2522151603456959,-0.3,1.0,0.0,261.0,505.0,0.0,0,2234.0,1
1062,1062,-0.21902757973104203,-0.2,0.0,1.0,360.0,735.0,0.0,1,1905.0,0
1063,1063,-0.8808247545172434,-0.9,1.0,0.0,314.0,744.0,0.0,0,1942.0,1
1064,1064,-0.8715427460516807,-0.9,1.0,0.0,466.0,511.0,1.0,1,-787.0,0
1065,1065,0.7903759142733001,0.8,1.0,1.0,339.0,527.0,0.0,0,2134.0,0
1066,1066,-0.15664558860194122,-0.2,1.0,0.0,286.0,708.0,0.0,0,2006.0,1
1067,1067,0.08444722829266049,0.1,0.0,0.0,495.0,754.0,0.0,1,1751.0,1
1068,1068,0.07370054825439531,0.1,0.0,0.0,327.0,951.0,1.0,0,-1258.0,0
1069,1069,-0.4651649625939824,-0.5,1.0,0.0,334.0,992.0,0.0,0,1674.0,1
1070,1070,0.08409507790918946,0.1,0.0,0.0,411.0,663.0,0.0,1,1926.0,1
1071,1071,0.21645935590054288,0.2,1.0,1.0,436.0,739.0,0.0,0,1825.0,0
1072,1072,0.8777448242588161,0.9,1.0,1.0,479.0,658.0,0.0,0,1863.0,0
1073,1073,-0.24555691511781708,-0.2,1.0,0.0,326.0,756.0,0.0,0,1918.0,1
1074,1074,0.5747438785988345,0.6,0.0,0.0,362.0,700.0,0.0,1,1938.0,1
1075,1075,-0.2542159836883553,-0.3,0.0,1.0,351.0,886.0,0.0,1,1763.0,0
1076,1076,-0.2996150149637612,-0.3,1.0,0.0,451.0,882.0,0.0,0,1667.0,1
1077,1077,-0.10893990760836969,-0.1,1.0,0.0,398.0,685.0,0.0,0,1917.0,1
1078,1078,0.38705380445157156,0.4,0.0,0.0,477.0,613.0,0.0,1,1910.0,1
1079,1079,-0.1467509384338742,-0.1,0.0,1.0,251.0,540.0,0.0,1,2209.0,0
1080,1080,-0.09140115402062354,-0.1,0.0,1.0,365.0,552.0,0.0,1,2083.0,0
1081,1081,-0.34183858324834804,-0.3,1.0,0.0,472.0,982.0,0.0,0,1546.0,1
1082,1082,-0.4098672290474221,-0.4,1.0,0.0,418.0,972.0,0.0,0,1610.0,1
1083,1083,-0.16369903371073324,-0.2,1.0,0.0,432.0,978.0,0.0,0,1590.0,1
1084,1084,0.36901417352298804,0.4,1.0,1.0,349.0,962.0,0.0,0,1689.0,0
1085,1085,0.7102713171012248,0.7,1.0,1.0,268.0,528.0,0.0,0,2204.0,0
1086,1086,0.33160712618057187,0.3,0.0,0.0,314.0,704.0,1.0,0,-818.0,0
1087,1087,0.19590431025118382,0.2,1.0,1.0,421.0,976.0,0.0,0,1603.0,0
1088,1088,-0.6127334192422642,-0.6,1.0,0.0,462.0,890.0,1.0,1,-1332.0,0
1089,1089,0.6736008434958859,0.7,0.0,0.0,431.0,659.0,0.0,1,1910.0,1
1090,1090,-0.44060082885208396,-0.4,1.0,0.0,438.0,762.0,0.0,0,1800.0,1
1091,1091,0.7611085687176237,0.8,1.0,1.0,251.0,607.0,0.0,0,2142.0,0
1092,1092,-0.46312824774182915,-0.5,0.0,1.0,293.0,931.0,0.0,1,1776.0,0
1093,1093,0.03584283628224405,0.0,1.0,1.0,441.0,726.0,0.0,0,1833.0,0
1094,1094,0.5262043840141165,0.5,0.0,0.0,252.0,952.0,0.0,1,1796.0,1
1095,1095,0.8956381906237952,0.9,1.0,1.0,395.0,527.0,0.0,0,2078.0,0
1096,1096,-0.09202131332850771,-0.1,1.0,0.0,480.0,568.0,0.0,0,1952.0,1
1097,1097,-0.22457854030960145,-0.2,0.0,1.0,314.0,596.0,0.0,1,2090.0,0
1098,1098,-0.5237716886418075,-0.5,1.0,0.0,397.0,721.0,0.0,0,1882.0,1
1099,1099,-0.5781154563716258,-0.6,1.0,0.0,357.0,684.0,0.0,0,1959.0,1
1100,1100,0.5616581096503844,0.6,1.0,1.0,322.0,903.0,0.0,0,-1225.0,0
1101,1101,-0.3860679127716189,-0.4,1.0,0.0,434.0,960.0,0.0,0,1606.0,1
1102,1102,0.355777171640692,0.4,1.0,1.0,363.0,854.0,0.0,0,1783.0,0
1103,1103,-0.6860175722886019,-0.7,0.0,1.0,402.0,897.0,0.0,1,1701.0,0
1104,1104,0.5055029381101422,0.5,0.0,0.0,405.0,794.0,0.0,1,-1179.0,1
1105,1105,0.20977029669481195,0.2,1.0,1.0,440.0,746.0,0.0,0,1814.0,0
1106,1106,-0.3890666778783346,-0.4,0.0,1.0,445.0,946.0,0.0,1,1609.0,0
1107,1107,0.2657390581907332,0.3,0.0,0.0,326.0,871.0,0.0,1,1803.0,1
1108,1108,0.39459927900029,0.4,0.0,0.0,278.0,984.0,0.0,1,1738.0,1
1109,1109,-0.30460801730880893,-0.3,0.0,1.0,470.0,510.0,1.0,0,-960.0,1
1110,1110,-0.027032233610759793,-0.0,1.0,0.0,457.0,677.0,0.0,0,1866.0,1
1111,1111,0.05400753260444979,0.1,1.0,1.0,363.0,534.0,0.0,0,2103.0,0
1112,1112,0.6313767394771818,0.6,1.0,1.0,313.0,512.0,0.0,0,2175.0,0
1113,1113,0.7299947063768896,0.7,0.0,0.0,335.0,821.0,1.0,0,-1106.0,0
1114,1114,0.32112184136565214,0.3,0.0,0.0,472.0,729.0,0.0,1,1799.0,1
1115,1115,-0.1187529305717826,-0.1,0.0,1.0,281.0,727.0,0.0,1,1992.0,0
1116,1116,0.13156456644474768,0.1,1.0,1.0,315.0,644.0,0.0,0,2041.0,0
1117,1117,0.5035633568300669,0.5,1.0,1.0,439.0,889.0,1.0,1,-1238.0,1
1118,1118,0.14694335999667196,0.1,0.0,0.0,382.0,576.0,0.0,1,2042.0,1
1119,1119,-0.18473351991054943,-0.2,1.0,0.0,495.0,887.0,0.0,0,1618.0,1
1120,1120,-0.464113739443965,-0.5,0.0,1.0,477.0,928.0,0.0,1,-1325.0,0
1121,1121,-0.3323048762369857,-0.3,0.0,1.0,338.0,913.0,0.0,1,1749.0,0
1122,1122,0.3948134366448314,0.4,0.0,0.0,380.0,618.0,0.0,1,2002.0,1
1123,1123,-0.5893742649748261,-0.6,1.0,0.0,390.0,752.0,0.0,0,1858.0,1
1124,1124,-0.5989605556484496,-0.6,1.0,0.0,301.0,785.0,0.0,0,1914.0,1
1125,1125,0.4613765941557687,0.5,1.0,1.0,396.0,545.0,0.0,0,2059.0,0
1126,1126,0.26740766022466345,0.3,0.0,0.0,320.0,528.0,0.0,1,2152.0,1
1127,1127,0.5734604957205004,0.6,0.0,0.0,435.0,555.0,0.0,1,2010.0,1
1128,1128,0.339914976478659,0.3,0.0,0.0,314.0,544.0,0.0,1,2142.0,1
1129,1129,0.4132522968554525,0.4,1.0,1.0,492.0,582.0,0.0,0,1926.0,0
1130,1130,0.11510936007212147,0.1,1.0,1.0,285.0,829.0,1.0,1,-1034.0,1
1131,1131,0.8518660068511456,0.9,0.0,0.0,414.0,865.0,0.0,1,1721.0,1
1132,1132,-0.4058156959061314,-0.4,1.0,0.0,452.0,595.0,0.0,0,1953.0,1
1133,1133,0.5318296528164713,0.5,1.0,1.0,263.0,571.0,0.0,0,2166.0,0
1134,1134,-0.04335134167194776,-0.0,1.0,0.0,483.0,649.0,0.0,0,1868.0,1
1135,1135,0.7823430061857738,0.8,1.0,1.0,495.0,746.0,0.0,0,1759.0,0
1136,1136,-0.29094268576297777,-0.3,1.0,0.0,425.0,717.0,0.0,0,1858.0,1
1137,1137,0.5869014300894538,0.6,0.0,0.0,361.0,876.0,0.0,1,1763.0,1
1138,1138,-0.8155907921152805,-0.8,0.0,1.0,265.0,955.0,0.0,1,1780.0,0
1139,1139,-0.5248943941333778,-0.5,0.0,1.0,493.0,990.0,0.0,1,1517.0,0
1140,1140,0.7601535376883538,0.8,0.0,0.0,382.0,770.0,0.0,1,1848.0,1
1141,1141,0.14907362713472272,0.1,1.0,1.0,394.0,565.0,1.0,1,-919.0,1
1142,1142,-0.6873795656478885,-0.7,1.0,0.0,429.0,823.0,0.0,0,1748.0,1
1143,1143,0.555962043176531,0.6,0.0,0.0,485.0,904.0,0.0,1,1611.0,1
1144,1144,0.714280720224881,0.7,1.0,1.0,492.0,699.0,0.0,0,1809.0,0
1145,1145,0.12435279293256707,0.1,1.0,1.0,285.0,941.0,0.0,0,1774.0,0
1146,1146,0.5583783743767875,0.6,1.0,1.0,405.0,782.0,0.0,0,1813.0,0
1147,1147,0.7982529637447505,0.8,1.0,1.0,306.0,513.0,1.0,1,-799.0,1
1148,1148,0.4084815667947762,0.4,1.0,1.0,373.0,678.0,0.0,0,1949.0,0
1149,1149,-0.7273555924101924,-0.7,0.0,1.0,435.0,855.0,0.0,1,-1170.0,0
1150,1150,0.17390155587732525,0.2,0.0,0.0,466.0,905.0,0.0,1,1629.0,1
1151,1151,0.42127760215964927,0.4,0.0,0.0,435.0,700.0,1.0,0,-1025.0,0
1152,1152,-0.74108381194764,-0.7,1.0,0.0,432.0,563.0,0.0,0,2005.0,1
1153,1153,0.10749327526181263,0.1,1.0,1.0,328.0,595.0,0.0,0,2077.0,0
1154,1154,0.6961018476101669,0.7,0.0,0.0,364.0,939.0,0.0,1,1697.0,1
1155,1155,0.08891765307756339,0.1,1.0,1.0,406.0,677.0,0.0,0,1917.0,0
1156,1156,-0.4297967016207936,-0.4,0.0,1.0,359.0,958.0,0.0,1,1683.0,0
1157,1157,0.7800023663790941,0.8,1.0,1.0,319.0,523.0,0.0,0,2158.0,0
1158,1158,0.35123214741995656,0.4,0.0,0.0,285.0,628.0,0.0,1,2087.0,1
1159,1159,-0.2726070180543442,-0.3,0.0,1.0,255.0,985.0,0.0,1,1760.0,0
1160,1160,0.8157844136120312,0.8,0.0,0.0,284.0,939.0,0.0,1,1777.0,1
1161,1161,-0.30071252490282085,-0.3,1.0,0.0,295.0,747.0,0.0,0,1958.0,1
1162,1162,-0.8098682472693715,-0.8,0.0,1.0,265.0,908.0,0.0,1,1827.0,0
1163,1163,-0.8561495171408823,-0.9,0.0,1.0,292.0,937.0,0.0,1,1771.0,0
1164,1164,-0.8483350901000452,-0.8,1.0,0.0,451.0,523.0,0.0,0,2026.0,1
1165,1165,-0.2110207888027451,-0.2,1.0,0.0,410.0,527.0,0.0,0,2063.0,1
1166,1166,0.061163187049258716,0.1,0.0,0.0,298.0,868.0,0.0,1,1834.0,1
1167,1167,0.317186339224358,0.3,1.0,1.0,378.0,962.0,0.0,0,1660.0,0
1168,1168,-0.6196992156565677,-0.6,0.0,1.0,362.0,831.0,0.0,1,1807.0,0
1169,1169,0.1149114741654641,0.1,1.0,1.0,481.0,648.0,0.0,0,1871.0,0
1170,1170,-0.43115083507005414,-0.4,0.0,1.0,395.0,689.0,1.0,0,-1084.0,1
1171,1171,-0.42143411245724643,-0.4,1.0,0.0,437.0,979.0,0.0,0,1584.0,1
1172,1172,0.7656631636987864,0.8,0.0,0.0,467.0,656.0,0.0,1,1877.0,1
1173,1173,0.13749932084669492,0.1,0.0,0.0,281.0,763.0,1.0,0,-964.0,0
1174,1174,0.5023050591135964,0.5,1.0,1.0,356.0,662.0,0.0,0,1982.0,0
1175,1175,0.47835823085645013,0.5,1.0,1.0,389.0,580.0,0.0,0,2031.0,0
1176,1176,-0.13539854437914733,-0.1,1.0,0.0,260.0,982.0,0.0,0,1758.0,1
1177,1177,0.19759523672885126,0.2,1.0,1.0,317.0,940.0,0.0,0,1743.0,0
1178,1178,-0.016693657429986297,-0.0,1.0,0.0,450.0,937.0,0.0,0,1613.0,1
1179,1179,-0.7086186967885181,-0.7,0.0,1.0,323.0,548.0,0.0,1,2129.0,0
1180,1180,-0.23988629026787855,-0.2,0.0,1.0,331.0,617.0,1.0,0,-888.0,1
1181,1181,-0.6347968490517122,-0.6,1.0,0.0,413.0,830.0,0.0,0,1757.0,1
1182,1182,0.09100394459591155,0.1,0.0,0.0,471.0,905.0,0.0,1,1624.0,1
1183,1183,-0.4205737957987356,-0.4,0.0,1.0,439.0,826.0,0.0,1,1735.0,0
1184,1184,0.8482012330971179,0.8,0.0,0.0,311.0,973.0,0.0,1,1716.0,1
1185,1185,-0.055054006678847855,-0.1,0.0,1.0,367.0,629.0,0.0,1,2004.0,0
1186,1186,0.6116847940236608,0.6,1.0,1.0,481.0,562.0,0.0,0,1957.0,0
1187,1187,0.7894250010913823,0.8,0.0,0.0,297.0,849.0,0.0,1,1854.0,1
1188,1188,0.8035764657450347,0.8,0.0,0.0,256.0,964.0,0.0,1,1780.0,1
1189,1189,-0.1905936494675563,-0.2,1.0,0.0,287.0,919.0,0.0,0,1794.0,1
1190,1190,-0.8386596681951964,-0.8,1.0,0.0,498.0,748.0,0.0,0,1754.0,1
1191,1191,0.004504064716644218,0.0,0.0,0.0,441.0,645.0,0.0,1,1914.0,1
1192,1192,0.7502028344539539,0.8,0.0,0.0,364.0,807.0,0.0,1,1829.0,1
1193,1193,-0.3405849432299838,-0.3,0.0,1.0,305.0,609.0,0.0,1,-894.0,0
1194,1194,0.3634437334319577,0.4,1.0,1.0,494.0,982.0,0.0,0,1524.0,0
1195,1195,-0.41600281364779307,-0.4,1.0,0.0,491.0,730.0,0.0,0,1779.0,1
1196,1196,0.747944620755186,0.7,0.0,0.0,381.0,753.0,0.0,1,1866.0,1
1197,1197,-0.8388194262527859,-0.8,0.0,1.0,270.0,640.0,0.0,1,2090.0,0
1198,1198,-0.09530130533940917,-0.1,1.0,0.0,445.0,689.0,0.0,0,1866.0,1
1199,1199,-0.5116497709307657,-0.5,1.0,0.0,375.0,538.0,0.0,0,2087.0,1
1200,1200,0.25867282026217164,0.3,0.0,0.0,466.0,721.0,0.0,1,1813.0,1
1201,1201,-0.4086817056556714,-0.4,0.0,1.0,498.0,830.0,0.0,1,1672.0,0
1202,1202,-0.2791550971318174,-0.3,1.0,0.0,443.0,608.0,0.0,0,1949.0,1
1203,1203,0.8878678487932273,0.9,0.0,0.0,299.0,751.0,0.0,1,1950.0,1
1204,1204,0.599549341587437,0.6,1.0,1.0,367.0,646.0,0.0,0,1987.0,0
1205,1205,-0.8716845398122093,-0.9,1.0,0.0,349.0,861.0,0.0,0,1790.0,1
1206,1206,-0.27050124543289633,-0.3,0.0,1.0,483.0,561.0,0.0,1,1956.0,0
1207,1207,-0.4211551705290012,-0.4,0.0,1.0,418.0,780.0,0.0,1,1802.0,0
1208,1208,0.8739233448463178,0.9,1.0,1.0,283.0,886.0,0.0,0,1831.0,0
1209,1209,0.7774407112646445,0.8,0.0,0.0,438.0,906.0,0.0,1,1656.0,1
1210,1210,0.8661596470614775,0.9,1.0,1.0,343.0,549.0,0.0,0,2108.0,0
1211,1211,0.8006732302818195,0.8,0.0,0.0,422.0,617.0,0.0,1,1961.0,1
1212,1212,-0.5736066324657987,-0.6,0.0,1.0,461.0,994.0,0.0,1,1545.0,0
1213,1213,-0.6768843446949685,-0.7,0.0,1.0,375.0,756.0,0.0,1,1869.0,0
1214,1214,-0.09340166971257813,-0.1,1.0,0.0,266.0,522.0,0.0,0,2212.0,1
1215,1215,0.3154423250430717,0.3,1.0,1.0,364.0,700.0,0.0,0,1936.0,0
1216,1216,0.8522451772855798,0.9,0.0,0.0,482.0,501.0,0.0,1,2017.0,1
1217,1217,0.5686964747260163,0.6,1.0,1.0,322.0,541.0,0.0,0,2137.0,0
1218,1218,0.758666298984804,0.8,1.0,1.0,315.0,830.0,0.0,0,1855.0,0
1219,1219,0.5507247376808996,0.6,1.0,1.0,491.0,925.0,0.0,0,1584.0,0
1220,1220,-0.4131720178499729,-0.4,1.0,0.0,295.0,605.0,0.0,0,2100.0,1
1221,1221,0.4556011485740793,0.5,0.0,0.0,416.0,862.0,0.0,1,1722.0,1
1222,1222,-0.8077204693880666,-0.8,1.0,0.0,403.0,703.0,0.0,0,1894.0,1
1223,1223,-0.5455552653221521,-0.5,1.0,0.0,421.0,756.0,0.0,0,1823.0,1
1224,1224,-0.8436823598653844,-0.8,0.0,1.0,405.0,533.0,0.0,1,2062.0,0
1225,1225,0.20724973936461788,0.2,1.0,1.0,489.0,646.0,0.0,0,1865.0,0
1226,1226,0.5510403522373678,0.6,1.0,1.0,330.0,680.0,0.0,0,1990.0,0
1227,1227,-0.30505066680342074,-0.3,0.0,1.0,469.0,561.0,0.0,1,-1020.0,0
1228,1228,0.7603596464558867,0.8,1.0,1.0,464.0,970.0,0.0,0,1566.0,0
1229,1229,0.8481035326758221,0.8,0.0,0.0,348.0,950.0,0.0,1,1702.0,1
1230,1230,-0.6329975214933257,-0.6,0.0,1.0,291.0,685.0,0.0,1,2024.0,0
1231,1231,-0.0005771533478323709,-0.0,1.0,0.0,253.0,700.0,0.0,0,2047.0,1
1232,1232,-0.09088390601639662,-0.1,0.0,1.0,326.0,704.0,0.0,1,1970.0,0
1233,1233,0.8894975004871503,0.9,1.0,1.0,352.0,765.0,0.0,0,1883.0,0
1234,1234,-0.360810501245163,-0.4,0.0,1.0,342.0,520.0,0.0,1,2138.0,0
1235,1235,0.11778523434846055,0.1,0.0,0.0,385.0,502.0,0.0,1,2113.0,1
1236,1236,-0.7221071187270323,-0.7,0.0,1.0,336.0,629.0,0.0,1,2035.0,0
1237,1237,0.11858876111921635,0.1,1.0,1.0,296.0,718.0,0.0,0,1986.0,0
1238,1238,-0.8983692132113167,-0.9,1.0,0.0,378.0,639.0,0.0,0,1983.0,1
1239,1239,0.5107022926947088,0.5,0.0,0.0,494.0,831.0,0.0,1,1675.0,1
1240,1240,0.5498223345553067,0.5,1.0,1.0,335.0,789.0,0.0,0,1876.0,0
1241,1241,-0.17931164352166562,-0.2,1.0,0.0,303.0,765.0,0.0,0,1932.0,1
1242,1242,0.7506972408390601,0.8,0.0,0.0,458.0,592.0,0.0,1,1950.0,1
1243,1243,-0.39667808283378847,-0.4,0.0,1.0,299.0,504.0,0.0,1,2197.0,0
1244,1244,-0.4907023159772918,-0.5,0.0,1.0,374.0,932.0,0.0,1,1694.0,0
1245,1245,0.4926379982000205,0.5,1.0,1.0,330.0,928.0,0.0,0,1742.0,0
1246,1246,0.24959447863960638,0.2,1.0,1.0,401.0,948.0,0.0,0,1651.0,0
1247,1247,-0.027661629079374972,-0.0,1.0,0.0,472.0,888.0,0.0,0,1640.0,1
1248,1248,0.42519320975593733,0.4,0.0,0.0,338.0,539.0,0.0,1,2123.0,1
1249,1249,0.212596039386601,0.2,1.0,1.0,442.0,945.0,0.0,0,1613.0,0
1250,1250,0.34273288528071333,0.3,0.0,0.0,342.0,516.0,0.0,1,2142.0,1
1251,1251,0.02672288624928032,0.0,0.0,0.0,252.0,915.0,0.0,1,1833.0,1
1252,1252,-0.08622332369308505,-0.1,0.0,1.0,426.0,981.0,0.0,1,1593.0,0
1253,1253,-0.8063088415386467,-0.8,0.0,1.0,338.0,756.0,0.0,1,1906.0,0
1254,1254,-0.44038221591409177,-0.4,1.0,0.0,481.0,963.0,0.0,0,1556.0,1
1255,1255,0.4804061091312598,0.5,1.0,1.0,364.0,958.0,0.0,0,1678.0,0
1256,1256,0.17784912265424258,0.2,1.0,1.0,297.0,986.0,0.0,0,1717.0,0
1257,1257,0.14376829448571116,0.1,1.0,1.0,430.0,560.0,0.0,0,2010.0,0
1258,1258,-0.4518812635819728,-0.5,1.0,0.0,309.0,549.0,0.0,0,2142.0,1
1259,1259,-0.8952139980834455,-0.9,0.0,1.0,432.0,507.0,1.0,0,-889.0,1
1260,1260,-0.8341911868042179,-0.8,1.0,0.0,299.0,554.0,0.0,0,2147.0,1
1261,1261,0.8692060929381747,0.9,1.0,1.0,497.0,605.0,0.0,0,1898.0,0
1262,1262,0.1510496943274776,0.2,0.0,0.0,282.0,719.0,0.0,1,1999.0,1
1263,1263,-0.2762463888465324,-0.3,1.0,0.0,306.0,775.0,0.0,0,1919.0,1
1264,1264,0.4638597861917534,0.5,0.0,0.0,267.0,655.0,0.0,1,2078.0,1
1265,1265,-0.6375075895984027,-0.6,1.0,0.0,428.0,612.0,0.0,0,1960.0,1
1266,1266,-0.8767306504820724,-0.9,0.0,1.0,307.0,579.0,0.0,1,2114.0,0
1267,1267,-0.3474481401871359,-0.3,1.0,0.0,297.0,816.0,0.0,0,1887.0,1
1268,1268,-0.5235169428643031,-0.5,1.0,0.0,421.0,737.0,0.0,0,1842.0,1
1269,1269,-0.7753643262728823,-0.8,0.0,1.0,265.0,804.0,0.0,1,1931.0,0
1270,1270,-0.8849522102375398,-0.9,1.0,0.0,366.0,586.0,0.0,0,2048.0,1
1271,1271,-0.07227447344189519,-0.1,0.0,1.0,405.0,835.0,0.0,1,1760.0,0
1272,1272,-0.4796295369147807,-0.5,1.0,0.0,317.0,595.0,0.0,0,2088.0,1
1273,1273,-0.16724639362339477,-0.2,1.0,0.0,480.0,986.0,0.0,0,1534.0,1
1274,1274,0.21568801113333735,0.2,1.0,1.0,437.0,941.0,0.0,0,1622.0,0
1275,1275,-0.6664621802169713,-0.7,0.0,1.0,312.0,975.0,0.0,1,1713.0,0
1276,1276,-0.05269955391856729,-0.1,0.0,1.0,333.0,626.0,0.0,1,2041.0,0
1277,1277,0.4759287499065977,0.5,0.0,0.0,406.0,689.0,0.0,1,1905.0,1
1278,1278,0.2483367099942334,0.2,1.0,1.0,444.0,632.0,0.0,0,1924.0,0
1279,1279,0.5064345601153203,0.5,1.0,1.0,402.0,708.0,0.0,0,1890.0,0
1280,1280,0.012738844482217293,0.0,1.0,1.0,419.0,687.0,0.0,0,1894.0,0
1281,1281,0.6233074177871621,0.6,0.0,0.0,328.0,534.0,0.0,1,2138.0,1
1282,1282,0.47977320115949273,0.5,1.0,1.0,327.0,838.0,0.0,0,1835.0,0
1283,1283,0.6206575527475168,0.6,0.0,0.0,292.0,658.0,0.0,1,2050.0,1
1284,1284,-0.5721050994400978,-0.6,0.0,1.0,260.0,902.0,0.0,1,1838.0,0
1285,1285,-0.22291835927520676,-0.2,0.0,1.0,292.0,689.0,0.0,1,2019.0,0
1286,1286,0.7647797471436727,0.8,1.0,1.0,253.0,788.0,0.0,0,1959.0,0
1287,1287,0.44727080018848475,0.4,1.0,1.0,493.0,960.0,0.0,0,1547.0,0
1288,1288,0.5096726027728039,0.5,1.0,1.0,353.0,501.0,0.0,0,2146.0,0
1289,1289,-0.42958433341465724,-0.4,1.0,0.0,387.0,512.0,0.0,0,2101.0,1
1290,1290,-0.8183485220208214,-0.8,0.0,1.0,444.0,594.0,0.0,1,1962.0,0
1291,1291,-0.7027099062647724,-0.7,1.0,0.0,292.0,660.0,0.0,0,2048.0,1
1292,1292,0.5739145168896117,0.6,1.0,1.0,379.0,959.0,0.0,0,1662.0,0
1293,1293,-0.4727046977046695,-0.5,0.0,1.0,346.0,538.0,0.0,1,2116.0,0
1294,1294,0.14672103900060163,0.1,0.0,0.0,356.0,742.0,0.0,1,1902.0,1
1295,1295,-0.8300684787793203,-0.8,0.0,1.0,389.0,690.0,0.0,1,1921.0,0
1296,1296,0.012933450469195917,0.0,0.0,0.0,392.0,596.0,0.0,1,2012.0,1
1297,1297,-0.5377174152121174,-0.5,1.0,0.0,468.0,785.0,0.0,0,1747.0,1
1298,1298,-0.5414606927825624,-0.5,1.0,0.0,444.0,687.0,0.0,0,1869.0,1
1299,1299,-0.2646469593303493,-0.3,0.0,1.0,480.0,506.0,1.0,0,-946.0,1
1300,1300,-0.7119295487891606,-0.7,0.0,1.0,282.0,906.0,0.0,1,1812.0,0
1301,1301,0.40047134493765013,0.4,0.0,0.0,349.0,843.0,0.0,1,1808.0,1
1302,1302,0.07212373290045737,0.1,1.0,1.0,468.0,932.0,0.0,0,1600.0,0
1303,1303,0.6931586773380242,0.7,1.0,1.0,365.0,787.0,0.0,0,1848.0,0
1304,1304,-0.4465841679688359,-0.4,0.0,1.0,254.0,665.0,0.0,1,2081.0,0
1305,1305,-0.15471840555599614,-0.2,1.0,0.0,414.0,576.0,0.0,0,2010.0,1
1306,1306,-0.34409106305261994,-0.3,1.0,0.0,285.0,969.0,0.0,0,1746.0,1
1307,1307,-0.38774639008819234,-0.4,1.0,0.0,251.0,958.0,0.0,0,1791.0,1
1308,1308,-0.8127155284521562,-0.8,0.0,1.0,386.0,690.0,0.0,1,-1066.0,0
1309,1309,-0.7947767248425005,-0.8,1.0,0.0,482.0,820.0,0.0,0,1698.0,1
1310,1310,0.1657322519261285,0.2,0.0,0.0,399.0,721.0,0.0,1,1880.0,1
1311,1311,-0.5663934395868824,-0.6,0.0,1.0,439.0,760.0,0.0,1,1801.0,0
1312,1312,0.8212380236966282,0.8,0.0,0.0,284.0,943.0,0.0,1,1773.0,1
1313,1313,-0.8803808817958158,-0.9,0.0,1.0,294.0,639.0,0.0,1,2067.0,0
1314,1314,-0.02931748413645152,-0.0,1.0,0.0,380.0,824.0,0.0,0,1796.0,1
1315,1315,-0.2151849051776904,-0.2,0.0,1.0,468.0,506.0,0.0,1,2026.0,0
1316,1316,0.7040259091162125,0.7,1.0,1.0,454.0,947.0,0.0,0,1599.0,0
1317,1317,0.3346391850272733,0.3,0.0,0.0,496.0,632.0,0.0,1,1872.0,1
1318,1318,-0.8984268064654977,-0.9,0.0,1.0,401.0,615.0,0.0,1,1984.0,0
1319,1319,0.31733001640037817,0.3,0.0,0.0,485.0,700.0,0.0,1,1815.0,1
1320,1320,-0.03295567121242715,-0.0,0.0,1.0,469.0,967.0,0.0,1,1564.0,0
1321,1321,-0.10054609230755818,-0.1,1.0,0.0,339.0,914.0,0.0,0,1747.0,1
1322,1322,0.139048305899376,0.1,1.0,1.0,485.0,555.0,0.0,0,1960.0,0
1323,1323,-0.7922904975906995,-0.8,1.0,0.0,296.0,847.0,0.0,0,1857.0,1
1324,1324,0.09493491530233555,0.1,0.0,0.0,287.0,623.0,0.0,1,2090.0,1
1325,1325,0.8588671458834741,0.9,0.0,0.0,454.0,952.0,0.0,1,1594.0,1
1326,1326,0.4466396830254197,0.4,0.0,0.0,324.0,508.0,0.0,1,2168.0,1
1327,1327,-0.6474306648281286,-0.6,1.0,0.0,408.0,789.0,0.0,0,1803.0,1
1328,1328,0.84240141484638,0.8,1.0,1.0,355.0,662.0,0.0,0,1983.0,0
1329,1329,0.5158809206005625,0.5,0.0,0.0,434.0,773.0,0.0,1,1793.0,1
1330,1330,-0.07508878324722024,-0.1,0.0,1.0,405.0,745.0,0.0,1,1850.0,0
1331,1331,-0.15851392216104476,-0.2,0.0,1.0,376.0,719.0,0.0,1,1905.0,0
1332,1332,-0.8052709187554559,-0.8,0.0,1.0,353.0,596.0,0.0,1,2051.0,0
1333,1333,0.2607859809540244,0.3,1.0,1.0,399.0,955.0,0.0,0,1646.0,0
1334,1334,-0.7781465344704758,-0.8,1.0,0.0,360.0,839.0,0.0,0,1801.0,1
1335,1335,-0.3229378487808775,-0.3,0.0,1.0,293.0,610.0,0.0,1,2097.0,0
1336,1336,0.1284406527516987,0.1,1.0,1.0,307.0,534.0,0.0,0,2159.0,0
1337,1337,0.5618717072630127,0.6,0.0,0.0,286.0,741.0,0.0,1,1973.0,1
1338,1338,0.6556107929827387,0.7,0.0,0.0,380.0,709.0,0.0,1,1911.0,1
1339,1339,0.2065668763472187,0.2,0.0,0.0,475.0,941.0,0.0,1,1584.0,1
1340,1340,-0.8161716954938741,-0.8,1.0,0.0,448.0,862.0,0.0,0,1690.0,1
1341,1341,0.08645393088471454,0.1,1.0,1.0,375.0,707.0,0.0,0,1918.0,0
1342,1342,0.1960989377218808,0.2,0.0,0.0,341.0,919.0,0.0,1,1740.0,1
1343,1343,0.3952538159053468,0.4,1.0,1.0,498.0,823.0,0.0,0,1679.0,0
1344,1344,-0.3507175872132755,-0.4,0.0,1.0,452.0,953.0,0.0,1,1595.0,0
1345,1345,0.6989301823414881,0.7,1.0,1.0,383.0,919.0,0.0,0,1698.0,0
1346,1346,-0.32286272914066805,-0.3,1.0,0.0,356.0,799.0,0.0,0,1845.0,1
1347,1347,0.43691676064516927,0.4,0.0,0.0,432.0,979.0,0.0,1,1589.0,1
1348,1348,-0.5177641761349419,-0.5,1.0,0.0,320.0,577.0,0.0,0,2103.0,1
1349,1349,-0.5993136600248316,-0.6,0.0,1.0,266.0,958.0,0.0,1,1776.0,0
1350,1350,-0.3440531817626067,-0.3,0.0,1.0,370.0,536.0,0.0,1,2094.0,0
1351,1351,0.6263582392947481,0.6,1.0,1.0,352.0,976.0,0.0,0,1672.0,0
1352,1352,-0.3481047885647688,-0.3,1.0,0.0,280.0,636.0,0.0,0,2084.0,1
1353,1353,-0.18264030680166554,-0.2,1.0,0.0,433.0,652.0,0.0,0,1915.0,1
1354,1354,0.5569045804957781,0.6,0.0,0.0,318.0,697.0,0.0,1,1985.0,1
1355,1355,-0.8649973616888897,-0.9,1.0,0.0,475.0,999.0,0.0,0,1526.0,1
1356,1356,0.47136727460648753,0.5,1.0,1.0,452.0,553.0,0.0,0,1995.0,0
1357,1357,0.41648702330545506,0.4,1.0,1.0,352.0,635.0,0.0,0,2013.0,0
1358,1358,0.1507595889742167,0.2,0.0,0.0,464.0,975.0,0.0,1,1561.0,1
1359,1359,0.05011217078652663,0.1,1.0,1.0,305.0,627.0,0.0,0,2068.0,0
1360,1360,0.2188338308014549,0.2,0.0,0.0,250.0,647.0,0.0,1,2103.0,1
1361,1361,0.5026870977035817,0.5,1.0,1.0,319.0,972.0,0.0,0,1709.0,0
1362,1362,0.19839043530313571,0.2,0.0,0.0,267.0,832.0,0.0,1,1901.0,1
1363,1363,-0.4340331155539038,-0.4,0.0,1.0,472.0,950.0,0.0,1,1578.0,0
1364,1364,-0.1469071806372152,-0.1,0.0,1.0,348.0,731.0,0.0,1,1921.0,0
1365,1365,-0.5302035378250001,-0.5,0.0,1.0,361.0,839.0,0.0,1,1800.0,0
1366,1366,0.41029074681457434,0.4,0.0,0.0,284.0,570.0,0.0,1,2146.0,1
1367,1367,0.8672982020474517,0.9,0.0,0.0,258.0,984.0,0.0,1,1758.0,1
1368,1368,0.7676443390050841,0.8,1.0,1.0,303.0,815.0,0.0,0,1882.0,0
1369,1369,-0.5642387837780258,-0.6,1.0,0.0,440.0,513.0,0.0,0,2047.0,1
1370,1370,-0.24287771587798745,-0.2,1.0,0.0,477.0,628.0,0.0,0,1895.0,1
1371,1371,-0.48983602033118934,-0.5,0.0,1.0,276.0,841.0,0.0,1,1883.0,0
1372,1372,0.04384379698362617,0.0,0.0,0.0,304.0,845.0,0.0,1,1851.0,1
1373,1373,0.21796008383412746,0.2,1.0,1.0,476.0,990.0,0.0,0,1534.0,0
1374,1374,0.7684610688755499,0.8,0.0,0.0,441.0,727.0,0.0,1,1832.0,1
1375,1375,-0.6026931081632633,-0.6,1.0,0.0,325.0,772.0,0.0,0,1903.0,1
1376,1376,0.6473493671265015,0.6,1.0,1.0,495.0,833.0,0.0,0,1672.0,0
1377,1377,0.2164704989004943,0.2,0.0,0.0,264.0,794.0,0.0,1,1942.0,1
1378,1378,0.7135828383307558,0.7,0.0,0.0,335.0,976.0,0.0,1,1689.0,1
1379,1379,-0.33098621598549716,-0.3,0.0,1.0,262.0,797.0,0.0,1,1941.0,0
1380,1380,-0.8875946476960611,-0.9,0.0,1.0,474.0,721.0,0.0,1,1805.0,0
1381,1381,-0.3713860240232719,-0.4,1.0,0.0,278.0,684.0,0.0,0,2038.0,1
1382,1382,0.12778368512057214,0.1,0.0,0.0,438.0,730.0,0.0,1,1832.0,1
1383,1383,0.04671038552725282,0.0,0.0,0.0,351.0,669.0,0.0,1,1980.0,1
1384,1384,-0.22894218713055725,-0.2,1.0,0.0,380.0,866.0,0.0,0,1754.0,1
1385,1385,-0.48973692553765846,-0.5,0.0,1.0,360.0,748.0,0.0,1,1892.0,0
1386,1386,-0.28744231665557096,-0.3,0.0,1.0,471.0,923.0,0.0,1,1606.0,0
1387,1387,0.5284034923316289,0.5,1.0,1.0,484.0,620.0,0.0,0,1896.0,0
1388,1388,-0.6216243796232874,-0.6,1.0,0.0,306.0,573.0,0.0,0,2121.0,1
1389,1389,-0.8574323669966161,-0.9,0.0,1.0,447.0,566.0,0.0,1,1987.0,0
1390,1390,0.824225692226695,0.8,1.0,1.0,381.0,837.0,0.0,0,1782.0,0
1391,1391,0.20173267711371812,0.2,0.0,0.0,332.0,906.0,0.0,1,1762.0,1
1392,1392,-0.23135469604025594,-0.2,1.0,0.0,302.0,623.0,0.0,0,2075.0,1
1393,1393,0.7277640586116932,0.7,1.0,1.0,379.0,721.0,0.0,0,1900.0,0
1394,1394,-0.17243112197406296,-0.2,1.0,0.0,463.0,801.0,0.0,0,1736.0,1
1395,1395,0.6604061326252154,0.7,0.0,0.0,416.0,748.0,0.0,1,1836.0,1
1396,1396,0.16741812770777031,0.2,1.0,1.0,487.0,903.0,0.0,0,1610.0,0
1397,1397,-0.3985470983638063,-0.4,0.0,1.0,351.0,645.0,0.0,1,2004.0,0
1398,1398,-0.8654280054016961,-0.9,0.0,1.0,465.0,973.0,0.0,1,1562.0,0
1399,1399,0.7794167127742447,0.8,0.0,0.0,381.0,655.0,0.0,1,1964.0,1
1400,1400,-0.4132138464892419,-0.4,1.0,0.0,263.0,630.0,0.0,0,2107.0,1
1401,1401,-0.8572198305847523,-0.9,1.0,0.0,370.0,919.0,0.0,0,1711.0,1
1402,1402,-0.2406944126818008,-0.2,0.0,1.0,396.0,754.0,0.0,1,1850.0,0
1403,1403,0.5249456118331336,0.5,0.0,0.0,448.0,527.0,0.0,1,2025.0,1
1404,1404,0.6752828636241496,0.7,1.0,1.0,396.0,804.0,0.0,0,1800.0,0
1405,1405,-0.01906499869196754,-0.0,1.0,0.0,381.0,625.0,0.0,0,1994.0,1
1406,1406,-0.036395363907580136,-0.0,0.0,1.0,430.0,897.0,0.0,1,1673.0,0
1407,1407,-0.05694952622928695,-0.1,0.0,1.0,305.0,857.0,0.0,1,1838.0,0
1408,1408,-0.41638133128784877,-0.4,1.0,0.0,329.0,730.0,0.0,0,1941.0,1
1409,1409,0.827748886620041,0.8,0.0,0.0,444.0,840.0,0.0,1,1716.0,1
1410,1410,-0.7179830645169748,-0.7,0.0,1.0,310.0,892.0,0.0,1,1798.0,0
1411,1411,0.6371155160596748,0.6,1.0,1.0,342.0,846.0,0.0,0,1812.0,0
1412,1412,-0.8969220226656263,-0.9,1.0,0.0,284.0,730.0,0.0,0,1986.0,1
1413,1413,0.22186053951275586,0.2,1.0,1.0,401.0,676.0,0.0,0,1923.0,0
1414,1414,-0.28467055785277184,-0.3,1.0,0.0,472.0,863.0,0.0,0,1665.0,1
1415,1415,0.6946298005582693,0.7,1.0,1.0,328.0,572.0,1.0,1,-860.0,1
1416,1416,-0.29355649064908085,-0.3,1.0,0.0,416.0,939.0,0.0,0,1645.0,1
1417,1417,0.7693410757746885,0.8,1.0,1.0,412.0,693.0,1.0,1,-1035.0,1
1418,1418,-0.5776876864288683,-0.6,1.0,0.0,323.0,818.0,0.0,0,1859.0,1
1419,1419,-0.12858148138860137,-0.1,0.0,1.0,430.0,737.0,0.0,1,1833.0,0
1420,1420,0.09160479914254616,0.1,0.0,0.0,327.0,659.0,0.0,1,2014.0,1
1421,1421,0.4861726696968597,0.5,1.0,1.0,495.0,876.0,0.0,0,1629.0,0
1422,1422,-0.07562645610515628,-0.1,0.0,1.0,315.0,691.0,0.0,1,1994.0,0
1423,1423,-0.03293700262644017,-0.0,0.0,1.0,349.0,798.0,0.0,1,1853.0,0
1424,1424,0.7043586109140841,0.7,0.0,0.0,295.0,810.0,0.0,1,1895.0,1
1425,1425,-0.09191334000942941,-0.1,1.0,0.0,389.0,643.0,0.0,0,1968.0,1
1426,1426,0.5829454792913694,0.6,0.0,0.0,469.0,596.0,0.0,1,1935.0,1
1427,1427,0.7651600638241293,0.8,0.0,0.0,456.0,895.0,0.0,1,1649.0,1
1428,1428,0.7499656591650997,0.7,0.0,0.0,325.0,803.0,0.0,1,1872.0,1
1429,1429,-0.2285234488124981,-0.2,1.0,0.0,498.0,627.0,0.0,0,1875.0,1
1430,1430,-0.156116334432013,-0.2,0.0,1.0,266.0,595.0,0.0,1,2139.0,0
1431,1431,-0.3745169009622926,-0.4,1.0,0.0,425.0,819.0,0.0,0,1756.0,1
1432,1432,0.7378148630829854,0.7,1.0,1.0,342.0,656.0,0.0,0,2002.0,0
1433,1433,-0.17999055847153356,-0.2,0.0,1.0,289.0,814.0,0.0,1,1897.0,0
1434,1434,-0.8816278757832161,-0.9,0.0,1.0,446.0,550.0,0.0,1,2004.0,0
1435,1435,0.1771385814485532,0.2,0.0,0.0,406.0,718.0,0.0,1,1876.0,1
1436,1436,0.34831448863476433,0.3,1.0,1.0,316.0,686.0,0.0,0,1998.0,0
1437,1437,-0.31581624774592865,-0.3,1.0,0.0,362.0,942.0,0.0,0,1696.0,1
1438,1438,0.10461217693475844,0.1,1.0,1.0,279.0,888.0,0.0,0,1833.0,0
1439,1439,-0.5234459624154477,-0.5,1.0,0.0,357.0,589.0,0.0,0,2054.0,1
1440,1440,-0.47876004850265286,-0.5,0.0,1.0,456.0,821.0,0.0,1,1723.0,0
1441,1441,-0.6815002652875726,-0.7,0.0,1.0,276.0,993.0,0.0,1,1731.0,0
1442,1442,0.2986921370544652,0.3,0.0,0.0,264.0,667.0,0.0,1,2069.0,1
1443,1443,0.24994114074470553,0.2,1.0,1.0,375.0,614.0,0.0,0,2011.0,0
1444,1444,0.17463526369919735,0.2,0.0,0.0,257.0,944.0,0.0,1,1799.0,1
1445,1445,0.14412841261747078,0.1,0.0,0.0,474.0,976.0,0.0,1,1550.0,1
1446,1446,0.8103747533683067,0.8,1.0,1.0,463.0,884.0,0.0,0,1653.0,0
1447,1447,0.6641625166354047,0.7,0.0,0.0,430.0,814.0,0.0,1,1756.0,1
1448,1448,-0.8923518029400384,-0.9,1.0,0.0,443.0,900.0,0.0,0,1657.0,1
1449,1449,-0.564662799873729,-0.6,0.0,1.0,379.0,654.0,0.0,1,1967.0,0
1450,1450,0.4383785230697249,0.4,0.0,0.0,280.0,884.0,0.0,1,1836.0,1
1451,1451,0.14509334469297686,0.1,0.0,0.0,277.0,881.0,0.0,1,1842.0,1
1452,1452,0.5695060434754932,0.6,1.0,1.0,448.0,840.0,0.0,0,1712.0,0
1453,1453,0.058990386277671614,0.1,1.0,1.0,310.0,993.0,0.0,0,1697.0,0
1454,1454,0.8543496774521068,0.9,0.0,0.0,383.0,820.0,0.0,1,1797.0,1
1455,1455,0.6556713548400271,0.7,1.0,1.0,470.0,859.0,0.0,0,1671.0,0
1456,1456,-0.12527940258071935,-0.1,1.0,0.0,376.0,927.0,0.0,0,1697.0,1
1457,1457,-0.19402237342850936,-0.2,0.0,1.0,271.0,670.0,0.0,1,2059.0,0
1458,1458,-0.26526490401483993,-0.3,0.0,1.0,312.0,747.0,0.0,1,1941.0,0
1459,1459,-0.7489288495300864,-0.7,0.0,1.0,360.0,623.0,0.0,1,2017.0,0
1460,1460,-0.27954386687301713,-0.3,0.0,1.0,343.0,872.0,0.0,1,1785.0,0
1461,1461,-0.20649174136837978,-0.2,1.0,0.0,451.0,541.0,0.0,0,2008.0,1
1462,1462,-0.4692619282179216,-0.5,0.0,1.0,275.0,743.0,0.0,1,1982.0,0
1463,1463,-0.24856945717341505,-0.2,0.0,1.0,488.0,975.0,0.0,1,1537.0,0
1464,1464,-0.8919333082541308,-0.9,1.0,0.0,329.0,866.0,0.0,0,1805.0,1
1465,1465,-0.011130543132287674,-0.0,0.0,1.0,455.0,664.0,0.0,1,1881.0,0
1466,1466,-0.3336148637773749,-0.3,0.0,1.0,367.0,926.0,0.0,1,1707.0,0
1467,1467,0.23620122562706614,0.2,0.0,0.0,361.0,532.0,0.0,1,2107.0,1
1468,1468,0.7713093151163343,0.8,0.0,0.0,252.0,993.0,0.0,1,1755.0,1
1469,1469,0.7719224544335973,0.8,0.0,0.0,378.0,515.0,0.0,1,2107.0,1
1470,1470,-0.5453710300166512,-0.5,1.0,0.0,262.0,601.0,0.0,0,2137.0,1
1471,1471,-0.026110700845842105,-0.0,1.0,0.0,342.0,934.0,0.0,0,1724.0,1
