,trial,coherence,coherence_bin,green_side,correct_side,target_onset,checker_onset,decision,green_decision,decision_time,correct_decision
0,0,-0.33735813019103944,-0.3,0.0,1.0,269.0,623.0,1.0,0,638.0,1
1,1,-0.7078921448672113,-0.7,1.0,0.0,323.0,970.0,0.0,0,157.0,1
2,2,-0.6649213629571019,-0.7,1.0,0.0,273.0,737.0,0.0,0,270.0,1
3,3,0.8321930828923806,0.8,1.0,1.0,334.0,667.0,1.0,1,239.0,1
4,4,0.4723979843767966,0.5,0.0,0.0,264.0,515.0,0.0,1,141.0,1
5,5,-0.10210021753749521,-0.1,0.0,1.0,481.0,548.0,0.0,1,3971.0,0
6,6,0.4983769168391371,0.5,0.0,0.0,401.0,779.0,0.0,1,800.0,1
7,7,-0.6651557700133064,-0.7,0.0,1.0,483.0,658.0,1.0,0,289.0,1
8,8,-0.22996466727998321,-0.2,0.0,1.0,401.0,778.0,1.0,0,721.0,1
9,9,0.4151847120451434,0.4,0.0,0.0,440.0,875.0,0.0,1,285.0,1
10,10,0.333714810528415,0.3,0.0,0.0,380.0,701.0,0.0,1,179.0,1
11,11,0.6189163288689498,0.6,0.0,0.0,294.0,657.0,0.0,1,339.0,1
12,12,-0.49175753133726635,-0.5,0.0,1.0,341.0,760.0,1.0,0,299.0,1
13,13,-0.3510594380700901,-0.4,0.0,1.0,343.0,992.0,1.0,0,335.0,1
14,14,0.6367623164677191,0.6,1.0,1.0,493.0,545.0,1.0,1,312.0,1
15,15,-0.8585118172645984,-0.9,0.0,1.0,334.0,691.0,1.0,0,85.0,1
16,16,-0.8722139535149445,-0.9,1.0,0.0,313.0,734.0,0.0,0,243.0,1
17,17,0.8440875964175679,0.8,1.0,1.0,444.0,875.0,1.0,1,131.0,1
18,18,0.5830201430724667,0.6,1.0,1.0,285.0,920.0,1.0,1,165.0,1
19,19,-0.44275144278073436,-0.4,0.0,1.0,320.0,756.0,0.0,1,-36.0,0
20,20,-0.8523186422092174,-0.9,0.0,1.0,321.0,542.0,1.0,0,127.0,1
21,21,0.23838454474216586,0.2,1.0,1.0,285.0,677.0,1.0,1,748.0,1
22,22,0.2658070528251849,0.3,1.0,1.0,272.0,811.0,1.0,1,727.0,1
23,23,0.2332016239914546,0.2,0.0,0.0,496.0,918.0,0.0,1,296.0,1
24,24,-0.045763152019479225,-0.0,0.0,1.0,250.0,724.0,0.0,1,4026.0,0
25,25,-0.09577409517968749,-0.1,0.0,1.0,435.0,903.0,1.0,0,1782.0,1
26,26,0.7209517456080369,0.7,0.0,0.0,405.0,868.0,0.0,1,207.0,1
27,27,-0.5944740831623094,-0.6,1.0,0.0,469.0,690.0,0.0,0,211.0,1
28,28,0.2048337418252505,0.2,0.0,0.0,451.0,974.0,0.0,1,355.0,1
29,29,-0.16689773617789894,-0.2,1.0,0.0,356.0,911.0,0.0,0,693.0,1
30,30,-0.6600091538713857,-0.7,0.0,1.0,418.0,632.0,1.0,0,270.0,1
31,31,-0.3822143395919795,-0.4,1.0,0.0,430.0,800.0,0.0,0,410.0,1
32,32,-0.26443479712046813,-0.3,0.0,1.0,333.0,660.0,1.0,0,327.0,1
33,33,0.1526887287115576,0.2,0.0,0.0,311.0,787.0,0.0,1,472.0,1
34,34,0.36844125488953894,0.4,0.0,0.0,274.0,676.0,0.0,1,180.0,1
35,35,-0.5574965188410976,-0.6,0.0,1.0,490.0,854.0,1.0,0,276.0,1
36,36,0.2627985205269775,0.3,1.0,1.0,416.0,766.0,1.0,1,138.0,1
37,37,-0.23478004999532642,-0.2,1.0,0.0,337.0,980.0,0.0,0,763.0,1
38,38,-0.3290498915962662,-0.3,1.0,0.0,275.0,680.0,0.0,0,455.0,1
39,39,0.4615912418606608,0.5,0.0,0.0,361.0,663.0,0.0,1,126.0,1
40,40,0.6286961609344296,0.6,0.0,0.0,459.0,540.0,0.0,1,261.0,1
41,41,0.49074703876335357,0.5,1.0,1.0,257.0,548.0,1.0,1,165.0,1
42,42,0.5574287864688011,0.6,1.0,1.0,435.0,819.0,1.0,1,196.0,1
43,43,-0.6890616995345696,-0.7,0.0,1.0,483.0,884.0,1.0,0,133.0,1
44,44,0.4140467746215718,0.4,1.0,1.0,491.0,821.0,1.0,1,298.0,1
45,45,-0.05988193204517345,-0.1,1.0,0.0,252.0,567.0,0.0,0,821.0,1
46,46,0.655145551376466,0.7,1.0,1.0,477.0,996.0,1.0,1,137.0,1
47,47,-0.8509309202106248,-0.9,0.0,1.0,444.0,881.0,1.0,0,155.0,1
48,48,0.782247810954351,0.8,1.0,1.0,352.0,632.0,1.0,1,126.0,1
49,49,-0.23956642195060351,-0.2,0.0,1.0,454.0,521.0,1.0,0,1245.0,1
50,50,0.0040770372949302525,0.0,0.0,0.0,347.0,882.0,0.0,1,-329.0,1
51,51,0.6871928645382522,0.7,0.0,0.0,332.0,759.0,0.0,1,59.0,1
52,52,-0.6749569726223323,-0.7,1.0,0.0,412.0,668.0,0.0,0,320.0,1
53,53,-0.013630910755839554,-0.0,1.0,0.0,373.0,996.0,1.0,1,181.0,0
54,54,0.20028884562642169,0.2,0.0,0.0,259.0,950.0,0.0,1,-49.0,1
55,55,-0.6170275978943404,-0.6,0.0,1.0,308.0,635.0,1.0,0,337.0,1
56,56,0.6472519365920625,0.6,0.0,0.0,309.0,886.0,0.0,1,195.0,1
57,57,0.35884128077610444,0.4,0.0,0.0,414.0,819.0,0.0,1,167.0,1
58,58,0.6738996795276982,0.7,1.0,1.0,414.0,658.0,1.0,1,88.0,1
59,59,0.8251961273313754,0.8,1.0,1.0,437.0,601.0,0.0,0,-128.0,0
60,60,0.25091001145235736,0.3,1.0,1.0,397.0,583.0,1.0,1,420.0,1
61,61,0.027059278904520312,0.0,1.0,1.0,374.0,949.0,1.0,1,3677.0,1
62,62,-0.7800858654969957,-0.8,0.0,1.0,310.0,555.0,1.0,0,315.0,1
63,63,0.06646500516418308,0.1,1.0,1.0,325.0,657.0,1.0,1,738.0,1
64,64,0.03034910779276534,0.0,0.0,0.0,381.0,649.0,0.0,1,2160.0,1
65,65,0.15726491837880208,0.2,1.0,1.0,400.0,852.0,1.0,1,1988.0,1
66,66,-0.1505036334693831,-0.2,1.0,0.0,482.0,987.0,0.0,0,1271.0,1
67,67,0.1592489649626435,0.2,1.0,1.0,355.0,763.0,1.0,1,1352.0,1
68,68,0.1577395211173379,0.2,1.0,1.0,374.0,887.0,1.0,1,1919.0,1
69,69,-0.6349160761303808,-0.6,0.0,1.0,378.0,606.0,1.0,0,446.0,1
70,70,-0.2679682197045754,-0.3,0.0,1.0,448.0,905.0,1.0,0,2127.0,1
71,71,0.36654574517414795,0.4,0.0,0.0,391.0,603.0,0.0,1,606.0,1
72,72,0.45210871403226716,0.5,0.0,0.0,466.0,993.0,0.0,1,171.0,1
73,73,0.5294379544376017,0.5,0.0,0.0,406.0,917.0,0.0,1,67.0,1
74,74,-0.8488723097897832,-0.8,0.0,1.0,473.0,850.0,1.0,0,347.0,1
75,75,-0.15903583613764938,-0.2,0.0,1.0,350.0,897.0,1.0,0,843.0,1
76,76,0.31215937920215164,0.3,1.0,1.0,344.0,746.0,1.0,1,170.0,1
77,77,0.8747128072104126,0.9,1.0,1.0,359.0,613.0,1.0,1,58.0,1
78,78,0.7121119794106389,0.7,0.0,0.0,255.0,894.0,0.0,1,51.0,1
79,79,-0.43143478987039396,-0.4,1.0,0.0,412.0,977.0,1.0,1,-309.0,0
80,80,0.6991953252811763,0.7,1.0,1.0,382.0,519.0,1.0,1,149.0,1
81,81,0.275864625858815,0.3,1.0,1.0,269.0,667.0,1.0,1,674.0,1
82,82,-0.006337086394566649,-0.0,0.0,1.0,418.0,649.0,0.0,1,523.0,0
83,83,0.49078834063258003,0.5,1.0,1.0,478.0,607.0,1.0,1,375.0,1
84,84,-0.39087995969753897,-0.4,0.0,1.0,251.0,502.0,1.0,0,907.0,1
85,85,-0.4772887526054213,-0.5,1.0,0.0,438.0,827.0,0.0,0,285.0,1
86,86,-0.19124789134210807,-0.2,1.0,0.0,415.0,981.0,1.0,1,-186.0,0
87,87,0.8561395877389616,0.9,1.0,1.0,475.0,724.0,1.0,1,251.0,1
88,88,0.23687822106650402,0.2,1.0,1.0,472.0,908.0,0.0,0,-160.0,0
89,89,0.1752053748412138,0.2,1.0,1.0,428.0,502.0,1.0,1,750.0,1
90,90,0.779943018343188,0.8,1.0,1.0,470.0,663.0,1.0,1,207.0,1
91,91,0.24406352167906042,0.2,1.0,1.0,384.0,529.0,1.0,1,427.0,1
92,92,0.8794820783195819,0.9,1.0,1.0,327.0,558.0,1.0,1,245.0,1
93,93,-0.41145474700959944,-0.4,1.0,0.0,314.0,846.0,0.0,0,400.0,1
94,94,0.4469540398367803,0.4,1.0,1.0,329.0,852.0,1.0,1,99.0,1
95,95,0.3345987688819917,0.3,1.0,1.0,432.0,629.0,1.0,1,299.0,1
96,96,-0.6481149806413357,-0.6,0.0,1.0,409.0,764.0,1.0,0,417.0,1
97,97,0.7903115278767411,0.8,1.0,1.0,276.0,632.0,1.0,1,662.0,1
98,98,0.5936318142392768,0.6,1.0,1.0,477.0,525.0,1.0,1,388.0,1
99,99,0.21070326755791713,0.2,1.0,1.0,338.0,674.0,1.0,1,158.0,1
100,100,-0.0025848172842022343,-0.0,0.0,1.0,350.0,709.0,0.0,1,3941.0,0
101,101,-0.23420390153265525,-0.2,0.0,1.0,411.0,895.0,1.0,0,464.0,1
102,102,-0.7985729496860019,-0.8,1.0,0.0,313.0,685.0,0.0,0,172.0,1
103,103,-0.13534148146635872,-0.1,0.0,1.0,395.0,738.0,0.0,1,2137.0,0
104,104,0.8205957654436887,0.8,0.0,0.0,421.0,708.0,0.0,1,251.0,1
105,105,-0.30362873330429485,-0.3,1.0,0.0,347.0,664.0,0.0,0,239.0,1
106,106,0.16073383007743958,0.2,0.0,0.0,437.0,562.0,0.0,1,221.0,1
107,107,0.8932308090380415,0.9,1.0,1.0,276.0,953.0,1.0,1,161.0,1
108,108,-0.8040038424389996,-0.8,1.0,0.0,341.0,778.0,0.0,0,81.0,1
109,109,0.7740042366619425,0.8,0.0,0.0,287.0,901.0,0.0,1,62.0,1
110,110,-0.6647757401680644,-0.7,1.0,0.0,343.0,506.0,0.0,0,211.0,1
111,111,0.5570465514414068,0.6,1.0,1.0,474.0,725.0,1.0,1,121.0,1
112,112,-0.31742910976554806,-0.3,1.0,0.0,448.0,753.0,0.0,0,439.0,1
113,113,0.5204936297545212,0.5,1.0,1.0,293.0,899.0,1.0,1,198.0,1
114,114,-0.21093660194831376,-0.2,1.0,0.0,442.0,812.0,0.0,0,-64.0,1
115,115,0.3188959110581132,0.3,1.0,1.0,251.0,624.0,1.0,1,265.0,1
116,116,-0.3714929397815864,-0.4,1.0,0.0,285.0,925.0,0.0,0,620.0,1
117,117,0.09223838789874383,0.1,0.0,0.0,455.0,534.0,0.0,1,561.0,1
118,118,-0.3145768876299978,-0.3,0.0,1.0,421.0,719.0,1.0,0,490.0,1
119,119,0.8759806319879907,0.9,1.0,1.0,392.0,716.0,1.0,1,142.0,1
120,120,-0.12273089031530415,-0.1,0.0,1.0,365.0,803.0,1.0,0,2042.0,1
121,121,0.13209549544524501,0.1,0.0,0.0,332.0,505.0,0.0,1,983.0,1
122,122,0.35262642360915863,0.4,1.0,1.0,440.0,710.0,1.0,1,310.0,1
123,123,-0.4381608044212148,-0.4,1.0,0.0,480.0,781.0,0.0,0,369.0,1
124,124,0.09214177002208457,0.1,1.0,1.0,310.0,734.0,1.0,1,916.0,1
125,125,-0.5957694272745839,-0.6,1.0,0.0,257.0,548.0,0.0,0,335.0,1
126,126,-0.3295350956587809,-0.3,1.0,0.0,497.0,828.0,0.0,0,315.0,1
127,127,-0.6451950303051603,-0.6,1.0,0.0,336.0,926.0,0.0,0,-472.0,1
128,128,0.10830386466637687,0.1,1.0,1.0,410.0,684.0,1.0,1,326.0,1
129,129,0.567034440322936,0.6,0.0,0.0,446.0,695.0,0.0,1,199.0,1
130,130,0.6694762792823493,0.7,0.0,0.0,372.0,656.0,0.0,1,122.0,1
131,131,0.15576865471052004,0.2,1.0,1.0,260.0,799.0,1.0,1,861.0,1
132,132,0.23841194807107258,0.2,1.0,1.0,351.0,509.0,1.0,1,760.0,1
133,133,0.1870933114575556,0.2,0.0,0.0,358.0,560.0,0.0,1,432.0,1
134,134,0.5818688898169496,0.6,1.0,1.0,255.0,786.0,1.0,1,259.0,1
135,135,0.8676981930860014,0.9,1.0,1.0,317.0,970.0,1.0,1,-97.0,1
136,136,-0.6153441550885155,-0.6,1.0,0.0,275.0,803.0,0.0,0,232.0,1
137,137,-0.04784107106639546,-0.0,0.0,1.0,389.0,574.0,1.0,0,1217.0,1
138,138,0.5486939256083091,0.5,1.0,1.0,399.0,681.0,1.0,1,140.0,1
139,139,0.8728619498193347,0.9,1.0,1.0,413.0,817.0,1.0,1,110.0,1
140,140,-0.5427732023612275,-0.5,1.0,0.0,407.0,713.0,0.0,0,240.0,1
141,141,-0.564048484967386,-0.6,0.0,1.0,312.0,984.0,1.0,0,244.0,1
142,142,-0.2509386593179257,-0.3,0.0,1.0,343.0,753.0,1.0,0,2114.0,1
143,143,-0.03402030839263048,-0.0,1.0,0.0,472.0,733.0,0.0,0,1835.0,1
144,144,-0.491346179694243,-0.5,1.0,0.0,385.0,887.0,0.0,0,238.0,1
145,145,-0.38553686588456415,-0.4,1.0,0.0,296.0,839.0,0.0,0,265.0,1
146,146,0.5672671511208999,0.6,1.0,1.0,450.0,791.0,1.0,1,229.0,1
147,147,0.5178019978199363,0.5,1.0,1.0,420.0,685.0,1.0,1,345.0,1
148,148,0.33456439978419816,0.3,1.0,1.0,491.0,512.0,1.0,1,347.0,1
149,149,-0.8280989724016932,-0.8,1.0,0.0,356.0,871.0,0.0,0,223.0,1
150,150,-0.2469148376417748,-0.2,0.0,1.0,273.0,682.0,1.0,0,385.0,1
151,151,0.5204472166327,0.5,1.0,1.0,409.0,752.0,1.0,1,389.0,1
152,152,-0.7642455207509249,-0.8,0.0,1.0,446.0,883.0,1.0,0,131.0,1
153,153,-0.745765029918841,-0.7,0.0,1.0,359.0,565.0,1.0,0,136.0,1
154,154,-0.6677723934936607,-0.7,0.0,1.0,263.0,520.0,1.0,0,287.0,1
155,155,-0.690997955444057,-0.7,1.0,0.0,457.0,650.0,0.0,0,503.0,1
156,156,0.44125342187363403,0.4,1.0,1.0,478.0,547.0,1.0,1,345.0,1
157,157,-0.21951117919460872,-0.2,0.0,1.0,343.0,968.0,1.0,0,689.0,1
158,158,-0.8626577098051624,-0.9,0.0,1.0,478.0,926.0,1.0,0,76.0,1
159,159,-0.08759528444707365,-0.1,0.0,1.0,273.0,663.0,0.0,1,4064.0,0
160,160,-0.8686605372500604,-0.9,1.0,0.0,422.0,866.0,0.0,0,-68.0,1
161,161,0.6433155771452178,0.6,1.0,1.0,410.0,859.0,1.0,1,61.0,1
162,162,-0.005251257791350938,-0.0,0.0,1.0,331.0,529.0,0.0,1,400.0,0
163,163,0.7862850831011502,0.8,1.0,1.0,390.0,909.0,1.0,1,211.0,1
164,164,0.39411255977062554,0.4,1.0,1.0,409.0,884.0,1.0,1,687.0,1
165,165,0.14438937376220118,0.1,0.0,0.0,489.0,765.0,0.0,1,336.0,1
166,166,-0.5457010916384815,-0.5,0.0,1.0,324.0,855.0,1.0,0,371.0,1
167,167,-0.3216907950238659,-0.3,1.0,0.0,482.0,737.0,0.0,0,461.0,1
168,168,-0.2079227290928165,-0.2,1.0,0.0,263.0,582.0,0.0,0,655.0,1
169,169,-0.20273776136765076,-0.2,0.0,1.0,393.0,910.0,1.0,0,237.0,1
170,170,-0.8234852947154302,-0.8,1.0,0.0,354.0,945.0,1.0,1,-259.0,0
171,171,0.8474778461833107,0.8,1.0,1.0,420.0,613.0,1.0,1,-83.0,1
172,172,-0.6371020554790299,-0.6,1.0,0.0,326.0,684.0,0.0,0,280.0,1
173,173,-0.712758742315778,-0.7,1.0,0.0,361.0,607.0,0.0,0,162.0,1
174,174,0.8674981019995384,0.9,1.0,1.0,389.0,548.0,1.0,1,73.0,1
175,175,0.1514455677358174,0.2,0.0,0.0,316.0,580.0,0.0,1,1064.0,1
176,176,0.8146614614318296,0.8,1.0,1.0,332.0,795.0,1.0,1,283.0,1
177,177,-0.24313685258579365,-0.2,1.0,0.0,322.0,677.0,0.0,0,211.0,1
178,178,-0.6408891652951352,-0.6,1.0,0.0,470.0,985.0,0.0,0,185.0,1
179,179,0.18312950131151828,0.2,0.0,0.0,324.0,831.0,0.0,1,225.0,1
180,180,0.38925826066775093,0.4,0.0,0.0,458.0,678.0,0.0,1,-186.0,1
181,181,0.4267319711798018,0.4,0.0,0.0,418.0,516.0,0.0,1,386.0,1
182,182,0.7782718311339211,0.8,1.0,1.0,358.0,649.0,1.0,1,303.0,1
183,183,-0.6656628103546056,-0.7,1.0,0.0,301.0,849.0,0.0,0,220.0,1
184,184,0.17943832590324782,0.2,1.0,1.0,442.0,540.0,1.0,1,778.0,1
185,185,0.3621401991567331,0.4,1.0,1.0,322.0,638.0,1.0,1,280.0,1
186,186,-0.7588142951379157,-0.8,1.0,0.0,371.0,800.0,0.0,0,259.0,1
187,187,-0.174672760097907,-0.2,0.0,1.0,327.0,659.0,0.0,1,124.0,0
188,188,0.2862765989913699,0.3,1.0,1.0,407.0,561.0,1.0,1,162.0,1
189,189,-0.21314249925000717,-0.2,0.0,1.0,396.0,632.0,1.0,0,1572.0,1
190,190,0.23045559449070951,0.2,0.0,0.0,490.0,919.0,0.0,1,291.0,1
191,191,-0.6283141112525326,-0.6,1.0,0.0,340.0,681.0,0.0,0,209.0,1
192,192,-0.4730851440845349,-0.5,0.0,1.0,317.0,717.0,1.0,0,356.0,1
193,193,0.7211955620863545,0.7,0.0,0.0,429.0,884.0,0.0,1,107.0,1
194,194,0.5776323028494726,0.6,0.0,0.0,309.0,556.0,0.0,1,15.0,1
195,195,-0.2810808698846834,-0.3,0.0,1.0,290.0,823.0,1.0,0,787.0,1
196,196,0.8655767243241234,0.9,0.0,0.0,279.0,642.0,0.0,1,129.0,1
197,197,-0.7740232560162297,-0.8,1.0,0.0,468.0,924.0,0.0,0,-52.0,1
198,198,0.3099318933483147,0.3,1.0,1.0,406.0,848.0,1.0,1,396.0,1
199,199,-0.27144066267991207,-0.3,0.0,1.0,444.0,560.0,1.0,0,766.0,1
200,200,0.04085030745047269,0.0,1.0,1.0,467.0,501.0,1.0,1,1242.0,1
201,201,-0.08820466443521557,-0.1,1.0,0.0,273.0,921.0,0.0,0,1056.0,1
202,202,-0.5425904882446432,-0.5,0.0,1.0,378.0,802.0,1.0,0,210.0,1
203,203,-0.020545472630574824,-0.0,0.0,1.0,403.0,607.0,0.0,1,770.0,0
204,204,-0.2549247426250153,-0.3,0.0,1.0,417.0,505.0,1.0,0,318.0,1
205,205,0.32833172805767374,0.3,1.0,1.0,435.0,807.0,1.0,1,268.0,1
206,206,-0.10376823212898334,-0.1,1.0,0.0,434.0,754.0,0.0,0,1812.0,1
207,207,0.29958096213192664,0.3,1.0,1.0,471.0,508.0,1.0,1,301.0,1
208,208,0.34106850041220127,0.3,0.0,0.0,398.0,721.0,0.0,1,531.0,1
209,209,-0.890965768302285,-0.9,0.0,1.0,471.0,662.0,1.0,0,197.0,1
210,210,0.8050425119042092,0.8,0.0,0.0,483.0,998.0,0.0,1,159.0,1
211,211,0.18394764997681656,0.2,0.0,0.0,290.0,846.0,0.0,1,474.0,1
212,212,-0.07500065863692773,-0.1,0.0,1.0,442.0,874.0,1.0,0,1754.0,1
213,213,-0.2750599598924247,-0.3,0.0,1.0,261.0,778.0,1.0,0,101.0,1
214,214,0.023246680692794564,0.0,0.0,0.0,315.0,860.0,0.0,1,1985.0,1
215,215,-0.32628252197097174,-0.3,0.0,1.0,406.0,922.0,1.0,0,852.0,1
216,216,-0.7349187533132451,-0.7,1.0,0.0,379.0,581.0,0.0,0,10.0,1
217,217,0.2328618929687004,0.2,1.0,1.0,297.0,506.0,1.0,1,567.0,1
218,218,0.446493996880296,0.4,1.0,1.0,266.0,572.0,1.0,1,292.0,1
219,219,-0.49659992664067293,-0.5,0.0,1.0,282.0,799.0,1.0,0,319.0,1
220,220,-0.23145397623410002,-0.2,1.0,0.0,435.0,863.0,0.0,0,2.0,1
221,221,-0.8391631999533067,-0.8,0.0,1.0,320.0,623.0,1.0,0,277.0,1
222,222,-0.7040603771741383,-0.7,1.0,0.0,433.0,968.0,0.0,0,119.0,1
223,223,0.21875837849088298,0.2,0.0,0.0,394.0,538.0,0.0,1,148.0,1
224,224,-0.26387460861652723,-0.3,0.0,1.0,321.0,973.0,0.0,1,-514.0,0
225,225,-0.15502254381763692,-0.2,0.0,1.0,476.0,839.0,1.0,0,1425.0,1
226,226,-0.638780029827765,-0.6,0.0,1.0,499.0,549.0,1.0,0,392.0,1
227,227,-0.12446498912208925,-0.1,0.0,1.0,306.0,634.0,1.0,0,2120.0,1
228,228,-0.7830245681681234,-0.8,1.0,0.0,377.0,664.0,0.0,0,239.0,1
229,229,0.5315643661239987,0.5,0.0,0.0,402.0,672.0,0.0,1,266.0,1
230,230,-0.45303191673255955,-0.5,1.0,0.0,393.0,802.0,0.0,0,85.0,1
231,231,0.8190974642065819,0.8,0.0,0.0,293.0,857.0,0.0,1,180.0,1
232,232,-0.7272905137098623,-0.7,1.0,0.0,397.0,681.0,0.0,0,172.0,1
233,233,-0.5164845004497891,-0.5,0.0,1.0,408.0,558.0,1.0,0,364.0,1
234,234,0.47067366025276225,0.5,1.0,1.0,410.0,994.0,1.0,1,186.0,1
235,235,0.0007380855176931655,0.0,1.0,1.0,327.0,571.0,1.0,1,982.0,1
236,236,0.38624814281992614,0.4,1.0,1.0,299.0,884.0,1.0,1,237.0,1
237,237,0.37939673568603316,0.4,1.0,1.0,483.0,637.0,1.0,1,580.0,1
238,238,-0.5930073560511306,-0.6,1.0,0.0,362.0,503.0,0.0,0,155.0,1
239,239,0.1933760935301413,0.2,1.0,1.0,441.0,551.0,1.0,1,1348.0,1
240,240,-0.3304800321541006,-0.3,1.0,0.0,270.0,559.0,0.0,0,421.0,1
241,241,0.15884858020998804,0.2,1.0,1.0,310.0,629.0,1.0,1,1241.0,1
242,242,-0.4964735426725334,-0.5,1.0,0.0,443.0,632.0,0.0,0,225.0,1
243,243,-0.5606976686029821,-0.6,0.0,1.0,297.0,509.0,1.0,0,114.0,1
244,244,-0.5504758413202868,-0.6,0.0,1.0,439.0,915.0,1.0,0,356.0,1
245,245,0.6474752474899371,0.6,0.0,0.0,441.0,917.0,0.0,1,172.0,1
246,246,-0.7150273773248864,-0.7,1.0,0.0,291.0,593.0,0.0,0,236.0,1
247,247,0.09787063472484414,0.1,0.0,0.0,253.0,731.0,0.0,1,106.0,1
248,248,-0.03144269291480073,-0.0,0.0,1.0,369.0,733.0,0.0,1,1338.0,0
249,249,-0.45608303752646345,-0.5,0.0,1.0,449.0,788.0,1.0,0,123.0,1
250,250,0.5524164133773067,0.6,1.0,1.0,314.0,926.0,1.0,1,170.0,1
251,251,-0.3425907020682607,-0.3,0.0,1.0,261.0,673.0,1.0,0,956.0,1
252,252,0.11507185912251894,0.1,1.0,1.0,376.0,668.0,1.0,1,426.0,1
253,253,-0.19962162631027203,-0.2,1.0,0.0,397.0,511.0,0.0,0,1962.0,1
254,254,0.5421695969682029,0.5,0.0,0.0,332.0,774.0,0.0,1,284.0,1
255,255,-0.5747144294757469,-0.6,1.0,0.0,314.0,759.0,0.0,0,207.0,1
256,256,0.03152620581440524,0.0,1.0,1.0,309.0,903.0,0.0,0,-82.0,0
257,257,-0.14527413242804021,-0.1,1.0,0.0,258.0,915.0,0.0,0,2037.0,1
258,258,0.20993195057889624,0.2,0.0,0.0,434.0,857.0,0.0,1,-291.0,1
259,259,0.04720633755771386,0.0,0.0,0.0,257.0,790.0,0.0,1,163.0,1
260,260,-0.45340149693159837,-0.5,0.0,1.0,453.0,906.0,1.0,0,401.0,1
261,261,0.410813555441505,0.4,0.0,0.0,298.0,627.0,0.0,1,415.0,1
262,262,-0.1858929370949466,-0.2,1.0,0.0,460.0,936.0,0.0,0,794.0,1
263,263,-0.45232605441272616,-0.5,0.0,1.0,309.0,801.0,1.0,0,380.0,1
264,264,-0.2449200055783678,-0.2,0.0,1.0,419.0,991.0,1.0,0,240.0,1
265,265,-0.6484474044415346,-0.6,1.0,0.0,380.0,909.0,0.0,0,11.0,1
266,266,0.2244394423806909,0.2,1.0,1.0,370.0,907.0,1.0,1,703.0,1
267,267,-0.010098859374327085,-0.0,1.0,0.0,478.0,916.0,0.0,0,2606.0,1
268,268,-0.7277721854396756,-0.7,0.0,1.0,267.0,652.0,1.0,0,321.0,1
269,269,-0.8840521971990929,-0.9,0.0,1.0,399.0,676.0,1.0,0,175.0,1
270,270,0.8518018492049361,0.9,0.0,0.0,435.0,891.0,0.0,1,114.0,1
271,271,0.06373867454280269,0.1,1.0,1.0,351.0,517.0,1.0,1,822.0,1
272,272,-0.5663029608699391,-0.6,0.0,1.0,363.0,955.0,1.0,0,292.0,1
273,273,-0.4154937384910257,-0.4,1.0,0.0,393.0,687.0,0.0,0,290.0,1
274,274,-0.30239783312510915,-0.3,1.0,0.0,406.0,928.0,0.0,0,376.0,1
275,275,0.8441813308100591,0.8,1.0,1.0,392.0,788.0,1.0,1,150.0,1
276,276,0.4872999537779491,0.5,1.0,1.0,495.0,935.0,1.0,1,240.0,1
277,277,-0.3735022247292481,-0.4,1.0,0.0,383.0,699.0,0.0,0,318.0,1
278,278,-0.7677103902520577,-0.8,0.0,1.0,497.0,733.0,1.0,0,280.0,1
279,279,-0.6637302849215676,-0.7,0.0,1.0,318.0,840.0,1.0,0,412.0,1
280,280,0.5107868811105832,0.5,0.0,0.0,372.0,750.0,0.0,1,238.0,1
281,281,0.8778499831012337,0.9,1.0,1.0,460.0,814.0,1.0,1,186.0,1
282,282,0.7631813564659505,0.8,0.0,0.0,489.0,728.0,0.0,1,143.0,1
283,283,-0.20357273896324335,-0.2,1.0,0.0,387.0,958.0,0.0,0,825.0,1
284,284,-0.10056790471772925,-0.1,1.0,0.0,324.0,856.0,0.0,0,1890.0,1
285,285,0.5946615126618383,0.6,0.0,0.0,257.0,617.0,0.0,1,266.0,1
286,286,-0.5642192742848879,-0.6,1.0,0.0,451.0,599.0,0.0,0,260.0,1
287,287,-0.342012328635803,-0.3,1.0,0.0,386.0,770.0,0.0,0,214.0,1
288,288,0.7637859784341058,0.8,0.0,0.0,407.0,781.0,0.0,1,152.0,1
289,289,0.03304835687852459,0.0,0.0,0.0,266.0,663.0,1.0,0,101.0,0
290,290,0.349110835655407,0.3,1.0,1.0,472.0,831.0,1.0,1,217.0,1
291,291,0.14363025962366438,0.1,1.0,1.0,394.0,946.0,1.0,1,1170.0,1
292,292,-0.6830953186110518,-0.7,0.0,1.0,256.0,605.0,1.0,0,169.0,1
293,293,-0.8584286065198248,-0.9,1.0,0.0,394.0,736.0,0.0,0,250.0,1
294,294,-0.5755947116847555,-0.6,0.0,1.0,426.0,760.0,1.0,0,264.0,1
295,295,0.4624722626003249,0.5,1.0,1.0,346.0,779.0,1.0,1,555.0,1
296,296,0.3987266604699623,0.4,0.0,0.0,453.0,775.0,0.0,1,632.0,1
297,297,0.464494157284043,0.5,1.0,1.0,383.0,704.0,1.0,1,523.0,1
298,298,-0.7237943190104822,-0.7,0.0,1.0,322.0,750.0,0.0,1,-192.0,0
299,299,-0.7284503866141494,-0.7,0.0,1.0,417.0,615.0,1.0,0,138.0,1
300,300,0.4951991122033682,0.5,1.0,1.0,349.0,942.0,1.0,1,179.0,1
301,301,0.7967168791306495,0.8,1.0,1.0,414.0,546.0,1.0,1,150.0,1
302,302,0.7087117013730456,0.7,0.0,0.0,250.0,717.0,0.0,1,123.0,1
303,303,0.25083466544004096,0.3,1.0,1.0,438.0,662.0,1.0,1,530.0,1
304,304,0.48807832145544705,0.5,1.0,1.0,445.0,841.0,1.0,1,94.0,1
305,305,0.16851804111311186,0.2,1.0,1.0,364.0,597.0,1.0,1,409.0,1
306,306,-0.17825344077408556,-0.2,1.0,0.0,264.0,898.0,0.0,0,378.0,1
307,307,-0.10684851465620138,-0.1,0.0,1.0,328.0,553.0,1.0,0,2779.0,1
308,308,-0.48648524287208406,-0.5,0.0,1.0,424.0,657.0,1.0,0,239.0,1
309,309,-0.6485693903331925,-0.6,1.0,0.0,271.0,568.0,0.0,0,41.0,1
310,310,0.6109575283829564,0.6,0.0,0.0,381.0,996.0,0.0,1,393.0,1
311,311,-0.23559903777994706,-0.2,1.0,0.0,325.0,676.0,0.0,0,289.0,1
312,312,0.26527716418691905,0.3,0.0,0.0,271.0,815.0,0.0,1,654.0,1
313,313,0.8693324705984774,0.9,1.0,1.0,447.0,615.0,1.0,1,108.0,1
314,314,0.05352792156411401,0.1,0.0,0.0,449.0,507.0,0.0,1,1754.0,1
315,315,-0.6666847194609853,-0.7,1.0,0.0,393.0,560.0,0.0,0,347.0,1
316,316,0.7108813305168179,0.7,1.0,1.0,357.0,727.0,1.0,1,96.0,1
317,317,-0.3468218412298769,-0.3,0.0,1.0,490.0,681.0,1.0,0,9.0,1
318,318,-0.4575138273185006,-0.5,1.0,0.0,363.0,961.0,0.0,0,-794.0,1
319,319,0.4262424452938266,0.4,0.0,0.0,355.0,641.0,0.0,1,584.0,1
320,320,-0.2694831747100629,-0.3,1.0,0.0,316.0,977.0,1.0,1,-173.0,0
321,321,0.08572719980664945,0.1,1.0,1.0,446.0,841.0,1.0,1,913.0,1
322,322,0.7608287557469021,0.8,1.0,1.0,341.0,929.0,1.0,1,100.0,1
323,323,-0.61772955201576,-0.6,1.0,0.0,415.0,783.0,0.0,0,132.0,1
324,324,-0.017732726666876752,-0.0,1.0,0.0,369.0,508.0,0.0,0,1143.0,1
325,325,0.5614568911035623,0.6,0.0,0.0,441.0,563.0,0.0,1,96.0,1
326,326,-0.6106765384601484,-0.6,0.0,1.0,260.0,890.0,1.0,0,250.0,1
327,327,-0.37790819344317783,-0.4,0.0,1.0,344.0,707.0,1.0,0,639.0,1
328,328,-0.06668289438479025,-0.1,0.0,1.0,366.0,805.0,0.0,1,2119.0,0
329,329,-0.6111654252369285,-0.6,1.0,0.0,451.0,731.0,0.0,0,298.0,1
330,330,-0.5761021725126961,-0.6,1.0,0.0,378.0,975.0,0.0,0,167.0,1
331,331,0.5076423312301944,0.5,1.0,1.0,315.0,657.0,1.0,1,368.0,1
332,332,-0.4646742519246166,-0.5,0.0,1.0,270.0,773.0,1.0,0,497.0,1
333,333,-0.5027371372532515,-0.5,0.0,1.0,437.0,546.0,1.0,0,367.0,1
334,334,0.2622275150183816,0.3,0.0,0.0,279.0,934.0,0.0,1,37.0,1
335,335,0.7403445642401417,0.7,1.0,1.0,405.0,569.0,1.0,1,136.0,1
336,336,0.09502276101336138,0.1,0.0,0.0,497.0,833.0,0.0,1,120.0,1
337,337,-0.09480884214399032,-0.1,1.0,0.0,255.0,522.0,0.0,0,2603.0,1
338,338,0.2818170532955794,0.3,0.0,0.0,323.0,642.0,0.0,1,285.0,1
339,339,-0.18518212113596144,-0.2,0.0,1.0,406.0,585.0,1.0,0,249.0,1
340,340,-0.21810976667679827,-0.2,0.0,1.0,457.0,583.0,1.0,0,410.0,1
341,341,0.058529031405786136,0.1,0.0,0.0,384.0,568.0,0.0,1,2118.0,1
342,342,-0.10445861767591824,-0.1,1.0,0.0,369.0,675.0,0.0,0,546.0,1
343,343,0.30417336726503474,0.3,1.0,1.0,279.0,707.0,1.0,1,744.0,1
344,344,-0.08891254295529782,-0.1,1.0,0.0,377.0,767.0,0.0,0,1676.0,1
345,345,-0.2473593912052897,-0.2,1.0,0.0,383.0,907.0,0.0,0,840.0,1
346,346,-0.688152864843872,-0.7,1.0,0.0,310.0,814.0,0.0,0,236.0,1
347,347,-0.17650417478416036,-0.2,1.0,0.0,324.0,897.0,0.0,0,1149.0,1
348,348,-0.6665159169707675,-0.7,1.0,0.0,333.0,619.0,0.0,0,148.0,1
349,349,-0.026327769674071466,-0.0,1.0,0.0,399.0,638.0,0.0,0,13.0,1
350,350,-0.3670940716027752,-0.4,1.0,0.0,277.0,989.0,0.0,0,84.0,1
351,351,-0.2884663664730053,-0.3,1.0,0.0,320.0,868.0,1.0,1,42.0,0
352,352,-0.5009140946052864,-0.5,1.0,0.0,432.0,509.0,0.0,0,559.0,1
353,353,-0.47220461200680064,-0.5,0.0,1.0,472.0,845.0,1.0,0,493.0,1
354,354,0.12150873878108903,0.1,1.0,1.0,393.0,842.0,1.0,1,1255.0,1
355,355,0.7592349156921273,0.8,0.0,0.0,358.0,695.0,0.0,1,117.0,1
356,356,0.04868330664855969,0.0,0.0,0.0,331.0,589.0,0.0,1,1290.0,1
357,357,-0.5997241191032112,-0.6,0.0,1.0,267.0,863.0,1.0,0,230.0,1
358,358,-0.8173046962851553,-0.8,0.0,1.0,254.0,638.0,1.0,0,238.0,1
359,359,0.6035476441085633,0.6,0.0,0.0,369.0,687.0,0.0,1,254.0,1
360,360,-0.2344408841212705,-0.2,1.0,0.0,475.0,769.0,0.0,0,356.0,1
361,361,0.6146338538885087,0.6,1.0,1.0,387.0,904.0,1.0,1,289.0,1
362,362,-0.6035943748743389,-0.6,1.0,0.0,265.0,616.0,0.0,0,229.0,1
363,363,-0.6005480553420863,-0.6,1.0,0.0,465.0,918.0,0.0,0,137.0,1
364,364,-0.22377323143935746,-0.2,0.0,1.0,339.0,725.0,1.0,0,1406.0,1
365,365,-0.06733870355284666,-0.1,1.0,0.0,398.0,766.0,0.0,0,1526.0,1
366,366,-0.7113673073140291,-0.7,0.0,1.0,268.0,852.0,0.0,1,-60.0,0
367,367,-0.8121709260829585,-0.8,1.0,0.0,312.0,816.0,0.0,0,282.0,1
368,368,0.8900636314613574,0.9,1.0,1.0,328.0,685.0,1.0,1,87.0,1
369,369,-0.24582122759853176,-0.2,0.0,1.0,332.0,775.0,1.0,0,263.0,1
370,370,0.5615768170318424,0.6,0.0,0.0,295.0,835.0,0.0,1,440.0,1
371,371,0.1580241085564008,0.2,0.0,0.0,279.0,620.0,0.0,1,141.0,1
372,372,0.09312292406349842,0.1,1.0,1.0,460.0,836.0,1.0,1,2004.0,1
373,373,-0.14153259971607357,-0.1,0.0,1.0,412.0,687.0,1.0,0,3261.0,1
374,374,0.5855386429599269,0.6,1.0,1.0,428.0,967.0,1.0,1,145.0,1
375,375,0.07115161390686409,0.1,1.0,1.0,499.0,527.0,1.0,1,3594.0,1
376,376,-0.2392449512286834,-0.2,0.0,1.0,463.0,899.0,1.0,0,258.0,1
377,377,0.14165778016094588,0.1,0.0,0.0,328.0,766.0,0.0,1,426.0,1
378,378,-0.8069231718474619,-0.8,1.0,0.0,262.0,739.0,0.0,0,519.0,1
379,379,-0.5197146208703032,-0.5,1.0,0.0,385.0,925.0,0.0,0,140.0,1
380,380,-0.4194852741044283,-0.4,0.0,1.0,414.0,532.0,1.0,0,194.0,1
381,381,-0.4705096261203918,-0.5,1.0,0.0,356.0,862.0,0.0,0,202.0,1
382,382,0.2407986539377741,0.2,1.0,1.0,488.0,516.0,1.0,1,586.0,1
383,383,-0.2375722811245914,-0.2,0.0,1.0,278.0,632.0,1.0,0,200.0,1
384,384,0.7551590444272703,0.8,1.0,1.0,258.0,984.0,1.0,1,178.0,1
385,385,0.7054856230811214,0.7,0.0,0.0,313.0,929.0,0.0,1,48.0,1
386,386,-0.5554026110470862,-0.6,1.0,0.0,465.0,817.0,0.0,0,328.0,1
387,387,0.17841119684172202,0.2,1.0,1.0,270.0,737.0,1.0,1,243.0,1
388,388,-0.7880224419426165,-0.8,0.0,1.0,464.0,768.0,1.0,0,198.0,1
389,389,-0.314047642414777,-0.3,1.0,0.0,304.0,750.0,0.0,0,366.0,1
390,390,-0.062336435527175604,-0.1,0.0,1.0,330.0,633.0,0.0,1,3127.0,0
391,391,0.11054248610017392,0.1,0.0,0.0,374.0,657.0,0.0,1,249.0,1
392,392,-0.6671716235920291,-0.7,1.0,0.0,443.0,571.0,0.0,0,476.0,1
393,393,-0.5974486453553829,-0.6,1.0,0.0,312.0,939.0,0.0,0,79.0,1
394,394,0.5614766987759227,0.6,0.0,0.0,263.0,771.0,0.0,1,86.0,1
395,395,-0.36001371371042834,-0.4,1.0,0.0,411.0,835.0,0.0,0,154.0,1
396,396,-0.4427093253393451,-0.4,1.0,0.0,450.0,569.0,0.0,0,491.0,1
397,397,0.2899790400556522,0.3,0.0,0.0,430.0,507.0,0.0,1,163.0,1
398,398,-0.5729170344052434,-0.6,1.0,0.0,445.0,559.0,0.0,0,236.0,1
399,399,-0.34773942179920425,-0.3,0.0,1.0,353.0,553.0,1.0,0,524.0,1
400,400,0.49878691689350274,0.5,0.0,0.0,259.0,908.0,0.0,1,-27.0,1
401,401,-0.5792007131620698,-0.6,1.0,0.0,381.0,595.0,0.0,0,424.0,1
402,402,-0.3781074126395424,-0.4,1.0,0.0,433.0,833.0,0.0,0,324.0,1
403,403,0.8472862783188281,0.8,1.0,1.0,343.0,642.0,1.0,1,305.0,1
404,404,0.5929751004847778,0.6,0.0,0.0,340.0,978.0,0.0,1,192.0,1
405,405,0.6696846325605438,0.7,1.0,1.0,349.0,622.0,1.0,1,199.0,1
406,406,0.2363048895411567,0.2,1.0,1.0,437.0,808.0,1.0,1,165.0,1
407,407,-0.7488327312071633,-0.7,0.0,1.0,284.0,714.0,1.0,0,242.0,1
408,408,0.10730078809782662,0.1,0.0,0.0,455.0,960.0,0.0,1,155.0,1
409,409,0.10381687153593944,0.1,0.0,0.0,467.0,826.0,0.0,1,357.0,1
410,410,0.7438958848891043,0.7,1.0,1.0,411.0,745.0,1.0,1,244.0,1
411,411,-0.050558548144871374,-0.1,0.0,1.0,399.0,916.0,0.0,1,1185.0,0
412,412,-0.6864573563982359,-0.7,1.0,0.0,358.0,578.0,0.0,0,254.0,1
413,413,-0.7233468892869781,-0.7,1.0,0.0,268.0,744.0,0.0,0,-382.0,1
414,414,0.24587777672295397,0.2,1.0,1.0,423.0,958.0,1.0,1,369.0,1
415,415,0.38290398902894907,0.4,1.0,1.0,399.0,814.0,1.0,1,277.0,1
416,416,-0.801619206417594,-0.8,1.0,0.0,361.0,583.0,0.0,0,486.0,1
417,417,-0.24619719212676328,-0.2,1.0,0.0,421.0,571.0,0.0,0,368.0,1
418,418,0.30489312467395513,0.3,0.0,0.0,484.0,892.0,0.0,1,274.0,1
419,419,0.6158747887846278,0.6,0.0,0.0,374.0,846.0,0.0,1,420.0,1
420,420,-0.8028536718965169,-0.8,1.0,0.0,490.0,735.0,0.0,0,45.0,1
421,421,0.044619101033697595,0.0,1.0,1.0,276.0,724.0,0.0,0,230.0,0
422,422,-0.8925598172794811,-0.9,0.0,1.0,257.0,958.0,1.0,0,195.0,1
423,423,-0.0063783067423597295,-0.0,0.0,1.0,462.0,839.0,0.0,1,159.0,0
424,424,-0.8021086267801848,-0.8,1.0,0.0,438.0,511.0,0.0,0,251.0,1
425,425,0.8828416727162888,0.9,0.0,0.0,402.0,906.0,0.0,1,192.0,1
426,426,0.6758142345875605,0.7,1.0,1.0,303.0,527.0,1.0,1,100.0,1
427,427,-0.3183456011263941,-0.3,1.0,0.0,319.0,688.0,0.0,0,483.0,1
428,428,-0.16482915047900093,-0.2,0.0,1.0,454.0,707.0,1.0,0,629.0,1
429,429,0.5182759245234371,0.5,1.0,1.0,456.0,883.0,1.0,1,-339.0,1
430,430,-0.8151061432011117,-0.8,1.0,0.0,366.0,837.0,0.0,0,97.0,1
431,431,-0.15079337215225452,-0.2,0.0,1.0,435.0,588.0,1.0,0,1177.0,1
432,432,-0.15120037755963234,-0.2,1.0,0.0,286.0,569.0,0.0,0,925.0,1
433,433,-0.7053517292797072,-0.7,1.0,0.0,250.0,831.0,0.0,0,119.0,1
434,434,-0.6522800173565069,-0.7,1.0,0.0,261.0,877.0,0.0,0,472.0,1
435,435,0.14930806410903197,0.1,0.0,0.0,349.0,501.0,0.0,1,570.0,1
436,436,0.38239441023073806,0.4,1.0,1.0,277.0,549.0,1.0,1,344.0,1
437,437,0.599879541937456,0.6,0.0,0.0,340.0,613.0,0.0,1,87.0,1
438,438,0.2613274990508977,0.3,0.0,0.0,357.0,851.0,0.0,1,12.0,1
439,439,-0.6003151452159904,-0.6,1.0,0.0,300.0,783.0,0.0,0,237.0,1
440,440,-0.1289956711557172,-0.1,0.0,1.0,416.0,670.0,1.0,0,1204.0,1
441,441,0.01292913918164773,0.0,0.0,0.0,468.0,940.0,0.0,1,182.0,1
442,442,0.22763337772365622,0.2,1.0,1.0,410.0,529.0,1.0,1,491.0,1
443,443,0.8047016828506784,0.8,0.0,0.0,259.0,511.0,0.0,1,320.0,1
444,444,-0.6322855184979044,-0.6,1.0,0.0,442.0,526.0,0.0,0,42.0,1
445,445,-0.4885419345051016,-0.5,1.0,0.0,296.0,789.0,0.0,0,135.0,1
446,446,0.6544852807586555,0.7,0.0,0.0,378.0,945.0,0.0,1,-223.0,1
447,447,-0.5251094647873242,-0.5,0.0,1.0,464.0,806.0,1.0,0,380.0,1
448,448,0.779043741752773,0.8,0.0,0.0,420.0,803.0,0.0,1,167.0,1
449,449,0.4496518204853507,0.4,1.0,1.0,258.0,631.0,1.0,1,121.0,1
450,450,-0.8583429157762693,-0.9,0.0,1.0,433.0,824.0,1.0,0,513.0,1
451,451,-0.03645419016885587,-0.0,0.0,1.0,329.0,992.0,0.0,1,1879.0,0
452,452,0.05701252620420605,0.1,0.0,0.0,298.0,911.0,0.0,1,3791.0,1
453,453,0.23033074242690643,0.2,0.0,0.0,454.0,664.0,0.0,1,1182.0,1
454,454,-0.10367722085796727,-0.1,0.0,1.0,411.0,538.0,1.0,0,2051.0,1
455,455,-0.4416913736495926,-0.4,0.0,1.0,304.0,977.0,1.0,0,359.0,1
456,456,0.31960600090420754,0.3,1.0,1.0,418.0,665.0,1.0,1,757.0,1
457,457,-0.42017348271448585,-0.4,0.0,1.0,365.0,975.0,1.0,0,190.0,1
458,458,-0.6918427006798085,-0.7,0.0,1.0,380.0,902.0,1.0,0,258.0,1
459,459,0.7634260203625555,0.8,0.0,0.0,454.0,728.0,0.0,1,168.0,1
460,460,0.7639189700721548,0.8,0.0,0.0,349.0,870.0,0.0,1,141.0,1
461,461,-0.7572129800998801,-0.8,0.0,1.0,291.0,716.0,1.0,0,183.0,1
462,462,-0.7424643874350686,-0.7,0.0,1.0,252.0,543.0,1.0,0,395.0,1
463,463,-0.7723573871752422,-0.8,1.0,0.0,271.0,634.0,0.0,0,225.0,1
464,464,-0.681264996416183,-0.7,1.0,0.0,377.0,719.0,0.0,0,124.0,1
465,465,0.556817303544418,0.6,0.0,0.0,304.0,716.0,0.0,1,-150.0,1
466,466,0.8368603202857375,0.8,0.0,0.0,367.0,718.0,0.0,1,215.0,1
467,467,0.12169604899688735,0.1,1.0,1.0,461.0,896.0,1.0,1,1643.0,1
468,468,0.06654175910480464,0.1,1.0,1.0,409.0,811.0,1.0,1,1700.0,1
469,469,-0.29629767078283775,-0.3,0.0,1.0,433.0,596.0,1.0,0,721.0,1
470,470,0.49950772413554156,0.5,1.0,1.0,381.0,731.0,1.0,1,208.0,1
471,471,0.30047471790314473,0.3,0.0,0.0,330.0,873.0,0.0,1,437.0,1
472,472,-0.5929915819259977,-0.6,0.0,1.0,271.0,965.0,0.0,1,34.0,0
473,473,-0.6860580192148538,-0.7,0.0,1.0,411.0,655.0,0.0,1,-56.0,0
474,474,0.5609200517618264,0.6,0.0,0.0,379.0,648.0,0.0,1,243.0,1
475,475,-0.8356767202108795,-0.8,0.0,1.0,259.0,602.0,1.0,0,219.0,1
476,476,-0.11922458995333507,-0.1,0.0,1.0,254.0,645.0,1.0,0,2331.0,1
477,477,0.2201052544344554,0.2,1.0,1.0,391.0,871.0,1.0,1,408.0,1
478,478,0.824968458057627,0.8,0.0,0.0,406.0,890.0,0.0,1,114.0,1
479,479,0.85600681384752,0.9,0.0,0.0,288.0,917.0,0.0,1,155.0,1
480,480,0.4746606926760307,0.5,0.0,0.0,471.0,510.0,0.0,1,399.0,1
481,481,-0.710394857668583,-0.7,0.0,1.0,393.0,629.0,1.0,0,318.0,1
482,482,-0.6039662219641267,-0.6,0.0,1.0,353.0,954.0,1.0,0,123.0,1
483,483,0.7380081802786703,0.7,0.0,0.0,297.0,740.0,0.0,1,143.0,1
484,484,-0.718660748368566,-0.7,1.0,0.0,312.0,601.0,0.0,0,217.0,1
485,485,-0.027022134745042337,-0.0,1.0,0.0,431.0,713.0,0.0,0,3386.0,1
486,486,0.8842267158394413,0.9,1.0,1.0,369.0,815.0,1.0,1,46.0,1
487,487,-0.1775450458216733,-0.2,1.0,0.0,431.0,739.0,0.0,0,670.0,1
488,488,0.5579841864332492,0.6,1.0,1.0,448.0,996.0,0.0,0,-354.0,0
489,489,-0.34138051752000165,-0.3,0.0,1.0,389.0,955.0,0.0,1,-14.0,0
490,490,0.8257722042557131,0.8,0.0,0.0,482.0,693.0,0.0,1,25.0,1
491,491,0.6821429740378254,0.7,0.0,0.0,387.0,991.0,0.0,1,202.0,1
492,492,0.2516529857524067,0.3,1.0,1.0,312.0,706.0,1.0,1,352.0,1
493,493,0.5665999298082586,0.6,1.0,1.0,469.0,916.0,1.0,1,225.0,1
494,494,0.6444097580843805,0.6,1.0,1.0,369.0,767.0,0.0,0,-276.0,0
495,495,-0.8927377840857029,-0.9,1.0,0.0,257.0,804.0,0.0,0,129.0,1
496,496,0.17352407680977755,0.2,0.0,0.0,388.0,776.0,0.0,1,856.0,1
497,497,-0.2690191528220345,-0.3,1.0,0.0,276.0,852.0,1.0,1,-178.0,0
498,498,0.19010949228666185,0.2,1.0,1.0,252.0,891.0,1.0,1,1707.0,1
499,499,0.528293716753237,0.5,0.0,0.0,488.0,541.0,0.0,1,171.0,1
500,500,-0.7643518828961602,-0.8,0.0,1.0,361.0,612.0,1.0,0,297.0,1
501,501,0.582685290552109,0.6,1.0,1.0,270.0,705.0,1.0,1,145.0,1
502,502,0.8562625090315953,0.9,1.0,1.0,290.0,627.0,1.0,1,233.0,1
503,503,-0.7921269268264809,-0.8,1.0,0.0,295.0,589.0,0.0,0,146.0,1
504,504,0.4303680638498636,0.4,0.0,0.0,309.0,814.0,0.0,1,287.0,1
505,505,0.0012352343704903346,0.0,1.0,1.0,255.0,981.0,1.0,1,854.0,1
506,506,0.4820202026473589,0.5,0.0,0.0,337.0,775.0,0.0,1,148.0,1
507,507,-0.8158301667880341,-0.8,0.0,1.0,268.0,502.0,1.0,0,260.0,1
508,508,-0.809894058840967,-0.8,1.0,0.0,268.0,846.0,0.0,0,136.0,1
509,509,-0.17095775449362682,-0.2,0.0,1.0,463.0,567.0,1.0,0,730.0,1
510,510,-0.8602178606834138,-0.9,1.0,0.0,396.0,878.0,0.0,0,146.0,1
511,511,-0.855323002728993,-0.9,1.0,0.0,410.0,556.0,0.0,0,104.0,1
512,512,0.8330242473059913,0.8,0.0,0.0,376.0,598.0,0.0,1,6.0,1
513,513,0.3090196278753149,0.3,1.0,1.0,477.0,958.0,1.0,1,315.0,1
514,514,-0.08757570746004717,-0.1,1.0,0.0,276.0,811.0,1.0,1,553.0,0
515,515,-0.4949028176244068,-0.5,0.0,1.0,325.0,584.0,1.0,0,421.0,1
516,516,-0.1811053199940511,-0.2,0.0,1.0,366.0,566.0,1.0,0,1228.0,1
517,517,-0.8187035115366404,-0.8,1.0,0.0,374.0,975.0,0.0,0,81.0,1
518,518,-0.8212253412901337,-0.8,0.0,1.0,399.0,516.0,1.0,0,205.0,1
519,519,0.13490060386211888,0.1,0.0,0.0,250.0,808.0,0.0,1,2232.0,1
520,520,-0.6719064389517309,-0.7,1.0,0.0,400.0,695.0,0.0,0,185.0,1
521,521,0.6421546306697351,0.6,1.0,1.0,491.0,610.0,1.0,1,259.0,1
522,522,0.7692093253387703,0.8,0.0,0.0,326.0,500.0,0.0,1,114.0,1
523,523,-0.42739284110835557,-0.4,1.0,0.0,393.0,512.0,0.0,0,575.0,1
524,524,0.0036789696258623383,0.0,1.0,1.0,348.0,816.0,0.0,0,2046.0,0
525,525,0.8299011320791158,0.8,1.0,1.0,467.0,834.0,1.0,1,139.0,1
526,526,0.8465509274482189,0.8,0.0,0.0,250.0,621.0,0.0,1,39.0,1
527,527,-0.42686799604890807,-0.4,1.0,0.0,496.0,861.0,0.0,0,273.0,1
528,528,-0.4115796792690161,-0.4,1.0,0.0,291.0,628.0,0.0,0,171.0,1
529,529,0.07683216105781021,0.1,1.0,1.0,428.0,631.0,0.0,0,3941.0,0
530,530,-0.03634950737424414,-0.0,0.0,1.0,430.0,689.0,0.0,1,81.0,0
531,531,0.21058184377471412,0.2,0.0,0.0,259.0,528.0,0.0,1,-27.0,1
532,532,0.6169367877719504,0.6,1.0,1.0,258.0,934.0,1.0,1,148.0,1
533,533,0.6891675174060844,0.7,1.0,1.0,357.0,671.0,1.0,1,82.0,1
534,534,0.010262802396048043,0.0,1.0,1.0,439.0,645.0,1.0,1,3916.0,1
535,535,0.3842697300242398,0.4,0.0,0.0,250.0,984.0,0.0,1,86.0,1
536,536,0.459874494807646,0.5,1.0,1.0,366.0,908.0,1.0,1,146.0,1
537,537,0.7870836824413415,0.8,0.0,0.0,497.0,794.0,0.0,1,139.0,1
538,538,0.29053085035499937,0.3,1.0,1.0,367.0,700.0,1.0,1,393.0,1
539,539,0.3666489602471762,0.4,1.0,1.0,310.0,669.0,1.0,1,41.0,1
540,540,-0.3117146283863599,-0.3,1.0,0.0,391.0,525.0,0.0,0,674.0,1
541,541,0.787558384666997,0.8,1.0,1.0,485.0,829.0,1.0,1,96.0,1
542,542,-0.33073914163745866,-0.3,1.0,0.0,309.0,717.0,0.0,0,224.0,1
543,543,0.8574107035168824,0.9,1.0,1.0,254.0,635.0,1.0,1,191.0,1
544,544,0.4108044466243622,0.4,0.0,0.0,398.0,782.0,0.0,1,320.0,1
545,545,-0.7091477346390427,-0.7,1.0,0.0,409.0,942.0,0.0,0,409.0,1
546,546,-0.3018142647601788,-0.3,1.0,0.0,355.0,589.0,0.0,0,396.0,1
547,547,0.208643954429942,0.2,1.0,1.0,372.0,616.0,1.0,1,832.0,1
548,548,-0.20573792119401035,-0.2,1.0,0.0,341.0,502.0,0.0,0,697.0,1
549,549,0.5048552292035801,0.5,0.0,0.0,274.0,799.0,0.0,1,457.0,1
550,550,-0.31426687599578296,-0.3,1.0,0.0,252.0,640.0,0.0,0,348.0,1
551,551,-0.893048561462292,-0.9,0.0,1.0,390.0,563.0,1.0,0,187.0,1
552,552,0.3741940168346437,0.4,1.0,1.0,447.0,936.0,1.0,1,307.0,1
553,553,0.3180540953313714,0.3,0.0,0.0,290.0,734.0,0.0,1,226.0,1
554,554,0.8082927386177724,0.8,1.0,1.0,311.0,711.0,1.0,1,278.0,1
555,555,0.5895408269907164,0.6,1.0,1.0,420.0,851.0,1.0,1,179.0,1
556,556,-0.735437036232729,-0.7,1.0,0.0,359.0,666.0,0.0,0,-5.0,1
557,557,0.2346986214202359,0.2,0.0,0.0,366.0,518.0,0.0,1,1106.0,1
558,558,-0.548136302519574,-0.5,0.0,1.0,406.0,746.0,1.0,0,328.0,1
559,559,0.48961996482787884,0.5,1.0,1.0,359.0,577.0,1.0,1,294.0,1
560,560,0.008457733073605422,0.0,0.0,0.0,387.0,954.0,0.0,1,469.0,1
561,561,0.5658883388233701,0.6,1.0,1.0,420.0,958.0,1.0,1,262.0,1
562,562,0.5867055002071965,0.6,0.0,0.0,383.0,515.0,0.0,1,212.0,1
563,563,-0.050610997460356355,-0.1,0.0,1.0,262.0,603.0,1.0,0,3515.0,1
564,564,-0.34389080506537884,-0.3,0.0,1.0,474.0,657.0,1.0,0,519.0,1
565,565,0.33964302030815186,0.3,0.0,0.0,257.0,930.0,0.0,1,463.0,1
566,566,0.8340619263031505,0.8,0.0,0.0,308.0,649.0,0.0,1,23.0,1
567,567,-0.4576963751764668,-0.5,0.0,1.0,270.0,620.0,1.0,0,330.0,1
568,568,0.43445129860407994,0.4,0.0,0.0,318.0,852.0,0.0,1,40.0,1
569,569,-0.5170878148565028,-0.5,1.0,0.0,381.0,710.0,0.0,0,239.0,1
570,570,-0.5443428375988228,-0.5,1.0,0.0,377.0,677.0,0.0,0,186.0,1
571,571,0.4994522212978282,0.5,1.0,1.0,378.0,622.0,1.0,1,300.0,1
572,572,-0.11779900270428789,-0.1,1.0,0.0,429.0,975.0,0.0,0,1756.0,1
573,573,0.23756068897379723,0.2,1.0,1.0,431.0,743.0,1.0,1,436.0,1
574,574,0.2944081003565896,0.3,0.0,0.0,355.0,590.0,0.0,1,225.0,1
575,575,-0.44165676223876144,-0.4,1.0,0.0,450.0,972.0,0.0,0,-442.0,1
576,576,-0.7281509182671436,-0.7,1.0,0.0,294.0,761.0,0.0,0,95.0,1
577,577,-0.10143079181857217,-0.1,1.0,0.0,386.0,916.0,0.0,0,418.0,1
578,578,-0.08283446635965264,-0.1,1.0,0.0,366.0,615.0,0.0,0,1789.0,1
579,579,-0.2148106788132622,-0.2,0.0,1.0,453.0,801.0,1.0,0,2176.0,1
580,580,0.8266059701778697,0.8,1.0,1.0,328.0,695.0,1.0,1,97.0,1
581,581,0.6100168584210234,0.6,1.0,1.0,492.0,931.0,1.0,1,397.0,1
582,582,0.7755959935088655,0.8,1.0,1.0,398.0,843.0,1.0,1,139.0,1
583,583,0.8947431490632097,0.9,1.0,1.0,269.0,644.0,1.0,1,207.0,1
584,584,0.21121882938507597,0.2,0.0,0.0,448.0,558.0,0.0,1,324.0,1
585,585,-0.7302461617691645,-0.7,0.0,1.0,344.0,667.0,1.0,0,309.0,1
586,586,-0.15078333664696975,-0.2,0.0,1.0,354.0,576.0,1.0,0,2070.0,1
587,587,-0.5462164875773075,-0.5,1.0,0.0,342.0,930.0,0.0,0,238.0,1
588,588,0.0056145430840705,0.0,0.0,0.0,430.0,602.0,0.0,1,858.0,1
589,589,0.5655106632891614,0.6,1.0,1.0,458.0,991.0,1.0,1,271.0,1
590,590,0.8651146435990847,0.9,0.0,0.0,342.0,946.0,0.0,1,-278.0,1
591,591,0.8012958440506283,0.8,1.0,1.0,379.0,725.0,1.0,1,156.0,1
592,592,-0.2845829956215211,-0.3,1.0,0.0,420.0,961.0,0.0,0,149.0,1
593,593,0.2048430560694411,0.2,0.0,0.0,423.0,603.0,0.0,1,254.0,1
594,594,-0.48929052648161314,-0.5,1.0,0.0,391.0,689.0,0.0,0,320.0,1
595,595,-0.6661764043882482,-0.7,1.0,0.0,466.0,649.0,0.0,0,175.0,1
596,596,-0.32073714968092915,-0.3,1.0,0.0,466.0,721.0,0.0,0,743.0,1
597,597,0.5272070907981542,0.5,1.0,1.0,374.0,894.0,1.0,1,202.0,1
598,598,0.6724610125977247,0.7,1.0,1.0,336.0,591.0,1.0,1,173.0,1
599,599,0.7714667923489268,0.8,0.0,0.0,294.0,577.0,0.0,1,189.0,1
600,600,0.3436724972140154,0.3,1.0,1.0,259.0,668.0,1.0,1,363.0,1
601,601,0.7220133552038167,0.7,0.0,0.0,394.0,963.0,0.0,1,83.0,1
602,602,-0.5607252022454869,-0.6,0.0,1.0,397.0,553.0,1.0,0,790.0,1
603,603,-0.5624284045003145,-0.6,0.0,1.0,438.0,866.0,1.0,0,196.0,1
604,604,-0.8706730679890305,-0.9,1.0,0.0,401.0,607.0,0.0,0,202.0,1
605,605,-0.6002290052236373,-0.6,1.0,0.0,253.0,500.0,0.0,0,157.0,1
606,606,0.8445708290922448,0.8,0.0,0.0,385.0,980.0,0.0,1,-35.0,1
607,607,0.24129671861337443,0.2,1.0,1.0,331.0,935.0,1.0,1,274.0,1
608,608,-0.04580960837212367,-0.0,0.0,1.0,343.0,589.0,0.0,1,4068.0,0
609,609,0.8861192739293172,0.9,1.0,1.0,288.0,869.0,1.0,1,53.0,1
610,610,-0.47234469920530475,-0.5,1.0,0.0,256.0,772.0,0.0,0,282.0,1
611,611,-0.43023289436909956,-0.4,0.0,1.0,356.0,943.0,1.0,0,321.0,1
612,612,0.008561543358980184,0.0,0.0,0.0,391.0,928.0,0.0,1,151.0,1
613,613,0.8776295872607652,0.9,0.0,0.0,351.0,916.0,0.0,1,-277.0,1
614,614,-0.8891415047221032,-0.9,1.0,0.0,319.0,603.0,0.0,0,148.0,1
615,615,0.5358751418453772,0.5,0.0,0.0,289.0,970.0,0.0,1,211.0,1
616,616,-0.2764803962094605,-0.3,0.0,1.0,462.0,853.0,1.0,0,1555.0,1
617,617,0.42792520750781116,0.4,0.0,0.0,268.0,602.0,0.0,1,-70.0,1
618,618,-0.10699062223032674,-0.1,1.0,0.0,260.0,890.0,0.0,0,870.0,1
619,619,-0.26679065503157595,-0.3,1.0,0.0,303.0,991.0,0.0,0,736.0,1
620,620,-0.8391796792054391,-0.8,0.0,1.0,318.0,930.0,1.0,0,132.0,1
621,621,0.45410960320208316,0.5,1.0,1.0,378.0,686.0,1.0,1,166.0,1
622,622,-0.8994769944027873,-0.9,0.0,1.0,427.0,890.0,1.0,0,183.0,1
623,623,0.6301618371959122,0.6,0.0,0.0,329.0,629.0,0.0,1,162.0,1
624,624,0.4136995727393272,0.4,0.0,0.0,435.0,699.0,0.0,1,456.0,1
625,625,0.6688906524389732,0.7,0.0,0.0,401.0,564.0,0.0,1,65.0,1
626,626,0.5281819287549551,0.5,1.0,1.0,422.0,593.0,0.0,0,-55.0,0
627,627,-0.6400418983117504,-0.6,1.0,0.0,260.0,513.0,0.0,0,107.0,1
628,628,0.009832128025669684,0.0,1.0,1.0,475.0,834.0,0.0,0,1241.0,0
629,629,-0.3521512916267504,-0.4,0.0,1.0,448.0,919.0,1.0,0,453.0,1
630,630,-0.4599434178128357,-0.5,0.0,1.0,330.0,728.0,0.0,1,32.0,0
631,631,0.4327771289729928,0.4,0.0,0.0,283.0,625.0,0.0,1,122.0,1
632,632,-0.39017250738551856,-0.4,1.0,0.0,394.0,649.0,0.0,0,267.0,1
633,633,0.5719123499689353,0.6,0.0,0.0,406.0,716.0,0.0,1,-292.0,1
634,634,-0.4203695968320235,-0.4,1.0,0.0,451.0,659.0,0.0,0,240.0,1
635,635,0.8084949007470045,0.8,1.0,1.0,334.0,717.0,1.0,1,39.0,1
636,636,0.8044988321979326,0.8,1.0,1.0,348.0,976.0,1.0,1,-164.0,1
637,637,0.1619398430035358,0.2,0.0,0.0,271.0,879.0,0.0,1,280.0,1
638,638,-0.388913884852628,-0.4,0.0,1.0,335.0,553.0,1.0,0,412.0,1
639,639,0.7165029218243356,0.7,0.0,0.0,300.0,749.0,0.0,1,231.0,1
640,640,0.823457171912369,0.8,1.0,1.0,379.0,624.0,1.0,1,377.0,1
641,641,0.11877043781006547,0.1,0.0,0.0,482.0,875.0,0.0,1,843.0,1
642,642,-0.46858421745990836,-0.5,1.0,0.0,363.0,832.0,0.0,0,195.0,1
643,643,-0.6892582673727339,-0.7,1.0,0.0,322.0,646.0,0.0,0,262.0,1
644,644,-0.8785880245572378,-0.9,0.0,1.0,432.0,594.0,1.0,0,224.0,1
645,645,0.05675441938813908,0.1,1.0,1.0,360.0,976.0,1.0,1,1014.0,1
646,646,0.6785584598377213,0.7,1.0,1.0,303.0,532.0,1.0,1,195.0,1
647,647,0.6084190667835941,0.6,0.0,0.0,464.0,993.0,0.0,1,-447.0,1
648,648,-0.7242547888184903,-0.7,1.0,0.0,452.0,681.0,0.0,0,207.0,1
649,649,0.48571158118115887,0.5,0.0,0.0,307.0,981.0,0.0,1,162.0,1
650,650,0.8651628819962972,0.9,1.0,1.0,264.0,655.0,1.0,1,131.0,1
651,651,0.617058133442833,0.6,0.0,0.0,369.0,810.0,0.0,1,101.0,1
652,652,0.7491453064446846,0.7,1.0,1.0,268.0,644.0,1.0,1,258.0,1
653,653,0.5850727813366038,0.6,0.0,0.0,420.0,657.0,0.0,1,313.0,1
654,654,-0.10904472119118591,-0.1,1.0,0.0,460.0,989.0,0.0,0,81.0,1
655,655,-0.5047528292638683,-0.5,0.0,1.0,477.0,564.0,1.0,0,449.0,1
656,656,0.2154365465527196,0.2,0.0,0.0,282.0,609.0,0.0,1,249.0,1
657,657,0.14339124864730646,0.1,1.0,1.0,388.0,878.0,1.0,1,754.0,1
658,658,0.8980451835863495,0.9,0.0,0.0,296.0,655.0,0.0,1,29.0,1
659,659,0.6460258919748388,0.6,1.0,1.0,330.0,677.0,1.0,1,243.0,1
660,660,0.43376209994105086,0.4,1.0,1.0,491.0,795.0,1.0,1,224.0,1
661,661,0.8305947642678398,0.8,1.0,1.0,464.0,679.0,1.0,1,127.0,1
662,662,-0.32550243342270624,-0.3,1.0,0.0,262.0,553.0,0.0,0,285.0,1
663,663,-0.2361145800024299,-0.2,0.0,1.0,274.0,940.0,1.0,0,346.0,1
664,664,0.1840450715199723,0.2,1.0,1.0,433.0,990.0,1.0,1,327.0,1
665,665,-0.7057414069643964,-0.7,1.0,0.0,298.0,969.0,0.0,0,113.0,1
666,666,-0.4980938636447912,-0.5,1.0,0.0,470.0,954.0,0.0,0,116.0,1
667,667,0.7342172614746573,0.7,1.0,1.0,266.0,853.0,1.0,1,201.0,1
668,668,-0.4656984509697413,-0.5,1.0,0.0,492.0,559.0,0.0,0,179.0,1
669,669,0.1436582834559893,0.1,0.0,0.0,276.0,594.0,0.0,1,1170.0,1
670,670,0.44201688923254123,0.4,1.0,1.0,469.0,553.0,1.0,1,408.0,1
671,671,-0.7791145089164432,-0.8,0.0,1.0,442.0,626.0,1.0,0,242.0,1
672,672,0.2797752191827175,0.3,1.0,1.0,477.0,555.0,1.0,1,608.0,1
673,673,0.2891297522239741,0.3,1.0,1.0,328.0,683.0,1.0,1,409.0,1
674,674,-0.10208199160537246,-0.1,0.0,1.0,446.0,597.0,0.0,1,397.0,0
675,675,0.7450659166583599,0.7,0.0,0.0,418.0,863.0,0.0,1,129.0,1
676,676,0.7512529528747715,0.8,1.0,1.0,395.0,843.0,1.0,1,52.0,1
677,677,0.8158009564817331,0.8,0.0,0.0,458.0,682.0,0.0,1,170.0,1
678,678,0.28293482457174723,0.3,1.0,1.0,337.0,504.0,1.0,1,119.0,1
679,679,0.11681314424970168,0.1,0.0,0.0,336.0,679.0,0.0,1,575.0,1
680,680,-0.12346169624061487,-0.1,0.0,1.0,293.0,978.0,0.0,1,209.0,0
681,681,0.7315719436691707,0.7,1.0,1.0,359.0,665.0,1.0,1,166.0,1
682,682,0.7705104073693173,0.8,1.0,1.0,427.0,513.0,1.0,1,190.0,1
683,683,0.05130149462069755,0.1,1.0,1.0,456.0,929.0,0.0,0,-175.0,0
684,684,-0.3607913071374462,-0.4,0.0,1.0,485.0,706.0,1.0,0,389.0,1
685,685,0.5970719090236255,0.6,0.0,0.0,286.0,720.0,0.0,1,284.0,1
686,686,-0.6369459287431343,-0.6,1.0,0.0,371.0,897.0,0.0,0,392.0,1
687,687,-0.4826369039409441,-0.5,1.0,0.0,481.0,739.0,0.0,0,160.0,1
688,688,-0.08781587336155428,-0.1,0.0,1.0,442.0,735.0,0.0,1,33.0,0
689,689,0.4592408604319883,0.5,0.0,0.0,272.0,524.0,0.0,1,144.0,1
690,690,-0.3308608173723603,-0.3,0.0,1.0,285.0,724.0,1.0,0,391.0,1
691,691,-0.49762496135289297,-0.5,0.0,1.0,294.0,713.0,1.0,0,293.0,1
692,692,-0.8396746238999994,-0.8,1.0,0.0,490.0,511.0,0.0,0,189.0,1
693,693,-0.142558307139096,-0.1,1.0,0.0,447.0,696.0,0.0,0,1887.0,1
694,694,0.8972740080027392,0.9,0.0,0.0,448.0,527.0,0.0,1,115.0,1
695,695,-0.4013150573772845,-0.4,0.0,1.0,325.0,950.0,0.0,1,-445.0,0
696,696,-0.28927825195088164,-0.3,0.0,1.0,329.0,520.0,1.0,0,511.0,1
697,697,-0.5956632786991496,-0.6,0.0,1.0,473.0,740.0,1.0,0,247.0,1
698,698,-0.7633083251282109,-0.8,1.0,0.0,303.0,918.0,0.0,0,-241.0,1
699,699,0.16164716436098459,0.2,1.0,1.0,359.0,978.0,1.0,1,413.0,1
700,700,0.3210473004476554,0.3,0.0,0.0,265.0,787.0,0.0,1,468.0,1
701,701,0.044350325055253714,0.0,0.0,0.0,368.0,743.0,0.0,1,1479.0,1
702,702,-0.3143501666686497,-0.3,0.0,1.0,310.0,661.0,1.0,0,259.0,1
703,703,-0.7144805163106889,-0.7,1.0,0.0,404.0,878.0,0.0,0,308.0,1
704,704,-0.5699936892758175,-0.6,0.0,1.0,315.0,843.0,0.0,1,-208.0,0
705,705,-0.13241275748076808,-0.1,0.0,1.0,439.0,556.0,1.0,0,3025.0,1
706,706,-0.1392835920415062,-0.1,1.0,0.0,268.0,786.0,0.0,0,576.0,1
707,707,-0.7930082024148251,-0.8,0.0,1.0,388.0,670.0,1.0,0,362.0,1
708,708,0.8290594660543559,0.8,1.0,1.0,291.0,804.0,1.0,1,-365.0,1
709,709,-0.15154351191579218,-0.2,1.0,0.0,279.0,736.0,0.0,0,875.0,1
710,710,-0.5562747091898361,-0.6,1.0,0.0,345.0,652.0,0.0,0,313.0,1
711,711,0.17240195641210276,0.2,0.0,0.0,291.0,726.0,0.0,1,1773.0,1
712,712,-0.4635287830895725,-0.5,0.0,1.0,378.0,954.0,1.0,0,268.0,1
713,713,0.6373119118733336,0.6,1.0,1.0,498.0,666.0,1.0,1,146.0,1
714,714,-0.7740807198636132,-0.8,1.0,0.0,484.0,545.0,0.0,0,181.0,1
715,715,0.774859943471213,0.8,1.0,1.0,287.0,515.0,1.0,1,368.0,1
716,716,0.6895334770812652,0.7,0.0,0.0,430.0,884.0,0.0,1,-464.0,1
717,717,-0.11691462721545587,-0.1,0.0,1.0,451.0,547.0,1.0,0,2552.0,1
718,718,-0.644606162439018,-0.6,0.0,1.0,259.0,553.0,1.0,0,158.0,1
719,719,-0.7910677060236565,-0.8,0.0,1.0,349.0,697.0,1.0,0,194.0,1
720,720,0.005053889895478614,0.0,1.0,1.0,482.0,776.0,1.0,1,1002.0,1
721,721,0.5070055368308045,0.5,1.0,1.0,407.0,608.0,1.0,1,265.0,1
722,722,0.6530068505696277,0.7,1.0,1.0,275.0,737.0,1.0,1,318.0,1
723,723,0.015307907999916659,0.0,1.0,1.0,468.0,949.0,0.0,0,3043.0,0
724,724,0.6784943630466848,0.7,1.0,1.0,259.0,638.0,1.0,1,73.0,1
725,725,-0.20218233304304878,-0.2,0.0,1.0,363.0,943.0,1.0,0,2824.0,1
726,726,-0.7880951759940651,-0.8,1.0,0.0,419.0,870.0,0.0,0,131.0,1
727,727,0.8532810761238826,0.9,0.0,0.0,456.0,926.0,0.0,1,128.0,1
728,728,0.3892236385304356,0.4,1.0,1.0,337.0,770.0,1.0,1,223.0,1
729,729,0.7488582813099035,0.7,1.0,1.0,414.0,812.0,1.0,1,184.0,1
730,730,0.4644622014273815,0.5,0.0,0.0,391.0,914.0,0.0,1,385.0,1
731,731,-0.09694854477405268,-0.1,1.0,0.0,255.0,515.0,0.0,0,980.0,1
732,732,-0.7931557606755371,-0.8,1.0,0.0,405.0,911.0,0.0,0,514.0,1
733,733,0.37098434966391636,0.4,0.0,0.0,264.0,553.0,0.0,1,163.0,1
734,734,-0.7196874613353217,-0.7,1.0,0.0,297.0,681.0,0.0,0,172.0,1
735,735,0.6672062400067159,0.7,0.0,0.0,348.0,939.0,0.0,1,103.0,1
736,736,0.7624476362524796,0.8,1.0,1.0,482.0,986.0,1.0,1,172.0,1
737,737,-0.7970786161356431,-0.8,1.0,0.0,396.0,586.0,0.0,0,98.0,1
738,738,0.7046244066493993,0.7,0.0,0.0,302.0,739.0,0.0,1,159.0,1
739,739,0.21649333021215889,0.2,0.0,0.0,422.0,862.0,0.0,1,736.0,1
740,740,-0.34708585949741166,-0.3,0.0,1.0,351.0,631.0,1.0,0,438.0,1
741,741,0.19951145051710484,0.2,0.0,0.0,315.0,514.0,0.0,1,461.0,1
742,742,-0.14371190063611428,-0.1,1.0,0.0,353.0,664.0,0.0,0,1613.0,1
743,743,0.4334497626285255,0.4,1.0,1.0,288.0,646.0,1.0,1,246.0,1
744,744,-0.08602153681359881,-0.1,0.0,1.0,339.0,558.0,1.0,0,4103.0,1
745,745,0.6358099103675251,0.6,0.0,0.0,356.0,755.0,0.0,1,159.0,1
746,746,-0.39405155563209915,-0.4,0.0,1.0,255.0,707.0,1.0,0,188.0,1
747,747,0.43414225408676466,0.4,0.0,0.0,475.0,701.0,0.0,1,124.0,1
748,748,-0.7053593473091303,-0.7,0.0,1.0,387.0,765.0,1.0,0,418.0,1
749,749,0.23358945988593083,0.2,0.0,0.0,323.0,928.0,0.0,1,479.0,1
750,750,0.4000026920417813,0.4,1.0,1.0,396.0,538.0,1.0,1,506.0,1
751,751,0.8153928769966238,0.8,1.0,1.0,266.0,703.0,1.0,1,81.0,1
752,752,0.5222992709746911,0.5,0.0,0.0,471.0,927.0,0.0,1,-418.0,1
753,753,0.1227954097530225,0.1,0.0,0.0,464.0,782.0,0.0,1,904.0,1
754,754,0.7404955287303839,0.7,1.0,1.0,370.0,834.0,1.0,1,216.0,1
755,755,-0.7514916680849227,-0.8,0.0,1.0,430.0,797.0,1.0,0,303.0,1
756,756,0.5964313947580556,0.6,1.0,1.0,309.0,860.0,1.0,1,201.0,1
757,757,-0.4428680677173274,-0.4,1.0,0.0,428.0,502.0,0.0,0,140.0,1
758,758,0.23446810197856782,0.2,0.0,0.0,280.0,883.0,0.0,1,327.0,1
759,759,-0.039251850443768,-0.0,1.0,0.0,451.0,668.0,1.0,1,3881.0,0
760,760,0.5784267041092978,0.6,0.0,0.0,442.0,647.0,0.0,1,111.0,1
761,761,-0.4702923524476671,-0.5,0.0,1.0,422.0,508.0,1.0,0,250.0,1
762,762,0.21541739162156504,0.2,1.0,1.0,369.0,747.0,1.0,1,544.0,1
763,763,0.2813544489566785,0.3,0.0,0.0,498.0,655.0,0.0,1,207.0,1
764,764,-0.47273098165509503,-0.5,1.0,0.0,271.0,638.0,0.0,0,241.0,1
765,765,-0.19214733024055153,-0.2,1.0,0.0,481.0,870.0,1.0,1,-41.0,0
766,766,0.06760228475358998,0.1,0.0,0.0,452.0,596.0,0.0,1,1032.0,1
767,767,0.7764482511876901,0.8,0.0,0.0,285.0,766.0,0.0,1,129.0,1
768,768,0.6857454060370897,0.7,0.0,0.0,411.0,684.0,0.0,1,205.0,1
769,769,0.21732587164958395,0.2,1.0,1.0,380.0,998.0,1.0,1,532.0,1
770,770,0.30663051431746735,0.3,1.0,1.0,472.0,886.0,1.0,1,242.0,1
771,771,-0.5655300278744615,-0.6,0.0,1.0,330.0,538.0,1.0,0,322.0,1
772,772,0.8879434444489988,0.9,1.0,1.0,417.0,885.0,1.0,1,148.0,1
773,773,-0.022175012602561384,-0.0,1.0,0.0,277.0,960.0,1.0,1,-7.0,0
774,774,0.37714411052287,0.4,0.0,0.0,266.0,835.0,0.0,1,179.0,1
775,775,-0.09706713536589073,-0.1,1.0,0.0,267.0,634.0,0.0,0,1359.0,1
776,776,-0.2737761505871803,-0.3,1.0,0.0,468.0,524.0,0.0,0,558.0,1
777,777,-0.4308742272013925,-0.4,1.0,0.0,329.0,578.0,0.0,0,93.0,1
778,778,-0.5450143069045541,-0.5,1.0,0.0,422.0,853.0,0.0,0,375.0,1
779,779,-0.2879598420528998,-0.3,0.0,1.0,271.0,756.0,1.0,0,403.0,1
780,780,0.405708632033451,0.4,1.0,1.0,357.0,734.0,1.0,1,269.0,1
781,781,-0.6963195052242777,-0.7,1.0,0.0,298.0,676.0,0.0,0,46.0,1
782,782,0.3067536855856,0.3,1.0,1.0,478.0,747.0,1.0,1,75.0,1
783,783,-0.37429401031527165,-0.4,0.0,1.0,391.0,896.0,1.0,0,783.0,1
784,784,-0.7910748814368593,-0.8,1.0,0.0,318.0,502.0,0.0,0,250.0,1
785,785,0.2730098096474932,0.3,0.0,0.0,392.0,846.0,0.0,1,232.0,1
786,786,-0.7027324870326003,-0.7,0.0,1.0,356.0,926.0,1.0,0,158.0,1
787,787,-0.2583440204941164,-0.3,0.0,1.0,490.0,574.0,1.0,0,2636.0,1
788,788,0.8476944537149836,0.8,1.0,1.0,447.0,646.0,1.0,1,67.0,1
789,789,-0.07440036279759576,-0.1,1.0,0.0,329.0,580.0,0.0,0,1751.0,1
790,790,-0.14823774380364396,-0.1,0.0,1.0,376.0,678.0,0.0,1,6.0,0
791,791,-0.8448800517511855,-0.8,1.0,0.0,498.0,705.0,0.0,0,97.0,1
792,792,-0.5661020784216576,-0.6,0.0,1.0,467.0,663.0,1.0,0,160.0,1
793,793,-0.48910324993750487,-0.5,1.0,0.0,257.0,727.0,0.0,0,226.0,1
794,794,-0.01990589071294213,-0.0,0.0,1.0,335.0,944.0,1.0,0,3721.0,1
795,795,0.4121688580896593,0.4,1.0,1.0,326.0,987.0,1.0,1,337.0,1
796,796,0.7618232927358365,0.8,0.0,0.0,274.0,823.0,0.0,1,113.0,1
797,797,0.0004957459025117794,0.0,1.0,1.0,412.0,661.0,1.0,1,2207.0,1
798,798,0.08606899669659174,0.1,1.0,1.0,356.0,737.0,1.0,1,1217.0,1
799,799,0.5169873683579266,0.5,1.0,1.0,397.0,586.0,1.0,1,217.0,1
800,800,-0.7007456886218574,-0.7,0.0,1.0,350.0,633.0,1.0,0,297.0,1
801,801,0.02133173022707846,0.0,0.0,0.0,277.0,868.0,0.0,1,-395.0,1
802,802,0.6130610165832765,0.6,1.0,1.0,257.0,638.0,1.0,1,225.0,1
803,803,0.8255350960025062,0.8,1.0,1.0,406.0,984.0,0.0,0,-650.0,0
804,804,-0.7585453504838361,-0.8,1.0,0.0,474.0,776.0,0.0,0,360.0,1
805,805,-0.8913066788336254,-0.9,0.0,1.0,455.0,937.0,0.0,1,-272.0,0
806,806,0.22920353451197217,0.2,1.0,1.0,324.0,893.0,1.0,1,303.0,1
807,807,0.21967274501569178,0.2,0.0,0.0,330.0,763.0,0.0,1,427.0,1
808,808,-0.31542772064578917,-0.3,1.0,0.0,385.0,805.0,0.0,0,880.0,1
809,809,-0.20901449428207786,-0.2,0.0,1.0,387.0,970.0,1.0,0,1353.0,1
810,810,-0.3376658471198132,-0.3,1.0,0.0,351.0,858.0,0.0,0,321.0,1
811,811,0.0615586525466717,0.1,1.0,1.0,388.0,903.0,1.0,1,1919.0,1
812,812,-0.18523738194504547,-0.2,1.0,0.0,467.0,749.0,0.0,0,664.0,1
813,813,-0.2600622318452379,-0.3,0.0,1.0,266.0,989.0,0.0,1,-415.0,0
814,814,-0.6118214590447413,-0.6,1.0,0.0,375.0,594.0,0.0,0,211.0,1
815,815,0.09581912443364482,0.1,1.0,1.0,470.0,727.0,1.0,1,403.0,1
816,816,0.271866692935275,0.3,1.0,1.0,450.0,700.0,1.0,1,550.0,1
817,817,-0.6392702843173697,-0.6,1.0,0.0,302.0,758.0,0.0,0,90.0,1
818,818,0.32710337043689475,0.3,0.0,0.0,388.0,799.0,0.0,1,473.0,1
819,819,0.04487258885323653,0.0,1.0,1.0,364.0,795.0,1.0,1,431.0,1
820,820,0.49159960798348246,0.5,1.0,1.0,345.0,508.0,1.0,1,277.0,1
821,821,0.8335463890295541,0.8,1.0,1.0,303.0,747.0,1.0,1,120.0,1
822,822,-0.5450758653575667,-0.5,0.0,1.0,254.0,607.0,1.0,0,319.0,1
823,823,0.6938809455052465,0.7,0.0,0.0,406.0,776.0,0.0,1,238.0,1
824,824,0.06359775430181303,0.1,0.0,0.0,323.0,596.0,0.0,1,261.0,1
825,825,0.22904808955500877,0.2,1.0,1.0,422.0,920.0,1.0,1,238.0,1
826,826,0.6518781985563294,0.7,0.0,0.0,444.0,851.0,0.0,1,255.0,1
827,827,-0.7139950665550026,-0.7,0.0,1.0,355.0,700.0,1.0,0,125.0,1
828,828,0.6618095351468792,0.7,0.0,0.0,432.0,839.0,0.0,1,139.0,1
829,829,0.05471704653673404,0.1,1.0,1.0,408.0,834.0,1.0,1,828.0,1
830,830,-0.13868632600887998,-0.1,1.0,0.0,450.0,731.0,0.0,0,2699.0,1
831,831,-0.4922746443592076,-0.5,0.0,1.0,349.0,864.0,1.0,0,817.0,1
832,832,-0.6761799371183881,-0.7,0.0,1.0,372.0,505.0,1.0,0,323.0,1
833,833,0.7327914817383058,0.7,1.0,1.0,352.0,830.0,0.0,0,-122.0,0
834,834,0.6053522705327768,0.6,0.0,0.0,357.0,973.0,0.0,1,160.0,1
835,835,0.6922415266341978,0.7,0.0,0.0,291.0,922.0,0.0,1,247.0,1
836,836,0.8715815715171643,0.9,1.0,1.0,271.0,842.0,1.0,1,317.0,1
837,837,0.07975352947280467,0.1,1.0,1.0,404.0,724.0,1.0,1,1982.0,1
838,838,0.6769751329602683,0.7,1.0,1.0,278.0,611.0,1.0,1,21.0,1
839,839,0.23977893341541556,0.2,0.0,0.0,279.0,550.0,0.0,1,151.0,1
840,840,-0.8334372256373528,-0.8,1.0,0.0,335.0,860.0,0.0,0,255.0,1
841,841,0.42721838293084036,0.4,0.0,0.0,450.0,690.0,0.0,1,380.0,1
842,842,0.23273823066320698,0.2,1.0,1.0,467.0,965.0,1.0,1,178.0,1
843,843,-0.8539286221053308,-0.9,1.0,0.0,294.0,612.0,0.0,0,94.0,1
844,844,-0.13038454192755733,-0.1,0.0,1.0,494.0,840.0,1.0,0,936.0,1
845,845,0.8443503226196073,0.8,0.0,0.0,323.0,913.0,0.0,1,214.0,1
846,846,-0.8869325147225195,-0.9,0.0,1.0,298.0,832.0,1.0,0,160.0,1
847,847,-0.1317030226901682,-0.1,0.0,1.0,351.0,917.0,1.0,0,3732.0,1
848,848,-0.4781062051150796,-0.5,1.0,0.0,296.0,944.0,0.0,0,260.0,1
849,849,-0.38772362021851803,-0.4,0.0,1.0,440.0,598.0,1.0,0,1362.0,1
850,850,-0.8871562180197271,-0.9,1.0,0.0,451.0,698.0,0.0,0,91.0,1
851,851,-0.15403042566899117,-0.2,1.0,0.0,468.0,872.0,0.0,0,640.0,1
852,852,0.2778119202691923,0.3,1.0,1.0,434.0,992.0,1.0,1,14.0,1
853,853,0.3559294642740275,0.4,0.0,0.0,443.0,663.0,0.0,1,224.0,1
854,854,0.5923887356373415,0.6,1.0,1.0,445.0,959.0,1.0,1,266.0,1
855,855,0.727404279333525,0.7,0.0,0.0,359.0,966.0,0.0,1,205.0,1
856,856,0.866926434879531,0.9,0.0,0.0,277.0,712.0,0.0,1,41.0,1
857,857,-0.8618627037709549,-0.9,0.0,1.0,377.0,935.0,1.0,0,208.0,1
858,858,0.7628381726313486,0.8,1.0,1.0,351.0,663.0,1.0,1,246.0,1
859,859,-0.7436982037319487,-0.7,1.0,0.0,401.0,892.0,0.0,0,-233.0,1
860,860,-0.516074997134212,-0.5,0.0,1.0,381.0,636.0,1.0,0,113.0,1
861,861,-0.3845173746546534,-0.4,0.0,1.0,398.0,966.0,1.0,0,456.0,1
862,862,0.5937914285170803,0.6,1.0,1.0,462.0,519.0,1.0,1,269.0,1
863,863,0.8172717862091362,0.8,0.0,0.0,322.0,664.0,0.0,1,24.0,1
864,864,-0.8037270031847683,-0.8,0.0,1.0,428.0,508.0,1.0,0,314.0,1
865,865,0.1909641210113623,0.2,1.0,1.0,323.0,955.0,1.0,1,1092.0,1
866,866,0.3609093248957035,0.4,1.0,1.0,336.0,597.0,1.0,1,377.0,1
867,867,-0.7886648167647093,-0.8,1.0,0.0,293.0,749.0,0.0,0,238.0,1
868,868,0.8136842481935379,0.8,1.0,1.0,322.0,552.0,1.0,1,176.0,1
869,869,0.805201654347505,0.8,1.0,1.0,381.0,845.0,1.0,1,294.0,1
870,870,0.6164551268736934,0.6,1.0,1.0,443.0,868.0,1.0,1,79.0,1
871,871,-0.36829479508993224,-0.4,1.0,0.0,335.0,783.0,0.0,0,282.0,1
872,872,-0.6474974067471818,-0.6,0.0,1.0,427.0,928.0,1.0,0,285.0,1
873,873,-0.10886571602615214,-0.1,1.0,0.0,289.0,624.0,0.0,0,477.0,1
874,874,0.16839566353889845,0.2,0.0,0.0,344.0,568.0,0.0,1,1488.0,1
875,875,-0.15035411216564432,-0.2,1.0,0.0,353.0,935.0,0.0,0,592.0,1
876,876,-0.5916033233969618,-0.6,1.0,0.0,341.0,583.0,0.0,0,216.0,1
877,877,0.46907642851675513,0.5,0.0,0.0,463.0,556.0,0.0,1,321.0,1
878,878,0.7239522489388258,0.7,0.0,0.0,363.0,683.0,0.0,1,274.0,1
879,879,0.8227502001347523,0.8,0.0,0.0,297.0,885.0,0.0,1,198.0,1
880,880,-0.38960748562822467,-0.4,0.0,1.0,381.0,805.0,1.0,0,394.0,1
881,881,0.04940433308001646,0.0,1.0,1.0,466.0,947.0,1.0,1,1187.0,1
882,882,-0.6891684621143704,-0.7,1.0,0.0,432.0,887.0,0.0,0,161.0,1
883,883,-0.4259774578160418,-0.4,1.0,0.0,346.0,920.0,0.0,0,454.0,1
884,884,0.009383417742040434,0.0,1.0,1.0,376.0,529.0,1.0,1,565.0,1
885,885,0.2216717052947973,0.2,1.0,1.0,301.0,591.0,1.0,1,458.0,1
886,886,-0.6612573766711856,-0.7,0.0,1.0,404.0,854.0,0.0,1,-218.0,0
887,887,-0.8165453068919889,-0.8,0.0,1.0,388.0,919.0,0.0,1,-317.0,0
888,888,0.43687752074348885,0.4,1.0,1.0,402.0,955.0,1.0,1,453.0,1
889,889,0.24626437970571147,0.2,1.0,1.0,471.0,646.0,1.0,1,493.0,1
890,890,-0.7190971017360499,-0.7,0.0,1.0,303.0,850.0,1.0,0,227.0,1
891,891,0.38106669485021316,0.4,0.0,0.0,425.0,885.0,0.0,1,-270.0,1
892,892,-0.7716620094743238,-0.8,1.0,0.0,302.0,982.0,0.0,0,106.0,1
893,893,0.7749095730878525,0.8,0.0,0.0,333.0,772.0,0.0,1,205.0,1
894,894,0.6615407973933715,0.7,1.0,1.0,479.0,505.0,1.0,1,376.0,1
895,895,-0.6302143372809217,-0.6,1.0,0.0,490.0,541.0,0.0,0,179.0,1
896,896,0.7679346801611967,0.8,1.0,1.0,257.0,799.0,1.0,1,134.0,1
897,897,-0.17222218093648678,-0.2,0.0,1.0,291.0,886.0,0.0,1,-387.0,0
898,898,0.07395765853724301,0.1,1.0,1.0,397.0,839.0,1.0,1,-116.0,1
899,899,0.6460430704216896,0.6,1.0,1.0,398.0,665.0,1.0,1,67.0,1
900,900,-0.23009063369462635,-0.2,1.0,0.0,320.0,584.0,0.0,0,256.0,1
901,901,-0.03853862494730098,-0.0,1.0,0.0,305.0,607.0,0.0,0,1168.0,1
902,902,0.5693245106028478,0.6,1.0,1.0,342.0,938.0,1.0,1,330.0,1
903,903,0.014639449418508033,0.0,0.0,0.0,285.0,620.0,0.0,1,275.0,1
904,904,0.4951646390603851,0.5,1.0,1.0,395.0,566.0,1.0,1,99.0,1
905,905,0.23000565219996394,0.2,0.0,0.0,286.0,586.0,0.0,1,658.0,1
906,906,-0.660395102244451,-0.7,1.0,0.0,356.0,974.0,0.0,0,160.0,1
907,907,-0.6019936178590702,-0.6,0.0,1.0,356.0,861.0,1.0,0,303.0,1
908,908,0.7977628246323688,0.8,1.0,1.0,423.0,592.0,1.0,1,115.0,1
909,909,0.24851649613505178,0.2,1.0,1.0,435.0,626.0,1.0,1,589.0,1
910,910,0.026775789680761553,0.0,1.0,1.0,422.0,770.0,1.0,1,648.0,1
911,911,-0.8361003486989013,-0.8,1.0,0.0,317.0,842.0,0.0,0,51.0,1
912,912,-0.12862050443455564,-0.1,1.0,0.0,299.0,786.0,0.0,0,715.0,1
913,913,-0.15812894803832045,-0.2,0.0,1.0,484.0,899.0,1.0,0,957.0,1
914,914,-0.6098461642745272,-0.6,0.0,1.0,345.0,948.0,1.0,0,337.0,1
915,915,0.05728040537608747,0.1,0.0,0.0,296.0,502.0,0.0,1,952.0,1
916,916,0.5488619754129406,0.5,0.0,0.0,486.0,592.0,0.0,1,132.0,1
917,917,-0.017898286625155913,-0.0,0.0,1.0,452.0,560.0,0.0,1,1998.0,0
918,918,-0.13658300831179793,-0.1,0.0,1.0,388.0,990.0,1.0,0,2482.0,1
919,919,0.7374210177267361,0.7,1.0,1.0,484.0,847.0,0.0,0,-51.0,0
920,920,0.5331421720743296,0.5,0.0,0.0,301.0,559.0,0.0,1,310.0,1
921,921,-0.16610192705507976,-0.2,0.0,1.0,420.0,696.0,1.0,0,1894.0,1
922,922,-0.005887976582591992,-0.0,1.0,0.0,313.0,930.0,0.0,0,3347.0,1
923,923,-0.12277787052486422,-0.1,1.0,0.0,380.0,519.0,0.0,0,2211.0,1
924,924,-0.17926008080219868,-0.2,0.0,1.0,430.0,853.0,1.0,0,1397.0,1
925,925,0.12980992808310543,0.1,1.0,1.0,310.0,506.0,1.0,1,394.0,1
926,926,-0.8622374267999182,-0.9,1.0,0.0,303.0,850.0,0.0,0,327.0,1
927,927,-0.5525763164353109,-0.6,1.0,0.0,299.0,835.0,0.0,0,216.0,1
928,928,-0.5873601928787592,-0.6,1.0,0.0,372.0,845.0,0.0,0,243.0,1
929,929,0.12896602511051414,0.1,0.0,0.0,353.0,591.0,0.0,1,1606.0,1
930,930,-0.25896064853279577,-0.3,0.0,1.0,494.0,515.0,1.0,0,301.0,1
931,931,-0.06094206059905549,-0.1,1.0,0.0,347.0,689.0,0.0,0,1664.0,1
932,932,-0.7545376098483519,-0.8,0.0,1.0,415.0,548.0,1.0,0,287.0,1
933,933,-0.3525026018542208,-0.4,1.0,0.0,330.0,726.0,0.0,0,654.0,1
934,934,0.18781492050466497,0.2,0.0,0.0,396.0,826.0,0.0,1,288.0,1
935,935,0.6736352697171574,0.7,1.0,1.0,345.0,670.0,1.0,1,265.0,1
936,936,0.2874967413441122,0.3,1.0,1.0,468.0,921.0,1.0,1,271.0,1
937,937,-0.6592642540405138,-0.7,1.0,0.0,260.0,615.0,0.0,0,155.0,1
938,938,0.7788856390621314,0.8,1.0,1.0,400.0,949.0,1.0,1,151.0,1
939,939,-0.7906084913285085,-0.8,0.0,1.0,451.0,871.0,1.0,0,178.0,1
940,940,0.4817275352059437,0.5,1.0,1.0,320.0,920.0,1.0,1,-150.0,1
941,941,0.7937953992532002,0.8,0.0,0.0,462.0,997.0,0.0,1,-29.0,1
942,942,0.4557641699818066,0.5,1.0,1.0,303.0,703.0,1.0,1,184.0,1
943,943,0.08014564565923876,0.1,0.0,0.0,424.0,893.0,0.0,1,-97.0,1
944,944,0.48032936374101454,0.5,0.0,0.0,370.0,791.0,0.0,1,99.0,1
945,945,-0.7131494640908893,-0.7,1.0,0.0,488.0,643.0,0.0,0,139.0,1
946,946,0.5018464765354048,0.5,0.0,0.0,358.0,695.0,0.0,1,37.0,1
947,947,0.32310798914119265,0.3,0.0,0.0,283.0,562.0,0.0,1,295.0,1
948,948,-0.8483745518467896,-0.8,1.0,0.0,431.0,977.0,0.0,0,132.0,1
949,949,0.026106099655323733,0.0,1.0,1.0,393.0,535.0,1.0,1,2842.0,1
950,950,0.7044641765204723,0.7,1.0,1.0,394.0,689.0,1.0,1,247.0,1
951,951,-0.3353941852442136,-0.3,1.0,0.0,455.0,659.0,0.0,0,446.0,1
952,952,0.7622178847518722,0.8,1.0,1.0,410.0,886.0,1.0,1,84.0,1
953,953,-0.16695281368326753,-0.2,0.0,1.0,292.0,888.0,1.0,0,480.0,1
954,954,-0.18878443205592943,-0.2,0.0,1.0,377.0,863.0,1.0,0,610.0,1
955,955,0.3907524822296299,0.4,0.0,0.0,389.0,580.0,0.0,1,581.0,1
956,956,-0.7848748863789732,-0.8,0.0,1.0,477.0,605.0,1.0,0,268.0,1
957,957,0.31002259128024157,0.3,1.0,1.0,465.0,616.0,1.0,1,299.0,1
958,958,-0.7308245128016407,-0.7,0.0,1.0,334.0,646.0,1.0,0,150.0,1
959,959,0.4956459263028242,0.5,0.0,0.0,491.0,514.0,0.0,1,195.0,1
960,960,0.6206639753795214,0.6,1.0,1.0,322.0,514.0,1.0,1,154.0,1
961,961,-0.8915527496947825,-0.9,0.0,1.0,493.0,530.0,1.0,0,307.0,1
962,962,0.36359579170069967,0.4,1.0,1.0,302.0,888.0,1.0,1,190.0,1
963,963,-0.7961475396232632,-0.8,1.0,0.0,369.0,931.0,0.0,0,100.0,1
964,964,0.3739131748077945,0.4,0.0,0.0,447.0,515.0,0.0,1,508.0,1
965,965,-0.7000944787464086,-0.7,0.0,1.0,356.0,615.0,1.0,0,279.0,1
966,966,0.21760085182167221,0.2,0.0,0.0,415.0,979.0,0.0,1,836.0,1
967,967,-0.7278460912545994,-0.7,1.0,0.0,325.0,750.0,0.0,0,145.0,1
968,968,-0.5148348213634626,-0.5,1.0,0.0,290.0,869.0,0.0,0,591.0,1
969,969,-0.7587181366625004,-0.8,0.0,1.0,306.0,696.0,1.0,0,298.0,1
970,970,-0.812731100182194,-0.8,1.0,0.0,407.0,967.0,0.0,0,196.0,1
971,971,-0.6084449727109424,-0.6,1.0,0.0,277.0,955.0,0.0,0,698.0,1
972,972,-0.48166186243445847,-0.5,1.0,0.0,388.0,792.0,0.0,0,140.0,1
973,973,-0.8415977466405768,-0.8,1.0,0.0,400.0,872.0,0.0,0,308.0,1
974,974,0.6483263788993868,0.6,0.0,0.0,264.0,602.0,0.0,1,174.0,1
975,975,-0.6172116925683937,-0.6,1.0,0.0,423.0,994.0,0.0,0,113.0,1
976,976,0.8968868869530259,0.9,0.0,0.0,466.0,838.0,0.0,1,-314.0,1
977,977,0.08772968516011481,0.1,1.0,1.0,367.0,775.0,1.0,1,128.0,1
978,978,-0.2698146580263334,-0.3,0.0,1.0,483.0,835.0,1.0,0,2352.0,1
979,979,-0.05599639796605227,-0.1,1.0,0.0,433.0,928.0,0.0,0,1069.0,1
980,980,0.4551570055121793,0.5,0.0,0.0,302.0,790.0,0.0,1,288.0,1
981,981,-0.07997907716065189,-0.1,1.0,0.0,347.0,588.0,0.0,0,2065.0,1
982,982,-0.7133612589311766,-0.7,1.0,0.0,339.0,542.0,0.0,0,109.0,1
983,983,-0.7796216567629876,-0.8,1.0,0.0,481.0,546.0,0.0,0,73.0,1
984,984,0.6763910852351206,0.7,0.0,0.0,494.0,586.0,0.0,1,320.0,1
985,985,-0.6491753760786637,-0.6,1.0,0.0,401.0,523.0,0.0,0,196.0,1
986,986,-0.08035863173146596,-0.1,1.0,0.0,466.0,574.0,0.0,0,980.0,1
987,987,-0.6986614120318,-0.7,1.0,0.0,461.0,563.0,0.0,0,86.0,1
988,988,0.8371798662234892,0.8,1.0,1.0,277.0,862.0,1.0,1,61.0,1
989,989,0.7395505129545622,0.7,0.0,0.0,493.0,895.0,0.0,1,142.0,1
990,990,0.4003184554398168,0.4,1.0,1.0,308.0,917.0,1.0,1,505.0,1
991,991,0.06956838681606015,0.1,1.0,1.0,477.0,652.0,1.0,1,871.0,1
992,992,0.8073593771684103,0.8,0.0,0.0,360.0,936.0,0.0,1,204.0,1
993,993,-0.46320006692085464,-0.5,0.0,1.0,281.0,760.0,1.0,0,359.0,1
994,994,-0.8882723704101257,-0.9,0.0,1.0,251.0,518.0,1.0,0,161.0,1
995,995,-0.745327699357062,-0.7,1.0,0.0,329.0,972.0,0.0,0,199.0,1
996,996,-0.7727325893435522,-0.8,0.0,1.0,294.0,773.0,1.0,0,83.0,1
997,997,0.6337705382498778,0.6,1.0,1.0,495.0,812.0,1.0,1,313.0,1
998,998,0.7990972553788273,0.8,1.0,1.0,312.0,858.0,1.0,1,100.0,1
999,999,0.72948520834079,0.7,1.0,1.0,343.0,744.0,1.0,1,203.0,1
1000,1000,0.14648655309326475,0.1,1.0,1.0,496.0,861.0,1.0,1,1823.0,1
1001,1001,-0.6507329684952459,-0.7,0.0,1.0,375.0,901.0,1.0,0,354.0,1
1002,1002,-0.45743534573978656,-0.5,1.0,0.0,346.0,919.0,0.0,0,155.0,1
1003,1003,0.28077316765359883,0.3,1.0,1.0,478.0,985.0,1.0,1,267.0,1
1004,1004,-0.03417693675868194,-0.0,1.0,0.0,272.0,527.0,0.0,0,1931.0,1
1005,1005,-0.20645292326943587,-0.2,1.0,0.0,375.0,661.0,0.0,0,54.0,1
1006,1006,0.6601638794428001,0.7,0.0,0.0,301.0,719.0,0.0,1,320.0,1
1007,1007,-0.5594533728972602,-0.6,1.0,0.0,494.0,840.0,0.0,0,66.0,1
1008,1008,0.6106179925516283,0.6,1.0,1.0,349.0,703.0,1.0,1,248.0,1
1009,1009,-0.29790248123830854,-0.3,1.0,0.0,352.0,726.0,0.0,0,232.0,1
1010,1010,-0.357727330525512,-0.4,1.0,0.0,460.0,685.0,0.0,0,275.0,1
1011,1011,0.5786659479761352,0.6,0.0,0.0,250.0,782.0,0.0,1,358.0,1
1012,1012,0.6453535994164322,0.6,0.0,0.0,479.0,894.0,0.0,1,107.0,1
1013,1013,-0.6847723131386177,-0.7,0.0,1.0,375.0,964.0,1.0,0,251.0,1
1014,1014,-0.6167660304992555,-0.6,1.0,0.0,477.0,523.0,0.0,0,150.0,1
1015,1015,-0.03408757023383102,-0.0,1.0,0.0,318.0,538.0,0.0,0,2854.0,1
1016,1016,0.0586649833205094,0.1,0.0,0.0,275.0,930.0,0.0,1,-405.0,1
1017,1017,0.282182250266945,0.3,0.0,0.0,292.0,864.0,0.0,1,-156.0,1
1018,1018,0.6233621400386814,0.6,0.0,0.0,367.0,593.0,0.0,1,330.0,1
1019,1019,-0.34316726071293935,-0.3,1.0,0.0,387.0,611.0,0.0,0,212.0,1
1020,1020,-0.44361875789537003,-0.4,0.0,1.0,368.0,719.0,1.0,0,683.0,1
1021,1021,-0.09877598608099547,-0.1,1.0,0.0,321.0,794.0,0.0,0,305.0,1
1022,1022,-0.15904033025651743,-0.2,0.0,1.0,465.0,671.0,1.0,0,624.0,1
1023,1023,-0.1207976905401017,-0.1,0.0,1.0,265.0,946.0,1.0,0,1669.0,1
1024,1024,0.7335616439750706,0.7,1.0,1.0,494.0,735.0,1.0,1,81.0,1
1025,1025,0.8423489774572525,0.8,1.0,1.0,283.0,990.0,1.0,1,97.0,1
1026,1026,-0.08785803845847262,-0.1,0.0,1.0,385.0,826.0,1.0,0,3789.0,1
1027,1027,0.7907518814851885,0.8,0.0,0.0,260.0,737.0,0.0,1,173.0,1
1028,1028,-0.0663834754979804,-0.1,1.0,0.0,425.0,503.0,1.0,1,4072.0,0
1029,1029,0.5505862946277608,0.6,0.0,0.0,290.0,746.0,0.0,1,134.0,1
1030,1030,0.008833718484075992,0.0,0.0,0.0,322.0,796.0,0.0,1,1382.0,1
1031,1031,-0.61406544701019,-0.6,0.0,1.0,343.0,833.0,1.0,0,284.0,1
1032,1032,0.20459592022268758,0.2,0.0,0.0,462.0,795.0,0.0,1,293.0,1
1033,1033,-0.8319300058376843,-0.8,1.0,0.0,413.0,534.0,0.0,0,163.0,1
1034,1034,0.5601053545060132,0.6,0.0,0.0,484.0,644.0,0.0,1,172.0,1
1035,1035,-0.7803996041101824,-0.8,0.0,1.0,459.0,611.0,1.0,0,250.0,1
1036,1036,-0.5178223673552764,-0.5,0.0,1.0,319.0,973.0,0.0,1,-242.0,0
1037,1037,-0.03742058400635617,-0.0,0.0,1.0,334.0,837.0,1.0,0,3829.0,1
1038,1038,-0.48748054179556416,-0.5,1.0,0.0,267.0,864.0,0.0,0,339.0,1
1039,1039,-0.2902155891019772,-0.3,0.0,1.0,466.0,963.0,1.0,0,961.0,1
1040,1040,-0.4409560355664307,-0.4,0.0,1.0,414.0,919.0,1.0,0,337.0,1
1041,1041,0.11186724564566564,0.1,1.0,1.0,313.0,555.0,1.0,1,3202.0,1
1042,1042,0.8381558210096606,0.8,1.0,1.0,309.0,604.0,1.0,1,187.0,1
1043,1043,-0.25534713635541273,-0.3,1.0,0.0,268.0,789.0,0.0,0,1253.0,1
1044,1044,0.3792374724941988,0.4,0.0,0.0,493.0,617.0,0.0,1,170.0,1
1045,1045,-0.6075243063433895,-0.6,1.0,0.0,263.0,863.0,0.0,0,184.0,1
1046,1046,-0.5057158761707621,-0.5,0.0,1.0,343.0,650.0,1.0,0,617.0,1
1047,1047,-0.5547613828765577,-0.6,0.0,1.0,449.0,584.0,1.0,0,397.0,1
1048,1048,0.37405179712417,0.4,0.0,0.0,338.0,920.0,0.0,1,192.0,1
1049,1049,0.14163286938864494,0.1,0.0,0.0,357.0,911.0,0.0,1,442.0,1
1050,1050,0.4462897365672688,0.4,1.0,1.0,412.0,610.0,1.0,1,618.0,1
1051,1051,-0.7658009114729596,-0.8,1.0,0.0,412.0,571.0,0.0,0,207.0,1
1052,1052,-0.2030107077770662,-0.2,0.0,1.0,373.0,842.0,1.0,0,605.0,1
1053,1053,-0.3726575575625485,-0.4,0.0,1.0,332.0,839.0,1.0,0,439.0,1
1054,1054,-0.5011140055390232,-0.5,0.0,1.0,327.0,783.0,1.0,0,250.0,1
1055,1055,0.3402788542895566,0.3,0.0,0.0,424.0,579.0,0.0,1,647.0,1
1056,1056,0.6039604928321319,0.6,0.0,0.0,349.0,754.0,0.0,1,347.0,1
1057,1057,0.86406531152195,0.9,0.0,0.0,380.0,726.0,0.0,1,164.0,1
1058,1058,0.22403970729440192,0.2,0.0,0.0,384.0,530.0,0.0,1,436.0,1
1059,1059,-0.22560471468786103,-0.2,1.0,0.0,295.0,925.0,0.0,0,300.0,1
1060,1060,0.05489852709543108,0.1,0.0,0.0,386.0,743.0,0.0,1,931.0,1
1061,1061,-0.5594461247331918,-0.6,1.0,0.0,328.0,837.0,0.0,0,75.0,1
1062,1062,-0.21383228486809724,-0.2,1.0,0.0,299.0,894.0,0.0,0,2507.0,1
1063,1063,-0.5176261930804431,-0.5,1.0,0.0,488.0,841.0,0.0,0,321.0,1
1064,1064,-0.17777716105854113,-0.2,1.0,0.0,416.0,920.0,0.0,0,564.0,1
1065,1065,0.05261422795488013,0.1,1.0,1.0,494.0,941.0,1.0,1,-445.0,1
1066,1066,-0.29277170813707687,-0.3,0.0,1.0,322.0,872.0,1.0,0,606.0,1
1067,1067,0.3006627669674101,0.3,1.0,1.0,435.0,656.0,1.0,1,199.0,1
1068,1068,-0.8897010401405208,-0.9,1.0,0.0,265.0,504.0,0.0,0,171.0,1
1069,1069,0.68074149801531,0.7,0.0,0.0,316.0,687.0,0.0,1,117.0,1
1070,1070,-0.8929783161458567,-0.9,1.0,0.0,431.0,944.0,0.0,0,95.0,1
1071,1071,-0.1489534354655676,-0.1,0.0,1.0,258.0,843.0,1.0,0,659.0,1
1072,1072,0.2758880179971598,0.3,1.0,1.0,459.0,753.0,1.0,1,498.0,1
1073,1073,0.49804331381778455,0.5,1.0,1.0,271.0,906.0,1.0,1,313.0,1
1074,1074,0.6331163982902553,0.6,0.0,0.0,267.0,750.0,0.0,1,153.0,1
1075,1075,-0.1898707854079711,-0.2,1.0,0.0,437.0,975.0,0.0,0,738.0,1
1076,1076,0.10400613788536883,0.1,0.0,0.0,350.0,821.0,0.0,1,1459.0,1
1077,1077,0.6723616622989289,0.7,0.0,0.0,263.0,506.0,0.0,1,221.0,1
1078,1078,-0.09388468440442366,-0.1,1.0,0.0,355.0,843.0,1.0,1,2362.0,0
1079,1079,0.016285274837850694,0.0,0.0,0.0,422.0,511.0,0.0,1,2407.0,1
1080,1080,0.34837104849879463,0.3,0.0,0.0,347.0,822.0,0.0,1,891.0,1
1081,1081,-0.34496541739026865,-0.3,1.0,0.0,436.0,523.0,0.0,0,301.0,1
1082,1082,-0.46295418584100095,-0.5,1.0,0.0,386.0,785.0,0.0,0,309.0,1
1083,1083,-0.7657805906992767,-0.8,1.0,0.0,319.0,612.0,0.0,0,279.0,1
1084,1084,-0.35383711002864315,-0.4,0.0,1.0,250.0,648.0,1.0,0,262.0,1
1085,1085,0.2475260144046484,0.2,0.0,0.0,427.0,574.0,0.0,1,259.0,1
1086,1086,0.2288367989327279,0.2,1.0,1.0,428.0,525.0,1.0,1,927.0,1
1087,1087,0.789403103410831,0.8,1.0,1.0,409.0,584.0,1.0,1,137.0,1
1088,1088,0.8344770564126295,0.8,0.0,0.0,415.0,688.0,0.0,1,-73.0,1
1089,1089,-0.28113985072515124,-0.3,0.0,1.0,446.0,935.0,0.0,1,-381.0,0
1090,1090,-0.3965572857581122,-0.4,0.0,1.0,322.0,836.0,1.0,0,682.0,1
1091,1091,-0.3007005658630342,-0.3,0.0,1.0,408.0,541.0,1.0,0,1721.0,1
1092,1092,-0.24478116196097355,-0.2,1.0,0.0,497.0,814.0,0.0,0,609.0,1
1093,1093,-0.6478049309610194,-0.6,0.0,1.0,352.0,597.0,1.0,0,181.0,1
1094,1094,0.03634676360333666,0.0,1.0,1.0,430.0,614.0,1.0,1,1836.0,1
1095,1095,-0.7007138369626742,-0.7,0.0,1.0,395.0,811.0,1.0,0,354.0,1
1096,1096,-0.8013252925933341,-0.8,1.0,0.0,346.0,809.0,0.0,0,205.0,1
1097,1097,-0.5212664338087554,-0.5,1.0,0.0,460.0,570.0,0.0,0,310.0,1
1098,1098,0.3265556506455646,0.3,0.0,0.0,288.0,627.0,0.0,1,275.0,1
1099,1099,0.26677921532958704,0.3,1.0,1.0,272.0,533.0,1.0,1,335.0,1
1100,1100,0.2505934750463198,0.3,0.0,0.0,303.0,531.0,0.0,1,316.0,1
1101,1101,-0.1403586260114219,-0.1,1.0,0.0,383.0,864.0,0.0,0,763.0,1
1102,1102,0.2623198944622668,0.3,1.0,1.0,471.0,764.0,1.0,1,295.0,1
1103,1103,0.01255440018836651,0.0,0.0,0.0,369.0,964.0,0.0,1,167.0,1
1104,1104,-0.32528342550117484,-0.3,0.0,1.0,347.0,569.0,1.0,0,934.0,1
1105,1105,0.10369472566397786,0.1,1.0,1.0,429.0,746.0,1.0,1,605.0,1
1106,1106,0.21767192750263564,0.2,0.0,0.0,300.0,525.0,0.0,1,125.0,1
1107,1107,-0.5015744965412361,-0.5,1.0,0.0,419.0,701.0,0.0,0,290.0,1
1108,1108,-0.12137241210613636,-0.1,1.0,0.0,293.0,544.0,0.0,0,193.0,1
1109,1109,0.3348073671391899,0.3,0.0,0.0,424.0,563.0,0.0,1,483.0,1
1110,1110,-0.372524525070157,-0.4,0.0,1.0,412.0,598.0,1.0,0,250.0,1
1111,1111,0.04220855925840672,0.0,0.0,0.0,494.0,532.0,0.0,1,1724.0,1
1112,1112,-0.08306754075906075,-0.1,1.0,0.0,250.0,667.0,0.0,0,2503.0,1
1113,1113,0.2098412466797247,0.2,0.0,0.0,498.0,639.0,0.0,1,143.0,1
1114,1114,0.18336961567242416,0.2,1.0,1.0,303.0,554.0,1.0,1,843.0,1
1115,1115,0.18086351906110154,0.2,0.0,0.0,260.0,655.0,0.0,1,655.0,1
1116,1116,0.5062661837072037,0.5,0.0,0.0,251.0,500.0,0.0,1,219.0,1
1117,1117,-0.28974253598822963,-0.3,0.0,1.0,356.0,816.0,1.0,0,458.0,1
1118,1118,0.3174127001451591,0.3,0.0,0.0,268.0,626.0,0.0,1,146.0,1
1119,1119,-0.056558932429730424,-0.1,0.0,1.0,479.0,949.0,1.0,0,722.0,1
1120,1120,-0.8269719652311295,-0.8,0.0,1.0,346.0,881.0,1.0,0,193.0,1
1121,1121,-0.867018617828535,-0.9,1.0,0.0,368.0,536.0,0.0,0,76.0,1
1122,1122,0.46842847556146927,0.5,0.0,0.0,345.0,568.0,0.0,1,-133.0,1
1123,1123,-0.6451098541073572,-0.6,1.0,0.0,285.0,787.0,0.0,0,378.0,1
1124,1124,-0.40408542747438186,-0.4,1.0,0.0,388.0,745.0,0.0,0,357.0,1
1125,1125,0.4455768269729342,0.4,0.0,0.0,402.0,504.0,0.0,1,164.0,1
1126,1126,0.8914163333936177,0.9,0.0,0.0,360.0,784.0,0.0,1,106.0,1
1127,1127,0.8433662729470629,0.8,1.0,1.0,310.0,796.0,1.0,1,214.0,1
1128,1128,0.6269336186202813,0.6,1.0,1.0,450.0,783.0,1.0,1,127.0,1
1129,1129,0.4179612964916565,0.4,1.0,1.0,304.0,588.0,1.0,1,148.0,1
1130,1130,-0.1645498851124212,-0.2,0.0,1.0,437.0,806.0,1.0,0,747.0,1
1131,1131,-0.8920478311080784,-0.9,0.0,1.0,418.0,821.0,1.0,0,321.0,1
1132,1132,0.7724389680347706,0.8,1.0,1.0,397.0,809.0,1.0,1,94.0,1
1133,1133,0.11234639812172154,0.1,0.0,0.0,445.0,513.0,0.0,1,1172.0,1
1134,1134,-0.3059260084530009,-0.3,1.0,0.0,301.0,945.0,0.0,0,814.0,1
1135,1135,-0.5010798705794723,-0.5,1.0,0.0,365.0,840.0,0.0,0,285.0,1
1136,1136,-0.4947823290804629,-0.5,0.0,1.0,349.0,962.0,1.0,0,149.0,1
1137,1137,-0.005127568287873974,-0.0,0.0,1.0,402.0,656.0,0.0,1,232.0,0
1138,1138,-0.2772288370953233,-0.3,0.0,1.0,411.0,514.0,1.0,0,475.0,1
1139,1139,-0.018045489501748224,-0.0,1.0,0.0,457.0,731.0,1.0,1,772.0,0
1140,1140,0.14983049847397456,0.1,0.0,0.0,430.0,935.0,0.0,1,185.0,1
1141,1141,-0.67965597331214,-0.7,0.0,1.0,342.0,889.0,1.0,0,169.0,1
1142,1142,0.2243156275866468,0.2,1.0,1.0,452.0,654.0,1.0,1,1144.0,1
1143,1143,0.6380230554141292,0.6,1.0,1.0,367.0,928.0,1.0,1,545.0,1
1144,1144,0.28833926726184533,0.3,0.0,0.0,390.0,627.0,0.0,1,73.0,1
1145,1145,-0.7978292307283575,-0.8,1.0,0.0,451.0,807.0,0.0,0,162.0,1
1146,1146,0.5298948034743775,0.5,1.0,1.0,418.0,649.0,1.0,1,483.0,1
1147,1147,0.4025871691149815,0.4,0.0,0.0,366.0,566.0,0.0,1,108.0,1
1148,1148,-0.1510928614210505,-0.2,1.0,0.0,284.0,946.0,1.0,1,-190.0,0
1149,1149,-0.8287468012076087,-0.8,1.0,0.0,496.0,860.0,0.0,0,134.0,1
1150,1150,0.8000985115064382,0.8,0.0,0.0,294.0,540.0,0.0,1,96.0,1
1151,1151,-0.14482992663578187,-0.1,0.0,1.0,381.0,520.0,1.0,0,3959.0,1
1152,1152,0.8674859856996774,0.9,1.0,1.0,250.0,587.0,1.0,1,113.0,1
1153,1153,0.3094301756370842,0.3,1.0,1.0,480.0,711.0,1.0,1,529.0,1
1154,1154,-0.049731871210417666,-0.0,1.0,0.0,460.0,879.0,0.0,0,2521.0,1
1155,1155,0.7011537694756033,0.7,0.0,0.0,374.0,912.0,0.0,1,194.0,1
1156,1156,0.2744232892196906,0.3,0.0,0.0,254.0,843.0,0.0,1,443.0,1
1157,1157,0.19248009142479583,0.2,1.0,1.0,418.0,833.0,1.0,1,329.0,1
1158,1158,-0.4586015601634892,-0.5,0.0,1.0,422.0,848.0,1.0,0,480.0,1
1159,1159,-0.4980025574228874,-0.5,1.0,0.0,353.0,946.0,0.0,0,281.0,1
1160,1160,-0.8071337818883412,-0.8,0.0,1.0,360.0,733.0,1.0,0,307.0,1
1161,1161,0.4920931458105954,0.5,0.0,0.0,278.0,897.0,0.0,1,215.0,1
1162,1162,0.8018363921168142,0.8,0.0,0.0,343.0,524.0,0.0,1,223.0,1
1163,1163,-0.35603624055118466,-0.4,0.0,1.0,328.0,701.0,1.0,0,521.0,1
1164,1164,0.6370267282087428,0.6,0.0,0.0,478.0,988.0,0.0,1,74.0,1
1165,1165,0.22178277485000708,0.2,1.0,1.0,360.0,891.0,1.0,1,299.0,1
1166,1166,-0.4519184524862017,-0.5,0.0,1.0,390.0,851.0,1.0,0,479.0,1
1167,1167,0.11788246474762498,0.1,0.0,0.0,461.0,762.0,0.0,1,537.0,1
1168,1168,0.7662292814911683,0.8,1.0,1.0,490.0,832.0,1.0,1,98.0,1
1169,1169,0.8456529189460621,0.8,0.0,0.0,324.0,618.0,0.0,1,168.0,1
1170,1170,0.7510520820077483,0.8,0.0,0.0,492.0,534.0,0.0,1,74.0,1
1171,1171,-0.35398356801993314,-0.4,0.0,1.0,453.0,533.0,1.0,0,244.0,1
1172,1172,0.7623216807190426,0.8,0.0,0.0,334.0,675.0,0.0,1,151.0,1
1173,1173,0.06331653677000693,0.1,1.0,1.0,311.0,665.0,0.0,0,1764.0,0
1174,1174,-0.007267039167832001,-0.0,0.0,1.0,291.0,768.0,0.0,1,61.0,0
1175,1175,-0.13458996443771754,-0.1,0.0,1.0,323.0,647.0,0.0,1,940.0,0
1176,1176,0.8435808346773744,0.8,0.0,0.0,374.0,717.0,0.0,1,199.0,1
1177,1177,0.7391667394856644,0.7,1.0,1.0,299.0,551.0,1.0,1,180.0,1
1178,1178,-0.11567396580850697,-0.1,1.0,0.0,352.0,791.0,0.0,0,147.0,1
1179,1179,0.756941443245028,0.8,0.0,0.0,349.0,748.0,0.0,1,53.0,1
1180,1180,-0.18726576892374347,-0.2,1.0,0.0,307.0,904.0,0.0,0,369.0,1
1181,1181,-0.02034009640825496,-0.0,0.0,1.0,384.0,810.0,1.0,0,1316.0,1
1182,1182,-0.3066200713965588,-0.3,1.0,0.0,265.0,966.0,0.0,0,669.0,1
1183,1183,0.14898266997568987,0.1,0.0,0.0,294.0,951.0,0.0,1,225.0,1
1184,1184,-0.6712290210824057,-0.7,1.0,0.0,391.0,748.0,0.0,0,211.0,1
1185,1185,-0.846014366798248,-0.8,1.0,0.0,261.0,617.0,0.0,0,82.0,1
1186,1186,0.12040328827615843,0.1,0.0,0.0,451.0,856.0,0.0,1,513.0,1
1187,1187,-0.009196228331419087,-0.0,1.0,0.0,422.0,788.0,1.0,1,1640.0,0
1188,1188,-0.14708724545630703,-0.1,1.0,0.0,442.0,953.0,0.0,0,535.0,1
1189,1189,-0.3754171781364152,-0.4,0.0,1.0,438.0,720.0,1.0,0,452.0,1
1190,1190,0.04643330839083626,0.0,0.0,0.0,459.0,570.0,0.0,1,221.0,1
1191,1191,0.4669989003471754,0.5,1.0,1.0,351.0,934.0,1.0,1,65.0,1
1192,1192,0.10893928617569448,0.1,1.0,1.0,385.0,520.0,1.0,1,495.0,1
1193,1193,-0.5370627699279558,-0.5,0.0,1.0,259.0,879.0,1.0,0,282.0,1
1194,1194,0.8892575759641964,0.9,0.0,0.0,421.0,643.0,0.0,1,136.0,1
1195,1195,-0.23264052438657923,-0.2,1.0,0.0,366.0,550.0,0.0,0,674.0,1
1196,1196,0.5497931596352562,0.5,0.0,0.0,467.0,544.0,0.0,1,379.0,1
1197,1197,0.05102564783314312,0.1,1.0,1.0,417.0,868.0,0.0,0,265.0,0
1198,1198,0.04304146442951007,0.0,0.0,0.0,300.0,732.0,0.0,1,-82.0,1
1199,1199,0.4017415870560467,0.4,0.0,0.0,303.0,799.0,0.0,1,148.0,1
1200,1200,-0.5592189517268135,-0.6,0.0,1.0,273.0,596.0,1.0,0,361.0,1
1201,1201,0.760169096258677,0.8,0.0,0.0,274.0,788.0,0.0,1,58.0,1
1202,1202,0.16284968130453226,0.2,0.0,0.0,279.0,997.0,0.0,1,864.0,1
1203,1203,-0.15434171808264208,-0.2,1.0,0.0,447.0,729.0,0.0,0,1164.0,1
1204,1204,0.2190029999193549,0.2,1.0,1.0,273.0,543.0,1.0,1,1174.0,1
1205,1205,0.5631216150571342,0.6,1.0,1.0,486.0,596.0,1.0,1,178.0,1
1206,1206,0.861743624512158,0.9,0.0,0.0,341.0,739.0,0.0,1,90.0,1
1207,1207,-0.06187645602598624,-0.1,1.0,0.0,368.0,513.0,0.0,0,1479.0,1
1208,1208,-0.5098733245148825,-0.5,0.0,1.0,304.0,901.0,1.0,0,295.0,1
1209,1209,-0.3556073642128076,-0.4,0.0,1.0,251.0,908.0,0.0,1,-239.0,0
1210,1210,0.37235521907893576,0.4,1.0,1.0,264.0,784.0,1.0,1,112.0,1
1211,1211,0.026248844891980094,0.0,1.0,1.0,310.0,765.0,1.0,1,3115.0,1
1212,1212,0.8721671963373266,0.9,1.0,1.0,391.0,858.0,1.0,1,101.0,1
1213,1213,-0.4303742436103892,-0.4,1.0,0.0,300.0,894.0,0.0,0,166.0,1
1214,1214,0.39543101145089576,0.4,0.0,0.0,323.0,550.0,0.0,1,637.0,1
1215,1215,-0.6768761482528887,-0.7,0.0,1.0,483.0,889.0,1.0,0,258.0,1
1216,1216,0.7357417055147025,0.7,1.0,1.0,339.0,813.0,1.0,1,208.0,1
1217,1217,0.7398251490958624,0.7,0.0,0.0,443.0,909.0,0.0,1,408.0,1
1218,1218,0.3823284611475807,0.4,1.0,1.0,380.0,659.0,1.0,1,301.0,1
1219,1219,-0.5958094521668531,-0.6,0.0,1.0,427.0,785.0,1.0,0,428.0,1
1220,1220,-0.46889508549274816,-0.5,1.0,0.0,413.0,680.0,0.0,0,297.0,1
1221,1221,0.32642893220348046,0.3,0.0,0.0,372.0,900.0,0.0,1,258.0,1
1222,1222,0.6478215167526845,0.6,1.0,1.0,440.0,796.0,1.0,1,114.0,1
1223,1223,-0.2419812021941118,-0.2,0.0,1.0,290.0,594.0,1.0,0,1146.0,1
1224,1224,0.2546946273802889,0.3,1.0,1.0,253.0,886.0,1.0,1,1241.0,1
1225,1225,-0.5857726937259629,-0.6,1.0,0.0,413.0,733.0,0.0,0,274.0,1
1226,1226,-0.09368883679754048,-0.1,0.0,1.0,471.0,809.0,0.0,1,-190.0,0
1227,1227,-0.22193846877976908,-0.2,0.0,1.0,433.0,878.0,1.0,0,719.0,1
1228,1228,0.41644597074276757,0.4,0.0,0.0,301.0,704.0,0.0,1,385.0,1
1229,1229,-0.10069898906928754,-0.1,1.0,0.0,369.0,865.0,0.0,0,1296.0,1
1230,1230,-0.011371568895039874,-0.0,0.0,1.0,459.0,691.0,0.0,1,2420.0,0
1231,1231,0.16830699326916043,0.2,0.0,0.0,441.0,627.0,0.0,1,822.0,1
1232,1232,0.6795350323358308,0.7,1.0,1.0,321.0,900.0,1.0,1,199.0,1
1233,1233,0.4603894933419045,0.5,0.0,0.0,454.0,881.0,0.0,1,-125.0,1
1234,1234,0.851280851916519,0.9,0.0,0.0,413.0,596.0,0.0,1,151.0,1
1235,1235,-0.06530175685410156,-0.1,0.0,1.0,383.0,651.0,0.0,1,96.0,0
1236,1236,0.39983638425321477,0.4,0.0,0.0,291.0,759.0,0.0,1,40.0,1
1237,1237,-0.6503224787947219,-0.7,0.0,1.0,279.0,908.0,1.0,0,133.0,1
1238,1238,-0.5447079211012712,-0.5,0.0,1.0,474.0,924.0,1.0,0,282.0,1
1239,1239,0.6746434344139888,0.7,1.0,1.0,407.0,624.0,1.0,1,289.0,1
1240,1240,-0.8047164366500622,-0.8,1.0,0.0,272.0,664.0,0.0,0,124.0,1
1241,1241,-0.7559964027531395,-0.8,1.0,0.0,350.0,669.0,0.0,0,121.0,1
1242,1242,0.6843024753569561,0.7,0.0,0.0,374.0,835.0,0.0,1,71.0,1
1243,1243,0.2973914181943903,0.3,1.0,1.0,455.0,756.0,1.0,1,409.0,1
1244,1244,-0.5659557247113005,-0.6,0.0,1.0,454.0,809.0,1.0,0,167.0,1
1245,1245,0.24546688109050774,0.2,0.0,0.0,426.0,943.0,0.0,1,191.0,1
1246,1246,-0.621791301468003,-0.6,0.0,1.0,285.0,697.0,1.0,0,338.0,1
1247,1247,-0.7051000880564198,-0.7,1.0,0.0,271.0,815.0,0.0,0,74.0,1
1248,1248,-0.7291957349925915,-0.7,1.0,0.0,438.0,930.0,0.0,0,642.0,1
1249,1249,0.778228399845872,0.8,1.0,1.0,440.0,868.0,1.0,1,82.0,1
1250,1250,-0.04930795778863206,-0.0,0.0,1.0,267.0,791.0,0.0,1,3942.0,0
1251,1251,0.4665344503340193,0.5,0.0,0.0,436.0,972.0,0.0,1,102.0,1
1252,1252,-0.6543919175300716,-0.7,1.0,0.0,334.0,802.0,0.0,0,124.0,1
1253,1253,-0.26770925926727007,-0.3,0.0,1.0,496.0,676.0,1.0,0,868.0,1
1254,1254,-0.634693815017616,-0.6,0.0,1.0,472.0,982.0,1.0,0,226.0,1
1255,1255,-0.6629913280691385,-0.7,1.0,0.0,349.0,562.0,0.0,0,179.0,1
1256,1256,-0.062275868234901055,-0.1,0.0,1.0,393.0,888.0,0.0,1,2299.0,0
1257,1257,-0.038190733860096526,-0.0,1.0,0.0,297.0,568.0,1.0,1,905.0,0
1258,1258,-0.8242806088543201,-0.8,0.0,1.0,471.0,695.0,1.0,0,174.0,1
1259,1259,0.05719118757277486,0.1,1.0,1.0,308.0,839.0,1.0,1,3853.0,1
1260,1260,0.5643753553259149,0.6,1.0,1.0,400.0,511.0,1.0,1,189.0,1
1261,1261,0.3799160486258789,0.4,1.0,1.0,366.0,839.0,1.0,1,265.0,1
1262,1262,-0.5718639742389835,-0.6,1.0,0.0,390.0,571.0,0.0,0,179.0,1
1263,1263,0.0640466255912151,0.1,1.0,1.0,379.0,554.0,1.0,1,1017.0,1
1264,1264,-0.8334321332799457,-0.8,1.0,0.0,393.0,537.0,0.0,0,290.0,1
1265,1265,0.3603624429580562,0.4,0.0,0.0,369.0,947.0,0.0,1,334.0,1
1266,1266,0.6051684765607358,0.6,0.0,0.0,395.0,615.0,0.0,1,80.0,1
1267,1267,0.7128920200816721,0.7,1.0,1.0,337.0,742.0,1.0,1,-99.0,1
1268,1268,0.5010555565538369,0.5,0.0,0.0,271.0,686.0,0.0,1,133.0,1
1269,1269,-0.2846701275957928,-0.3,0.0,1.0,385.0,850.0,1.0,0,505.0,1
1270,1270,0.5376249669997685,0.5,0.0,0.0,487.0,876.0,0.0,1,207.0,1
1271,1271,-0.6297724874580656,-0.6,1.0,0.0,450.0,783.0,0.0,0,227.0,1
1272,1272,0.8130700786092283,0.8,1.0,1.0,418.0,915.0,1.0,1,187.0,1
1273,1273,-0.5837040907738666,-0.6,0.0,1.0,457.0,872.0,1.0,0,131.0,1
1274,1274,-0.4624886070396512,-0.5,1.0,0.0,395.0,801.0,0.0,0,204.0,1
1275,1275,-0.42815473197383014,-0.4,1.0,0.0,260.0,876.0,0.0,0,864.0,1
1276,1276,0.47543426395067956,0.5,1.0,1.0,351.0,568.0,1.0,1,241.0,1
1277,1277,0.4791989584595674,0.5,0.0,0.0,405.0,974.0,0.0,1,91.0,1
1278,1278,-0.16260329266564966,-0.2,0.0,1.0,327.0,536.0,1.0,0,1377.0,1
1279,1279,-0.06642339157457089,-0.1,0.0,1.0,453.0,580.0,1.0,0,3967.0,1
1280,1280,0.12648328001352815,0.1,1.0,1.0,308.0,658.0,1.0,1,674.0,1
1281,1281,-0.7666464484592485,-0.8,0.0,1.0,426.0,595.0,1.0,0,159.0,1
1282,1282,-0.6431111038977295,-0.6,0.0,1.0,462.0,648.0,1.0,0,170.0,1
1283,1283,0.5754859159817686,0.6,1.0,1.0,425.0,545.0,1.0,1,120.0,1
1284,1284,-0.5906824099342102,-0.6,1.0,0.0,495.0,969.0,0.0,0,86.0,1
1285,1285,-0.6723245561321466,-0.7,0.0,1.0,491.0,978.0,1.0,0,161.0,1
1286,1286,0.6440989117727348,0.6,0.0,0.0,450.0,570.0,0.0,1,180.0,1
1287,1287,0.6532396588906891,0.7,1.0,1.0,364.0,632.0,0.0,0,-236.0,0
1288,1288,0.624392371320419,0.6,0.0,0.0,347.0,782.0,0.0,1,111.0,1
1289,1289,-0.6529974273407652,-0.7,0.0,1.0,266.0,766.0,1.0,0,98.0,1
1290,1290,-0.47319378334961365,-0.5,1.0,0.0,466.0,724.0,0.0,0,340.0,1
1291,1291,-0.2291243694933398,-0.2,0.0,1.0,417.0,603.0,1.0,0,1020.0,1
1292,1292,0.12925186626891294,0.1,1.0,1.0,451.0,711.0,1.0,1,578.0,1
1293,1293,0.20106056990207188,0.2,1.0,1.0,482.0,796.0,1.0,1,642.0,1
1294,1294,0.8781809542761762,0.9,1.0,1.0,406.0,598.0,1.0,1,136.0,1
1295,1295,0.8350433468925619,0.8,0.0,0.0,443.0,834.0,0.0,1,83.0,1
1296,1296,0.05704828163915199,0.1,1.0,1.0,476.0,796.0,1.0,1,938.0,1
1297,1297,0.8532106267303582,0.9,1.0,1.0,376.0,538.0,1.0,1,176.0,1
1298,1298,-0.09646315885313705,-0.1,1.0,0.0,432.0,630.0,0.0,0,258.0,1
1299,1299,0.6434095772239731,0.6,0.0,0.0,380.0,955.0,0.0,1,-205.0,1
1300,1300,-0.6841194137829052,-0.7,0.0,1.0,463.0,633.0,1.0,0,274.0,1
1301,1301,-0.07959775991255857,-0.1,1.0,0.0,288.0,694.0,0.0,0,628.0,1
1302,1302,-0.1820530444672953,-0.2,1.0,0.0,452.0,550.0,0.0,0,988.0,1
1303,1303,-0.6268740003437487,-0.6,1.0,0.0,497.0,587.0,0.0,0,186.0,1
1304,1304,0.8250174265063365,0.8,0.0,0.0,463.0,846.0,0.0,1,181.0,1
1305,1305,0.3945641848986402,0.4,1.0,1.0,412.0,796.0,1.0,1,132.0,1
1306,1306,-0.3630330484534353,-0.4,1.0,0.0,422.0,600.0,0.0,0,358.0,1
1307,1307,0.08088075778740034,0.1,1.0,1.0,271.0,932.0,1.0,1,-43.0,1
1308,1308,-0.8711066415076814,-0.9,1.0,0.0,290.0,834.0,0.0,0,126.0,1
1309,1309,-0.3646425042597109,-0.4,0.0,1.0,433.0,721.0,1.0,0,556.0,1
1310,1310,-0.24254195491042896,-0.2,0.0,1.0,354.0,864.0,1.0,0,182.0,1
1311,1311,-0.35841904610806996,-0.4,0.0,1.0,352.0,577.0,1.0,0,911.0,1
1312,1312,0.45192240808301143,0.5,1.0,1.0,280.0,828.0,1.0,1,222.0,1
1313,1313,0.8661406799724912,0.9,1.0,1.0,370.0,607.0,1.0,1,183.0,1
1314,1314,0.2346824350033948,0.2,1.0,1.0,308.0,522.0,1.0,1,330.0,1
1315,1315,-0.3136593217358339,-0.3,0.0,1.0,428.0,667.0,1.0,0,675.0,1
1316,1316,0.29241178520864264,0.3,1.0,1.0,283.0,983.0,0.0,0,-36.0,0
1317,1317,0.802299807788423,0.8,0.0,0.0,454.0,577.0,0.0,1,79.0,1
1318,1318,-0.12628817463528885,-0.1,0.0,1.0,416.0,697.0,1.0,0,937.0,1
1319,1319,0.7569164395948081,0.8,0.0,0.0,377.0,953.0,0.0,1,0.0,1
1320,1320,0.22764751461615662,0.2,0.0,0.0,399.0,673.0,0.0,1,108.0,1
1321,1321,-0.15056930772219734,-0.2,1.0,0.0,352.0,884.0,0.0,0,1594.0,1
1322,1322,0.8862582730618523,0.9,1.0,1.0,352.0,891.0,1.0,1,107.0,1
1323,1323,-0.05490090527454705,-0.1,1.0,0.0,322.0,998.0,0.0,0,-180.0,1
1324,1324,-0.6570355400942134,-0.7,1.0,0.0,358.0,603.0,0.0,0,249.0,1
1325,1325,-0.1982560588588984,-0.2,0.0,1.0,443.0,590.0,1.0,0,3967.0,1
1326,1326,0.4574913075025965,0.5,1.0,1.0,415.0,898.0,0.0,0,-13.0,0
1327,1327,-0.618203888156355,-0.6,0.0,1.0,359.0,929.0,0.0,1,-78.0,0
1328,1328,-0.5748992863463585,-0.6,1.0,0.0,430.0,877.0,0.0,0,533.0,1
1329,1329,0.8618246348663722,0.9,1.0,1.0,484.0,897.0,1.0,1,129.0,1
1330,1330,0.8446571342182992,0.8,0.0,0.0,439.0,751.0,0.0,1,80.0,1
1331,1331,0.6133705497870857,0.6,1.0,1.0,281.0,995.0,1.0,1,164.0,1
1332,1332,-0.23750989120580934,-0.2,0.0,1.0,274.0,876.0,1.0,0,1900.0,1
1333,1333,0.7509048998545179,0.8,0.0,0.0,316.0,899.0,0.0,1,325.0,1
1334,1334,0.023886680903857704,0.0,0.0,0.0,278.0,954.0,0.0,1,2288.0,1
1335,1335,0.8076016163450445,0.8,1.0,1.0,495.0,732.0,1.0,1,113.0,1
1336,1336,-0.24183392565223338,-0.2,1.0,0.0,480.0,767.0,0.0,0,203.0,1
1337,1337,-0.2432291161765665,-0.2,1.0,0.0,285.0,883.0,0.0,0,702.0,1
1338,1338,-0.21910217536194265,-0.2,1.0,0.0,427.0,736.0,0.0,0,607.0,1
1339,1339,0.4869365132226501,0.5,0.0,0.0,435.0,712.0,0.0,1,263.0,1
1340,1340,-0.10214450101160788,-0.1,0.0,1.0,336.0,634.0,0.0,1,1550.0,0
1341,1341,-0.7796935415728827,-0.8,0.0,1.0,461.0,926.0,1.0,0,293.0,1
1342,1342,0.5175979240492151,0.5,1.0,1.0,314.0,722.0,1.0,1,144.0,1
1343,1343,0.05822183229913258,0.1,1.0,1.0,313.0,903.0,1.0,1,1034.0,1
1344,1344,0.4316120800477167,0.4,1.0,1.0,330.0,862.0,1.0,1,288.0,1
1345,1345,0.896585741903542,0.9,1.0,1.0,257.0,814.0,1.0,1,129.0,1
1346,1346,0.14449165659865837,0.1,0.0,0.0,452.0,535.0,0.0,1,1053.0,1
1347,1347,-0.5959890082709081,-0.6,0.0,1.0,459.0,531.0,1.0,0,150.0,1
1348,1348,0.4675325548877899,0.5,0.0,0.0,254.0,512.0,0.0,1,554.0,1
1349,1349,-0.20435894916514652,-0.2,1.0,0.0,343.0,575.0,0.0,0,762.0,1
1350,1350,-0.5083532787437559,-0.5,0.0,1.0,383.0,822.0,1.0,0,465.0,1
1351,1351,0.5995610915523569,0.6,0.0,0.0,311.0,824.0,0.0,1,255.0,1
1352,1352,0.7960309964783959,0.8,0.0,0.0,417.0,501.0,0.0,1,202.0,1
1353,1353,-0.22106699056156653,-0.2,1.0,0.0,401.0,520.0,0.0,0,129.0,1
1354,1354,0.5099299725115939,0.5,1.0,1.0,324.0,600.0,1.0,1,256.0,1
1355,1355,0.1996140244531147,0.2,0.0,0.0,461.0,939.0,0.0,1,160.0,1
1356,1356,-0.12516399951929558,-0.1,0.0,1.0,318.0,544.0,1.0,0,4138.0,1
1357,1357,0.6526434006227871,0.7,0.0,0.0,474.0,789.0,0.0,1,247.0,1
1358,1358,0.28567799963107066,0.3,0.0,0.0,253.0,962.0,0.0,1,245.0,1
1359,1359,-0.5484425669200665,-0.5,1.0,0.0,408.0,651.0,0.0,0,121.0,1
1360,1360,0.2079247260623326,0.2,0.0,0.0,342.0,888.0,0.0,1,180.0,1
1361,1361,-0.3841866609574949,-0.4,1.0,0.0,401.0,685.0,0.0,0,504.0,1
1362,1362,0.264073448264064,0.3,1.0,1.0,263.0,924.0,1.0,1,273.0,1
1363,1363,-0.6665264087757573,-0.7,0.0,1.0,296.0,660.0,1.0,0,124.0,1
1364,1364,-0.05899490760549131,-0.1,1.0,0.0,429.0,772.0,0.0,0,9.0,1
1365,1365,-0.7851003429052379,-0.8,0.0,1.0,308.0,908.0,1.0,0,324.0,1
1366,1366,0.5676210987154963,0.6,1.0,1.0,268.0,618.0,1.0,1,104.0,1
1367,1367,-0.3774173901101925,-0.4,1.0,0.0,298.0,891.0,0.0,0,431.0,1
1368,1368,0.2083276368255339,0.2,0.0,0.0,443.0,873.0,0.0,1,754.0,1
1369,1369,0.41456515552402295,0.4,1.0,1.0,347.0,897.0,1.0,1,186.0,1
1370,1370,0.4913978745796318,0.5,0.0,0.0,352.0,923.0,0.0,1,-595.0,1
1371,1371,0.6940988349203226,0.7,1.0,1.0,326.0,828.0,1.0,1,236.0,1
1372,1372,-0.26619051620914047,-0.3,0.0,1.0,410.0,753.0,1.0,0,777.0,1
1373,1373,0.04314073289901488,0.0,1.0,1.0,495.0,583.0,1.0,1,2912.0,1
1374,1374,0.28437917531285206,0.3,1.0,1.0,395.0,528.0,1.0,1,347.0,1
1375,1375,-0.7280922926151971,-0.7,0.0,1.0,489.0,562.0,1.0,0,99.0,1
1376,1376,0.1965957345460011,0.2,1.0,1.0,349.0,610.0,1.0,1,331.0,1
1377,1377,-0.5340478621925042,-0.5,1.0,0.0,302.0,983.0,0.0,0,185.0,1
1378,1378,-0.7787847956350435,-0.8,0.0,1.0,279.0,736.0,1.0,0,215.0,1
1379,1379,0.6250436537595679,0.6,1.0,1.0,347.0,823.0,1.0,1,200.0,1
1380,1380,0.23280185698143152,0.2,1.0,1.0,402.0,687.0,1.0,1,-219.0,1
1381,1381,-0.514186468263174,-0.5,1.0,0.0,400.0,921.0,0.0,0,429.0,1
1382,1382,-0.6013005725026506,-0.6,1.0,0.0,274.0,642.0,0.0,0,234.0,1
1383,1383,0.23167946226586744,0.2,0.0,0.0,457.0,673.0,0.0,1,150.0,1
1384,1384,-0.3999722006534726,-0.4,0.0,1.0,416.0,856.0,1.0,0,848.0,1
1385,1385,-0.055064837233665065,-0.1,0.0,1.0,356.0,701.0,0.0,1,1123.0,0
1386,1386,-0.4306856782120239,-0.4,1.0,0.0,370.0,718.0,0.0,0,522.0,1
1387,1387,0.3585382150639217,0.4,1.0,1.0,287.0,940.0,1.0,1,173.0,1
1388,1388,-0.05431270011197009,-0.1,0.0,1.0,408.0,760.0,0.0,1,1422.0,0
1389,1389,0.18699656967423672,0.2,0.0,0.0,254.0,727.0,0.0,1,279.0,1
1390,1390,0.7391645787446147,0.7,1.0,1.0,450.0,641.0,1.0,1,229.0,1
1391,1391,-0.18859935882224343,-0.2,1.0,0.0,423.0,628.0,0.0,0,-201.0,1
1392,1392,-0.4578743716370232,-0.5,1.0,0.0,363.0,542.0,0.0,0,275.0,1
1393,1393,0.33572356908506584,0.3,0.0,0.0,391.0,633.0,0.0,1,336.0,1
1394,1394,-0.15794067442743487,-0.2,0.0,1.0,254.0,570.0,1.0,0,1256.0,1
1395,1395,0.7241660606832881,0.7,0.0,0.0,319.0,979.0,0.0,1,-678.0,1
1396,1396,-0.050931059606355356,-0.1,1.0,0.0,327.0,957.0,1.0,1,2676.0,0
1397,1397,-0.7285477002200932,-0.7,0.0,1.0,292.0,649.0,1.0,0,179.0,1
1398,1398,-0.5141874647562166,-0.5,1.0,0.0,417.0,673.0,0.0,0,500.0,1
1399,1399,0.4997838820988457,0.5,0.0,0.0,439.0,549.0,0.0,1,142.0,1
1400,1400,0.8339545052354776,0.8,0.0,0.0,409.0,938.0,0.0,1,113.0,1
1401,1401,0.5611760884740672,0.6,0.0,0.0,299.0,620.0,0.0,1,121.0,1
1402,1402,0.8658145337384385,0.9,0.0,0.0,322.0,826.0,0.0,1,42.0,1
1403,1403,-0.3780415917679253,-0.4,0.0,1.0,494.0,822.0,1.0,0,514.0,1
1404,1404,0.7044913228825725,0.7,0.0,0.0,360.0,521.0,0.0,1,109.0,1
1405,1405,0.4812199182089355,0.5,1.0,1.0,264.0,706.0,1.0,1,100.0,1
1406,1406,-0.5870503977877244,-0.6,1.0,0.0,487.0,618.0,0.0,0,215.0,1
1407,1407,-0.1575624691488704,-0.2,1.0,0.0,411.0,764.0,0.0,0,345.0,1
1408,1408,-0.7623014992824592,-0.8,1.0,0.0,285.0,691.0,0.0,0,394.0,1
1409,1409,0.632563751312225,0.6,1.0,1.0,349.0,680.0,1.0,1,141.0,1
1410,1410,0.7509068689657784,0.8,1.0,1.0,399.0,953.0,1.0,1,88.0,1
1411,1411,0.7829800697269383,0.8,1.0,1.0,387.0,593.0,1.0,1,340.0,1
1412,1412,0.5307787979078559,0.5,0.0,0.0,269.0,772.0,0.0,1,249.0,1
1413,1413,-0.07199715065274748,-0.1,0.0,1.0,483.0,679.0,1.0,0,3838.0,1
1414,1414,0.4873284680796156,0.5,1.0,1.0,321.0,736.0,1.0,1,103.0,1
1415,1415,0.8408953375436113,0.8,1.0,1.0,321.0,617.0,1.0,1,182.0,1
1416,1416,-0.7239057855751172,-0.7,0.0,1.0,486.0,679.0,1.0,0,245.0,1
1417,1417,0.28470073662702944,0.3,0.0,0.0,462.0,913.0,0.0,1,355.0,1
1418,1418,-0.8885927592667785,-0.9,1.0,0.0,416.0,758.0,0.0,0,46.0,1
1419,1419,-0.7396873430918111,-0.7,1.0,0.0,370.0,710.0,0.0,0,90.0,1
1420,1420,-0.2982998877238996,-0.3,1.0,0.0,466.0,522.0,0.0,0,672.0,1
1421,1421,-0.33152766421546986,-0.3,0.0,1.0,350.0,715.0,1.0,0,265.0,1
1422,1422,0.7770259009995538,0.8,1.0,1.0,385.0,932.0,1.0,1,103.0,1
1423,1423,-0.5012869852110415,-0.5,1.0,0.0,343.0,863.0,0.0,0,-316.0,1
1424,1424,0.14385942362177173,0.1,1.0,1.0,291.0,946.0,1.0,1,863.0,1
1425,1425,-0.12454094648994551,-0.1,0.0,1.0,327.0,932.0,1.0,0,771.0,1
1426,1426,0.6102651636902062,0.6,1.0,1.0,344.0,614.0,1.0,1,202.0,1
1427,1427,-0.3121896585892967,-0.3,0.0,1.0,495.0,693.0,1.0,0,422.0,1
1428,1428,0.345770313430792,0.3,1.0,1.0,264.0,574.0,1.0,1,352.0,1
1429,1429,0.33049023582728687,0.3,1.0,1.0,387.0,569.0,1.0,1,254.0,1
1430,1430,-0.2988105416768003,-0.3,1.0,0.0,444.0,836.0,0.0,0,260.0,1
1431,1431,-0.3518271235361834,-0.4,1.0,0.0,424.0,935.0,0.0,0,591.0,1
1432,1432,-0.7706444193518895,-0.8,1.0,0.0,257.0,856.0,0.0,0,137.0,1
1433,1433,-0.437219104753386,-0.4,1.0,0.0,417.0,733.0,0.0,0,380.0,1
1434,1434,0.687314178224158,0.7,1.0,1.0,458.0,806.0,1.0,1,196.0,1
1435,1435,-0.5407487333746535,-0.5,1.0,0.0,379.0,579.0,0.0,0,282.0,1
1436,1436,-0.6944954239114232,-0.7,0.0,1.0,491.0,876.0,1.0,0,203.0,1
1437,1437,0.15937161298002833,0.2,0.0,0.0,285.0,508.0,0.0,1,337.0,1
1438,1438,-0.8715799036444927,-0.9,1.0,0.0,402.0,877.0,0.0,0,241.0,1
1439,1439,-0.5680600162800962,-0.6,0.0,1.0,254.0,522.0,1.0,0,324.0,1
1440,1440,-0.4388707073241269,-0.4,0.0,1.0,479.0,518.0,1.0,0,253.0,1
1441,1441,0.6180027331204515,0.6,0.0,0.0,498.0,619.0,0.0,1,143.0,1
1442,1442,0.8365191372516098,0.8,0.0,0.0,439.0,922.0,0.0,1,199.0,1
1443,1443,0.8511035999632578,0.9,0.0,0.0,426.0,944.0,0.0,1,380.0,1
1444,1444,0.647221909846943,0.6,1.0,1.0,420.0,781.0,1.0,1,49.0,1
1445,1445,-0.8766468931712571,-0.9,0.0,1.0,297.0,984.0,1.0,0,139.0,1
1446,1446,0.14890965602712292,0.1,1.0,1.0,478.0,714.0,1.0,1,1768.0,1
1447,1447,-0.032173743551361045,-0.0,1.0,0.0,437.0,629.0,0.0,0,474.0,1
1448,1448,0.19470214097095673,0.2,0.0,0.0,443.0,777.0,0.0,1,610.0,1
1449,1449,-0.42571121748163565,-0.4,1.0,0.0,388.0,589.0,0.0,0,793.0,1
1450,1450,0.41335121692472343,0.4,1.0,1.0,362.0,766.0,1.0,1,492.0,1
1451,1451,0.5062775427063023,0.5,1.0,1.0,349.0,757.0,1.0,1,914.0,1
1452,1452,0.633825705126064,0.6,1.0,1.0,371.0,911.0,1.0,1,158.0,1
1453,1453,0.18564254832673688,0.2,0.0,0.0,389.0,971.0,0.0,1,470.0,1
1454,1454,-0.7915586177937206,-0.8,0.0,1.0,384.0,934.0,1.0,0,112.0,1
1455,1455,-0.0003567070306229603,-0.0,1.0,0.0,284.0,552.0,1.0,1,154.0,0
1456,1456,0.3926707202403995,0.4,0.0,0.0,460.0,585.0,0.0,1,505.0,1
1457,1457,-0.12512566702793504,-0.1,1.0,0.0,434.0,905.0,0.0,0,1091.0,1
1458,1458,-0.3905997887138559,-0.4,1.0,0.0,446.0,654.0,0.0,0,240.0,1
1459,1459,-0.06457053723848227,-0.1,0.0,1.0,268.0,926.0,0.0,1,-104.0,0
1460,1460,0.19030224544924346,0.2,0.0,0.0,387.0,992.0,0.0,1,601.0,1
1461,1461,-0.45391910256609014,-0.5,1.0,0.0,374.0,975.0,0.0,0,-59.0,1
1462,1462,-0.3275893565894388,-0.3,0.0,1.0,313.0,813.0,1.0,0,694.0,1
1463,1463,0.7206504554672278,0.7,1.0,1.0,271.0,863.0,1.0,1,206.0,1
1464,1464,-0.5556137831921688,-0.6,0.0,1.0,328.0,999.0,1.0,0,333.0,1
1465,1465,-0.14226437463714225,-0.1,0.0,1.0,255.0,984.0,0.0,1,1.0,0
1466,1466,-0.11534111223954568,-0.1,1.0,0.0,344.0,524.0,0.0,0,922.0,1
1467,1467,-0.5422666985132963,-0.5,0.0,1.0,496.0,769.0,1.0,0,395.0,1
1468,1468,-0.402610103620113,-0.4,0.0,1.0,487.0,516.0,1.0,0,357.0,1
1469,1469,0.7045370128392466,0.7,1.0,1.0,295.0,503.0,1.0,1,252.0,1
1470,1470,-0.44559818194418105,-0.4,1.0,0.0,411.0,616.0,0.0,0,663.0,1
1471,1471,-0.5859814772825038,-0.6,1.0,0.0,445.0,845.0,0.0,0,200.0,1
1472,1472,-0.3730448853066025,-0.4,0.0,1.0,333.0,646.0,1.0,0,261.0,1
1473,1473,-0.5782094112570835,-0.6,0.0,1.0,339.0,856.0,1.0,0,75.0,1
1474,1474,-0.6819063285953173,-0.7,1.0,0.0,348.0,545.0,0.0,0,237.0,1
1475,1475,0.3097009248797261,0.3,0.0,0.0,268.0,889.0,0.0,1,603.0,1
1476,1476,-0.46313739669322623,-0.5,0.0,1.0,318.0,943.0,1.0,0,319.0,1
1477,1477,-0.33100298822604857,-0.3,0.0,1.0,426.0,796.0,1.0,0,978.0,1
1478,1478,-0.4342234242601396,-0.4,1.0,0.0,344.0,853.0,0.0,0,263.0,1
1479,1479,-0.718556318563965,-0.7,1.0,0.0,441.0,603.0,0.0,0,196.0,1
1480,1480,-0.1978663959022603,-0.2,1.0,0.0,316.0,706.0,0.0,0,378.0,1
1481,1481,0.5581287893119194,0.6,1.0,1.0,257.0,645.0,1.0,1,258.0,1
1482,1482,0.8221476252133485,0.8,1.0,1.0,287.0,993.0,1.0,1,-310.0,1
1483,1483,-0.2589426465691458,-0.3,1.0,0.0,315.0,762.0,0.0,0,223.0,1
1484,1484,-0.34270276950596323,-0.3,1.0,0.0,486.0,554.0,0.0,0,300.0,1
1485,1485,-0.7041441793625605,-0.7,0.0,1.0,486.0,653.0,1.0,0,271.0,1
1486,1486,0.24655633982500247,0.2,0.0,0.0,392.0,781.0,0.0,1,417.0,1
1487,1487,-0.4490404759130597,-0.4,1.0,0.0,277.0,910.0,0.0,0,343.0,1
1488,1488,0.8145880840009495,0.8,1.0,1.0,276.0,994.0,1.0,1,-460.0,1
1489,1489,-0.5376532911888414,-0.5,0.0,1.0,350.0,960.0,0.0,1,-100.0,0
1490,1490,-0.8937573712309125,-0.9,1.0,0.0,351.0,574.0,0.0,0,-95.0,1
1491,1491,-0.3884433769009189,-0.4,1.0,0.0,322.0,721.0,0.0,0,607.0,1
