,trial,coherence,coherence_bin,green_side,correct_side,target_onset,checker_onset,decision,green_decision,decision_time,correct_decision
0,0,-0.5670210507361857,-0.6,0.0,1.0,365.0,970.0,1.0,0,185.0,1
1,1,0.5364577415895769,0.5,0.0,0.0,456.0,590.0,0.0,1,454.0,1
2,2,-0.41074776703889543,-0.4,0.0,1.0,254.0,619.0,1.0,0,187.0,1
3,3,-0.4110323290489446,-0.4,0.0,1.0,319.0,753.0,1.0,0,368.0,1
4,4,0.7275941569162906,0.7,0.0,0.0,313.0,949.0,0.0,1,168.0,1
5,5,0.5204114458194044,0.5,1.0,1.0,284.0,695.0,1.0,1,381.0,1
6,6,-0.24763444294584003,-0.2,1.0,0.0,378.0,715.0,0.0,0,1257.0,1
7,7,0.4952108906586469,0.5,0.0,0.0,408.0,988.0,0.0,1,554.0,1
8,8,-0.2970262427512558,-0.3,0.0,1.0,472.0,856.0,1.0,0,412.0,1
9,9,0.5347122233688942,0.5,0.0,0.0,321.0,789.0,0.0,1,220.0,1
10,10,-0.30351043084424123,-0.3,1.0,0.0,447.0,534.0,0.0,0,1589.0,1
11,11,-0.29753896666499546,-0.3,0.0,1.0,463.0,683.0,1.0,0,624.0,1
12,12,-0.5072426443332729,-0.5,0.0,1.0,292.0,500.0,1.0,0,308.0,1
13,13,-0.5176242759583461,-0.5,0.0,1.0,328.0,698.0,1.0,0,424.0,1
14,14,0.5875887091523376,0.6,1.0,1.0,370.0,645.0,1.0,1,355.0,1
15,15,0.8445784999731928,0.8,0.0,0.0,338.0,693.0,0.0,1,199.0,1
16,16,-0.4512730450208308,-0.5,1.0,0.0,448.0,964.0,0.0,0,248.0,1
17,17,-0.7244616316847954,-0.7,0.0,1.0,328.0,653.0,1.0,0,209.0,1
18,18,-0.8885237501895372,-0.9,1.0,0.0,463.0,970.0,0.0,0,307.0,1
19,19,0.6217822506615812,0.6,1.0,1.0,294.0,999.0,1.0,1,217.0,1
20,20,-0.7857415605823237,-0.8,0.0,1.0,290.0,531.0,1.0,0,259.0,1
21,21,-0.6859465390383696,-0.7,1.0,0.0,433.0,720.0,0.0,0,267.0,1
22,22,-0.3603126370735361,-0.4,1.0,0.0,425.0,851.0,0.0,0,414.0,1
23,23,-0.484503304498033,-0.5,1.0,0.0,328.0,895.0,0.0,0,297.0,1
24,24,0.3826159970518511,0.4,0.0,0.0,395.0,826.0,0.0,1,119.0,1
25,25,-0.5369597943955084,-0.5,1.0,0.0,413.0,845.0,0.0,0,532.0,1
26,26,0.4804645362753531,0.5,1.0,1.0,286.0,939.0,1.0,1,165.0,1
27,27,-0.5558169841745255,-0.6,0.0,1.0,383.0,838.0,1.0,0,189.0,1
28,28,0.3191381663833036,0.3,0.0,0.0,394.0,968.0,0.0,1,318.0,1
29,29,0.47812506155801826,0.5,1.0,1.0,425.0,515.0,1.0,1,340.0,1
30,30,-0.36518519097544155,-0.4,0.0,1.0,417.0,612.0,1.0,0,301.0,1
31,31,0.11627290644732169,0.1,1.0,1.0,462.0,712.0,1.0,1,1036.0,1
32,32,0.6988651316482862,0.7,1.0,1.0,498.0,965.0,1.0,1,217.0,1
33,33,-0.5889941628069006,-0.6,1.0,0.0,411.0,917.0,0.0,0,152.0,1
34,34,-0.5766505826154105,-0.6,1.0,0.0,419.0,895.0,0.0,0,296.0,1
35,35,-0.5772482408659549,-0.6,1.0,0.0,342.0,571.0,0.0,0,547.0,1
36,36,0.3021038256670584,0.3,0.0,0.0,284.0,507.0,0.0,1,659.0,1
37,37,0.8600758025079421,0.9,1.0,1.0,351.0,987.0,1.0,1,162.0,1
38,38,-0.7437514326888707,-0.7,0.0,1.0,359.0,583.0,1.0,0,198.0,1
39,39,0.7434990853457558,0.7,1.0,1.0,422.0,963.0,1.0,1,155.0,1
40,40,0.682064605684867,0.7,1.0,1.0,332.0,553.0,1.0,1,405.0,1
41,41,0.19204699320419627,0.2,0.0,0.0,257.0,858.0,0.0,1,995.0,1
42,42,-0.34348580436589393,-0.3,0.0,1.0,271.0,966.0,1.0,0,113.0,1
43,43,-0.774905378547126,-0.8,1.0,0.0,408.0,717.0,0.0,0,275.0,1
44,44,-0.35339293266550564,-0.4,1.0,0.0,429.0,744.0,0.0,0,577.0,1
45,45,0.14993754778450719,0.1,0.0,0.0,367.0,772.0,0.0,1,471.0,1
46,46,0.1921453540173078,0.2,1.0,1.0,441.0,892.0,1.0,1,657.0,1
47,47,-0.8132179182251745,-0.8,0.0,1.0,341.0,615.0,1.0,0,284.0,1
48,48,0.6012015136292698,0.6,1.0,1.0,413.0,520.0,1.0,1,167.0,1
49,49,0.31829225182761733,0.3,0.0,0.0,471.0,774.0,0.0,1,305.0,1
50,50,0.6982114022146811,0.7,0.0,0.0,327.0,883.0,0.0,1,100.0,1
51,51,-0.27874887229378165,-0.3,1.0,0.0,429.0,846.0,0.0,0,455.0,1
52,52,0.4451588990412524,0.4,0.0,0.0,339.0,784.0,0.0,1,537.0,1
53,53,-0.5729070575578895,-0.6,0.0,1.0,494.0,590.0,1.0,0,576.0,1
54,54,0.6555772959604832,0.7,0.0,0.0,370.0,860.0,0.0,1,130.0,1
55,55,0.148790780006527,0.1,0.0,0.0,471.0,703.0,0.0,1,1096.0,1
56,56,-0.73535873176136,-0.7,1.0,0.0,470.0,908.0,0.0,0,162.0,1
57,57,0.3012446409456996,0.3,0.0,0.0,498.0,877.0,0.0,1,435.0,1
58,58,0.7098300014349676,0.7,1.0,1.0,454.0,698.0,1.0,1,188.0,1
59,59,0.01665667136460436,0.0,0.0,0.0,329.0,802.0,0.0,1,1869.0,1
60,60,-0.1308775962328912,-0.1,0.0,1.0,303.0,763.0,1.0,0,804.0,1
61,61,0.6126203467030799,0.6,1.0,1.0,272.0,595.0,1.0,1,203.0,1
62,62,-0.5264129987401606,-0.5,0.0,1.0,295.0,562.0,1.0,0,163.0,1
63,63,-0.362055505526786,-0.4,0.0,1.0,252.0,852.0,1.0,0,296.0,1
64,64,-0.18243784830681276,-0.2,0.0,1.0,449.0,793.0,1.0,0,428.0,1
65,65,-0.4678908318908821,-0.5,0.0,1.0,381.0,779.0,1.0,0,290.0,1
66,66,-0.39584992856405066,-0.4,1.0,0.0,447.0,651.0,0.0,0,722.0,1
67,67,-0.8259370151434378,-0.8,0.0,1.0,292.0,716.0,1.0,0,102.0,1
68,68,-0.21628430226444872,-0.2,0.0,1.0,469.0,598.0,1.0,0,363.0,1
69,69,0.3085036258593091,0.3,0.0,0.0,491.0,679.0,0.0,1,390.0,1
70,70,-0.7617329139849124,-0.8,0.0,1.0,315.0,682.0,1.0,0,243.0,1
71,71,-0.6918682804022133,-0.7,0.0,1.0,325.0,904.0,1.0,0,181.0,1
72,72,-0.4529791483857448,-0.5,1.0,0.0,370.0,575.0,0.0,0,2055.0,1
73,73,-0.7246712063339982,-0.7,1.0,0.0,330.0,640.0,0.0,0,430.0,1
74,74,0.3560299040046814,0.4,1.0,1.0,435.0,952.0,1.0,1,253.0,1
75,75,0.43720703907414504,0.4,0.0,0.0,445.0,823.0,0.0,1,222.0,1
76,76,0.13160344280396685,0.1,0.0,0.0,446.0,539.0,0.0,1,745.0,1
77,77,-0.6222921119140334,-0.6,0.0,1.0,479.0,796.0,1.0,0,205.0,1
78,78,0.4108574921636853,0.4,1.0,1.0,472.0,762.0,1.0,1,186.0,1
79,79,-0.3233615128356804,-0.3,1.0,0.0,316.0,936.0,0.0,0,748.0,1
80,80,-0.5295532604415117,-0.5,0.0,1.0,386.0,896.0,1.0,0,108.0,1
81,81,-0.43141032381021177,-0.4,1.0,0.0,274.0,795.0,0.0,0,361.0,1
82,82,-0.7301158769229159,-0.7,1.0,0.0,329.0,683.0,0.0,0,548.0,1
83,83,0.15262860799154188,0.2,1.0,1.0,443.0,754.0,1.0,1,383.0,1
84,84,-0.35359270653382413,-0.4,0.0,1.0,449.0,692.0,1.0,0,229.0,1
85,85,0.16606583184727752,0.2,0.0,0.0,410.0,862.0,0.0,1,418.0,1
86,86,-0.78765423547829,-0.8,0.0,1.0,397.0,854.0,1.0,0,189.0,1
87,87,-0.3018837504341787,-0.3,1.0,0.0,294.0,654.0,0.0,0,292.0,1
88,88,-0.3446971936764507,-0.3,1.0,0.0,277.0,859.0,1.0,1,-26.0,0
89,89,-0.41758332033468387,-0.4,1.0,0.0,365.0,985.0,0.0,0,230.0,1
90,90,0.02256972211054553,0.0,1.0,1.0,307.0,932.0,1.0,1,1761.0,1
91,91,-0.46483413051314937,-0.5,0.0,1.0,337.0,815.0,1.0,0,388.0,1
92,92,0.2671395316652522,0.3,0.0,0.0,490.0,580.0,0.0,1,690.0,1
93,93,-0.5609603631616868,-0.6,1.0,0.0,466.0,758.0,0.0,0,236.0,1
94,94,0.014355938441311,0.0,1.0,1.0,257.0,615.0,1.0,1,1858.0,1
95,95,-0.4692997024207191,-0.5,1.0,0.0,345.0,623.0,0.0,0,202.0,1
96,96,-0.7909371276886882,-0.8,1.0,0.0,304.0,761.0,0.0,0,555.0,1
97,97,0.6032459293760141,0.6,1.0,1.0,288.0,510.0,1.0,1,202.0,1
98,98,0.3405236229925527,0.3,1.0,1.0,466.0,831.0,1.0,1,293.0,1
99,99,-0.21523691447230642,-0.2,0.0,1.0,447.0,823.0,1.0,0,670.0,1
100,100,0.29245797655231554,0.3,1.0,1.0,327.0,981.0,1.0,1,162.0,1
101,101,0.46520771698878016,0.5,1.0,1.0,369.0,526.0,1.0,1,475.0,1
102,102,0.8800155132663091,0.9,0.0,0.0,316.0,682.0,0.0,1,142.0,1
103,103,0.3871936158225261,0.4,1.0,1.0,311.0,969.0,1.0,1,290.0,1
104,104,-0.5233617951714493,-0.5,1.0,0.0,493.0,596.0,0.0,0,1181.0,1
105,105,0.11667310966270439,0.1,1.0,1.0,305.0,798.0,1.0,1,637.0,1
106,106,-0.20165091213328346,-0.2,0.0,1.0,332.0,814.0,1.0,0,464.0,1
107,107,0.24125743531081378,0.2,1.0,1.0,473.0,881.0,1.0,1,76.0,1
108,108,0.08007022457655588,0.1,0.0,0.0,358.0,707.0,0.0,1,1505.0,1
109,109,-0.32026901545862896,-0.3,1.0,0.0,486.0,573.0,0.0,0,451.0,1
110,110,-0.5104787588018979,-0.5,0.0,1.0,320.0,939.0,1.0,0,101.0,1
111,111,-0.5087626337769574,-0.5,1.0,0.0,289.0,915.0,0.0,0,1216.0,1
112,112,-0.5888726732235964,-0.6,1.0,0.0,284.0,773.0,0.0,0,123.0,1
113,113,0.5970614854155164,0.6,0.0,0.0,499.0,805.0,0.0,1,836.0,1
114,114,-0.031463042211426484,-0.0,1.0,0.0,304.0,587.0,1.0,1,2109.0,0
115,115,-0.6534111461770781,-0.7,1.0,0.0,262.0,561.0,0.0,0,647.0,1
116,116,0.22884825963111177,0.2,0.0,0.0,368.0,815.0,0.0,1,1117.0,1
117,117,-0.5218257951832093,-0.5,0.0,1.0,370.0,675.0,1.0,0,255.0,1
118,118,-0.611545643352599,-0.6,0.0,1.0,470.0,687.0,1.0,0,363.0,1
119,119,-0.35531335176847134,-0.4,0.0,1.0,402.0,583.0,1.0,0,345.0,1
120,120,0.21162179164208006,0.2,1.0,1.0,396.0,682.0,1.0,1,312.0,1
121,121,-0.07303937727371113,-0.1,0.0,1.0,263.0,723.0,1.0,0,2014.0,1
122,122,-0.6410412674706929,-0.6,0.0,1.0,381.0,856.0,1.0,0,323.0,1
123,123,0.21475451357295194,0.2,1.0,1.0,376.0,967.0,1.0,1,747.0,1
124,124,-0.8860126714874151,-0.9,1.0,0.0,385.0,512.0,0.0,0,353.0,1
125,125,0.3036936712011259,0.3,1.0,1.0,420.0,976.0,1.0,1,214.0,1
126,126,-0.20943335258232243,-0.2,0.0,1.0,450.0,925.0,1.0,0,375.0,1
127,127,0.2300810476930183,0.2,1.0,1.0,473.0,639.0,1.0,1,568.0,1
128,128,0.7120073275842201,0.7,0.0,0.0,334.0,786.0,0.0,1,210.0,1
129,129,0.41313479115325913,0.4,0.0,0.0,376.0,708.0,0.0,1,216.0,1
130,130,0.28789353023551023,0.3,1.0,1.0,352.0,957.0,1.0,1,251.0,1
131,131,-0.3910462210677703,-0.4,1.0,0.0,458.0,622.0,0.0,0,350.0,1
132,132,0.0335354946501073,0.0,1.0,1.0,475.0,710.0,1.0,1,1025.0,1
133,133,-0.5153201852189304,-0.5,1.0,0.0,439.0,513.0,0.0,0,2048.0,1
134,134,-0.769181934965975,-0.8,0.0,1.0,369.0,880.0,1.0,0,161.0,1
135,135,-0.42904347559247963,-0.4,0.0,1.0,319.0,592.0,1.0,0,279.0,1
136,136,0.7039543692472395,0.7,1.0,1.0,496.0,955.0,1.0,1,229.0,1
137,137,-0.17336377470964104,-0.2,0.0,1.0,483.0,873.0,1.0,0,354.0,1
138,138,0.23892968504435974,0.2,1.0,1.0,360.0,519.0,1.0,1,501.0,1
139,139,0.5641346102767163,0.6,1.0,1.0,429.0,678.0,1.0,1,393.0,1
140,140,0.3916809563359328,0.4,1.0,1.0,425.0,618.0,1.0,1,357.0,1
141,141,0.17711872299263887,0.2,0.0,0.0,306.0,868.0,0.0,1,466.0,1
142,142,0.5201316078628263,0.5,0.0,0.0,449.0,570.0,0.0,1,341.0,1
143,143,-0.4435910836226958,-0.4,1.0,0.0,347.0,689.0,0.0,0,274.0,1
144,144,-0.7409351930452829,-0.7,1.0,0.0,382.0,910.0,0.0,0,678.0,1
145,145,-0.16736025588003922,-0.2,0.0,1.0,320.0,782.0,1.0,0,1128.0,1
146,146,0.6605272682018172,0.7,1.0,1.0,303.0,620.0,1.0,1,257.0,1
147,147,0.6926141618050653,0.7,0.0,0.0,451.0,828.0,0.0,1,141.0,1
148,148,0.05358034922513011,0.1,1.0,1.0,446.0,826.0,1.0,1,848.0,1
149,149,0.7891732582471932,0.8,1.0,1.0,277.0,717.0,1.0,1,136.0,1
150,150,0.03408261267214108,0.0,0.0,0.0,489.0,571.0,0.0,1,1020.0,1
151,151,-0.19820096940905207,-0.2,1.0,0.0,448.0,911.0,0.0,0,381.0,1
152,152,-0.3977630205661241,-0.4,1.0,0.0,417.0,580.0,0.0,0,873.0,1
153,153,-0.4828375665866483,-0.5,0.0,1.0,454.0,632.0,1.0,0,404.0,1
154,154,0.0822625422284119,0.1,0.0,0.0,360.0,968.0,1.0,0,1672.0,0
155,155,-0.7077627036322475,-0.7,1.0,0.0,326.0,781.0,0.0,0,143.0,1
156,156,-0.5491240606705239,-0.5,0.0,1.0,324.0,751.0,1.0,0,165.0,1
157,157,-0.17487976034725072,-0.2,1.0,0.0,445.0,730.0,0.0,0,525.0,1
158,158,-0.3578529126434491,-0.4,1.0,0.0,401.0,924.0,0.0,0,975.0,1
159,159,0.0693315096504944,0.1,1.0,1.0,381.0,850.0,1.0,1,489.0,1
160,160,-0.8465782081190526,-0.8,1.0,0.0,291.0,767.0,0.0,0,92.0,1
161,161,0.040845037768381776,0.0,1.0,1.0,355.0,702.0,1.0,1,423.0,1
162,162,-0.052658322872005336,-0.1,0.0,1.0,399.0,838.0,1.0,0,413.0,1
163,163,-0.336071182316905,-0.3,0.0,1.0,347.0,927.0,1.0,0,226.0,1
164,164,-0.6611241962301637,-0.7,1.0,0.0,298.0,981.0,0.0,0,121.0,1
165,165,-0.07924203802786445,-0.1,0.0,1.0,393.0,927.0,1.0,0,410.0,1
166,166,0.7982096650891245,0.8,0.0,0.0,252.0,754.0,0.0,1,234.0,1
167,167,-0.07680718665818131,-0.1,0.0,1.0,476.0,511.0,1.0,0,673.0,1
168,168,-0.7718247407857254,-0.8,0.0,1.0,306.0,654.0,1.0,0,480.0,1
169,169,0.11703564360532204,0.1,1.0,1.0,337.0,566.0,1.0,1,607.0,1
170,170,-0.06871446606611098,-0.1,0.0,1.0,351.0,574.0,1.0,0,865.0,1
171,171,0.10260588459991549,0.1,0.0,0.0,275.0,740.0,1.0,0,1985.0,0
172,172,-0.8458267405500717,-0.8,1.0,0.0,344.0,589.0,0.0,0,367.0,1
173,173,0.7394739869382202,0.7,0.0,0.0,352.0,519.0,0.0,1,279.0,1
174,174,-0.6215181062961368,-0.6,1.0,0.0,353.0,547.0,0.0,0,410.0,1
175,175,-0.1286887671916498,-0.1,1.0,0.0,336.0,526.0,0.0,0,648.0,1
176,176,-0.5641641654163476,-0.6,1.0,0.0,474.0,907.0,0.0,0,129.0,1
177,177,-0.5795070940774989,-0.6,1.0,0.0,326.0,950.0,0.0,0,234.0,1
178,178,-0.4867013489327645,-0.5,0.0,1.0,492.0,800.0,1.0,0,338.0,1
179,179,-0.7664145787000498,-0.8,1.0,0.0,307.0,532.0,0.0,0,381.0,1
180,180,0.3910236760758782,0.4,0.0,0.0,255.0,977.0,0.0,1,228.0,1
181,181,-0.5963480089487241,-0.6,0.0,1.0,477.0,926.0,1.0,0,167.0,1
182,182,0.845656037204558,0.8,1.0,1.0,460.0,890.0,1.0,1,130.0,1
183,183,-0.8905679539153952,-0.9,0.0,1.0,456.0,939.0,1.0,0,355.0,1
184,184,0.05685431606703051,0.1,1.0,1.0,285.0,976.0,1.0,1,359.0,1
185,185,-0.4598189192169006,-0.5,0.0,1.0,458.0,954.0,1.0,0,128.0,1
186,186,-0.32058883739651645,-0.3,0.0,1.0,351.0,869.0,1.0,0,240.0,1
187,187,0.20833345118500224,0.2,1.0,1.0,362.0,653.0,1.0,1,315.0,1
188,188,0.7501388198522089,0.8,1.0,1.0,323.0,631.0,1.0,1,226.0,1
189,189,-0.3214847940358778,-0.3,0.0,1.0,376.0,704.0,1.0,0,630.0,1
190,190,0.5158261832833994,0.5,1.0,1.0,489.0,544.0,1.0,1,317.0,1
191,191,-0.6418515068362454,-0.6,0.0,1.0,467.0,925.0,1.0,0,168.0,1
192,192,-0.5910047092290762,-0.6,1.0,0.0,469.0,658.0,0.0,0,273.0,1
193,193,-0.8473739260078492,-0.8,0.0,1.0,334.0,758.0,1.0,0,188.0,1
194,194,-0.10723096963724155,-0.1,0.0,1.0,370.0,786.0,1.0,0,794.0,1
195,195,-0.20215468867952124,-0.2,0.0,1.0,359.0,972.0,1.0,0,329.0,1
196,196,0.13334081502365758,0.1,0.0,0.0,274.0,717.0,0.0,1,1769.0,1
197,197,-0.7588423748823216,-0.8,0.0,1.0,328.0,788.0,1.0,0,124.0,1
198,198,0.7690819017966536,0.8,1.0,1.0,367.0,969.0,1.0,1,114.0,1
199,199,0.6443926761439275,0.6,0.0,0.0,302.0,524.0,0.0,1,384.0,1
200,200,0.27371243561769,0.3,0.0,0.0,415.0,510.0,0.0,1,645.0,1
201,201,0.4171803062979519,0.4,0.0,0.0,313.0,633.0,0.0,1,154.0,1
202,202,-0.5514361894729913,-0.6,1.0,0.0,361.0,680.0,0.0,0,319.0,1
203,203,0.8131385099919076,0.8,1.0,1.0,485.0,591.0,1.0,1,224.0,1
204,204,-0.8142444327933503,-0.8,0.0,1.0,318.0,828.0,1.0,0,154.0,1
205,205,0.8454478353807134,0.8,1.0,1.0,403.0,783.0,1.0,1,204.0,1
206,206,-0.7970871460439436,-0.8,1.0,0.0,478.0,769.0,0.0,0,393.0,1
207,207,-0.4168791839103886,-0.4,0.0,1.0,336.0,514.0,1.0,0,270.0,1
208,208,0.12527752445483553,0.1,0.0,0.0,424.0,677.0,0.0,1,1399.0,1
209,209,0.2878907707627326,0.3,1.0,1.0,411.0,639.0,1.0,1,350.0,1
210,210,0.5051586059610998,0.5,1.0,1.0,358.0,845.0,1.0,1,177.0,1
211,211,-0.5767579217191834,-0.6,0.0,1.0,412.0,536.0,1.0,0,202.0,1
212,212,-0.8797413876173947,-0.9,1.0,0.0,423.0,683.0,0.0,0,514.0,1
213,213,-0.8535421536197587,-0.9,0.0,1.0,494.0,721.0,1.0,0,205.0,1
214,214,0.48483836642740685,0.5,0.0,0.0,448.0,633.0,0.0,1,629.0,1
215,215,0.3117755667360934,0.3,1.0,1.0,425.0,873.0,1.0,1,112.0,1
216,216,-0.4745055203598359,-0.5,1.0,0.0,349.0,571.0,0.0,0,1460.0,1
217,217,-0.8744924581819993,-0.9,1.0,0.0,475.0,996.0,0.0,0,219.0,1
218,218,-0.826100043971185,-0.8,0.0,1.0,316.0,686.0,1.0,0,348.0,1
219,219,0.7843614254841632,0.8,0.0,0.0,463.0,556.0,0.0,1,211.0,1
220,220,0.22754285501447458,0.2,0.0,0.0,336.0,816.0,0.0,1,388.0,1
221,221,-0.6151653978140119,-0.6,1.0,0.0,481.0,556.0,0.0,0,653.0,1
222,222,0.17085972384792825,0.2,0.0,0.0,379.0,909.0,0.0,1,322.0,1
223,223,0.44791866254620116,0.4,0.0,0.0,492.0,550.0,0.0,1,238.0,1
224,224,-0.8819457994824415,-0.9,0.0,1.0,250.0,737.0,1.0,0,183.0,1
225,225,0.3012936502671525,0.3,0.0,0.0,386.0,783.0,0.0,1,261.0,1
226,226,0.3905588295524983,0.4,0.0,0.0,312.0,882.0,0.0,1,266.0,1
227,227,0.5742077431450819,0.6,0.0,0.0,467.0,581.0,0.0,1,182.0,1
228,228,-0.03695499606454178,-0.0,0.0,1.0,293.0,908.0,1.0,0,1799.0,1
229,229,0.36292591079760184,0.4,1.0,1.0,415.0,807.0,1.0,1,418.0,1
230,230,0.6183606290203084,0.6,0.0,0.0,378.0,780.0,0.0,1,292.0,1
231,231,0.09035383048516321,0.1,1.0,1.0,334.0,526.0,1.0,1,880.0,1
232,232,-0.31887103468502354,-0.3,0.0,1.0,419.0,801.0,1.0,0,370.0,1
233,233,0.7254322204678766,0.7,1.0,1.0,288.0,783.0,1.0,1,209.0,1
234,234,0.8826432139924253,0.9,1.0,1.0,346.0,615.0,1.0,1,229.0,1
235,235,-0.03595601688062522,-0.0,0.0,1.0,497.0,518.0,1.0,0,375.0,1
236,236,-0.44545878511771686,-0.4,0.0,1.0,266.0,869.0,1.0,0,235.0,1
237,237,0.4781000656340234,0.5,0.0,0.0,306.0,946.0,0.0,1,268.0,1
238,238,-0.5734146588403862,-0.6,0.0,1.0,360.0,802.0,1.0,0,358.0,1
239,239,0.05689236181074353,0.1,1.0,1.0,440.0,764.0,1.0,1,1536.0,1
240,240,0.1483174700031381,0.1,0.0,0.0,436.0,501.0,0.0,1,1033.0,1
241,241,0.2619868389992185,0.3,0.0,0.0,301.0,856.0,0.0,1,403.0,1
242,242,0.822382060222142,0.8,1.0,1.0,494.0,856.0,1.0,1,90.0,1
243,243,-0.1552779973237045,-0.2,0.0,1.0,258.0,987.0,1.0,0,1095.0,1
244,244,-0.08848797674230136,-0.1,1.0,0.0,474.0,792.0,1.0,1,1734.0,0
245,245,0.07180627464130673,0.1,0.0,0.0,353.0,617.0,0.0,1,1580.0,1
246,246,0.8825435275060006,0.9,1.0,1.0,272.0,852.0,1.0,1,136.0,1
247,247,-0.432137081953162,-0.4,0.0,1.0,383.0,634.0,1.0,0,663.0,1
248,248,0.22113556071385443,0.2,1.0,1.0,331.0,660.0,1.0,1,949.0,1
249,249,-0.20644157563502952,-0.2,0.0,1.0,397.0,835.0,1.0,0,938.0,1
250,250,-0.42420029864995723,-0.4,0.0,1.0,403.0,700.0,1.0,0,397.0,1
251,251,-0.14128660186003417,-0.1,1.0,0.0,437.0,887.0,0.0,0,596.0,1
252,252,-0.6814699807520398,-0.7,1.0,0.0,412.0,580.0,0.0,0,458.0,1
253,253,-0.5257090978283234,-0.5,1.0,0.0,286.0,646.0,0.0,0,198.0,1
254,254,-0.8932526534339948,-0.9,1.0,0.0,262.0,875.0,0.0,0,493.0,1
255,255,0.6597363251498934,0.7,1.0,1.0,326.0,930.0,1.0,1,204.0,1
256,256,-0.45764816567288075,-0.5,0.0,1.0,495.0,546.0,1.0,0,409.0,1
257,257,-0.7558311235225056,-0.8,1.0,0.0,431.0,550.0,0.0,0,229.0,1
258,258,-0.1500583812151739,-0.2,1.0,0.0,360.0,734.0,0.0,0,416.0,1
259,259,-0.7381260270875817,-0.7,0.0,1.0,288.0,571.0,1.0,0,261.0,1
260,260,0.6344077907577467,0.6,1.0,1.0,321.0,752.0,1.0,1,227.0,1
261,261,0.10460250730481635,0.1,1.0,1.0,474.0,511.0,1.0,1,775.0,1
262,262,0.3010468781452894,0.3,1.0,1.0,268.0,853.0,1.0,1,259.0,1
263,263,0.10354934750323463,0.1,0.0,0.0,272.0,560.0,0.0,1,468.0,1
264,264,0.6966308468056511,0.7,1.0,1.0,287.0,819.0,1.0,1,114.0,1
265,265,-0.6464675135214107,-0.6,1.0,0.0,357.0,747.0,0.0,0,426.0,1
266,266,0.27723018758953233,0.3,0.0,0.0,422.0,798.0,0.0,1,420.0,1
267,267,-0.35680950382532206,-0.4,0.0,1.0,318.0,601.0,1.0,0,601.0,1
268,268,-0.7103181334970797,-0.7,0.0,1.0,303.0,799.0,1.0,0,208.0,1
269,269,0.12746948668710278,0.1,1.0,1.0,468.0,820.0,1.0,1,552.0,1
270,270,0.2755191042224364,0.3,0.0,0.0,271.0,505.0,0.0,1,1564.0,1
271,271,0.37236940681173214,0.4,1.0,1.0,448.0,907.0,1.0,1,555.0,1
272,272,0.4569626433302828,0.5,0.0,0.0,253.0,857.0,0.0,1,170.0,1
273,273,0.22385085689337492,0.2,0.0,0.0,469.0,673.0,0.0,1,648.0,1
274,274,0.12216665985592112,0.1,1.0,1.0,295.0,951.0,1.0,1,294.0,1
275,275,0.7046664274921003,0.7,1.0,1.0,497.0,544.0,1.0,1,329.0,1
276,276,-0.00011600222547358818,-0.0,1.0,0.0,398.0,909.0,1.0,1,983.0,0
277,277,0.19266396657946838,0.2,1.0,1.0,462.0,911.0,1.0,1,117.0,1
278,278,-0.2749399827566861,-0.3,0.0,1.0,385.0,850.0,1.0,0,395.0,1
279,279,0.7043657258491917,0.7,1.0,1.0,274.0,728.0,1.0,1,168.0,1
280,280,0.14280883623449891,0.1,0.0,0.0,316.0,987.0,0.0,1,527.0,1
281,281,0.2178778597461718,0.2,0.0,0.0,477.0,774.0,0.0,1,889.0,1
282,282,0.8898540399950979,0.9,0.0,0.0,441.0,817.0,0.0,1,362.0,1
283,283,0.08013968628963275,0.1,1.0,1.0,421.0,662.0,1.0,1,1297.0,1
284,284,0.4098501618299052,0.4,0.0,0.0,496.0,609.0,0.0,1,465.0,1
285,285,0.5360785786559518,0.5,1.0,1.0,358.0,688.0,1.0,1,224.0,1
286,286,-0.4440866401956208,-0.4,0.0,1.0,376.0,920.0,1.0,0,204.0,1
287,287,-0.6271259267946172,-0.6,0.0,1.0,295.0,618.0,1.0,0,287.0,1
288,288,0.4444730434815113,0.4,1.0,1.0,379.0,665.0,1.0,1,426.0,1
289,289,0.11118765312300416,0.1,1.0,1.0,473.0,927.0,1.0,1,280.0,1
290,290,0.5903649595032726,0.6,0.0,0.0,260.0,904.0,0.0,1,256.0,1
291,291,-0.8712984262132452,-0.9,1.0,0.0,276.0,851.0,0.0,0,53.0,1
292,292,0.8789379280163067,0.9,1.0,1.0,412.0,620.0,1.0,1,218.0,1
293,293,-0.18754471700745068,-0.2,0.0,1.0,274.0,757.0,1.0,0,789.0,1
294,294,0.7743185531482496,0.8,0.0,0.0,325.0,917.0,0.0,1,298.0,1
295,295,-0.29987211001560776,-0.3,0.0,1.0,365.0,814.0,1.0,0,181.0,1
296,296,0.03676024834527458,0.0,0.0,0.0,399.0,634.0,0.0,1,1967.0,1
297,297,0.2626061575012547,0.3,1.0,1.0,428.0,964.0,1.0,1,258.0,1
298,298,-0.45546986301138603,-0.5,1.0,0.0,441.0,898.0,0.0,0,191.0,1
299,299,0.44032971279898414,0.4,0.0,0.0,369.0,623.0,0.0,1,668.0,1
300,300,-0.5052428068545406,-0.5,0.0,1.0,451.0,598.0,1.0,0,671.0,1
301,301,-0.6385872075785298,-0.6,0.0,1.0,454.0,541.0,1.0,0,155.0,1
302,302,-0.26001974229636016,-0.3,0.0,1.0,479.0,515.0,1.0,0,816.0,1
303,303,-0.06419318206287583,-0.1,0.0,1.0,376.0,694.0,1.0,0,170.0,1
304,304,0.7413215496555906,0.7,1.0,1.0,364.0,753.0,1.0,1,113.0,1
305,305,-0.5480263154570214,-0.5,0.0,1.0,262.0,885.0,1.0,0,243.0,1
306,306,0.5111336081534531,0.5,0.0,0.0,498.0,738.0,0.0,1,264.0,1
307,307,0.4044538903478633,0.4,1.0,1.0,462.0,852.0,1.0,1,296.0,1
308,308,0.8330717876501671,0.8,1.0,1.0,373.0,927.0,1.0,1,90.0,1
309,309,-0.42300550933131353,-0.4,1.0,0.0,378.0,501.0,0.0,0,1261.0,1
310,310,0.6142839860509736,0.6,0.0,0.0,356.0,782.0,0.0,1,312.0,1
311,311,0.27685263180389874,0.3,0.0,0.0,292.0,610.0,0.0,1,288.0,1
312,312,-0.2689669671687086,-0.3,1.0,0.0,483.0,587.0,0.0,0,1280.0,1
313,313,0.6514240887373445,0.7,0.0,0.0,281.0,818.0,0.0,1,171.0,1
314,314,-0.4832818160586397,-0.5,1.0,0.0,420.0,760.0,0.0,0,920.0,1
315,315,-0.3221036040838352,-0.3,0.0,1.0,491.0,567.0,1.0,0,362.0,1
316,316,-0.3005653902747286,-0.3,1.0,0.0,325.0,522.0,0.0,0,1063.0,1
317,317,-0.2948205765575571,-0.3,1.0,0.0,427.0,514.0,0.0,0,519.0,1
318,318,0.4957898751470683,0.5,0.0,0.0,360.0,780.0,0.0,1,270.0,1
319,319,-0.7171192064519922,-0.7,0.0,1.0,286.0,778.0,1.0,0,166.0,1
320,320,-0.07570427466260943,-0.1,1.0,0.0,283.0,748.0,0.0,0,819.0,1
321,321,-0.05452262386047735,-0.1,1.0,0.0,290.0,835.0,1.0,1,1875.0,0
322,322,0.6059291707736428,0.6,1.0,1.0,297.0,558.0,1.0,1,235.0,1
323,323,0.7207972516885645,0.7,1.0,1.0,404.0,972.0,1.0,1,234.0,1
324,324,0.6557926641664414,0.7,0.0,0.0,273.0,523.0,0.0,1,184.0,1
325,325,-0.0945720210906319,-0.1,0.0,1.0,494.0,617.0,1.0,0,1819.0,1
326,326,0.17433624498675793,0.2,1.0,1.0,478.0,782.0,1.0,1,130.0,1
327,327,-0.14153453385505388,-0.1,1.0,0.0,355.0,626.0,0.0,0,1329.0,1
328,328,-0.1148054449231618,-0.1,0.0,1.0,495.0,980.0,1.0,0,635.0,1
329,329,0.7934857430169381,0.8,1.0,1.0,393.0,865.0,1.0,1,152.0,1
330,330,0.27359221960485514,0.3,0.0,0.0,341.0,931.0,0.0,1,688.0,1
331,331,-0.16210716679235093,-0.2,0.0,1.0,450.0,743.0,1.0,0,407.0,1
332,332,-0.23408143160762263,-0.2,0.0,1.0,396.0,834.0,1.0,0,230.0,1
333,333,0.6669447663358653,0.7,1.0,1.0,437.0,827.0,1.0,1,126.0,1
334,334,-0.2156325317523865,-0.2,0.0,1.0,318.0,501.0,1.0,0,351.0,1
335,335,-0.2867626199366575,-0.3,1.0,0.0,253.0,569.0,0.0,0,1328.0,1
336,336,0.2529364661435308,0.3,0.0,0.0,290.0,722.0,0.0,1,1368.0,1
337,337,-0.23902099711842917,-0.2,1.0,0.0,397.0,845.0,0.0,0,608.0,1
338,338,0.18898055233483546,0.2,1.0,1.0,412.0,587.0,1.0,1,291.0,1
339,339,-0.38616729496787683,-0.4,0.0,1.0,323.0,946.0,1.0,0,301.0,1
340,340,-0.47839212035135686,-0.5,0.0,1.0,333.0,535.0,1.0,0,442.0,1
341,341,0.42799275586345675,0.4,0.0,0.0,431.0,579.0,0.0,1,420.0,1
342,342,0.14031900475550863,0.1,0.0,0.0,480.0,602.0,0.0,1,888.0,1
343,343,-0.1726533732988087,-0.2,1.0,0.0,462.0,880.0,0.0,0,518.0,1
344,344,0.6607087208013999,0.7,0.0,0.0,398.0,671.0,0.0,1,211.0,1
345,345,0.258274313558872,0.3,0.0,0.0,403.0,654.0,0.0,1,463.0,1
346,346,-0.7483304723167395,-0.7,1.0,0.0,330.0,924.0,0.0,0,276.0,1
347,347,0.7534947100272172,0.8,0.0,0.0,460.0,910.0,0.0,1,150.0,1
348,348,-0.2363380392997414,-0.2,1.0,0.0,419.0,905.0,0.0,0,506.0,1
349,349,-0.2445990603265561,-0.2,0.0,1.0,259.0,949.0,1.0,0,382.0,1
350,350,0.653795965152061,0.7,1.0,1.0,293.0,621.0,1.0,1,176.0,1
351,351,-0.6569996042049858,-0.7,0.0,1.0,393.0,680.0,1.0,0,277.0,1
352,352,0.787239247891215,0.8,1.0,1.0,316.0,813.0,1.0,1,91.0,1
353,353,-0.01624957859697529,-0.0,0.0,1.0,391.0,662.0,1.0,0,1527.0,1
354,354,0.3773399049700531,0.4,0.0,0.0,392.0,815.0,0.0,1,283.0,1
355,355,0.1854902414971934,0.2,0.0,0.0,426.0,756.0,0.0,1,528.0,1
356,356,-0.09036219633804143,-0.1,1.0,0.0,489.0,505.0,0.0,0,876.0,1
357,357,0.5790117671416594,0.6,1.0,1.0,397.0,716.0,1.0,1,157.0,1
358,358,0.6612689542880098,0.7,0.0,0.0,395.0,538.0,0.0,1,307.0,1
359,359,-0.02041339795169539,-0.0,0.0,1.0,465.0,554.0,0.0,1,621.0,0
360,360,0.8598229726766157,0.9,0.0,0.0,375.0,793.0,0.0,1,192.0,1
361,361,0.39207797967118163,0.4,1.0,1.0,269.0,920.0,1.0,1,151.0,1
362,362,0.3054978844585229,0.3,1.0,1.0,329.0,630.0,1.0,1,461.0,1
363,363,-0.3960535727923711,-0.4,0.0,1.0,443.0,980.0,1.0,0,187.0,1
364,364,0.7667211457306761,0.8,0.0,0.0,358.0,785.0,0.0,1,127.0,1
365,365,0.24831025244100247,0.2,0.0,0.0,306.0,935.0,0.0,1,799.0,1
366,366,0.42594547247156334,0.4,1.0,1.0,337.0,972.0,1.0,1,191.0,1
367,367,0.7567658138515537,0.8,0.0,0.0,250.0,899.0,0.0,1,171.0,1
368,368,0.2488521908371618,0.2,0.0,0.0,275.0,971.0,0.0,1,444.0,1
369,369,0.5231282228726001,0.5,0.0,0.0,425.0,778.0,0.0,1,407.0,1
370,370,-0.41740901186349494,-0.4,0.0,1.0,330.0,615.0,1.0,0,455.0,1
371,371,-0.6699832319805653,-0.7,1.0,0.0,318.0,566.0,0.0,0,396.0,1
372,372,-0.8649168259650236,-0.9,1.0,0.0,287.0,916.0,0.0,0,137.0,1
373,373,0.89265540227836,0.9,0.0,0.0,288.0,921.0,0.0,1,141.0,1
374,374,-0.5337254278318633,-0.5,0.0,1.0,288.0,851.0,1.0,0,261.0,1
375,375,-0.578511862720497,-0.6,0.0,1.0,474.0,957.0,1.0,0,169.0,1
376,376,-0.09116258550437029,-0.1,0.0,1.0,498.0,772.0,1.0,0,950.0,1
377,377,-0.14284250157710998,-0.1,1.0,0.0,344.0,683.0,0.0,0,1973.0,1
378,378,0.17708604878832135,0.2,1.0,1.0,452.0,540.0,1.0,1,748.0,1
379,379,0.06993477428810757,0.1,1.0,1.0,256.0,870.0,1.0,1,554.0,1
380,380,0.3384462660706272,0.3,0.0,0.0,328.0,906.0,0.0,1,326.0,1
381,381,0.584688447356403,0.6,0.0,0.0,279.0,549.0,0.0,1,212.0,1
382,382,-0.8069527852703525,-0.8,0.0,1.0,417.0,842.0,1.0,0,171.0,1
383,383,0.1585273676395812,0.2,1.0,1.0,252.0,568.0,1.0,1,700.0,1
384,384,-0.7485189101802582,-0.7,1.0,0.0,431.0,526.0,0.0,0,353.0,1
385,385,-0.7584785168098972,-0.8,0.0,1.0,310.0,840.0,1.0,0,100.0,1
386,386,0.5559312304850702,0.6,0.0,0.0,346.0,544.0,0.0,1,330.0,1
387,387,0.5239059167099557,0.5,1.0,1.0,284.0,517.0,1.0,1,449.0,1
388,388,-0.4509847965490396,-0.5,1.0,0.0,495.0,584.0,0.0,0,941.0,1
389,389,0.3782756854777386,0.4,1.0,1.0,374.0,757.0,1.0,1,399.0,1
390,390,-0.5545176181465821,-0.6,1.0,0.0,496.0,684.0,0.0,0,1280.0,1
391,391,0.8963154383625204,0.9,1.0,1.0,483.0,695.0,1.0,1,172.0,1
392,392,0.8683899205669096,0.9,1.0,1.0,359.0,770.0,1.0,1,191.0,1
393,393,-0.6162872027320724,-0.6,1.0,0.0,399.0,695.0,0.0,0,786.0,1
394,394,-0.5960720439443261,-0.6,1.0,0.0,482.0,936.0,0.0,0,1552.0,1
395,395,-0.18805129032062728,-0.2,1.0,0.0,362.0,719.0,0.0,0,539.0,1
396,396,-0.7954812979943413,-0.8,1.0,0.0,431.0,640.0,0.0,0,239.0,1
397,397,0.28040451572793346,0.3,0.0,0.0,468.0,635.0,0.0,1,277.0,1
398,398,-0.1137033995478377,-0.1,0.0,1.0,268.0,557.0,1.0,0,575.0,1
399,399,-0.3251152886043488,-0.3,0.0,1.0,381.0,879.0,1.0,0,600.0,1
400,400,-0.6161552604617612,-0.6,0.0,1.0,427.0,501.0,1.0,0,332.0,1
401,401,-0.24555762323423924,-0.2,1.0,0.0,376.0,923.0,0.0,0,401.0,1
402,402,-0.061893967736728506,-0.1,1.0,0.0,370.0,556.0,0.0,0,1594.0,1
403,403,-0.47695683994492216,-0.5,0.0,1.0,351.0,605.0,1.0,0,244.0,1
404,404,-0.0911912230937364,-0.1,1.0,0.0,417.0,678.0,0.0,0,1905.0,1
405,405,0.08728161290666492,0.1,1.0,1.0,437.0,936.0,1.0,1,457.0,1
406,406,-0.31095451453436984,-0.3,0.0,1.0,490.0,656.0,1.0,0,244.0,1
407,407,0.7722469243574898,0.8,0.0,0.0,352.0,878.0,0.0,1,140.0,1
408,408,0.4161166527040777,0.4,1.0,1.0,267.0,858.0,1.0,1,255.0,1
409,409,-0.5851136502521124,-0.6,1.0,0.0,358.0,985.0,0.0,0,277.0,1
410,410,-0.08371587449570894,-0.1,1.0,0.0,297.0,992.0,0.0,0,1711.0,1
411,411,-0.4524005104781531,-0.5,0.0,1.0,340.0,946.0,1.0,0,284.0,1
412,412,-0.3295576924894599,-0.3,0.0,1.0,449.0,692.0,1.0,0,349.0,1
413,413,-0.3411064253826128,-0.3,0.0,1.0,367.0,736.0,1.0,0,607.0,1
414,414,0.5731577489654324,0.6,1.0,1.0,478.0,789.0,1.0,1,173.0,1
415,415,-0.709344378840943,-0.7,1.0,0.0,383.0,692.0,0.0,0,205.0,1
416,416,-0.6481194420908625,-0.6,0.0,1.0,408.0,910.0,1.0,0,112.0,1
417,417,0.5881344076929388,0.6,1.0,1.0,262.0,736.0,1.0,1,262.0,1
418,418,0.33198438458030866,0.3,0.0,0.0,329.0,758.0,0.0,1,593.0,1
419,419,-0.7877311751570109,-0.8,0.0,1.0,473.0,854.0,1.0,0,153.0,1
420,420,-0.09604957038395301,-0.1,1.0,0.0,483.0,558.0,0.0,0,1159.0,1
421,421,-0.14380328906333373,-0.1,1.0,0.0,486.0,985.0,0.0,0,1119.0,1
422,422,-0.44840503015160055,-0.4,0.0,1.0,444.0,829.0,1.0,0,267.0,1
423,423,0.2766284388728185,0.3,1.0,1.0,492.0,795.0,1.0,1,213.0,1
424,424,-0.24765187966536562,-0.2,0.0,1.0,297.0,678.0,1.0,0,995.0,1
425,425,0.6196097067556537,0.6,1.0,1.0,439.0,741.0,1.0,1,400.0,1
426,426,0.2908288094004775,0.3,0.0,0.0,255.0,980.0,0.0,1,455.0,1
427,427,-0.09975514382293804,-0.1,0.0,1.0,398.0,977.0,1.0,0,135.0,1
428,428,-0.8559007421150888,-0.9,1.0,0.0,293.0,874.0,0.0,0,123.0,1
429,429,0.36881701717896787,0.4,1.0,1.0,348.0,589.0,1.0,1,243.0,1
430,430,-0.6374008908646609,-0.6,0.0,1.0,487.0,786.0,1.0,0,397.0,1
431,431,0.6471792136563294,0.6,1.0,1.0,443.0,668.0,1.0,1,129.0,1
432,432,0.11318223884619238,0.1,1.0,1.0,454.0,843.0,1.0,1,763.0,1
433,433,0.49843912489981157,0.5,1.0,1.0,444.0,920.0,1.0,1,176.0,1
434,434,-0.20135641226704049,-0.2,1.0,0.0,266.0,676.0,0.0,0,548.0,1
435,435,0.39946900198035806,0.4,0.0,0.0,415.0,733.0,0.0,1,192.0,1
436,436,0.23972294216510692,0.2,1.0,1.0,461.0,931.0,1.0,1,498.0,1
437,437,0.781751579409984,0.8,1.0,1.0,258.0,537.0,1.0,1,195.0,1
438,438,-0.7511781421580854,-0.8,0.0,1.0,479.0,632.0,1.0,0,219.0,1
439,439,-0.6091642692738333,-0.6,1.0,0.0,256.0,511.0,0.0,0,1073.0,1
440,440,-0.5027034123784929,-0.5,0.0,1.0,462.0,953.0,1.0,0,165.0,1
441,441,-0.6657483309564012,-0.7,1.0,0.0,414.0,795.0,0.0,0,341.0,1
442,442,-0.21156691117569182,-0.2,1.0,0.0,458.0,907.0,0.0,0,415.0,1
443,443,-0.057914590745327565,-0.1,0.0,1.0,472.0,999.0,1.0,0,389.0,1
444,444,0.14694573844977932,0.1,1.0,1.0,384.0,772.0,1.0,1,304.0,1
445,445,-0.6242279748773389,-0.6,0.0,1.0,253.0,544.0,1.0,0,363.0,1
446,446,-0.7583247587193542,-0.8,1.0,0.0,375.0,653.0,0.0,0,362.0,1
447,447,0.553797763415628,0.6,1.0,1.0,366.0,777.0,1.0,1,217.0,1
448,448,0.08392577857944539,0.1,1.0,1.0,414.0,739.0,1.0,1,1087.0,1
449,449,-0.4023058338185465,-0.4,1.0,0.0,301.0,832.0,0.0,0,277.0,1
450,450,-0.0033177794011265416,-0.0,0.0,1.0,308.0,842.0,1.0,0,1850.0,1
451,451,0.2931656661826735,0.3,1.0,1.0,251.0,538.0,1.0,1,241.0,1
452,452,0.6320021849467813,0.6,0.0,0.0,356.0,515.0,0.0,1,189.0,1
453,453,0.4924233067001321,0.5,0.0,0.0,392.0,745.0,0.0,1,143.0,1
454,454,0.6479853479747141,0.6,1.0,1.0,386.0,740.0,1.0,1,174.0,1
455,455,-0.5783461325725923,-0.6,1.0,0.0,484.0,557.0,0.0,0,899.0,1
456,456,-0.0007494371301147718,-0.0,0.0,1.0,323.0,918.0,1.0,0,1689.0,1
457,457,0.4960573635962108,0.5,0.0,0.0,338.0,582.0,0.0,1,470.0,1
458,458,-0.2545899570679303,-0.3,1.0,0.0,433.0,588.0,0.0,0,439.0,1
459,459,0.714429226002861,0.7,1.0,1.0,253.0,616.0,1.0,1,151.0,1
460,460,-0.4345346742898921,-0.4,0.0,1.0,432.0,546.0,1.0,0,652.0,1
461,461,0.7541102558809852,0.8,0.0,0.0,399.0,586.0,0.0,1,325.0,1
462,462,0.3375859611768742,0.3,0.0,0.0,371.0,564.0,0.0,1,805.0,1
463,463,-0.7738752739211894,-0.8,0.0,1.0,438.0,701.0,1.0,0,101.0,1
464,464,-0.33594158202542646,-0.3,1.0,0.0,396.0,738.0,0.0,0,606.0,1
465,465,-0.31516080865454343,-0.3,0.0,1.0,458.0,956.0,1.0,0,406.0,1
466,466,0.42365564287708135,0.4,1.0,1.0,357.0,582.0,1.0,1,321.0,1
467,467,-0.8735007757308243,-0.9,0.0,1.0,348.0,768.0,1.0,0,184.0,1
468,468,-0.3260828416123239,-0.3,1.0,0.0,346.0,682.0,0.0,0,1422.0,1
469,469,-0.8363331757262883,-0.8,0.0,1.0,451.0,804.0,1.0,0,235.0,1
470,470,-0.16110520233457137,-0.2,1.0,0.0,479.0,991.0,0.0,0,390.0,1
471,471,0.8318917281162542,0.8,1.0,1.0,395.0,692.0,1.0,1,113.0,1
472,472,-0.6720536637616698,-0.7,1.0,0.0,319.0,994.0,0.0,0,67.0,1
473,473,0.10311053120067626,0.1,0.0,0.0,375.0,614.0,0.0,1,401.0,1
474,474,-0.009023007581788312,-0.0,0.0,1.0,419.0,777.0,1.0,0,1804.0,1
475,475,0.17031866195024004,0.2,1.0,1.0,408.0,826.0,1.0,1,416.0,1
476,476,-0.23572445547625898,-0.2,1.0,0.0,425.0,923.0,0.0,0,1032.0,1
477,477,0.22463876374612923,0.2,1.0,1.0,445.0,580.0,1.0,1,945.0,1
478,478,-0.5829010952142026,-0.6,1.0,0.0,268.0,976.0,0.0,0,986.0,1
479,479,0.21427540910595544,0.2,1.0,1.0,345.0,997.0,1.0,1,328.0,1
480,480,0.8345175584285341,0.8,1.0,1.0,457.0,796.0,1.0,1,167.0,1
481,481,0.6683719319440181,0.7,0.0,0.0,430.0,594.0,0.0,1,186.0,1
482,482,-0.37104255547547416,-0.4,0.0,1.0,410.0,937.0,1.0,0,213.0,1
483,483,-0.6665964440716365,-0.7,0.0,1.0,409.0,954.0,1.0,0,547.0,1
484,484,-0.3704056566957361,-0.4,0.0,1.0,261.0,872.0,1.0,0,227.0,1
485,485,-0.07614378538814859,-0.1,1.0,0.0,360.0,670.0,0.0,0,1970.0,1
486,486,0.15646169608150162,0.2,1.0,1.0,486.0,983.0,1.0,1,41.0,1
487,487,-0.2491543031897896,-0.2,1.0,0.0,357.0,924.0,0.0,0,639.0,1
488,488,-0.727785238263851,-0.7,1.0,0.0,362.0,500.0,0.0,0,308.0,1
489,489,0.709558640171274,0.7,0.0,0.0,288.0,639.0,0.0,1,233.0,1
490,490,-0.17582169318168106,-0.2,0.0,1.0,268.0,728.0,1.0,0,414.0,1
491,491,0.8414540607802524,0.8,0.0,0.0,350.0,604.0,0.0,1,336.0,1
492,492,0.5349443005393181,0.5,0.0,0.0,335.0,946.0,0.0,1,159.0,1
493,493,-0.16682207988284725,-0.2,0.0,1.0,498.0,564.0,1.0,0,598.0,1
494,494,0.289153294569659,0.3,0.0,0.0,348.0,540.0,0.0,1,942.0,1
495,495,-0.6567066609079126,-0.7,0.0,1.0,478.0,559.0,1.0,0,303.0,1
496,496,0.22187699597644184,0.2,0.0,0.0,452.0,607.0,0.0,1,331.0,1
497,497,0.7003259920177186,0.7,1.0,1.0,404.0,883.0,1.0,1,183.0,1
498,498,0.604451599372032,0.6,1.0,1.0,292.0,591.0,1.0,1,297.0,1
499,499,0.07094528308536985,0.1,1.0,1.0,328.0,708.0,1.0,1,574.0,1
500,500,-0.41848327979948213,-0.4,1.0,0.0,388.0,799.0,0.0,0,733.0,1
501,501,0.5079483839179316,0.5,0.0,0.0,444.0,572.0,0.0,1,174.0,1
502,502,-0.6652450325659942,-0.7,1.0,0.0,361.0,584.0,0.0,0,245.0,1
503,503,0.6820040275105786,0.7,1.0,1.0,400.0,854.0,1.0,1,176.0,1
504,504,0.7821484040023846,0.8,0.0,0.0,489.0,500.0,0.0,1,221.0,1
505,505,0.6605991735717295,0.7,0.0,0.0,260.0,507.0,0.0,1,423.0,1
506,506,0.3391794408034724,0.3,1.0,1.0,319.0,595.0,1.0,1,426.0,1
507,507,0.6399148072548914,0.6,1.0,1.0,345.0,713.0,1.0,1,322.0,1
508,508,0.4060688827520923,0.4,1.0,1.0,359.0,544.0,1.0,1,477.0,1
509,509,-0.8061697937929438,-0.8,1.0,0.0,384.0,806.0,0.0,0,60.0,1
510,510,-0.10810587683146822,-0.1,0.0,1.0,393.0,658.0,1.0,0,299.0,1
511,511,-0.7668761937240722,-0.8,1.0,0.0,404.0,631.0,0.0,0,755.0,1
512,512,-0.21217785648389254,-0.2,0.0,1.0,370.0,505.0,1.0,0,1415.0,1
513,513,0.6123271472602775,0.6,1.0,1.0,322.0,846.0,1.0,1,142.0,1
514,514,-0.8043796268381481,-0.8,1.0,0.0,438.0,830.0,0.0,0,242.0,1
515,515,-0.18201805846819485,-0.2,0.0,1.0,392.0,592.0,1.0,0,886.0,1
516,516,-0.4683312937430291,-0.5,0.0,1.0,297.0,859.0,1.0,0,144.0,1
517,517,0.21716011528282786,0.2,1.0,1.0,368.0,638.0,1.0,1,544.0,1
518,518,-0.14092557486378476,-0.1,1.0,0.0,295.0,854.0,0.0,0,1851.0,1
519,519,0.6703760681413996,0.7,0.0,0.0,487.0,608.0,0.0,1,455.0,1
520,520,0.3666502817963023,0.4,1.0,1.0,498.0,837.0,1.0,1,195.0,1
521,521,-0.013258823974447553,-0.0,0.0,1.0,488.0,815.0,1.0,0,1067.0,1
522,522,0.009425800779102378,0.0,1.0,1.0,364.0,918.0,1.0,1,1718.0,1
523,523,-0.07143092938366913,-0.1,1.0,0.0,493.0,943.0,0.0,0,1224.0,1
524,524,-0.7818291070766532,-0.8,1.0,0.0,312.0,957.0,0.0,0,321.0,1
525,525,0.3986202136204783,0.4,0.0,0.0,312.0,779.0,0.0,1,619.0,1
526,526,-0.1823617807514375,-0.2,1.0,0.0,323.0,986.0,0.0,0,781.0,1
527,527,0.5436247591402378,0.5,1.0,1.0,459.0,944.0,1.0,1,167.0,1
528,528,-0.4794785598024273,-0.5,1.0,0.0,496.0,905.0,0.0,0,159.0,1
529,529,0.8787378411076782,0.9,1.0,1.0,300.0,700.0,1.0,1,240.0,1
530,530,0.4161118793470978,0.4,1.0,1.0,386.0,917.0,1.0,1,257.0,1
531,531,0.30106230041480353,0.3,0.0,0.0,287.0,562.0,0.0,1,551.0,1
532,532,-0.5287014646912299,-0.5,1.0,0.0,374.0,775.0,0.0,0,841.0,1
533,533,-0.1843707859387419,-0.2,1.0,0.0,389.0,902.0,0.0,0,689.0,1
534,534,-0.6021235246518883,-0.6,1.0,0.0,461.0,665.0,0.0,0,914.0,1
535,535,0.6582660660867147,0.7,1.0,1.0,407.0,798.0,1.0,1,145.0,1
536,536,-0.2401240361700263,-0.2,0.0,1.0,319.0,959.0,1.0,0,292.0,1
537,537,-0.1627209346738906,-0.2,1.0,0.0,400.0,830.0,0.0,0,1160.0,1
538,538,-0.04530735043431677,-0.0,0.0,1.0,363.0,785.0,1.0,0,792.0,1
539,539,-0.03296778754493124,-0.0,0.0,1.0,254.0,650.0,1.0,0,716.0,1
540,540,0.13513291902600388,0.1,0.0,0.0,316.0,784.0,0.0,1,390.0,1
541,541,0.014104216419643656,0.0,1.0,1.0,329.0,647.0,1.0,1,2024.0,1
542,542,0.6718428068022076,0.7,0.0,0.0,302.0,544.0,0.0,1,344.0,1
543,543,0.4346370918967736,0.4,1.0,1.0,303.0,767.0,1.0,1,190.0,1
544,544,0.14478480197166876,0.1,0.0,0.0,281.0,714.0,0.0,1,1345.0,1
545,545,0.4771802751757662,0.5,1.0,1.0,267.0,548.0,1.0,1,355.0,1
546,546,-0.843326579267245,-0.8,0.0,1.0,372.0,854.0,1.0,0,174.0,1
547,547,0.031672957151012926,0.0,1.0,1.0,267.0,944.0,1.0,1,1789.0,1
548,548,-0.06138807711150651,-0.1,0.0,1.0,418.0,538.0,1.0,0,1614.0,1
549,549,0.29987919704002974,0.3,0.0,0.0,316.0,677.0,0.0,1,387.0,1
550,550,-0.8550898487310277,-0.9,1.0,0.0,380.0,679.0,0.0,0,381.0,1
551,551,-0.0793736839771807,-0.1,1.0,0.0,380.0,836.0,0.0,0,1654.0,1
552,552,-0.21112348102431244,-0.2,1.0,0.0,288.0,791.0,0.0,0,791.0,1
553,553,-0.8759231955649304,-0.9,1.0,0.0,354.0,741.0,0.0,0,445.0,1
554,554,-0.5467277113461282,-0.5,1.0,0.0,443.0,882.0,0.0,0,205.0,1
555,555,0.6404458218562555,0.6,1.0,1.0,259.0,628.0,1.0,1,213.0,1
556,556,0.42102848469179677,0.4,0.0,0.0,372.0,821.0,0.0,1,467.0,1
557,557,0.7949472051868701,0.8,1.0,1.0,306.0,791.0,1.0,1,303.0,1
558,558,0.6758228275487203,0.7,1.0,1.0,330.0,550.0,1.0,1,170.0,1
559,559,0.4023608129722943,0.4,1.0,1.0,254.0,739.0,1.0,1,267.0,1
560,560,-0.7590050066645797,-0.8,1.0,0.0,381.0,916.0,0.0,0,883.0,1
561,561,-0.17962750093407798,-0.2,0.0,1.0,299.0,700.0,1.0,0,721.0,1
562,562,-0.12235724700219253,-0.1,0.0,1.0,336.0,803.0,1.0,0,1831.0,1
563,563,-0.04442813576531868,-0.0,0.0,1.0,336.0,931.0,1.0,0,1733.0,1
564,564,0.5285187025166834,0.5,1.0,1.0,447.0,553.0,1.0,1,270.0,1
565,565,-0.5295292045873693,-0.5,0.0,1.0,385.0,531.0,1.0,0,444.0,1
566,566,0.2332203775254239,0.2,0.0,0.0,443.0,765.0,0.0,1,542.0,1
567,567,0.42119059160581396,0.4,1.0,1.0,455.0,566.0,1.0,1,169.0,1
568,568,0.5721424404860668,0.6,1.0,1.0,316.0,826.0,1.0,1,218.0,1
569,569,0.11845338950229178,0.1,1.0,1.0,363.0,582.0,1.0,1,675.0,1
570,570,0.5182046473784278,0.5,0.0,0.0,263.0,620.0,0.0,1,327.0,1
571,571,-0.15654532648220942,-0.2,0.0,1.0,302.0,635.0,1.0,0,333.0,1
572,572,0.6364040527937486,0.6,0.0,0.0,487.0,855.0,0.0,1,328.0,1
573,573,0.37171966245376364,0.4,1.0,1.0,444.0,814.0,1.0,1,142.0,1
574,574,0.5188950733227403,0.5,0.0,0.0,493.0,886.0,0.0,1,191.0,1
575,575,-0.5669145899813597,-0.6,0.0,1.0,390.0,650.0,1.0,0,150.0,1
576,576,-0.7240713153054725,-0.7,1.0,0.0,446.0,900.0,0.0,0,104.0,1
577,577,0.32752980229967543,0.3,0.0,0.0,479.0,573.0,0.0,1,538.0,1
578,578,0.1278741689023194,0.1,0.0,0.0,407.0,738.0,0.0,1,1605.0,1
579,579,0.018251895442864874,0.0,1.0,1.0,343.0,758.0,1.0,1,1399.0,1
580,580,-0.7746860301657726,-0.8,0.0,1.0,360.0,530.0,1.0,0,170.0,1
581,581,0.2025956462271684,0.2,0.0,0.0,439.0,991.0,0.0,1,1450.0,1
582,582,0.09757462896003444,0.1,0.0,0.0,405.0,960.0,0.0,1,1635.0,1
583,583,0.5501383117998494,0.6,1.0,1.0,301.0,889.0,1.0,1,300.0,1
584,584,0.1688180273227674,0.2,0.0,0.0,346.0,560.0,0.0,1,1124.0,1
585,585,-0.1844813265571319,-0.2,1.0,0.0,402.0,744.0,0.0,0,714.0,1
586,586,-0.33175316526839804,-0.3,1.0,0.0,477.0,762.0,0.0,0,591.0,1
587,587,0.44970769601234395,0.4,1.0,1.0,351.0,785.0,1.0,1,404.0,1
588,588,0.3163754109335454,0.3,0.0,0.0,409.0,996.0,0.0,1,735.0,1
589,589,0.5950938783588869,0.6,1.0,1.0,412.0,521.0,1.0,1,197.0,1
590,590,0.5593483967727094,0.6,1.0,1.0,454.0,713.0,1.0,1,123.0,1
591,591,-0.24921532593917817,-0.2,1.0,0.0,424.0,723.0,0.0,0,503.0,1
592,592,0.10556052195455956,0.1,1.0,1.0,296.0,575.0,1.0,1,959.0,1
593,593,-0.8939215749285679,-0.9,1.0,0.0,471.0,646.0,0.0,0,143.0,1
594,594,-0.4013756762509852,-0.4,0.0,1.0,338.0,988.0,1.0,0,124.0,1
595,595,-0.5666780416756327,-0.6,0.0,1.0,280.0,514.0,1.0,0,356.0,1
596,596,0.18409519281092213,0.2,0.0,0.0,344.0,838.0,0.0,1,408.0,1
597,597,-0.7670854625762253,-0.8,0.0,1.0,308.0,714.0,1.0,0,228.0,1
598,598,0.8896578320548872,0.9,0.0,0.0,332.0,730.0,0.0,1,358.0,1
599,599,-0.7638446033211483,-0.8,0.0,1.0,388.0,662.0,1.0,0,180.0,1
600,600,-0.797693887804544,-0.8,0.0,1.0,407.0,913.0,1.0,0,200.0,1
601,601,0.45513066500786603,0.5,0.0,0.0,307.0,762.0,0.0,1,951.0,1
602,602,0.10755957031745511,0.1,1.0,1.0,340.0,930.0,1.0,1,950.0,1
603,603,-0.21105872276490711,-0.2,1.0,0.0,321.0,761.0,0.0,0,1438.0,1
604,604,-0.030732503373745,-0.0,0.0,1.0,400.0,648.0,0.0,1,1952.0,0
605,605,0.2746195604665961,0.3,0.0,0.0,446.0,974.0,0.0,1,630.0,1
606,606,-0.02784500105034482,-0.0,0.0,1.0,354.0,579.0,1.0,0,507.0,1
607,607,0.54361710183788,0.5,1.0,1.0,330.0,989.0,1.0,1,211.0,1
608,608,-0.3197149748861272,-0.3,1.0,0.0,480.0,807.0,0.0,0,803.0,1
609,609,0.4004111744726636,0.4,0.0,0.0,472.0,762.0,0.0,1,216.0,1
610,610,-0.204392908889645,-0.2,0.0,1.0,429.0,612.0,1.0,0,489.0,1
611,611,-0.7584625585766843,-0.8,1.0,0.0,325.0,739.0,0.0,0,276.0,1
612,612,-0.7289763968335855,-0.7,1.0,0.0,296.0,856.0,0.0,0,1268.0,1
613,613,0.704497775630751,0.7,0.0,0.0,296.0,917.0,0.0,1,247.0,1
614,614,0.6165193304830939,0.6,0.0,0.0,310.0,850.0,0.0,1,180.0,1
615,615,-0.024141769899139076,-0.0,1.0,0.0,412.0,736.0,1.0,1,792.0,0
616,616,-0.5933253963071182,-0.6,1.0,0.0,463.0,765.0,0.0,0,292.0,1
617,617,0.853048965612459,0.9,0.0,0.0,499.0,642.0,0.0,1,309.0,1
618,618,-0.6663652442448106,-0.7,0.0,1.0,257.0,700.0,1.0,0,213.0,1
619,619,-0.6381438499147991,-0.6,0.0,1.0,253.0,585.0,1.0,0,332.0,1
620,620,-0.4789239946261333,-0.5,0.0,1.0,324.0,613.0,1.0,0,253.0,1
621,621,0.684479991015099,0.7,0.0,0.0,331.0,899.0,0.0,1,160.0,1
622,622,-0.1058987423095138,-0.1,1.0,0.0,458.0,590.0,1.0,1,1392.0,0
623,623,0.6441825271923726,0.6,0.0,0.0,474.0,908.0,0.0,1,158.0,1
624,624,0.8489401964161224,0.8,0.0,0.0,280.0,890.0,0.0,1,170.0,1
625,625,-0.5036362725185588,-0.5,1.0,0.0,373.0,742.0,0.0,0,895.0,1
626,626,0.7745187204454075,0.8,1.0,1.0,482.0,595.0,1.0,1,193.0,1
627,627,-0.5307921001637486,-0.5,0.0,1.0,301.0,905.0,1.0,0,184.0,1
628,628,0.5487012335161999,0.5,0.0,0.0,336.0,553.0,0.0,1,581.0,1
629,629,0.28928240611342193,0.3,1.0,1.0,338.0,712.0,1.0,1,250.0,1
630,630,-0.7810002972484007,-0.8,1.0,0.0,318.0,620.0,0.0,0,292.0,1
631,631,0.8262300256763416,0.8,1.0,1.0,260.0,705.0,1.0,1,175.0,1
632,632,-0.05986478216883684,-0.1,1.0,0.0,456.0,612.0,0.0,0,1932.0,1
633,633,0.535576469353625,0.5,0.0,0.0,272.0,596.0,0.0,1,372.0,1
634,634,0.2965055895724348,0.3,1.0,1.0,477.0,860.0,1.0,1,433.0,1
635,635,-0.4193444566477718,-0.4,0.0,1.0,450.0,735.0,1.0,0,335.0,1
636,636,-0.7418905854226313,-0.7,0.0,1.0,261.0,880.0,1.0,0,249.0,1
637,637,0.04973699550936228,0.0,1.0,1.0,341.0,568.0,1.0,1,2091.0,1
638,638,0.6561213997344838,0.7,0.0,0.0,315.0,594.0,0.0,1,501.0,1
639,639,0.5038333375962972,0.5,0.0,0.0,459.0,933.0,0.0,1,188.0,1
640,640,0.638006651826129,0.6,0.0,0.0,424.0,610.0,0.0,1,106.0,1
641,641,0.10851773282168453,0.1,0.0,0.0,394.0,790.0,0.0,1,586.0,1
642,642,-0.3661768662944248,-0.4,1.0,0.0,273.0,972.0,0.0,0,265.0,1
643,643,0.7442204480085052,0.7,1.0,1.0,380.0,781.0,1.0,1,49.0,1
644,644,0.17228395592233936,0.2,1.0,1.0,462.0,544.0,1.0,1,914.0,1
645,645,-0.385358659037488,-0.4,0.0,1.0,315.0,917.0,1.0,0,798.0,1
646,646,-0.22084334641960213,-0.2,0.0,1.0,480.0,977.0,1.0,0,193.0,1
647,647,-0.47635192510382934,-0.5,1.0,0.0,304.0,906.0,0.0,0,460.0,1
648,648,-0.32011852402078655,-0.3,0.0,1.0,378.0,995.0,1.0,0,337.0,1
649,649,-0.33237419371262955,-0.3,1.0,0.0,424.0,970.0,0.0,0,196.0,1
650,650,0.16842598549095322,0.2,1.0,1.0,338.0,537.0,1.0,1,835.0,1
651,651,-0.07517013200227418,-0.1,0.0,1.0,351.0,551.0,1.0,0,2098.0,1
652,652,0.3203068315644494,0.3,1.0,1.0,439.0,502.0,1.0,1,709.0,1
653,653,-0.34973572452593327,-0.3,1.0,0.0,353.0,883.0,0.0,0,414.0,1
654,654,0.192227462721957,0.2,0.0,0.0,480.0,763.0,0.0,1,1757.0,1
655,655,-0.10566887665633695,-0.1,1.0,0.0,331.0,878.0,1.0,1,1791.0,0
656,656,0.36541844531575707,0.4,0.0,0.0,415.0,928.0,0.0,1,517.0,1
657,657,0.2728762907857051,0.3,0.0,0.0,440.0,917.0,0.0,1,433.0,1
658,658,0.06848271169685027,0.1,0.0,0.0,407.0,923.0,0.0,1,1670.0,1
659,659,0.4153219690492326,0.4,0.0,0.0,250.0,909.0,0.0,1,161.0,1
660,660,-0.3247680530483692,-0.3,0.0,1.0,463.0,526.0,1.0,0,511.0,1
661,661,-0.8967458417491071,-0.9,0.0,1.0,330.0,566.0,1.0,0,184.0,1
662,662,-0.566232183094832,-0.6,1.0,0.0,287.0,555.0,0.0,0,528.0,1
663,663,0.29448990157087007,0.3,1.0,1.0,373.0,919.0,1.0,1,238.0,1
664,664,-0.6004509077249732,-0.6,1.0,0.0,455.0,573.0,0.0,0,322.0,1
665,665,-0.6134468703010727,-0.6,0.0,1.0,280.0,941.0,1.0,0,179.0,1
666,666,-0.8419739965952697,-0.8,1.0,0.0,310.0,548.0,0.0,0,422.0,1
667,667,-0.2917133319292756,-0.3,0.0,1.0,334.0,917.0,1.0,0,209.0,1
668,668,0.7639927554510665,0.8,1.0,1.0,363.0,873.0,1.0,1,84.0,1
669,669,-0.2800253108477989,-0.3,1.0,0.0,450.0,810.0,0.0,0,370.0,1
670,670,-0.00337956252987881,-0.0,0.0,1.0,460.0,668.0,0.0,1,1872.0,0
671,671,-0.23260972454765572,-0.2,1.0,0.0,376.0,936.0,0.0,0,408.0,1
672,672,-0.200482770551632,-0.2,0.0,1.0,387.0,665.0,1.0,0,738.0,1
673,673,0.38812087666616557,0.4,0.0,0.0,473.0,666.0,0.0,1,371.0,1
674,674,0.7823813880246427,0.8,1.0,1.0,437.0,783.0,1.0,1,120.0,1
675,675,0.5705631692832597,0.6,0.0,0.0,282.0,934.0,0.0,1,234.0,1
676,676,0.13372855285711183,0.1,0.0,0.0,356.0,803.0,0.0,1,1841.0,1
677,677,0.14134083298363354,0.1,1.0,1.0,407.0,614.0,1.0,1,479.0,1
678,678,0.5792177821765029,0.6,1.0,1.0,465.0,703.0,1.0,1,232.0,1
679,679,-0.5035057181249519,-0.5,0.0,1.0,256.0,936.0,1.0,0,238.0,1
680,680,0.251839739757881,0.3,1.0,1.0,373.0,693.0,1.0,1,384.0,1
681,681,0.122324837962423,0.1,1.0,1.0,440.0,687.0,1.0,1,1033.0,1
682,682,-0.2998781526941704,-0.3,0.0,1.0,377.0,607.0,1.0,0,586.0,1
683,683,0.5986833989246173,0.6,0.0,0.0,270.0,772.0,0.0,1,108.0,1
684,684,-0.2687870503943124,-0.3,0.0,1.0,459.0,959.0,1.0,0,482.0,1
685,685,-0.14472801886168474,-0.1,1.0,0.0,340.0,621.0,0.0,0,1479.0,1
686,686,0.5361984037032707,0.5,0.0,0.0,414.0,698.0,0.0,1,568.0,1
687,687,0.3310819972357638,0.3,1.0,1.0,261.0,976.0,1.0,1,323.0,1
688,688,-0.34493765646270635,-0.3,0.0,1.0,328.0,539.0,1.0,0,593.0,1
689,689,0.8977707358132326,0.9,1.0,1.0,498.0,507.0,1.0,1,255.0,1
690,690,0.054867535008492396,0.1,1.0,1.0,481.0,798.0,1.0,1,1051.0,1
691,691,-0.36516983174336204,-0.4,0.0,1.0,281.0,635.0,1.0,0,424.0,1
692,692,-0.5754937728208267,-0.6,0.0,1.0,296.0,561.0,1.0,0,493.0,1
693,693,-0.3297833261094353,-0.3,1.0,0.0,468.0,694.0,0.0,0,488.0,1
694,694,0.3827447359143593,0.4,0.0,0.0,260.0,875.0,0.0,1,265.0,1
695,695,-0.571165791770462,-0.6,1.0,0.0,485.0,632.0,0.0,0,173.0,1
696,696,-0.26250870903722,-0.3,1.0,0.0,265.0,890.0,0.0,0,885.0,1
697,697,-0.5309431855921292,-0.5,1.0,0.0,341.0,770.0,0.0,0,329.0,1
698,698,-0.6542411865417977,-0.7,1.0,0.0,291.0,802.0,0.0,0,137.0,1
699,699,0.11660103502985575,0.1,1.0,1.0,326.0,644.0,1.0,1,600.0,1
700,700,0.7616663094274784,0.8,0.0,0.0,449.0,623.0,0.0,1,418.0,1
701,701,-0.2035230709264969,-0.2,0.0,1.0,288.0,724.0,1.0,0,228.0,1
702,702,-0.8218912826043658,-0.8,0.0,1.0,327.0,537.0,1.0,0,156.0,1
703,703,0.6004136077614209,0.6,1.0,1.0,472.0,673.0,1.0,1,145.0,1
704,704,0.010947125482325348,0.0,0.0,0.0,399.0,734.0,0.0,1,1867.0,1
705,705,0.49758447742693857,0.5,0.0,0.0,261.0,512.0,0.0,1,287.0,1
706,706,-0.8726824665237347,-0.9,0.0,1.0,373.0,524.0,1.0,0,333.0,1
707,707,-0.5350643229052163,-0.5,1.0,0.0,284.0,931.0,0.0,0,65.0,1
708,708,-0.09660378624108423,-0.1,0.0,1.0,427.0,530.0,1.0,0,273.0,1
709,709,0.44619160060912255,0.4,0.0,0.0,422.0,882.0,0.0,1,526.0,1
710,710,-0.378785048784154,-0.4,0.0,1.0,317.0,769.0,1.0,0,324.0,1
711,711,-0.2979206145514215,-0.3,0.0,1.0,322.0,781.0,1.0,0,427.0,1
712,712,0.8911603221843282,0.9,0.0,0.0,465.0,592.0,0.0,1,203.0,1
713,713,0.3184800474081123,0.3,0.0,0.0,482.0,529.0,0.0,1,289.0,1
714,714,-0.3305824902658705,-0.3,1.0,0.0,258.0,531.0,0.0,0,171.0,1
715,715,-0.6276781193976664,-0.6,0.0,1.0,495.0,547.0,1.0,0,258.0,1
716,716,0.519393356178052,0.5,1.0,1.0,342.0,792.0,1.0,1,106.0,1
717,717,-0.2518988131693558,-0.3,1.0,0.0,446.0,572.0,0.0,0,472.0,1
718,718,-0.6312465983800644,-0.6,1.0,0.0,348.0,788.0,0.0,0,204.0,1
719,719,0.5140427620010516,0.5,1.0,1.0,450.0,758.0,1.0,1,122.0,1
720,720,-0.39957400219776096,-0.4,1.0,0.0,448.0,818.0,0.0,0,504.0,1
721,721,0.7799091868656131,0.8,1.0,1.0,250.0,534.0,1.0,1,316.0,1
722,722,0.1891670800055415,0.2,0.0,0.0,273.0,641.0,0.0,1,566.0,1
723,723,-0.24523431685070618,-0.2,0.0,1.0,481.0,775.0,1.0,0,354.0,1
724,724,0.8416513887030425,0.8,0.0,0.0,344.0,761.0,0.0,1,235.0,1
725,725,-0.21819596553070975,-0.2,1.0,0.0,394.0,741.0,0.0,0,645.0,1
726,726,0.4515760554025815,0.5,0.0,0.0,364.0,567.0,0.0,1,349.0,1
727,727,0.3148731542745139,0.3,1.0,1.0,403.0,856.0,1.0,1,281.0,1
728,728,-0.45733485477168373,-0.5,0.0,1.0,472.0,927.0,1.0,0,141.0,1
729,729,0.7597527552951934,0.8,0.0,0.0,344.0,663.0,0.0,1,383.0,1
730,730,0.7755224991528719,0.8,0.0,0.0,482.0,531.0,0.0,1,217.0,1
731,731,0.39339766973710677,0.4,0.0,0.0,341.0,558.0,0.0,1,581.0,1
732,732,-0.8349469496478946,-0.8,1.0,0.0,400.0,910.0,0.0,0,160.0,1
733,733,-0.08809002192131676,-0.1,0.0,1.0,360.0,509.0,1.0,0,1051.0,1
734,734,0.44182573294550587,0.4,1.0,1.0,393.0,963.0,1.0,1,224.0,1
735,735,0.1787711507849662,0.2,1.0,1.0,459.0,713.0,1.0,1,848.0,1
736,736,-0.28100363652309557,-0.3,0.0,1.0,482.0,805.0,1.0,0,233.0,1
737,737,0.5293431088494788,0.5,1.0,1.0,425.0,848.0,1.0,1,127.0,1
738,738,-0.6120274831309409,-0.6,0.0,1.0,332.0,973.0,1.0,0,135.0,1
739,739,0.6623325664380423,0.7,1.0,1.0,313.0,827.0,1.0,1,210.0,1
740,740,-0.5073970823626355,-0.5,0.0,1.0,326.0,992.0,1.0,0,202.0,1
741,741,0.49798826160275167,0.5,0.0,0.0,490.0,989.0,0.0,1,441.0,1
742,742,0.1862992704775387,0.2,0.0,0.0,271.0,824.0,0.0,1,845.0,1
743,743,0.0007661941936234484,0.0,1.0,1.0,443.0,844.0,1.0,1,293.0,1
744,744,-0.5705765534536644,-0.6,1.0,0.0,333.0,917.0,0.0,0,320.0,1
745,745,0.11515259820751134,0.1,1.0,1.0,340.0,727.0,1.0,1,333.0,1
746,746,-0.2768300121038244,-0.3,0.0,1.0,424.0,551.0,1.0,0,395.0,1
747,747,0.09740430851966109,0.1,1.0,1.0,277.0,689.0,1.0,1,854.0,1
748,748,0.16517468632282373,0.2,0.0,0.0,354.0,605.0,0.0,1,581.0,1
749,749,-0.03765578235966438,-0.0,0.0,1.0,376.0,787.0,1.0,0,1017.0,1
750,750,-0.41890318717444924,-0.4,1.0,0.0,486.0,704.0,0.0,0,310.0,1
751,751,-0.754749314768443,-0.8,0.0,1.0,370.0,992.0,1.0,0,58.0,1
752,752,0.24147884773193662,0.2,1.0,1.0,363.0,602.0,1.0,1,675.0,1
753,753,0.8870575267457635,0.9,0.0,0.0,263.0,950.0,0.0,1,257.0,1
754,754,0.012738532930406499,0.0,1.0,1.0,417.0,917.0,1.0,1,296.0,1
755,755,0.40116034394812716,0.4,1.0,1.0,367.0,800.0,1.0,1,173.0,1
756,756,-0.6917830873582973,-0.7,0.0,1.0,288.0,594.0,1.0,0,248.0,1
757,757,-0.013535868397244855,-0.0,1.0,0.0,272.0,960.0,1.0,1,258.0,0
758,758,0.3253064411294019,0.3,0.0,0.0,284.0,720.0,0.0,1,216.0,1
759,759,0.7069434484887996,0.7,1.0,1.0,322.0,754.0,1.0,1,104.0,1
760,760,-0.6264741629045789,-0.6,1.0,0.0,300.0,615.0,0.0,0,685.0,1
761,761,-0.7520242473046703,-0.8,0.0,1.0,284.0,964.0,1.0,0,32.0,1
762,762,-0.5459030254890185,-0.5,1.0,0.0,338.0,725.0,0.0,0,1937.0,1
763,763,-0.522098647248022,-0.5,0.0,1.0,395.0,679.0,1.0,0,426.0,1
764,764,-0.7562359841874527,-0.8,0.0,1.0,424.0,782.0,1.0,0,294.0,1
765,765,-0.22365459451690928,-0.2,1.0,0.0,286.0,793.0,0.0,0,541.0,1
766,766,0.638355548574805,0.6,0.0,0.0,251.0,593.0,0.0,1,386.0,1
767,767,0.20267881681356592,0.2,1.0,1.0,478.0,828.0,1.0,1,724.0,1
768,768,-0.5687718703559974,-0.6,0.0,1.0,255.0,753.0,1.0,0,322.0,1
769,769,0.19790321422146195,0.2,0.0,0.0,480.0,788.0,0.0,1,402.0,1
770,770,-0.15529969831715495,-0.2,1.0,0.0,326.0,564.0,0.0,0,1190.0,1
771,771,0.4525473369909482,0.5,0.0,0.0,259.0,764.0,0.0,1,257.0,1
772,772,0.5914871145630144,0.6,1.0,1.0,340.0,778.0,1.0,1,172.0,1
773,773,-0.6107868863389574,-0.6,1.0,0.0,438.0,711.0,0.0,0,251.0,1
774,774,0.13561224462626054,0.1,1.0,1.0,257.0,918.0,1.0,1,275.0,1
775,775,0.804992718801535,0.8,0.0,0.0,288.0,636.0,0.0,1,226.0,1
776,776,0.014514781060697701,0.0,1.0,1.0,457.0,656.0,1.0,1,1787.0,1
777,777,0.604617560855999,0.6,0.0,0.0,335.0,947.0,0.0,1,68.0,1
778,778,-0.22434332862219997,-0.2,0.0,1.0,344.0,533.0,1.0,0,623.0,1
779,779,0.7314327777309321,0.7,0.0,0.0,430.0,634.0,0.0,1,206.0,1
780,780,0.16219866496759294,0.2,1.0,1.0,421.0,872.0,1.0,1,247.0,1
781,781,-0.09576111640886376,-0.1,1.0,0.0,475.0,819.0,0.0,0,1706.0,1
782,782,-0.8878284331026436,-0.9,0.0,1.0,416.0,724.0,1.0,0,260.0,1
783,783,0.20601542059026123,0.2,0.0,0.0,472.0,821.0,0.0,1,577.0,1
784,784,-0.7521441821022345,-0.8,0.0,1.0,270.0,601.0,1.0,0,199.0,1
785,785,-0.5315427049657273,-0.5,1.0,0.0,494.0,641.0,0.0,0,1445.0,1
786,786,-0.21214173560271565,-0.2,0.0,1.0,382.0,930.0,1.0,0,448.0,1
787,787,-0.6265575897638946,-0.6,0.0,1.0,343.0,772.0,1.0,0,125.0,1
788,788,0.017217677097575934,0.0,1.0,1.0,467.0,581.0,1.0,1,1952.0,1
789,789,0.8355081453405161,0.8,1.0,1.0,478.0,762.0,1.0,1,170.0,1
790,790,-0.6025156210649276,-0.6,0.0,1.0,408.0,836.0,1.0,0,236.0,1
791,791,0.08859220726551065,0.1,1.0,1.0,278.0,899.0,1.0,1,443.0,1
792,792,-0.4387451792279447,-0.4,0.0,1.0,499.0,558.0,1.0,0,243.0,1
793,793,0.6183634952307132,0.6,1.0,1.0,499.0,524.0,1.0,1,347.0,1
794,794,-0.6433566197601737,-0.6,1.0,0.0,334.0,735.0,0.0,0,141.0,1
795,795,0.564202855662112,0.6,1.0,1.0,376.0,633.0,1.0,1,251.0,1
796,796,-0.30247284253227913,-0.3,0.0,1.0,355.0,599.0,1.0,0,216.0,1
797,797,-0.7903511495821656,-0.8,0.0,1.0,463.0,661.0,1.0,0,206.0,1
798,798,-0.15651506560549877,-0.2,1.0,0.0,332.0,759.0,0.0,0,449.0,1
799,799,-0.09850564762382585,-0.1,0.0,1.0,312.0,517.0,1.0,0,1031.0,1
800,800,0.7249124249665627,0.7,0.0,0.0,310.0,881.0,1.0,0,-61.0,0
801,801,-0.0517656411151014,-0.1,0.0,1.0,371.0,539.0,1.0,0,970.0,1
802,802,-0.8240101828765737,-0.8,1.0,0.0,393.0,511.0,0.0,0,166.0,1
803,803,0.08884699979442534,0.1,0.0,0.0,343.0,935.0,0.0,1,1722.0,1
804,804,-0.6158939407665918,-0.6,1.0,0.0,309.0,527.0,0.0,0,364.0,1
805,805,-0.6238837594882489,-0.6,1.0,0.0,460.0,885.0,0.0,0,495.0,1
806,806,0.5659400511098621,0.6,0.0,0.0,490.0,607.0,0.0,1,413.0,1
807,807,0.30027444056477604,0.3,1.0,1.0,312.0,919.0,1.0,1,379.0,1
808,808,0.002210002548586054,0.0,0.0,0.0,463.0,901.0,1.0,0,1636.0,0
809,809,0.17141358572941134,0.2,0.0,0.0,310.0,706.0,0.0,1,1354.0,1
810,810,-0.19231562208699327,-0.2,1.0,0.0,410.0,500.0,0.0,0,560.0,1
811,811,-0.8307881669926999,-0.8,1.0,0.0,350.0,553.0,0.0,0,257.0,1
812,812,-0.6751788450103301,-0.7,0.0,1.0,436.0,545.0,1.0,0,249.0,1
813,813,0.4539233453313848,0.5,1.0,1.0,407.0,698.0,1.0,1,135.0,1
814,814,-0.2773296378384188,-0.3,1.0,0.0,333.0,893.0,0.0,0,314.0,1
815,815,0.38814945051211713,0.4,0.0,0.0,445.0,729.0,0.0,1,756.0,1
816,816,0.532293081129856,0.5,0.0,0.0,472.0,821.0,0.0,1,147.0,1
817,817,0.35272144879610223,0.4,1.0,1.0,409.0,508.0,1.0,1,273.0,1
818,818,0.0691793646566311,0.1,0.0,0.0,263.0,562.0,0.0,1,415.0,1
819,819,-0.1923141735654783,-0.2,0.0,1.0,407.0,782.0,1.0,0,441.0,1
820,820,-0.05142091924735037,-0.1,1.0,0.0,315.0,809.0,1.0,1,1876.0,0
821,821,0.7878000873188894,0.8,1.0,1.0,492.0,777.0,1.0,1,191.0,1
822,822,-0.11148843613084158,-0.1,0.0,1.0,314.0,807.0,1.0,0,239.0,1
823,823,0.8496915062573435,0.8,0.0,0.0,412.0,727.0,0.0,1,381.0,1
824,824,-0.03606780011500654,-0.0,1.0,0.0,355.0,923.0,0.0,0,1722.0,1
825,825,0.584933514837345,0.6,1.0,1.0,334.0,857.0,1.0,1,249.0,1
826,826,0.2633528380706288,0.3,1.0,1.0,451.0,591.0,1.0,1,288.0,1
827,827,-0.6080406089840227,-0.6,0.0,1.0,268.0,615.0,1.0,0,357.0,1
828,828,0.78258224187332,0.8,1.0,1.0,353.0,611.0,1.0,1,276.0,1
829,829,-0.31477494853523913,-0.3,1.0,0.0,435.0,857.0,0.0,0,918.0,1
830,830,-0.6399033985345502,-0.6,1.0,0.0,386.0,819.0,0.0,0,725.0,1
831,831,-0.19201095261367507,-0.2,0.0,1.0,344.0,882.0,1.0,0,264.0,1
832,832,-0.855909869476162,-0.9,0.0,1.0,301.0,763.0,1.0,0,256.0,1
833,833,-0.16978997997094758,-0.2,0.0,1.0,272.0,723.0,1.0,0,1565.0,1
834,834,0.6789010456196726,0.7,1.0,1.0,402.0,855.0,1.0,1,183.0,1
835,835,-0.5603039266346662,-0.6,1.0,0.0,321.0,641.0,0.0,0,368.0,1
836,836,-0.7323308010109982,-0.7,0.0,1.0,338.0,847.0,1.0,0,165.0,1
837,837,-0.5585228229473947,-0.6,0.0,1.0,395.0,843.0,1.0,0,92.0,1
838,838,-0.4311957559158209,-0.4,0.0,1.0,326.0,971.0,1.0,0,153.0,1
839,839,-0.594666863983484,-0.6,0.0,1.0,427.0,979.0,1.0,0,254.0,1
840,840,0.5013429321926698,0.5,0.0,0.0,477.0,627.0,0.0,1,366.0,1
841,841,-0.23880624120562854,-0.2,1.0,0.0,350.0,636.0,0.0,0,904.0,1
842,842,-0.7854434158836199,-0.8,0.0,1.0,272.0,599.0,1.0,0,169.0,1
843,843,-0.3725760708918008,-0.4,1.0,0.0,338.0,937.0,0.0,0,455.0,1
844,844,-0.31480984201121653,-0.3,0.0,1.0,394.0,512.0,1.0,0,644.0,1
845,845,-0.8282362863330544,-0.8,0.0,1.0,494.0,930.0,1.0,0,256.0,1
846,846,0.2779494361485265,0.3,0.0,0.0,416.0,593.0,0.0,1,1021.0,1
847,847,0.4832120034524433,0.5,1.0,1.0,399.0,881.0,1.0,1,40.0,1
848,848,0.5388920016096864,0.5,0.0,0.0,436.0,550.0,0.0,1,294.0,1
849,849,0.5024492727867612,0.5,0.0,0.0,287.0,655.0,0.0,1,368.0,1
850,850,0.35499682040714087,0.4,0.0,0.0,267.0,886.0,0.0,1,227.0,1
851,851,0.13708418225205887,0.1,0.0,0.0,417.0,689.0,0.0,1,1664.0,1
852,852,-0.052384288004573065,-0.1,0.0,1.0,261.0,916.0,1.0,0,1673.0,1
853,853,-0.10413505921386901,-0.1,1.0,0.0,302.0,505.0,0.0,0,743.0,1
854,854,-0.7560902288691004,-0.8,1.0,0.0,452.0,666.0,0.0,0,332.0,1
855,855,-0.39763001364460404,-0.4,1.0,0.0,419.0,783.0,0.0,0,1248.0,1
856,856,-0.07944638274527194,-0.1,0.0,1.0,399.0,737.0,1.0,0,1864.0,1
857,857,-0.24527987709158572,-0.2,1.0,0.0,469.0,514.0,0.0,0,487.0,1
858,858,-0.13097894765943063,-0.1,1.0,0.0,250.0,745.0,0.0,0,2005.0,1
859,859,-0.6637460366085284,-0.7,1.0,0.0,256.0,913.0,0.0,0,121.0,1
860,860,0.22940771803498816,0.2,0.0,0.0,372.0,884.0,0.0,1,534.0,1
861,861,-0.8236325344860748,-0.8,0.0,1.0,307.0,557.0,1.0,0,206.0,1
862,862,0.893455198386755,0.9,1.0,1.0,444.0,944.0,1.0,1,182.0,1
863,863,-0.1950540463537973,-0.2,1.0,0.0,271.0,835.0,0.0,0,1034.0,1
864,864,0.23048866887266983,0.2,1.0,1.0,390.0,789.0,1.0,1,311.0,1
865,865,-0.02889639013521117,-0.0,0.0,1.0,411.0,580.0,0.0,1,2009.0,0
866,866,0.6968710513639106,0.7,1.0,1.0,312.0,910.0,1.0,1,138.0,1
867,867,-0.05241762852194498,-0.1,1.0,0.0,460.0,894.0,1.0,1,1646.0,0
868,868,0.08396308168061162,0.1,1.0,1.0,433.0,593.0,1.0,1,1174.0,1
869,869,-0.6747059600611542,-0.7,0.0,1.0,308.0,862.0,1.0,0,200.0,1
870,870,0.5896526912037451,0.6,0.0,0.0,497.0,823.0,0.0,1,230.0,1
871,871,0.25732436644723167,0.3,0.0,0.0,355.0,995.0,0.0,1,490.0,1
872,872,-0.24435501176390517,-0.2,0.0,1.0,382.0,927.0,1.0,0,411.0,1
873,873,0.5920876466904371,0.6,1.0,1.0,477.0,631.0,1.0,1,192.0,1
874,874,-0.6274370146921657,-0.6,0.0,1.0,491.0,820.0,1.0,0,449.0,1
875,875,-0.3319955530387093,-0.3,1.0,0.0,423.0,594.0,0.0,0,623.0,1
876,876,0.15632282587292134,0.2,0.0,0.0,256.0,868.0,0.0,1,1026.0,1
877,877,0.25798857549565757,0.3,0.0,0.0,354.0,875.0,0.0,1,711.0,1
878,878,-0.6242089158138542,-0.6,1.0,0.0,252.0,928.0,0.0,0,940.0,1
879,879,-0.7302965710102718,-0.7,1.0,0.0,459.0,802.0,0.0,0,339.0,1
880,880,0.39653173701166644,0.4,1.0,1.0,288.0,511.0,1.0,1,351.0,1
881,881,-0.010139200439251872,-0.0,0.0,1.0,295.0,684.0,1.0,0,691.0,1
882,882,0.23186163364074674,0.2,0.0,0.0,457.0,741.0,0.0,1,712.0,1
883,883,-0.09060576811510979,-0.1,0.0,1.0,472.0,735.0,1.0,0,363.0,1
884,884,-0.2627599352986525,-0.3,0.0,1.0,267.0,901.0,1.0,0,312.0,1
885,885,-0.47741057730075714,-0.5,1.0,0.0,407.0,916.0,0.0,0,247.0,1
886,886,0.6101756729817122,0.6,0.0,0.0,454.0,883.0,0.0,1,213.0,1
887,887,0.7890863572931696,0.8,0.0,0.0,366.0,579.0,0.0,1,375.0,1
888,888,0.24351779429427622,0.2,0.0,0.0,285.0,546.0,0.0,1,1769.0,1
889,889,0.6671228117021833,0.7,1.0,1.0,318.0,614.0,1.0,1,208.0,1
890,890,0.6572031660608139,0.7,0.0,0.0,308.0,659.0,0.0,1,273.0,1
891,891,0.4333596971731609,0.4,1.0,1.0,413.0,785.0,1.0,1,182.0,1
892,892,0.833917184449333,0.8,0.0,0.0,346.0,754.0,0.0,1,330.0,1
893,893,-0.8328317955234188,-0.8,1.0,0.0,334.0,957.0,0.0,0,109.0,1
894,894,0.7870366310836484,0.8,0.0,0.0,345.0,963.0,0.0,1,142.0,1
895,895,0.026882563744647037,0.0,1.0,1.0,433.0,983.0,1.0,1,1584.0,1
896,896,0.06083429343097857,0.1,0.0,0.0,324.0,809.0,0.0,1,1867.0,1
897,897,0.23647890289349027,0.2,1.0,1.0,491.0,959.0,1.0,1,440.0,1
898,898,-0.7043172759235329,-0.7,0.0,1.0,317.0,545.0,1.0,0,258.0,1
899,899,0.2208317869009232,0.2,0.0,0.0,379.0,569.0,0.0,1,522.0,1
900,900,-0.11722830876433488,-0.1,1.0,0.0,367.0,792.0,0.0,0,1611.0,1
901,901,0.33993722034018636,0.3,1.0,1.0,273.0,921.0,1.0,1,236.0,1
902,902,-0.7847773516230458,-0.8,0.0,1.0,275.0,857.0,1.0,0,288.0,1
903,903,-0.631480948748851,-0.6,1.0,0.0,465.0,719.0,0.0,0,456.0,1
904,904,-0.6792519444856344,-0.7,1.0,0.0,285.0,803.0,0.0,0,452.0,1
905,905,0.07875537337418215,0.1,0.0,0.0,254.0,697.0,1.0,0,2049.0,0
906,906,-0.7909393155637201,-0.8,0.0,1.0,449.0,924.0,1.0,0,227.0,1
907,907,0.16698246246492643,0.2,0.0,0.0,446.0,962.0,0.0,1,712.0,1
908,908,0.3545948327094096,0.4,0.0,0.0,403.0,878.0,0.0,1,99.0,1
909,909,0.4575309389849046,0.5,0.0,0.0,446.0,704.0,0.0,1,400.0,1
910,910,-0.22936495176815752,-0.2,1.0,0.0,250.0,951.0,0.0,0,209.0,1
911,911,0.35261301203156725,0.4,1.0,1.0,472.0,967.0,1.0,1,291.0,1
912,912,0.20302714012915868,0.2,1.0,1.0,343.0,865.0,1.0,1,542.0,1
913,913,0.4691234137754202,0.5,0.0,0.0,474.0,854.0,0.0,1,52.0,1
914,914,0.35126748244227446,0.4,1.0,1.0,378.0,812.0,1.0,1,270.0,1
915,915,-0.2360552912485565,-0.2,1.0,0.0,479.0,551.0,0.0,0,450.0,1
916,916,0.003113413441235613,0.0,0.0,0.0,282.0,500.0,1.0,0,2218.0,0
917,917,0.3100628413432943,0.3,0.0,0.0,418.0,983.0,0.0,1,479.0,1
918,918,-0.5682911614356196,-0.6,0.0,1.0,280.0,929.0,1.0,0,391.0,1
919,919,0.7793426729542549,0.8,1.0,1.0,312.0,867.0,1.0,1,131.0,1
920,920,-0.6501449215604133,-0.7,0.0,1.0,480.0,668.0,1.0,0,322.0,1
921,921,-0.27671940030784536,-0.3,1.0,0.0,449.0,554.0,0.0,0,1637.0,1
922,922,-0.0067729269571558115,-0.0,1.0,0.0,437.0,809.0,1.0,1,134.0,0
923,923,-0.42251386569088295,-0.4,1.0,0.0,363.0,705.0,0.0,0,1262.0,1
924,924,0.7161631873250235,0.7,0.0,0.0,395.0,843.0,0.0,1,132.0,1
925,925,0.2755400101016109,0.3,1.0,1.0,396.0,889.0,1.0,1,335.0,1
926,926,0.22852630003640184,0.2,0.0,0.0,300.0,972.0,0.0,1,318.0,1
927,927,-0.8387485431471139,-0.8,1.0,0.0,306.0,860.0,0.0,0,164.0,1
928,928,-0.19616255811009042,-0.2,0.0,1.0,330.0,779.0,1.0,0,671.0,1
929,929,0.16173068405132407,0.2,0.0,0.0,375.0,899.0,0.0,1,466.0,1
930,930,0.0016570616289418583,0.0,0.0,0.0,448.0,597.0,1.0,0,1565.0,0
931,931,0.3439991780994195,0.3,1.0,1.0,411.0,966.0,1.0,1,83.0,1
932,932,0.15589604861641948,0.2,1.0,1.0,409.0,808.0,1.0,1,583.0,1
933,933,-0.1299445278652135,-0.1,1.0,0.0,336.0,768.0,1.0,1,836.0,0
934,934,0.535289077169996,0.5,0.0,0.0,353.0,867.0,0.0,1,160.0,1
935,935,0.8546705663340256,0.9,1.0,1.0,255.0,966.0,1.0,1,109.0,1
936,936,-0.3534458813302347,-0.4,0.0,1.0,388.0,757.0,1.0,0,485.0,1
937,937,0.3264338228119773,0.3,1.0,1.0,423.0,916.0,1.0,1,291.0,1
938,938,-0.30761360756565925,-0.3,0.0,1.0,454.0,507.0,1.0,0,869.0,1
939,939,-0.0870040263616555,-0.1,0.0,1.0,480.0,789.0,1.0,0,521.0,1
940,940,0.4230005132286606,0.4,1.0,1.0,255.0,968.0,1.0,1,347.0,1
941,941,0.2730248646640244,0.3,0.0,0.0,495.0,520.0,0.0,1,565.0,1
942,942,-0.04851591186721804,-0.0,1.0,0.0,313.0,924.0,1.0,1,783.0,0
943,943,0.2996031505789446,0.3,0.0,0.0,266.0,620.0,0.0,1,664.0,1
944,944,0.1655597957179259,0.2,1.0,1.0,346.0,760.0,1.0,1,474.0,1
945,945,-0.824516490402409,-0.8,0.0,1.0,472.0,667.0,1.0,0,171.0,1
946,946,0.8673171032734354,0.9,0.0,0.0,405.0,944.0,0.0,1,121.0,1
947,947,-0.5460398137276565,-0.5,0.0,1.0,308.0,890.0,1.0,0,292.0,1
948,948,0.6186679667635867,0.6,1.0,1.0,436.0,874.0,1.0,1,200.0,1
949,949,-0.23863199358776244,-0.2,1.0,0.0,324.0,669.0,0.0,0,587.0,1
950,950,0.10024326981050458,0.1,0.0,0.0,284.0,768.0,0.0,1,988.0,1
951,951,0.7852476188101355,0.8,0.0,0.0,270.0,581.0,0.0,1,209.0,1
952,952,-0.36307066458986037,-0.4,1.0,0.0,344.0,738.0,0.0,0,368.0,1
953,953,0.1708967833028877,0.2,1.0,1.0,465.0,857.0,1.0,1,598.0,1
954,954,0.042724708932200484,0.0,0.0,0.0,425.0,855.0,0.0,1,1720.0,1
955,955,-0.37520378054602566,-0.4,1.0,0.0,437.0,544.0,0.0,0,439.0,1
956,956,0.3595250734099097,0.4,0.0,0.0,441.0,988.0,0.0,1,261.0,1
957,957,0.2638295263818654,0.3,1.0,1.0,475.0,632.0,1.0,1,323.0,1
958,958,-0.7179945663289858,-0.7,0.0,1.0,379.0,950.0,1.0,0,251.0,1
959,959,0.13509766809477497,0.1,0.0,0.0,310.0,981.0,0.0,1,369.0,1
960,960,-0.056200675823323,-0.1,1.0,0.0,439.0,624.0,0.0,0,1067.0,1
961,961,0.3022689615323103,0.3,0.0,0.0,409.0,676.0,0.0,1,365.0,1
962,962,0.49124723460381803,0.5,1.0,1.0,416.0,788.0,1.0,1,466.0,1
963,963,-0.10334539996941716,-0.1,1.0,0.0,275.0,831.0,0.0,0,204.0,1
964,964,0.2834988064250451,0.3,0.0,0.0,387.0,840.0,0.0,1,343.0,1
965,965,-0.8800005046351758,-0.9,1.0,0.0,411.0,740.0,0.0,0,569.0,1
966,966,-0.6411977059727548,-0.6,0.0,1.0,315.0,891.0,1.0,0,184.0,1
967,967,-0.2046874685922092,-0.2,0.0,1.0,339.0,617.0,1.0,0,394.0,1
968,968,0.17558176987805363,0.2,0.0,0.0,461.0,913.0,0.0,1,436.0,1
969,969,0.4572649017845388,0.5,1.0,1.0,344.0,659.0,1.0,1,337.0,1
970,970,0.16588834993490476,0.2,0.0,0.0,417.0,514.0,0.0,1,1079.0,1
971,971,-0.3114074805947381,-0.3,1.0,0.0,417.0,704.0,0.0,0,499.0,1
972,972,0.6537371924080227,0.7,0.0,0.0,494.0,685.0,0.0,1,151.0,1
973,973,0.8373677076530778,0.8,0.0,0.0,490.0,668.0,0.0,1,312.0,1
974,974,0.6456025792092838,0.6,0.0,0.0,457.0,619.0,0.0,1,324.0,1
975,975,-0.30330572285782675,-0.3,0.0,1.0,306.0,830.0,1.0,0,184.0,1
976,976,0.4165917837977998,0.4,1.0,1.0,299.0,645.0,1.0,1,276.0,1
977,977,0.1031403245268937,0.1,1.0,1.0,324.0,656.0,1.0,1,2020.0,1
978,978,-0.5498554628562049,-0.5,0.0,1.0,473.0,924.0,1.0,0,443.0,1
979,979,-0.8835404506656896,-0.9,1.0,0.0,305.0,719.0,0.0,0,456.0,1
980,980,0.6416045655159984,0.6,1.0,1.0,336.0,815.0,1.0,1,209.0,1
981,981,0.5265679581869075,0.5,0.0,0.0,339.0,708.0,0.0,1,183.0,1
982,982,-0.5525576470269529,-0.6,0.0,1.0,332.0,940.0,1.0,0,438.0,1
983,983,0.533937239847419,0.5,1.0,1.0,264.0,629.0,1.0,1,247.0,1
984,984,-0.19979416637812886,-0.2,0.0,1.0,271.0,531.0,1.0,0,1178.0,1
985,985,-0.725532745075797,-0.7,0.0,1.0,470.0,910.0,1.0,0,110.0,1
986,986,-0.6989918240975521,-0.7,1.0,0.0,355.0,711.0,0.0,0,474.0,1
987,987,0.3369886906068996,0.3,0.0,0.0,255.0,781.0,0.0,1,744.0,1
988,988,-0.34195368955428385,-0.3,0.0,1.0,305.0,900.0,1.0,0,335.0,1
989,989,-0.7819035829251277,-0.8,0.0,1.0,420.0,883.0,1.0,0,147.0,1
990,990,-0.3420987614496862,-0.3,1.0,0.0,487.0,942.0,0.0,0,491.0,1
991,991,0.6073728454026651,0.6,0.0,0.0,371.0,710.0,0.0,1,129.0,1
992,992,-0.5173626211411532,-0.5,1.0,0.0,427.0,972.0,0.0,0,391.0,1
993,993,0.04761138280745825,0.0,1.0,1.0,421.0,946.0,0.0,0,1633.0,0
994,994,-0.015284134388800497,-0.0,1.0,0.0,461.0,970.0,1.0,1,1569.0,0
995,995,0.4239384849609752,0.4,0.0,0.0,422.0,758.0,0.0,1,370.0,1
996,996,0.0443144804270601,0.0,0.0,0.0,291.0,550.0,0.0,1,2159.0,1
997,997,-0.2974197650659476,-0.3,1.0,0.0,285.0,561.0,0.0,0,404.0,1
998,998,0.3579648416851039,0.4,1.0,1.0,424.0,776.0,1.0,1,250.0,1
999,999,0.07073534528309133,0.1,1.0,1.0,358.0,744.0,1.0,1,1898.0,1
1000,1000,0.8235613665799594,0.8,0.0,0.0,261.0,859.0,0.0,1,130.0,1
1001,1001,0.17898380039684747,0.2,0.0,0.0,359.0,501.0,0.0,1,750.0,1
1002,1002,0.26051137090831944,0.3,1.0,1.0,446.0,709.0,1.0,1,335.0,1
1003,1003,-0.3801029687310117,-0.4,0.0,1.0,480.0,918.0,1.0,0,242.0,1
1004,1004,0.3519694388760851,0.4,1.0,1.0,265.0,987.0,1.0,1,368.0,1
1005,1005,-0.5995626127144666,-0.6,1.0,0.0,290.0,515.0,0.0,0,615.0,1
1006,1006,0.4579561622557039,0.5,0.0,0.0,376.0,699.0,0.0,1,245.0,1
1007,1007,0.09900913737669659,0.1,1.0,1.0,457.0,549.0,1.0,1,1994.0,1
1008,1008,0.7868631185548979,0.8,1.0,1.0,478.0,649.0,1.0,1,273.0,1
1009,1009,0.013086410435633855,0.0,1.0,1.0,334.0,903.0,1.0,1,223.0,1
1010,1010,0.44615285662367155,0.4,1.0,1.0,456.0,588.0,1.0,1,316.0,1
1011,1011,0.24157341553540868,0.2,0.0,0.0,401.0,914.0,0.0,1,335.0,1
1012,1012,0.22101825648543116,0.2,0.0,0.0,400.0,653.0,0.0,1,1357.0,1
1013,1013,-0.7443378835775305,-0.7,0.0,1.0,321.0,527.0,1.0,0,222.0,1
1014,1014,-0.30414654324324786,-0.3,0.0,1.0,330.0,951.0,1.0,0,219.0,1
1015,1015,0.5930260980096714,0.6,1.0,1.0,292.0,596.0,1.0,1,322.0,1
1016,1016,0.6922460980685284,0.7,0.0,0.0,277.0,894.0,0.0,1,169.0,1
1017,1017,0.4057745318325471,0.4,1.0,1.0,252.0,660.0,1.0,1,508.0,1
1018,1018,-0.790020393883872,-0.8,0.0,1.0,345.0,699.0,1.0,0,236.0,1
1019,1019,-0.6092378537150493,-0.6,0.0,1.0,415.0,608.0,1.0,0,197.0,1
1020,1020,-0.6917497868875537,-0.7,0.0,1.0,348.0,847.0,1.0,0,125.0,1
1021,1021,-0.7566415880125815,-0.8,1.0,0.0,356.0,998.0,0.0,0,176.0,1
1022,1022,0.28295788998408555,0.3,0.0,0.0,271.0,989.0,0.0,1,270.0,1
1023,1023,0.5949933862098374,0.6,0.0,0.0,261.0,734.0,0.0,1,135.0,1
1024,1024,-0.6080005120731651,-0.6,0.0,1.0,421.0,627.0,1.0,0,322.0,1
1025,1025,-0.48450336994733,-0.5,0.0,1.0,440.0,768.0,1.0,0,182.0,1
1026,1026,0.7283577594794716,0.7,0.0,0.0,343.0,801.0,0.0,1,136.0,1
1027,1027,0.8937172467365656,0.9,1.0,1.0,325.0,528.0,1.0,1,127.0,1
1028,1028,-0.007056890792919934,-0.0,1.0,0.0,465.0,739.0,1.0,1,1596.0,0
1029,1029,-0.010094172946789048,-0.0,0.0,1.0,463.0,698.0,1.0,0,1839.0,1
1030,1030,0.5609090763789001,0.6,0.0,0.0,282.0,647.0,0.0,1,261.0,1
1031,1031,-0.3000059024014131,-0.3,0.0,1.0,309.0,827.0,1.0,0,524.0,1
1032,1032,-0.2611456881207965,-0.3,1.0,0.0,253.0,607.0,0.0,0,850.0,1
1033,1033,0.46011414012549057,0.5,1.0,1.0,420.0,770.0,1.0,1,140.0,1
1034,1034,0.5720218699353036,0.6,0.0,0.0,467.0,983.0,0.0,1,150.0,1
1035,1035,-0.31526934053379263,-0.3,1.0,0.0,268.0,581.0,0.0,0,851.0,1
1036,1036,0.3564157190220366,0.4,0.0,0.0,488.0,674.0,0.0,1,358.0,1
1037,1037,-0.7268556569754676,-0.7,1.0,0.0,290.0,922.0,0.0,0,308.0,1
1038,1038,0.10035682146190583,0.1,1.0,1.0,374.0,832.0,1.0,1,614.0,1
1039,1039,-0.5801919664634678,-0.6,0.0,1.0,277.0,724.0,1.0,0,339.0,1
1040,1040,-0.37404179842994256,-0.4,1.0,0.0,325.0,562.0,0.0,0,883.0,1
1041,1041,0.665851220413486,0.7,1.0,1.0,420.0,540.0,1.0,1,290.0,1
1042,1042,-0.2552202734890088,-0.3,1.0,0.0,316.0,645.0,0.0,0,859.0,1
1043,1043,-0.6881391726704723,-0.7,0.0,1.0,403.0,739.0,1.0,0,128.0,1
1044,1044,0.8586088835714042,0.9,0.0,0.0,479.0,677.0,0.0,1,204.0,1
1045,1045,0.14822155379733604,0.1,0.0,0.0,445.0,566.0,0.0,1,569.0,1
1046,1046,-0.8187673577803194,-0.8,0.0,1.0,253.0,897.0,1.0,0,250.0,1
1047,1047,0.4112000681872071,0.4,1.0,1.0,444.0,719.0,1.0,1,247.0,1
1048,1048,-0.2252273279491117,-0.2,0.0,1.0,397.0,873.0,1.0,0,310.0,1
1049,1049,-0.6545579861983708,-0.7,0.0,1.0,272.0,602.0,1.0,0,316.0,1
1050,1050,0.34418902421987607,0.3,1.0,1.0,403.0,586.0,1.0,1,291.0,1
1051,1051,-0.7085329913584602,-0.7,0.0,1.0,464.0,618.0,1.0,0,338.0,1
1052,1052,-0.24617262574573384,-0.2,1.0,0.0,259.0,829.0,0.0,0,172.0,1
1053,1053,0.5778299842241729,0.6,1.0,1.0,330.0,631.0,1.0,1,189.0,1
1054,1054,-0.5575470068440609,-0.6,0.0,1.0,352.0,705.0,1.0,0,313.0,1
1055,1055,0.5115252875808957,0.5,1.0,1.0,436.0,999.0,1.0,1,305.0,1
1056,1056,-0.23014210292218407,-0.2,0.0,1.0,298.0,937.0,1.0,0,465.0,1
1057,1057,-0.21354629929099966,-0.2,0.0,1.0,336.0,576.0,1.0,0,488.0,1
1058,1058,-0.5569254433851587,-0.6,1.0,0.0,332.0,686.0,0.0,0,262.0,1
1059,1059,-0.4151915066608159,-0.4,1.0,0.0,354.0,995.0,0.0,0,401.0,1
1060,1060,-0.12922886922513732,-0.1,1.0,0.0,421.0,719.0,0.0,0,460.0,1
1061,1061,0.04397024762200097,0.0,0.0,0.0,300.0,638.0,1.0,0,2062.0,0
1062,1062,-0.1938913280531741,-0.2,1.0,0.0,353.0,813.0,0.0,0,1834.0,1
1063,1063,0.05701825801851457,0.1,0.0,0.0,366.0,633.0,0.0,1,2001.0,1
1064,1064,0.7225807342124696,0.7,0.0,0.0,406.0,770.0,0.0,1,204.0,1
1065,1065,0.43060150329328983,0.4,1.0,1.0,356.0,836.0,1.0,1,338.0,1
1066,1066,0.31879260288552247,0.3,0.0,0.0,250.0,700.0,0.0,1,740.0,1
1067,1067,0.3354307120318697,0.3,1.0,1.0,389.0,679.0,1.0,1,662.0,1
1068,1068,-0.37488316506401653,-0.4,1.0,0.0,411.0,987.0,0.0,0,12.0,1
1069,1069,-0.5941625186478441,-0.6,0.0,1.0,458.0,694.0,1.0,0,188.0,1
1070,1070,0.08412170880061609,0.1,0.0,0.0,458.0,989.0,0.0,1,1503.0,1
1071,1071,0.5413040514074287,0.5,1.0,1.0,281.0,599.0,1.0,1,390.0,1
1072,1072,-0.3823931564867046,-0.4,1.0,0.0,385.0,960.0,0.0,0,165.0,1
1073,1073,-0.21691416375646055,-0.2,1.0,0.0,443.0,630.0,0.0,0,667.0,1
1074,1074,0.14154707084030538,0.1,1.0,1.0,499.0,667.0,1.0,1,454.0,1
1075,1075,0.8429623892718187,0.8,0.0,0.0,416.0,577.0,0.0,1,207.0,1
1076,1076,0.7178084749861445,0.7,0.0,0.0,413.0,696.0,0.0,1,511.0,1
1077,1077,-0.07376270806503904,-0.1,1.0,0.0,256.0,567.0,0.0,0,2177.0,1
1078,1078,0.7953848956393906,0.8,0.0,0.0,474.0,866.0,0.0,1,150.0,1
1079,1079,-0.21504783442989195,-0.2,0.0,1.0,400.0,518.0,1.0,0,392.0,1
1080,1080,0.8101713604201884,0.8,0.0,0.0,257.0,590.0,0.0,1,213.0,1
1081,1081,-0.3365277536497462,-0.3,0.0,1.0,462.0,815.0,1.0,0,323.0,1
1082,1082,-0.7729256245354097,-0.8,0.0,1.0,494.0,958.0,1.0,0,168.0,1
1083,1083,0.0037691433409275943,0.0,1.0,1.0,429.0,631.0,1.0,1,1940.0,1
1084,1084,-0.02917506124912106,-0.0,0.0,1.0,425.0,721.0,0.0,1,424.0,0
1085,1085,0.839172728789375,0.8,0.0,0.0,312.0,563.0,0.0,1,255.0,1
1086,1086,-0.7225210544329967,-0.7,0.0,1.0,458.0,614.0,1.0,0,348.0,1
1087,1087,-0.45151660435831653,-0.5,1.0,0.0,443.0,655.0,0.0,0,1142.0,1
1088,1088,0.8872981574595903,0.9,1.0,1.0,498.0,962.0,1.0,1,80.0,1
1089,1089,0.7408714862701226,0.7,1.0,1.0,441.0,620.0,1.0,1,169.0,1
1090,1090,0.06727514059474893,0.1,0.0,0.0,306.0,685.0,0.0,1,849.0,1
1091,1091,0.33795580567107353,0.3,0.0,0.0,262.0,579.0,0.0,1,209.0,1
1092,1092,0.8837158424248289,0.9,1.0,1.0,300.0,543.0,1.0,1,327.0,1
1093,1093,-0.4247805359067424,-0.4,1.0,0.0,326.0,693.0,0.0,0,211.0,1
1094,1094,0.5362790404104164,0.5,0.0,0.0,431.0,586.0,0.0,1,643.0,1
1095,1095,-0.5749550083202757,-0.6,0.0,1.0,321.0,690.0,1.0,0,179.0,1
1096,1096,-0.6057434043661085,-0.6,1.0,0.0,290.0,977.0,0.0,0,403.0,1
1097,1097,0.4807140123201733,0.5,1.0,1.0,264.0,653.0,1.0,1,313.0,1
1098,1098,0.7966719395497343,0.8,1.0,1.0,262.0,906.0,1.0,1,202.0,1
1099,1099,-0.19625396047824484,-0.2,1.0,0.0,374.0,991.0,0.0,0,915.0,1
1100,1100,-0.7920606782229839,-0.8,1.0,0.0,483.0,941.0,0.0,0,86.0,1
1101,1101,-0.11579376734760305,-0.1,1.0,0.0,254.0,666.0,0.0,0,2080.0,1
1102,1102,-0.18523483215609693,-0.2,0.0,1.0,479.0,588.0,1.0,0,443.0,1
1103,1103,-0.34929566560946645,-0.3,1.0,0.0,385.0,616.0,0.0,0,909.0,1
1104,1104,0.44849217658847984,0.4,0.0,0.0,397.0,644.0,0.0,1,499.0,1
1105,1105,-0.8570202231332971,-0.9,1.0,0.0,479.0,845.0,0.0,0,876.0,1
1106,1106,-0.02596493474170969,-0.0,1.0,0.0,406.0,532.0,1.0,1,2062.0,0
1107,1107,0.6712119806589746,0.7,1.0,1.0,383.0,896.0,1.0,1,111.0,1
1108,1108,0.8302147175340789,0.8,1.0,1.0,454.0,500.0,1.0,1,206.0,1
1109,1109,0.46101123758809426,0.5,1.0,1.0,256.0,986.0,1.0,1,268.0,1
1110,1110,-0.304202877719999,-0.3,0.0,1.0,276.0,817.0,1.0,0,547.0,1
1111,1111,-0.7521747403648782,-0.8,0.0,1.0,315.0,887.0,1.0,0,168.0,1
1112,1112,0.8187814891917754,0.8,0.0,0.0,434.0,830.0,0.0,1,146.0,1
1113,1113,-0.2841895232921501,-0.3,0.0,1.0,399.0,776.0,1.0,0,345.0,1
1114,1114,-0.3060600365278836,-0.3,0.0,1.0,494.0,650.0,1.0,0,306.0,1
1115,1115,0.8983608237669792,0.9,1.0,1.0,472.0,941.0,1.0,1,117.0,1
1116,1116,0.44764255441090517,0.4,0.0,0.0,374.0,744.0,0.0,1,232.0,1
1117,1117,0.569153129308268,0.6,1.0,1.0,459.0,643.0,1.0,1,148.0,1
1118,1118,0.18467470870186997,0.2,1.0,1.0,270.0,671.0,1.0,1,599.0,1
1119,1119,0.005145889994366382,0.0,0.0,0.0,261.0,582.0,1.0,0,2157.0,0
1120,1120,0.09094472608383608,0.1,1.0,1.0,351.0,818.0,1.0,1,1741.0,1
1121,1121,-0.2820412016212235,-0.3,0.0,1.0,351.0,953.0,1.0,0,366.0,1
1122,1122,0.08021853375135424,0.1,1.0,1.0,444.0,746.0,1.0,1,720.0,1
1123,1123,0.33036111376069666,0.3,0.0,0.0,386.0,572.0,0.0,1,212.0,1
1124,1124,-0.5078754286253493,-0.5,1.0,0.0,283.0,882.0,0.0,0,315.0,1
1125,1125,0.3349719169149118,0.3,0.0,0.0,380.0,608.0,0.0,1,452.0,1
1126,1126,-0.801859778681854,-0.8,0.0,1.0,296.0,547.0,1.0,0,287.0,1
1127,1127,0.4151571956492245,0.4,1.0,1.0,286.0,616.0,1.0,1,268.0,1
1128,1128,-0.5494287784694283,-0.5,0.0,1.0,318.0,516.0,1.0,0,416.0,1
1129,1129,0.7017556232181751,0.7,0.0,0.0,483.0,722.0,0.0,1,155.0,1
1130,1130,0.051447694412759204,0.1,1.0,1.0,381.0,862.0,1.0,1,527.0,1
1131,1131,0.10698861718993646,0.1,1.0,1.0,372.0,514.0,1.0,1,614.0,1
1132,1132,-0.5275196364761365,-0.5,1.0,0.0,482.0,851.0,0.0,0,557.0,1
1133,1133,0.1986565298999342,0.2,0.0,0.0,357.0,524.0,0.0,1,839.0,1
1134,1134,-0.8009046474321152,-0.8,0.0,1.0,365.0,589.0,1.0,0,336.0,1
1135,1135,-0.37542238096601654,-0.4,0.0,1.0,275.0,613.0,1.0,0,422.0,1
1136,1136,-0.5859482962235271,-0.6,1.0,0.0,407.0,609.0,0.0,0,354.0,1
1137,1137,0.23828372937720943,0.2,0.0,0.0,311.0,646.0,0.0,1,803.0,1
1138,1138,0.14638314317547063,0.1,0.0,0.0,292.0,990.0,0.0,1,758.0,1
1139,1139,0.46521200540403485,0.5,1.0,1.0,253.0,650.0,1.0,1,437.0,1
1140,1140,0.8245340168597856,0.8,1.0,1.0,265.0,536.0,1.0,1,169.0,1
1141,1141,-0.2925311935917756,-0.3,1.0,0.0,428.0,992.0,0.0,0,170.0,1
1142,1142,-0.6687080829706453,-0.7,1.0,0.0,323.0,878.0,0.0,0,159.0,1
1143,1143,-0.8067691067809948,-0.8,0.0,1.0,406.0,767.0,1.0,0,267.0,1
1144,1144,0.2929103328859378,0.3,0.0,0.0,370.0,527.0,0.0,1,853.0,1
1145,1145,0.43551362956836803,0.4,0.0,0.0,415.0,664.0,0.0,1,171.0,1
1146,1146,-0.14722511574964992,-0.1,1.0,0.0,270.0,542.0,0.0,0,2188.0,1
1147,1147,0.7069059337697668,0.7,0.0,0.0,422.0,727.0,0.0,1,201.0,1
1148,1148,0.17037071490857147,0.2,1.0,1.0,387.0,541.0,1.0,1,432.0,1
1149,1149,-0.2729601406414731,-0.3,0.0,1.0,269.0,833.0,1.0,0,148.0,1
1150,1150,0.48650492071590856,0.5,1.0,1.0,463.0,586.0,1.0,1,321.0,1
1151,1151,0.18381373492325526,0.2,1.0,1.0,287.0,736.0,1.0,1,377.0,1
1152,1152,-0.46604071209288606,-0.5,0.0,1.0,371.0,751.0,1.0,0,538.0,1
1153,1153,-0.3841077183123216,-0.4,0.0,1.0,412.0,597.0,1.0,0,521.0,1
1154,1154,0.10372376682383211,0.1,0.0,0.0,379.0,956.0,0.0,1,1335.0,1
1155,1155,-0.25968031395413926,-0.3,0.0,1.0,342.0,752.0,1.0,0,656.0,1
1156,1156,-0.7621560077802483,-0.8,0.0,1.0,410.0,844.0,1.0,0,376.0,1
1157,1157,-0.31523027333179876,-0.3,1.0,0.0,373.0,901.0,0.0,0,716.0,1
1158,1158,-0.1691774394033687,-0.2,1.0,0.0,487.0,704.0,0.0,0,1719.0,1
1159,1159,0.43793372437180234,0.4,1.0,1.0,318.0,610.0,1.0,1,332.0,1
1160,1160,0.009038167667438812,0.0,1.0,1.0,314.0,549.0,0.0,0,2137.0,0
1161,1161,-0.3725313119763116,-0.4,0.0,1.0,293.0,667.0,1.0,0,480.0,1
1162,1162,0.18153717090168808,0.2,0.0,0.0,435.0,884.0,0.0,1,431.0,1
1163,1163,-0.42409650744495525,-0.4,0.0,1.0,390.0,994.0,1.0,0,716.0,1
1164,1164,-0.6112079599595258,-0.6,0.0,1.0,352.0,844.0,1.0,0,74.0,1
1165,1165,0.47874171899381224,0.5,0.0,0.0,405.0,797.0,0.0,1,468.0,1
1166,1166,0.8542055019557656,0.9,0.0,0.0,489.0,724.0,0.0,1,307.0,1
1167,1167,-0.6200852371688714,-0.6,1.0,0.0,348.0,532.0,0.0,0,340.0,1
1168,1168,-0.8716184269732157,-0.9,1.0,0.0,388.0,604.0,0.0,0,858.0,1
1169,1169,0.5062851160023444,0.5,0.0,0.0,349.0,712.0,0.0,1,329.0,1
1170,1170,0.2765334613482816,0.3,1.0,1.0,365.0,974.0,1.0,1,431.0,1
1171,1171,0.2781619739164022,0.3,1.0,1.0,368.0,693.0,1.0,1,289.0,1
1172,1172,0.7928871124931723,0.8,0.0,0.0,491.0,949.0,0.0,1,290.0,1
1173,1173,0.89690213499251,0.9,0.0,0.0,272.0,686.0,0.0,1,332.0,1
1174,1174,0.09123641221243817,0.1,0.0,0.0,277.0,967.0,0.0,1,1756.0,1
1175,1175,0.49180157803033275,0.5,1.0,1.0,455.0,554.0,1.0,1,341.0,1
1176,1176,-0.8045147170226089,-0.8,0.0,1.0,255.0,680.0,1.0,0,215.0,1
1177,1177,-0.4707737733446873,-0.5,0.0,1.0,298.0,681.0,1.0,0,201.0,1
1178,1178,-0.6352354863915224,-0.6,1.0,0.0,278.0,606.0,0.0,0,366.0,1
1179,1179,-0.7449848875260501,-0.7,0.0,1.0,359.0,572.0,1.0,0,139.0,1
1180,1180,-0.08734912008209095,-0.1,0.0,1.0,406.0,974.0,1.0,0,1530.0,1
1181,1181,0.6062448067571992,0.6,0.0,0.0,284.0,979.0,0.0,1,207.0,1
1182,1182,0.2364909255428701,0.2,0.0,0.0,457.0,688.0,0.0,1,665.0,1
1183,1183,0.5239392915789401,0.5,0.0,0.0,331.0,797.0,0.0,1,502.0,1
1184,1184,0.7041718361218988,0.7,0.0,0.0,278.0,997.0,0.0,1,175.0,1
1185,1185,0.8970481423057702,0.9,0.0,0.0,385.0,932.0,0.0,1,123.0,1
1186,1186,0.777423456974314,0.8,1.0,1.0,416.0,709.0,1.0,1,155.0,1
1187,1187,0.7932313208416583,0.8,0.0,0.0,346.0,733.0,0.0,1,531.0,1
1188,1188,0.5330934331549636,0.5,0.0,0.0,407.0,664.0,0.0,1,139.0,1
1189,1189,-0.30914664533825353,-0.3,1.0,0.0,384.0,972.0,0.0,0,254.0,1
1190,1190,0.541325826702236,0.5,1.0,1.0,358.0,837.0,1.0,1,265.0,1
1191,1191,-0.8860076670056398,-0.9,0.0,1.0,342.0,557.0,1.0,0,311.0,1
1192,1192,0.3465180341724069,0.3,1.0,1.0,304.0,661.0,1.0,1,565.0,1
1193,1193,-0.7463304763323895,-0.7,1.0,0.0,460.0,638.0,0.0,0,132.0,1
1194,1194,-0.15825325100681087,-0.2,0.0,1.0,254.0,509.0,1.0,0,657.0,1
1195,1195,0.23946944335510223,0.2,1.0,1.0,257.0,856.0,1.0,1,397.0,1
1196,1196,-0.098739446170099,-0.1,1.0,0.0,496.0,813.0,0.0,0,1061.0,1
1197,1197,0.8666106330140587,0.9,0.0,0.0,409.0,610.0,0.0,1,111.0,1
1198,1198,0.2640711692050254,0.3,0.0,0.0,483.0,737.0,0.0,1,550.0,1
1199,1199,-0.23841415459214488,-0.2,1.0,0.0,388.0,957.0,0.0,0,905.0,1
1200,1200,-0.2322098857999363,-0.2,1.0,0.0,436.0,862.0,0.0,0,472.0,1
1201,1201,-0.4303336365710286,-0.4,0.0,1.0,421.0,804.0,1.0,0,185.0,1
1202,1202,-0.8107896204694177,-0.8,1.0,0.0,286.0,591.0,0.0,0,723.0,1
1203,1203,0.674250792612998,0.7,1.0,1.0,479.0,837.0,1.0,1,234.0,1
1204,1204,0.4703498783118282,0.5,1.0,1.0,490.0,704.0,1.0,1,206.0,1
1205,1205,-0.4668904170381132,-0.5,1.0,0.0,361.0,994.0,0.0,0,135.0,1
1206,1206,-0.6924124194069813,-0.7,1.0,0.0,301.0,973.0,0.0,0,116.0,1
1207,1207,-0.24200175213720754,-0.2,0.0,1.0,494.0,669.0,1.0,0,337.0,1
1208,1208,0.7675119218045093,0.8,1.0,1.0,374.0,755.0,1.0,1,121.0,1
1209,1209,-0.1649320037659745,-0.2,0.0,1.0,264.0,795.0,1.0,0,891.0,1
1210,1210,0.845990614733347,0.8,1.0,1.0,330.0,731.0,1.0,1,119.0,1
1211,1211,0.6806617778134031,0.7,0.0,0.0,453.0,772.0,0.0,1,145.0,1
1212,1212,0.89248748430169,0.9,1.0,1.0,362.0,616.0,1.0,1,222.0,1
1213,1213,0.4567474470934706,0.5,0.0,0.0,344.0,632.0,0.0,1,614.0,1
1214,1214,0.03778377519249976,0.0,0.0,0.0,361.0,771.0,0.0,1,308.0,1
1215,1215,0.10214054695854335,0.1,0.0,0.0,346.0,589.0,0.0,1,1195.0,1
1216,1216,0.5795747302377087,0.6,0.0,0.0,277.0,948.0,0.0,1,205.0,1
1217,1217,0.43403115570260054,0.4,0.0,0.0,425.0,943.0,0.0,1,472.0,1
1218,1218,0.44772587500988015,0.4,0.0,0.0,392.0,569.0,0.0,1,569.0,1
1219,1219,0.1736585221140009,0.2,0.0,0.0,414.0,513.0,0.0,1,1823.0,1
1220,1220,-0.5660644029209818,-0.6,0.0,1.0,281.0,569.0,1.0,0,320.0,1
1221,1221,0.6080724828754748,0.6,1.0,1.0,430.0,844.0,1.0,1,166.0,1
1222,1222,0.6459817257063151,0.6,1.0,1.0,460.0,924.0,1.0,1,196.0,1
1223,1223,-0.5141935013061856,-0.5,0.0,1.0,316.0,764.0,1.0,0,330.0,1
1224,1224,0.08059371411663308,0.1,0.0,0.0,462.0,957.0,0.0,1,1581.0,1
1225,1225,0.2982655032057172,0.3,1.0,1.0,328.0,786.0,1.0,1,346.0,1
1226,1226,-0.5770767317546845,-0.6,0.0,1.0,315.0,823.0,1.0,0,82.0,1
1227,1227,0.6017896904276413,0.6,1.0,1.0,463.0,838.0,1.0,1,149.0,1
1228,1228,-0.25863542486217095,-0.3,1.0,0.0,297.0,735.0,0.0,0,748.0,1
1229,1229,-0.8773562315600845,-0.9,1.0,0.0,407.0,921.0,0.0,0,812.0,1
1230,1230,0.7733055929414977,0.8,0.0,0.0,493.0,515.0,0.0,1,522.0,1
1231,1231,0.06723567286350873,0.1,0.0,0.0,432.0,788.0,0.0,1,530.0,1
1232,1232,-0.10347825549151979,-0.1,1.0,0.0,427.0,832.0,1.0,1,1741.0,0
1233,1233,0.5760683526620892,0.6,1.0,1.0,288.0,715.0,1.0,1,497.0,1
1234,1234,0.4307079901978178,0.4,0.0,0.0,447.0,656.0,0.0,1,837.0,1
1235,1235,-0.20325712610503743,-0.2,1.0,0.0,369.0,615.0,0.0,0,716.0,1
1236,1236,-0.858263057211669,-0.9,1.0,0.0,327.0,726.0,0.0,0,187.0,1
1237,1237,-0.058765792128011474,-0.1,0.0,1.0,426.0,845.0,1.0,0,879.0,1
1238,1238,-0.6814543048198647,-0.7,1.0,0.0,295.0,596.0,0.0,0,339.0,1
1239,1239,-0.43605581367200896,-0.4,0.0,1.0,469.0,679.0,1.0,0,152.0,1
1240,1240,0.28583799283280376,0.3,1.0,1.0,465.0,516.0,1.0,1,449.0,1
1241,1241,-0.8653998202684146,-0.9,1.0,0.0,315.0,733.0,0.0,0,162.0,1
1242,1242,-0.016652763625797595,-0.0,0.0,1.0,301.0,722.0,1.0,0,957.0,1
1243,1243,0.46096856463058933,0.5,1.0,1.0,429.0,783.0,1.0,1,218.0,1
1244,1244,-0.7939089288945873,-0.8,1.0,0.0,274.0,876.0,0.0,0,250.0,1
1245,1245,-0.28594745079804074,-0.3,0.0,1.0,492.0,984.0,1.0,0,244.0,1
1246,1246,0.4199689547259381,0.4,0.0,0.0,281.0,776.0,0.0,1,143.0,1
1247,1247,-0.31955498138939764,-0.3,0.0,1.0,282.0,887.0,1.0,0,531.0,1
1248,1248,-0.5319667729281341,-0.5,0.0,1.0,454.0,927.0,1.0,0,379.0,1
1249,1249,0.8966087593897448,0.9,0.0,0.0,463.0,963.0,0.0,1,234.0,1
1250,1250,0.2261896603725665,0.2,1.0,1.0,435.0,630.0,1.0,1,105.0,1
1251,1251,-0.3637347196652402,-0.4,0.0,1.0,283.0,844.0,1.0,0,173.0,1
1252,1252,-0.04980606220071815,-0.0,0.0,1.0,390.0,939.0,1.0,0,1541.0,1
1253,1253,0.1675409766813184,0.2,1.0,1.0,285.0,853.0,1.0,1,192.0,1
1254,1254,0.1383749807634046,0.1,1.0,1.0,466.0,880.0,1.0,1,274.0,1
1255,1255,0.694497019224333,0.7,0.0,0.0,299.0,854.0,0.0,1,137.0,1
1256,1256,-0.10955881432010262,-0.1,0.0,1.0,259.0,587.0,1.0,0,1114.0,1
1257,1257,0.1783329106110304,0.2,0.0,0.0,464.0,965.0,0.0,1,721.0,1
1258,1258,0.3602700780439122,0.4,1.0,1.0,389.0,807.0,1.0,1,354.0,1
1259,1259,0.6902168413211608,0.7,0.0,0.0,432.0,550.0,0.0,1,218.0,1
1260,1260,0.2914923167653042,0.3,0.0,0.0,279.0,995.0,0.0,1,306.0,1
1261,1261,0.610959749596668,0.6,0.0,0.0,337.0,647.0,0.0,1,456.0,1
1262,1262,-0.2645753725273664,-0.3,1.0,0.0,298.0,841.0,0.0,0,261.0,1
1263,1263,-0.2434109031969649,-0.2,0.0,1.0,355.0,751.0,1.0,0,154.0,1
1264,1264,0.8122396766832952,0.8,0.0,0.0,278.0,806.0,0.0,1,116.0,1
1265,1265,0.4986296634940587,0.5,0.0,0.0,316.0,778.0,0.0,1,156.0,1
1266,1266,0.7854725633616065,0.8,0.0,0.0,416.0,825.0,0.0,1,109.0,1
1267,1267,-0.6889893207912667,-0.7,0.0,1.0,400.0,898.0,1.0,0,202.0,1
1268,1268,-0.859840633542439,-0.9,0.0,1.0,294.0,663.0,1.0,0,283.0,1
1269,1269,-0.6888589156127665,-0.7,0.0,1.0,489.0,744.0,1.0,0,257.0,1
1270,1270,0.8308640036624976,0.8,1.0,1.0,407.0,750.0,1.0,1,123.0,1
1271,1271,-0.11775150385508792,-0.1,1.0,0.0,444.0,534.0,0.0,0,2022.0,1
1272,1272,-0.3378389299220783,-0.3,1.0,0.0,285.0,584.0,0.0,0,1041.0,1
1273,1273,0.10312802158400725,0.1,0.0,0.0,335.0,527.0,0.0,1,1888.0,1
1274,1274,0.10736178989065548,0.1,0.0,0.0,372.0,554.0,0.0,1,304.0,1
1275,1275,-0.7103939787013467,-0.7,1.0,0.0,467.0,858.0,0.0,0,1215.0,1
1276,1276,0.26670361597074976,0.3,1.0,1.0,271.0,809.0,1.0,1,380.0,1
1277,1277,0.07179760740444552,0.1,0.0,0.0,490.0,606.0,0.0,1,1644.0,1
1278,1278,0.6288617917304095,0.6,0.0,0.0,446.0,737.0,0.0,1,217.0,1
1279,1279,0.4901896897959016,0.5,1.0,1.0,344.0,653.0,1.0,1,303.0,1
1280,1280,-0.2083764475956641,-0.2,1.0,0.0,327.0,562.0,0.0,0,801.0,1
1281,1281,-0.38439278608442995,-0.4,0.0,1.0,465.0,621.0,1.0,0,644.0,1
1282,1282,0.7898977318957766,0.8,1.0,1.0,348.0,519.0,1.0,1,93.0,1
1283,1283,-0.2902658993395921,-0.3,1.0,0.0,399.0,628.0,0.0,0,643.0,1
1284,1284,0.4297312446812248,0.4,1.0,1.0,395.0,578.0,1.0,1,377.0,1
1285,1285,0.4181156171713133,0.4,1.0,1.0,442.0,774.0,1.0,1,284.0,1
1286,1286,0.2999838323085492,0.3,1.0,1.0,379.0,948.0,1.0,1,233.0,1
1287,1287,0.6907707483757443,0.7,0.0,0.0,348.0,878.0,0.0,1,184.0,1
1288,1288,-0.3954232586528349,-0.4,1.0,0.0,417.0,749.0,0.0,0,384.0,1
1289,1289,-0.17253020719290202,-0.2,1.0,0.0,486.0,759.0,0.0,0,845.0,1
1290,1290,0.04848876230643484,0.0,0.0,0.0,444.0,894.0,1.0,0,1662.0,0
1291,1291,-0.020460675241553372,-0.0,1.0,0.0,414.0,532.0,0.0,0,2054.0,1
1292,1292,-0.38511231251381994,-0.4,0.0,1.0,380.0,910.0,1.0,0,340.0,1
1293,1293,0.13264437706529908,0.1,0.0,0.0,328.0,973.0,0.0,1,279.0,1
1294,1294,0.794497523536157,0.8,0.0,0.0,390.0,503.0,0.0,1,437.0,1
1295,1295,-0.5024725159716488,-0.5,1.0,0.0,398.0,762.0,0.0,0,430.0,1
1296,1296,0.06906217286027105,0.1,1.0,1.0,460.0,956.0,1.0,1,604.0,1
1297,1297,-0.5078339019473761,-0.5,1.0,0.0,350.0,891.0,0.0,0,319.0,1
1298,1298,0.6113845435633262,0.6,1.0,1.0,496.0,912.0,1.0,1,342.0,1
1299,1299,0.37480190426285753,0.4,1.0,1.0,372.0,956.0,1.0,1,252.0,1
1300,1300,-0.22380172963775913,-0.2,1.0,0.0,257.0,970.0,0.0,0,503.0,1
1301,1301,0.6451548628369986,0.6,1.0,1.0,392.0,687.0,1.0,1,121.0,1
1302,1302,-0.01610482578512107,-0.0,1.0,0.0,358.0,964.0,0.0,0,758.0,1
1303,1303,-0.567441435696883,-0.6,0.0,1.0,426.0,698.0,1.0,0,286.0,1
1304,1304,0.27099351071346367,0.3,1.0,1.0,338.0,876.0,1.0,1,306.0,1
1305,1305,0.439458989695927,0.4,0.0,0.0,412.0,866.0,0.0,1,332.0,1
1306,1306,0.6346305899596797,0.6,1.0,1.0,339.0,781.0,1.0,1,310.0,1
1307,1307,-0.18726338635054796,-0.2,0.0,1.0,498.0,926.0,1.0,0,386.0,1
1308,1308,-0.3042803714043395,-0.3,1.0,0.0,253.0,816.0,0.0,0,501.0,1
1309,1309,-0.25755342973925976,-0.3,0.0,1.0,336.0,792.0,1.0,0,492.0,1
1310,1310,-0.19362722187586234,-0.2,1.0,0.0,305.0,765.0,0.0,0,220.0,1
1311,1311,0.4989478449621524,0.5,1.0,1.0,481.0,884.0,1.0,1,75.0,1
1312,1312,-0.8915668005882796,-0.9,0.0,1.0,456.0,956.0,1.0,0,118.0,1
1313,1313,0.5386966506402423,0.5,0.0,0.0,420.0,815.0,0.0,1,235.0,1
1314,1314,-0.271440341330882,-0.3,1.0,0.0,488.0,861.0,0.0,0,251.0,1
1315,1315,-0.18768699294856173,-0.2,0.0,1.0,323.0,956.0,1.0,0,601.0,1
1316,1316,-0.24666364080149006,-0.2,1.0,0.0,281.0,585.0,0.0,0,494.0,1
1317,1317,0.07926666086298584,0.1,1.0,1.0,375.0,688.0,1.0,1,1177.0,1
1318,1318,-0.7627216703419011,-0.8,1.0,0.0,309.0,758.0,0.0,0,673.0,1
1319,1319,-0.533793178715924,-0.5,1.0,0.0,297.0,599.0,0.0,0,554.0,1
1320,1320,-0.8485795967520183,-0.8,0.0,1.0,315.0,668.0,1.0,0,217.0,1
1321,1321,0.5312168200985702,0.5,0.0,0.0,486.0,883.0,0.0,1,261.0,1
1322,1322,0.2918742031534304,0.3,1.0,1.0,278.0,584.0,1.0,1,588.0,1
1323,1323,0.5357087996764093,0.5,1.0,1.0,424.0,675.0,1.0,1,311.0,1
1324,1324,0.4051711630053866,0.4,1.0,1.0,395.0,944.0,1.0,1,251.0,1
1325,1325,-0.24001786251120316,-0.2,0.0,1.0,440.0,928.0,1.0,0,342.0,1
1326,1326,-0.16060343667428434,-0.2,0.0,1.0,357.0,743.0,1.0,0,950.0,1
1327,1327,0.03914857064748534,0.0,1.0,1.0,335.0,557.0,1.0,1,778.0,1
1328,1328,0.12433631962825242,0.1,0.0,0.0,384.0,738.0,0.0,1,758.0,1
1329,1329,-0.2523670894058825,-0.3,0.0,1.0,292.0,572.0,1.0,0,386.0,1
1330,1330,0.8415945984320027,0.8,0.0,0.0,280.0,742.0,0.0,1,218.0,1
1331,1331,-0.06204671670586781,-0.1,1.0,0.0,405.0,585.0,1.0,1,2010.0,0
1332,1332,0.05085991054324768,0.1,1.0,1.0,376.0,700.0,1.0,1,1324.0,1
1333,1333,0.10241780915280796,0.1,0.0,0.0,336.0,820.0,0.0,1,1544.0,1
1334,1334,-0.8603617583186284,-0.9,1.0,0.0,419.0,871.0,0.0,0,160.0,1
1335,1335,0.542746816721451,0.5,0.0,0.0,494.0,622.0,0.0,1,434.0,1
1336,1336,0.7072448011940432,0.7,1.0,1.0,327.0,538.0,1.0,1,205.0,1
1337,1337,0.4391699574475466,0.4,0.0,0.0,431.0,547.0,0.0,1,242.0,1
1338,1338,-0.00905662123174178,-0.0,1.0,0.0,345.0,834.0,1.0,1,1211.0,0
1339,1339,0.5973442471618454,0.6,1.0,1.0,483.0,840.0,1.0,1,107.0,1
1340,1340,-0.17308328875951573,-0.2,1.0,0.0,426.0,739.0,0.0,0,1835.0,1
1341,1341,-0.20014951935945036,-0.2,0.0,1.0,381.0,674.0,1.0,0,365.0,1
1342,1342,0.3848992205104117,0.4,1.0,1.0,478.0,632.0,1.0,1,260.0,1
1343,1343,-0.4493357113956544,-0.4,0.0,1.0,409.0,609.0,1.0,0,162.0,1
1344,1344,-0.28370174652967173,-0.3,0.0,1.0,365.0,762.0,1.0,0,343.0,1
1345,1345,0.10886975722716763,0.1,1.0,1.0,406.0,684.0,1.0,1,490.0,1
1346,1346,-0.4877099888202415,-0.5,1.0,0.0,329.0,948.0,0.0,0,173.0,1
1347,1347,-0.1546274710423221,-0.2,1.0,0.0,273.0,810.0,0.0,0,1917.0,1
1348,1348,-0.6269353906342424,-0.6,0.0,1.0,498.0,670.0,1.0,0,332.0,1
1349,1349,0.049443279373559856,0.0,1.0,1.0,297.0,965.0,1.0,1,258.0,1
1350,1350,-0.6028370617719498,-0.6,0.0,1.0,307.0,560.0,1.0,0,413.0,1
1351,1351,0.745850273963332,0.7,1.0,1.0,471.0,675.0,1.0,1,164.0,1
1352,1352,0.19517582595425875,0.2,1.0,1.0,416.0,801.0,1.0,1,693.0,1
1353,1353,-0.8574741463197487,-0.9,0.0,1.0,379.0,895.0,1.0,0,186.0,1
1354,1354,-0.2740806847878722,-0.3,0.0,1.0,459.0,863.0,1.0,0,638.0,1
1355,1355,0.3052948859700132,0.3,1.0,1.0,454.0,945.0,1.0,1,511.0,1
1356,1356,-0.11427630667550626,-0.1,0.0,1.0,330.0,968.0,1.0,0,1122.0,1
1357,1357,-0.5646418060376307,-0.6,1.0,0.0,266.0,955.0,0.0,0,269.0,1
1358,1358,-0.897376457597847,-0.9,1.0,0.0,452.0,937.0,0.0,0,151.0,1
1359,1359,-0.3951042755370324,-0.4,0.0,1.0,486.0,940.0,1.0,0,234.0,1
1360,1360,-0.6588287501502346,-0.7,1.0,0.0,481.0,678.0,0.0,0,231.0,1
1361,1361,0.3085435221696161,0.3,1.0,1.0,274.0,616.0,1.0,1,580.0,1
1362,1362,0.665937000818137,0.7,0.0,0.0,361.0,715.0,0.0,1,354.0,1
1363,1363,-0.7398680809046265,-0.7,0.0,1.0,454.0,760.0,1.0,0,366.0,1
1364,1364,0.3033340916774213,0.3,1.0,1.0,371.0,617.0,1.0,1,352.0,1
1365,1365,-0.7049205293222458,-0.7,1.0,0.0,268.0,952.0,0.0,0,330.0,1
1366,1366,0.12466509583752206,0.1,0.0,0.0,489.0,732.0,0.0,1,1779.0,1
1367,1367,0.11079250489153691,0.1,1.0,1.0,258.0,848.0,1.0,1,734.0,1
1368,1368,-0.09442437956191518,-0.1,1.0,0.0,421.0,963.0,1.0,1,1616.0,0
1369,1369,0.5007909908371285,0.5,1.0,1.0,251.0,544.0,1.0,1,535.0,1
1370,1370,0.22223184675559804,0.2,1.0,1.0,401.0,784.0,1.0,1,325.0,1
1371,1371,-0.5233141198838778,-0.5,1.0,0.0,351.0,588.0,0.0,0,1121.0,1
1372,1372,-0.6583974449508018,-0.7,1.0,0.0,330.0,650.0,0.0,0,270.0,1
1373,1373,0.34146249502353376,0.3,0.0,0.0,480.0,735.0,0.0,1,535.0,1
1374,1374,-0.24312610691765435,-0.2,1.0,0.0,326.0,777.0,0.0,0,917.0,1
1375,1375,0.17932597172078346,0.2,1.0,1.0,323.0,875.0,1.0,1,312.0,1
1376,1376,0.3688343553087524,0.4,0.0,0.0,477.0,860.0,0.0,1,483.0,1
1377,1377,0.634270060311306,0.6,1.0,1.0,399.0,650.0,1.0,1,301.0,1
1378,1378,0.04503884230279498,0.0,1.0,1.0,479.0,851.0,1.0,1,1670.0,1
1379,1379,0.35627780854489444,0.4,0.0,0.0,355.0,645.0,0.0,1,320.0,1
1380,1380,-0.37186397356960066,-0.4,0.0,1.0,406.0,890.0,1.0,0,404.0,1
1381,1381,0.4315532563074379,0.4,1.0,1.0,367.0,863.0,1.0,1,210.0,1
1382,1382,0.5093148577329235,0.5,1.0,1.0,311.0,698.0,1.0,1,281.0,1
1383,1383,0.43915581830314776,0.4,1.0,1.0,280.0,655.0,1.0,1,185.0,1
1384,1384,0.7889891825787324,0.8,1.0,1.0,476.0,712.0,1.0,1,312.0,1
1385,1385,-0.6040936971538966,-0.6,0.0,1.0,488.0,638.0,1.0,0,274.0,1
1386,1386,0.7055060057959951,0.7,0.0,0.0,293.0,565.0,0.0,1,512.0,1
1387,1387,-0.7687772910408233,-0.8,1.0,0.0,254.0,966.0,0.0,0,210.0,1
1388,1388,0.1240317437494739,0.1,1.0,1.0,258.0,517.0,1.0,1,685.0,1
1389,1389,0.3552367226179366,0.4,0.0,0.0,401.0,894.0,0.0,1,445.0,1
1390,1390,0.7789983525370835,0.8,0.0,0.0,277.0,994.0,0.0,1,229.0,1
1391,1391,0.1726457838430001,0.2,1.0,1.0,397.0,642.0,1.0,1,941.0,1
1392,1392,0.672462305278391,0.7,1.0,1.0,328.0,604.0,1.0,1,178.0,1
1393,1393,0.39425084377624964,0.4,0.0,0.0,388.0,691.0,0.0,1,301.0,1
1394,1394,0.847468438651643,0.8,1.0,1.0,297.0,829.0,1.0,1,134.0,1
1395,1395,0.39950331680344175,0.4,0.0,0.0,438.0,637.0,0.0,1,345.0,1
1396,1396,0.4781811730377671,0.5,1.0,1.0,357.0,744.0,1.0,1,79.0,1
1397,1397,0.3538583493136981,0.4,1.0,1.0,261.0,611.0,1.0,1,358.0,1
1398,1398,-0.10431412267897011,-0.1,1.0,0.0,359.0,635.0,0.0,0,1436.0,1
1399,1399,0.3086944659593639,0.3,1.0,1.0,471.0,535.0,1.0,1,314.0,1
1400,1400,-0.3133236298574549,-0.3,0.0,1.0,300.0,952.0,1.0,0,288.0,1
1401,1401,0.6418755846545933,0.6,0.0,0.0,327.0,554.0,0.0,1,329.0,1
1402,1402,-0.005420026330381855,-0.0,1.0,0.0,380.0,727.0,1.0,1,623.0,0
1403,1403,-0.21386947702806702,-0.2,0.0,1.0,492.0,776.0,1.0,0,442.0,1
1404,1404,0.03970477901012737,0.0,0.0,0.0,413.0,591.0,0.0,1,1996.0,1
1405,1405,-0.08008394336068447,-0.1,0.0,1.0,341.0,566.0,1.0,0,383.0,1
1406,1406,-0.14713997776837673,-0.1,1.0,0.0,396.0,688.0,0.0,0,1906.0,1
1407,1407,-0.3395964091944761,-0.3,1.0,0.0,488.0,758.0,0.0,0,324.0,1
1408,1408,0.07602471776325792,0.1,0.0,0.0,396.0,898.0,0.0,1,1706.0,1
1409,1409,0.02955199115675944,0.0,1.0,1.0,488.0,929.0,1.0,1,583.0,1
1410,1410,0.47798876307975824,0.5,0.0,0.0,437.0,643.0,0.0,1,300.0,1
1411,1411,-0.5497932142264137,-0.5,0.0,1.0,460.0,533.0,1.0,0,277.0,1
1412,1412,0.8977076523862152,0.9,1.0,1.0,425.0,775.0,1.0,1,20.0,1
1413,1413,0.7459622880345768,0.7,1.0,1.0,440.0,897.0,1.0,1,243.0,1
1414,1414,0.4658874745929723,0.5,1.0,1.0,389.0,716.0,1.0,1,535.0,1
1415,1415,0.8086540956709481,0.8,1.0,1.0,341.0,928.0,1.0,1,191.0,1
1416,1416,0.02738672604242609,0.0,1.0,1.0,314.0,539.0,1.0,1,1407.0,1
1417,1417,-0.17596577231454824,-0.2,1.0,0.0,365.0,919.0,0.0,0,316.0,1
1418,1418,-0.3484245408099709,-0.3,1.0,0.0,346.0,634.0,0.0,0,220.0,1
1419,1419,0.3464237516572134,0.3,0.0,0.0,442.0,507.0,0.0,1,431.0,1
1420,1420,0.4116243208868534,0.4,1.0,1.0,336.0,613.0,1.0,1,231.0,1
1421,1421,0.15675494642398224,0.2,1.0,1.0,355.0,556.0,1.0,1,689.0,1
1422,1422,0.6625601062460987,0.7,0.0,0.0,459.0,746.0,0.0,1,365.0,1
1423,1423,0.4772475419336467,0.5,0.0,0.0,308.0,860.0,0.0,1,302.0,1
1424,1424,-0.31937647622516707,-0.3,0.0,1.0,411.0,935.0,1.0,0,144.0,1
1425,1425,0.31424029673527676,0.3,0.0,0.0,341.0,876.0,0.0,1,433.0,1
1426,1426,-0.20778665853582245,-0.2,1.0,0.0,474.0,709.0,0.0,0,977.0,1
1427,1427,-0.8041638483669685,-0.8,0.0,1.0,290.0,726.0,1.0,0,284.0,1
1428,1428,0.5876240756854211,0.6,1.0,1.0,358.0,810.0,1.0,1,122.0,1
1429,1429,0.40256167736842696,0.4,0.0,0.0,299.0,794.0,0.0,1,137.0,1
1430,1430,0.5846806612884733,0.6,1.0,1.0,263.0,543.0,1.0,1,214.0,1
1431,1431,0.2587009897130347,0.3,1.0,1.0,373.0,551.0,1.0,1,636.0,1
1432,1432,-0.2601646250423013,-0.3,0.0,1.0,304.0,700.0,1.0,0,396.0,1
1433,1433,-0.0007844794471855154,-0.0,1.0,0.0,479.0,974.0,1.0,1,557.0,0
1434,1434,0.1264649536631698,0.1,1.0,1.0,335.0,958.0,1.0,1,487.0,1
1435,1435,-0.8870449484780416,-0.9,1.0,0.0,405.0,999.0,0.0,0,146.0,1
1436,1436,-0.4323117875476507,-0.4,0.0,1.0,443.0,661.0,1.0,0,446.0,1
1437,1437,-0.5900381301273965,-0.6,0.0,1.0,464.0,825.0,1.0,0,161.0,1
1438,1438,-0.029745959854027504,-0.0,0.0,1.0,498.0,576.0,1.0,0,676.0,1
1439,1439,-0.21947678750635569,-0.2,0.0,1.0,480.0,821.0,1.0,0,259.0,1
1440,1440,-0.02340413542285702,-0.0,0.0,1.0,282.0,597.0,1.0,0,2121.0,1
1441,1441,0.8486478535832961,0.8,1.0,1.0,341.0,723.0,1.0,1,256.0,1
1442,1442,0.4007393989881979,0.4,0.0,0.0,266.0,744.0,0.0,1,620.0,1
1443,1443,-0.4072975143340004,-0.4,0.0,1.0,253.0,526.0,1.0,0,281.0,1
1444,1444,-0.646751991709533,-0.6,1.0,0.0,474.0,594.0,0.0,0,742.0,1
1445,1445,-0.42353153430152407,-0.4,1.0,0.0,450.0,882.0,0.0,0,348.0,1
1446,1446,0.10377528186047613,0.1,1.0,1.0,279.0,849.0,1.0,1,332.0,1
1447,1447,0.7031775341009686,0.7,1.0,1.0,328.0,680.0,1.0,1,172.0,1
1448,1448,-0.31556670743607174,-0.3,0.0,1.0,499.0,806.0,1.0,0,235.0,1
1449,1449,0.11900949309799447,0.1,0.0,0.0,259.0,873.0,0.0,1,798.0,1
1450,1450,0.0832474046271584,0.1,0.0,0.0,425.0,630.0,1.0,0,1945.0,0
1451,1451,-0.7258096672960813,-0.7,0.0,1.0,458.0,655.0,1.0,0,337.0,1
1452,1452,0.7757494145716185,0.8,0.0,0.0,398.0,638.0,0.0,1,254.0,1
1453,1453,0.08211768197263292,0.1,1.0,1.0,493.0,763.0,1.0,1,1744.0,1
1454,1454,-0.043346142956242284,-0.0,0.0,1.0,266.0,878.0,1.0,0,606.0,1
1455,1455,0.6366297977161425,0.6,1.0,1.0,298.0,857.0,1.0,1,135.0,1
1456,1456,-0.12982823396750742,-0.1,0.0,1.0,306.0,971.0,1.0,0,1553.0,1
1457,1457,-0.40625530248269887,-0.4,0.0,1.0,413.0,881.0,1.0,0,296.0,1
1458,1458,0.1523886192567877,0.2,0.0,0.0,489.0,809.0,0.0,1,722.0,1
1459,1459,-0.41961937103037866,-0.4,0.0,1.0,389.0,657.0,1.0,0,194.0,1
1460,1460,-0.20944518827646164,-0.2,0.0,1.0,460.0,788.0,1.0,0,592.0,1
1461,1461,-0.5854609244961861,-0.6,1.0,0.0,264.0,879.0,0.0,0,197.0,1
1462,1462,0.8550609105156862,0.9,0.0,0.0,354.0,795.0,0.0,1,171.0,1
1463,1463,-0.8839787755074499,-0.9,1.0,0.0,260.0,708.0,0.0,0,392.0,1
1464,1464,-0.7321291341954299,-0.7,0.0,1.0,384.0,855.0,1.0,0,251.0,1
1465,1465,-0.588575638878533,-0.6,0.0,1.0,412.0,819.0,1.0,0,199.0,1
1466,1466,0.5542658908903016,0.6,0.0,0.0,290.0,880.0,0.0,1,220.0,1
1467,1467,-0.030427152423628256,-0.0,0.0,1.0,311.0,957.0,1.0,0,1732.0,1
1468,1468,0.5273941856585297,0.5,1.0,1.0,273.0,797.0,1.0,1,440.0,1
1469,1469,-0.5410356104794132,-0.5,0.0,1.0,262.0,996.0,1.0,0,242.0,1
1470,1470,-0.6618316063467684,-0.7,0.0,1.0,314.0,941.0,1.0,0,245.0,1
1471,1471,-0.19319832413511862,-0.2,1.0,0.0,253.0,719.0,0.0,0,868.0,1
1472,1472,0.478060186740607,0.5,1.0,1.0,493.0,584.0,1.0,1,193.0,1
1473,1473,-0.8766086439928971,-0.9,0.0,1.0,423.0,683.0,1.0,0,154.0,1
1474,1474,0.006346774241380415,0.0,1.0,1.0,339.0,772.0,1.0,1,219.0,1
1475,1475,0.8227037723985077,0.8,0.0,0.0,396.0,851.0,0.0,1,223.0,1
1476,1476,-0.6209041570589267,-0.6,1.0,0.0,473.0,601.0,0.0,0,636.0,1
1477,1477,-0.3368205812080822,-0.3,1.0,0.0,318.0,883.0,0.0,0,379.0,1
1478,1478,0.14069694155158718,0.1,1.0,1.0,292.0,951.0,1.0,1,227.0,1
1479,1479,-0.7416285425712812,-0.7,0.0,1.0,262.0,703.0,1.0,0,185.0,1
1480,1480,-0.46607167940815813,-0.5,1.0,0.0,499.0,643.0,0.0,0,778.0,1
1481,1481,0.25088196288226905,0.3,1.0,1.0,274.0,960.0,1.0,1,346.0,1
1482,1482,0.7612626086523547,0.8,1.0,1.0,375.0,895.0,1.0,1,280.0,1
1483,1483,-0.3825996978686451,-0.4,0.0,1.0,266.0,603.0,1.0,0,361.0,1
1484,1484,-0.10260358331961228,-0.1,1.0,0.0,297.0,711.0,0.0,0,1992.0,1
1485,1485,0.6060940423434092,0.6,1.0,1.0,400.0,954.0,1.0,1,176.0,1
1486,1486,0.40459919877684103,0.4,1.0,1.0,465.0,947.0,1.0,1,208.0,1
1487,1487,-0.41854417674698563,-0.4,0.0,1.0,493.0,798.0,1.0,0,159.0,1
1488,1488,0.43685251337788433,0.4,0.0,0.0,343.0,574.0,0.0,1,663.0,1
1489,1489,0.7441451437752248,0.7,1.0,1.0,353.0,968.0,1.0,1,119.0,1
1490,1490,-0.656876589677759,-0.7,1.0,0.0,393.0,902.0,0.0,0,495.0,1
1491,1491,0.19616253270135353,0.2,0.0,0.0,351.0,585.0,0.0,1,2064.0,1
