,trial,coherence,coherence_bin,green_side,correct_side,target_onset,checker_onset,decision,green_decision,decision_time,correct_decision
0,0,-0.8404665701445962,-0.8,0.0,1.0,314.0,511.0,0.0,1,2175.0,0
1,1,0.30814308850373917,0.3,1.0,1.0,318.0,934.0,0.0,0,1748.0,0
2,2,-0.8967024270120917,-0.9,1.0,0.0,451.0,942.0,0.0,0,1607.0,1
3,3,0.5056415647994611,0.5,1.0,1.0,394.0,975.0,0.0,0,1631.0,0
4,4,-0.7288275857034334,-0.7,1.0,0.0,343.0,710.0,0.0,0,1947.0,1
5,5,-0.7496234539981428,-0.7,0.0,1.0,422.0,921.0,0.0,1,1657.0,0
6,6,-0.24366773959897225,-0.2,0.0,1.0,357.0,817.0,0.0,1,1826.0,0
7,7,0.5426083390182249,0.5,0.0,0.0,287.0,981.0,0.0,1,1732.0,1
8,8,-0.18432751829232674,-0.2,0.0,1.0,267.0,939.0,0.0,1,1794.0,0
9,9,0.4855125308706937,0.5,1.0,1.0,306.0,539.0,0.0,0,2155.0,0
10,10,-0.8877061178079566,-0.9,1.0,0.0,363.0,827.0,0.0,0,1810.0,1
11,11,0.5598101118825215,0.6,1.0,1.0,427.0,789.0,0.0,0,1784.0,0
12,12,0.029899832372335067,0.0,1.0,1.0,432.0,926.0,0.0,0,1642.0,0
13,13,-0.5631011091503222,-0.6,0.0,1.0,260.0,830.0,0.0,1,1910.0,0
14,14,-0.26914056645716655,-0.3,1.0,0.0,349.0,596.0,0.0,0,2055.0,1
15,15,0.8815107883570895,0.9,0.0,0.0,267.0,961.0,0.0,1,1772.0,1
16,16,-0.8529758760724515,-0.9,0.0,1.0,419.0,997.0,0.0,1,1584.0,0
17,17,0.18045657567184337,0.2,0.0,0.0,427.0,659.0,0.0,1,1914.0,1
18,18,0.41961822175144603,0.4,1.0,1.0,417.0,505.0,0.0,0,2078.0,0
19,19,0.49390210483010033,0.5,1.0,1.0,425.0,756.0,0.0,0,1819.0,0
20,20,0.7055621141698486,0.7,0.0,0.0,491.0,539.0,0.0,1,1970.0,1
21,21,0.12330505873090047,0.1,1.0,1.0,399.0,659.0,0.0,0,-1038.0,0
22,22,-0.7270681408455006,-0.7,1.0,0.0,395.0,544.0,1.0,1,-809.0,0
23,23,-0.3512028800929665,-0.4,1.0,0.0,407.0,793.0,0.0,0,1800.0,1
24,24,0.3009374434307669,0.3,1.0,1.0,275.0,708.0,0.0,0,2017.0,0
25,25,0.08972408411556121,0.1,0.0,0.0,419.0,743.0,0.0,1,1838.0,1
26,26,-0.8490127158601211,-0.8,0.0,1.0,351.0,894.0,0.0,1,1755.0,0
27,27,-0.39352922252479416,-0.4,1.0,0.0,454.0,941.0,0.0,0,1605.0,1
28,28,0.6308008259049659,0.6,1.0,1.0,415.0,989.0,0.0,0,1596.0,0
29,29,0.5268332311254932,0.5,1.0,1.0,315.0,810.0,0.0,0,1875.0,0
30,30,-0.6091813781834676,-0.6,0.0,1.0,374.0,688.0,0.0,1,1938.0,0
31,31,0.325290034501445,0.3,1.0,1.0,441.0,820.0,0.0,0,1739.0,0
32,32,-0.031970721322179374,-0.0,1.0,0.0,289.0,936.0,1.0,1,-1095.0,0
33,33,-0.2305744457317782,-0.2,1.0,0.0,438.0,703.0,0.0,0,1859.0,1
34,34,0.535902115602734,0.5,0.0,0.0,277.0,737.0,0.0,1,1986.0,1
35,35,-0.051214815961315274,-0.1,0.0,1.0,370.0,960.0,0.0,1,1670.0,0
36,36,-0.07704852672344242,-0.1,1.0,0.0,259.0,565.0,0.0,0,2176.0,1
37,37,0.5728546795092083,0.6,1.0,1.0,410.0,818.0,0.0,0,1772.0,0
38,38,-0.5793810884736876,-0.6,1.0,0.0,366.0,700.0,0.0,0,1934.0,1
39,39,-0.6848178168709602,-0.7,0.0,1.0,308.0,905.0,0.0,1,1787.0,0
40,40,0.2071192856641203,0.2,0.0,0.0,318.0,884.0,0.0,1,1798.0,1
41,41,0.23288897862725355,0.2,0.0,0.0,453.0,863.0,0.0,1,1684.0,1
42,42,0.7499274325820605,0.7,0.0,0.0,390.0,902.0,0.0,1,1708.0,1
43,43,-0.20323197627147316,-0.2,1.0,0.0,293.0,749.0,0.0,0,1958.0,1
44,44,0.03505382521255651,0.0,0.0,0.0,290.0,862.0,0.0,1,1848.0,1
45,45,0.173760320861016,0.2,0.0,0.0,314.0,576.0,0.0,1,2110.0,1
46,46,-0.38855498692278667,-0.4,0.0,1.0,268.0,782.0,0.0,1,1950.0,0
47,47,-0.4699843076372699,-0.5,0.0,1.0,402.0,585.0,0.0,1,2013.0,0
48,48,-0.4053737806405424,-0.4,0.0,1.0,467.0,632.0,0.0,1,1901.0,0
49,49,-0.37134245124847964,-0.4,0.0,1.0,260.0,690.0,0.0,1,2050.0,0
50,50,0.8280486233539476,0.8,0.0,0.0,280.0,659.0,0.0,1,2061.0,1
51,51,-0.8688241950269092,-0.9,0.0,1.0,266.0,730.0,1.0,0,-806.0,1
52,52,-0.6150457552490685,-0.6,1.0,0.0,427.0,748.0,0.0,0,1825.0,1
53,53,-0.7905393947348308,-0.8,0.0,1.0,372.0,530.0,0.0,1,2098.0,0
54,54,0.5848387619034757,0.6,1.0,1.0,472.0,810.0,0.0,0,1718.0,0
55,55,-0.04377876057506436,-0.0,1.0,0.0,490.0,904.0,0.0,0,1606.0,1
56,56,-0.21460916555019682,-0.2,1.0,0.0,484.0,668.0,0.0,0,1848.0,1
57,57,0.8343778647643166,0.8,0.0,0.0,399.0,881.0,0.0,1,1720.0,1
58,58,-0.40051772567028526,-0.4,1.0,0.0,280.0,773.0,0.0,0,-993.0,1
59,59,-0.04353375521490266,-0.0,0.0,1.0,459.0,836.0,0.0,1,1705.0,0
60,60,0.8246018537062733,0.8,0.0,0.0,431.0,506.0,0.0,1,2063.0,1
61,61,-0.23046233890661216,-0.2,1.0,0.0,369.0,927.0,0.0,0,1704.0,1
62,62,-0.1502124920475607,-0.2,0.0,1.0,417.0,891.0,0.0,1,1692.0,0
63,63,0.821943052037711,0.8,1.0,1.0,320.0,783.0,1.0,1,-973.0,1
64,64,-0.25305321075889764,-0.3,0.0,1.0,461.0,698.0,0.0,1,1841.0,0
65,65,-0.8908396899899308,-0.9,1.0,0.0,285.0,835.0,0.0,0,1880.0,1
66,66,-0.2742552211295318,-0.3,0.0,1.0,455.0,609.0,0.0,1,1936.0,0
67,67,0.12784133190005698,0.1,0.0,0.0,387.0,569.0,0.0,1,2044.0,1
68,68,0.27855502985294545,0.3,1.0,1.0,356.0,706.0,0.0,0,-1012.0,0
69,69,0.31784723079317334,0.3,1.0,1.0,445.0,848.0,0.0,0,1707.0,0
70,70,-0.7049010721692984,-0.7,1.0,0.0,257.0,711.0,0.0,0,2032.0,1
71,71,-0.6737243029572509,-0.7,0.0,1.0,495.0,726.0,1.0,0,-1091.0,1
72,72,-0.04837939951080705,-0.0,0.0,1.0,387.0,896.0,0.0,1,1717.0,0
73,73,0.8008002562455424,0.8,1.0,1.0,383.0,954.0,0.0,0,1663.0,0
74,74,0.11986861445031194,0.1,0.0,0.0,314.0,654.0,0.0,1,2032.0,1
75,75,-0.6806790449240055,-0.7,0.0,1.0,478.0,512.0,0.0,1,2010.0,0
76,76,-0.4105475130266633,-0.4,0.0,1.0,361.0,611.0,0.0,1,2028.0,0
77,77,0.036213150799067506,0.0,0.0,0.0,392.0,980.0,0.0,1,1628.0,1
78,78,0.8042501890540238,0.8,1.0,1.0,371.0,902.0,0.0,0,1727.0,0
79,79,-0.8972651534656049,-0.9,0.0,1.0,360.0,818.0,0.0,1,1822.0,0
80,80,-0.0023549494689816264,-0.0,0.0,1.0,489.0,730.0,1.0,0,-1199.0,1
81,81,0.38701327957212384,0.4,1.0,1.0,261.0,989.0,0.0,0,1750.0,0
82,82,0.8870838240876421,0.9,0.0,0.0,370.0,566.0,0.0,1,2064.0,1
83,83,-0.823869757791982,-0.8,1.0,0.0,360.0,711.0,0.0,0,1929.0,1
84,84,0.22231565241397344,0.2,0.0,0.0,497.0,709.0,0.0,1,1794.0,1
85,85,-0.6632560905757215,-0.7,0.0,1.0,462.0,611.0,0.0,1,1927.0,0
86,86,0.6017413584086043,0.6,1.0,1.0,412.0,736.0,0.0,0,1852.0,0
87,87,-0.03653351107029579,-0.0,1.0,0.0,406.0,821.0,0.0,0,1773.0,1
88,88,0.7003154210348467,0.7,0.0,0.0,265.0,874.0,0.0,1,1861.0,1
89,89,-0.8252829874816017,-0.8,0.0,1.0,271.0,866.0,0.0,1,-1137.0,0
90,90,-0.5079668066629999,-0.5,1.0,0.0,282.0,817.0,0.0,0,1901.0,1
91,91,0.5274662500038904,0.5,1.0,1.0,431.0,703.0,0.0,0,1866.0,0
92,92,-0.4163568396017531,-0.4,0.0,1.0,413.0,927.0,1.0,0,-1330.0,1
93,93,0.3965454978399293,0.4,1.0,1.0,331.0,708.0,0.0,0,1961.0,0
94,94,0.57093256802559,0.6,1.0,1.0,401.0,988.0,0.0,0,1611.0,0
95,95,0.7479161245489218,0.7,0.0,0.0,398.0,546.0,0.0,1,2056.0,1
96,96,0.6071952371122754,0.6,0.0,0.0,289.0,716.0,0.0,1,1995.0,1
97,97,-0.5802118090703685,-0.6,0.0,1.0,305.0,743.0,0.0,1,1952.0,0
98,98,-0.7277223647813574,-0.7,0.0,1.0,382.0,694.0,0.0,1,1924.0,0
99,99,0.16012587395280986,0.2,1.0,1.0,258.0,734.0,0.0,0,2008.0,0
100,100,0.0874852853675977,0.1,0.0,0.0,461.0,965.0,0.0,1,1574.0,1
101,101,-0.029449570592936403,-0.0,1.0,0.0,484.0,931.0,0.0,0,1585.0,1
102,102,-0.6680217566019305,-0.7,0.0,1.0,312.0,572.0,0.0,1,2116.0,0
103,103,0.8744400790588288,0.9,0.0,0.0,494.0,718.0,0.0,1,1788.0,1
104,104,0.7678849135279747,0.8,1.0,1.0,370.0,818.0,0.0,0,1812.0,0
105,105,0.6130976954872703,0.6,0.0,0.0,282.0,759.0,0.0,1,1959.0,1
106,106,0.15424835944740722,0.2,0.0,0.0,400.0,563.0,0.0,1,2037.0,1
107,107,-0.31354429404604167,-0.3,1.0,0.0,278.0,934.0,0.0,0,1788.0,1
108,108,-0.3532988170875948,-0.4,0.0,1.0,416.0,512.0,0.0,1,2072.0,0
109,109,-0.6216173404347674,-0.6,1.0,0.0,444.0,957.0,0.0,0,1599.0,1
110,110,-0.6227620842649619,-0.6,0.0,1.0,358.0,694.0,1.0,0,-972.0,1
111,111,-0.7673097304764808,-0.8,1.0,0.0,434.0,806.0,0.0,0,1760.0,1
112,112,0.8345082295987564,0.8,1.0,1.0,282.0,614.0,1.0,1,-576.0,1
113,113,-0.1075698339567176,-0.1,0.0,1.0,317.0,740.0,0.0,1,1943.0,0
114,114,-0.19362261536327663,-0.2,1.0,0.0,374.0,582.0,0.0,0,2044.0,1
115,115,-0.779940022151164,-0.8,0.0,1.0,296.0,785.0,0.0,1,1919.0,0
116,116,0.7325336112157738,0.7,1.0,1.0,412.0,995.0,0.0,0,1593.0,0
117,117,-0.16545211909769963,-0.2,0.0,1.0,343.0,634.0,1.0,0,-707.0,1
118,118,0.6672343332173579,0.7,0.0,0.0,431.0,613.0,0.0,1,1956.0,1
119,119,0.12808222889913956,0.1,0.0,0.0,347.0,963.0,0.0,1,1690.0,1
120,120,-0.3160853340912336,-0.3,0.0,1.0,437.0,993.0,1.0,0,-1400.0,1
121,121,0.47354663559188215,0.5,0.0,0.0,489.0,833.0,0.0,1,1678.0,1
122,122,-0.17614317670400215,-0.2,1.0,0.0,423.0,861.0,0.0,0,1716.0,1
123,123,0.44197610657943487,0.4,1.0,1.0,355.0,707.0,0.0,0,1938.0,0
124,124,0.6177709869500773,0.6,1.0,1.0,316.0,916.0,0.0,0,1768.0,0
125,125,-0.5341151882263856,-0.5,0.0,1.0,445.0,976.0,0.0,1,1579.0,0
126,126,-0.00037691194515909743,-0.0,0.0,1.0,468.0,562.0,0.0,1,1970.0,0
127,127,-0.6252174671368524,-0.6,1.0,0.0,310.0,910.0,0.0,0,1780.0,1
128,128,0.8352570744081605,0.8,0.0,0.0,373.0,850.0,0.0,1,1777.0,1
129,129,-0.5357028143435155,-0.5,1.0,0.0,409.0,501.0,0.0,0,2090.0,1
130,130,0.41805933145058727,0.4,0.0,0.0,459.0,723.0,0.0,1,1818.0,1
131,131,-0.28735144989167416,-0.3,1.0,0.0,311.0,590.0,0.0,0,2099.0,1
132,132,0.04904207222836121,0.0,1.0,1.0,451.0,544.0,0.0,0,2005.0,0
133,133,-0.627289716480678,-0.6,0.0,1.0,289.0,549.0,0.0,1,2162.0,0
134,134,-0.5145996916982947,-0.5,0.0,1.0,369.0,905.0,0.0,1,1726.0,0
135,135,-0.5835374227163564,-0.6,1.0,0.0,483.0,803.0,0.0,0,1714.0,1
136,136,-0.7316530930385705,-0.7,0.0,1.0,429.0,685.0,0.0,1,1886.0,0
137,137,-0.3188420279832933,-0.3,1.0,0.0,472.0,900.0,0.0,0,1628.0,1
138,138,-0.33526026492322347,-0.3,0.0,1.0,443.0,758.0,0.0,1,1799.0,0
139,139,0.7328865265770513,0.7,1.0,1.0,384.0,916.0,0.0,0,1700.0,0
140,140,-0.11761141477109738,-0.1,0.0,1.0,250.0,552.0,0.0,1,-742.0,0
141,141,0.648221944443634,0.6,0.0,0.0,276.0,910.0,0.0,1,1814.0,1
142,142,-0.5269376756344075,-0.5,0.0,1.0,413.0,841.0,0.0,1,1746.0,0
143,143,0.5425368092635717,0.5,0.0,0.0,366.0,978.0,1.0,0,-1324.0,0
144,144,0.8186843649162251,0.8,1.0,1.0,415.0,795.0,0.0,0,1790.0,0
145,145,0.022692961349138452,0.0,0.0,0.0,405.0,892.0,0.0,1,1703.0,1
146,146,0.37007589599264745,0.4,1.0,1.0,400.0,500.0,0.0,0,2100.0,0
147,147,-0.5154495346677428,-0.5,0.0,1.0,317.0,772.0,0.0,1,1911.0,0
148,148,0.28582551729702577,0.3,1.0,1.0,433.0,526.0,0.0,0,2041.0,0
149,149,0.6635718692722848,0.7,1.0,1.0,490.0,934.0,0.0,0,1576.0,0
150,150,-0.5680483578390609,-0.6,1.0,0.0,292.0,737.0,0.0,0,1971.0,1
151,151,0.7935457658880355,0.8,1.0,1.0,277.0,673.0,0.0,0,2050.0,0
152,152,0.7169785299523922,0.7,1.0,1.0,343.0,636.0,0.0,0,2021.0,0
153,153,-0.22956419759882085,-0.2,1.0,0.0,400.0,954.0,0.0,0,1646.0,1
154,154,-0.18967138304070297,-0.2,1.0,0.0,334.0,740.0,0.0,0,1926.0,1
155,155,-0.19429220008337256,-0.2,0.0,1.0,432.0,534.0,0.0,1,2034.0,0
156,156,-0.19325958971787027,-0.2,1.0,0.0,266.0,619.0,0.0,0,2115.0,1
157,157,0.34421703921445534,0.3,1.0,1.0,403.0,845.0,0.0,0,1752.0,0
158,158,-0.31028491634445166,-0.3,1.0,0.0,391.0,801.0,0.0,0,1808.0,1
159,159,0.4290411359462599,0.4,1.0,1.0,361.0,537.0,0.0,0,2102.0,0
160,160,-0.3994486929697969,-0.4,1.0,0.0,250.0,925.0,0.0,0,1825.0,1
161,161,0.006502114917617208,0.0,0.0,0.0,391.0,773.0,0.0,1,1836.0,1
162,162,-0.7445280099364683,-0.7,1.0,0.0,415.0,665.0,0.0,0,1920.0,1
163,163,-0.5326456629926682,-0.5,1.0,0.0,296.0,726.0,0.0,0,1978.0,1
164,164,-0.6368175284071353,-0.6,1.0,0.0,279.0,985.0,0.0,0,-1224.0,1
165,165,-0.5311073320822405,-0.5,1.0,0.0,432.0,907.0,0.0,0,1661.0,1
166,166,0.3971451275980308,0.4,0.0,0.0,459.0,886.0,0.0,1,1655.0,1
167,167,-0.32163683802674214,-0.3,0.0,1.0,393.0,935.0,0.0,1,-1238.0,0
168,168,0.38508430003713034,0.4,0.0,0.0,473.0,882.0,0.0,1,1645.0,1
169,169,-0.8324328065077448,-0.8,1.0,0.0,294.0,509.0,0.0,0,2197.0,1
170,170,-0.10871631477842347,-0.1,1.0,0.0,399.0,726.0,0.0,0,1875.0,1
171,171,-0.8767469573457009,-0.9,1.0,0.0,477.0,521.0,0.0,0,2002.0,1
172,172,0.7709367673435651,0.8,1.0,1.0,412.0,824.0,0.0,0,1764.0,0
173,173,0.27800945893306805,0.3,1.0,1.0,446.0,536.0,0.0,0,2018.0,0
174,174,-0.7538623347144334,-0.8,0.0,1.0,481.0,606.0,0.0,1,1913.0,0
175,175,0.8471394245106517,0.8,0.0,0.0,494.0,982.0,0.0,1,1524.0,1
176,176,-0.14312141173610038,-0.1,0.0,1.0,474.0,942.0,0.0,1,-1326.0,0
177,177,0.1697645429558886,0.2,1.0,1.0,494.0,929.0,0.0,0,1577.0,0
178,178,-0.3764501047135075,-0.4,0.0,1.0,270.0,901.0,0.0,1,1829.0,0
179,179,0.8863761979279642,0.9,0.0,0.0,366.0,830.0,0.0,1,1804.0,1
180,180,0.546453832075045,0.5,0.0,0.0,250.0,634.0,0.0,1,2116.0,1
181,181,0.10939796277525249,0.1,1.0,1.0,305.0,880.0,0.0,0,1815.0,0
182,182,0.5497586600071499,0.5,1.0,1.0,470.0,610.0,0.0,0,1920.0,0
183,183,-0.2871415107571038,-0.3,0.0,1.0,495.0,565.0,0.0,1,1940.0,0
184,184,0.68788576361433,0.7,0.0,0.0,259.0,906.0,0.0,1,1835.0,1
185,185,0.35105798292105794,0.4,1.0,1.0,332.0,736.0,0.0,0,1932.0,0
186,186,0.34834731761704585,0.3,1.0,1.0,453.0,874.0,0.0,0,1673.0,0
187,187,0.5063731902239675,0.5,0.0,0.0,468.0,865.0,0.0,1,1667.0,1
188,188,-0.6658297665595745,-0.7,0.0,1.0,369.0,606.0,0.0,1,2025.0,0
189,189,-0.7077840838520171,-0.7,1.0,0.0,456.0,902.0,0.0,0,1642.0,1
190,190,-0.22909049608025633,-0.2,1.0,0.0,304.0,900.0,0.0,0,1796.0,1
191,191,-0.2564167359266638,-0.3,0.0,1.0,435.0,568.0,1.0,0,-943.0,1
192,192,0.6280086486400808,0.6,0.0,0.0,437.0,809.0,0.0,1,1754.0,1
193,193,-0.20521952580286695,-0.2,0.0,1.0,346.0,787.0,0.0,1,1867.0,0
194,194,0.0770755363402783,0.1,1.0,1.0,310.0,593.0,0.0,0,2097.0,0
195,195,-0.0311480693220495,-0.0,1.0,0.0,495.0,780.0,0.0,0,1725.0,1
196,196,-0.8812203835955282,-0.9,1.0,0.0,463.0,928.0,1.0,1,-1321.0,0
197,197,-0.04505907117132901,-0.0,0.0,1.0,377.0,693.0,1.0,0,-1070.0,1
198,198,0.2709205444821384,0.3,0.0,0.0,489.0,966.0,0.0,1,1545.0,1
199,199,0.21946369351819162,0.2,0.0,0.0,283.0,735.0,0.0,1,1982.0,1
200,200,-0.7731155147810711,-0.8,0.0,1.0,445.0,772.0,0.0,1,1783.0,0
201,201,0.32430720450008754,0.3,0.0,0.0,356.0,858.0,0.0,1,1786.0,1
202,202,0.7852568164401365,0.8,1.0,1.0,359.0,500.0,0.0,0,2141.0,0
203,203,-0.5697471817026549,-0.6,0.0,1.0,407.0,577.0,1.0,0,-924.0,1
204,204,-0.3989665093067776,-0.4,1.0,0.0,445.0,639.0,0.0,0,1916.0,1
205,205,0.7069729298983009,0.7,0.0,0.0,355.0,872.0,0.0,1,1773.0,1
206,206,-0.07175912558604403,-0.1,1.0,0.0,406.0,731.0,0.0,0,1863.0,1
207,207,0.6753584885937395,0.7,0.0,0.0,341.0,968.0,0.0,1,-1269.0,1
208,208,-0.8489333268253829,-0.8,1.0,0.0,461.0,866.0,0.0,0,1673.0,1
209,209,0.707192697325144,0.7,0.0,0.0,329.0,945.0,0.0,1,1726.0,1
210,210,-0.11125456175949211,-0.1,0.0,1.0,486.0,884.0,0.0,1,1630.0,0
211,211,-0.7283568321213291,-0.7,1.0,0.0,350.0,720.0,0.0,0,1930.0,1
212,212,0.06573386910773138,0.1,1.0,1.0,447.0,704.0,0.0,0,1849.0,0
213,213,-0.27366215471938937,-0.3,1.0,0.0,314.0,550.0,0.0,0,2136.0,1
214,214,0.6851179642545479,0.7,0.0,0.0,429.0,695.0,1.0,0,-934.0,0
215,215,0.5209560605247677,0.5,0.0,0.0,497.0,746.0,0.0,1,1757.0,1
216,216,0.6205604044775609,0.6,1.0,1.0,281.0,867.0,0.0,0,-1068.0,0
217,217,0.5991793909858106,0.6,0.0,0.0,329.0,575.0,0.0,1,2096.0,1
218,218,-0.10662866245980973,-0.1,1.0,0.0,367.0,979.0,0.0,0,1654.0,1
219,219,-0.19607035885719726,-0.2,1.0,0.0,441.0,550.0,0.0,0,2009.0,1
220,220,0.5704632094168335,0.6,1.0,1.0,318.0,789.0,0.0,0,1893.0,0
221,221,0.3727321668838123,0.4,1.0,1.0,347.0,632.0,0.0,0,2021.0,0
222,222,0.26148754270574626,0.3,0.0,0.0,474.0,749.0,0.0,1,1777.0,1
223,223,-0.6834927819064225,-0.7,0.0,1.0,347.0,710.0,0.0,1,1943.0,0
224,224,-0.5744822533932168,-0.6,0.0,1.0,295.0,819.0,0.0,1,1886.0,0
225,225,0.44596561832053483,0.4,1.0,1.0,433.0,774.0,1.0,1,-917.0,1
226,226,0.6379493261405081,0.6,1.0,1.0,261.0,996.0,0.0,0,1743.0,0
227,227,-0.4202993349966189,-0.4,0.0,1.0,401.0,585.0,0.0,1,2014.0,0
228,228,-0.6185929519867278,-0.6,0.0,1.0,377.0,732.0,0.0,1,1891.0,0
229,229,-0.5070363055941209,-0.5,0.0,1.0,442.0,517.0,0.0,1,2041.0,0
230,230,-0.22948594442677384,-0.2,0.0,1.0,429.0,937.0,0.0,1,1634.0,0
231,231,0.28155028379526337,0.3,1.0,1.0,255.0,959.0,1.0,1,-1184.0,1
232,232,-0.7895916281399105,-0.8,0.0,1.0,368.0,955.0,0.0,1,1677.0,0
233,233,0.61719784492486,0.6,1.0,1.0,312.0,711.0,0.0,0,1977.0,0
234,234,-0.3672618799184536,-0.4,0.0,1.0,271.0,716.0,0.0,1,2013.0,0
235,235,0.31792474137912097,0.3,0.0,0.0,413.0,564.0,0.0,1,2023.0,1
236,236,-0.3365849451728755,-0.3,0.0,1.0,438.0,682.0,0.0,1,1880.0,0
237,237,-0.7142412462324796,-0.7,0.0,1.0,278.0,840.0,0.0,1,1882.0,0
238,238,-0.3695795746322249,-0.4,1.0,0.0,451.0,701.0,0.0,0,1848.0,1
239,239,-0.5859107638931236,-0.6,1.0,0.0,386.0,687.0,0.0,0,1927.0,1
240,240,0.3438810294655198,0.3,1.0,1.0,367.0,728.0,0.0,0,1905.0,0
241,241,-0.3309506445338837,-0.3,1.0,0.0,442.0,676.0,0.0,0,1882.0,1
242,242,0.005447851747091947,0.0,0.0,0.0,406.0,941.0,0.0,1,1653.0,1
243,243,0.23593186696664759,0.2,1.0,1.0,490.0,698.0,0.0,0,1812.0,0
244,244,-0.5559262588768334,-0.6,0.0,1.0,452.0,895.0,0.0,1,1653.0,0
245,245,-0.36138208585895837,-0.4,1.0,0.0,318.0,904.0,0.0,0,1778.0,1
246,246,-0.09421386074479554,-0.1,0.0,1.0,250.0,870.0,0.0,1,1880.0,0
247,247,-0.17132054563160637,-0.2,1.0,0.0,364.0,935.0,0.0,0,1701.0,1
248,248,0.3383796655752761,0.3,0.0,0.0,251.0,867.0,1.0,0,-1098.0,0
249,249,-0.3147000895746902,-0.3,0.0,1.0,446.0,735.0,1.0,0,-1181.0,1
250,250,-0.0907796717754864,-0.1,1.0,0.0,359.0,920.0,0.0,0,1721.0,1
251,251,0.6197943426406184,0.6,0.0,0.0,491.0,779.0,0.0,1,1730.0,1
252,252,-0.09837839413786775,-0.1,0.0,1.0,310.0,528.0,0.0,1,2162.0,0
253,253,-0.07298375740137053,-0.1,1.0,0.0,297.0,692.0,0.0,0,2011.0,1
254,254,-0.7281139333875323,-0.7,0.0,1.0,487.0,512.0,0.0,1,2001.0,0
255,255,-0.3072062186585407,-0.3,0.0,1.0,479.0,640.0,0.0,1,1881.0,0
256,256,0.06472056847003094,0.1,0.0,0.0,453.0,867.0,0.0,1,1680.0,1
257,257,-0.8994366196017153,-0.9,0.0,1.0,408.0,965.0,0.0,1,1627.0,0
258,258,-0.8834181488277394,-0.9,1.0,0.0,436.0,755.0,0.0,0,1809.0,1
259,259,-0.013495719531405492,-0.0,1.0,0.0,451.0,929.0,0.0,0,1620.0,1
260,260,-0.7113442534294765,-0.7,0.0,1.0,462.0,811.0,0.0,1,1727.0,0
261,261,-0.5450561652575794,-0.5,0.0,1.0,278.0,799.0,0.0,1,1923.0,0
262,262,0.057311521591912995,0.1,0.0,0.0,459.0,593.0,0.0,1,1948.0,1
263,263,0.6525279458885974,0.7,1.0,1.0,397.0,637.0,0.0,0,1966.0,0
264,264,0.003989033094671912,0.0,1.0,1.0,326.0,829.0,0.0,0,-1095.0,0
265,265,-0.11479341143419897,-0.1,1.0,0.0,447.0,739.0,0.0,0,1814.0,1
266,266,0.8424189549468623,0.8,0.0,0.0,359.0,795.0,0.0,1,1846.0,1
267,267,-0.6260082019970781,-0.6,0.0,1.0,455.0,760.0,0.0,1,1785.0,0
268,268,-0.6756505211464253,-0.7,1.0,0.0,285.0,956.0,0.0,0,1759.0,1
269,269,0.5880605044540012,0.6,1.0,1.0,302.0,880.0,0.0,0,1818.0,0
270,270,0.198679582107406,0.2,1.0,1.0,444.0,980.0,0.0,0,1576.0,0
271,271,0.5222345128798068,0.5,1.0,1.0,305.0,897.0,0.0,0,1798.0,0
272,272,0.3028633002282263,0.3,1.0,1.0,307.0,531.0,0.0,0,2162.0,0
273,273,0.06682903952947383,0.1,0.0,0.0,333.0,594.0,0.0,1,2073.0,1
274,274,0.37066222356812195,0.4,1.0,1.0,364.0,605.0,0.0,0,2031.0,0
275,275,-0.6131015266123967,-0.6,0.0,1.0,422.0,882.0,0.0,1,1696.0,0
276,276,-0.7566831858117335,-0.8,1.0,0.0,381.0,860.0,0.0,0,1759.0,1
277,277,-0.6480440441023168,-0.6,0.0,1.0,381.0,876.0,0.0,1,1743.0,0
278,278,-0.8416904059052471,-0.8,0.0,1.0,473.0,789.0,0.0,1,1738.0,0
279,279,-0.8032412935416986,-0.8,0.0,1.0,463.0,737.0,0.0,1,1800.0,0
280,280,0.8727983386350676,0.9,0.0,0.0,314.0,680.0,0.0,1,2006.0,1
281,281,-0.777235008245752,-0.8,0.0,1.0,497.0,659.0,0.0,1,1844.0,0
282,282,0.4181809469466745,0.4,0.0,0.0,463.0,894.0,0.0,1,1643.0,1
283,283,0.7738303264392213,0.8,0.0,0.0,307.0,945.0,0.0,1,1748.0,1
284,284,-0.52511838802556,-0.5,1.0,0.0,403.0,752.0,0.0,0,1845.0,1
285,285,-0.5929345781147878,-0.6,1.0,0.0,364.0,502.0,0.0,0,2134.0,1
286,286,0.006317521253068503,0.0,1.0,1.0,398.0,887.0,0.0,0,1715.0,0
287,287,0.1512061126746903,0.2,0.0,0.0,492.0,549.0,0.0,1,1959.0,1
288,288,0.6752103836220723,0.7,1.0,1.0,338.0,929.0,0.0,0,1733.0,0
289,289,0.3329314504246038,0.3,1.0,1.0,425.0,653.0,0.0,0,1922.0,0
290,290,0.09611157074967946,0.1,1.0,1.0,413.0,700.0,0.0,0,1887.0,0
291,291,0.37423728542962087,0.4,1.0,1.0,312.0,518.0,0.0,0,2170.0,0
292,292,-0.2216856052330779,-0.2,0.0,1.0,298.0,711.0,0.0,1,1991.0,0
293,293,0.7395042002397526,0.7,0.0,0.0,331.0,723.0,0.0,1,1946.0,1
294,294,0.5806449636678,0.6,0.0,0.0,354.0,794.0,0.0,1,1852.0,1
295,295,0.805489515108511,0.8,0.0,0.0,452.0,787.0,0.0,1,1761.0,1
296,296,0.8769107522913714,0.9,0.0,0.0,319.0,978.0,0.0,1,1703.0,1
297,297,-0.7580629991811982,-0.8,0.0,1.0,457.0,587.0,0.0,1,1956.0,0
298,298,-0.06702696169398148,-0.1,1.0,0.0,484.0,967.0,0.0,0,1549.0,1
299,299,0.7505241990120127,0.8,0.0,0.0,404.0,627.0,0.0,1,1969.0,1
300,300,-0.8677989779157057,-0.9,1.0,0.0,490.0,937.0,0.0,0,1573.0,1
301,301,-0.1777899093773848,-0.2,1.0,0.0,351.0,794.0,0.0,0,1855.0,1
302,302,0.3145022849895692,0.3,1.0,1.0,405.0,938.0,0.0,0,1657.0,0
303,303,-0.32714811017753587,-0.3,1.0,0.0,444.0,742.0,0.0,0,1814.0,1
304,304,0.4107599690658096,0.4,1.0,1.0,490.0,886.0,0.0,0,1624.0,0
305,305,0.840405467570904,0.8,1.0,1.0,449.0,841.0,0.0,0,1710.0,0
306,306,0.2501553023943154,0.3,1.0,1.0,394.0,987.0,0.0,0,-1251.0,0
307,307,-0.18169483307429324,-0.2,0.0,1.0,485.0,706.0,0.0,1,1809.0,0
308,308,-0.07186571125511354,-0.1,1.0,0.0,396.0,615.0,0.0,0,1989.0,1
309,309,0.2512863598964402,0.3,1.0,1.0,473.0,883.0,0.0,0,1644.0,0
310,310,0.09632762965668118,0.1,0.0,0.0,372.0,998.0,1.0,0,-1220.0,0
311,311,0.8398626869150722,0.8,0.0,0.0,427.0,727.0,0.0,1,1846.0,1
312,312,0.35892678542109235,0.4,0.0,0.0,266.0,643.0,0.0,1,2091.0,1
313,313,0.3508312990362902,0.4,0.0,0.0,405.0,560.0,0.0,1,2035.0,1
314,314,0.1736123938063111,0.2,1.0,1.0,427.0,609.0,0.0,0,1964.0,0
315,315,-0.5131285072985468,-0.5,1.0,0.0,495.0,563.0,0.0,0,1942.0,1
316,316,0.591059585178736,0.6,0.0,0.0,444.0,815.0,0.0,1,1741.0,1
317,317,0.6837112323247966,0.7,0.0,0.0,422.0,616.0,0.0,1,1962.0,1
318,318,-0.7375852333933082,-0.7,0.0,1.0,288.0,841.0,0.0,1,1871.0,0
319,319,-0.22707786551379006,-0.2,0.0,1.0,285.0,841.0,0.0,1,1874.0,0
320,320,0.6816110078148875,0.7,1.0,1.0,312.0,659.0,0.0,0,2029.0,0
321,321,0.8452275991093844,0.8,1.0,1.0,454.0,598.0,1.0,1,-962.0,1
322,322,0.8810348402415181,0.9,1.0,1.0,274.0,842.0,0.0,0,1884.0,0
323,323,0.48496663907296866,0.5,0.0,0.0,293.0,606.0,1.0,0,-869.0,0
324,324,-0.6520968168711222,-0.7,1.0,0.0,297.0,824.0,0.0,0,1879.0,1
325,325,0.4663168100093479,0.5,0.0,0.0,399.0,602.0,0.0,1,1999.0,1
326,326,0.36255150504869726,0.4,0.0,0.0,480.0,778.0,0.0,1,1742.0,1
327,327,-0.026101535121519803,-0.0,1.0,0.0,410.0,562.0,0.0,0,2028.0,1
328,328,-0.4460914696584883,-0.4,0.0,1.0,432.0,864.0,0.0,1,1704.0,0
329,329,-0.4902773567701359,-0.5,0.0,1.0,400.0,796.0,0.0,1,-1076.0,0
330,330,0.3592838058482072,0.4,1.0,1.0,316.0,860.0,0.0,0,1824.0,0
331,331,-0.6936431409340125,-0.7,0.0,1.0,476.0,943.0,0.0,1,1581.0,0
332,332,0.34755778496059786,0.3,0.0,0.0,397.0,776.0,0.0,1,1827.0,1
333,333,-0.8003710360665601,-0.8,0.0,1.0,497.0,778.0,0.0,1,1725.0,0
334,334,-0.025429974532479638,-0.0,0.0,1.0,359.0,858.0,0.0,1,-1117.0,0
335,335,-0.47428814695708654,-0.5,0.0,1.0,362.0,898.0,0.0,1,1740.0,0
336,336,-0.21008922638396543,-0.2,1.0,0.0,298.0,959.0,0.0,0,1743.0,1
337,337,0.7673179407918246,0.8,1.0,1.0,339.0,555.0,0.0,0,2106.0,0
338,338,-0.1460208543287831,-0.1,0.0,1.0,354.0,512.0,0.0,1,2134.0,0
339,339,-0.5552631280661375,-0.6,0.0,1.0,498.0,682.0,0.0,1,1820.0,0
340,340,-0.3259195715183617,-0.3,0.0,1.0,256.0,964.0,0.0,1,1780.0,0
341,341,0.011389502686656172,0.0,0.0,0.0,299.0,903.0,0.0,1,1798.0,1
342,342,-0.5502436278927868,-0.6,0.0,1.0,399.0,714.0,0.0,1,1887.0,0
343,343,-0.0917782244467461,-0.1,1.0,0.0,428.0,691.0,0.0,0,1881.0,1
344,344,0.5107915711796701,0.5,0.0,0.0,381.0,623.0,0.0,1,1996.0,1
345,345,-0.11474962878341588,-0.1,0.0,1.0,445.0,709.0,0.0,1,1846.0,0
346,346,0.3223848606121057,0.3,0.0,0.0,253.0,878.0,0.0,1,-911.0,1
347,347,-0.7847207195265168,-0.8,0.0,1.0,306.0,508.0,0.0,1,2186.0,0
348,348,0.022222380354784188,0.0,0.0,0.0,428.0,799.0,0.0,1,1773.0,1
349,349,-0.7673161445045075,-0.8,0.0,1.0,292.0,719.0,0.0,1,1989.0,0
350,350,-0.8524341970897279,-0.9,0.0,1.0,422.0,829.0,0.0,1,1749.0,0
351,351,-0.30654294066662857,-0.3,0.0,1.0,389.0,624.0,0.0,1,1987.0,0
352,352,-0.24767366849832573,-0.2,0.0,1.0,465.0,650.0,0.0,1,1885.0,0
353,353,0.7622224989742671,0.8,1.0,1.0,305.0,955.0,0.0,0,1740.0,0
354,354,-0.48125165267215764,-0.5,1.0,0.0,418.0,582.0,0.0,0,2000.0,1
355,355,-0.543826071352169,-0.5,1.0,0.0,430.0,921.0,0.0,0,1649.0,1
356,356,-0.21639416968393765,-0.2,1.0,0.0,317.0,724.0,0.0,0,1959.0,1
357,357,-0.48817189450796555,-0.5,1.0,0.0,421.0,986.0,0.0,0,1593.0,1
358,358,-0.7114209239384289,-0.7,0.0,1.0,289.0,902.0,0.0,1,1809.0,0
359,359,-0.3038779860762726,-0.3,1.0,0.0,315.0,533.0,0.0,0,2152.0,1
360,360,0.11625835847080979,0.1,1.0,1.0,268.0,832.0,0.0,0,1900.0,0
361,361,0.3428038932868188,0.3,0.0,0.0,280.0,977.0,0.0,1,1743.0,1
362,362,0.67239081430502,0.7,1.0,1.0,363.0,886.0,0.0,0,1751.0,0
363,363,-0.3038584395519547,-0.3,0.0,1.0,456.0,743.0,0.0,1,1801.0,0
364,364,-0.8775088107670599,-0.9,1.0,0.0,264.0,626.0,0.0,0,2110.0,1
365,365,0.22602981993717564,0.2,0.0,0.0,474.0,726.0,0.0,1,1800.0,1
366,366,0.7365969280616379,0.7,1.0,1.0,342.0,681.0,0.0,0,1977.0,0
367,367,-0.16695856007913967,-0.2,0.0,1.0,427.0,998.0,0.0,1,1575.0,0
368,368,0.2925183698044146,0.3,1.0,1.0,302.0,655.0,0.0,0,2043.0,0
369,369,0.6321030183097901,0.6,1.0,1.0,307.0,640.0,0.0,0,2053.0,0
370,370,-0.20279396003131223,-0.2,1.0,0.0,360.0,720.0,0.0,0,1920.0,1
371,371,-0.8648988621486196,-0.9,0.0,1.0,446.0,544.0,0.0,1,2010.0,0
372,372,-0.3136478667606305,-0.3,1.0,0.0,356.0,894.0,0.0,0,1750.0,1
373,373,0.18728675503702774,0.2,0.0,0.0,268.0,588.0,0.0,1,2144.0,1
374,374,-0.3340070105411874,-0.3,1.0,0.0,421.0,917.0,0.0,0,1662.0,1
375,375,0.13211825756875928,0.1,0.0,0.0,263.0,643.0,1.0,0,-746.0,0
376,376,-0.881046400583066,-0.9,1.0,0.0,321.0,652.0,0.0,0,2027.0,1
377,377,0.6230030183106564,0.6,0.0,0.0,374.0,891.0,0.0,1,1735.0,1
378,378,0.3658965110003508,0.4,0.0,0.0,324.0,867.0,0.0,1,1809.0,1
379,379,0.8675459374056601,0.9,1.0,1.0,460.0,693.0,0.0,0,1847.0,0
380,380,0.7837372085430739,0.8,0.0,0.0,431.0,949.0,0.0,1,1620.0,1
381,381,0.017913795639632468,0.0,1.0,1.0,403.0,910.0,0.0,0,1687.0,0
382,382,-0.30717847527649755,-0.3,1.0,0.0,367.0,863.0,0.0,0,1770.0,1
383,383,-0.7409857983336009,-0.7,0.0,1.0,469.0,508.0,0.0,1,2023.0,0
384,384,0.34518138908116713,0.3,0.0,0.0,446.0,506.0,0.0,1,2048.0,1
385,385,-0.035460717716365386,-0.0,1.0,0.0,374.0,921.0,0.0,0,1705.0,1
386,386,-0.6928568835890608,-0.7,0.0,1.0,342.0,740.0,0.0,1,1918.0,0
387,387,-0.40091327156927725,-0.4,1.0,0.0,271.0,904.0,0.0,0,1825.0,1
388,388,-0.22458459292004052,-0.2,0.0,1.0,274.0,959.0,0.0,1,1767.0,0
389,389,0.2119566015285409,0.2,0.0,0.0,456.0,855.0,0.0,1,1689.0,1
390,390,-0.18277153967594828,-0.2,1.0,0.0,464.0,584.0,0.0,0,1952.0,1
391,391,-0.7046769016317442,-0.7,0.0,1.0,472.0,885.0,1.0,0,-1317.0,1
392,392,0.41355727836632494,0.4,1.0,1.0,422.0,631.0,0.0,0,1947.0,0
393,393,-0.6507807812374463,-0.7,1.0,0.0,256.0,577.0,0.0,0,2167.0,1
394,394,-0.5659345360699202,-0.6,0.0,1.0,284.0,527.0,0.0,1,2189.0,0
395,395,0.3812687884750773,0.4,0.0,0.0,441.0,653.0,0.0,1,1906.0,1
396,396,-0.2290718323136799,-0.2,0.0,1.0,313.0,874.0,0.0,1,1813.0,0
397,397,0.8135996515118392,0.8,1.0,1.0,498.0,958.0,0.0,0,1544.0,0
398,398,-0.20925713026936732,-0.2,0.0,1.0,492.0,605.0,0.0,1,1903.0,0
399,399,0.2607290267661827,0.3,0.0,0.0,263.0,558.0,0.0,1,2179.0,1
400,400,0.6539746893633861,0.7,0.0,0.0,308.0,567.0,0.0,1,2125.0,1
401,401,-0.8192827797517461,-0.8,0.0,1.0,271.0,786.0,0.0,1,1943.0,0
402,402,0.8327801293097842,0.8,0.0,0.0,445.0,883.0,0.0,1,1672.0,1
403,403,0.06755999880510022,0.1,0.0,0.0,457.0,517.0,0.0,1,2026.0,1
404,404,-0.14130026843620713,-0.1,1.0,0.0,303.0,696.0,0.0,0,2001.0,1
405,405,-0.465398556943131,-0.5,1.0,0.0,479.0,749.0,0.0,0,1772.0,1
406,406,-0.7021437279031513,-0.7,0.0,1.0,484.0,986.0,0.0,1,1530.0,0
407,407,0.47180833288948276,0.5,0.0,0.0,261.0,961.0,0.0,1,1778.0,1
408,408,-0.43293157646046565,-0.4,1.0,0.0,430.0,580.0,0.0,0,1990.0,1
409,409,-0.162634308974412,-0.2,1.0,0.0,250.0,953.0,1.0,1,-1133.0,0
410,410,0.2465968834025497,0.2,0.0,0.0,438.0,923.0,0.0,1,1639.0,1
411,411,-0.7102209487568004,-0.7,0.0,1.0,252.0,921.0,0.0,1,1827.0,0
412,412,-0.1737364476764034,-0.2,1.0,0.0,442.0,503.0,0.0,0,2055.0,1
413,413,0.3190891732073263,0.3,1.0,1.0,447.0,961.0,0.0,0,1592.0,0
414,414,0.2214367728121437,0.2,1.0,1.0,420.0,641.0,0.0,0,1939.0,0
415,415,0.059324091078325036,0.1,1.0,1.0,294.0,649.0,0.0,0,2057.0,0
416,416,0.797195004391592,0.8,0.0,0.0,400.0,655.0,0.0,1,1945.0,1
417,417,-0.7296767440207916,-0.7,1.0,0.0,488.0,700.0,0.0,0,1812.0,1
418,418,0.4853378998021526,0.5,1.0,1.0,459.0,509.0,0.0,0,2032.0,0
419,419,0.36437950636608585,0.4,0.0,0.0,459.0,984.0,0.0,1,1557.0,1
420,420,-0.2667078296662917,-0.3,0.0,1.0,325.0,737.0,0.0,1,1938.0,0
421,421,0.7167413748757999,0.7,0.0,0.0,298.0,713.0,0.0,1,1989.0,1
422,422,-0.01639155751344812,-0.0,1.0,0.0,274.0,772.0,0.0,0,1954.0,1
423,423,0.10262904891295233,0.1,1.0,1.0,357.0,568.0,0.0,0,2075.0,0
424,424,-0.5515391239029537,-0.6,0.0,1.0,256.0,837.0,0.0,1,1907.0,0
425,425,-0.003939871856189492,-0.0,1.0,0.0,413.0,981.0,0.0,0,1606.0,1
426,426,-0.7156848267457281,-0.7,0.0,1.0,443.0,635.0,0.0,1,1922.0,0
427,427,-0.1552269455445182,-0.2,1.0,0.0,433.0,664.0,0.0,0,1903.0,1
428,428,-0.0934524191803443,-0.1,0.0,1.0,257.0,723.0,0.0,1,2020.0,0
429,429,-0.18492474207943377,-0.2,0.0,1.0,448.0,923.0,0.0,1,1629.0,0
430,430,0.2507145845151658,0.3,1.0,1.0,426.0,876.0,0.0,0,1698.0,0
431,431,0.8920739763940863,0.9,1.0,1.0,351.0,987.0,0.0,0,1662.0,0
432,432,-0.5228735275613925,-0.5,0.0,1.0,312.0,716.0,0.0,1,1972.0,0
433,433,-0.07173051969740396,-0.1,0.0,1.0,384.0,711.0,0.0,1,1905.0,0
434,434,0.8016068080951372,0.8,0.0,0.0,320.0,833.0,0.0,1,1847.0,1
435,435,-0.7298650631910675,-0.7,1.0,0.0,402.0,599.0,0.0,0,1999.0,1
436,436,0.8824592247049842,0.9,0.0,0.0,336.0,776.0,0.0,1,1888.0,1
437,437,-0.16049099410130296,-0.2,0.0,1.0,320.0,575.0,0.0,1,2105.0,0
438,438,-0.6786443456679794,-0.7,1.0,0.0,441.0,559.0,0.0,0,2000.0,1
439,439,0.5440477105917122,0.5,1.0,1.0,364.0,968.0,0.0,0,1668.0,0
440,440,0.654916022849254,0.7,1.0,1.0,334.0,503.0,0.0,0,2163.0,0
441,441,0.7299288371783733,0.7,1.0,1.0,473.0,998.0,0.0,0,1529.0,0
442,442,-0.08248813907042696,-0.1,1.0,0.0,260.0,577.0,1.0,1,-767.0,0
443,443,-0.570831353775592,-0.6,0.0,1.0,294.0,757.0,0.0,1,-1011.0,0
444,444,0.7098359536181572,0.7,1.0,1.0,445.0,874.0,0.0,0,1681.0,0
445,445,0.5756062366828508,0.6,0.0,0.0,393.0,923.0,0.0,1,1684.0,1
446,446,0.8977763830062245,0.9,0.0,0.0,322.0,692.0,0.0,1,1986.0,1
447,447,0.3596104017250764,0.4,0.0,0.0,374.0,826.0,0.0,1,1800.0,1
448,448,-0.1815584993194841,-0.2,0.0,1.0,452.0,642.0,0.0,1,1906.0,0
449,449,-0.08324505870667331,-0.1,0.0,1.0,361.0,511.0,0.0,1,2128.0,0
450,450,0.3616337920661524,0.4,0.0,0.0,491.0,897.0,0.0,1,1612.0,1
451,451,-0.6490476473945344,-0.6,0.0,1.0,403.0,869.0,0.0,1,1728.0,0
452,452,0.3499801109967152,0.3,1.0,1.0,417.0,688.0,0.0,0,1895.0,0
453,453,-0.8379482149064287,-0.8,0.0,1.0,494.0,964.0,0.0,1,1542.0,0
454,454,0.699812604260735,0.7,0.0,0.0,464.0,964.0,0.0,1,1572.0,1
455,455,0.2986870688394422,0.3,1.0,1.0,254.0,606.0,0.0,0,2140.0,0
456,456,0.7835717023365004,0.8,0.0,0.0,301.0,562.0,0.0,1,2137.0,1
457,457,-0.17947728073947322,-0.2,0.0,1.0,445.0,884.0,0.0,1,1671.0,0
458,458,0.6450151211019869,0.6,0.0,0.0,282.0,967.0,0.0,1,1751.0,1
459,459,0.1717153916025026,0.2,1.0,1.0,342.0,869.0,0.0,0,1789.0,0
460,460,0.4736059508264888,0.5,1.0,1.0,480.0,624.0,0.0,0,1896.0,0
461,461,0.11641307002267032,0.1,0.0,0.0,280.0,638.0,0.0,1,-908.0,1
462,462,0.8046768053759036,0.8,1.0,1.0,406.0,713.0,0.0,0,1881.0,0
463,463,0.23492864851040418,0.2,0.0,0.0,286.0,589.0,0.0,1,2125.0,1
464,464,-0.11184007093434745,-0.1,0.0,1.0,263.0,613.0,0.0,1,2124.0,0
465,465,-0.4418899409226744,-0.4,0.0,1.0,395.0,754.0,0.0,1,1851.0,0
466,466,-0.12434281992398977,-0.1,0.0,1.0,389.0,560.0,0.0,1,2051.0,0
467,467,-0.40671267830352914,-0.4,0.0,1.0,379.0,588.0,0.0,1,2033.0,0
468,468,0.18017777909582533,0.2,0.0,0.0,478.0,900.0,1.0,0,-1268.0,0
469,469,0.6598376568215735,0.7,1.0,1.0,480.0,720.0,0.0,0,1800.0,0
470,470,-0.896751643634217,-0.9,0.0,1.0,356.0,592.0,0.0,1,2052.0,0
471,471,0.5664194960688315,0.6,1.0,1.0,266.0,565.0,0.0,0,2169.0,0
472,472,0.40942864578957094,0.4,0.0,0.0,398.0,711.0,0.0,1,1891.0,1
473,473,0.2955630595744668,0.3,1.0,1.0,429.0,558.0,1.0,1,-887.0,1
474,474,-0.25125860533540034,-0.3,0.0,1.0,492.0,530.0,0.0,1,1978.0,0
475,475,-0.5262660927068654,-0.5,0.0,1.0,296.0,689.0,0.0,1,2015.0,0
476,476,0.5711459329437497,0.6,0.0,0.0,304.0,579.0,0.0,1,2117.0,1
477,477,0.7422620935193959,0.7,1.0,1.0,380.0,865.0,0.0,0,1755.0,0
478,478,0.8208973711974089,0.8,0.0,0.0,484.0,595.0,0.0,1,1921.0,1
479,479,-0.1071018529600054,-0.1,0.0,1.0,352.0,825.0,0.0,1,1823.0,0
480,480,0.6695433922475728,0.7,0.0,0.0,416.0,794.0,1.0,0,-1110.0,0
481,481,0.23681327576480615,0.2,1.0,1.0,424.0,609.0,0.0,0,1967.0,0
482,482,-0.5968850065954548,-0.6,1.0,0.0,493.0,604.0,0.0,0,-1037.0,1
483,483,-0.8086166708216861,-0.8,0.0,1.0,289.0,566.0,0.0,1,2145.0,0
484,484,0.725497635617231,0.7,1.0,1.0,341.0,586.0,0.0,0,2073.0,0
485,485,-0.6013287681249933,-0.6,0.0,1.0,447.0,597.0,0.0,1,1956.0,0
486,486,0.5204926187545799,0.5,0.0,0.0,444.0,830.0,0.0,1,1726.0,1
487,487,-0.19453971294272954,-0.2,1.0,0.0,389.0,639.0,0.0,0,-878.0,1
488,488,0.10874778921402906,0.1,0.0,0.0,400.0,502.0,0.0,1,2098.0,1
489,489,0.35205847073770224,0.4,1.0,1.0,330.0,647.0,1.0,1,-677.0,1
490,490,0.11288904351466733,0.1,0.0,0.0,359.0,803.0,0.0,1,1838.0,1
491,491,-0.5774745148153864,-0.6,0.0,1.0,461.0,787.0,0.0,1,1752.0,0
492,492,-0.8460367331766032,-0.8,0.0,1.0,362.0,875.0,0.0,1,1763.0,0
493,493,-0.5298361917507344,-0.5,0.0,1.0,256.0,652.0,0.0,1,2092.0,0
494,494,0.020279465663451957,0.0,1.0,1.0,409.0,720.0,1.0,1,-1109.0,1
495,495,-0.17440720469824245,-0.2,1.0,0.0,475.0,855.0,0.0,0,-1240.0,1
496,496,0.13437155673486323,0.1,1.0,1.0,265.0,733.0,0.0,0,2002.0,0
497,497,0.12181256615616365,0.1,1.0,1.0,487.0,698.0,0.0,0,1815.0,0
498,498,-0.1713145198889695,-0.2,0.0,1.0,360.0,886.0,0.0,1,-1246.0,0
499,499,-0.0983274193413467,-0.1,1.0,0.0,311.0,722.0,0.0,0,1967.0,1
500,500,0.3035876251183248,0.3,1.0,1.0,347.0,523.0,0.0,0,2130.0,0
501,501,0.8799901508831985,0.9,1.0,1.0,483.0,762.0,0.0,0,1755.0,0
502,502,-0.3260739415864655,-0.3,0.0,1.0,470.0,983.0,0.0,1,1547.0,0
503,503,-0.6243607554925175,-0.6,1.0,0.0,473.0,526.0,0.0,0,2001.0,1
504,504,-0.6725078534263512,-0.7,0.0,1.0,479.0,532.0,0.0,1,1989.0,0
505,505,0.5994815476534731,0.6,1.0,1.0,426.0,613.0,0.0,0,1961.0,0
506,506,-0.7467472600308351,-0.7,0.0,1.0,350.0,723.0,0.0,1,1927.0,0
507,507,0.6713953313917641,0.7,0.0,0.0,338.0,892.0,0.0,1,1770.0,1
508,508,0.12242993982113692,0.1,1.0,1.0,442.0,959.0,0.0,0,1599.0,0
509,509,-0.27857054849181717,-0.3,0.0,1.0,343.0,970.0,0.0,1,1687.0,0
510,510,-0.5307296486457738,-0.5,0.0,1.0,278.0,615.0,0.0,1,2107.0,0
511,511,-0.7548948217256564,-0.8,1.0,0.0,384.0,880.0,1.0,1,-1254.0,0
512,512,-0.5806442498817561,-0.6,1.0,0.0,454.0,844.0,0.0,0,1702.0,1
513,513,-0.31287177692832224,-0.3,0.0,1.0,299.0,912.0,0.0,1,1789.0,0
514,514,0.7181062846799092,0.7,1.0,1.0,284.0,514.0,0.0,0,2202.0,0
515,515,-0.8001907835605738,-0.8,0.0,1.0,466.0,726.0,1.0,0,-1182.0,1
516,516,-0.4944727056040494,-0.5,0.0,1.0,341.0,571.0,0.0,1,2088.0,0
517,517,0.5944755986715714,0.6,0.0,0.0,402.0,641.0,0.0,1,1957.0,1
518,518,-0.7816798000948071,-0.8,0.0,1.0,389.0,841.0,0.0,1,1770.0,0
519,519,-0.00404604164943978,-0.0,1.0,0.0,425.0,930.0,0.0,0,1645.0,1
520,520,-0.21557239581553256,-0.2,0.0,1.0,480.0,691.0,0.0,1,1829.0,0
521,521,-0.15313647094374905,-0.2,0.0,1.0,489.0,994.0,0.0,1,1517.0,0
522,522,-0.02273888227728571,-0.0,0.0,1.0,372.0,642.0,0.0,1,1986.0,0
523,523,-0.2631575191652312,-0.3,1.0,0.0,459.0,805.0,0.0,0,1736.0,1
524,524,0.8742109169449864,0.9,1.0,1.0,365.0,708.0,0.0,0,1927.0,0
525,525,0.22075480463660424,0.2,0.0,0.0,463.0,765.0,0.0,1,1772.0,1
526,526,-0.31046776391879993,-0.3,0.0,1.0,275.0,515.0,1.0,0,-620.0,1
527,527,0.5491225132721519,0.5,1.0,1.0,393.0,743.0,0.0,0,1864.0,0
528,528,0.01233873329431534,0.0,0.0,0.0,389.0,594.0,0.0,1,2017.0,1
529,529,0.5953062448573604,0.6,0.0,0.0,273.0,981.0,0.0,1,1746.0,1
530,530,-0.6312545996841833,-0.6,1.0,0.0,467.0,695.0,1.0,1,-1072.0,0
531,531,-0.8986504937046821,-0.9,0.0,1.0,265.0,635.0,0.0,1,2100.0,0
532,532,-0.6751343846313789,-0.7,0.0,1.0,430.0,646.0,0.0,1,1924.0,0
533,533,0.08716729324992145,0.1,0.0,0.0,459.0,626.0,0.0,1,1915.0,1
534,534,0.26168981805743596,0.3,1.0,1.0,295.0,594.0,0.0,0,2111.0,0
535,535,0.18589676873708239,0.2,1.0,1.0,450.0,839.0,0.0,0,1711.0,0
536,536,-0.6056556473379154,-0.6,0.0,1.0,295.0,778.0,0.0,1,1927.0,0
537,537,0.758807641736677,0.8,0.0,0.0,462.0,562.0,0.0,1,1976.0,1
538,538,0.7639069547658525,0.8,1.0,1.0,347.0,879.0,0.0,0,1774.0,0
539,539,0.5386270135481287,0.5,0.0,0.0,432.0,584.0,0.0,1,1984.0,1
540,540,-0.49950771164572155,-0.5,0.0,1.0,254.0,966.0,0.0,1,1780.0,0
541,541,-0.5041389323097522,-0.5,0.0,1.0,386.0,728.0,0.0,1,1886.0,0
542,542,0.8928416842222268,0.9,0.0,0.0,271.0,669.0,0.0,1,2060.0,1
543,543,-0.20167795896420315,-0.2,0.0,1.0,453.0,595.0,0.0,1,1952.0,0
544,544,0.3216391602769343,0.3,1.0,1.0,462.0,797.0,0.0,0,1741.0,0
545,545,0.15686661952109093,0.2,1.0,1.0,436.0,699.0,0.0,0,1865.0,0
546,546,-0.3918403113846519,-0.4,0.0,1.0,279.0,593.0,0.0,1,2128.0,0
547,547,0.05049088810666025,0.1,1.0,1.0,461.0,689.0,0.0,0,1850.0,0
548,548,0.33109911062480946,0.3,1.0,1.0,419.0,890.0,0.0,0,1691.0,0
549,549,-0.14592390268002364,-0.1,0.0,1.0,399.0,621.0,0.0,1,1980.0,0
550,550,0.3206203384862135,0.3,0.0,0.0,300.0,836.0,0.0,1,1864.0,1
551,551,0.3008206481632415,0.3,1.0,1.0,413.0,990.0,0.0,0,1597.0,0
552,552,0.031737391943109206,0.0,0.0,0.0,322.0,620.0,0.0,1,2058.0,1
553,553,0.4806808723413579,0.5,0.0,0.0,362.0,887.0,0.0,1,1751.0,1
554,554,-0.7994168745989322,-0.8,1.0,0.0,490.0,553.0,0.0,0,1957.0,1
555,555,0.6046180099537107,0.6,1.0,1.0,367.0,801.0,0.0,0,1832.0,0
556,556,-0.6736659321833366,-0.7,0.0,1.0,455.0,535.0,0.0,1,2010.0,0
557,557,0.735305543567265,0.7,0.0,0.0,422.0,868.0,0.0,1,1710.0,1
558,558,0.7553532869197269,0.8,1.0,1.0,306.0,680.0,0.0,0,2014.0,0
559,559,-0.3972564174321117,-0.4,0.0,1.0,324.0,682.0,0.0,1,1994.0,0
560,560,-0.5006757475886006,-0.5,0.0,1.0,354.0,516.0,0.0,1,2130.0,0
561,561,0.13288773568086276,0.1,0.0,0.0,387.0,863.0,0.0,1,1750.0,1
562,562,-0.17460034024034365,-0.2,0.0,1.0,254.0,929.0,0.0,1,1817.0,0
563,563,0.4754633127779856,0.5,1.0,1.0,282.0,645.0,0.0,0,2073.0,0
564,564,0.8294201764822723,0.8,0.0,0.0,391.0,506.0,0.0,1,-877.0,1
565,565,0.8559184708986637,0.9,0.0,0.0,499.0,652.0,0.0,1,1849.0,1
566,566,-0.7319330245607729,-0.7,0.0,1.0,490.0,881.0,0.0,1,1629.0,0
567,567,-0.31219438973025415,-0.3,0.0,1.0,484.0,809.0,0.0,1,1707.0,0
568,568,-0.47450228048890514,-0.5,1.0,0.0,421.0,686.0,0.0,0,-977.0,1
569,569,-0.6101842542911908,-0.6,0.0,1.0,339.0,920.0,0.0,1,1741.0,0
570,570,0.5365578735683071,0.5,1.0,1.0,425.0,859.0,0.0,0,1716.0,0
571,571,-0.8210402679447587,-0.8,0.0,1.0,260.0,856.0,0.0,1,1884.0,0
572,572,-0.2626615522059914,-0.3,0.0,1.0,326.0,784.0,0.0,1,1890.0,0
573,573,0.3470795062520383,0.3,0.0,0.0,301.0,890.0,0.0,1,1809.0,1
574,574,0.4019428752325628,0.4,0.0,0.0,408.0,657.0,0.0,1,1935.0,1
575,575,-0.014366131817569294,-0.0,0.0,1.0,432.0,543.0,0.0,1,2025.0,0
576,576,-0.5040228613250222,-0.5,1.0,0.0,430.0,807.0,0.0,0,1763.0,1
577,577,-0.720400241077559,-0.7,1.0,0.0,374.0,896.0,0.0,0,1730.0,1
578,578,0.49442534083884737,0.5,0.0,0.0,349.0,981.0,0.0,1,1670.0,1
579,579,-0.5448870375529071,-0.5,0.0,1.0,312.0,699.0,0.0,1,-1011.0,0
580,580,0.7343113214066087,0.7,1.0,1.0,432.0,873.0,0.0,0,-1255.0,0
581,581,-0.2661032129130355,-0.3,0.0,1.0,320.0,551.0,0.0,1,2129.0,0
582,582,0.2992647050275733,0.3,1.0,1.0,355.0,858.0,0.0,0,1787.0,0
583,583,0.7757139931497373,0.8,0.0,0.0,305.0,543.0,0.0,1,2152.0,1
584,584,0.5641649298313453,0.6,1.0,1.0,464.0,721.0,0.0,0,1815.0,0
585,585,0.8053979882527854,0.8,0.0,0.0,368.0,883.0,0.0,1,1749.0,1
586,586,-0.44777186644408407,-0.4,1.0,0.0,327.0,695.0,0.0,0,1978.0,1
587,587,-0.7615758650630294,-0.8,0.0,1.0,412.0,666.0,0.0,1,1922.0,0
588,588,-0.2638388265320728,-0.3,1.0,0.0,257.0,677.0,0.0,0,2066.0,1
589,589,-0.29797304014605475,-0.3,1.0,0.0,415.0,966.0,0.0,0,1619.0,1
590,590,0.6208660317841969,0.6,1.0,1.0,277.0,575.0,0.0,0,2148.0,0
591,591,-0.2527428771564332,-0.3,0.0,1.0,403.0,815.0,0.0,1,1782.0,0
592,592,-0.6442698416187003,-0.6,1.0,0.0,300.0,676.0,0.0,0,2024.0,1
593,593,-0.0838938102066048,-0.1,1.0,0.0,306.0,897.0,0.0,0,1797.0,1
594,594,0.039890367359558865,0.0,0.0,0.0,484.0,605.0,0.0,1,1911.0,1
595,595,0.4300771638274511,0.4,0.0,0.0,407.0,728.0,0.0,1,1865.0,1
596,596,-0.4673398143937913,-0.5,1.0,0.0,498.0,747.0,0.0,0,1755.0,1
597,597,-0.457312001470061,-0.5,0.0,1.0,280.0,543.0,0.0,1,2177.0,0
598,598,-0.5547625899883795,-0.6,0.0,1.0,373.0,612.0,0.0,1,2015.0,0
599,599,-0.14821642477809172,-0.1,1.0,0.0,370.0,714.0,0.0,0,1916.0,1
600,600,-0.7676832567235206,-0.8,1.0,0.0,442.0,543.0,0.0,0,2015.0,1
601,601,-0.19873220468790043,-0.2,1.0,0.0,400.0,612.0,1.0,1,-1002.0,0
602,602,0.8217540398879261,0.8,1.0,1.0,314.0,749.0,0.0,0,1937.0,0
603,603,0.013649894871514356,0.0,1.0,1.0,297.0,874.0,0.0,0,1829.0,0
604,604,0.6577514150343092,0.7,1.0,1.0,351.0,814.0,0.0,0,1835.0,0
605,605,-0.15965787031110135,-0.2,1.0,0.0,311.0,887.0,0.0,0,-1018.0,1
606,606,-0.05242541334244499,-0.1,0.0,1.0,361.0,840.0,1.0,0,-1151.0,1
607,607,-0.28949924028532736,-0.3,1.0,0.0,272.0,530.0,0.0,0,2198.0,1
608,608,-0.8177833110768422,-0.8,0.0,1.0,382.0,854.0,0.0,1,1764.0,0
609,609,0.3460771459663544,0.3,0.0,0.0,277.0,857.0,0.0,1,-1014.0,1
610,610,0.41690446624244226,0.4,0.0,0.0,440.0,822.0,0.0,1,1738.0,1
611,611,-0.06551572972236486,-0.1,1.0,0.0,380.0,772.0,1.0,1,-1072.0,0
612,612,0.3767454973719798,0.4,0.0,0.0,341.0,659.0,0.0,1,2000.0,1
613,613,0.148419503360108,0.1,1.0,1.0,420.0,693.0,0.0,0,1887.0,0
614,614,-0.48239266019721966,-0.5,0.0,1.0,304.0,555.0,0.0,1,2141.0,0
615,615,-0.12582356999578015,-0.1,0.0,1.0,432.0,965.0,0.0,1,1603.0,0
616,616,0.3328623898029158,0.3,0.0,0.0,393.0,622.0,0.0,1,1985.0,1
617,617,-0.1286821319375414,-0.1,1.0,0.0,254.0,615.0,0.0,0,2131.0,1
618,618,-0.803144468014885,-0.8,1.0,0.0,496.0,738.0,0.0,0,1766.0,1
619,619,-0.4548309152387481,-0.5,0.0,1.0,333.0,613.0,0.0,1,2054.0,0
620,620,0.6529685681781413,0.7,1.0,1.0,281.0,992.0,0.0,0,1727.0,0
621,621,0.17737412209990444,0.2,0.0,0.0,309.0,925.0,0.0,1,1766.0,1
622,622,0.02541086239679613,0.0,1.0,1.0,413.0,981.0,0.0,0,1606.0,0
623,623,0.8616134756286787,0.9,0.0,0.0,363.0,505.0,0.0,1,-838.0,1
624,624,0.7612015975535164,0.8,0.0,0.0,499.0,509.0,0.0,1,1992.0,1
625,625,0.3220897175461953,0.3,1.0,1.0,277.0,598.0,0.0,0,2125.0,0
626,626,-0.4358730359777128,-0.4,1.0,0.0,385.0,766.0,0.0,0,1849.0,1
627,627,-0.09373020440659863,-0.1,0.0,1.0,375.0,583.0,0.0,1,2042.0,0
628,628,-0.4137255568038556,-0.4,0.0,1.0,300.0,956.0,0.0,1,1744.0,0
629,629,0.06835439947393729,0.1,0.0,0.0,478.0,998.0,0.0,1,1524.0,1
630,630,-0.13996229276896033,-0.1,0.0,1.0,297.0,635.0,1.0,0,-892.0,1
631,631,0.7555063317920169,0.8,1.0,1.0,313.0,767.0,0.0,0,1920.0,0
632,632,0.37052391834314624,0.4,1.0,1.0,495.0,559.0,0.0,0,1946.0,0
633,633,0.8121289530868022,0.8,0.0,0.0,441.0,662.0,0.0,1,1897.0,1
634,634,-0.163995304272341,-0.2,0.0,1.0,400.0,875.0,0.0,1,1725.0,0
635,635,-0.8631237435403164,-0.9,0.0,1.0,388.0,696.0,0.0,1,1916.0,0
636,636,0.5882866427267358,0.6,0.0,0.0,295.0,528.0,0.0,1,2177.0,1
637,637,-0.7582836932605008,-0.8,0.0,1.0,250.0,993.0,0.0,1,1757.0,0
638,638,-0.43589584148732996,-0.4,1.0,0.0,433.0,782.0,1.0,1,-1175.0,0
639,639,0.12977754686398846,0.1,1.0,1.0,431.0,972.0,0.0,0,1597.0,0
640,640,0.4301391063133423,0.4,0.0,0.0,414.0,540.0,0.0,1,2046.0,1
641,641,0.07370533374390698,0.1,0.0,0.0,363.0,581.0,0.0,1,2056.0,1
642,642,0.2124577395351096,0.2,1.0,1.0,290.0,922.0,0.0,0,-1202.0,0
643,643,0.8578065583778235,0.9,0.0,0.0,318.0,888.0,0.0,1,1794.0,1
644,644,-0.14994117234164883,-0.1,0.0,1.0,370.0,647.0,0.0,1,1983.0,0
645,645,-0.6529358495313118,-0.7,1.0,0.0,490.0,537.0,0.0,0,1973.0,1
646,646,0.06998606595558465,0.1,0.0,0.0,281.0,662.0,0.0,1,2057.0,1
647,647,-0.2603154377399768,-0.3,1.0,0.0,449.0,651.0,1.0,1,-1010.0,0
648,648,0.3256249107816712,0.3,1.0,1.0,403.0,535.0,0.0,0,2062.0,0
649,649,0.7392403701194664,0.7,1.0,1.0,467.0,671.0,0.0,0,1862.0,0
650,650,0.6176555963293332,0.6,0.0,0.0,262.0,673.0,0.0,1,2065.0,1
651,651,-0.045010126362403424,-0.0,0.0,1.0,438.0,834.0,0.0,1,1728.0,0
652,652,-0.1367472454190155,-0.1,0.0,1.0,323.0,799.0,0.0,1,1878.0,0
653,653,0.7107672947692748,0.7,1.0,1.0,355.0,842.0,1.0,1,-987.0,1
654,654,0.8694009757502418,0.9,1.0,1.0,423.0,534.0,0.0,0,2043.0,0
655,655,0.636003761799434,0.6,0.0,0.0,497.0,537.0,0.0,1,1966.0,1
656,656,0.5056741125029917,0.5,0.0,0.0,271.0,937.0,1.0,0,-1198.0,0
657,657,-0.6091115433499786,-0.6,0.0,1.0,329.0,993.0,0.0,1,1678.0,0
658,658,0.12368648684209449,0.1,0.0,0.0,469.0,510.0,0.0,1,2021.0,1
659,659,0.6671917044498054,0.7,0.0,0.0,402.0,950.0,0.0,1,1648.0,1
660,660,-0.1631131696949507,-0.2,1.0,0.0,390.0,809.0,0.0,0,1801.0,1
661,661,0.8082590229906722,0.8,1.0,1.0,455.0,521.0,0.0,0,2024.0,0
662,662,0.1699939807015315,0.2,1.0,1.0,418.0,697.0,0.0,0,1885.0,0
663,663,0.28127731930863076,0.3,0.0,0.0,295.0,949.0,0.0,1,1756.0,1
664,664,-0.08982119078570217,-0.1,0.0,1.0,495.0,795.0,0.0,1,1710.0,0
665,665,-0.3261182082164441,-0.3,0.0,1.0,475.0,933.0,0.0,1,1592.0,0
666,666,0.3589714338028128,0.4,0.0,0.0,326.0,960.0,0.0,1,1714.0,1
667,667,0.6793593596460471,0.7,1.0,1.0,345.0,702.0,0.0,0,1953.0,0
668,668,-0.5568339421782331,-0.6,1.0,0.0,427.0,502.0,0.0,0,2071.0,1
669,669,0.26476342033182576,0.3,0.0,0.0,465.0,880.0,1.0,0,-1245.0,0
670,670,-0.14812375374710707,-0.1,1.0,0.0,396.0,854.0,0.0,0,1750.0,1
671,671,0.6559105593052447,0.7,1.0,1.0,349.0,944.0,0.0,0,1707.0,0
672,672,-0.26655428385641466,-0.3,1.0,0.0,283.0,619.0,0.0,0,2098.0,1
673,673,0.46217765508774333,0.5,1.0,1.0,318.0,954.0,0.0,0,1728.0,0
674,674,-0.11385238429108624,-0.1,1.0,0.0,452.0,749.0,0.0,0,1799.0,1
675,675,-0.8725361987404943,-0.9,1.0,0.0,428.0,975.0,0.0,0,1597.0,1
676,676,0.23027844772272477,0.2,0.0,0.0,426.0,995.0,0.0,1,1579.0,1
677,677,0.23574067905166285,0.2,0.0,0.0,427.0,557.0,0.0,1,2016.0,1
678,678,-0.40416685562105753,-0.4,0.0,1.0,303.0,803.0,0.0,1,1894.0,0
679,679,0.6504633305704371,0.7,1.0,1.0,460.0,996.0,0.0,0,1544.0,0
680,680,-0.8097132449692568,-0.8,1.0,0.0,383.0,812.0,0.0,0,1805.0,1
681,681,-0.5117018863743419,-0.5,0.0,1.0,373.0,610.0,0.0,1,2017.0,0
682,682,-0.1540861938667032,-0.2,1.0,0.0,390.0,796.0,0.0,0,1814.0,1
683,683,0.2728649248336287,0.3,1.0,1.0,317.0,681.0,0.0,0,2002.0,0
684,684,0.42046758088226477,0.4,1.0,1.0,459.0,979.0,0.0,0,1562.0,0
685,685,0.3236469221630648,0.3,0.0,0.0,279.0,914.0,0.0,1,1807.0,1
686,686,0.7403455120199666,0.7,0.0,0.0,451.0,615.0,0.0,1,1934.0,1
687,687,0.18232407778101478,0.2,0.0,0.0,493.0,930.0,0.0,1,1577.0,1
688,688,-0.8875430890692543,-0.9,0.0,1.0,310.0,694.0,0.0,1,1996.0,0
689,689,-0.25649784140180254,-0.3,1.0,0.0,393.0,916.0,0.0,0,1691.0,1
690,690,0.40010232501678,0.4,0.0,0.0,267.0,537.0,0.0,1,2196.0,1
691,691,0.05723283580973981,0.1,0.0,0.0,275.0,814.0,0.0,1,1911.0,1
692,692,-0.5056396578271581,-0.5,0.0,1.0,474.0,869.0,0.0,1,1657.0,0
693,693,-0.09155038453016051,-0.1,1.0,0.0,454.0,988.0,0.0,0,1558.0,1
694,694,-0.0010472006370829678,-0.0,0.0,1.0,407.0,717.0,0.0,1,1876.0,0
695,695,-0.0698347751144881,-0.1,1.0,0.0,314.0,824.0,0.0,0,1862.0,1
696,696,-0.3877001110748557,-0.4,1.0,0.0,340.0,928.0,0.0,0,1732.0,1
697,697,-0.6701312672471239,-0.7,0.0,1.0,378.0,589.0,0.0,1,2033.0,0
698,698,-0.12324886537449775,-0.1,0.0,1.0,323.0,683.0,0.0,1,1994.0,0
699,699,-0.4872799473908088,-0.5,0.0,1.0,333.0,915.0,0.0,1,1752.0,0
700,700,0.8713170213431812,0.9,1.0,1.0,371.0,904.0,0.0,0,1725.0,0
701,701,-0.832111620927346,-0.8,0.0,1.0,257.0,987.0,0.0,1,1756.0,0
702,702,0.0016605863708170077,0.0,1.0,1.0,426.0,702.0,0.0,0,1872.0,0
703,703,-0.25801278975684494,-0.3,0.0,1.0,468.0,803.0,0.0,1,1729.0,0
704,704,0.19841609918572545,0.2,0.0,0.0,450.0,685.0,0.0,1,1865.0,1
705,705,0.25621034753779937,0.3,1.0,1.0,393.0,877.0,0.0,0,1730.0,0
706,706,0.059765674890623455,0.1,1.0,1.0,493.0,699.0,0.0,0,1808.0,0
707,707,-0.02112278326884587,-0.0,0.0,1.0,283.0,532.0,0.0,1,2185.0,0
708,708,0.7812980398887265,0.8,0.0,0.0,352.0,884.0,0.0,1,1764.0,1
709,709,0.3225604630705371,0.3,0.0,0.0,314.0,690.0,0.0,1,1996.0,1
710,710,-0.4748956470666921,-0.5,1.0,0.0,397.0,960.0,0.0,0,1643.0,1
711,711,-0.7894701621978467,-0.8,1.0,0.0,271.0,857.0,0.0,0,1872.0,1
712,712,0.6656252771147185,0.7,1.0,1.0,278.0,599.0,0.0,0,2123.0,0
713,713,0.03576390794877948,0.0,1.0,1.0,358.0,896.0,1.0,1,-944.0,1
714,714,0.3714330342277975,0.4,0.0,0.0,273.0,939.0,0.0,1,-1142.0,1
715,715,-0.46169443770471713,-0.5,0.0,1.0,312.0,808.0,0.0,1,1880.0,0
716,716,0.2169723854323905,0.2,1.0,1.0,440.0,778.0,0.0,0,1782.0,0
717,717,-0.20260085893834,-0.2,1.0,0.0,499.0,585.0,0.0,0,1916.0,1
718,718,0.1378897620146361,0.1,1.0,1.0,298.0,963.0,0.0,0,1739.0,0
719,719,0.3069667137513058,0.3,1.0,1.0,487.0,643.0,1.0,1,-990.0,1
720,720,0.6608542305398711,0.7,0.0,0.0,256.0,831.0,0.0,1,1913.0,1
721,721,0.2171855847442169,0.2,1.0,1.0,433.0,816.0,0.0,0,1751.0,0
722,722,0.6060707931902688,0.6,0.0,0.0,416.0,867.0,0.0,1,1717.0,1
723,723,0.8760378037561257,0.9,0.0,0.0,426.0,981.0,0.0,1,1593.0,1
724,724,-0.3647311274439273,-0.4,1.0,0.0,457.0,645.0,0.0,0,1898.0,1
725,725,0.3818991739968477,0.4,1.0,1.0,395.0,952.0,0.0,0,1653.0,0
726,726,-0.14149567778680117,-0.1,1.0,0.0,365.0,823.0,1.0,1,-1148.0,0
727,727,0.0031570435415089193,0.0,0.0,0.0,397.0,831.0,0.0,1,1772.0,1
728,728,0.7278162978648496,0.7,1.0,1.0,402.0,872.0,0.0,0,1726.0,0
729,729,-0.5025985709002743,-0.5,0.0,1.0,350.0,501.0,0.0,1,2149.0,0
730,730,0.08262606863367683,0.1,0.0,0.0,478.0,715.0,0.0,1,1807.0,1
731,731,0.5562890972347593,0.6,0.0,0.0,442.0,862.0,0.0,1,-1244.0,1
732,732,0.23339532548224862,0.2,1.0,1.0,343.0,503.0,0.0,0,2154.0,0
733,733,-0.05329153494478445,-0.1,0.0,1.0,489.0,644.0,0.0,1,1867.0,0
734,734,0.8941581825555499,0.9,0.0,0.0,374.0,717.0,0.0,1,1909.0,1
735,735,0.5346610554593502,0.5,0.0,0.0,415.0,646.0,0.0,1,-881.0,1
736,736,0.8515885367260366,0.9,1.0,1.0,289.0,531.0,0.0,0,2180.0,0
737,737,0.5649365487160553,0.6,1.0,1.0,408.0,652.0,0.0,0,1940.0,0
738,738,-0.811467309526628,-0.8,1.0,0.0,462.0,842.0,1.0,1,-1274.0,0
739,739,0.7839779377095576,0.8,1.0,1.0,391.0,689.0,0.0,0,1920.0,0
740,740,-0.8931894239656794,-0.9,1.0,0.0,275.0,800.0,0.0,0,1925.0,1
741,741,0.11929292405093272,0.1,0.0,0.0,383.0,520.0,0.0,1,2097.0,1
742,742,-0.048417525484787505,-0.0,0.0,1.0,414.0,819.0,0.0,1,1767.0,0
743,743,-0.28362708707461093,-0.3,0.0,1.0,402.0,587.0,0.0,1,2011.0,0
744,744,-0.27443005744248583,-0.3,1.0,0.0,380.0,945.0,0.0,0,1675.0,1
745,745,-0.36653412910267136,-0.4,1.0,0.0,280.0,959.0,0.0,0,1761.0,1
746,746,-0.11902149983249655,-0.1,0.0,1.0,431.0,915.0,0.0,1,1654.0,0
747,747,-0.533253343875054,-0.5,1.0,0.0,388.0,791.0,0.0,0,1821.0,1
748,748,0.22074964914061257,0.2,0.0,0.0,295.0,968.0,0.0,1,1737.0,1
749,749,-0.16798362387692445,-0.2,0.0,1.0,497.0,960.0,0.0,1,1543.0,0
750,750,0.5312113357108214,0.5,1.0,1.0,472.0,760.0,0.0,0,1768.0,0
751,751,-0.5538631980037722,-0.6,1.0,0.0,450.0,749.0,0.0,0,1801.0,1
752,752,0.12599711499197308,0.1,0.0,0.0,320.0,549.0,0.0,1,2131.0,1
753,753,0.6394499671341586,0.6,1.0,1.0,346.0,596.0,0.0,0,2058.0,0
754,754,0.3632722901176536,0.4,0.0,0.0,404.0,743.0,0.0,1,1853.0,1
755,755,-0.6930682767275663,-0.7,1.0,0.0,463.0,531.0,0.0,0,2006.0,1
756,756,-0.3959462894186636,-0.4,0.0,1.0,453.0,703.0,0.0,1,1844.0,0
757,757,-0.26160132488530685,-0.3,1.0,0.0,444.0,521.0,0.0,0,2035.0,1
758,758,-0.3742233975037327,-0.4,0.0,1.0,328.0,952.0,0.0,1,1720.0,0
759,759,0.7884412213034234,0.8,0.0,0.0,341.0,830.0,0.0,1,1829.0,1
760,760,-0.23164575024260003,-0.2,1.0,0.0,252.0,970.0,0.0,0,1778.0,1
761,761,0.7792673969392153,0.8,1.0,1.0,287.0,592.0,0.0,0,2121.0,0
762,762,0.11436568304559047,0.1,0.0,0.0,312.0,692.0,0.0,1,1996.0,1
763,763,-0.8171389771088208,-0.8,0.0,1.0,444.0,900.0,0.0,1,1656.0,0
764,764,-0.5867488117042834,-0.6,1.0,0.0,251.0,768.0,0.0,0,1981.0,1
765,765,-0.2511601627423855,-0.3,1.0,0.0,351.0,958.0,0.0,0,1691.0,1
766,766,-0.042062548168240954,-0.0,0.0,1.0,306.0,853.0,0.0,1,1841.0,0
767,767,-0.6571358432283412,-0.7,1.0,0.0,363.0,721.0,0.0,0,1916.0,1
768,768,-0.8542762232367376,-0.9,0.0,1.0,384.0,761.0,0.0,1,1855.0,0
769,769,0.3232233935698611,0.3,0.0,0.0,476.0,999.0,0.0,1,1525.0,1
770,770,0.8724739227307209,0.9,1.0,1.0,359.0,938.0,0.0,0,1703.0,0
771,771,-0.09253018404166202,-0.1,1.0,0.0,375.0,906.0,0.0,0,1719.0,1
772,772,-0.8235813553919992,-0.8,1.0,0.0,353.0,632.0,0.0,0,2015.0,1
773,773,-0.3096530485148902,-0.3,1.0,0.0,451.0,604.0,0.0,0,1945.0,1
774,774,0.14719452778797948,0.1,0.0,0.0,421.0,960.0,0.0,1,1619.0,1
775,775,-0.8267361081880082,-0.8,1.0,0.0,314.0,916.0,0.0,0,1770.0,1
776,776,-0.09720470195846986,-0.1,0.0,1.0,488.0,864.0,0.0,1,1648.0,0
777,777,0.07089226537102078,0.1,0.0,0.0,477.0,676.0,0.0,1,1847.0,1
778,778,0.3286393835836924,0.3,1.0,1.0,372.0,938.0,0.0,0,1690.0,0
779,779,0.046550896437615896,0.0,0.0,0.0,436.0,521.0,1.0,0,-887.0,0
780,780,-0.4564420196217461,-0.5,0.0,1.0,397.0,534.0,0.0,1,2069.0,0
781,781,0.5978460722339339,0.6,1.0,1.0,343.0,599.0,0.0,0,2058.0,0
782,782,-0.7566890075842606,-0.8,1.0,0.0,289.0,926.0,0.0,0,1785.0,1
783,783,-0.5966793375206757,-0.6,1.0,0.0,268.0,656.0,0.0,0,2076.0,1
784,784,0.4082634920351188,0.4,0.0,0.0,419.0,697.0,0.0,1,1884.0,1
785,785,0.12179726934542978,0.1,1.0,1.0,469.0,698.0,0.0,0,1833.0,0
786,786,0.6527687927371612,0.7,1.0,1.0,280.0,696.0,0.0,0,-866.0,0
787,787,0.8728803416343894,0.9,1.0,1.0,490.0,835.0,0.0,0,1675.0,0
788,788,0.537798230663321,0.5,0.0,0.0,344.0,558.0,0.0,1,2098.0,1
789,789,-0.12658080351159662,-0.1,0.0,1.0,388.0,618.0,0.0,1,1994.0,0
790,790,-0.5645450929383571,-0.6,1.0,0.0,471.0,896.0,0.0,0,1633.0,1
791,791,0.36441648972256646,0.4,0.0,0.0,481.0,790.0,0.0,1,1729.0,1
792,792,-0.6116769903963791,-0.6,1.0,0.0,263.0,886.0,0.0,0,1851.0,1
793,793,0.4225119433441412,0.4,0.0,0.0,268.0,603.0,0.0,1,2129.0,1
794,794,0.5198800246315388,0.5,1.0,1.0,316.0,917.0,0.0,0,1767.0,0
795,795,0.6178661225023269,0.6,0.0,0.0,429.0,636.0,0.0,1,-955.0,1
796,796,-0.06557728802452034,-0.1,1.0,0.0,458.0,662.0,0.0,0,1880.0,1
797,797,-0.0942176091084106,-0.1,0.0,1.0,251.0,593.0,0.0,1,2156.0,0
798,798,-0.8989982391799253,-0.9,1.0,0.0,378.0,974.0,0.0,0,1648.0,1
799,799,0.32415941826145167,0.3,0.0,0.0,449.0,844.0,0.0,1,1707.0,1
800,800,-0.06336311131570649,-0.1,1.0,0.0,261.0,816.0,0.0,0,1923.0,1
801,801,0.31208294498151756,0.3,0.0,0.0,374.0,951.0,0.0,1,1675.0,1
802,802,-0.0011792486943907887,-0.0,1.0,0.0,378.0,855.0,0.0,0,1767.0,1
803,803,-0.32495649082736267,-0.3,1.0,0.0,344.0,516.0,0.0,0,2140.0,1
804,804,0.056320737514567676,0.1,1.0,1.0,258.0,955.0,0.0,0,1787.0,0
805,805,-0.2766696471323581,-0.3,1.0,0.0,461.0,778.0,0.0,0,-1199.0,1
806,806,-0.6650019824928673,-0.7,1.0,0.0,495.0,852.0,0.0,0,1653.0,1
807,807,-0.6597515122789317,-0.7,0.0,1.0,438.0,840.0,0.0,1,1722.0,0
808,808,0.10202743570010797,0.1,1.0,1.0,417.0,585.0,0.0,0,1998.0,0
809,809,0.056915043415938005,0.1,0.0,0.0,318.0,865.0,1.0,0,-1153.0,0
810,810,-0.8338212812185489,-0.8,1.0,0.0,269.0,766.0,0.0,0,1965.0,1
811,811,-0.2994653158773435,-0.3,0.0,1.0,264.0,916.0,0.0,1,1820.0,0
812,812,0.26362498163000103,0.3,0.0,0.0,454.0,973.0,0.0,1,1573.0,1
813,813,0.23791333906020073,0.2,1.0,1.0,452.0,761.0,0.0,0,1787.0,0
814,814,-0.2904347933034249,-0.3,0.0,1.0,304.0,622.0,0.0,1,2074.0,0
815,815,-0.8895163602154338,-0.9,1.0,0.0,456.0,878.0,0.0,0,1666.0,1
816,816,-0.8829132306956038,-0.9,1.0,0.0,402.0,665.0,0.0,0,1933.0,1
817,817,0.19855094493348424,0.2,0.0,0.0,356.0,937.0,0.0,1,-1233.0,1
818,818,0.4493413755686554,0.4,0.0,0.0,430.0,986.0,0.0,1,1584.0,1
819,819,-0.25984047680823075,-0.3,1.0,0.0,258.0,878.0,0.0,0,1864.0,1
820,820,0.42533790488070233,0.4,0.0,0.0,403.0,528.0,1.0,0,-741.0,0
821,821,-0.6784639955259122,-0.7,1.0,0.0,352.0,558.0,0.0,0,2090.0,1
822,822,-0.028824428963208693,-0.0,1.0,0.0,322.0,577.0,0.0,0,2101.0,1
823,823,0.5832404246598025,0.6,1.0,1.0,388.0,654.0,0.0,0,1958.0,0
824,824,0.807782844193481,0.8,1.0,1.0,422.0,620.0,0.0,0,1958.0,0
825,825,0.5791970556063993,0.6,1.0,1.0,415.0,861.0,0.0,0,1724.0,0
826,826,-0.8692694241618368,-0.9,1.0,0.0,366.0,659.0,0.0,0,1975.0,1
827,827,-0.7400788562965094,-0.7,0.0,1.0,270.0,912.0,0.0,1,1818.0,0
828,828,-0.5355239312090884,-0.5,1.0,0.0,485.0,762.0,0.0,0,1753.0,1
829,829,-0.5588139325414165,-0.6,1.0,0.0,250.0,676.0,0.0,0,2074.0,1
830,830,0.642904004072358,0.6,1.0,1.0,347.0,881.0,0.0,0,1772.0,0
831,831,-0.3967134775323683,-0.4,0.0,1.0,480.0,713.0,0.0,1,1807.0,0
832,832,-0.7080734630103345,-0.7,1.0,0.0,431.0,642.0,0.0,0,1927.0,1
833,833,0.4940780561735706,0.5,1.0,1.0,260.0,554.0,0.0,0,2186.0,0
834,834,-0.08671995031420865,-0.1,0.0,1.0,349.0,512.0,1.0,0,-831.0,1
835,835,-0.3454405740200591,-0.3,1.0,0.0,380.0,819.0,0.0,0,1801.0,1
836,836,-0.27229567244770436,-0.3,1.0,0.0,381.0,664.0,1.0,1,-1005.0,0
837,837,0.3058117731035669,0.3,1.0,1.0,359.0,756.0,0.0,0,1885.0,0
838,838,0.767728741771096,0.8,1.0,1.0,389.0,975.0,0.0,0,1636.0,0
839,839,-0.7597795115095302,-0.8,1.0,0.0,331.0,966.0,0.0,0,1703.0,1
840,840,-0.4691462426774029,-0.5,1.0,0.0,295.0,977.0,0.0,0,1728.0,1
841,841,0.18096441472972435,0.2,1.0,1.0,353.0,712.0,0.0,0,-1015.0,0
842,842,-0.5436593408817549,-0.5,1.0,0.0,394.0,677.0,0.0,0,1929.0,1
843,843,-0.1734724692856039,-0.2,0.0,1.0,309.0,864.0,0.0,1,1827.0,0
844,844,0.4149633460094032,0.4,1.0,1.0,384.0,858.0,0.0,0,1758.0,0
845,845,0.4446788950369934,0.4,1.0,1.0,289.0,873.0,0.0,0,1838.0,0
846,846,0.6053778086426914,0.6,1.0,1.0,355.0,566.0,0.0,0,2079.0,0
847,847,-0.09418170112363722,-0.1,1.0,0.0,395.0,930.0,0.0,0,-1255.0,1
848,848,0.01572042245088212,0.0,0.0,0.0,373.0,663.0,0.0,1,1964.0,1
849,849,-0.4051169381130008,-0.4,0.0,1.0,469.0,862.0,0.0,1,1669.0,0
850,850,-0.5733779940313695,-0.6,0.0,1.0,288.0,661.0,0.0,1,2051.0,0
851,851,0.35573063329565946,0.4,0.0,0.0,303.0,661.0,0.0,1,2036.0,1
852,852,0.5361673121903866,0.5,1.0,1.0,334.0,516.0,0.0,0,2150.0,0
853,853,0.142904680617569,0.1,0.0,0.0,430.0,688.0,0.0,1,1882.0,1
854,854,-0.369930470167932,-0.4,0.0,1.0,426.0,830.0,0.0,1,1744.0,0
855,855,-0.2726838314692369,-0.3,1.0,0.0,386.0,862.0,0.0,0,1752.0,1
856,856,-0.8110062381184737,-0.8,0.0,1.0,258.0,680.0,0.0,1,2062.0,0
857,857,0.22167019321533277,0.2,0.0,0.0,305.0,643.0,1.0,0,-858.0,0
858,858,0.5879295126959853,0.6,0.0,0.0,434.0,632.0,0.0,1,1934.0,1
859,859,-0.7805130666855395,-0.8,0.0,1.0,326.0,774.0,0.0,1,1900.0,0
860,860,0.2485011370497584,0.2,0.0,0.0,471.0,914.0,0.0,1,1615.0,1
861,861,-0.8962380765015538,-0.9,1.0,0.0,484.0,838.0,0.0,0,1678.0,1
862,862,0.3578537328254795,0.4,0.0,0.0,433.0,857.0,0.0,1,1710.0,1
863,863,0.4874307822519247,0.5,0.0,0.0,267.0,763.0,0.0,1,1970.0,1
864,864,-0.8178887924241656,-0.8,0.0,1.0,443.0,998.0,0.0,1,1559.0,0
865,865,0.6865242741842855,0.7,0.0,0.0,378.0,827.0,0.0,1,1795.0,1
866,866,-0.12436857563685544,-0.1,0.0,1.0,497.0,607.0,0.0,1,1896.0,0
867,867,0.816799539380363,0.8,1.0,1.0,463.0,673.0,0.0,0,1864.0,0
868,868,0.6349828635411908,0.6,1.0,1.0,297.0,595.0,0.0,0,2108.0,0
869,869,-0.4507429771373755,-0.5,0.0,1.0,499.0,759.0,0.0,1,1742.0,0
870,870,0.2885497115057837,0.3,1.0,1.0,467.0,643.0,0.0,0,1890.0,0
871,871,0.0026480324807153233,0.0,1.0,1.0,267.0,516.0,0.0,0,2217.0,0
872,872,0.48329475765148355,0.5,1.0,1.0,279.0,760.0,0.0,0,1961.0,0
873,873,0.4764203274944584,0.5,0.0,0.0,384.0,653.0,0.0,1,1963.0,1
874,874,-0.8145896451321595,-0.8,0.0,1.0,278.0,838.0,0.0,1,1884.0,0
875,875,0.16583835935694957,0.2,0.0,0.0,331.0,749.0,0.0,1,1920.0,1
876,876,0.07921373589362635,0.1,0.0,0.0,454.0,671.0,1.0,0,-1105.0,0
877,877,-0.4781883300348749,-0.5,0.0,1.0,257.0,621.0,0.0,1,2122.0,0
878,878,-0.07437228484790648,-0.1,0.0,1.0,432.0,751.0,1.0,0,-1063.0,1
879,879,-0.3492066051438978,-0.3,0.0,1.0,334.0,660.0,0.0,1,2006.0,0
880,880,0.8165708834499613,0.8,0.0,0.0,364.0,976.0,0.0,1,1660.0,1
881,881,0.2893600148529015,0.3,0.0,0.0,399.0,554.0,0.0,1,2047.0,1
882,882,-0.805867456933544,-0.8,1.0,0.0,250.0,964.0,0.0,0,1786.0,1
883,883,-0.6445869995643115,-0.6,0.0,1.0,290.0,863.0,0.0,1,1847.0,0
884,884,0.5492015159438054,0.5,1.0,1.0,494.0,887.0,0.0,0,1619.0,0
885,885,-0.43131646219604314,-0.4,1.0,0.0,475.0,953.0,0.0,0,1572.0,1
886,886,-0.8790793247436226,-0.9,0.0,1.0,448.0,595.0,0.0,1,1957.0,0
887,887,-0.1969460975892423,-0.2,0.0,1.0,378.0,583.0,0.0,1,2039.0,0
888,888,0.8586662330905827,0.9,1.0,1.0,323.0,729.0,0.0,0,1948.0,0
889,889,0.6507026387190861,0.7,1.0,1.0,287.0,517.0,0.0,0,2196.0,0
890,890,-0.7338937689455289,-0.7,1.0,0.0,400.0,548.0,0.0,0,2052.0,1
891,891,-0.10251899496326411,-0.1,1.0,0.0,309.0,746.0,0.0,0,1945.0,1
892,892,0.4312936222899363,0.4,0.0,0.0,287.0,502.0,0.0,1,2211.0,1
893,893,0.6738630995006342,0.7,1.0,1.0,359.0,555.0,0.0,0,2086.0,0
894,894,-0.0571564005369819,-0.1,0.0,1.0,292.0,592.0,0.0,1,2116.0,0
895,895,0.20358920389160862,0.2,0.0,0.0,288.0,632.0,0.0,1,2080.0,1
896,896,0.39521402368289615,0.4,1.0,1.0,336.0,521.0,0.0,0,2143.0,0
897,897,0.38344039370333516,0.4,0.0,0.0,298.0,549.0,0.0,1,2153.0,1
898,898,0.707780856974665,0.7,0.0,0.0,363.0,994.0,0.0,1,1643.0,1
899,899,-0.016993764929101873,-0.0,0.0,1.0,424.0,748.0,0.0,1,1828.0,0
900,900,0.6727507964693599,0.7,0.0,0.0,252.0,581.0,0.0,1,2167.0,1
901,901,-0.6600994646593323,-0.7,1.0,0.0,385.0,517.0,0.0,0,-852.0,1
902,902,-0.3404558380644278,-0.3,1.0,0.0,401.0,910.0,0.0,0,1689.0,1
903,903,-0.285717014846418,-0.3,0.0,1.0,364.0,762.0,0.0,1,1874.0,0
904,904,-0.593359091506337,-0.6,0.0,1.0,375.0,884.0,0.0,1,1741.0,0
905,905,0.12157381863789152,0.1,0.0,0.0,257.0,822.0,1.0,0,-889.0,0
906,906,0.4138015400117333,0.4,0.0,0.0,405.0,913.0,0.0,1,1682.0,1
907,907,-0.39721917276388397,-0.4,0.0,1.0,371.0,521.0,0.0,1,2108.0,0
908,908,-0.7127278192916455,-0.7,0.0,1.0,440.0,804.0,0.0,1,1756.0,0
909,909,0.773277825737886,0.8,1.0,1.0,371.0,503.0,0.0,0,2126.0,0
910,910,0.4587679916530957,0.5,0.0,0.0,445.0,509.0,0.0,1,2046.0,1
911,911,0.2694279272726755,0.3,0.0,0.0,341.0,921.0,0.0,1,1738.0,1
912,912,0.16901410967992325,0.2,1.0,1.0,431.0,723.0,0.0,0,1846.0,0
913,913,0.15179068541814378,0.2,0.0,0.0,428.0,975.0,0.0,1,1597.0,1
914,914,0.5725968627516776,0.6,0.0,0.0,487.0,933.0,0.0,1,1580.0,1
915,915,0.09476679597885251,0.1,0.0,0.0,269.0,532.0,0.0,1,2199.0,1
916,916,-0.7067286447450448,-0.7,1.0,0.0,279.0,791.0,0.0,0,1930.0,1
917,917,-0.06907340521874861,-0.1,1.0,0.0,271.0,914.0,0.0,0,-1175.0,1
918,918,-0.13270822466694698,-0.1,1.0,0.0,368.0,927.0,0.0,0,1705.0,1
919,919,-0.225746762706577,-0.2,0.0,1.0,346.0,925.0,0.0,1,1729.0,0
920,920,0.2362808833550304,0.2,0.0,0.0,390.0,677.0,0.0,1,1933.0,1
921,921,0.3369265630300139,0.3,1.0,1.0,353.0,836.0,0.0,0,1811.0,0
922,922,-0.28295335559290713,-0.3,1.0,0.0,329.0,958.0,0.0,0,1713.0,1
923,923,-0.34832637721140347,-0.3,1.0,0.0,375.0,687.0,0.0,0,1938.0,1
924,924,-0.3343762896546212,-0.3,0.0,1.0,390.0,958.0,0.0,1,1652.0,0
925,925,0.3422111303360226,0.3,0.0,0.0,368.0,618.0,0.0,1,2014.0,1
926,926,0.6392726420289091,0.6,1.0,1.0,294.0,866.0,1.0,1,-1070.0,1
927,927,0.1976837166200497,0.2,1.0,1.0,409.0,941.0,0.0,0,1650.0,0
928,928,0.8651544277637818,0.9,1.0,1.0,329.0,749.0,0.0,0,1922.0,0
929,929,0.7042274951808091,0.7,1.0,1.0,373.0,875.0,0.0,0,1752.0,0
930,930,0.6398090324879725,0.6,0.0,0.0,286.0,948.0,0.0,1,1766.0,1
931,931,-0.8866459524744122,-0.9,1.0,0.0,266.0,937.0,0.0,0,1797.0,1
932,932,0.01739800266188174,0.0,0.0,0.0,401.0,831.0,0.0,1,1768.0,1
933,933,0.39348909335677573,0.4,1.0,1.0,455.0,933.0,0.0,0,-1288.0,0
934,934,-0.5275101198234693,-0.5,0.0,1.0,442.0,913.0,0.0,1,1645.0,0
935,935,-0.42880689218470874,-0.4,0.0,1.0,419.0,917.0,0.0,1,1664.0,0
936,936,0.8961605144707504,0.9,1.0,1.0,269.0,611.0,0.0,0,2120.0,0
937,937,-0.6263840397315081,-0.6,1.0,0.0,330.0,805.0,0.0,0,1865.0,1
938,938,-0.736634456763432,-0.7,0.0,1.0,464.0,862.0,0.0,1,1674.0,0
939,939,-0.7613108322480355,-0.8,1.0,0.0,444.0,898.0,0.0,0,-1342.0,1
940,940,-0.5417676182832335,-0.5,1.0,0.0,437.0,915.0,0.0,0,1648.0,1
941,941,0.2475190680119964,0.2,1.0,1.0,409.0,980.0,0.0,0,1611.0,0
942,942,0.8989242131078458,0.9,0.0,0.0,314.0,622.0,0.0,1,2064.0,1
943,943,0.693014937891176,0.7,1.0,1.0,430.0,671.0,0.0,0,1899.0,0
944,944,0.13368406545611633,0.1,1.0,1.0,330.0,940.0,0.0,0,1730.0,0
945,945,0.07667278551583612,0.1,0.0,0.0,397.0,609.0,0.0,1,1994.0,1
946,946,-0.4676031862290194,-0.5,1.0,0.0,430.0,589.0,0.0,0,1981.0,1
947,947,0.8353904640364157,0.8,0.0,0.0,488.0,810.0,1.0,0,-1228.0,0
948,948,-0.15939188543564664,-0.2,0.0,1.0,387.0,818.0,0.0,1,1795.0,0
949,949,-0.48659512548433864,-0.5,0.0,1.0,497.0,727.0,0.0,1,1776.0,0
950,950,-0.08085472776562586,-0.1,0.0,1.0,291.0,714.0,0.0,1,1995.0,0
951,951,-0.7777469553116615,-0.8,1.0,0.0,451.0,586.0,0.0,0,1963.0,1
952,952,-0.3899866712979215,-0.4,0.0,1.0,461.0,970.0,0.0,1,1569.0,0
953,953,0.8129941141192,0.8,1.0,1.0,341.0,824.0,0.0,0,1835.0,0
954,954,-0.5602074132875268,-0.6,0.0,1.0,406.0,857.0,0.0,1,1737.0,0
955,955,-0.6239172652244039,-0.6,0.0,1.0,285.0,931.0,0.0,1,-1166.0,0
956,956,-0.6168307769435255,-0.6,1.0,0.0,493.0,741.0,0.0,0,1766.0,1
957,957,-0.3692408154793374,-0.4,1.0,0.0,261.0,694.0,0.0,0,2045.0,1
958,958,-0.3014891374712293,-0.3,0.0,1.0,325.0,931.0,0.0,1,1744.0,0
959,959,0.16373558234020258,0.2,1.0,1.0,273.0,812.0,1.0,1,-1055.0,1
960,960,0.18330630243403723,0.2,1.0,1.0,488.0,915.0,0.0,0,1597.0,0
961,961,0.05198104153740435,0.1,0.0,0.0,280.0,762.0,0.0,1,1958.0,1
962,962,-0.5239967711431286,-0.5,0.0,1.0,340.0,748.0,0.0,1,1912.0,0
963,963,-0.41564275646818205,-0.4,1.0,0.0,458.0,901.0,0.0,0,1641.0,1
964,964,0.49957282588993845,0.5,0.0,0.0,498.0,877.0,0.0,1,1625.0,1
965,965,-0.7493075524810028,-0.7,0.0,1.0,314.0,558.0,0.0,1,2128.0,0
966,966,-0.44940044443399507,-0.4,0.0,1.0,330.0,699.0,0.0,1,1971.0,0
967,967,-0.15102364703439664,-0.2,0.0,1.0,416.0,753.0,0.0,1,1831.0,0
968,968,0.3419492424959546,0.3,0.0,0.0,346.0,639.0,0.0,1,2015.0,1
969,969,-0.7887802621907851,-0.8,0.0,1.0,291.0,991.0,0.0,1,1718.0,0
970,970,-0.86163440483206,-0.9,1.0,0.0,447.0,959.0,0.0,0,1594.0,1
971,971,-0.07501963203629813,-0.1,0.0,1.0,291.0,800.0,1.0,0,-1081.0,1
972,972,0.693820814642461,0.7,0.0,0.0,271.0,888.0,0.0,1,1841.0,1
973,973,0.5240128519602135,0.5,1.0,1.0,431.0,985.0,0.0,0,1584.0,0
974,974,-0.6086800239387085,-0.6,0.0,1.0,264.0,717.0,0.0,1,2019.0,0
975,975,-0.2656781298822928,-0.3,0.0,1.0,428.0,866.0,0.0,1,1706.0,0
976,976,0.3660927914326014,0.4,0.0,0.0,278.0,895.0,1.0,0,-1113.0,0
977,977,-0.47092127596319566,-0.5,1.0,0.0,325.0,782.0,0.0,0,-1067.0,1
978,978,0.08504245526666576,0.1,0.0,0.0,357.0,571.0,1.0,0,-918.0,0
979,979,0.649109864962966,0.6,1.0,1.0,295.0,812.0,0.0,0,1893.0,0
980,980,-0.47090964553447756,-0.5,0.0,1.0,431.0,578.0,0.0,1,1991.0,0
981,981,-0.41254758402447345,-0.4,1.0,0.0,385.0,986.0,0.0,0,1629.0,1
982,982,0.3419576635456597,0.3,0.0,0.0,298.0,505.0,0.0,1,2197.0,1
983,983,0.13802013192337548,0.1,0.0,0.0,293.0,746.0,0.0,1,1961.0,1
984,984,0.013186322344931223,0.0,1.0,1.0,452.0,736.0,0.0,0,1812.0,0
985,985,0.6315567082272534,0.6,1.0,1.0,482.0,794.0,0.0,0,1724.0,0
986,986,0.6148972421925724,0.6,0.0,0.0,356.0,879.0,0.0,1,1765.0,1
987,987,0.5145843445471753,0.5,0.0,0.0,489.0,627.0,1.0,0,-1066.0,0
988,988,0.8023668452339333,0.8,1.0,1.0,255.0,508.0,0.0,0,2237.0,0
989,989,0.18462527424154607,0.2,1.0,1.0,486.0,568.0,0.0,0,1946.0,0
990,990,-0.43048983336492297,-0.4,1.0,0.0,402.0,902.0,0.0,0,1696.0,1
991,991,0.8491324328551207,0.8,0.0,0.0,319.0,578.0,0.0,1,2103.0,1
992,992,0.38088059328928214,0.4,1.0,1.0,279.0,723.0,1.0,1,-1002.0,1
993,993,-0.5605569141906528,-0.6,0.0,1.0,337.0,889.0,0.0,1,1774.0,0
994,994,0.13987591323860749,0.1,1.0,1.0,349.0,749.0,0.0,0,1902.0,0
995,995,0.2100578638413343,0.2,0.0,0.0,283.0,756.0,0.0,1,1961.0,1
996,996,-0.3718705388032,-0.4,1.0,0.0,259.0,766.0,0.0,0,1975.0,1
997,997,-0.27412934988447246,-0.3,0.0,1.0,481.0,556.0,0.0,1,1963.0,0
998,998,-0.2939326489119374,-0.3,1.0,0.0,297.0,517.0,0.0,0,2186.0,1
999,999,0.24189679236064132,0.2,1.0,1.0,420.0,944.0,0.0,0,1636.0,0
1000,1000,-0.6128385899211064,-0.6,1.0,0.0,335.0,829.0,0.0,0,1836.0,1
1001,1001,0.6240472210461195,0.6,1.0,1.0,354.0,752.0,0.0,0,1894.0,0
1002,1002,0.1142181628561526,0.1,1.0,1.0,448.0,878.0,0.0,0,1674.0,0
1003,1003,0.376641532890183,0.4,0.0,0.0,311.0,904.0,0.0,1,1785.0,1
1004,1004,-0.16031720562352747,-0.2,1.0,0.0,318.0,912.0,0.0,0,1770.0,1
1005,1005,0.6864651061143064,0.7,1.0,1.0,491.0,703.0,0.0,0,1806.0,0
1006,1006,-0.4672754014960577,-0.5,0.0,1.0,351.0,508.0,0.0,1,-819.0,0
1007,1007,-0.7839071034731195,-0.8,1.0,0.0,278.0,599.0,0.0,0,2123.0,1
1008,1008,-0.22623337278386724,-0.2,1.0,0.0,394.0,868.0,0.0,0,1738.0,1
1009,1009,0.16321690060750405,0.2,0.0,0.0,257.0,777.0,0.0,1,1966.0,1
1010,1010,-0.1698555162185046,-0.2,1.0,0.0,311.0,796.0,0.0,0,1893.0,1
1011,1011,-0.2985766542773203,-0.3,1.0,0.0,385.0,526.0,0.0,0,2089.0,1
1012,1012,-0.8113343820970731,-0.8,0.0,1.0,336.0,537.0,0.0,1,2127.0,0
1013,1013,-0.4122132156674502,-0.4,1.0,0.0,295.0,570.0,0.0,0,2135.0,1
1014,1014,-0.5105055898037429,-0.5,1.0,0.0,320.0,973.0,0.0,0,1707.0,1
1015,1015,-0.11955596276041469,-0.1,1.0,0.0,407.0,601.0,0.0,0,1992.0,1
1016,1016,0.1948852895579095,0.2,0.0,0.0,343.0,981.0,0.0,1,1676.0,1
1017,1017,0.3924419445745825,0.4,1.0,1.0,304.0,959.0,0.0,0,1737.0,0
1018,1018,-0.27551102928125637,-0.3,1.0,0.0,273.0,940.0,0.0,0,1787.0,1
1019,1019,-0.519500499075326,-0.5,0.0,1.0,447.0,944.0,0.0,1,1609.0,0
1020,1020,0.12330368773179645,0.1,0.0,0.0,447.0,542.0,0.0,1,2011.0,1
1021,1021,-0.5931850295276487,-0.6,0.0,1.0,405.0,656.0,0.0,1,1939.0,0
1022,1022,-0.5985219621434601,-0.6,1.0,0.0,297.0,960.0,0.0,0,1743.0,1
1023,1023,-0.25293492004698315,-0.3,0.0,1.0,489.0,593.0,0.0,1,-1002.0,0
1024,1024,-0.5175859299295227,-0.5,0.0,1.0,472.0,516.0,0.0,1,2012.0,0
1025,1025,0.49262192152683093,0.5,0.0,0.0,316.0,972.0,0.0,1,1712.0,1
1026,1026,-0.46243071356079635,-0.5,0.0,1.0,285.0,682.0,0.0,1,2033.0,0
1027,1027,0.23504370012625364,0.2,0.0,0.0,311.0,889.0,0.0,1,1800.0,1
1028,1028,0.5952189470390151,0.6,0.0,0.0,443.0,865.0,0.0,1,1692.0,1
1029,1029,-0.5727386084226993,-0.6,1.0,0.0,481.0,690.0,0.0,0,1829.0,1
1030,1030,-0.6226626719879655,-0.6,1.0,0.0,396.0,813.0,0.0,0,1791.0,1
1031,1031,-0.3887411569755087,-0.4,1.0,0.0,457.0,789.0,0.0,0,1754.0,1
1032,1032,0.11782044700047678,0.1,0.0,0.0,290.0,651.0,0.0,1,2059.0,1
1033,1033,0.4890720466405899,0.5,0.0,0.0,287.0,912.0,0.0,1,1801.0,1
1034,1034,0.1094801457747524,0.1,1.0,1.0,252.0,683.0,0.0,0,2065.0,0
1035,1035,0.5918470984063121,0.6,0.0,0.0,280.0,922.0,0.0,1,1798.0,1
1036,1036,-0.20783862273965936,-0.2,1.0,0.0,491.0,767.0,0.0,0,1742.0,1
1037,1037,0.4452287579970794,0.4,1.0,1.0,425.0,696.0,0.0,0,-1081.0,0
1038,1038,0.7797188238216116,0.8,0.0,0.0,467.0,742.0,0.0,1,1791.0,1
1039,1039,-0.4733097919799089,-0.5,0.0,1.0,425.0,917.0,0.0,1,1658.0,0
1040,1040,0.04225734725248298,0.0,1.0,1.0,460.0,882.0,0.0,0,-1272.0,0
1041,1041,-0.05499294864479587,-0.1,0.0,1.0,411.0,916.0,0.0,1,1673.0,0
1042,1042,0.1535870255941053,0.2,0.0,0.0,478.0,854.0,0.0,1,1668.0,1
1043,1043,-0.8139528504318778,-0.8,1.0,0.0,460.0,653.0,0.0,0,1887.0,1
1044,1044,-0.5553099560222132,-0.6,0.0,1.0,364.0,738.0,0.0,1,1898.0,0
1045,1045,0.6208217493628087,0.6,1.0,1.0,483.0,568.0,0.0,0,1949.0,0
1046,1046,-0.3923743731945373,-0.4,1.0,0.0,472.0,681.0,0.0,0,-1123.0,1
1047,1047,0.5115565195336126,0.5,1.0,1.0,448.0,735.0,1.0,1,-1083.0,1
1048,1048,0.7907702976331968,0.8,0.0,0.0,411.0,755.0,0.0,1,-996.0,1
1049,1049,-0.5348808487025467,-0.5,0.0,1.0,475.0,579.0,0.0,1,1946.0,0
1050,1050,-0.8166526565715271,-0.8,1.0,0.0,326.0,681.0,0.0,0,1993.0,1
1051,1051,-0.6222763264692208,-0.6,0.0,1.0,350.0,562.0,0.0,1,2088.0,0
1052,1052,0.6338955662203211,0.6,0.0,0.0,444.0,652.0,0.0,1,1904.0,1
1053,1053,-0.7958855074847888,-0.8,0.0,1.0,362.0,609.0,0.0,1,2029.0,0
1054,1054,0.770162061406701,0.8,1.0,1.0,376.0,986.0,0.0,0,1638.0,0
1055,1055,0.10370816983822129,0.1,1.0,1.0,482.0,548.0,0.0,0,1970.0,0
1056,1056,-0.28564523395270425,-0.3,1.0,0.0,414.0,503.0,0.0,0,2083.0,1
1057,1057,0.8111096708825208,0.8,0.0,0.0,398.0,639.0,0.0,1,1963.0,1
1058,1058,-0.6225731763740785,-0.6,1.0,0.0,307.0,712.0,0.0,0,1981.0,1
1059,1059,0.13502945719766346,0.1,0.0,0.0,440.0,620.0,0.0,1,1940.0,1
1060,1060,-0.5481554576289842,-0.5,1.0,0.0,486.0,693.0,0.0,0,1821.0,1
1061,1061,0.4337068810292021,0.4,0.0,0.0,347.0,929.0,0.0,1,1724.0,1
1062,1062,0.48888315080500677,0.5,0.0,0.0,466.0,659.0,0.0,1,1875.0,1
1063,1063,-0.2800328319537225,-0.3,0.0,1.0,321.0,845.0,0.0,1,-1156.0,0
1064,1064,0.5967706378244481,0.6,0.0,0.0,387.0,760.0,0.0,1,1853.0,1
1065,1065,0.5196782939926848,0.5,1.0,1.0,327.0,920.0,0.0,0,1753.0,0
1066,1066,0.7615319441080547,0.8,1.0,1.0,276.0,781.0,0.0,0,1943.0,0
1067,1067,0.3434491021053111,0.3,0.0,0.0,471.0,943.0,0.0,1,1586.0,1
1068,1068,-0.23287285921492018,-0.2,0.0,1.0,456.0,716.0,0.0,1,1828.0,0
1069,1069,0.5756181731372726,0.6,1.0,1.0,388.0,717.0,1.0,1,-1025.0,1
1070,1070,-0.35193913974079616,-0.4,1.0,0.0,434.0,694.0,0.0,0,1872.0,1
1071,1071,0.5013662057799116,0.5,1.0,1.0,366.0,894.0,0.0,0,1740.0,0
1072,1072,-0.4205820270912086,-0.4,0.0,1.0,332.0,633.0,0.0,1,2035.0,0
1073,1073,-0.6383828645140242,-0.6,0.0,1.0,439.0,647.0,0.0,1,1914.0,0
1074,1074,0.27324643522745784,0.3,0.0,0.0,283.0,721.0,0.0,1,1996.0,1
1075,1075,0.6084822224609628,0.6,1.0,1.0,486.0,611.0,0.0,0,1903.0,0
1076,1076,-0.3552564320075322,-0.4,0.0,1.0,283.0,763.0,0.0,1,1954.0,0
1077,1077,0.48434479473929437,0.5,0.0,0.0,326.0,982.0,0.0,1,1692.0,1
1078,1078,0.2929836607931201,0.3,1.0,1.0,263.0,814.0,0.0,0,1923.0,0
1079,1079,-0.3002426899052383,-0.3,0.0,1.0,371.0,903.0,0.0,1,1726.0,0
1080,1080,0.6736595553315977,0.7,1.0,1.0,487.0,549.0,1.0,1,-1006.0,1
1081,1081,0.1677837928148006,0.2,1.0,1.0,304.0,675.0,0.0,0,2021.0,0
1082,1082,0.6032099317980885,0.6,0.0,0.0,401.0,936.0,0.0,1,1663.0,1
1083,1083,-0.42505309909762173,-0.4,0.0,1.0,433.0,789.0,0.0,1,1778.0,0
1084,1084,0.788421117101686,0.8,1.0,1.0,344.0,898.0,0.0,0,1758.0,0
1085,1085,-0.8823548800165484,-0.9,1.0,0.0,447.0,708.0,0.0,0,-1125.0,1
1086,1086,-0.07375078770789123,-0.1,1.0,0.0,324.0,623.0,0.0,0,2053.0,1
1087,1087,-0.7660925394505054,-0.8,1.0,0.0,290.0,535.0,0.0,0,2175.0,1
1088,1088,-0.15477462536252096,-0.2,1.0,0.0,451.0,610.0,0.0,0,1939.0,1
1089,1089,-0.3396910080709604,-0.3,0.0,1.0,325.0,958.0,0.0,1,1717.0,0
1090,1090,-0.32885023633447064,-0.3,1.0,0.0,370.0,542.0,0.0,0,2088.0,1
1091,1091,0.1706443720607692,0.2,1.0,1.0,281.0,885.0,0.0,0,1834.0,0
1092,1092,0.2108781748872567,0.2,1.0,1.0,294.0,785.0,0.0,0,1921.0,0
1093,1093,-0.14570785219861604,-0.1,0.0,1.0,471.0,875.0,0.0,1,1654.0,0
1094,1094,0.5586647068379361,0.6,0.0,0.0,486.0,596.0,0.0,1,1918.0,1
1095,1095,0.84505421967844,0.8,1.0,1.0,455.0,899.0,0.0,0,-1164.0,0
1096,1096,-0.7968777193488102,-0.8,1.0,0.0,257.0,631.0,0.0,0,2112.0,1
1097,1097,-0.4848214454186025,-0.5,1.0,0.0,286.0,841.0,0.0,0,1873.0,1
1098,1098,0.8311840637722815,0.8,1.0,1.0,355.0,702.0,0.0,0,1943.0,0
1099,1099,0.4055205132964522,0.4,0.0,0.0,370.0,897.0,0.0,1,1733.0,1
1100,1100,0.6298066949136901,0.6,0.0,0.0,491.0,720.0,0.0,1,-1171.0,1
1101,1101,0.6469620897084097,0.6,0.0,0.0,430.0,870.0,0.0,1,1700.0,1
1102,1102,0.17294166322448656,0.2,0.0,0.0,305.0,545.0,0.0,1,2150.0,1
1103,1103,0.4039826415696407,0.4,0.0,0.0,436.0,589.0,1.0,0,-895.0,0
1104,1104,0.263945189283718,0.3,1.0,1.0,399.0,978.0,0.0,0,1623.0,0
1105,1105,-0.11814604173722065,-0.1,1.0,0.0,435.0,920.0,0.0,0,1645.0,1
1106,1106,-0.4186013785747629,-0.4,1.0,0.0,477.0,525.0,0.0,0,1998.0,1
1107,1107,0.0892112645277714,0.1,0.0,0.0,481.0,584.0,1.0,0,-1045.0,0
1108,1108,-0.3592964119250166,-0.4,0.0,1.0,265.0,514.0,0.0,1,2221.0,0
1109,1109,-0.7628728817181648,-0.8,1.0,0.0,444.0,955.0,0.0,0,1601.0,1
1110,1110,0.4643288993845772,0.5,1.0,1.0,459.0,821.0,0.0,0,1720.0,0
1111,1111,-0.5700295762848027,-0.6,0.0,1.0,458.0,508.0,0.0,1,2034.0,0
1112,1112,0.8651161849174615,0.9,1.0,1.0,351.0,579.0,0.0,0,2070.0,0
1113,1113,-0.6603691080926244,-0.7,0.0,1.0,354.0,930.0,0.0,1,1716.0,0
1114,1114,-0.30159414799662576,-0.3,1.0,0.0,344.0,806.0,0.0,0,1850.0,1
1115,1115,0.01337568104572151,0.0,0.0,0.0,255.0,558.0,0.0,1,2187.0,1
1116,1116,0.11900695283027496,0.1,1.0,1.0,407.0,784.0,0.0,0,1809.0,0
1117,1117,-0.23106955458678669,-0.2,0.0,1.0,264.0,531.0,0.0,1,2205.0,0
1118,1118,0.7771972214737614,0.8,0.0,0.0,297.0,840.0,1.0,0,-1047.0,0
1119,1119,0.8763295083871018,0.9,0.0,0.0,437.0,662.0,0.0,1,1901.0,1
1120,1120,0.11608143849991814,0.1,0.0,0.0,327.0,829.0,0.0,1,1844.0,1
1121,1121,-0.7780348065120877,-0.8,1.0,0.0,453.0,847.0,0.0,0,1700.0,1
1122,1122,0.45413092010660916,0.5,0.0,0.0,480.0,807.0,0.0,1,1713.0,1
1123,1123,-0.7054608016481989,-0.7,0.0,1.0,295.0,587.0,0.0,1,2118.0,0
1124,1124,-0.8132705939456685,-0.8,0.0,1.0,257.0,951.0,0.0,1,1792.0,0
1125,1125,0.10175675079150415,0.1,1.0,1.0,347.0,827.0,1.0,1,-1154.0,1
1126,1126,-0.6980377174057968,-0.7,0.0,1.0,317.0,677.0,0.0,1,2006.0,0
1127,1127,0.5875147583464259,0.6,1.0,1.0,269.0,757.0,0.0,0,1974.0,0
1128,1128,-0.6946357512199935,-0.7,1.0,0.0,424.0,562.0,1.0,1,-886.0,0
1129,1129,0.04202727298657871,0.0,0.0,0.0,419.0,549.0,0.0,1,2032.0,1
1130,1130,-0.4851608107256685,-0.5,1.0,0.0,387.0,728.0,0.0,0,1885.0,1
1131,1131,0.6064187413883219,0.6,0.0,0.0,405.0,500.0,0.0,1,2095.0,1
1132,1132,-0.6126781835746751,-0.6,1.0,0.0,282.0,828.0,0.0,0,1890.0,1
1133,1133,-0.43522324350430786,-0.4,1.0,0.0,458.0,835.0,0.0,0,1707.0,1
1134,1134,0.756723619103214,0.8,0.0,0.0,255.0,709.0,0.0,1,2036.0,1
1135,1135,-0.3574602969952113,-0.4,0.0,1.0,428.0,549.0,0.0,1,2023.0,0
1136,1136,-0.5987859581839233,-0.6,0.0,1.0,289.0,642.0,1.0,0,-761.0,1
1137,1137,0.6111965824923656,0.6,1.0,1.0,347.0,733.0,0.0,0,1920.0,0
1138,1138,-0.5781120102394419,-0.6,0.0,1.0,330.0,600.0,0.0,1,2070.0,0
1139,1139,0.27706575351896057,0.3,1.0,1.0,382.0,776.0,0.0,0,1842.0,0
1140,1140,0.6175305757802968,0.6,0.0,0.0,328.0,752.0,0.0,1,1920.0,1
1141,1141,-0.7202920083229345,-0.7,0.0,1.0,466.0,666.0,0.0,1,1868.0,0
1142,1142,0.08206540244705918,0.1,0.0,0.0,393.0,598.0,0.0,1,2009.0,1
1143,1143,0.07658024980971656,0.1,1.0,1.0,468.0,598.0,0.0,0,1934.0,0
1144,1144,-0.5144380355608105,-0.5,1.0,0.0,354.0,952.0,0.0,0,1694.0,1
1145,1145,0.4918540336904048,0.5,1.0,1.0,252.0,667.0,0.0,0,2081.0,0
1146,1146,-0.3095319022628471,-0.3,1.0,0.0,311.0,788.0,0.0,0,1901.0,1
1147,1147,0.37492079776401666,0.4,1.0,1.0,276.0,819.0,0.0,0,1905.0,0
1148,1148,0.53817142833272,0.5,1.0,1.0,364.0,563.0,0.0,0,2073.0,0
1149,1149,-0.7116617807777043,-0.7,1.0,0.0,465.0,774.0,0.0,0,-979.0,1
1150,1150,0.31860061576934384,0.3,1.0,1.0,377.0,884.0,0.0,0,1739.0,0
1151,1151,0.3975613319471035,0.4,1.0,1.0,485.0,575.0,0.0,0,1940.0,0
1152,1152,-0.2299780925249192,-0.2,1.0,0.0,314.0,744.0,0.0,0,1942.0,1
1153,1153,0.30101772131562876,0.3,1.0,1.0,256.0,977.0,0.0,0,1767.0,0
1154,1154,-0.0033758271345072366,-0.0,1.0,0.0,388.0,655.0,0.0,0,1957.0,1
1155,1155,-0.19258024452326528,-0.2,0.0,1.0,309.0,574.0,0.0,1,2117.0,0
1156,1156,-0.8038043068183233,-0.8,0.0,1.0,307.0,610.0,1.0,0,-867.0,1
1157,1157,-0.16803120393798077,-0.2,1.0,0.0,254.0,620.0,1.0,1,-744.0,0
1158,1158,-0.5011689413675309,-0.5,1.0,0.0,479.0,939.0,0.0,0,1582.0,1
1159,1159,0.7850325487649638,0.8,0.0,0.0,406.0,928.0,1.0,0,-1164.0,0
1160,1160,-0.36228051451479926,-0.4,1.0,0.0,470.0,720.0,0.0,0,1810.0,1
1161,1161,0.6546198430787961,0.7,0.0,0.0,329.0,886.0,0.0,1,1785.0,1
1162,1162,0.018833701424919247,0.0,1.0,1.0,389.0,776.0,0.0,0,1835.0,0
1163,1163,0.6390885933518843,0.6,0.0,0.0,399.0,936.0,0.0,1,1665.0,1
1164,1164,0.24813025356491603,0.2,0.0,0.0,330.0,669.0,0.0,1,2001.0,1
1165,1165,-0.7731125432142247,-0.8,0.0,1.0,384.0,851.0,0.0,1,1765.0,0
1166,1166,0.5133571556332294,0.5,1.0,1.0,414.0,957.0,0.0,0,1629.0,0
1167,1167,-0.1268673653955752,-0.1,0.0,1.0,267.0,852.0,0.0,1,1881.0,0
1168,1168,0.6641746669072136,0.7,0.0,0.0,329.0,978.0,0.0,1,-997.0,1
1169,1169,0.6659544050677589,0.7,1.0,1.0,482.0,823.0,0.0,0,1695.0,0
1170,1170,-0.531760678191997,-0.5,0.0,1.0,278.0,954.0,0.0,1,-1202.0,0
1171,1171,-0.3154655538076653,-0.3,0.0,1.0,399.0,897.0,0.0,1,1704.0,0
1172,1172,0.07236419909929415,0.1,1.0,1.0,448.0,980.0,0.0,0,1572.0,0
1173,1173,0.38596897030444677,0.4,1.0,1.0,341.0,629.0,0.0,0,2030.0,0
1174,1174,0.8235667714893574,0.8,1.0,1.0,338.0,693.0,0.0,0,1969.0,0
1175,1175,-0.1143088777757767,-0.1,1.0,0.0,427.0,650.0,0.0,0,1923.0,1
1176,1176,0.5725809124131612,0.6,0.0,0.0,436.0,703.0,0.0,1,1861.0,1
1177,1177,-0.0007644938324365969,-0.0,0.0,1.0,428.0,712.0,0.0,1,1860.0,0
1178,1178,-0.16006715376050484,-0.2,0.0,1.0,292.0,666.0,1.0,0,-928.0,1
1179,1179,0.8781537571851125,0.9,1.0,1.0,421.0,658.0,0.0,0,1921.0,0
1180,1180,0.7145265278432021,0.7,0.0,0.0,278.0,550.0,0.0,1,2172.0,1
1181,1181,0.530305234177623,0.5,1.0,1.0,296.0,732.0,0.0,0,1972.0,0
1182,1182,0.5787530182404469,0.6,1.0,1.0,470.0,951.0,0.0,0,1579.0,0
1183,1183,-0.14263519497631405,-0.1,0.0,1.0,314.0,518.0,0.0,1,2168.0,0
1184,1184,0.5098385508369384,0.5,0.0,0.0,499.0,762.0,0.0,1,1739.0,1
1185,1185,-0.7190135192570491,-0.7,0.0,1.0,372.0,580.0,0.0,1,2048.0,0
1186,1186,0.8999472620469114,0.9,1.0,1.0,422.0,740.0,0.0,0,1838.0,0
1187,1187,-0.06689407560541893,-0.1,1.0,0.0,351.0,846.0,0.0,0,1803.0,1
1188,1188,0.8236194907012319,0.8,0.0,0.0,430.0,907.0,0.0,1,-1327.0,1
1189,1189,-0.13817529105662973,-0.1,0.0,1.0,320.0,505.0,0.0,1,2175.0,0
1190,1190,0.2059157915722395,0.2,1.0,1.0,436.0,516.0,0.0,0,2048.0,0
1191,1191,-0.11474736277478259,-0.1,0.0,1.0,292.0,893.0,0.0,1,1815.0,0
1192,1192,-0.7563422345348131,-0.8,1.0,0.0,405.0,858.0,0.0,0,1737.0,1
1193,1193,-0.2857050026060418,-0.3,0.0,1.0,439.0,568.0,0.0,1,1993.0,0
1194,1194,-0.6051425983015665,-0.6,1.0,0.0,449.0,753.0,1.0,1,-1082.0,0
1195,1195,-0.28039596028631064,-0.3,0.0,1.0,480.0,863.0,0.0,1,1657.0,0
1196,1196,-0.3967188952374371,-0.4,1.0,0.0,460.0,530.0,0.0,0,-970.0,1
1197,1197,-0.32349201653730053,-0.3,0.0,1.0,289.0,736.0,0.0,1,1975.0,0
1198,1198,-0.5602626496019807,-0.6,1.0,0.0,373.0,525.0,0.0,0,2102.0,1
1199,1199,0.5515043875006785,0.6,0.0,0.0,299.0,976.0,0.0,1,1725.0,1
1200,1200,0.03467383604114249,0.0,0.0,0.0,274.0,985.0,0.0,1,1741.0,1
1201,1201,-0.8535909924959997,-0.9,1.0,0.0,339.0,647.0,0.0,0,2014.0,1
1202,1202,0.11891624316448224,0.1,1.0,1.0,385.0,741.0,1.0,1,-1116.0,1
1203,1203,-0.052831055156059126,-0.1,0.0,1.0,447.0,904.0,0.0,1,1649.0,0
1204,1204,0.3290827284101049,0.3,0.0,0.0,332.0,876.0,0.0,1,1792.0,1
1205,1205,-0.1391017818148944,-0.1,1.0,0.0,497.0,933.0,0.0,0,1570.0,1
1206,1206,-0.3281500302720769,-0.3,0.0,1.0,392.0,578.0,1.0,0,-940.0,1
1207,1207,-0.17097816875206817,-0.2,0.0,1.0,358.0,790.0,0.0,1,1852.0,0
1208,1208,0.6888286972429042,0.7,0.0,0.0,376.0,635.0,0.0,1,1989.0,1
1209,1209,0.6798160646775461,0.7,1.0,1.0,411.0,916.0,0.0,0,1673.0,0
1210,1210,-0.3404773120547584,-0.3,0.0,1.0,271.0,917.0,0.0,1,1812.0,0
1211,1211,-0.47215008031593936,-0.5,0.0,1.0,427.0,695.0,0.0,1,1878.0,0
1212,1212,-0.6459007763472031,-0.6,0.0,1.0,430.0,856.0,0.0,1,1714.0,0
1213,1213,0.14562278663478867,0.1,1.0,1.0,389.0,675.0,0.0,0,1936.0,0
1214,1214,0.503500709215786,0.5,0.0,0.0,436.0,794.0,0.0,1,1770.0,1
1215,1215,0.811880459365537,0.8,0.0,0.0,297.0,896.0,0.0,1,1807.0,1
1216,1216,0.6754129524198694,0.7,1.0,1.0,303.0,534.0,0.0,0,2163.0,0
1217,1217,0.7582710694853941,0.8,1.0,1.0,490.0,983.0,0.0,0,1527.0,0
1218,1218,-0.057437210480255185,-0.1,0.0,1.0,307.0,714.0,0.0,1,1979.0,0
1219,1219,-0.4613443994083206,-0.5,1.0,0.0,479.0,694.0,0.0,0,1827.0,1
1220,1220,0.45703226756081394,0.5,1.0,1.0,282.0,997.0,0.0,0,1721.0,0
1221,1221,-0.854047887407299,-0.9,1.0,0.0,269.0,995.0,0.0,0,1736.0,1
1222,1222,0.4574998507908833,0.5,0.0,0.0,479.0,795.0,0.0,1,1726.0,1
1223,1223,0.81718352281946,0.8,1.0,1.0,496.0,831.0,0.0,0,-1297.0,0
1224,1224,0.4282120811911919,0.4,1.0,1.0,328.0,661.0,0.0,0,2011.0,0
1225,1225,0.5385101217753866,0.5,1.0,1.0,351.0,596.0,0.0,0,2053.0,0
1226,1226,0.6810121212726011,0.7,1.0,1.0,350.0,710.0,0.0,0,1940.0,0
1227,1227,-0.8618266674631165,-0.9,1.0,0.0,347.0,732.0,0.0,0,1921.0,1
1228,1228,-0.12130773027128683,-0.1,0.0,1.0,303.0,931.0,0.0,1,1766.0,0
1229,1229,-0.5693325737875745,-0.6,1.0,0.0,256.0,715.0,0.0,0,2029.0,1
1230,1230,-0.5909193983412857,-0.6,1.0,0.0,266.0,860.0,0.0,0,1874.0,1
1231,1231,-0.8883683367541313,-0.9,0.0,1.0,331.0,941.0,0.0,1,1728.0,0
1232,1232,-0.49437239466472044,-0.5,0.0,1.0,454.0,905.0,1.0,0,-1259.0,1
1233,1233,0.0861893601318161,0.1,1.0,1.0,438.0,945.0,0.0,0,1617.0,0
1234,1234,-0.30946843494999543,-0.3,0.0,1.0,444.0,567.0,1.0,0,-941.0,1
1235,1235,0.40354688905680225,0.4,0.0,0.0,310.0,726.0,0.0,1,1964.0,1
1236,1236,-0.5225836253129539,-0.5,0.0,1.0,455.0,702.0,0.0,1,1843.0,0
1237,1237,-0.44688681093299293,-0.4,1.0,0.0,441.0,554.0,0.0,0,2005.0,1
1238,1238,-0.8576404905576418,-0.9,0.0,1.0,296.0,767.0,1.0,0,-1063.0,1
1239,1239,-0.033605999856777924,-0.0,1.0,0.0,301.0,988.0,0.0,0,-1119.0,1
1240,1240,-0.5966549007707124,-0.6,1.0,0.0,491.0,890.0,0.0,0,1619.0,1
1241,1241,-0.3366402935561833,-0.3,1.0,0.0,431.0,997.0,0.0,0,1572.0,1
1242,1242,-0.7522282781090052,-0.8,1.0,0.0,477.0,768.0,1.0,1,-1195.0,0
1243,1243,-0.602660705003683,-0.6,1.0,0.0,309.0,516.0,1.0,1,-745.0,0
1244,1244,-0.5623266895763209,-0.6,1.0,0.0,393.0,810.0,0.0,0,1797.0,1
1245,1245,0.6198613524112587,0.6,1.0,1.0,301.0,978.0,0.0,0,1721.0,0
1246,1246,0.6010705791324186,0.6,1.0,1.0,486.0,638.0,0.0,0,1876.0,0
1247,1247,0.10605569254148117,0.1,0.0,0.0,357.0,905.0,0.0,1,1738.0,1
1248,1248,-0.223320256231202,-0.2,0.0,1.0,375.0,547.0,0.0,1,2078.0,0
1249,1249,-0.13890894046627844,-0.1,1.0,0.0,412.0,875.0,0.0,0,1713.0,1
1250,1250,-0.1861919074973296,-0.2,0.0,1.0,273.0,745.0,0.0,1,-908.0,0
1251,1251,-0.710093794794485,-0.7,0.0,1.0,471.0,984.0,0.0,1,1545.0,0
1252,1252,-0.2714651994245163,-0.3,0.0,1.0,279.0,726.0,0.0,1,1995.0,0
1253,1253,0.7379944530697836,0.7,0.0,0.0,306.0,997.0,0.0,1,1697.0,1
1254,1254,0.416583016961683,0.4,0.0,0.0,464.0,982.0,0.0,1,1554.0,1
1255,1255,0.15419323633874804,0.2,0.0,0.0,452.0,862.0,0.0,1,1686.0,1
1256,1256,-0.2795190418391088,-0.3,1.0,0.0,381.0,682.0,0.0,0,1937.0,1
1257,1257,0.6900623932714215,0.7,1.0,1.0,402.0,837.0,1.0,1,-1159.0,1
1258,1258,0.317758045331607,0.3,0.0,0.0,255.0,567.0,0.0,1,2178.0,1
1259,1259,-0.28230693240837945,-0.3,1.0,0.0,449.0,701.0,0.0,0,1850.0,1
1260,1260,-0.45286098053604534,-0.5,1.0,0.0,322.0,723.0,0.0,0,1955.0,1
1261,1261,-0.05729255350353846,-0.1,1.0,0.0,469.0,790.0,0.0,0,1741.0,1
1262,1262,0.14671512129057562,0.1,1.0,1.0,360.0,939.0,0.0,0,1701.0,0
1263,1263,-0.8657002309526012,-0.9,1.0,0.0,391.0,737.0,0.0,0,-1048.0,1
1264,1264,-0.6990937097027977,-0.7,0.0,1.0,371.0,993.0,0.0,1,1636.0,0
1265,1265,0.7625571511385744,0.8,1.0,1.0,296.0,888.0,0.0,0,1816.0,0
1266,1266,0.4548338024975459,0.5,0.0,0.0,372.0,936.0,1.0,0,-1258.0,0
1267,1267,-0.49857821862441026,-0.5,1.0,0.0,296.0,522.0,0.0,0,2182.0,1
1268,1268,0.8870356793737307,0.9,0.0,0.0,343.0,884.0,0.0,1,1773.0,1
1269,1269,0.8418705127944989,0.8,1.0,1.0,310.0,600.0,0.0,0,2090.0,0
1270,1270,-0.8729776826038541,-0.9,0.0,1.0,265.0,918.0,0.0,1,1817.0,0
1271,1271,-0.8539202879202126,-0.9,1.0,0.0,421.0,925.0,0.0,0,1654.0,1
1272,1272,0.3911799887672277,0.4,0.0,0.0,334.0,550.0,0.0,1,2116.0,1
1273,1273,0.8697456793570645,0.9,1.0,1.0,338.0,593.0,0.0,0,-891.0,0
1274,1274,-0.8150194563207942,-0.8,0.0,1.0,462.0,572.0,0.0,1,1966.0,0
1275,1275,-0.4653857830634094,-0.5,0.0,1.0,292.0,538.0,0.0,1,2170.0,0
1276,1276,-0.4943317289914279,-0.5,1.0,0.0,346.0,824.0,0.0,0,1830.0,1
1277,1277,-0.6123264613697454,-0.6,1.0,0.0,352.0,787.0,0.0,0,1861.0,1
1278,1278,-0.5987961039940408,-0.6,0.0,1.0,267.0,960.0,1.0,0,-1177.0,1
1279,1279,0.23118868061707187,0.2,1.0,1.0,394.0,642.0,0.0,0,1964.0,0
1280,1280,0.14651493343988886,0.1,0.0,0.0,330.0,825.0,0.0,1,1845.0,1
1281,1281,0.3368592890585397,0.3,1.0,1.0,459.0,942.0,0.0,0,1599.0,0
1282,1282,-0.30188951179358103,-0.3,0.0,1.0,393.0,886.0,0.0,1,1721.0,0
1283,1283,-0.8150888684141788,-0.8,1.0,0.0,385.0,848.0,0.0,0,-1153.0,1
1284,1284,0.7049439890456058,0.7,1.0,1.0,355.0,924.0,0.0,0,-1249.0,0
1285,1285,0.3850078830397591,0.4,1.0,1.0,363.0,982.0,0.0,0,1655.0,0
1286,1286,0.009468289189616175,0.0,0.0,0.0,320.0,534.0,0.0,1,2146.0,1
1287,1287,-0.7124647635614737,-0.7,1.0,0.0,368.0,548.0,0.0,0,2084.0,1
1288,1288,-0.22930698783129677,-0.2,1.0,0.0,351.0,576.0,0.0,0,2073.0,1
1289,1289,-0.682936851576189,-0.7,1.0,0.0,377.0,928.0,0.0,0,1695.0,1
1290,1290,0.4853761760251397,0.5,1.0,1.0,484.0,601.0,0.0,0,1915.0,0
1291,1291,-0.4520880572291599,-0.5,1.0,0.0,438.0,845.0,0.0,0,1717.0,1
1292,1292,-0.10003723561788824,-0.1,1.0,0.0,483.0,729.0,0.0,0,1788.0,1
1293,1293,0.13858910525020673,0.1,0.0,0.0,427.0,918.0,0.0,1,1655.0,1
1294,1294,0.03166578540817688,0.0,1.0,1.0,436.0,668.0,0.0,0,1896.0,0
1295,1295,0.4153643789018012,0.4,0.0,0.0,453.0,872.0,0.0,1,1675.0,1
1296,1296,-0.2664673061011096,-0.3,0.0,1.0,391.0,990.0,0.0,1,1619.0,0
1297,1297,0.37402272792619196,0.4,1.0,1.0,448.0,797.0,0.0,0,-1115.0,0
1298,1298,-0.23434468599491776,-0.2,1.0,0.0,253.0,917.0,0.0,0,1830.0,1
1299,1299,0.468990443803171,0.5,1.0,1.0,328.0,864.0,0.0,0,1808.0,0
1300,1300,-0.5603831524091563,-0.6,0.0,1.0,402.0,922.0,0.0,1,1676.0,0
1301,1301,-0.29651786510373535,-0.3,0.0,1.0,342.0,523.0,0.0,1,2135.0,0
1302,1302,0.6329410445515774,0.6,0.0,0.0,474.0,917.0,0.0,1,1609.0,1
1303,1303,-0.21886688327689185,-0.2,0.0,1.0,308.0,995.0,0.0,1,1697.0,0
1304,1304,0.8397814265642848,0.8,1.0,1.0,427.0,851.0,0.0,0,1722.0,0
1305,1305,-0.7730088596121308,-0.8,0.0,1.0,354.0,508.0,1.0,0,-862.0,1
1306,1306,-0.6994450235073537,-0.7,1.0,0.0,382.0,549.0,0.0,0,2069.0,1
1307,1307,-0.45729264919836526,-0.5,0.0,1.0,322.0,861.0,0.0,1,1817.0,0
1308,1308,-0.6418691778651868,-0.6,1.0,0.0,348.0,732.0,0.0,0,1920.0,1
1309,1309,0.8100058819537276,0.8,0.0,0.0,314.0,573.0,0.0,1,2113.0,1
1310,1310,0.7922559806507027,0.8,1.0,1.0,323.0,946.0,0.0,0,1731.0,0
1311,1311,-0.7291341622611595,-0.7,0.0,1.0,279.0,543.0,0.0,1,2178.0,0
1312,1312,0.8316745450235862,0.8,0.0,0.0,435.0,784.0,0.0,1,1781.0,1
1313,1313,-0.32841466133723685,-0.3,1.0,0.0,360.0,557.0,0.0,0,2083.0,1
1314,1314,0.6017451868823861,0.6,0.0,0.0,406.0,536.0,0.0,1,2058.0,1
1315,1315,0.6090131343737321,0.6,0.0,0.0,358.0,960.0,0.0,1,1682.0,1
1316,1316,-0.4380253431987733,-0.4,1.0,0.0,414.0,847.0,0.0,0,1739.0,1
1317,1317,-0.013207225848794302,-0.0,0.0,1.0,330.0,820.0,0.0,1,1850.0,0
1318,1318,0.022406389845389896,0.0,0.0,0.0,254.0,726.0,0.0,1,2020.0,1
1319,1319,0.02196708456537555,0.0,0.0,0.0,344.0,632.0,0.0,1,2024.0,1
1320,1320,0.543185919962181,0.5,1.0,1.0,407.0,822.0,0.0,0,1771.0,0
1321,1321,0.8137520483251396,0.8,0.0,0.0,297.0,825.0,0.0,1,1878.0,1
1322,1322,-0.5900927001734366,-0.6,0.0,1.0,409.0,864.0,0.0,1,1727.0,0
1323,1323,0.3491075894257024,0.3,0.0,0.0,306.0,990.0,0.0,1,1704.0,1
1324,1324,-0.050638848530693115,-0.1,0.0,1.0,292.0,711.0,0.0,1,-903.0,0
1325,1325,0.33747980085453466,0.3,1.0,1.0,459.0,653.0,0.0,0,-1092.0,0
1326,1326,0.008127921353902834,0.0,1.0,1.0,408.0,510.0,0.0,0,2082.0,0
1327,1327,0.05555400627211482,0.1,1.0,1.0,354.0,851.0,0.0,0,1795.0,0
1328,1328,-0.7781343740265622,-0.8,1.0,0.0,321.0,835.0,0.0,0,1844.0,1
1329,1329,-0.8081364521399486,-0.8,0.0,1.0,371.0,898.0,0.0,1,1731.0,0
1330,1330,0.1867277277310172,0.2,1.0,1.0,322.0,703.0,1.0,1,-995.0,1
1331,1331,0.4401604025337208,0.4,1.0,1.0,253.0,753.0,1.0,1,-816.0,1
1332,1332,-0.722616408596732,-0.7,1.0,0.0,334.0,940.0,0.0,0,1726.0,1
1333,1333,0.5156208202558071,0.5,1.0,1.0,392.0,759.0,0.0,0,1849.0,0
1334,1334,-0.05958146915711915,-0.1,0.0,1.0,349.0,824.0,0.0,1,1827.0,0
1335,1335,-0.8870642824473525,-0.9,1.0,0.0,446.0,959.0,0.0,0,1595.0,1
1336,1336,0.8060679502594094,0.8,1.0,1.0,309.0,728.0,0.0,0,1963.0,0
1337,1337,-0.42596730367194224,-0.4,0.0,1.0,356.0,525.0,0.0,1,2119.0,0
1338,1338,0.23180624279264028,0.2,1.0,1.0,428.0,605.0,0.0,0,1967.0,0
1339,1339,-0.35793779277558935,-0.4,1.0,0.0,412.0,818.0,0.0,0,1770.0,1
1340,1340,-0.05099579764101059,-0.1,1.0,0.0,322.0,943.0,0.0,0,1735.0,1
1341,1341,-0.8654097430004354,-0.9,0.0,1.0,447.0,853.0,0.0,1,1700.0,0
1342,1342,0.7098659219538715,0.7,1.0,1.0,411.0,571.0,0.0,0,2018.0,0
1343,1343,-0.5401126973820205,-0.5,0.0,1.0,353.0,610.0,0.0,1,2037.0,0
1344,1344,0.02439177843207474,0.0,1.0,1.0,255.0,897.0,0.0,0,1848.0,0
1345,1345,-0.8855471181740794,-0.9,1.0,0.0,355.0,852.0,0.0,0,-1097.0,1
1346,1346,-0.47719886396413236,-0.5,0.0,1.0,278.0,678.0,0.0,1,2044.0,0
1347,1347,0.671924465717653,0.7,0.0,0.0,285.0,629.0,0.0,1,2086.0,1
1348,1348,0.8861617085861401,0.9,1.0,1.0,465.0,707.0,0.0,0,1828.0,0
1349,1349,0.7501296407785348,0.8,0.0,0.0,275.0,872.0,0.0,1,1853.0,1
1350,1350,-0.03085390445402514,-0.0,1.0,0.0,457.0,941.0,1.0,1,-1048.0,0
1351,1351,-0.15330489487350163,-0.2,0.0,1.0,322.0,909.0,0.0,1,1769.0,0
1352,1352,-0.15173094911017504,-0.2,0.0,1.0,436.0,855.0,0.0,1,1709.0,0
1353,1353,0.6464186253346927,0.6,1.0,1.0,311.0,885.0,0.0,0,-1096.0,0
1354,1354,-0.6902489625967337,-0.7,0.0,1.0,285.0,863.0,0.0,1,1852.0,0
1355,1355,0.4505845062774211,0.5,1.0,1.0,452.0,742.0,0.0,0,1806.0,0
1356,1356,0.19526688550417182,0.2,0.0,0.0,439.0,912.0,0.0,1,1649.0,1
1357,1357,-0.06465399060725907,-0.1,0.0,1.0,416.0,645.0,0.0,1,1939.0,0
1358,1358,-0.4872555607547801,-0.5,1.0,0.0,395.0,871.0,0.0,0,1734.0,1
1359,1359,-0.2887765352382313,-0.3,0.0,1.0,341.0,687.0,0.0,1,1972.0,0
1360,1360,-0.4186090950338246,-0.4,1.0,0.0,335.0,643.0,0.0,0,2022.0,1
1361,1361,-0.8291395784204286,-0.8,1.0,0.0,417.0,868.0,0.0,0,1715.0,1
1362,1362,-0.8844770453278917,-0.9,0.0,1.0,405.0,580.0,0.0,1,2015.0,0
1363,1363,-0.7948813002182958,-0.8,1.0,0.0,437.0,690.0,0.0,0,1873.0,1
1364,1364,-0.8389841308212574,-0.8,1.0,0.0,432.0,953.0,0.0,0,1615.0,1
1365,1365,0.4887943374369611,0.5,0.0,0.0,322.0,882.0,0.0,1,-1194.0,1
1366,1366,0.582960212953254,0.6,1.0,1.0,464.0,686.0,0.0,0,-1130.0,0
1367,1367,0.6323686825486353,0.6,0.0,0.0,316.0,927.0,0.0,1,1757.0,1
1368,1368,-0.5494277185846447,-0.5,0.0,1.0,329.0,875.0,0.0,1,-1094.0,0
1369,1369,0.2377912573103934,0.2,0.0,0.0,406.0,789.0,0.0,1,1805.0,1
1370,1370,0.3665065921263687,0.4,1.0,1.0,300.0,577.0,0.0,0,2123.0,0
1371,1371,0.5470728561167463,0.5,0.0,0.0,497.0,946.0,0.0,1,1557.0,1
1372,1372,0.5701934230299709,0.6,0.0,0.0,389.0,733.0,0.0,1,1878.0,1
1373,1373,-0.1848177878253061,-0.2,1.0,0.0,380.0,614.0,0.0,0,2006.0,1
1374,1374,-0.2875240880684691,-0.3,1.0,0.0,297.0,841.0,0.0,0,1862.0,1
1375,1375,-0.33934659463021677,-0.3,0.0,1.0,485.0,855.0,0.0,1,1660.0,0
1376,1376,-0.32484197045572194,-0.3,1.0,0.0,352.0,957.0,0.0,0,1691.0,1
1377,1377,-0.3751406453897228,-0.4,1.0,0.0,353.0,696.0,0.0,0,-989.0,1
1378,1378,0.8277882439916241,0.8,1.0,1.0,368.0,894.0,0.0,0,1738.0,0
1379,1379,0.2471932280066168,0.2,0.0,0.0,393.0,551.0,1.0,0,-894.0,0
1380,1380,-0.313726980391172,-0.3,0.0,1.0,260.0,621.0,0.0,1,2119.0,0
1381,1381,0.7079446568657347,0.7,0.0,0.0,305.0,994.0,0.0,1,1701.0,1
1382,1382,-0.09527145839594864,-0.1,1.0,0.0,458.0,571.0,0.0,0,1971.0,1
1383,1383,0.8198312410122469,0.8,0.0,0.0,380.0,693.0,0.0,1,1927.0,1
1384,1384,0.023914610840775397,0.0,0.0,0.0,435.0,594.0,0.0,1,1971.0,1
1385,1385,0.7130867543878866,0.7,1.0,1.0,342.0,605.0,0.0,0,2053.0,0
1386,1386,-0.09525308980880631,-0.1,1.0,0.0,419.0,813.0,0.0,0,1768.0,1
1387,1387,-0.2179345779809424,-0.2,1.0,0.0,397.0,796.0,0.0,0,1807.0,1
1388,1388,-0.03920776392995318,-0.0,1.0,0.0,256.0,980.0,0.0,0,1764.0,1
1389,1389,0.11138662470944849,0.1,1.0,1.0,407.0,830.0,0.0,0,1763.0,0
1390,1390,0.09983652167163604,0.1,1.0,1.0,396.0,633.0,0.0,0,-1019.0,0
1391,1391,-0.05012035888226207,-0.1,1.0,0.0,383.0,709.0,0.0,0,1908.0,1
1392,1392,-0.144263639781522,-0.1,1.0,0.0,317.0,922.0,0.0,0,1761.0,1
1393,1393,0.4088841023073996,0.4,1.0,1.0,453.0,702.0,0.0,0,1845.0,0
1394,1394,0.23429676476595762,0.2,0.0,0.0,454.0,940.0,0.0,1,1606.0,1
1395,1395,0.10083727196109338,0.1,1.0,1.0,461.0,814.0,0.0,0,1725.0,0
1396,1396,0.8899829574078005,0.9,0.0,0.0,277.0,665.0,0.0,1,2058.0,1
1397,1397,-0.1324748688380335,-0.1,0.0,1.0,252.0,558.0,0.0,1,2190.0,0
1398,1398,-0.09283660948526651,-0.1,0.0,1.0,410.0,776.0,0.0,1,1814.0,0
1399,1399,0.23885282349592407,0.2,1.0,1.0,473.0,814.0,0.0,0,1713.0,0
1400,1400,0.8298907067136722,0.8,1.0,1.0,433.0,837.0,0.0,0,1730.0,0
1401,1401,0.3406761814178657,0.3,0.0,0.0,334.0,811.0,0.0,1,1855.0,1
1402,1402,-0.7610083235310267,-0.8,0.0,1.0,322.0,884.0,0.0,1,1794.0,0
1403,1403,-0.6076607191777013,-0.6,1.0,0.0,366.0,739.0,0.0,0,-975.0,1
1404,1404,0.3333182326694716,0.3,0.0,0.0,423.0,795.0,0.0,1,1782.0,1
1405,1405,0.4984722436875303,0.5,1.0,1.0,456.0,807.0,0.0,0,1737.0,0
1406,1406,0.6447852006196936,0.6,0.0,0.0,284.0,665.0,0.0,1,2051.0,1
1407,1407,0.05187014504724485,0.1,0.0,0.0,303.0,835.0,0.0,1,1862.0,1
1408,1408,0.6421475885452993,0.6,1.0,1.0,462.0,831.0,0.0,0,1707.0,0
1409,1409,0.11450459574311933,0.1,1.0,1.0,309.0,954.0,0.0,0,1737.0,0
1410,1410,0.07976723029627064,0.1,0.0,0.0,379.0,652.0,0.0,1,1969.0,1
1411,1411,0.6320884422704905,0.6,1.0,1.0,407.0,865.0,0.0,0,1728.0,0
1412,1412,0.564784080593819,0.6,1.0,1.0,460.0,863.0,0.0,0,1677.0,0
1413,1413,0.38550913507608786,0.4,1.0,1.0,327.0,965.0,0.0,0,1708.0,0
1414,1414,0.15004767860973345,0.2,1.0,1.0,491.0,713.0,0.0,0,1796.0,0
1415,1415,-0.6745956113956051,-0.7,1.0,0.0,337.0,949.0,0.0,0,1714.0,1
1416,1416,-0.31666543708674155,-0.3,1.0,0.0,266.0,865.0,0.0,0,1869.0,1
1417,1417,-0.7747406864143617,-0.8,1.0,0.0,420.0,628.0,0.0,0,1952.0,1
1418,1418,-0.478659072353081,-0.5,1.0,0.0,345.0,995.0,0.0,0,1660.0,1
1419,1419,-0.14194337946865399,-0.1,1.0,0.0,289.0,764.0,0.0,0,1947.0,1
1420,1420,-0.8123150058319275,-0.8,1.0,0.0,334.0,856.0,0.0,0,1810.0,1
1421,1421,0.6147188804094256,0.6,1.0,1.0,332.0,504.0,0.0,0,-816.0,0
1422,1422,-0.19327461915765676,-0.2,1.0,0.0,489.0,885.0,0.0,0,1626.0,1
1423,1423,-0.6169497095524117,-0.6,0.0,1.0,489.0,874.0,0.0,1,1637.0,0
1424,1424,-0.04799314407473443,-0.0,1.0,0.0,499.0,601.0,0.0,0,1900.0,1
1425,1425,0.7156509601967286,0.7,0.0,0.0,476.0,904.0,0.0,1,1620.0,1
1426,1426,-0.6867265636158191,-0.7,1.0,0.0,484.0,679.0,0.0,0,1837.0,1
1427,1427,0.26329292042168173,0.3,1.0,1.0,329.0,912.0,0.0,0,1759.0,0
1428,1428,-0.8077188591991344,-0.8,1.0,0.0,369.0,920.0,0.0,0,1711.0,1
1429,1429,0.2790245254917757,0.3,1.0,1.0,488.0,967.0,0.0,0,1545.0,0
1430,1430,-0.4490458842565963,-0.4,1.0,0.0,318.0,816.0,0.0,0,1866.0,1
1431,1431,0.43839585800551106,0.4,0.0,0.0,379.0,653.0,0.0,1,1968.0,1
1432,1432,-0.6800047367830194,-0.7,0.0,1.0,395.0,768.0,0.0,1,1837.0,0
1433,1433,0.279414240380483,0.3,1.0,1.0,393.0,575.0,0.0,0,2032.0,0
1434,1434,0.06846420533677489,0.1,1.0,1.0,362.0,597.0,0.0,0,2041.0,0
1435,1435,0.6128030701444566,0.6,0.0,0.0,431.0,893.0,0.0,1,1676.0,1
1436,1436,-0.05088864869564069,-0.1,0.0,1.0,263.0,781.0,0.0,1,1956.0,0
1437,1437,-0.24311606459418733,-0.2,0.0,1.0,486.0,937.0,0.0,1,1577.0,0
1438,1438,-0.1268794297500596,-0.1,0.0,1.0,297.0,705.0,0.0,1,1998.0,0
1439,1439,-0.8180900480112607,-0.8,0.0,1.0,285.0,959.0,0.0,1,1756.0,0
1440,1440,0.6738092290740806,0.7,0.0,0.0,293.0,759.0,0.0,1,1948.0,1
1441,1441,-0.7647651696215214,-0.8,1.0,0.0,478.0,769.0,0.0,0,1753.0,1
1442,1442,0.7070469915594172,0.7,0.0,0.0,361.0,552.0,0.0,1,2087.0,1
1443,1443,0.4469603448864504,0.4,1.0,1.0,465.0,979.0,0.0,0,1556.0,0
1444,1444,0.6023122177804675,0.6,0.0,0.0,252.0,655.0,1.0,0,-857.0,0
1445,1445,0.504108414094303,0.5,1.0,1.0,475.0,928.0,0.0,0,1597.0,0
1446,1446,0.49623978530432533,0.5,0.0,0.0,413.0,537.0,0.0,1,2050.0,1
1447,1447,-0.6374644703528036,-0.6,0.0,1.0,263.0,716.0,0.0,1,2021.0,0
1448,1448,-0.8933923743503902,-0.9,1.0,0.0,486.0,922.0,0.0,0,1592.0,1
1449,1449,0.7539378754215321,0.8,1.0,1.0,484.0,788.0,0.0,0,1728.0,0
1450,1450,0.8966725307232334,0.9,1.0,1.0,484.0,991.0,0.0,0,1525.0,0
1451,1451,0.39340497953478504,0.4,1.0,1.0,393.0,545.0,0.0,0,2062.0,0
1452,1452,0.7788544725496683,0.8,1.0,1.0,434.0,958.0,0.0,0,1608.0,0
1453,1453,0.6827973600549572,0.7,0.0,0.0,436.0,763.0,0.0,1,1801.0,1
1454,1454,0.44010153430729904,0.4,1.0,1.0,372.0,979.0,0.0,0,1649.0,0
1455,1455,0.3768555283695222,0.4,1.0,1.0,263.0,992.0,0.0,0,1745.0,0
1456,1456,0.100281183004168,0.1,1.0,1.0,385.0,719.0,0.0,0,1896.0,0
1457,1457,-0.11271044836116761,-0.1,0.0,1.0,481.0,870.0,1.0,0,-1321.0,1
1458,1458,0.3985939415339138,0.4,1.0,1.0,365.0,564.0,0.0,0,2071.0,0
1459,1459,-0.4394648384531718,-0.4,0.0,1.0,412.0,548.0,0.0,1,2040.0,0
1460,1460,0.06292706630426903,0.1,0.0,0.0,494.0,605.0,0.0,1,1901.0,1
1461,1461,0.335226259414548,0.3,0.0,0.0,394.0,997.0,1.0,0,-1341.0,0
1462,1462,-0.2266150286070041,-0.2,0.0,1.0,479.0,820.0,0.0,1,1701.0,0
1463,1463,-0.7960053847377796,-0.8,0.0,1.0,308.0,509.0,0.0,1,-787.0,0
1464,1464,0.11047253562453163,0.1,0.0,0.0,268.0,541.0,0.0,1,2191.0,1
1465,1465,0.29606930205681625,0.3,1.0,1.0,400.0,563.0,0.0,0,2037.0,0
1466,1466,-0.6104346576381566,-0.6,0.0,1.0,440.0,910.0,0.0,1,1650.0,0
1467,1467,0.7993136719416395,0.8,0.0,0.0,353.0,813.0,0.0,1,1834.0,1
1468,1468,0.48988311226843784,0.5,1.0,1.0,341.0,822.0,0.0,0,1837.0,0
1469,1469,0.6879664007670011,0.7,0.0,0.0,428.0,727.0,0.0,1,1845.0,1
1470,1470,0.2907030057969596,0.3,0.0,0.0,496.0,538.0,0.0,1,1966.0,1
