,trial,coherence,coherence_bin,green_side,correct_side,target_onset,checker_onset,decision,green_decision,decision_time,correct_decision
0,0,-0.8302415645762562,-0.8,0.0,1.0,485.0,668.0,1.0,0,-403.0,1
1,1,0.36457050076047837,0.4,0.0,0.0,327.0,523.0,1.0,0,2120.0,0
2,2,0.34738111591592735,0.3,0.0,0.0,485.0,886.0,0.0,1,-841.0,1
3,3,-0.5997047922681977,-0.6,0.0,1.0,443.0,727.0,1.0,0,-460.0,1
4,4,-0.7968815313817263,-0.8,0.0,1.0,296.0,799.0,0.0,1,-945.0,0
5,5,-0.535797739386648,-0.5,0.0,1.0,377.0,582.0,1.0,0,-849.0,1
6,6,0.451733954836642,0.5,0.0,0.0,487.0,590.0,1.0,0,33.0,0
7,7,-0.25863077897496123,-0.3,0.0,1.0,436.0,919.0,1.0,0,-515.0,1
8,8,0.705098061252898,0.7,0.0,0.0,475.0,641.0,0.0,1,-496.0,1
9,9,-0.1806463545426069,-0.2,0.0,1.0,466.0,885.0,1.0,0,1609.0,1
10,10,0.21321722578747104,0.2,0.0,0.0,482.0,837.0,0.0,1,1681.0,1
11,11,0.19555442551983437,0.2,1.0,1.0,396.0,642.0,0.0,0,1332.0,0
12,12,-0.3671078280089435,-0.4,0.0,1.0,470.0,576.0,1.0,0,1164.0,1
13,13,0.6635389664872734,0.7,0.0,0.0,273.0,931.0,1.0,0,-1174.0,0
14,14,0.06530521251528298,0.1,0.0,0.0,469.0,965.0,0.0,1,-714.0,1
15,15,0.30144669989097694,0.3,0.0,0.0,264.0,816.0,0.0,1,1830.0,1
16,16,-0.5168945866255477,-0.5,1.0,0.0,409.0,741.0,0.0,0,-1140.0,1
17,17,0.5286346372587881,0.5,0.0,0.0,388.0,826.0,0.0,1,-1114.0,1
18,18,0.1432409381863059,0.1,1.0,1.0,384.0,647.0,0.0,0,-1021.0,0
19,19,0.4824585023181779,0.5,0.0,0.0,455.0,547.0,1.0,0,-12.0,0
20,20,-0.001684466460486922,-0.0,1.0,0.0,376.0,806.0,1.0,1,908.0,0
21,21,0.2666398307844605,0.3,0.0,0.0,399.0,511.0,1.0,0,-200.0,0
22,22,0.4489587350625329,0.4,0.0,0.0,330.0,737.0,0.0,1,-917.0,1
23,23,0.7083951096407525,0.7,1.0,1.0,329.0,696.0,1.0,1,15.0,1
24,24,0.2683386717238062,0.3,1.0,1.0,366.0,804.0,0.0,0,-520.0,0
25,25,0.4884097090124778,0.5,1.0,1.0,452.0,744.0,0.0,0,-146.0,0
26,26,-0.8755794042702988,-0.9,0.0,1.0,288.0,975.0,1.0,0,1737.0,1
27,27,0.5582886410632916,0.6,0.0,0.0,398.0,718.0,1.0,0,1194.0,0
28,28,-0.40552075684113714,-0.4,0.0,1.0,464.0,960.0,0.0,1,-4.0,0
29,29,-0.16353221170693077,-0.2,0.0,1.0,382.0,774.0,1.0,0,-156.0,1
30,30,-0.2958439289332352,-0.3,0.0,1.0,272.0,874.0,0.0,1,-946.0,0
31,31,-0.44514429595751487,-0.4,1.0,0.0,251.0,677.0,0.0,0,622.0,1
32,32,-0.15920328637426828,-0.2,0.0,1.0,288.0,884.0,1.0,0,908.0,1
33,33,0.4258293798053675,0.4,0.0,0.0,495.0,590.0,0.0,1,-725.0,1
34,34,0.4293841684712213,0.4,0.0,0.0,448.0,981.0,0.0,1,901.0,1
35,35,-0.66598265791226,-0.7,0.0,1.0,289.0,911.0,0.0,1,-1130.0,0
36,36,0.5977481538322026,0.6,0.0,0.0,457.0,985.0,1.0,0,-822.0,0
37,37,0.49229889309394614,0.5,0.0,0.0,384.0,988.0,1.0,0,-1212.0,0
38,38,0.5770030468632518,0.6,1.0,1.0,332.0,790.0,0.0,0,-692.0,0
39,39,-0.39548350386907405,-0.4,0.0,1.0,433.0,691.0,0.0,1,1876.0,0
40,40,0.5012058900873245,0.5,1.0,1.0,350.0,546.0,0.0,0,-136.0,0
41,41,-0.7115945017226412,-0.7,0.0,1.0,447.0,734.0,0.0,1,-1141.0,0
42,42,-0.4295985956233335,-0.4,0.0,1.0,295.0,812.0,0.0,1,-747.0,0
43,43,-0.596179726135429,-0.6,0.0,1.0,472.0,523.0,0.0,1,-665.0,0
44,44,-0.8161318983880601,-0.8,1.0,0.0,263.0,534.0,1.0,1,223.0,0
45,45,-0.1020757017257723,-0.1,0.0,1.0,304.0,732.0,1.0,0,-936.0,1
46,46,0.18826963647273354,0.2,1.0,1.0,367.0,900.0,0.0,0,1733.0,0
47,47,-0.8703120333920535,-0.9,1.0,0.0,491.0,707.0,1.0,1,112.0,0
48,48,0.08649221972251042,0.1,0.0,0.0,251.0,670.0,1.0,0,-531.0,0
49,49,0.24312389771362108,0.2,1.0,1.0,306.0,748.0,0.0,0,-84.0,0
50,50,-0.6300752562290806,-0.6,1.0,0.0,307.0,656.0,1.0,1,717.0,0
51,51,-0.49796591369984866,-0.5,0.0,1.0,485.0,714.0,0.0,1,1801.0,0
52,52,0.7535185350707999,0.8,1.0,1.0,387.0,953.0,0.0,0,-840.0,0
53,53,0.7112629954433979,0.7,1.0,1.0,257.0,821.0,1.0,1,462.0,1
54,54,-0.24956556978608657,-0.2,1.0,0.0,464.0,644.0,1.0,1,-908.0,0
55,55,-0.8087712426163971,-0.8,0.0,1.0,414.0,579.0,1.0,0,507.0,1
56,56,-0.41949826030839266,-0.4,1.0,0.0,291.0,590.0,1.0,1,1449.0,0
57,57,-0.6264930977023554,-0.6,1.0,0.0,425.0,751.0,0.0,0,494.0,1
58,58,0.6299791214433755,0.6,1.0,1.0,295.0,604.0,0.0,0,2031.0,0
59,59,-0.5917563699341895,-0.6,0.0,1.0,431.0,830.0,0.0,1,-541.0,0
60,60,0.71209183346806,0.7,0.0,0.0,293.0,521.0,1.0,0,396.0,0
61,61,-0.5274430427179413,-0.5,1.0,0.0,490.0,818.0,1.0,1,262.0,0
62,62,-0.5520030912309384,-0.6,1.0,0.0,275.0,914.0,0.0,0,11.0,1
63,63,-0.36104916339845017,-0.4,0.0,1.0,488.0,893.0,0.0,1,-1051.0,0
64,64,-0.7420351183373051,-0.7,0.0,1.0,314.0,664.0,1.0,0,272.0,1
65,65,0.4947403130773357,0.5,1.0,1.0,402.0,500.0,1.0,1,1998.0,1
66,66,-0.2275873604415639,-0.2,0.0,1.0,383.0,927.0,0.0,1,-440.0,0
67,67,-0.8746668635723288,-0.9,1.0,0.0,392.0,655.0,0.0,0,-157.0,1
68,68,-0.20516826505511,-0.2,1.0,0.0,499.0,778.0,1.0,1,-1207.0,0
69,69,0.7833355947725781,0.8,0.0,0.0,465.0,871.0,1.0,0,214.0,0
70,70,-0.7374341427224772,-0.7,0.0,1.0,254.0,606.0,1.0,0,-400.0,1
71,71,0.13995299585864374,0.1,0.0,0.0,426.0,869.0,1.0,0,1025.0,0
72,72,-0.2632303992163003,-0.3,1.0,0.0,464.0,960.0,1.0,1,-114.0,0
73,73,-0.5326662572066998,-0.5,1.0,0.0,293.0,752.0,0.0,0,-525.0,1
74,74,0.7182847814148022,0.7,1.0,1.0,436.0,969.0,0.0,0,-1405.0,0
75,75,-0.886073258231583,-0.9,0.0,1.0,453.0,506.0,0.0,1,411.0,0
76,76,-0.4552984899306358,-0.5,0.0,1.0,320.0,645.0,0.0,1,-875.0,0
77,77,0.40657800075308226,0.4,1.0,1.0,306.0,816.0,0.0,0,178.0,0
78,78,0.5281965525481945,0.5,0.0,0.0,444.0,781.0,0.0,1,-1205.0,1
79,79,-0.7310518826857519,-0.7,0.0,1.0,425.0,635.0,0.0,1,-670.0,0
80,80,0.7885097259219346,0.8,1.0,1.0,483.0,537.0,1.0,1,1980.0,1
81,81,-0.12235646552869539,-0.1,0.0,1.0,411.0,752.0,0.0,1,1837.0,0
82,82,0.17755311620991054,0.2,0.0,0.0,388.0,545.0,0.0,1,-293.0,1
83,83,0.33357791854363084,0.3,1.0,1.0,397.0,815.0,0.0,0,-402.0,0
84,84,0.03091063350255807,0.0,0.0,0.0,394.0,634.0,0.0,1,-778.0,1
85,85,0.7306567271052203,0.7,1.0,1.0,359.0,669.0,0.0,0,-698.0,0
86,86,-0.3468215459874874,-0.3,1.0,0.0,360.0,598.0,0.0,0,222.0,1
87,87,0.5915962919531784,0.6,1.0,1.0,371.0,558.0,1.0,1,-259.0,1
88,88,0.6358426823818107,0.6,0.0,0.0,270.0,879.0,1.0,0,-499.0,0
89,89,0.4782693012452629,0.5,0.0,0.0,483.0,790.0,0.0,1,-943.0,1
90,90,-0.7453349391100121,-0.7,0.0,1.0,481.0,883.0,1.0,0,1176.0,1
91,91,0.4431965585634997,0.4,1.0,1.0,383.0,600.0,0.0,0,2017.0,0
92,92,-0.7867366202598497,-0.8,1.0,0.0,329.0,746.0,1.0,1,-1015.0,0
93,93,-0.75378541509562,-0.8,0.0,1.0,347.0,557.0,0.0,1,146.0,0
94,94,-0.14117099466665062,-0.1,1.0,0.0,433.0,840.0,1.0,1,-1263.0,0
95,95,-0.1595286319569923,-0.2,0.0,1.0,358.0,700.0,0.0,1,-468.0,0
96,96,-0.7849541016314052,-0.8,0.0,1.0,339.0,734.0,1.0,0,-233.0,1
97,97,-0.7803177141089583,-0.8,0.0,1.0,461.0,533.0,0.0,1,1676.0,0
98,98,-0.21895184112604893,-0.2,0.0,1.0,261.0,630.0,1.0,0,2109.0,1
99,99,-0.4584150029544007,-0.5,0.0,1.0,310.0,882.0,0.0,1,1808.0,0
100,100,-0.869318509048942,-0.9,0.0,1.0,454.0,991.0,0.0,1,-895.0,0
101,101,0.7278343141489988,0.7,0.0,0.0,266.0,722.0,1.0,0,322.0,0
102,102,-0.01751226813633211,-0.0,0.0,1.0,472.0,921.0,0.0,1,-93.0,0
103,103,0.3296019346244258,0.3,0.0,0.0,251.0,809.0,0.0,1,30.0,1
104,104,0.6242075863433557,0.6,0.0,0.0,498.0,869.0,1.0,0,-1287.0,0
105,105,0.8364017511485208,0.8,1.0,1.0,477.0,927.0,1.0,1,-1104.0,1
106,106,0.33557700354549913,0.3,1.0,1.0,442.0,943.0,1.0,1,-1315.0,1
107,107,-0.6951622838471267,-0.7,1.0,0.0,267.0,534.0,1.0,1,-11.0,0
108,108,-0.7611170215728835,-0.8,0.0,1.0,326.0,941.0,1.0,0,-1017.0,1
109,109,0.15612998137763812,0.2,1.0,1.0,458.0,742.0,0.0,0,-370.0,0
110,110,-0.5540752026020829,-0.6,0.0,1.0,347.0,848.0,1.0,0,-905.0,1
111,111,-0.41424087856943537,-0.4,0.0,1.0,357.0,679.0,0.0,1,544.0,0
112,112,0.353137135205451,0.4,1.0,1.0,335.0,571.0,0.0,0,184.0,0
113,113,-0.03612950362057732,-0.0,0.0,1.0,337.0,682.0,1.0,0,-59.0,1
114,114,0.8426085207132833,0.8,1.0,1.0,494.0,928.0,1.0,1,58.0,1
115,115,-0.642407963264405,-0.6,1.0,0.0,465.0,716.0,0.0,0,-221.0,1
116,116,-0.5832139320837089,-0.6,0.0,1.0,322.0,984.0,0.0,1,-1006.0,0
117,117,-0.7094220343726796,-0.7,1.0,0.0,411.0,610.0,1.0,1,-831.0,0
118,118,0.4383627358707344,0.4,0.0,0.0,477.0,776.0,0.0,1,-1253.0,1
119,119,0.1748991383210522,0.2,1.0,1.0,471.0,554.0,0.0,0,-995.0,0
120,120,0.589071736231037,0.6,1.0,1.0,481.0,556.0,1.0,1,973.0,1
121,121,0.44251329432776043,0.4,0.0,0.0,434.0,671.0,0.0,1,15.0,1
122,122,0.5519010412319806,0.6,0.0,0.0,471.0,921.0,1.0,0,-542.0,0
123,123,-0.3154724446625752,-0.3,0.0,1.0,466.0,515.0,0.0,1,599.0,0
124,124,-0.03136428511688871,-0.0,1.0,0.0,395.0,927.0,1.0,1,38.0,0
125,125,0.5306969870432047,0.5,0.0,0.0,312.0,730.0,1.0,0,-822.0,0
126,126,0.31945487539653905,0.3,1.0,1.0,436.0,905.0,0.0,0,1209.0,0
127,127,0.32157121775908293,0.3,1.0,1.0,462.0,898.0,0.0,0,-1150.0,0
128,128,-0.23136685078236285,-0.2,1.0,0.0,495.0,969.0,0.0,0,-624.0,1
129,129,-0.02882087262221189,-0.0,0.0,1.0,279.0,623.0,1.0,0,-892.0,1
130,130,-0.7575948484963889,-0.8,0.0,1.0,281.0,699.0,1.0,0,1200.0,1
131,131,-0.22738240492944817,-0.2,1.0,0.0,498.0,772.0,0.0,0,-1180.0,1
132,132,-0.5825093301353005,-0.6,0.0,1.0,274.0,786.0,1.0,0,-720.0,1
133,133,0.05102173973851298,0.1,1.0,1.0,292.0,940.0,0.0,0,48.0,0
134,134,-0.21704008475845704,-0.2,0.0,1.0,264.0,727.0,1.0,0,-761.0,1
135,135,-0.8560168549593528,-0.9,1.0,0.0,422.0,998.0,1.0,1,-1220.0,0
136,136,0.31593110918275136,0.3,0.0,0.0,434.0,627.0,0.0,1,-891.0,1
137,137,-0.09319159691296985,-0.1,0.0,1.0,481.0,734.0,1.0,0,-535.0,1
138,138,-0.8749724727005075,-0.9,1.0,0.0,332.0,864.0,0.0,0,-1056.0,1
139,139,-0.8801139261622375,-0.9,0.0,1.0,406.0,596.0,1.0,0,-912.0,1
140,140,0.7323512726992721,0.7,0.0,0.0,361.0,505.0,0.0,1,1544.0,1
141,141,0.24691490398476457,0.2,0.0,0.0,462.0,786.0,1.0,0,-998.0,0
142,142,0.6266220927030813,0.6,1.0,1.0,311.0,583.0,0.0,0,-764.0,0
143,143,0.0029977828766322157,0.0,1.0,1.0,297.0,617.0,0.0,0,-834.0,0
144,144,-0.5226177205157729,-0.5,1.0,0.0,346.0,621.0,1.0,1,1893.0,0
145,145,-0.3744205403400318,-0.4,0.0,1.0,281.0,893.0,1.0,0,1826.0,1
146,146,-0.7609000887425771,-0.8,1.0,0.0,322.0,847.0,1.0,1,-59.0,0
147,147,0.3784080062014884,0.4,1.0,1.0,303.0,798.0,0.0,0,-641.0,0
148,148,0.7409405184581884,0.7,1.0,1.0,481.0,614.0,1.0,1,-1075.0,1
149,149,0.06047625366800713,0.1,1.0,1.0,370.0,654.0,0.0,0,-24.0,0
150,150,0.023363972412379752,0.0,1.0,1.0,354.0,962.0,0.0,0,554.0,0
151,151,0.29405214963735615,0.3,1.0,1.0,280.0,997.0,0.0,0,543.0,0
152,152,0.03372598500308399,0.0,0.0,0.0,492.0,560.0,0.0,1,-952.0,1
153,153,0.41877177954190425,0.4,0.0,0.0,374.0,808.0,0.0,1,28.0,1
154,154,-0.733359070977946,-0.7,1.0,0.0,356.0,640.0,0.0,0,2004.0,1
155,155,0.11995095646551535,0.1,0.0,0.0,475.0,985.0,0.0,1,-1270.0,1
156,156,-0.2646548737411636,-0.3,0.0,1.0,456.0,927.0,1.0,0,-683.0,1
157,157,-0.7020108075321141,-0.7,0.0,1.0,368.0,770.0,1.0,0,782.0,1
158,158,0.5485666279633462,0.5,1.0,1.0,436.0,957.0,0.0,0,-223.0,0
159,159,0.028441256795706527,0.0,1.0,1.0,285.0,790.0,0.0,0,-765.0,0
160,160,-0.23900216422712306,-0.2,0.0,1.0,296.0,596.0,0.0,1,-662.0,0
161,161,0.6879550603351693,0.7,0.0,0.0,277.0,731.0,1.0,0,212.0,0
162,162,-0.5751903498683488,-0.6,1.0,0.0,422.0,600.0,1.0,1,-1012.0,0
163,163,0.43821905409944717,0.4,0.0,0.0,303.0,909.0,1.0,0,-532.0,0
164,164,-0.026117874126847296,-0.0,1.0,0.0,365.0,839.0,1.0,1,-1094.0,0
165,165,0.7442884160197408,0.7,0.0,0.0,400.0,861.0,1.0,0,-901.0,0
166,166,-0.7759350396562279,-0.8,0.0,1.0,285.0,714.0,0.0,1,641.0,0
167,167,0.5142091759447572,0.5,0.0,0.0,386.0,620.0,1.0,0,-76.0,0
168,168,0.4471040175574551,0.4,1.0,1.0,271.0,900.0,1.0,1,1829.0,1
169,169,0.08748638505647466,0.1,1.0,1.0,329.0,788.0,0.0,0,-287.0,0
170,170,0.06811679132820059,0.1,0.0,0.0,474.0,960.0,1.0,0,-1174.0,0
171,171,0.22272881292085522,0.2,0.0,0.0,333.0,751.0,0.0,1,-214.0,1
172,172,0.35780299463696263,0.4,1.0,1.0,369.0,574.0,0.0,0,297.0,0
173,173,-0.23121117758202858,-0.2,1.0,0.0,368.0,786.0,1.0,1,-1004.0,0
174,174,0.5662895693290596,0.6,0.0,0.0,341.0,623.0,1.0,0,-604.0,0
175,175,0.2647697064209248,0.3,1.0,1.0,426.0,635.0,1.0,1,-811.0,1
176,176,-0.27080680214837005,-0.3,0.0,1.0,426.0,894.0,1.0,0,-1090.0,1
177,177,0.08996234839367112,0.1,0.0,0.0,478.0,696.0,1.0,0,-1174.0,0
178,178,-0.8110390453699485,-0.8,0.0,1.0,453.0,827.0,1.0,0,100.0,1
179,179,0.38683394151055406,0.4,1.0,1.0,274.0,593.0,0.0,0,173.0,0
180,180,0.615723065362381,0.6,0.0,0.0,291.0,879.0,1.0,0,890.0,0
181,181,-0.5462164286258866,-0.5,1.0,0.0,271.0,813.0,1.0,1,-674.0,0
182,182,0.6936492914837836,0.7,0.0,0.0,465.0,509.0,0.0,1,-754.0,1
183,183,-0.5152773395148815,-0.5,1.0,0.0,309.0,946.0,0.0,0,-1035.0,1
184,184,-0.10782562321622913,-0.1,0.0,1.0,325.0,557.0,0.0,1,328.0,0
185,185,-0.3765929240633781,-0.4,1.0,0.0,319.0,565.0,1.0,1,-264.0,0
186,186,0.637115003187858,0.6,0.0,0.0,403.0,922.0,1.0,0,-345.0,0
187,187,0.4019587606607401,0.4,0.0,0.0,326.0,515.0,1.0,0,2159.0,0
188,188,0.007470911890762322,0.0,0.0,0.0,422.0,528.0,0.0,1,-820.0,1
189,189,0.45089090102542684,0.5,1.0,1.0,360.0,822.0,1.0,1,-682.0,1
190,190,-0.4932360011781948,-0.5,0.0,1.0,454.0,862.0,0.0,1,-416.0,0
191,191,0.8844670241005207,0.9,1.0,1.0,388.0,835.0,1.0,1,-1113.0,1
192,192,0.6580505036961956,0.7,1.0,1.0,305.0,565.0,0.0,0,1310.0,0
193,193,0.5859348982151492,0.6,0.0,0.0,490.0,918.0,0.0,1,1212.0,1
194,194,0.8754024398965484,0.9,0.0,0.0,453.0,952.0,0.0,1,-1285.0,1
195,195,0.71137332685344,0.7,1.0,1.0,490.0,972.0,1.0,1,-1442.0,1
196,196,-0.5911304594624248,-0.6,0.0,1.0,398.0,525.0,0.0,1,-573.0,0
197,197,-0.5535248601393271,-0.6,1.0,0.0,403.0,983.0,0.0,0,1614.0,1
198,198,0.5649250849914739,0.6,1.0,1.0,328.0,727.0,0.0,0,1945.0,0
199,199,0.049516406244323075,0.0,1.0,1.0,443.0,760.0,1.0,1,-943.0,1
200,200,0.26539234413573876,0.3,0.0,0.0,493.0,525.0,1.0,0,1982.0,0
201,201,0.8991016073370347,0.9,1.0,1.0,427.0,573.0,0.0,0,-1000.0,0
202,202,-0.2979271846670162,-0.3,1.0,0.0,403.0,503.0,0.0,0,564.0,1
203,203,-0.2662284179458164,-0.3,0.0,1.0,463.0,513.0,1.0,0,-926.0,1
204,204,-0.10537398371473516,-0.1,0.0,1.0,363.0,645.0,1.0,0,1022.0,1
205,205,-0.6271672941002987,-0.6,1.0,0.0,332.0,723.0,1.0,1,-385.0,0
206,206,-0.34195450961398444,-0.3,0.0,1.0,448.0,544.0,1.0,0,1548.0,1
207,207,-0.027245250184537162,-0.0,1.0,0.0,407.0,565.0,0.0,0,-192.0,1
208,208,-0.08067434198274925,-0.1,1.0,0.0,410.0,963.0,1.0,1,-1233.0,0
209,209,0.6483286858416569,0.6,1.0,1.0,482.0,630.0,1.0,1,1888.0,1
210,210,0.4187047734270969,0.4,0.0,0.0,488.0,889.0,1.0,0,-1007.0,0
211,211,0.20372286316454213,0.2,0.0,0.0,276.0,812.0,0.0,1,1202.0,1
212,212,-0.6764772916288437,-0.7,1.0,0.0,304.0,607.0,1.0,1,-761.0,0
213,213,-0.1294288860214997,-0.1,0.0,1.0,496.0,525.0,1.0,0,-521.0,1
214,214,-0.4684134060253043,-0.5,1.0,0.0,329.0,897.0,0.0,0,284.0,1
215,215,-0.8668833311948388,-0.9,0.0,1.0,372.0,660.0,1.0,0,-162.0,1
216,216,0.21127401642770194,0.2,0.0,0.0,291.0,683.0,0.0,1,-734.0,1
217,217,0.8917315769670516,0.9,1.0,1.0,403.0,611.0,0.0,0,516.0,0
218,218,0.5291642928610246,0.5,1.0,1.0,251.0,871.0,0.0,0,-882.0,0
219,219,-0.20443413795995258,-0.2,0.0,1.0,325.0,563.0,0.0,1,842.0,0
220,220,0.3998773944682007,0.4,1.0,1.0,442.0,901.0,0.0,0,497.0,0
221,221,-0.1406107757749766,-0.1,1.0,0.0,267.0,962.0,1.0,1,-779.0,0
222,222,-0.05440166342894548,-0.1,0.0,1.0,330.0,858.0,1.0,0,-308.0,1
223,223,-0.39880840810290963,-0.4,1.0,0.0,480.0,928.0,0.0,0,-1388.0,1
224,224,0.16771486399349567,0.2,1.0,1.0,433.0,682.0,1.0,1,-995.0,1
225,225,0.5023888818623811,0.5,1.0,1.0,419.0,502.0,0.0,0,129.0,0
226,226,0.10064031546201424,0.1,1.0,1.0,466.0,922.0,0.0,0,-848.0,0
227,227,-0.26610836452791997,-0.3,0.0,1.0,399.0,841.0,1.0,0,1760.0,1
228,228,-0.1255288796754893,-0.1,1.0,0.0,339.0,691.0,0.0,0,1120.0,1
229,229,0.0438663316135115,0.0,1.0,1.0,372.0,976.0,1.0,1,492.0,1
230,230,0.41199979224973904,0.4,1.0,1.0,473.0,936.0,1.0,1,1591.0,1
231,231,0.751472512755187,0.8,1.0,1.0,465.0,722.0,1.0,1,1003.0,1
232,232,-0.6317547377906308,-0.6,0.0,1.0,497.0,522.0,0.0,1,1191.0,0
233,233,-0.36544311217938075,-0.4,0.0,1.0,456.0,850.0,0.0,1,1694.0,0
234,234,-0.44933045530008225,-0.4,0.0,1.0,392.0,922.0,0.0,1,-1294.0,0
235,235,0.4422462588845085,0.4,1.0,1.0,264.0,627.0,0.0,0,-471.0,0
236,236,-0.14972885534419755,-0.1,1.0,0.0,482.0,822.0,0.0,0,1326.0,1
237,237,-0.8392468996191929,-0.8,1.0,0.0,401.0,819.0,1.0,1,-230.0,0
238,238,0.08368180838243544,0.1,1.0,1.0,251.0,589.0,1.0,1,-380.0,1
239,239,0.054236005464471715,0.1,0.0,0.0,425.0,607.0,0.0,1,-552.0,1
240,240,-0.5835784706981213,-0.6,1.0,0.0,340.0,926.0,1.0,1,1734.0,0
241,241,-0.48396282291862075,-0.5,1.0,0.0,270.0,950.0,1.0,1,200.0,0
242,242,-0.3295560035404469,-0.3,1.0,0.0,401.0,693.0,0.0,0,-654.0,1
243,243,0.6694773109132549,0.7,0.0,0.0,497.0,714.0,0.0,1,-1171.0,1
244,244,0.3075110230964967,0.3,1.0,1.0,465.0,826.0,0.0,0,-1271.0,0
245,245,0.5930824083011178,0.6,0.0,0.0,413.0,721.0,0.0,1,-794.0,1
246,246,-0.8330768065601375,-0.8,0.0,1.0,305.0,777.0,1.0,0,368.0,1
247,247,0.32999136289581055,0.3,0.0,0.0,335.0,851.0,0.0,1,-956.0,1
248,248,-0.005959238138220857,-0.0,0.0,1.0,320.0,614.0,0.0,1,-854.0,0
249,249,-0.06334977385355622,-0.1,0.0,1.0,292.0,999.0,0.0,1,-1061.0,0
250,250,-0.012041345921751545,-0.0,0.0,1.0,456.0,788.0,1.0,0,-1084.0,1
251,251,0.7606352955326,0.8,1.0,1.0,473.0,592.0,0.0,0,-1005.0,0
252,252,0.6589993217027558,0.7,0.0,0.0,370.0,698.0,1.0,0,-278.0,0
253,253,-0.8753361739662903,-0.9,1.0,0.0,370.0,820.0,0.0,0,-290.0,1
254,254,-0.3273583077422546,-0.3,0.0,1.0,321.0,518.0,1.0,0,-389.0,1
255,255,0.41754538222878146,0.4,1.0,1.0,433.0,856.0,0.0,0,441.0,0
256,256,-0.10720869515850984,-0.1,1.0,0.0,497.0,960.0,0.0,0,-1357.0,1
257,257,-0.5962222211121877,-0.6,0.0,1.0,322.0,924.0,1.0,0,-1136.0,1
258,258,0.24757239586810365,0.2,0.0,0.0,469.0,937.0,0.0,1,-1236.0,1
259,259,-0.2867950201347167,-0.3,0.0,1.0,276.0,514.0,0.0,1,-260.0,0
260,260,0.3559668410783222,0.4,1.0,1.0,415.0,966.0,1.0,1,-1301.0,1
261,261,0.18097969905541966,0.2,1.0,1.0,487.0,965.0,0.0,0,-802.0,0
262,262,-0.26730718931843755,-0.3,1.0,0.0,320.0,774.0,1.0,1,-154.0,0
263,263,0.6432722204472178,0.6,0.0,0.0,268.0,640.0,1.0,0,2092.0,0
264,264,0.4644508119622991,0.5,0.0,0.0,446.0,661.0,0.0,1,1713.0,1
265,265,-0.22775638831125977,-0.2,0.0,1.0,262.0,711.0,1.0,0,-803.0,1
266,266,0.10925854571986016,0.1,0.0,0.0,329.0,731.0,0.0,1,870.0,1
267,267,-0.4437990510768417,-0.4,0.0,1.0,438.0,594.0,1.0,0,1188.0,1
268,268,0.42831739688905424,0.4,1.0,1.0,287.0,550.0,0.0,0,963.0,0
269,269,0.7945694052449531,0.8,1.0,1.0,452.0,947.0,0.0,0,901.0,0
270,270,-0.4270088959308638,-0.4,1.0,0.0,337.0,677.0,0.0,0,-984.0,1
271,271,-0.45645332544152023,-0.5,1.0,0.0,459.0,526.0,1.0,1,-185.0,0
272,272,0.008675931105706969,0.0,1.0,1.0,460.0,782.0,0.0,0,1088.0,0
273,273,-0.7123331078372179,-0.7,1.0,0.0,311.0,570.0,1.0,1,-431.0,0
274,274,-0.25919441424673106,-0.3,0.0,1.0,277.0,914.0,1.0,0,-181.0,1
275,275,-0.13472773892673995,-0.1,0.0,1.0,371.0,981.0,1.0,0,1468.0,1
276,276,-0.5040321188278448,-0.5,1.0,0.0,259.0,927.0,1.0,1,-1056.0,0
277,277,0.5051342363669179,0.5,0.0,0.0,452.0,547.0,1.0,0,-549.0,0
278,278,-0.3340183153931864,-0.3,1.0,0.0,338.0,917.0,0.0,0,5.0,1
279,279,0.21973803200526476,0.2,1.0,1.0,295.0,893.0,1.0,1,-938.0,1
280,280,0.32408097136663316,0.3,0.0,0.0,473.0,676.0,1.0,0,-1129.0,0
281,281,-0.27071291086281746,-0.3,1.0,0.0,376.0,561.0,0.0,0,-937.0,1
282,282,-0.40941161396560266,-0.4,1.0,0.0,424.0,519.0,1.0,1,-923.0,0
283,283,0.5973378566044979,0.6,1.0,1.0,492.0,511.0,1.0,1,1997.0,1
284,284,-0.015457953836784055,-0.0,0.0,1.0,425.0,860.0,0.0,1,-1285.0,0
285,285,0.808823198314725,0.8,1.0,1.0,397.0,709.0,0.0,0,1894.0,0
286,286,-0.06621804568511269,-0.1,1.0,0.0,278.0,567.0,0.0,0,-115.0,1
287,287,-0.5532200669750256,-0.6,1.0,0.0,269.0,640.0,0.0,0,311.0,1
288,288,-0.35953962698920483,-0.4,1.0,0.0,481.0,912.0,1.0,1,-873.0,0
289,289,-0.5729138099671692,-0.6,0.0,1.0,449.0,856.0,1.0,0,1165.0,1
290,290,-0.5111768651317076,-0.5,1.0,0.0,431.0,726.0,0.0,0,-577.0,1
291,291,-0.7041757511638067,-0.7,0.0,1.0,409.0,977.0,1.0,0,204.0,1
292,292,-0.19684158166817,-0.2,1.0,0.0,451.0,668.0,0.0,0,631.0,1
293,293,-0.6364046145792635,-0.6,1.0,0.0,345.0,982.0,0.0,0,-837.0,1
294,294,0.8908157689476343,0.9,0.0,0.0,270.0,927.0,0.0,1,-1187.0,1
295,295,0.6998315234681037,0.7,1.0,1.0,427.0,752.0,0.0,0,-529.0,0
296,296,0.45120440505897796,0.5,1.0,1.0,272.0,535.0,1.0,1,-767.0,1
297,297,0.5228414311485582,0.5,1.0,1.0,288.0,842.0,0.0,0,80.0,0
298,298,-0.3400961485016404,-0.3,0.0,1.0,481.0,874.0,0.0,1,-1085.0,0
299,299,0.010643099956892388,0.0,0.0,0.0,478.0,725.0,1.0,0,-763.0,0
300,300,0.257578313091401,0.3,1.0,1.0,469.0,573.0,1.0,1,-1032.0,1
301,301,-0.836892676001372,-0.8,1.0,0.0,493.0,560.0,0.0,0,-713.0,1
302,302,-0.04319933503231477,-0.0,1.0,0.0,452.0,649.0,1.0,1,-651.0,0
303,303,0.3318681908899871,0.3,0.0,0.0,458.0,960.0,1.0,0,-28.0,0
304,304,0.1375439936918731,0.1,1.0,1.0,262.0,837.0,0.0,0,421.0,0
305,305,-0.8471549439528099,-0.8,1.0,0.0,279.0,551.0,0.0,0,690.0,1
306,306,-0.4912619563977987,-0.5,0.0,1.0,385.0,610.0,1.0,0,-695.0,1
307,307,0.5135862732076953,0.5,1.0,1.0,258.0,951.0,0.0,0,-1059.0,0
308,308,-0.09968784926702134,-0.1,0.0,1.0,331.0,692.0,1.0,0,-723.0,1
309,309,0.27769588303817805,0.3,1.0,1.0,372.0,697.0,0.0,0,-189.0,0
310,310,0.13159953995279394,0.1,0.0,0.0,313.0,590.0,1.0,0,927.0,0
311,311,0.5846525587319099,0.6,0.0,0.0,460.0,683.0,0.0,1,-1113.0,1
312,312,0.8700934388761515,0.9,1.0,1.0,364.0,617.0,0.0,0,-161.0,0
313,313,0.5006120249559513,0.5,0.0,0.0,311.0,712.0,1.0,0,1977.0,0
314,314,0.47079720303659,0.5,1.0,1.0,309.0,580.0,0.0,0,-879.0,0
315,315,0.5269316623614834,0.5,0.0,0.0,467.0,652.0,1.0,0,1881.0,0
316,316,0.5614146448792733,0.6,1.0,1.0,351.0,796.0,1.0,1,893.0,1
317,317,-0.8366508838633704,-0.8,1.0,0.0,381.0,784.0,0.0,0,-215.0,1
318,318,0.037642843513565394,0.0,0.0,0.0,303.0,882.0,1.0,0,265.0,0
319,319,0.4364666981757467,0.4,1.0,1.0,295.0,612.0,1.0,1,-887.0,1
320,320,0.46150370262781626,0.5,1.0,1.0,316.0,966.0,1.0,1,-1182.0,1
321,321,0.3017112587040064,0.3,1.0,1.0,358.0,822.0,1.0,1,-920.0,1
322,322,-0.18741038733389226,-0.2,1.0,0.0,311.0,705.0,1.0,1,-96.0,0
323,323,0.5447437142043711,0.5,0.0,0.0,486.0,852.0,0.0,1,1662.0,1
324,324,0.8291636565408108,0.8,0.0,0.0,376.0,976.0,0.0,1,88.0,1
325,325,-0.5136705215065311,-0.5,1.0,0.0,395.0,920.0,0.0,0,-1015.0,1
326,326,-0.11429459444231416,-0.1,0.0,1.0,274.0,941.0,0.0,1,1255.0,0
327,327,-0.4559479287542559,-0.5,0.0,1.0,380.0,827.0,1.0,0,-1077.0,1
328,328,0.6929089559111802,0.7,0.0,0.0,308.0,576.0,0.0,1,-794.0,1
329,329,0.0645910279846269,0.1,0.0,0.0,348.0,740.0,0.0,1,-518.0,1
330,330,-0.5560425151719997,-0.6,0.0,1.0,431.0,853.0,1.0,0,436.0,1
331,331,-0.8605689700680158,-0.9,1.0,0.0,412.0,903.0,1.0,1,-1055.0,0
332,332,0.4597503130821944,0.5,1.0,1.0,489.0,630.0,0.0,0,-1049.0,0
333,333,-0.14935489404953228,-0.1,1.0,0.0,444.0,817.0,0.0,0,-1191.0,1
334,334,0.24388496296873174,0.2,0.0,0.0,328.0,578.0,0.0,1,1864.0,1
335,335,-0.299638507046736,-0.3,1.0,0.0,418.0,926.0,0.0,0,1656.0,1
336,336,0.5052895478865042,0.5,1.0,1.0,458.0,721.0,1.0,1,661.0,1
337,337,0.18402343367584162,0.2,0.0,0.0,421.0,864.0,1.0,0,-415.0,0
338,338,0.7279873735071009,0.7,1.0,1.0,314.0,984.0,0.0,0,672.0,0
339,339,-0.09819430873478274,-0.1,1.0,0.0,417.0,745.0,0.0,0,1838.0,1
340,340,-0.2810659156277774,-0.3,1.0,0.0,494.0,845.0,1.0,1,-1069.0,0
341,341,0.31551112109808244,0.3,1.0,1.0,498.0,606.0,0.0,0,-544.0,0
342,342,-0.5750743272822056,-0.6,0.0,1.0,284.0,992.0,0.0,1,864.0,0
343,343,0.2116255735210667,0.2,1.0,1.0,448.0,533.0,0.0,0,2019.0,0
344,344,-0.5235989312607476,-0.5,1.0,0.0,371.0,886.0,1.0,1,1653.0,0
345,345,-0.70955443752731,-0.7,1.0,0.0,489.0,662.0,1.0,1,-1131.0,0
346,346,-0.12767403104390895,-0.1,1.0,0.0,283.0,995.0,0.0,0,522.0,1
347,347,-0.2767572307000028,-0.3,0.0,1.0,348.0,552.0,0.0,1,1260.0,0
348,348,-0.06132305085354228,-0.1,1.0,0.0,499.0,777.0,1.0,1,824.0,0
349,349,-0.49117289018515814,-0.5,0.0,1.0,269.0,901.0,0.0,1,420.0,0
350,350,-0.5187679627079727,-0.5,1.0,0.0,487.0,732.0,0.0,0,-159.0,1
351,351,-0.7451103649171982,-0.7,1.0,0.0,263.0,557.0,0.0,0,210.0,1
352,352,-0.6605544463976807,-0.7,0.0,1.0,460.0,986.0,1.0,0,1554.0,1
353,353,0.5773765065840953,0.6,1.0,1.0,250.0,626.0,0.0,0,2124.0,0
354,354,0.8167303461353973,0.8,0.0,0.0,355.0,861.0,1.0,0,1774.0,0
355,355,0.05555450704391873,0.1,1.0,1.0,339.0,988.0,0.0,0,323.0,0
356,356,-0.44244615627183015,-0.4,1.0,0.0,398.0,535.0,0.0,0,-603.0,1
357,357,-0.03603683596063323,-0.0,1.0,0.0,438.0,539.0,0.0,0,-427.0,1
358,358,0.4177670036250575,0.4,1.0,1.0,270.0,684.0,0.0,0,1256.0,0
359,359,-0.09315567661490032,-0.1,1.0,0.0,308.0,730.0,0.0,0,-1018.0,1
360,360,-0.19951999154836852,-0.2,0.0,1.0,384.0,584.0,0.0,1,-838.0,0
361,361,-0.03983443772356898,-0.0,1.0,0.0,361.0,829.0,0.0,0,720.0,1
362,362,0.3297159962914057,0.3,1.0,1.0,253.0,891.0,1.0,1,-1004.0,1
363,363,-0.4077484116608386,-0.4,0.0,1.0,461.0,724.0,1.0,0,1055.0,1
364,364,0.5481121632556779,0.5,0.0,0.0,307.0,788.0,1.0,0,-785.0,0
365,365,-0.46571382653354926,-0.5,0.0,1.0,433.0,908.0,0.0,1,-1291.0,0
366,366,0.29045816217500653,0.3,0.0,0.0,316.0,803.0,0.0,1,1431.0,1
367,367,-0.8357011169854713,-0.8,0.0,1.0,287.0,908.0,1.0,0,1735.0,1
368,368,0.665067041407082,0.7,1.0,1.0,301.0,655.0,1.0,1,1984.0,1
369,369,0.4618242267816878,0.5,1.0,1.0,376.0,732.0,0.0,0,1512.0,0
370,370,-0.23517728773648372,-0.2,0.0,1.0,304.0,538.0,1.0,0,-682.0,1
371,371,0.007495562288743707,0.0,1.0,1.0,487.0,792.0,0.0,0,241.0,0
372,372,0.24388668992019624,0.2,0.0,0.0,323.0,582.0,1.0,0,-585.0,0
373,373,0.6684985409243732,0.7,1.0,1.0,416.0,641.0,0.0,0,-257.0,0
374,374,0.6641827777786583,0.7,1.0,1.0,397.0,944.0,0.0,0,-851.0,0
375,375,0.7790563573914039,0.8,0.0,0.0,335.0,858.0,1.0,0,1807.0,0
376,376,-0.5389295808005139,-0.5,1.0,0.0,293.0,738.0,1.0,1,-1011.0,0
377,377,0.17293153340290457,0.2,0.0,0.0,482.0,681.0,0.0,1,-873.0,1
378,378,-0.006096943010667544,-0.0,1.0,0.0,340.0,975.0,0.0,0,-1245.0,1
379,379,-0.016074742994258262,-0.0,0.0,1.0,279.0,920.0,0.0,1,131.0,0
380,380,-0.5943756051795792,-0.6,0.0,1.0,253.0,593.0,0.0,1,1314.0,0
381,381,0.8998341533526576,0.9,1.0,1.0,276.0,521.0,1.0,1,443.0,1
382,382,-0.7550263250018123,-0.8,0.0,1.0,357.0,957.0,0.0,1,716.0,0
383,383,0.15676686528684958,0.2,1.0,1.0,426.0,706.0,0.0,0,-1102.0,0
384,384,-0.12294991824106505,-0.1,0.0,1.0,263.0,600.0,1.0,0,-503.0,1
385,385,0.6829543264118773,0.7,1.0,1.0,345.0,541.0,1.0,1,24.0,1
386,386,-0.33741184825417014,-0.3,1.0,0.0,483.0,876.0,0.0,0,-729.0,1
387,387,-0.8624078820306215,-0.9,1.0,0.0,423.0,619.0,1.0,1,1958.0,0
388,388,0.6182741227808585,0.6,0.0,0.0,360.0,543.0,1.0,0,-243.0,0
389,389,-0.6402537692378312,-0.6,0.0,1.0,315.0,810.0,1.0,0,-945.0,1
390,390,-0.8437942052697527,-0.8,0.0,1.0,279.0,995.0,0.0,1,-454.0,0
391,391,-0.043646654652688244,-0.0,0.0,1.0,499.0,602.0,1.0,0,-571.0,1
392,392,-0.12290471841259665,-0.1,1.0,0.0,481.0,576.0,0.0,0,-1047.0,1
393,393,0.3305533633221739,0.3,0.0,0.0,499.0,884.0,1.0,0,-1173.0,0
394,394,0.1333436728830767,0.1,0.0,0.0,421.0,516.0,0.0,1,293.0,1
395,395,0.845435460742454,0.8,1.0,1.0,385.0,536.0,0.0,0,-511.0,0
396,396,0.6400100245297792,0.6,0.0,0.0,296.0,965.0,0.0,1,-241.0,1
397,397,-0.8581465861878836,-0.9,1.0,0.0,463.0,539.0,0.0,0,468.0,1
398,398,-0.46728417066627026,-0.5,0.0,1.0,463.0,815.0,0.0,1,382.0,0
399,399,-0.6002482050114887,-0.6,0.0,1.0,385.0,808.0,0.0,1,-563.0,0
400,400,0.21262001599420477,0.2,1.0,1.0,360.0,892.0,0.0,0,1748.0,0
401,401,-0.28278307738031816,-0.3,0.0,1.0,261.0,616.0,1.0,0,-427.0,1
402,402,-0.837184987083219,-0.8,1.0,0.0,412.0,502.0,1.0,1,-864.0,0
403,403,-0.4361348365063445,-0.4,1.0,0.0,289.0,520.0,1.0,1,21.0,0
404,404,0.46332562496446184,0.5,0.0,0.0,378.0,848.0,1.0,0,-1006.0,0
405,405,0.3037518122988855,0.3,0.0,0.0,327.0,874.0,0.0,1,-871.0,1
406,406,-0.884226042631153,-0.9,0.0,1.0,442.0,655.0,1.0,0,1793.0,1
407,407,0.6932629531560858,0.7,1.0,1.0,443.0,518.0,1.0,1,-901.0,1
408,408,-0.4120489368173387,-0.4,1.0,0.0,462.0,741.0,0.0,0,-423.0,1
409,409,0.7849058872204867,0.8,1.0,1.0,309.0,720.0,1.0,1,-519.0,1
410,410,0.08590895082791306,0.1,1.0,1.0,261.0,829.0,1.0,1,-1040.0,1
411,411,-0.5369379126274374,-0.5,1.0,0.0,481.0,821.0,1.0,1,1698.0,0
412,412,0.26967508550753616,0.3,0.0,0.0,408.0,729.0,0.0,1,-1137.0,1
413,413,-0.5237329314006876,-0.5,0.0,1.0,428.0,772.0,0.0,1,-1120.0,0
414,414,-0.009570867076373224,-0.0,0.0,1.0,359.0,960.0,1.0,0,-579.0,1
415,415,0.027132294750739083,0.0,0.0,0.0,274.0,565.0,1.0,0,-259.0,0
416,416,-0.27219725362968294,-0.3,0.0,1.0,251.0,964.0,1.0,0,815.0,1
417,417,0.16980002308997844,0.2,1.0,1.0,411.0,709.0,0.0,0,-560.0,0
418,418,0.6601564961508716,0.7,0.0,0.0,402.0,734.0,1.0,0,414.0,0
419,419,-0.048772138948334987,-0.0,1.0,0.0,388.0,758.0,0.0,0,394.0,1
420,420,-0.35204842696859584,-0.4,0.0,1.0,371.0,617.0,1.0,0,-298.0,1
421,421,-0.5075424357063067,-0.5,0.0,1.0,317.0,824.0,0.0,1,-1131.0,0
422,422,0.7071310309284774,0.7,1.0,1.0,432.0,576.0,1.0,1,-768.0,1
423,423,0.2711631327303047,0.3,1.0,1.0,498.0,501.0,0.0,0,-389.0,0
424,424,-0.7458195067249436,-0.7,1.0,0.0,462.0,833.0,1.0,1,-1285.0,0
425,425,0.32609675098960345,0.3,0.0,0.0,255.0,570.0,1.0,0,-15.0,0
426,426,-0.5003839511606147,-0.5,1.0,0.0,349.0,872.0,0.0,0,-1171.0,1
427,427,0.0671285355495087,0.1,1.0,1.0,382.0,716.0,1.0,1,512.0,1
428,428,0.07741719922572232,0.1,0.0,0.0,436.0,670.0,0.0,1,-666.0,1
429,429,-0.04751756648043792,-0.0,1.0,0.0,377.0,628.0,0.0,0,-635.0,1
430,430,-0.6142969090020878,-0.6,0.0,1.0,347.0,784.0,1.0,0,249.0,1
431,431,0.194591103499567,0.2,1.0,1.0,468.0,953.0,0.0,0,-811.0,0
432,432,0.5300972059533814,0.5,1.0,1.0,384.0,869.0,0.0,0,-1253.0,0
433,433,0.8990842983554704,0.9,0.0,0.0,390.0,849.0,1.0,0,-1239.0,0
434,434,-0.5004054654340218,-0.5,1.0,0.0,373.0,595.0,0.0,0,-958.0,1
435,435,0.6218048387477607,0.6,1.0,1.0,395.0,501.0,1.0,1,1244.0,1
436,436,-0.4976286619712435,-0.5,0.0,1.0,322.0,875.0,0.0,1,183.0,0
437,437,-0.3767038585674414,-0.4,1.0,0.0,357.0,939.0,1.0,1,-1006.0,0
438,438,0.010984910705067352,0.0,0.0,0.0,393.0,897.0,0.0,1,1710.0,1
439,439,0.708857782630942,0.7,0.0,0.0,465.0,541.0,0.0,1,144.0,1
440,440,-0.07562116791930984,-0.1,1.0,0.0,367.0,912.0,0.0,0,-709.0,1
441,441,0.17123219750792484,0.2,1.0,1.0,291.0,550.0,0.0,0,-641.0,0
442,442,0.7433081828986742,0.7,1.0,1.0,395.0,836.0,0.0,0,-661.0,0
443,443,-0.5151536099435303,-0.5,0.0,1.0,321.0,772.0,1.0,0,1907.0,1
444,444,-0.4094032609903588,-0.4,1.0,0.0,290.0,575.0,1.0,1,135.0,0
445,445,0.6736677248438531,0.7,0.0,0.0,255.0,666.0,0.0,1,-491.0,1
446,446,0.6941390678849507,0.7,0.0,0.0,305.0,682.0,0.0,1,1313.0,1
447,447,-0.8204744077902256,-0.8,0.0,1.0,367.0,805.0,0.0,1,-592.0,0
448,448,-0.04920358310095052,-0.0,1.0,0.0,479.0,668.0,0.0,0,1853.0,1
449,449,0.20056227163818863,0.2,1.0,1.0,312.0,639.0,1.0,1,1339.0,1
450,450,-0.021360822057547635,-0.0,1.0,0.0,382.0,552.0,1.0,1,2066.0,0
451,451,0.44666789894358516,0.4,0.0,0.0,400.0,847.0,1.0,0,353.0,0
452,452,-0.17071181329943907,-0.2,1.0,0.0,395.0,578.0,1.0,1,1187.0,0
453,453,-0.019182215493453225,-0.0,0.0,1.0,465.0,992.0,0.0,1,-1387.0,0
454,454,-0.26447114934830873,-0.3,1.0,0.0,484.0,884.0,1.0,1,-1228.0,0
455,455,0.775697019382691,0.8,0.0,0.0,317.0,550.0,0.0,1,2133.0,1
456,456,0.7075759451862446,0.7,1.0,1.0,439.0,986.0,0.0,0,-785.0,0
457,457,-0.3977288846638023,-0.4,0.0,1.0,460.0,512.0,0.0,1,-902.0,0
458,458,-0.08655993224872494,-0.1,0.0,1.0,485.0,880.0,0.0,1,-815.0,0
459,459,-0.45392633223851725,-0.5,0.0,1.0,254.0,900.0,0.0,1,166.0,0
460,460,0.5875968593783071,0.6,0.0,0.0,327.0,965.0,1.0,0,-742.0,0
461,461,-0.11855885678311873,-0.1,1.0,0.0,347.0,987.0,0.0,0,-644.0,1
462,462,-0.002926713633189748,-0.0,1.0,0.0,350.0,766.0,0.0,0,-346.0,1
463,463,-0.36669128826960795,-0.4,1.0,0.0,451.0,778.0,0.0,0,-159.0,1
464,464,0.32069841514286546,0.3,1.0,1.0,453.0,877.0,0.0,0,-750.0,0
465,465,-0.606749504398145,-0.6,1.0,0.0,273.0,527.0,0.0,0,-600.0,1
466,466,-0.40149001386843614,-0.4,0.0,1.0,488.0,758.0,0.0,1,-1246.0,0
467,467,0.17620434992635958,0.2,0.0,0.0,461.0,997.0,0.0,1,1082.0,1
468,468,0.4349495436702727,0.4,0.0,0.0,455.0,996.0,1.0,0,-751.0,0
469,469,-0.5124084292097344,-0.5,1.0,0.0,314.0,709.0,0.0,0,-623.0,1
470,470,0.8843242947874993,0.9,0.0,0.0,321.0,843.0,0.0,1,1836.0,1
471,471,-0.2794423741485007,-0.3,1.0,0.0,443.0,674.0,1.0,1,523.0,0
472,472,-0.7007718578782148,-0.7,0.0,1.0,352.0,957.0,0.0,1,-1259.0,0
473,473,-0.8871936551432776,-0.9,1.0,0.0,485.0,841.0,0.0,0,-1216.0,1
474,474,-0.0756382532021983,-0.1,1.0,0.0,472.0,643.0,1.0,1,745.0,0
475,475,-0.4468829801361864,-0.4,1.0,0.0,329.0,992.0,0.0,0,-891.0,1
476,476,-0.1761090127498336,-0.2,1.0,0.0,371.0,716.0,0.0,0,-877.0,1
477,477,-0.20984356399533544,-0.2,0.0,1.0,483.0,875.0,0.0,1,-958.0,0
478,478,-0.8988661926465563,-0.9,1.0,0.0,302.0,902.0,0.0,0,-964.0,1
479,479,-0.633452130309485,-0.6,1.0,0.0,270.0,704.0,0.0,0,2026.0,1
480,480,-0.7805462116681894,-0.8,1.0,0.0,399.0,871.0,0.0,0,1730.0,1
481,481,0.07428888294192282,0.1,0.0,0.0,359.0,832.0,0.0,1,-1161.0,1
482,482,-0.40099817403801313,-0.4,1.0,0.0,418.0,946.0,0.0,0,1636.0,1
483,483,-0.7076303616982377,-0.7,0.0,1.0,258.0,716.0,1.0,0,-14.0,1
484,484,0.6489782749319787,0.6,1.0,1.0,341.0,860.0,0.0,0,619.0,0
485,485,-0.2737276632607544,-0.3,1.0,0.0,434.0,753.0,0.0,0,-537.0,1
486,486,0.5182866085344399,0.5,0.0,0.0,457.0,910.0,1.0,0,-767.0,0
487,487,0.02316567966811045,0.0,1.0,1.0,254.0,849.0,0.0,0,-733.0,0
488,488,0.8528633376938969,0.9,1.0,1.0,490.0,946.0,1.0,1,1564.0,1
489,489,0.2385176308097744,0.2,0.0,0.0,366.0,803.0,0.0,1,-899.0,1
490,490,-0.6148098616162481,-0.6,0.0,1.0,494.0,503.0,1.0,0,-947.0,1
491,491,0.27606741095416554,0.3,1.0,1.0,303.0,752.0,0.0,0,1945.0,0
492,492,-0.3069964524113028,-0.3,0.0,1.0,490.0,733.0,0.0,1,557.0,0
493,493,0.8474160411581558,0.8,1.0,1.0,488.0,546.0,0.0,0,-664.0,0
494,494,-0.8422394504361687,-0.8,1.0,0.0,342.0,753.0,0.0,0,-1075.0,1
495,495,-0.8665543356115303,-0.9,0.0,1.0,268.0,774.0,0.0,1,-852.0,0
496,496,-0.27453503937538515,-0.3,1.0,0.0,319.0,875.0,0.0,0,-734.0,1
497,497,0.3148098959447633,0.3,0.0,0.0,447.0,781.0,0.0,1,1772.0,1
498,498,0.5655372107186126,0.6,0.0,0.0,323.0,670.0,1.0,0,-873.0,0
499,499,-0.8877087069811642,-0.9,0.0,1.0,321.0,885.0,1.0,0,-1166.0,1
500,500,0.13249314837606463,0.1,1.0,1.0,375.0,910.0,1.0,1,-305.0,1
501,501,-0.5917353082467856,-0.6,1.0,0.0,486.0,560.0,1.0,1,-746.0,0
502,502,0.43821737472497946,0.4,1.0,1.0,277.0,806.0,0.0,0,-193.0,0
503,503,0.6884184433658537,0.7,1.0,1.0,253.0,682.0,1.0,1,-215.0,1
504,504,0.47551135286139135,0.5,0.0,0.0,339.0,644.0,1.0,0,847.0,0
505,505,-0.21156785549147794,-0.2,1.0,0.0,403.0,558.0,0.0,0,249.0,1
506,506,0.6220670555369033,0.6,1.0,1.0,289.0,972.0,0.0,0,1739.0,0
507,507,0.6696661240540004,0.7,0.0,0.0,485.0,770.0,1.0,0,-1085.0,0
508,508,-0.5569768576413061,-0.6,0.0,1.0,478.0,618.0,0.0,1,-846.0,0
509,509,-0.6667051725588812,-0.7,0.0,1.0,264.0,679.0,0.0,1,-923.0,0
510,510,0.08745668428660802,0.1,0.0,0.0,268.0,900.0,1.0,0,-428.0,0
511,511,0.7888535779879916,0.8,1.0,1.0,350.0,680.0,1.0,1,-330.0,1
512,512,0.06882064934613352,0.1,1.0,1.0,266.0,507.0,0.0,0,2227.0,0
513,513,-0.2742431399601851,-0.3,0.0,1.0,384.0,691.0,0.0,1,775.0,0
514,514,-0.3904272809392917,-0.4,0.0,1.0,400.0,687.0,0.0,1,-617.0,0
515,515,0.3634414661014679,0.4,1.0,1.0,440.0,872.0,1.0,1,928.0,1
516,516,-0.6317196779504102,-0.6,1.0,0.0,430.0,650.0,1.0,1,800.0,0
517,517,-0.18091370150238073,-0.2,1.0,0.0,456.0,838.0,0.0,0,96.0,1
518,518,-0.39602127190561454,-0.4,1.0,0.0,356.0,507.0,0.0,0,-263.0,1
519,519,-0.8981729796297615,-0.9,0.0,1.0,470.0,822.0,0.0,1,-1132.0,0
520,520,-0.815070501406436,-0.8,0.0,1.0,498.0,903.0,1.0,0,-1391.0,1
521,521,0.11072910508166867,0.1,0.0,0.0,418.0,847.0,1.0,0,-685.0,0
522,522,0.021036670143288583,0.0,1.0,1.0,476.0,953.0,0.0,0,-1369.0,0
523,523,-0.08730931669185937,-0.1,0.0,1.0,350.0,576.0,1.0,0,-646.0,1
524,524,-0.31647621939478887,-0.3,0.0,1.0,326.0,587.0,1.0,0,-743.0,1
525,525,0.24517540042803032,0.2,1.0,1.0,264.0,523.0,1.0,1,-457.0,1
526,526,-0.7826961352935241,-0.8,1.0,0.0,377.0,561.0,0.0,0,-618.0,1
527,527,-0.05193130210148711,-0.1,1.0,0.0,307.0,838.0,0.0,0,-405.0,1
528,528,-0.35469538827325986,-0.4,1.0,0.0,338.0,735.0,1.0,1,-553.0,0
529,529,0.6864726798840274,0.7,0.0,0.0,261.0,632.0,1.0,0,117.0,0
530,530,0.14399333637746736,0.1,1.0,1.0,453.0,743.0,0.0,0,704.0,0
531,531,0.1945514931512461,0.2,0.0,0.0,262.0,542.0,1.0,0,2196.0,0
532,532,0.07111271778449613,0.1,0.0,0.0,386.0,593.0,0.0,1,-679.0,1
533,533,0.6686548094664359,0.7,1.0,1.0,281.0,549.0,0.0,0,2170.0,0
534,534,-0.8695919139149054,-0.9,0.0,1.0,415.0,812.0,0.0,1,-1207.0,0
535,535,-0.43742019191819786,-0.4,0.0,1.0,390.0,686.0,1.0,0,134.0,1
536,536,0.3714143720078241,0.4,0.0,0.0,267.0,614.0,0.0,1,2009.0,1
537,537,0.4546982309145092,0.5,0.0,0.0,344.0,798.0,0.0,1,-1122.0,1
538,538,-0.4581004698135624,-0.5,1.0,0.0,375.0,831.0,1.0,1,-1086.0,0
539,539,0.6066586350684818,0.6,1.0,1.0,443.0,776.0,1.0,1,1781.0,1
540,540,-0.5627040408915414,-0.6,1.0,0.0,451.0,670.0,0.0,0,-771.0,1
541,541,-0.5848364191517381,-0.6,1.0,0.0,269.0,882.0,0.0,0,-91.0,1
542,542,-0.2284138489310782,-0.2,1.0,0.0,437.0,750.0,0.0,0,-887.0,1
543,543,-0.039385169048217206,-0.0,1.0,0.0,333.0,791.0,1.0,1,-884.0,0
544,544,0.7686689670426655,0.8,1.0,1.0,450.0,857.0,1.0,1,1283.0,1
545,545,0.11206267198371334,0.1,0.0,0.0,469.0,871.0,1.0,0,570.0,0
546,546,0.6989328144547379,0.7,0.0,0.0,493.0,508.0,1.0,0,-641.0,0
547,547,-0.8231278343671095,-0.8,1.0,0.0,499.0,573.0,1.0,1,1368.0,0
548,548,-0.5534664655187613,-0.6,1.0,0.0,468.0,990.0,1.0,1,-1248.0,0
549,549,-0.22972452952081535,-0.2,1.0,0.0,415.0,764.0,0.0,0,-1029.0,1
550,550,-0.45522787571767087,-0.5,1.0,0.0,372.0,886.0,0.0,0,1012.0,1
551,551,0.7406314278700808,0.7,0.0,0.0,472.0,742.0,0.0,1,1786.0,1
552,552,-0.5087520812619233,-0.5,1.0,0.0,454.0,560.0,1.0,1,-904.0,0
553,553,0.7576369503082881,0.8,1.0,1.0,342.0,617.0,0.0,0,-599.0,0
554,554,-0.5192775531682207,-0.5,1.0,0.0,451.0,540.0,1.0,1,-611.0,0
555,555,-0.1775759157145722,-0.2,1.0,0.0,349.0,956.0,1.0,1,325.0,0
556,556,-0.7487434637869481,-0.7,0.0,1.0,284.0,751.0,0.0,1,-285.0,0
557,557,-0.8844157724611893,-0.9,0.0,1.0,323.0,970.0,0.0,1,-1243.0,0
558,558,0.636954840102597,0.6,1.0,1.0,483.0,591.0,0.0,0,816.0,0
559,559,0.6188687320797587,0.6,1.0,1.0,294.0,888.0,1.0,1,198.0,1
560,560,0.4935204304078321,0.5,1.0,1.0,277.0,813.0,0.0,0,490.0,0
561,561,-0.27812908046531337,-0.3,1.0,0.0,316.0,982.0,0.0,0,-1268.0,1
562,562,0.14415489306050044,0.1,1.0,1.0,306.0,516.0,1.0,1,1748.0,1
563,563,0.6360750396137999,0.6,1.0,1.0,314.0,865.0,1.0,1,1821.0,1
564,564,-0.08266334955168475,-0.1,0.0,1.0,350.0,571.0,1.0,0,-151.0,1
565,565,0.893730131335133,0.9,0.0,0.0,392.0,642.0,1.0,0,1046.0,0
566,566,0.46075334031279314,0.5,1.0,1.0,386.0,999.0,0.0,0,-715.0,0
567,567,-0.865763319858282,-0.9,0.0,1.0,313.0,937.0,0.0,1,-1240.0,0
568,568,-0.7059500951389497,-0.7,0.0,1.0,456.0,943.0,0.0,1,91.0,0
569,569,0.2383901158387377,0.2,0.0,0.0,308.0,685.0,1.0,0,2007.0,0
570,570,-0.43073285216112855,-0.4,1.0,0.0,470.0,924.0,1.0,1,-574.0,0
571,571,-0.08845677684749531,-0.1,1.0,0.0,250.0,684.0,1.0,1,-864.0,0
572,572,-0.39741294538989735,-0.4,1.0,0.0,279.0,650.0,0.0,0,1711.0,1
573,573,0.6867471497603862,0.7,0.0,0.0,452.0,600.0,1.0,0,318.0,0
574,574,-0.6526120053033289,-0.7,1.0,0.0,391.0,780.0,0.0,0,-471.0,1
575,575,-0.023239305483510497,-0.0,1.0,0.0,343.0,953.0,1.0,1,-886.0,0
576,576,0.8095009224479462,0.8,0.0,0.0,460.0,874.0,0.0,1,-1154.0,1
577,577,-0.20152345826190188,-0.2,0.0,1.0,425.0,752.0,0.0,1,-887.0,0
578,578,0.6782662474793141,0.7,1.0,1.0,440.0,540.0,0.0,0,-600.0,0
579,579,0.5997818099858275,0.6,0.0,0.0,368.0,742.0,1.0,0,1890.0,0
580,580,-0.8152108125196192,-0.8,0.0,1.0,413.0,527.0,1.0,0,-520.0,1
581,581,0.24713232373518557,0.2,0.0,0.0,407.0,756.0,1.0,0,-573.0,0
582,582,0.2373113405933266,0.2,1.0,1.0,284.0,761.0,0.0,0,1955.0,0
583,583,0.4447293927909456,0.4,1.0,1.0,288.0,809.0,0.0,0,1753.0,0
584,584,0.8783874300473397,0.9,0.0,0.0,409.0,681.0,0.0,1,-820.0,1
585,585,0.4071841389194849,0.4,0.0,0.0,438.0,952.0,1.0,0,1610.0,0
586,586,0.20788295631777964,0.2,1.0,1.0,272.0,652.0,0.0,0,1196.0,0
587,587,0.7035384954708316,0.7,1.0,1.0,319.0,980.0,0.0,0,-899.0,0
588,588,0.442743455592464,0.4,0.0,0.0,290.0,702.0,1.0,0,-882.0,0
589,589,-0.5637281280230718,-0.6,1.0,0.0,312.0,579.0,0.0,0,-481.0,1
590,590,0.794697991775284,0.8,1.0,1.0,421.0,584.0,0.0,0,-965.0,0
591,591,-0.6976323152908305,-0.7,1.0,0.0,372.0,656.0,0.0,0,-678.0,1
592,592,0.326465975210812,0.3,1.0,1.0,288.0,699.0,1.0,1,-917.0,1
593,593,-0.4439634269459826,-0.4,1.0,0.0,265.0,873.0,0.0,0,1862.0,1
594,594,-0.05087169350990384,-0.1,0.0,1.0,380.0,971.0,1.0,0,1649.0,1
595,595,-0.13996109289388803,-0.1,1.0,0.0,485.0,783.0,1.0,1,-1248.0,0
596,596,0.16792019673983238,0.2,0.0,0.0,258.0,613.0,0.0,1,99.0,1
597,597,-0.6714743640686144,-0.7,0.0,1.0,414.0,861.0,0.0,1,-1265.0,0
598,598,-0.5974100943618252,-0.6,1.0,0.0,281.0,861.0,0.0,0,138.0,1
599,599,-0.8577048097455523,-0.9,0.0,1.0,474.0,667.0,0.0,1,869.0,0
600,600,-0.4942690902183255,-0.5,0.0,1.0,421.0,990.0,1.0,0,1589.0,1
601,601,0.1978756601982833,0.2,1.0,1.0,290.0,549.0,1.0,1,-579.0,1
602,602,0.6040799277212222,0.6,0.0,0.0,317.0,661.0,1.0,0,-568.0,0
603,603,-0.2819927561545874,-0.3,0.0,1.0,376.0,833.0,1.0,0,-1119.0,1
604,604,0.2944442692361605,0.3,0.0,0.0,335.0,826.0,1.0,0,1039.0,0
605,605,-0.8153984748473989,-0.8,1.0,0.0,413.0,916.0,1.0,1,-699.0,0
606,606,0.4852087586945274,0.5,0.0,0.0,413.0,678.0,0.0,1,-881.0,1
607,607,0.5929268243033762,0.6,1.0,1.0,312.0,733.0,0.0,0,85.0,0
608,608,-0.7686065973594465,-0.8,0.0,1.0,485.0,573.0,0.0,1,-728.0,0
609,609,0.056929271045125796,0.1,0.0,0.0,341.0,973.0,1.0,0,1686.0,0
610,610,-0.7645431414388545,-0.8,0.0,1.0,373.0,785.0,1.0,0,82.0,1
611,611,-0.26532639925481505,-0.3,1.0,0.0,484.0,783.0,1.0,1,-157.0,0
612,612,0.13457630422148525,0.1,1.0,1.0,455.0,757.0,0.0,0,-1092.0,0
613,613,-0.600663454751315,-0.6,1.0,0.0,484.0,952.0,0.0,0,-156.0,1
614,614,0.0817372460236292,0.1,0.0,0.0,263.0,630.0,1.0,0,-613.0,0
615,615,0.052119362346829456,0.1,1.0,1.0,485.0,557.0,0.0,0,218.0,0
616,616,0.44832267721919383,0.4,0.0,0.0,339.0,508.0,1.0,0,-417.0,0
617,617,-0.09368228732387496,-0.1,0.0,1.0,358.0,679.0,0.0,1,-577.0,0
618,618,0.5906200294615432,0.6,0.0,0.0,263.0,828.0,1.0,0,-1071.0,0
619,619,-0.7146309018873678,-0.7,1.0,0.0,298.0,547.0,0.0,0,-755.0,1
620,620,0.5579341205461107,0.6,1.0,1.0,464.0,934.0,0.0,0,-1348.0,0
621,621,-0.8660832341061321,-0.9,1.0,0.0,491.0,888.0,0.0,0,-1169.0,1
622,622,0.7539232212507289,0.8,1.0,1.0,405.0,871.0,0.0,0,-266.0,0
623,623,-0.017133649329138412,-0.0,1.0,0.0,307.0,561.0,0.0,0,-828.0,1
624,624,0.08238598072778491,0.1,1.0,1.0,448.0,963.0,1.0,1,-1241.0,1
625,625,-0.7982467726659996,-0.8,0.0,1.0,411.0,789.0,1.0,0,80.0,1
626,626,-0.2817218555576071,-0.3,0.0,1.0,302.0,799.0,1.0,0,-181.0,1
627,627,-0.06363973986059479,-0.1,0.0,1.0,358.0,775.0,1.0,0,937.0,1
628,628,0.8172092004714465,0.8,0.0,0.0,324.0,714.0,1.0,0,-248.0,0
629,629,-0.7004178333084179,-0.7,0.0,1.0,376.0,811.0,0.0,1,-707.0,0
630,630,0.16974083476387414,0.2,1.0,1.0,451.0,568.0,0.0,0,-989.0,0
631,631,0.5313000754987073,0.5,1.0,1.0,433.0,764.0,1.0,1,-527.0,1
632,632,0.5445151668715428,0.5,0.0,0.0,485.0,818.0,1.0,0,1697.0,0
633,633,0.7118420209802917,0.7,0.0,0.0,262.0,717.0,1.0,0,2021.0,0
634,634,-0.3479204874931314,-0.3,1.0,0.0,272.0,694.0,0.0,0,524.0,1
635,635,-0.5380944589248378,-0.5,1.0,0.0,418.0,765.0,0.0,0,-973.0,1
636,636,0.6342654178509465,0.6,1.0,1.0,313.0,947.0,1.0,1,-910.0,1
637,637,-0.4511189429860124,-0.5,0.0,1.0,411.0,538.0,1.0,0,2051.0,1
638,638,0.11914462726813213,0.1,1.0,1.0,291.0,995.0,0.0,0,-546.0,0
639,639,0.8267090468913157,0.8,0.0,0.0,264.0,520.0,0.0,1,-284.0,1
640,640,0.37027355673611273,0.4,1.0,1.0,493.0,646.0,0.0,0,-959.0,0
641,641,0.008097396425034264,0.0,0.0,0.0,482.0,713.0,0.0,1,-725.0,1
642,642,-0.4007232721061949,-0.4,0.0,1.0,383.0,907.0,0.0,1,1710.0,0
643,643,-0.27786333314520706,-0.3,0.0,1.0,325.0,512.0,1.0,0,1133.0,1
644,644,-0.3141738293813524,-0.3,0.0,1.0,417.0,810.0,1.0,0,-1027.0,1
645,645,0.8810289388624596,0.9,1.0,1.0,346.0,817.0,0.0,0,-663.0,0
646,646,0.44607660702602014,0.4,1.0,1.0,470.0,701.0,0.0,0,-1051.0,0
647,647,-0.8628745587710567,-0.9,0.0,1.0,475.0,789.0,1.0,0,-534.0,1
648,648,0.46587524508572276,0.5,1.0,1.0,415.0,593.0,0.0,0,-408.0,0
649,649,-0.36613769202456325,-0.4,0.0,1.0,470.0,731.0,0.0,1,-1181.0,0
650,650,0.808436084027257,0.8,0.0,0.0,317.0,983.0,0.0,1,-1030.0,1
651,651,-0.48739280381485467,-0.5,1.0,0.0,324.0,604.0,1.0,1,2072.0,0
652,652,-0.7932457468164813,-0.8,1.0,0.0,458.0,582.0,1.0,1,-560.0,0
653,653,0.42961580390343623,0.4,1.0,1.0,471.0,795.0,1.0,1,954.0,1
654,654,0.44415912524959833,0.4,0.0,0.0,427.0,794.0,1.0,0,1099.0,0
655,655,0.014025722944800534,0.0,0.0,0.0,267.0,793.0,0.0,1,-730.0,1
656,656,0.5628281735076203,0.6,1.0,1.0,345.0,851.0,0.0,0,-1106.0,0
657,657,-0.014439167206705794,-0.0,0.0,1.0,484.0,718.0,1.0,0,-142.0,1
658,658,0.5225450159702528,0.5,0.0,0.0,311.0,670.0,1.0,0,-561.0,0
659,659,-0.22319933735149788,-0.2,1.0,0.0,392.0,582.0,0.0,0,476.0,1
660,660,0.27970636268899385,0.3,1.0,1.0,412.0,822.0,0.0,0,-1094.0,0
661,661,-0.8239865823545218,-0.8,0.0,1.0,458.0,926.0,1.0,0,-1324.0,1
662,662,-0.3009655606864433,-0.3,1.0,0.0,299.0,553.0,1.0,1,308.0,0
663,663,-0.13250625703863494,-0.1,1.0,0.0,464.0,786.0,0.0,0,-480.0,1
664,664,-0.7517473867380934,-0.8,0.0,1.0,290.0,835.0,1.0,0,1875.0,1
665,665,-0.2832002716095601,-0.3,1.0,0.0,344.0,622.0,0.0,0,874.0,1
666,666,0.04246900574482049,0.0,0.0,0.0,324.0,751.0,0.0,1,-1015.0,1
667,667,0.3508635177882956,0.4,1.0,1.0,349.0,513.0,0.0,0,-762.0,0
668,668,0.5199278084071163,0.5,1.0,1.0,269.0,780.0,0.0,0,-599.0,0
669,669,-0.3140858320602905,-0.3,1.0,0.0,364.0,942.0,1.0,1,644.0,0
670,670,-0.4625438363432359,-0.5,1.0,0.0,285.0,642.0,1.0,1,-677.0,0
671,671,-0.12804674967350338,-0.1,0.0,1.0,401.0,617.0,1.0,0,1982.0,1
672,672,-0.5105407849134735,-0.5,1.0,0.0,267.0,650.0,0.0,0,-727.0,1
673,673,0.6531098028987107,0.7,0.0,0.0,416.0,936.0,0.0,1,1418.0,1
674,674,-0.31200255723191705,-0.3,0.0,1.0,266.0,856.0,0.0,1,-1122.0,0
675,675,0.6068854238982718,0.6,0.0,0.0,336.0,623.0,0.0,1,-899.0,1
676,676,0.7523596511794312,0.8,0.0,0.0,355.0,839.0,0.0,1,1806.0,1
677,677,0.45904435211489025,0.5,0.0,0.0,403.0,604.0,0.0,1,1993.0,1
678,678,0.5999968893376489,0.6,1.0,1.0,319.0,541.0,0.0,0,-780.0,0
679,679,0.005334239937775265,0.0,0.0,0.0,309.0,623.0,0.0,1,-412.0,1
680,680,0.3154802414030614,0.3,0.0,0.0,458.0,636.0,0.0,1,-1054.0,1
681,681,0.8190692851966065,0.8,0.0,0.0,291.0,952.0,0.0,1,-1213.0,1
682,682,0.6913854017481592,0.7,0.0,0.0,381.0,649.0,1.0,0,1970.0,0
683,683,-0.1758142439527577,-0.2,0.0,1.0,481.0,670.0,0.0,1,-1001.0,0
684,684,-0.8709523979883467,-0.9,1.0,0.0,431.0,751.0,1.0,1,298.0,0
685,685,0.45390068126797967,0.5,1.0,1.0,477.0,828.0,1.0,1,-615.0,1
686,686,0.22087612656025002,0.2,1.0,1.0,459.0,685.0,0.0,0,1856.0,0
687,687,0.6061250165497282,0.6,0.0,0.0,294.0,702.0,1.0,0,1784.0,0
688,688,0.3732643209137262,0.4,0.0,0.0,438.0,904.0,0.0,1,-982.0,1
689,689,0.5806678824299466,0.6,0.0,0.0,454.0,788.0,0.0,1,1758.0,1
690,690,0.7909204176287333,0.8,0.0,0.0,356.0,605.0,1.0,0,1589.0,0
691,691,0.6826746569991405,0.7,1.0,1.0,255.0,909.0,0.0,0,-994.0,0
692,692,0.6131232636345286,0.6,0.0,0.0,363.0,539.0,0.0,1,-492.0,1
693,693,0.07448050088251135,0.1,0.0,0.0,404.0,562.0,0.0,1,-746.0,1
694,694,0.6149744946450618,0.6,1.0,1.0,315.0,830.0,0.0,0,1855.0,0
695,695,0.6713535062526673,0.7,1.0,1.0,271.0,954.0,0.0,0,475.0,0
696,696,0.39669470530640727,0.4,0.0,0.0,447.0,626.0,0.0,1,-663.0,1
697,697,-0.6547520085030634,-0.7,0.0,1.0,271.0,682.0,0.0,1,-53.0,0
698,698,0.4991468184438942,0.5,0.0,0.0,400.0,850.0,1.0,0,1750.0,0
699,699,0.6516949681532037,0.7,1.0,1.0,467.0,651.0,0.0,0,1372.0,0
700,700,0.7206451375219282,0.7,1.0,1.0,339.0,773.0,0.0,0,-802.0,0
701,701,0.8299322470680371,0.8,0.0,0.0,323.0,814.0,1.0,0,-1017.0,0
702,702,0.6024183873146914,0.6,0.0,0.0,261.0,742.0,1.0,0,667.0,0
703,703,0.3827822533055353,0.4,1.0,1.0,328.0,722.0,0.0,0,1950.0,0
704,704,-0.478897261815659,-0.5,0.0,1.0,454.0,750.0,0.0,1,-1034.0,0
705,705,0.23744449828821723,0.2,1.0,1.0,426.0,966.0,0.0,0,-642.0,0
706,706,0.515673238961483,0.5,0.0,0.0,438.0,616.0,0.0,1,-984.0,1
707,707,-0.30071239155424945,-0.3,1.0,0.0,268.0,552.0,0.0,0,-630.0,1
708,708,0.1366002322105856,0.1,1.0,1.0,295.0,837.0,0.0,0,-282.0,0
709,709,-0.13319092429826296,-0.1,1.0,0.0,307.0,955.0,0.0,0,1738.0,1
710,710,0.49824209067677494,0.5,1.0,1.0,342.0,965.0,1.0,1,63.0,1
711,711,0.47343267074568784,0.5,1.0,1.0,483.0,827.0,0.0,0,1690.0,0
712,712,-0.180866210896646,-0.2,1.0,0.0,382.0,630.0,1.0,1,-932.0,0
713,713,0.2576990023137945,0.3,0.0,0.0,334.0,861.0,1.0,0,1015.0,0
714,714,0.23337718747325475,0.2,0.0,0.0,497.0,881.0,1.0,0,1622.0,0
715,715,0.32881588313070853,0.3,0.0,0.0,473.0,800.0,0.0,1,1727.0,1
716,716,0.3042401886725191,0.3,1.0,1.0,459.0,944.0,1.0,1,-1193.0,1
717,717,-0.1618608018093286,-0.2,1.0,0.0,290.0,652.0,1.0,1,538.0,0
718,718,-0.15884158755058886,-0.2,1.0,0.0,273.0,513.0,1.0,1,2214.0,0
719,719,-0.2785345979935201,-0.3,1.0,0.0,469.0,771.0,0.0,0,200.0,1
720,720,0.039086723871050943,0.0,1.0,1.0,279.0,814.0,1.0,1,-1043.0,1
721,721,0.7664531222006593,0.8,0.0,0.0,275.0,802.0,1.0,0,-807.0,0
722,722,-0.20087991504965075,-0.2,1.0,0.0,253.0,864.0,0.0,0,243.0,1
723,723,0.8909240709829757,0.9,0.0,0.0,346.0,766.0,1.0,0,228.0,0
724,724,0.25993291011891706,0.3,0.0,0.0,286.0,762.0,0.0,1,942.0,1
725,725,-0.850752410644082,-0.9,1.0,0.0,419.0,565.0,0.0,0,-774.0,1
726,726,0.5705911757854766,0.6,0.0,0.0,424.0,969.0,0.0,1,-843.0,1
727,727,0.8478090842625251,0.8,1.0,1.0,435.0,596.0,1.0,1,1039.0,1
728,728,-0.35025145815260705,-0.4,1.0,0.0,494.0,752.0,0.0,0,384.0,1
729,729,0.8202097585758926,0.8,1.0,1.0,406.0,750.0,0.0,0,-356.0,0
730,730,0.7009434721426612,0.7,0.0,0.0,480.0,666.0,0.0,1,594.0,1
731,731,0.33132143081042786,0.3,0.0,0.0,261.0,875.0,0.0,1,-1106.0,1
732,732,0.05122974282405113,0.1,1.0,1.0,355.0,661.0,0.0,0,-1006.0,0
733,733,-0.8150303177839845,-0.8,0.0,1.0,348.0,900.0,1.0,0,652.0,1
734,734,-0.7459477321481531,-0.7,0.0,1.0,433.0,639.0,1.0,0,-752.0,1
735,735,-0.6493462321450618,-0.6,1.0,0.0,428.0,713.0,0.0,0,1859.0,1
736,736,-0.8343547620111544,-0.8,1.0,0.0,404.0,756.0,1.0,1,730.0,0
737,737,0.8373807059426507,0.8,0.0,0.0,470.0,883.0,0.0,1,-483.0,1
738,738,-0.7046212095397846,-0.7,0.0,1.0,279.0,694.0,1.0,0,1817.0,1
739,739,0.6115614289253878,0.6,0.0,0.0,473.0,690.0,1.0,0,1267.0,0
740,740,-0.2397189134531328,-0.2,1.0,0.0,463.0,783.0,1.0,1,-1116.0,0
741,741,-0.8798996054314759,-0.9,0.0,1.0,454.0,855.0,0.0,1,-1049.0,0
742,742,0.27919388935985434,0.3,1.0,1.0,290.0,886.0,0.0,0,-726.0,0
743,743,0.4374797924381061,0.4,0.0,0.0,274.0,823.0,0.0,1,-1017.0,1
744,744,0.02477821735131558,0.0,0.0,0.0,377.0,824.0,1.0,0,-1191.0,0
745,745,-0.2725030122468356,-0.3,1.0,0.0,438.0,614.0,1.0,1,1828.0,0
746,746,0.5991686608017669,0.6,1.0,1.0,345.0,565.0,0.0,0,-40.0,0
747,747,0.5565384814512223,0.6,1.0,1.0,477.0,571.0,1.0,1,472.0,1
748,748,-0.3343873797313833,-0.3,1.0,0.0,479.0,562.0,0.0,0,1459.0,1
749,749,-0.6129312947808407,-0.6,1.0,0.0,499.0,921.0,0.0,0,-1320.0,1
750,750,-0.254106520531453,-0.3,1.0,0.0,441.0,942.0,0.0,0,-903.0,1
751,751,0.10548298372242793,0.1,0.0,0.0,275.0,938.0,0.0,1,-843.0,1
752,752,-0.7658974676952475,-0.8,1.0,0.0,373.0,814.0,1.0,1,-627.0,0
753,753,-0.1418833949003635,-0.1,0.0,1.0,372.0,725.0,1.0,0,-137.0,1
754,754,-0.786062407254764,-0.8,0.0,1.0,486.0,570.0,0.0,1,-986.0,0
755,755,-0.45824831692833845,-0.5,0.0,1.0,488.0,501.0,1.0,0,-549.0,1
756,756,-0.39838353920625424,-0.4,0.0,1.0,327.0,532.0,0.0,1,-339.0,0
757,757,0.8391911144301928,0.8,1.0,1.0,389.0,733.0,1.0,1,1828.0,1
758,758,-0.5927524089233767,-0.6,1.0,0.0,484.0,811.0,1.0,1,-1055.0,0
759,759,-0.8470743332586169,-0.8,0.0,1.0,454.0,845.0,0.0,1,-129.0,0
760,760,-0.26338413518760817,-0.3,0.0,1.0,442.0,806.0,0.0,1,792.0,0
761,761,0.4145763566533033,0.4,0.0,0.0,335.0,539.0,1.0,0,-414.0,0
762,762,-0.45393285372079467,-0.5,1.0,0.0,485.0,645.0,0.0,0,-380.0,1
763,763,-0.1825920786886176,-0.2,0.0,1.0,442.0,887.0,1.0,0,1201.0,1
764,764,-0.13761971555853392,-0.1,1.0,0.0,294.0,913.0,0.0,0,1533.0,1
765,765,-0.3457390750084809,-0.3,1.0,0.0,267.0,952.0,1.0,1,1281.0,0
766,766,0.49156816008631055,0.5,1.0,1.0,324.0,686.0,0.0,0,-320.0,0
767,767,0.4189540320058084,0.4,1.0,1.0,326.0,799.0,0.0,0,-85.0,0
768,768,0.2003080086844492,0.2,0.0,0.0,431.0,896.0,0.0,1,213.0,1
769,769,-0.5460145798219918,-0.5,1.0,0.0,393.0,844.0,1.0,1,-1177.0,0
770,770,0.47119755873261393,0.5,0.0,0.0,266.0,509.0,1.0,0,-35.0,0
771,771,-0.8558833536303876,-0.9,1.0,0.0,457.0,504.0,0.0,0,-671.0,1
772,772,-0.24230945381570146,-0.2,1.0,0.0,477.0,779.0,1.0,1,-1096.0,0
773,773,0.24082483308470548,0.2,1.0,1.0,398.0,920.0,0.0,0,1682.0,0
774,774,-0.15485203118454205,-0.2,0.0,1.0,432.0,732.0,0.0,1,376.0,0
775,775,0.5103362696829069,0.5,1.0,1.0,442.0,513.0,1.0,1,-255.0,1
776,776,0.30438692634467623,0.3,0.0,0.0,340.0,892.0,0.0,1,448.0,1
777,777,-0.1467050120825888,-0.1,1.0,0.0,339.0,834.0,1.0,1,-393.0,0
778,778,-0.8659427256815486,-0.9,0.0,1.0,286.0,943.0,1.0,0,-29.0,1
779,779,-0.8480261209724523,-0.8,1.0,0.0,270.0,625.0,0.0,0,605.0,1
780,780,-0.2360502637239713,-0.2,1.0,0.0,431.0,638.0,0.0,0,221.0,1
781,781,0.3775850346198807,0.4,0.0,0.0,473.0,510.0,1.0,0,-743.0,0
782,782,-0.24276552959638698,-0.2,1.0,0.0,330.0,821.0,0.0,0,1849.0,1
783,783,0.8990434040726384,0.9,0.0,0.0,290.0,771.0,0.0,1,789.0,1
784,784,-0.3197900918977723,-0.3,1.0,0.0,333.0,994.0,0.0,0,883.0,1
785,785,0.8999046232348827,0.9,0.0,0.0,381.0,642.0,1.0,0,97.0,0
786,786,0.5664751842666155,0.6,0.0,0.0,437.0,896.0,0.0,1,-1293.0,1
787,787,-0.09919490610107395,-0.1,1.0,0.0,329.0,508.0,0.0,0,413.0,1
788,788,-0.08193673411998159,-0.1,1.0,0.0,338.0,936.0,0.0,0,-684.0,1
789,789,0.42808969462186075,0.4,1.0,1.0,468.0,899.0,1.0,1,1003.0,1
790,790,0.07174592557940829,0.1,1.0,1.0,431.0,510.0,0.0,0,-21.0,0
791,791,-0.8616135994449704,-0.9,1.0,0.0,480.0,776.0,0.0,0,104.0,1
792,792,-0.7201830573502073,-0.7,1.0,0.0,472.0,664.0,0.0,0,-756.0,1
793,793,-0.8504993468065846,-0.9,0.0,1.0,262.0,501.0,0.0,1,-613.0,0
794,794,0.43710173377303463,0.4,0.0,0.0,394.0,786.0,1.0,0,-520.0,0
795,795,-0.695186064665708,-0.7,1.0,0.0,287.0,651.0,0.0,0,-38.0,1
796,796,0.7498326059599872,0.7,1.0,1.0,462.0,627.0,1.0,1,-649.0,1
797,797,0.22835742292873185,0.2,0.0,0.0,337.0,544.0,0.0,1,2119.0,1
798,798,-0.5081130895411066,-0.5,1.0,0.0,393.0,945.0,0.0,0,-168.0,1
799,799,-0.6233486015319805,-0.6,1.0,0.0,460.0,880.0,0.0,0,1660.0,1
800,800,0.2191939299136717,0.2,1.0,1.0,447.0,987.0,1.0,1,-1074.0,1
801,801,-0.6349958650090934,-0.6,0.0,1.0,303.0,942.0,0.0,1,1585.0,0
802,802,0.4598394098686366,0.5,0.0,0.0,330.0,765.0,0.0,1,575.0,1
803,803,0.7126796614934635,0.7,1.0,1.0,486.0,681.0,1.0,1,-247.0,1
804,804,0.6792106499667178,0.7,0.0,0.0,264.0,798.0,0.0,1,148.0,1
805,805,0.0990757238971538,0.1,0.0,0.0,466.0,597.0,1.0,0,-993.0,0
806,806,-0.257253816606104,-0.3,0.0,1.0,274.0,564.0,1.0,0,2102.0,1
807,807,0.44031916647772606,0.4,0.0,0.0,372.0,563.0,0.0,1,2065.0,1
808,808,0.3070584013348058,0.3,0.0,0.0,252.0,519.0,0.0,1,-601.0,1
809,809,0.3571733938545897,0.4,0.0,0.0,457.0,718.0,1.0,0,-415.0,0
810,810,0.8656099937617024,0.9,0.0,0.0,443.0,845.0,0.0,1,-1238.0,1
811,811,-0.5139417112797928,-0.5,1.0,0.0,404.0,862.0,0.0,0,-906.0,1
812,812,-0.2400833577720919,-0.2,0.0,1.0,276.0,549.0,1.0,0,-335.0,1
813,813,-0.15586272995837824,-0.2,0.0,1.0,310.0,503.0,0.0,1,267.0,0
814,814,-0.45154688668005993,-0.5,0.0,1.0,317.0,581.0,0.0,1,712.0,0
815,815,-0.37091149122932965,-0.4,1.0,0.0,389.0,648.0,0.0,0,-917.0,1
816,816,0.22082505786040552,0.2,0.0,0.0,449.0,829.0,1.0,0,-1208.0,0
817,817,0.37924300381057086,0.4,1.0,1.0,297.0,836.0,0.0,0,-753.0,0
818,818,-0.7741697311617781,-0.8,0.0,1.0,403.0,889.0,1.0,0,-772.0,1
819,819,0.24840282982963247,0.2,0.0,0.0,308.0,902.0,1.0,0,150.0,0
820,820,0.6674694138615985,0.7,1.0,1.0,449.0,603.0,0.0,0,-552.0,0
821,821,0.21169338866069698,0.2,1.0,1.0,342.0,926.0,1.0,1,-1228.0,1
822,822,-0.4706757678179216,-0.5,1.0,0.0,445.0,927.0,0.0,0,238.0,1
823,823,0.06394049957956571,0.1,0.0,0.0,404.0,953.0,0.0,1,1643.0,1
824,824,-0.43703256888984304,-0.4,1.0,0.0,303.0,733.0,1.0,1,-26.0,0
825,825,0.6338363277947606,0.6,0.0,0.0,306.0,998.0,1.0,0,1056.0,0
826,826,0.5446091783815162,0.5,0.0,0.0,462.0,611.0,1.0,0,1927.0,0
827,827,-0.46464853180275506,-0.5,1.0,0.0,319.0,856.0,0.0,0,-1035.0,1
828,828,0.38605051394179746,0.4,1.0,1.0,384.0,862.0,1.0,1,1754.0,1
829,829,-0.550885301094713,-0.6,0.0,1.0,305.0,722.0,1.0,0,-707.0,1
830,830,0.4684718744140609,0.5,1.0,1.0,373.0,834.0,0.0,0,-1057.0,0
831,831,-0.25897650352169055,-0.3,1.0,0.0,323.0,591.0,1.0,1,-454.0,0
832,832,0.5611168276512707,0.6,1.0,1.0,395.0,656.0,1.0,1,1949.0,1
833,833,0.8769890512740363,0.9,1.0,1.0,424.0,905.0,1.0,1,-1099.0,1
834,834,-0.6313279842610675,-0.6,0.0,1.0,278.0,836.0,1.0,0,-344.0,1
835,835,-0.8213125095991214,-0.8,1.0,0.0,493.0,995.0,0.0,0,512.0,1
836,836,-0.4134893740724021,-0.4,1.0,0.0,255.0,793.0,0.0,0,62.0,1
837,837,0.8922629420756926,0.9,0.0,0.0,343.0,651.0,0.0,1,96.0,1
838,838,-0.4828635380777884,-0.5,0.0,1.0,274.0,765.0,0.0,1,741.0,0
839,839,0.49757311638727775,0.5,0.0,0.0,376.0,509.0,1.0,0,-5.0,0
840,840,-0.3464644036536435,-0.3,0.0,1.0,310.0,643.0,1.0,0,-733.0,1
841,841,0.7614658833685647,0.8,1.0,1.0,303.0,944.0,0.0,0,663.0,0
842,842,-0.04845795358515237,-0.0,1.0,0.0,302.0,813.0,1.0,1,-925.0,0
843,843,-0.15515721358720957,-0.2,0.0,1.0,317.0,881.0,1.0,0,-528.0,1
844,844,0.1215935014423285,0.1,0.0,0.0,337.0,507.0,0.0,1,-814.0,1
845,845,0.30199764260496054,0.3,1.0,1.0,425.0,537.0,1.0,1,378.0,1
846,846,0.1674156531585359,0.2,0.0,0.0,317.0,553.0,0.0,1,-420.0,1
847,847,0.7371004537116245,0.7,1.0,1.0,329.0,732.0,1.0,1,-1041.0,1
848,848,0.7404028894961238,0.7,1.0,1.0,464.0,619.0,1.0,1,1157.0,1
849,849,-0.5925534382270237,-0.6,1.0,0.0,475.0,864.0,0.0,0,-1279.0,1
850,850,0.2397423174200345,0.2,1.0,1.0,266.0,714.0,1.0,1,-350.0,1
851,851,0.5911643197800921,0.6,0.0,0.0,448.0,522.0,1.0,0,1940.0,0
852,852,-0.850779264268914,-0.9,1.0,0.0,453.0,683.0,0.0,0,-376.0,1
853,853,0.7968626705678207,0.8,0.0,0.0,348.0,889.0,0.0,1,-1067.0,1
854,854,0.01577317606237849,0.0,1.0,1.0,372.0,818.0,1.0,1,-880.0,1
855,855,-0.44042120636583365,-0.4,0.0,1.0,367.0,566.0,0.0,1,307.0,0
856,856,0.16527714868858367,0.2,0.0,0.0,387.0,843.0,0.0,1,-1180.0,1
857,857,-0.07313298069319452,-0.1,1.0,0.0,403.0,793.0,0.0,0,-806.0,1
858,858,0.8729656312042401,0.9,0.0,0.0,488.0,815.0,1.0,0,-1283.0,0
859,859,0.6487737499132346,0.6,0.0,0.0,490.0,935.0,1.0,0,-365.0,0
860,860,-0.24966426094265481,-0.2,1.0,0.0,395.0,576.0,0.0,0,-601.0,1
861,861,-0.5301803537009613,-0.5,0.0,1.0,463.0,863.0,1.0,0,-1176.0,1
862,862,0.6997388953077254,0.7,1.0,1.0,433.0,857.0,1.0,1,-820.0,1
863,863,-0.04462119639613493,-0.0,0.0,1.0,309.0,991.0,0.0,1,-800.0,0
864,864,0.03785130255507496,0.0,0.0,0.0,407.0,981.0,0.0,1,-918.0,1
865,865,0.06122328744602734,0.1,1.0,1.0,370.0,682.0,1.0,1,-422.0,1
866,866,-0.38401342453000853,-0.4,0.0,1.0,349.0,806.0,0.0,1,-1045.0,0
867,867,0.19555165199176383,0.2,1.0,1.0,275.0,741.0,0.0,0,-536.0,0
868,868,-0.008872260111790431,-0.0,1.0,0.0,399.0,574.0,0.0,0,-213.0,1
869,869,-0.6194932300800984,-0.6,0.0,1.0,290.0,652.0,1.0,0,-822.0,1
870,870,0.2184979629118965,0.2,1.0,1.0,492.0,687.0,1.0,1,1591.0,1
871,871,0.4907467645906515,0.5,0.0,0.0,363.0,693.0,0.0,1,374.0,1
872,872,-0.3902888206287298,-0.4,1.0,0.0,367.0,863.0,1.0,1,1760.0,0
873,873,-0.06026859751073865,-0.1,0.0,1.0,453.0,769.0,1.0,0,-722.0,1
874,874,0.28315991434793164,0.3,0.0,0.0,286.0,913.0,1.0,0,-829.0,0
875,875,0.4412122932278969,0.4,0.0,0.0,451.0,829.0,0.0,1,1720.0,1
876,876,0.30789971384812487,0.3,1.0,1.0,383.0,864.0,1.0,1,-1117.0,1
877,877,-0.004871129683711062,-0.0,1.0,0.0,363.0,647.0,1.0,1,-680.0,0
878,878,-0.5222363077171952,-0.5,1.0,0.0,390.0,521.0,0.0,0,-901.0,1
879,879,-0.19675358909778118,-0.2,1.0,0.0,498.0,502.0,1.0,1,-380.0,0
880,880,-0.06934426574133457,-0.1,0.0,1.0,412.0,989.0,1.0,0,-621.0,1
881,881,0.7515934204256985,0.8,0.0,0.0,331.0,703.0,0.0,1,-624.0,1
882,882,-0.001205262300577159,-0.0,1.0,0.0,331.0,733.0,1.0,1,-114.0,0
883,883,0.3107571213212549,0.3,1.0,1.0,348.0,528.0,1.0,1,384.0,1
884,884,0.23842990479545334,0.2,0.0,0.0,371.0,558.0,0.0,1,-909.0,1
885,885,0.5777329802528984,0.6,1.0,1.0,496.0,904.0,0.0,0,1600.0,0
886,886,-0.3605520521220422,-0.4,1.0,0.0,421.0,703.0,1.0,1,1876.0,0
887,887,-0.1847375229298155,-0.2,0.0,1.0,327.0,664.0,0.0,1,-611.0,0
888,888,-0.6037895599478842,-0.6,1.0,0.0,266.0,801.0,0.0,0,-877.0,1
889,889,0.4679405358498444,0.5,0.0,0.0,295.0,869.0,0.0,1,1836.0,1
890,890,0.3438766007816386,0.3,0.0,0.0,452.0,573.0,0.0,1,85.0,1
891,891,0.6039932373075961,0.6,1.0,1.0,386.0,832.0,0.0,0,-1188.0,0
892,892,0.8533947099503741,0.9,0.0,0.0,433.0,996.0,0.0,1,921.0,1
893,893,0.5016176045348607,0.5,0.0,0.0,282.0,608.0,1.0,0,240.0,0
894,894,-0.21176082835537247,-0.2,0.0,1.0,333.0,927.0,1.0,0,340.0,1
895,895,0.10348451364587163,0.1,1.0,1.0,474.0,517.0,0.0,0,-671.0,0
896,896,-0.06574127084887371,-0.1,1.0,0.0,252.0,588.0,0.0,0,40.0,1
897,897,-0.22749632967331845,-0.2,1.0,0.0,266.0,536.0,0.0,0,-772.0,1
898,898,-0.1615289564661847,-0.2,1.0,0.0,352.0,558.0,0.0,0,-890.0,1
899,899,0.6987732018628788,0.7,0.0,0.0,267.0,562.0,0.0,1,161.0,1
900,900,0.04958728083263242,0.0,0.0,0.0,367.0,937.0,1.0,0,-1264.0,0
901,901,0.03171699282616247,0.0,1.0,1.0,357.0,733.0,1.0,1,360.0,1
902,902,-0.6990213707552934,-0.7,0.0,1.0,464.0,836.0,1.0,0,-820.0,1
903,903,-0.3109949770553089,-0.3,0.0,1.0,462.0,974.0,1.0,0,1564.0,1
904,904,-0.812205357220666,-0.8,0.0,1.0,313.0,583.0,0.0,1,684.0,0
905,905,-0.7759741193920263,-0.8,1.0,0.0,491.0,596.0,1.0,1,-257.0,0
906,906,-0.5368662393805713,-0.5,0.0,1.0,289.0,921.0,0.0,1,300.0,0
907,907,-0.6189907947928499,-0.6,0.0,1.0,359.0,971.0,1.0,0,-210.0,1
908,908,0.2855938600039555,0.3,1.0,1.0,319.0,681.0,1.0,1,-800.0,1
909,909,0.10915338055616808,0.1,0.0,0.0,298.0,998.0,1.0,0,634.0,0
910,910,0.5182719984789396,0.5,0.0,0.0,393.0,601.0,0.0,1,2006.0,1
911,911,-0.23967801471985517,-0.2,1.0,0.0,375.0,848.0,0.0,0,-1033.0,1
912,912,0.5001218431477003,0.5,0.0,0.0,336.0,682.0,0.0,1,-1018.0,1
913,913,-0.4314707259013186,-0.4,0.0,1.0,263.0,739.0,1.0,0,1418.0,1
914,914,0.40976489297118845,0.4,1.0,1.0,385.0,953.0,1.0,1,-758.0,1
915,915,0.2744893991173766,0.3,0.0,0.0,369.0,816.0,1.0,0,1815.0,0
916,916,-0.1403146251237859,-0.1,0.0,1.0,317.0,797.0,1.0,0,-1104.0,1
917,917,0.15135662497828462,0.2,0.0,0.0,311.0,847.0,1.0,0,1662.0,0
918,918,-0.23185426043243718,-0.2,0.0,1.0,463.0,840.0,0.0,1,-663.0,0
919,919,-0.8563140064820899,-0.9,1.0,0.0,396.0,669.0,1.0,1,905.0,0
920,920,-0.2968919677571368,-0.3,1.0,0.0,348.0,663.0,0.0,0,-811.0,1
921,921,-0.7232927384772234,-0.7,0.0,1.0,450.0,638.0,1.0,0,792.0,1
922,922,-0.09751676112506713,-0.1,0.0,1.0,489.0,650.0,0.0,1,-1049.0,0
923,923,-0.6617373304969807,-0.7,1.0,0.0,422.0,805.0,0.0,0,-1007.0,1
924,924,-0.5309970722992345,-0.5,1.0,0.0,402.0,933.0,1.0,1,475.0,0
925,925,-0.36553452861421665,-0.4,1.0,0.0,325.0,987.0,0.0,0,1218.0,1
926,926,0.8986862080324142,0.9,0.0,0.0,446.0,812.0,0.0,1,532.0,1
927,927,-0.20544956213382326,-0.2,0.0,1.0,430.0,934.0,1.0,0,-484.0,1
928,928,-0.3163721467754069,-0.3,0.0,1.0,261.0,668.0,0.0,1,-239.0,0
929,929,-0.4436675474105114,-0.4,0.0,1.0,263.0,980.0,1.0,0,-923.0,1
930,930,0.3468428886823135,0.3,0.0,0.0,314.0,880.0,1.0,0,-674.0,0
931,931,-0.0026482194536397996,-0.0,1.0,0.0,414.0,586.0,1.0,1,-420.0,0
932,932,-0.8779814718546953,-0.9,0.0,1.0,372.0,804.0,0.0,1,1824.0,0
933,933,-0.8121472628843444,-0.8,1.0,0.0,407.0,654.0,1.0,1,-671.0,0
934,934,-0.8559897492500073,-0.9,0.0,1.0,424.0,781.0,0.0,1,-655.0,0
935,935,0.1491760378188015,0.1,1.0,1.0,341.0,522.0,0.0,0,797.0,0
936,936,-0.42993483742504174,-0.4,0.0,1.0,495.0,855.0,1.0,0,-270.0,1
937,937,0.6901890059256705,0.7,0.0,0.0,431.0,978.0,1.0,0,-1269.0,0
938,938,0.8707605444039827,0.9,0.0,0.0,482.0,574.0,0.0,1,104.0,1
939,939,0.8498515646579535,0.8,0.0,0.0,489.0,695.0,1.0,0,-824.0,0
940,940,-0.037406247775724544,-0.0,1.0,0.0,387.0,592.0,0.0,0,281.0,1
941,941,0.08307981123765873,0.1,0.0,0.0,461.0,659.0,1.0,0,-1050.0,0
942,942,0.3169858866106664,0.3,1.0,1.0,414.0,845.0,0.0,0,-969.0,0
943,943,-0.4249195838408852,-0.4,0.0,1.0,399.0,652.0,0.0,1,-331.0,0
944,944,0.7801492136999381,0.8,0.0,0.0,262.0,936.0,0.0,1,-1008.0,1
945,945,0.22876596359218404,0.2,0.0,0.0,455.0,636.0,0.0,1,759.0,1
946,946,0.652408534516386,0.7,0.0,0.0,284.0,670.0,1.0,0,496.0,0
947,947,0.20389548932381307,0.2,0.0,0.0,344.0,848.0,1.0,0,-1102.0,0
948,948,-0.42637665050500156,-0.4,1.0,0.0,402.0,669.0,0.0,0,-721.0,1
949,949,-0.8311612655065088,-0.8,1.0,0.0,405.0,566.0,0.0,0,-381.0,1
950,950,-0.392771847893321,-0.4,1.0,0.0,371.0,646.0,1.0,1,-967.0,0
951,951,-0.2454830028619338,-0.2,0.0,1.0,410.0,538.0,1.0,0,-468.0,1
952,952,0.5261504753559755,0.5,0.0,0.0,490.0,866.0,1.0,0,1644.0,0
953,953,0.83745977920299,0.8,0.0,0.0,471.0,773.0,0.0,1,1756.0,1
954,954,0.05629508203378031,0.1,1.0,1.0,491.0,890.0,0.0,0,-1291.0,0
955,955,-0.4773457783189306,-0.5,0.0,1.0,380.0,826.0,1.0,0,44.0,1
956,956,-0.3956562680749197,-0.4,1.0,0.0,377.0,923.0,0.0,0,-610.0,1
957,957,-0.5415946951929311,-0.5,1.0,0.0,368.0,746.0,1.0,1,-874.0,0
958,958,0.16681365135286563,0.2,1.0,1.0,420.0,982.0,1.0,1,-422.0,1
959,959,-0.3088710514338311,-0.3,1.0,0.0,270.0,671.0,0.0,0,89.0,1
960,960,0.47946643806424494,0.5,1.0,1.0,299.0,709.0,1.0,1,-318.0,1
961,961,0.5739057934656421,0.6,0.0,0.0,264.0,842.0,1.0,0,-1076.0,0
962,962,0.18290192030238528,0.2,0.0,0.0,420.0,819.0,1.0,0,631.0,0
963,963,0.6891813982243636,0.7,0.0,0.0,417.0,896.0,1.0,0,757.0,0
964,964,0.20863456957012538,0.2,1.0,1.0,322.0,507.0,0.0,0,1041.0,0
965,965,-0.2958139621196696,-0.3,0.0,1.0,478.0,593.0,0.0,1,1929.0,0
966,966,-0.7231955458481443,-0.7,0.0,1.0,450.0,772.0,1.0,0,1068.0,1
967,967,-0.6059367407767842,-0.6,1.0,0.0,344.0,628.0,1.0,1,28.0,0
968,968,0.7437488893672509,0.7,1.0,1.0,278.0,732.0,0.0,0,-460.0,0
969,969,0.194750898267951,0.2,0.0,0.0,299.0,749.0,1.0,0,-908.0,0
970,970,-0.79464575908494,-0.8,1.0,0.0,293.0,695.0,1.0,1,-608.0,0
971,971,-0.09392597749247922,-0.1,0.0,1.0,461.0,747.0,0.0,1,-628.0,0
972,972,0.5108053668782059,0.5,1.0,1.0,252.0,590.0,0.0,0,-332.0,0
973,973,-0.07192729797891195,-0.1,0.0,1.0,459.0,708.0,0.0,1,-1007.0,0
974,974,-0.4006919895054171,-0.4,0.0,1.0,331.0,963.0,1.0,0,-904.0,1
975,975,0.6575162770061266,0.7,0.0,0.0,294.0,804.0,0.0,1,-118.0,1
976,976,-0.05156264804246358,-0.1,1.0,0.0,426.0,831.0,0.0,0,-497.0,1
977,977,0.7225302895585385,0.7,0.0,0.0,298.0,754.0,0.0,1,228.0,1
978,978,0.26215937309415815,0.3,0.0,0.0,396.0,978.0,1.0,0,1626.0,0
979,979,-0.11676666270222147,-0.1,1.0,0.0,341.0,764.0,0.0,0,35.0,1
980,980,-0.7215958294833635,-0.7,1.0,0.0,386.0,634.0,0.0,0,20.0,1
981,981,-0.6168567460668182,-0.6,1.0,0.0,273.0,703.0,0.0,0,384.0,1
982,982,0.4138200995985767,0.4,1.0,1.0,469.0,741.0,1.0,1,-560.0,1
983,983,-0.8979154741116128,-0.9,1.0,0.0,469.0,904.0,0.0,0,-563.0,1
984,984,0.19236108809063712,0.2,1.0,1.0,378.0,563.0,0.0,0,159.0,0
985,985,-0.6742124435615093,-0.7,0.0,1.0,450.0,738.0,0.0,1,1022.0,0
986,986,0.38380898781339134,0.4,0.0,0.0,271.0,754.0,1.0,0,685.0,0
987,987,0.3597286276603847,0.4,1.0,1.0,251.0,682.0,0.0,0,-573.0,0
988,988,0.3269029143993788,0.3,1.0,1.0,253.0,942.0,0.0,0,1805.0,0
989,989,-0.8939245725014302,-0.9,0.0,1.0,426.0,620.0,1.0,0,-526.0,1
990,990,0.3876940659783189,0.4,1.0,1.0,268.0,780.0,0.0,0,752.0,0
991,991,0.7065487778121472,0.7,1.0,1.0,337.0,775.0,1.0,1,-912.0,1
992,992,-0.1454343478321648,-0.1,1.0,0.0,366.0,851.0,1.0,1,-957.0,0
993,993,-0.4191622646959598,-0.4,0.0,1.0,341.0,994.0,0.0,1,1665.0,0
994,994,-0.6445105351179277,-0.6,1.0,0.0,454.0,863.0,1.0,1,-1167.0,0
995,995,0.2831379026226045,0.3,1.0,1.0,377.0,623.0,0.0,0,-920.0,0
996,996,-0.730250978237907,-0.7,0.0,1.0,280.0,580.0,0.0,1,-670.0,0
997,997,0.5317940596327017,0.5,1.0,1.0,433.0,648.0,0.0,0,979.0,0
998,998,0.37306943861762554,0.4,1.0,1.0,321.0,623.0,1.0,1,-914.0,1
999,999,-0.8519410349255814,-0.9,0.0,1.0,275.0,617.0,1.0,0,78.0,1
1000,1000,0.8920908148494789,0.9,0.0,0.0,452.0,743.0,1.0,0,-665.0,0
1001,1001,0.6945339847015485,0.7,0.0,0.0,348.0,736.0,1.0,0,-294.0,0
1002,1002,0.5295823537036818,0.5,1.0,1.0,432.0,673.0,0.0,0,-1025.0,0
1003,1003,-0.1102152938979526,-0.1,0.0,1.0,368.0,825.0,0.0,1,-1003.0,0
1004,1004,-0.28288715400840936,-0.3,1.0,0.0,374.0,520.0,0.0,0,776.0,1
1005,1005,-0.536062065991715,-0.5,0.0,1.0,342.0,627.0,0.0,1,2031.0,0
1006,1006,0.5832113326550462,0.6,1.0,1.0,343.0,602.0,0.0,0,-455.0,0
1007,1007,0.03361586506529202,0.0,0.0,0.0,377.0,844.0,1.0,0,1779.0,0
1008,1008,-0.6592096777939277,-0.7,0.0,1.0,272.0,596.0,1.0,0,2.0,1
1009,1009,-0.27866496596818147,-0.3,0.0,1.0,455.0,793.0,0.0,1,-1118.0,0
1010,1010,0.11326167196786485,0.1,0.0,0.0,353.0,539.0,0.0,1,-892.0,1
1011,1011,-0.2666127842497812,-0.3,0.0,1.0,278.0,801.0,1.0,0,691.0,1
1012,1012,-0.11517267084280725,-0.1,1.0,0.0,250.0,592.0,0.0,0,408.0,1
1013,1013,-0.32205276787601267,-0.3,1.0,0.0,304.0,716.0,1.0,1,-160.0,0
1014,1014,-0.8519636273009872,-0.9,0.0,1.0,376.0,915.0,0.0,1,-1201.0,0
1015,1015,0.859706893280927,0.9,1.0,1.0,448.0,658.0,0.0,0,-1086.0,0
1016,1016,0.06245852218860504,0.1,0.0,0.0,294.0,553.0,0.0,1,-837.0,1
1017,1017,-0.3476688273839367,-0.3,0.0,1.0,440.0,841.0,0.0,1,-1041.0,0
1018,1018,0.18079259881363396,0.2,1.0,1.0,268.0,697.0,0.0,0,205.0,0
1019,1019,0.023200637699884563,0.0,0.0,0.0,426.0,772.0,1.0,0,1102.0,0
1020,1020,-0.03699221364753502,-0.0,0.0,1.0,412.0,801.0,0.0,1,-1153.0,0
1021,1021,-0.8904989456020865,-0.9,1.0,0.0,360.0,579.0,0.0,0,-799.0,1
1022,1022,0.05413190053743777,0.1,1.0,1.0,337.0,940.0,0.0,0,-1147.0,0
1023,1023,0.5163807182181163,0.5,1.0,1.0,434.0,570.0,1.0,1,-294.0,1
1024,1024,0.7849643774688481,0.8,1.0,1.0,445.0,677.0,1.0,1,538.0,1
1025,1025,-0.14636607889298403,-0.1,1.0,0.0,265.0,554.0,0.0,0,-679.0,1
1026,1026,0.2779386190556704,0.3,1.0,1.0,317.0,859.0,0.0,0,-296.0,0
1027,1027,-0.6210468249672612,-0.6,0.0,1.0,347.0,786.0,0.0,1,-63.0,0
1028,1028,0.06858453672574316,0.1,1.0,1.0,382.0,681.0,0.0,0,767.0,0
1029,1029,0.6566482581765231,0.7,0.0,0.0,456.0,678.0,0.0,1,-34.0,1
1030,1030,0.8320519645528012,0.8,0.0,0.0,372.0,513.0,1.0,0,2115.0,0
1031,1031,0.4408664753948054,0.4,1.0,1.0,436.0,555.0,0.0,0,-971.0,0
1032,1032,0.23096840726949786,0.2,1.0,1.0,359.0,904.0,0.0,0,-983.0,0
1033,1033,0.13216357605288198,0.1,0.0,0.0,281.0,805.0,0.0,1,-1016.0,1
1034,1034,0.7578495799070276,0.8,0.0,0.0,257.0,854.0,0.0,1,1709.0,1
1035,1035,-0.8789013533929976,-0.9,0.0,1.0,329.0,657.0,1.0,0,-966.0,1
1036,1036,0.08995328703744321,0.1,1.0,1.0,433.0,765.0,0.0,0,-1108.0,0
1037,1037,-0.6536363967619634,-0.7,1.0,0.0,311.0,967.0,0.0,0,-1238.0,1
1038,1038,0.2000556202080549,0.2,0.0,0.0,282.0,782.0,0.0,1,-964.0,1
1039,1039,-0.7129344331046769,-0.7,1.0,0.0,489.0,611.0,1.0,1,-40.0,0
1040,1040,0.47690905677873163,0.5,1.0,1.0,408.0,963.0,1.0,1,-51.0,1
1041,1041,-0.4562056780767632,-0.5,0.0,1.0,350.0,629.0,0.0,1,-279.0,0
1042,1042,0.7267342569241776,0.7,0.0,0.0,492.0,602.0,0.0,1,-1074.0,1
1043,1043,-0.7060036702651676,-0.7,1.0,0.0,388.0,925.0,0.0,0,837.0,1
1044,1044,-0.18255141013466047,-0.2,0.0,1.0,261.0,560.0,0.0,1,-381.0,0
1045,1045,-0.7109837394281961,-0.7,0.0,1.0,430.0,864.0,0.0,1,-934.0,0
1046,1046,0.8386564868017509,0.8,1.0,1.0,497.0,697.0,0.0,0,26.0,0
1047,1047,-0.38219620258713094,-0.4,0.0,1.0,418.0,713.0,0.0,1,959.0,0
1048,1048,-0.6557399508843452,-0.7,0.0,1.0,356.0,890.0,1.0,0,-456.0,1
1049,1049,-0.47500240964130264,-0.5,1.0,0.0,469.0,732.0,0.0,0,-331.0,1
1050,1050,-0.28804727461213875,-0.3,1.0,0.0,476.0,928.0,1.0,1,-444.0,0
1051,1051,-0.7800078427968434,-0.8,0.0,1.0,349.0,853.0,1.0,0,1798.0,1
1052,1052,0.11556089100647082,0.1,1.0,1.0,432.0,897.0,1.0,1,91.0,1
1053,1053,0.35775694856253504,0.4,0.0,0.0,314.0,746.0,1.0,0,0.0,0
1054,1054,0.31909161490518,0.3,1.0,1.0,361.0,510.0,1.0,1,-821.0,1
1055,1055,-0.4502022600453326,-0.5,0.0,1.0,353.0,675.0,0.0,1,292.0,0
1056,1056,0.678374222530043,0.7,1.0,1.0,250.0,744.0,0.0,0,1106.0,0
1057,1057,-0.41815383633278524,-0.4,1.0,0.0,299.0,903.0,0.0,0,-722.0,1
1058,1058,0.512257960831329,0.5,1.0,1.0,442.0,874.0,0.0,0,-1146.0,0
1059,1059,-0.42045864926919935,-0.4,1.0,0.0,470.0,791.0,1.0,1,399.0,0
1060,1060,-0.7111782886742679,-0.7,1.0,0.0,410.0,513.0,1.0,1,-143.0,0
1061,1061,-0.026697901293696313,-0.0,0.0,1.0,338.0,689.0,1.0,0,-997.0,1
1062,1062,-0.7219614499146948,-0.7,0.0,1.0,329.0,629.0,0.0,1,-108.0,0
1063,1063,-0.8648961218819916,-0.9,0.0,1.0,350.0,791.0,1.0,0,179.0,1
1064,1064,-0.8631496084647092,-0.9,1.0,0.0,349.0,897.0,0.0,0,1754.0,1
1065,1065,-0.084218841735059,-0.1,1.0,0.0,433.0,596.0,1.0,1,-819.0,0
1066,1066,-0.8381221955472101,-0.8,1.0,0.0,281.0,585.0,1.0,1,-516.0,0
1067,1067,-0.05166771369436418,-0.1,0.0,1.0,253.0,868.0,0.0,1,399.0,0
1068,1068,0.6451625522207606,0.6,1.0,1.0,438.0,557.0,0.0,0,155.0,0
1069,1069,0.5215317924471362,0.5,0.0,0.0,388.0,511.0,0.0,1,541.0,1
1070,1070,0.407347210308601,0.4,1.0,1.0,484.0,929.0,1.0,1,247.0,1
1071,1071,-0.5177004897755977,-0.5,0.0,1.0,481.0,627.0,0.0,1,-878.0,0
1072,1072,0.084893469011042,0.1,1.0,1.0,372.0,723.0,1.0,1,-705.0,1
1073,1073,-0.31790946592599134,-0.3,0.0,1.0,414.0,615.0,1.0,0,1971.0,1
1074,1074,-0.5335838869808958,-0.5,1.0,0.0,364.0,921.0,0.0,0,205.0,1
1075,1075,-0.5249973275968052,-0.5,0.0,1.0,287.0,852.0,0.0,1,-99.0,0
1076,1076,-0.6302445426867589,-0.6,0.0,1.0,320.0,697.0,0.0,1,-1007.0,0
1077,1077,0.691317911602162,0.7,0.0,0.0,345.0,670.0,1.0,0,805.0,0
1078,1078,0.5070648447151401,0.5,1.0,1.0,395.0,878.0,0.0,0,-1103.0,0
1079,1079,0.4648112538942345,0.5,1.0,1.0,350.0,582.0,0.0,0,2068.0,0
1080,1080,-0.8015687868190605,-0.8,1.0,0.0,485.0,512.0,0.0,0,463.0,1
1081,1081,-0.06404949972026575,-0.1,0.0,1.0,365.0,975.0,1.0,0,-800.0,1
1082,1082,-0.7379103108074603,-0.7,0.0,1.0,479.0,942.0,1.0,0,419.0,1
1083,1083,-0.10369573122490727,-0.1,0.0,1.0,317.0,838.0,1.0,0,65.0,1
1084,1084,0.18423806827430866,0.2,1.0,1.0,414.0,571.0,0.0,0,2015.0,0
1085,1085,-0.08391793015199878,-0.1,1.0,0.0,344.0,781.0,0.0,0,-685.0,1
1086,1086,-0.26664377286349705,-0.3,0.0,1.0,299.0,520.0,1.0,0,271.0,1
1087,1087,0.7480585638769689,0.7,1.0,1.0,376.0,960.0,1.0,1,-946.0,1
1088,1088,0.872155211821272,0.9,1.0,1.0,452.0,822.0,0.0,0,-744.0,0
1089,1089,0.23823597365022764,0.2,1.0,1.0,494.0,506.0,0.0,0,-880.0,0
1090,1090,-0.6722314483731711,-0.7,0.0,1.0,363.0,577.0,0.0,1,-570.0,0
1091,1091,-0.4694573277690541,-0.5,1.0,0.0,308.0,625.0,0.0,0,-223.0,1
1092,1092,-0.3807501030005467,-0.4,1.0,0.0,429.0,688.0,0.0,0,563.0,1
1093,1093,0.3065980584941589,0.3,1.0,1.0,354.0,845.0,1.0,1,-1099.0,1
1094,1094,-0.5581528802954474,-0.6,1.0,0.0,304.0,614.0,1.0,1,-868.0,0
1095,1095,0.4288949492941766,0.4,1.0,1.0,400.0,539.0,0.0,0,2061.0,0
1096,1096,-0.2158206543461363,-0.2,0.0,1.0,251.0,985.0,1.0,0,-866.0,1
1097,1097,0.1370709745623312,0.1,1.0,1.0,254.0,519.0,1.0,1,497.0,1
1098,1098,0.4278898986541847,0.4,1.0,1.0,489.0,558.0,0.0,0,-297.0,0
1099,1099,-0.05409409440654822,-0.1,1.0,0.0,250.0,577.0,0.0,0,363.0,1
1100,1100,0.7422458741451693,0.7,1.0,1.0,394.0,516.0,1.0,1,-760.0,1
1101,1101,-0.7784243863483784,-0.8,0.0,1.0,321.0,604.0,0.0,1,-795.0,0
1102,1102,-0.2321924828958003,-0.2,1.0,0.0,483.0,536.0,1.0,1,-699.0,0
1103,1103,0.3151420578472307,0.3,0.0,0.0,322.0,629.0,1.0,0,-51.0,0
1104,1104,-0.46712884976881425,-0.5,0.0,1.0,400.0,571.0,1.0,0,-511.0,1
1105,1105,0.7490200335231506,0.7,0.0,0.0,406.0,778.0,0.0,1,596.0,1
1106,1106,-0.8078974152826263,-0.8,1.0,0.0,378.0,917.0,1.0,1,-475.0,0
1107,1107,0.6689622845342272,0.7,0.0,0.0,380.0,825.0,0.0,1,1795.0,1
1108,1108,-0.3500061340516024,-0.4,0.0,1.0,392.0,678.0,1.0,0,-1040.0,1
1109,1109,-0.3717058142222035,-0.4,1.0,0.0,491.0,505.0,0.0,0,444.0,1
1110,1110,0.711085180893685,0.7,0.0,0.0,479.0,634.0,1.0,0,87.0,0
1111,1111,-0.18758539447001232,-0.2,1.0,0.0,297.0,779.0,0.0,0,-436.0,1
1112,1112,-0.6025427864625068,-0.6,0.0,1.0,265.0,809.0,0.0,1,-914.0,0
1113,1113,-0.672977590306579,-0.7,1.0,0.0,359.0,737.0,0.0,0,1904.0,1
1114,1114,-0.01276346559272501,-0.0,0.0,1.0,486.0,807.0,0.0,1,-133.0,0
1115,1115,0.5288876909941268,0.5,1.0,1.0,397.0,592.0,1.0,1,-859.0,1
1116,1116,0.7183768119484725,0.7,1.0,1.0,450.0,960.0,0.0,0,-420.0,0
1117,1117,-0.872579341713628,-0.9,0.0,1.0,404.0,863.0,0.0,1,-1237.0,0
1118,1118,0.011939715137214701,0.0,1.0,1.0,311.0,849.0,1.0,1,-770.0,1
1119,1119,-0.4271257655889715,-0.4,0.0,1.0,416.0,570.0,0.0,1,-666.0,0
1120,1120,-0.5400673437192953,-0.5,1.0,0.0,270.0,613.0,0.0,0,-693.0,1
1121,1121,0.8195802211273201,0.8,1.0,1.0,474.0,551.0,0.0,0,-975.0,0
1122,1122,0.4639715642815122,0.5,1.0,1.0,275.0,716.0,1.0,1,-791.0,1
1123,1123,-0.8870561511844867,-0.9,0.0,1.0,336.0,595.0,1.0,0,459.0,1
1124,1124,0.6020325780689896,0.6,0.0,0.0,412.0,861.0,1.0,0,-263.0,0
1125,1125,-0.777539397559593,-0.8,0.0,1.0,414.0,585.0,1.0,0,-859.0,1
1126,1126,-0.3489616836461882,-0.3,1.0,0.0,417.0,636.0,0.0,0,-603.0,1
1127,1127,-0.8981743039489558,-0.9,1.0,0.0,329.0,981.0,0.0,0,370.0,1
1128,1128,0.6720669798340092,0.7,0.0,0.0,261.0,587.0,1.0,0,-698.0,0
1129,1129,0.6080932169887195,0.6,0.0,0.0,455.0,796.0,0.0,1,-131.0,1
1130,1130,0.12707700123872978,0.1,0.0,0.0,407.0,854.0,0.0,1,579.0,1
1131,1131,0.25277859949171655,0.3,0.0,0.0,349.0,900.0,0.0,1,-1189.0,1
1132,1132,0.03342151865460519,0.0,0.0,0.0,489.0,858.0,1.0,0,1653.0,0
1133,1133,0.6040670809639682,0.6,0.0,0.0,301.0,582.0,0.0,1,-233.0,1
1134,1134,-0.24492701048651233,-0.2,1.0,0.0,263.0,623.0,1.0,1,424.0,0
1135,1135,-0.626741856908644,-0.6,0.0,1.0,433.0,807.0,0.0,1,-1220.0,0
1136,1136,-0.7102435474431275,-0.7,0.0,1.0,328.0,924.0,0.0,1,-1042.0,0
1137,1137,0.23752029374541272,0.2,1.0,1.0,496.0,649.0,0.0,0,-1075.0,0
1138,1138,-0.026455471525717145,-0.0,0.0,1.0,405.0,541.0,1.0,0,844.0,1
1139,1139,0.37516786318178863,0.4,0.0,0.0,254.0,619.0,0.0,1,687.0,1
1140,1140,-0.6871456574034356,-0.7,0.0,1.0,425.0,919.0,0.0,1,-794.0,0
1141,1141,0.8895776266708696,0.9,0.0,0.0,378.0,720.0,0.0,1,-358.0,1
1142,1142,0.7942951223252198,0.8,1.0,1.0,358.0,917.0,1.0,1,-425.0,1
1143,1143,-0.11010591228612077,-0.1,1.0,0.0,478.0,889.0,0.0,0,-1367.0,1
1144,1144,0.4013608338291045,0.4,0.0,0.0,252.0,926.0,0.0,1,1072.0,1
1145,1145,0.5352039057218924,0.5,0.0,0.0,412.0,503.0,0.0,1,-25.0,1
1146,1146,-0.05240695726392208,-0.1,1.0,0.0,451.0,641.0,0.0,0,-972.0,1
1147,1147,0.3843399478229049,0.4,1.0,1.0,463.0,588.0,0.0,0,-931.0,0
1148,1148,0.8406648777992062,0.8,1.0,1.0,380.0,812.0,0.0,0,-652.0,0
1149,1149,0.23524070516980877,0.2,0.0,0.0,452.0,895.0,0.0,1,-1087.0,1
1150,1150,0.7480120070270905,0.7,0.0,0.0,374.0,684.0,0.0,1,-668.0,1
1151,1151,0.25180093129549685,0.3,1.0,1.0,325.0,761.0,0.0,0,734.0,0
1152,1152,0.597232702050383,0.6,0.0,0.0,486.0,733.0,0.0,1,-739.0,1
1153,1153,-0.8440744038899944,-0.8,0.0,1.0,359.0,781.0,1.0,0,310.0,1
1154,1154,-0.8268837016588998,-0.8,1.0,0.0,446.0,552.0,0.0,0,-268.0,1
1155,1155,0.06511193507763224,0.1,1.0,1.0,355.0,697.0,0.0,0,338.0,0
1156,1156,-0.1355467275350999,-0.1,0.0,1.0,364.0,770.0,1.0,0,406.0,1
1157,1157,-0.66237300676283,-0.7,0.0,1.0,493.0,516.0,1.0,0,-949.0,1
1158,1158,-0.8299302586099389,-0.8,1.0,0.0,360.0,593.0,0.0,0,-133.0,1
1159,1159,-0.2447788881098314,-0.2,0.0,1.0,459.0,956.0,1.0,0,-1175.0,1
1160,1160,-0.7765434757841186,-0.8,0.0,1.0,304.0,956.0,1.0,0,-1260.0,1
1161,1161,0.30083818692448416,0.3,0.0,0.0,370.0,990.0,0.0,1,-790.0,1
1162,1162,0.45751445685290537,0.5,0.0,0.0,456.0,653.0,0.0,1,-519.0,1
1163,1163,0.025503991131592185,0.0,0.0,0.0,325.0,756.0,1.0,0,-1081.0,0
1164,1164,0.7732807252099806,0.8,1.0,1.0,259.0,971.0,0.0,0,-1190.0,0
1165,1165,0.893922054253446,0.9,1.0,1.0,339.0,752.0,0.0,0,469.0,0
1166,1166,0.8804697245360077,0.9,0.0,0.0,394.0,638.0,1.0,0,1968.0,0
1167,1167,-0.15120626879364651,-0.2,0.0,1.0,367.0,617.0,1.0,0,-814.0,1
1168,1168,-0.4550140967722283,-0.5,1.0,0.0,365.0,954.0,0.0,0,1681.0,1
1169,1169,0.3874179194516093,0.4,1.0,1.0,479.0,637.0,1.0,1,-1056.0,1
1170,1170,0.1733561644095819,0.2,1.0,1.0,252.0,826.0,1.0,1,1922.0,1
1171,1171,-0.43159222179432344,-0.4,1.0,0.0,259.0,583.0,1.0,1,1648.0,0
1172,1172,-0.8689344208518731,-0.9,1.0,0.0,254.0,989.0,0.0,0,1007.0,1
1173,1173,-0.1708886474715564,-0.2,0.0,1.0,371.0,867.0,1.0,0,1762.0,1
1174,1174,0.10064107917244403,0.1,0.0,0.0,450.0,620.0,1.0,0,-1010.0,0
1175,1175,-0.22099411704209015,-0.2,1.0,0.0,370.0,518.0,0.0,0,2112.0,1
1176,1176,0.034494526795839864,0.0,1.0,1.0,272.0,987.0,0.0,0,-609.0,0
1177,1177,-0.05684067763194944,-0.1,1.0,0.0,280.0,884.0,1.0,1,-784.0,0
1178,1178,-0.36612095001931244,-0.4,1.0,0.0,283.0,773.0,1.0,1,-126.0,0
1179,1179,0.24045343471855862,0.2,0.0,0.0,309.0,994.0,1.0,0,1697.0,0
1180,1180,-0.20852395771600085,-0.2,0.0,1.0,494.0,753.0,1.0,0,-27.0,1
1181,1181,-0.49230215076715234,-0.5,0.0,1.0,359.0,571.0,0.0,1,-390.0,0
1182,1182,0.03523406873522772,0.0,1.0,1.0,436.0,793.0,0.0,0,-1179.0,0
1183,1183,-0.5439198027876835,-0.5,1.0,0.0,283.0,902.0,1.0,1,-865.0,0
1184,1184,-0.6389573668039334,-0.6,0.0,1.0,302.0,793.0,1.0,0,-1085.0,1
1185,1185,0.6621862527429597,0.7,1.0,1.0,274.0,953.0,1.0,1,-1197.0,1
1186,1186,-0.8436335447634834,-0.8,0.0,1.0,270.0,548.0,1.0,0,-648.0,1
1187,1187,-0.47082118927643324,-0.5,0.0,1.0,367.0,871.0,1.0,0,-1068.0,1
1188,1188,-0.8001529851697323,-0.8,1.0,0.0,268.0,573.0,1.0,1,359.0,0
1189,1189,0.16310894363548856,0.2,0.0,0.0,320.0,697.0,1.0,0,303.0,0
1190,1190,-0.2868119874499536,-0.3,0.0,1.0,375.0,697.0,0.0,1,1868.0,0
1191,1191,0.6803355533823147,0.7,0.0,0.0,290.0,573.0,0.0,1,2137.0,1
1192,1192,0.5941539582634227,0.6,1.0,1.0,285.0,899.0,1.0,1,106.0,1
1193,1193,0.8259945103913674,0.8,1.0,1.0,318.0,807.0,1.0,1,-1105.0,1
1194,1194,-0.3929184115271489,-0.4,0.0,1.0,279.0,969.0,0.0,1,642.0,0
1195,1195,-0.1557359005294735,-0.2,1.0,0.0,468.0,720.0,1.0,1,352.0,0
1196,1196,0.22001281843919263,0.2,0.0,0.0,397.0,986.0,0.0,1,-1363.0,1
1197,1197,0.23955736372404257,0.2,1.0,1.0,319.0,681.0,1.0,1,-520.0,1
1198,1198,0.8394195887896551,0.8,1.0,1.0,493.0,879.0,0.0,0,-1042.0,0
1199,1199,-0.04095199659312976,-0.0,1.0,0.0,341.0,926.0,0.0,0,-1157.0,1
1200,1200,-0.6051015872297327,-0.6,1.0,0.0,403.0,578.0,1.0,1,459.0,0
1201,1201,-0.5301571383008099,-0.5,1.0,0.0,419.0,520.0,1.0,1,2061.0,0
1202,1202,0.006728714930874791,0.0,0.0,0.0,388.0,608.0,1.0,0,1654.0,0
1203,1203,-0.8970342957845004,-0.9,1.0,0.0,443.0,712.0,1.0,1,-115.0,0
1204,1204,0.8151114270951864,0.8,1.0,1.0,276.0,941.0,0.0,0,-1067.0,0
1205,1205,-0.6252490526226815,-0.6,1.0,0.0,432.0,719.0,0.0,0,-691.0,1
1206,1206,0.8039591582953415,0.8,0.0,0.0,492.0,752.0,0.0,1,-774.0,1
1207,1207,0.7413516498362663,0.7,1.0,1.0,266.0,738.0,0.0,0,-934.0,0
1208,1208,0.0033957559222942413,0.0,0.0,0.0,448.0,725.0,0.0,1,1827.0,1
1209,1209,0.23089648284458353,0.2,1.0,1.0,257.0,647.0,1.0,1,-4.0,1
1210,1210,0.7029976586334169,0.7,1.0,1.0,477.0,585.0,0.0,0,-412.0,0
1211,1211,-0.18577395718043932,-0.2,1.0,0.0,299.0,760.0,0.0,0,1361.0,1
1212,1212,0.372981365393115,0.4,0.0,0.0,363.0,521.0,0.0,1,-84.0,1
1213,1213,0.10159570379371641,0.1,0.0,0.0,480.0,675.0,0.0,1,-295.0,1
1214,1214,0.8930555499424063,0.9,1.0,1.0,305.0,914.0,1.0,1,181.0,1
1215,1215,-0.09763291332866342,-0.1,0.0,1.0,287.0,555.0,0.0,1,1858.0,0
1216,1216,-0.6733554515179105,-0.7,0.0,1.0,447.0,858.0,1.0,0,-625.0,1
1217,1217,0.4274942228770434,0.4,0.0,0.0,346.0,689.0,1.0,0,1965.0,0
1218,1218,0.6802992942152283,0.7,0.0,0.0,378.0,800.0,1.0,0,-578.0,0
1219,1219,-0.7133852291252782,-0.7,0.0,1.0,429.0,980.0,0.0,1,-1059.0,0
1220,1220,-0.009475671646092088,-0.0,1.0,0.0,480.0,798.0,1.0,1,-768.0,0
1221,1221,-0.8576686585366619,-0.9,1.0,0.0,430.0,530.0,0.0,0,-140.0,1
1222,1222,-0.02119875413354222,-0.0,1.0,0.0,337.0,817.0,0.0,0,-754.0,1
1223,1223,0.4226567753547069,0.4,1.0,1.0,364.0,617.0,0.0,0,-561.0,0
1224,1224,-0.5219158126610193,-0.5,0.0,1.0,305.0,523.0,0.0,1,-788.0,0
1225,1225,0.37005404714318846,0.4,1.0,1.0,499.0,544.0,0.0,0,-563.0,0
1226,1226,-0.08588217307292068,-0.1,1.0,0.0,462.0,645.0,0.0,0,-397.0,1
1227,1227,0.7639978460231386,0.8,1.0,1.0,266.0,522.0,0.0,0,-498.0,0
1228,1228,-0.2699456089067619,-0.3,1.0,0.0,299.0,720.0,1.0,1,-369.0,0
1229,1229,0.057007041702760164,0.1,1.0,1.0,453.0,566.0,1.0,1,-579.0,1
1230,1230,0.037506195206167714,0.0,1.0,1.0,337.0,994.0,1.0,1,1669.0,1
1231,1231,0.8025318800841083,0.8,1.0,1.0,406.0,829.0,0.0,0,-175.0,0
1232,1232,-0.5423906349578127,-0.5,0.0,1.0,469.0,765.0,0.0,1,-744.0,0
1233,1233,0.8875815086743494,0.9,0.0,0.0,330.0,850.0,0.0,1,1820.0,1
1234,1234,-0.19101624369564563,-0.2,1.0,0.0,409.0,815.0,1.0,1,1436.0,0
1235,1235,-0.36143363791042704,-0.4,0.0,1.0,387.0,558.0,0.0,1,45.0,0
1236,1236,0.32966742741805743,0.3,0.0,0.0,414.0,750.0,0.0,1,-184.0,1
1237,1237,-0.2313563193677307,-0.2,1.0,0.0,381.0,758.0,0.0,0,-889.0,1
1238,1238,-0.7361658080685269,-0.7,1.0,0.0,370.0,843.0,0.0,0,1787.0,1
1239,1239,0.11087910897980102,0.1,1.0,1.0,424.0,837.0,0.0,0,-671.0,0
1240,1240,0.21510935857109803,0.2,0.0,0.0,459.0,973.0,0.0,1,-1332.0,1
1241,1241,0.017298778266272685,0.0,0.0,0.0,360.0,953.0,0.0,1,-1263.0,1
1242,1242,-0.16878099039626437,-0.2,1.0,0.0,489.0,951.0,1.0,1,-1310.0,0
1243,1243,-0.2426738781958675,-0.2,0.0,1.0,456.0,693.0,1.0,0,-919.0,1
1244,1244,-0.21655149713279298,-0.2,1.0,0.0,463.0,574.0,0.0,0,183.0,1
1245,1245,0.15558818677056874,0.2,1.0,1.0,262.0,965.0,0.0,0,923.0,0
1246,1246,0.48571213716866224,0.5,1.0,1.0,320.0,935.0,0.0,0,1745.0,0
1247,1247,0.4578197592260763,0.5,0.0,0.0,431.0,886.0,1.0,0,1423.0,0
1248,1248,-0.7277279534390493,-0.7,1.0,0.0,487.0,869.0,0.0,0,-866.0,1
1249,1249,0.5659092142419709,0.6,1.0,1.0,406.0,652.0,0.0,0,-918.0,0
1250,1250,-0.022784165814853208,-0.0,0.0,1.0,353.0,867.0,1.0,0,240.0,1
1251,1251,-0.49725465097834926,-0.5,0.0,1.0,332.0,545.0,1.0,0,2123.0,1
1252,1252,-0.38047720320819145,-0.4,0.0,1.0,471.0,972.0,0.0,1,-693.0,0
1253,1253,0.3679840003446221,0.4,0.0,0.0,301.0,798.0,1.0,0,1311.0,0
1254,1254,-0.33357110117543165,-0.3,0.0,1.0,469.0,881.0,0.0,1,-1290.0,0
1255,1255,-0.3219810430976199,-0.3,0.0,1.0,372.0,621.0,0.0,1,-783.0,0
1256,1256,-0.07867978463576397,-0.1,1.0,0.0,474.0,924.0,1.0,1,-878.0,0
1257,1257,-0.4847177075191711,-0.5,0.0,1.0,275.0,746.0,0.0,1,-951.0,0
1258,1258,0.6215738668814602,0.6,1.0,1.0,329.0,891.0,0.0,0,-1080.0,0
1259,1259,0.12407329495496955,0.1,1.0,1.0,386.0,646.0,0.0,0,-1012.0,0
1260,1260,0.007668436722324978,0.0,0.0,0.0,382.0,912.0,0.0,1,1706.0,1
1261,1261,0.1255765731884716,0.1,1.0,1.0,320.0,877.0,0.0,0,-727.0,0
1262,1262,-0.5062886152082788,-0.5,0.0,1.0,319.0,715.0,1.0,0,1756.0,1
1263,1263,-0.6927806905412524,-0.7,0.0,1.0,428.0,923.0,0.0,1,519.0,0
1264,1264,-0.4014243793340865,-0.4,0.0,1.0,361.0,565.0,1.0,0,1464.0,1
1265,1265,-0.1317987745518312,-0.1,1.0,0.0,481.0,994.0,0.0,0,-1265.0,1
1266,1266,0.827117094055896,0.8,0.0,0.0,331.0,674.0,0.0,1,625.0,1
1267,1267,-0.45398063199786454,-0.5,1.0,0.0,353.0,714.0,1.0,1,-657.0,0
1268,1268,-0.8313228360181113,-0.8,1.0,0.0,412.0,535.0,0.0,0,-637.0,1
1269,1269,-0.22246006976450772,-0.2,1.0,0.0,401.0,604.0,1.0,1,1795.0,0
1270,1270,0.10292050543532605,0.1,0.0,0.0,360.0,550.0,0.0,1,1140.0,1
1271,1271,0.11317372986992524,0.1,1.0,1.0,371.0,846.0,0.0,0,-1217.0,0
1272,1272,-0.32943673083204217,-0.3,0.0,1.0,262.0,670.0,0.0,1,-912.0,0
1273,1273,-0.8811434238338803,-0.9,1.0,0.0,466.0,615.0,0.0,0,989.0,1
1274,1274,-0.7318223620244768,-0.7,1.0,0.0,478.0,549.0,0.0,0,-517.0,1
1275,1275,-0.014176411301484837,-0.0,0.0,1.0,355.0,961.0,1.0,0,-1116.0,1
1276,1276,0.3301335715275574,0.3,0.0,0.0,430.0,998.0,1.0,0,-348.0,0
1277,1277,0.2276640563575031,0.2,0.0,0.0,423.0,786.0,1.0,0,-289.0,0
1278,1278,0.15809399420117598,0.2,1.0,1.0,454.0,737.0,0.0,0,169.0,0
1279,1279,-0.0312807542829302,-0.0,0.0,1.0,324.0,744.0,0.0,1,-338.0,0
1280,1280,-0.2651184393512984,-0.3,0.0,1.0,333.0,609.0,0.0,1,-922.0,0
1281,1281,-0.7265719707727587,-0.7,0.0,1.0,437.0,881.0,1.0,0,-1108.0,1
1282,1282,0.5455194143995995,0.5,0.0,0.0,326.0,598.0,0.0,1,2076.0,1
1283,1283,-0.266936999317095,-0.3,1.0,0.0,428.0,879.0,0.0,0,853.0,1
1284,1284,-0.24285557584923312,-0.2,0.0,1.0,415.0,786.0,0.0,1,-351.0,0
1285,1285,-0.041568977779231964,-0.0,0.0,1.0,310.0,758.0,1.0,0,1932.0,1
1286,1286,0.7350503724177305,0.7,1.0,1.0,472.0,878.0,0.0,0,310.0,0
1287,1287,0.8662734143469638,0.9,1.0,1.0,353.0,844.0,0.0,0,-1147.0,0
1288,1288,0.02336106361170709,0.0,1.0,1.0,448.0,756.0,1.0,1,-54.0,1
1289,1289,0.6033451436635097,0.6,0.0,0.0,357.0,627.0,1.0,0,746.0,0
1290,1290,0.18340329809626577,0.2,1.0,1.0,430.0,547.0,1.0,1,-677.0,1
1291,1291,-0.02542594753476879,-0.0,0.0,1.0,493.0,894.0,1.0,0,-467.0,1
1292,1292,-0.4149336996549097,-0.4,1.0,0.0,368.0,883.0,0.0,0,-441.0,1
1293,1293,0.2506237147164302,0.3,1.0,1.0,425.0,761.0,1.0,1,-1116.0,1
1294,1294,0.6325446525104467,0.6,0.0,0.0,256.0,883.0,0.0,1,-999.0,1
1295,1295,-0.5882771108358891,-0.6,1.0,0.0,395.0,776.0,0.0,0,-241.0,1
1296,1296,-0.2303117835475449,-0.2,1.0,0.0,281.0,848.0,1.0,1,-149.0,0
1297,1297,-0.3972851231793365,-0.4,0.0,1.0,269.0,781.0,0.0,1,-350.0,0
1298,1298,-0.5171191508081818,-0.5,0.0,1.0,362.0,601.0,0.0,1,17.0,0
1299,1299,-0.30699481732067213,-0.3,0.0,1.0,378.0,582.0,0.0,1,-190.0,0
1300,1300,0.09385939599384385,0.1,0.0,0.0,464.0,984.0,0.0,1,-768.0,1
1301,1301,0.36696977648547124,0.4,0.0,0.0,374.0,945.0,1.0,0,-1269.0,0
1302,1302,-0.8273572679451628,-0.8,1.0,0.0,465.0,805.0,1.0,1,-720.0,0
1303,1303,-0.5391986816501686,-0.5,0.0,1.0,499.0,908.0,0.0,1,203.0,0
1304,1304,-0.7341928587446682,-0.7,0.0,1.0,302.0,752.0,0.0,1,-994.0,0
1305,1305,-0.2473518056488757,-0.2,0.0,1.0,312.0,674.0,1.0,0,-136.0,1
1306,1306,0.8383579411377401,0.8,0.0,0.0,296.0,894.0,0.0,1,120.0,1
1307,1307,-0.17176370176146694,-0.2,1.0,0.0,359.0,627.0,0.0,0,-886.0,1
1308,1308,-0.8363782652609041,-0.8,0.0,1.0,379.0,647.0,0.0,1,-756.0,0
1309,1309,0.7696068651537519,0.8,1.0,1.0,486.0,543.0,1.0,1,1261.0,1
1310,1310,-0.6025639221760768,-0.6,0.0,1.0,279.0,838.0,1.0,0,1593.0,1
1311,1311,0.023607856865852206,0.0,1.0,1.0,368.0,832.0,0.0,0,-660.0,0
1312,1312,0.7227139479523971,0.7,0.0,0.0,401.0,817.0,1.0,0,-1208.0,0
1313,1313,-0.7954286323271736,-0.8,1.0,0.0,393.0,587.0,0.0,0,290.0,1
1314,1314,0.8609663139449341,0.9,0.0,0.0,330.0,825.0,0.0,1,-1075.0,1
1315,1315,0.5323412009761058,0.5,1.0,1.0,473.0,597.0,0.0,0,-540.0,0
1316,1316,-0.5384961856662935,-0.5,1.0,0.0,370.0,969.0,1.0,1,351.0,0
1317,1317,-0.28617252970758966,-0.3,0.0,1.0,352.0,867.0,0.0,1,-169.0,0
1318,1318,-0.2689168824330843,-0.3,0.0,1.0,258.0,818.0,1.0,0,724.0,1
1319,1319,-0.3736547370819241,-0.4,0.0,1.0,255.0,859.0,0.0,1,-1064.0,0
1320,1320,0.1278069481091274,0.1,1.0,1.0,353.0,820.0,1.0,1,-1023.0,1
1321,1321,-0.3026526826314163,-0.3,0.0,1.0,319.0,765.0,1.0,0,-824.0,1
1322,1322,0.36654668706353954,0.4,0.0,0.0,325.0,898.0,0.0,1,-1193.0,1
1323,1323,-0.31803781989143376,-0.3,1.0,0.0,424.0,808.0,0.0,0,-1152.0,1
1324,1324,-0.8611661828040755,-0.9,1.0,0.0,435.0,739.0,0.0,0,346.0,1
1325,1325,-0.20664396098749283,-0.2,1.0,0.0,307.0,534.0,1.0,1,539.0,0
1326,1326,0.8851423877598846,0.9,0.0,0.0,479.0,530.0,0.0,1,-109.0,1
1327,1327,0.7330010400152881,0.7,1.0,1.0,454.0,799.0,1.0,1,-933.0,1
1328,1328,-0.013022136858796496,-0.0,0.0,1.0,353.0,856.0,0.0,1,531.0,0
1329,1329,-0.6534079640089115,-0.7,1.0,0.0,465.0,934.0,0.0,0,-1109.0,1
1330,1330,0.15905460526718607,0.2,0.0,0.0,359.0,545.0,1.0,0,86.0,0
1331,1331,0.7003993116451172,0.7,1.0,1.0,375.0,707.0,0.0,0,-102.0,0
1332,1332,-0.6038347281548796,-0.6,1.0,0.0,340.0,843.0,0.0,0,1457.0,1
1333,1333,-0.6483404026208747,-0.6,0.0,1.0,438.0,777.0,0.0,1,-1175.0,0
1334,1334,-0.09070745207814723,-0.1,1.0,0.0,368.0,519.0,0.0,0,1393.0,1
1335,1335,0.22381761089087637,0.2,1.0,1.0,351.0,566.0,1.0,1,-887.0,1
1336,1336,-0.49743871036266635,-0.5,0.0,1.0,368.0,952.0,0.0,1,-250.0,0
1337,1337,0.2982008323344122,0.3,0.0,0.0,251.0,516.0,0.0,1,-727.0,1
1338,1338,-0.07564685738179455,-0.1,0.0,1.0,415.0,689.0,1.0,0,-1044.0,1
1339,1339,0.6571651380666196,0.7,1.0,1.0,364.0,844.0,0.0,0,-288.0,0
1340,1340,0.6704078469514404,0.7,0.0,0.0,373.0,958.0,1.0,0,399.0,0
1341,1341,0.2837884079153127,0.3,0.0,0.0,400.0,546.0,1.0,0,-246.0,0
1342,1342,-0.5703363901356882,-0.6,1.0,0.0,467.0,910.0,0.0,0,-907.0,1
1343,1343,-0.13660511377733997,-0.1,1.0,0.0,329.0,734.0,1.0,1,-893.0,0
1344,1344,0.1284258033968032,0.1,0.0,0.0,301.0,787.0,0.0,1,1912.0,1
1345,1345,0.6826679671691506,0.7,0.0,0.0,263.0,568.0,1.0,0,799.0,0
1346,1346,0.18170727531041908,0.2,0.0,0.0,347.0,737.0,1.0,0,-414.0,0
1347,1347,0.603371555998396,0.6,0.0,0.0,413.0,637.0,1.0,0,670.0,0
1348,1348,-0.5779426733112774,-0.6,0.0,1.0,391.0,861.0,1.0,0,-1042.0,1
1349,1349,-0.5083570942036189,-0.5,1.0,0.0,342.0,883.0,0.0,0,255.0,1
1350,1350,-0.6970768461963711,-0.7,0.0,1.0,319.0,578.0,0.0,1,2103.0,0
1351,1351,-0.06533872604829905,-0.1,1.0,0.0,279.0,816.0,0.0,0,485.0,1
1352,1352,0.4775414298831283,0.5,0.0,0.0,411.0,858.0,1.0,0,1731.0,0
1353,1353,-0.6580171381620881,-0.7,0.0,1.0,261.0,883.0,0.0,1,-724.0,0
1354,1354,-0.8940761634270135,-0.9,0.0,1.0,253.0,959.0,0.0,1,-412.0,0
1355,1355,0.7355743996163376,0.7,1.0,1.0,380.0,635.0,0.0,0,-135.0,0
1356,1356,0.8117195302263939,0.8,1.0,1.0,331.0,830.0,0.0,0,-651.0,0
1357,1357,0.8184041222789079,0.8,1.0,1.0,340.0,997.0,0.0,0,-567.0,0
1358,1358,0.2190689512554419,0.2,1.0,1.0,388.0,984.0,1.0,1,-242.0,1
1359,1359,0.15587104696844867,0.2,1.0,1.0,495.0,572.0,0.0,0,323.0,0
1360,1360,-0.868921101084574,-0.9,1.0,0.0,298.0,513.0,0.0,0,-381.0,1
1361,1361,-0.483561589390843,-0.5,0.0,1.0,302.0,795.0,0.0,1,-987.0,0
1362,1362,0.8473487202730127,0.8,0.0,0.0,372.0,755.0,0.0,1,-567.0,1
1363,1363,0.7574220553050056,0.8,1.0,1.0,497.0,913.0,0.0,0,-1170.0,0
1364,1364,0.13105111881870768,0.1,1.0,1.0,494.0,796.0,0.0,0,-30.0,0
1365,1365,-0.08373830141887872,-0.1,0.0,1.0,466.0,754.0,0.0,1,530.0,0
1366,1366,0.19762935618830324,0.2,1.0,1.0,313.0,766.0,1.0,1,-899.0,1
1367,1367,-0.8286549192955759,-0.8,0.0,1.0,300.0,750.0,0.0,1,-990.0,0
1368,1368,-0.34761692978940717,-0.3,0.0,1.0,377.0,565.0,1.0,0,-422.0,1
1369,1369,-0.8324975726485908,-0.8,0.0,1.0,324.0,556.0,1.0,0,-170.0,1
1370,1370,0.023760933427096176,0.0,1.0,1.0,468.0,733.0,0.0,0,-891.0,0
1371,1371,-0.7691761815076044,-0.8,1.0,0.0,369.0,873.0,0.0,0,18.0,1
1372,1372,0.7148096150084392,0.7,1.0,1.0,318.0,823.0,0.0,0,-901.0,0
1373,1373,0.38492178808437394,0.4,0.0,0.0,338.0,715.0,1.0,0,-883.0,0
1374,1374,0.5930222047266055,0.6,1.0,1.0,254.0,743.0,1.0,1,-997.0,1
1375,1375,-0.43224253232749427,-0.4,1.0,0.0,415.0,949.0,0.0,0,-834.0,1
1376,1376,-0.05159540309092214,-0.1,1.0,0.0,397.0,646.0,0.0,0,-943.0,1
1377,1377,0.19034061174117023,0.2,1.0,1.0,431.0,531.0,0.0,0,708.0,0
1378,1378,-0.058544913907150775,-0.1,1.0,0.0,330.0,723.0,0.0,0,1477.0,1
1379,1379,-0.3970353258430709,-0.4,1.0,0.0,260.0,884.0,1.0,1,1856.0,0
1380,1380,-0.20400797047836938,-0.2,0.0,1.0,305.0,506.0,1.0,0,-811.0,1
1381,1381,-0.06964974070358332,-0.1,1.0,0.0,296.0,614.0,1.0,1,-780.0,0
1382,1382,-0.7744148986221627,-0.8,0.0,1.0,410.0,575.0,0.0,1,-835.0,0
1383,1383,0.013960339865138116,0.0,0.0,0.0,406.0,611.0,0.0,1,-27.0,1
1384,1384,-0.3344708466879317,-0.3,1.0,0.0,255.0,817.0,0.0,0,-692.0,1
1385,1385,0.38814817151363934,0.4,0.0,0.0,353.0,937.0,1.0,0,-300.0,0
1386,1386,-0.4501550049107316,-0.5,1.0,0.0,420.0,885.0,0.0,0,-1165.0,1
1387,1387,-0.1295650752891182,-0.1,0.0,1.0,423.0,554.0,0.0,1,-547.0,0
1388,1388,-0.7712872965101397,-0.8,0.0,1.0,439.0,556.0,0.0,1,355.0,0
1389,1389,-0.7197742177904628,-0.7,0.0,1.0,272.0,816.0,1.0,0,-868.0,1
1390,1390,0.03007406220102815,0.0,1.0,1.0,441.0,694.0,0.0,0,1335.0,0
1391,1391,0.30768789220260906,0.3,1.0,1.0,392.0,874.0,0.0,0,14.0,0
1392,1392,0.26718306838330086,0.3,0.0,0.0,375.0,583.0,1.0,0,-938.0,0
1393,1393,0.37242264758865307,0.4,0.0,0.0,431.0,663.0,1.0,0,-594.0,0
1394,1394,0.06750771146238044,0.1,1.0,1.0,268.0,977.0,1.0,1,-1185.0,1
1395,1395,0.4271398312350926,0.4,0.0,0.0,432.0,576.0,0.0,1,1192.0,1
1396,1396,0.7210082748944336,0.7,1.0,1.0,265.0,712.0,0.0,0,-877.0,0
1397,1397,0.8045269708893451,0.8,1.0,1.0,342.0,854.0,0.0,0,-546.0,0
1398,1398,-0.1234225736910255,-0.1,1.0,0.0,345.0,812.0,1.0,1,-107.0,0
1399,1399,-0.3819005807239113,-0.4,1.0,0.0,413.0,822.0,0.0,0,-1085.0,1
1400,1400,0.18440521034420543,0.2,0.0,0.0,411.0,862.0,1.0,0,1337.0,0
1401,1401,-0.8287899652743942,-0.8,0.0,1.0,424.0,977.0,1.0,0,-1161.0,1
1402,1402,0.6832167991675769,0.7,1.0,1.0,419.0,569.0,1.0,1,382.0,1
1403,1403,-0.27482629939451564,-0.3,0.0,1.0,292.0,655.0,0.0,1,1003.0,0
1404,1404,0.17693057501477216,0.2,0.0,0.0,302.0,770.0,0.0,1,268.0,1
1405,1405,0.7648077825880663,0.8,0.0,0.0,384.0,675.0,1.0,0,-769.0,0
1406,1406,-0.20477524073009268,-0.2,0.0,1.0,327.0,849.0,1.0,0,1124.0,1
1407,1407,0.7589569066220822,0.8,1.0,1.0,277.0,521.0,1.0,1,1332.0,1
1408,1408,0.22836041665544948,0.2,1.0,1.0,460.0,971.0,0.0,0,-501.0,0
1409,1409,-0.5828636390957,-0.6,1.0,0.0,304.0,690.0,0.0,0,1636.0,1
1410,1410,-0.12884913638494555,-0.1,1.0,0.0,444.0,892.0,0.0,0,-1186.0,1
1411,1411,-0.03030617085079046,-0.0,0.0,1.0,368.0,728.0,1.0,0,344.0,1
1412,1412,0.2054915536373122,0.2,0.0,0.0,374.0,775.0,0.0,1,751.0,1
1413,1413,-0.6446325325515347,-0.6,1.0,0.0,275.0,527.0,1.0,1,-692.0,0
1414,1414,-0.6777280384605171,-0.7,1.0,0.0,376.0,661.0,0.0,0,983.0,1
1415,1415,-0.6835748930893327,-0.7,1.0,0.0,326.0,742.0,0.0,0,-858.0,1
1416,1416,0.06335121989693926,0.1,1.0,1.0,308.0,898.0,0.0,0,1794.0,0
1417,1417,0.7201251400035457,0.7,1.0,1.0,470.0,656.0,0.0,0,-236.0,0
1418,1418,0.2596411291522206,0.3,0.0,0.0,408.0,842.0,1.0,0,-1230.0,0
1419,1419,-0.32110876264660304,-0.3,0.0,1.0,387.0,820.0,0.0,1,-327.0,0
1420,1420,0.36362831299202425,0.4,0.0,0.0,404.0,804.0,0.0,1,-468.0,1
1421,1421,-0.0575468944468871,-0.1,1.0,0.0,451.0,645.0,1.0,1,1764.0,0
1422,1422,-0.306524531585208,-0.3,1.0,0.0,444.0,868.0,1.0,1,-1212.0,0
1423,1423,0.10408065323680427,0.1,1.0,1.0,326.0,762.0,1.0,1,1102.0,1
1424,1424,-0.08986477220459521,-0.1,1.0,0.0,448.0,967.0,0.0,0,-715.0,1
1425,1425,0.2522397773328374,0.3,0.0,0.0,294.0,934.0,1.0,0,-448.0,0
1426,1426,-0.7036919838126825,-0.7,0.0,1.0,430.0,952.0,0.0,1,-112.0,0
1427,1427,0.5878723089278414,0.6,1.0,1.0,408.0,529.0,1.0,1,-487.0,1
1428,1428,-0.5083293057458537,-0.5,0.0,1.0,466.0,931.0,1.0,0,743.0,1
1429,1429,-0.3001407449316976,-0.3,0.0,1.0,431.0,835.0,1.0,0,134.0,1
1430,1430,0.7901704480295791,0.8,0.0,0.0,271.0,711.0,1.0,0,1168.0,0
1431,1431,-0.729740809606205,-0.7,1.0,0.0,439.0,971.0,0.0,0,270.0,1
1432,1432,0.032566544664223485,0.0,1.0,1.0,381.0,678.0,1.0,1,311.0,1
1433,1433,0.19756847232873354,0.2,1.0,1.0,467.0,576.0,0.0,0,-313.0,0
1434,1434,0.45118546128688275,0.5,1.0,1.0,404.0,814.0,0.0,0,-978.0,0
1435,1435,-0.24241231277984354,-0.2,0.0,1.0,329.0,983.0,0.0,1,628.0,0
1436,1436,0.2589562787025431,0.3,1.0,1.0,393.0,545.0,1.0,1,512.0,1
1437,1437,-0.522967627850871,-0.5,1.0,0.0,272.0,788.0,0.0,0,-550.0,1
1438,1438,-0.13493411607626726,-0.1,0.0,1.0,290.0,617.0,1.0,0,-127.0,1
1439,1439,-0.36881402683254294,-0.4,1.0,0.0,411.0,759.0,0.0,0,-1140.0,1
1440,1440,-0.11043286844774436,-0.1,0.0,1.0,390.0,945.0,0.0,1,-1315.0,0
1441,1441,-0.0037114942399368855,-0.0,0.0,1.0,485.0,640.0,0.0,1,-1115.0,0
1442,1442,0.7880460307963163,0.8,1.0,1.0,414.0,772.0,0.0,0,-966.0,0
1443,1443,-0.26915482239366506,-0.3,1.0,0.0,434.0,502.0,1.0,1,-736.0,0
1444,1444,0.5595255689637332,0.6,1.0,1.0,431.0,742.0,0.0,0,-93.0,0
1445,1445,-0.5646469289047116,-0.6,1.0,0.0,288.0,776.0,1.0,1,-674.0,0
1446,1446,0.6527647426752962,0.7,1.0,1.0,478.0,542.0,0.0,0,-920.0,0
1447,1447,0.8685921983203356,0.9,0.0,0.0,483.0,873.0,0.0,1,814.0,1
1448,1448,-0.7611367602397083,-0.8,1.0,0.0,279.0,586.0,0.0,0,2135.0,1
1449,1449,-0.8576715294701918,-0.9,0.0,1.0,253.0,816.0,1.0,0,1821.0,1
1450,1450,0.538507351977407,0.5,0.0,0.0,495.0,728.0,0.0,1,17.0,1
1451,1451,0.6253457850100089,0.6,1.0,1.0,364.0,721.0,0.0,0,1255.0,0
1452,1452,0.07498371773019386,0.1,0.0,0.0,281.0,876.0,0.0,1,463.0,1
1453,1453,0.2230743026350529,0.2,0.0,0.0,357.0,587.0,0.0,1,-284.0,1
1454,1454,-0.3852371286944375,-0.4,0.0,1.0,311.0,560.0,1.0,0,-681.0,1
1455,1455,0.4653204178905098,0.5,0.0,0.0,258.0,799.0,0.0,1,1923.0,1
1456,1456,-0.19201501114978703,-0.2,1.0,0.0,303.0,699.0,1.0,1,-632.0,0
1457,1457,-0.29527870493240005,-0.3,0.0,1.0,482.0,682.0,0.0,1,1446.0,0
1458,1458,-0.8783244366078488,-0.9,0.0,1.0,313.0,864.0,0.0,1,-1067.0,0
1459,1459,0.015056082420827122,0.0,1.0,1.0,285.0,771.0,1.0,1,-996.0,1
1460,1460,-0.4355615420006507,-0.4,0.0,1.0,428.0,515.0,0.0,1,-763.0,0
1461,1461,0.790211076891605,0.8,1.0,1.0,389.0,536.0,1.0,1,-735.0,1
1462,1462,0.17611468493662497,0.2,1.0,1.0,282.0,708.0,0.0,0,460.0,0
1463,1463,0.4936573922877526,0.5,1.0,1.0,413.0,667.0,0.0,0,-450.0,0
1464,1464,0.24283129620869037,0.2,0.0,0.0,366.0,617.0,1.0,0,2017.0,0
1465,1465,0.690766039468866,0.7,1.0,1.0,433.0,619.0,0.0,0,-472.0,0
1466,1466,-0.31749498143089583,-0.3,1.0,0.0,443.0,775.0,0.0,0,1782.0,1
1467,1467,-0.6596626929895918,-0.7,0.0,1.0,333.0,523.0,0.0,1,244.0,0
1468,1468,0.5898675045694434,0.6,1.0,1.0,320.0,897.0,0.0,0,-807.0,0
1469,1469,-0.44333900603435433,-0.4,1.0,0.0,401.0,882.0,0.0,0,-553.0,1
1470,1470,0.06729907029113236,0.1,1.0,1.0,455.0,808.0,0.0,0,1737.0,0
1471,1471,-0.477480126018726,-0.5,0.0,1.0,472.0,601.0,1.0,0,-483.0,1
1472,1472,-0.42510397803603833,-0.4,0.0,1.0,494.0,542.0,1.0,0,-666.0,1
