,trial,coherence,coherence_bin,green_side,correct_side,target_onset,checker_onset,decision,green_decision,decision_time,correct_decision
0,0,-0.6798177378780826,-0.7,0.0,1.0,421.0,569.0,1.0,0,540.0,1
1,1,0.7594371457301597,0.8,1.0,1.0,354.0,729.0,0.0,0,-233.0,0
2,2,-0.6322752407930696,-0.6,1.0,0.0,422.0,674.0,1.0,1,34.0,0
3,3,0.6220986706669637,0.6,1.0,1.0,453.0,646.0,1.0,1,681.0,1
4,4,-0.3060286610511087,-0.3,0.0,1.0,473.0,696.0,1.0,0,1571.0,1
5,5,0.1689704162885609,0.2,0.0,0.0,385.0,777.0,0.0,1,228.0,1
6,6,0.2944150856625388,0.3,1.0,1.0,434.0,913.0,0.0,0,-177.0,0
7,7,-0.7763029647359763,-0.8,1.0,0.0,396.0,907.0,0.0,0,177.0,1
8,8,0.7526412832266524,0.8,1.0,1.0,392.0,978.0,1.0,1,90.0,1
9,9,0.33744577444377655,0.3,1.0,1.0,439.0,526.0,1.0,1,275.0,1
10,10,0.32619944543132806,0.3,1.0,1.0,304.0,835.0,1.0,1,181.0,1
11,11,0.649865037179831,0.6,0.0,0.0,481.0,662.0,0.0,1,197.0,1
12,12,0.8199508072461147,0.8,0.0,0.0,358.0,561.0,0.0,1,141.0,1
13,13,-0.03352128046099856,-0.0,1.0,0.0,462.0,561.0,1.0,1,507.0,0
14,14,0.6308342742719183,0.6,1.0,1.0,413.0,886.0,1.0,1,-489.0,1
15,15,0.17360717738727438,0.2,1.0,1.0,410.0,891.0,1.0,1,229.0,1
16,16,-0.01415649494229232,-0.0,1.0,0.0,356.0,693.0,0.0,0,111.0,1
17,17,-0.38581436477918063,-0.4,0.0,1.0,474.0,687.0,1.0,0,379.0,1
18,18,-0.8461326631148327,-0.8,1.0,0.0,349.0,511.0,0.0,0,350.0,1
19,19,-0.1979498734379842,-0.2,1.0,0.0,395.0,759.0,0.0,0,256.0,1
20,20,0.4912901165118594,0.5,0.0,0.0,417.0,543.0,0.0,1,460.0,1
21,21,0.2669847413897629,0.3,0.0,0.0,404.0,963.0,0.0,1,223.0,1
22,22,0.8710208985103761,0.9,0.0,0.0,473.0,817.0,0.0,1,20.0,1
23,23,0.8761633217157777,0.9,0.0,0.0,372.0,593.0,0.0,1,325.0,1
24,24,0.2098696418093825,0.2,1.0,1.0,256.0,630.0,0.0,0,-36.0,0
25,25,0.35142465842077864,0.4,1.0,1.0,275.0,992.0,1.0,1,573.0,1
26,26,-0.24826917839370222,-0.2,1.0,0.0,251.0,873.0,0.0,0,-354.0,1
27,27,0.5757175280812709,0.6,1.0,1.0,419.0,567.0,1.0,1,154.0,1
28,28,0.5780205901518675,0.6,1.0,1.0,484.0,712.0,1.0,1,204.0,1
29,29,-0.6631876566641086,-0.7,0.0,1.0,337.0,606.0,1.0,0,1927.0,1
30,30,-0.6439534997549587,-0.6,0.0,1.0,320.0,845.0,1.0,0,665.0,1
31,31,-0.12157328651841448,-0.1,1.0,0.0,479.0,649.0,0.0,0,1702.0,1
32,32,0.04429839560134874,0.0,1.0,1.0,337.0,855.0,0.0,0,538.0,0
33,33,-0.014300626764317204,-0.0,1.0,0.0,307.0,506.0,0.0,0,237.0,1
34,34,-0.4001251987181875,-0.4,1.0,0.0,354.0,904.0,0.0,0,812.0,1
35,35,-0.06004705809504163,-0.1,0.0,1.0,389.0,622.0,1.0,0,519.0,1
36,36,0.6638551977265778,0.7,1.0,1.0,334.0,540.0,0.0,0,-864.0,0
37,37,-0.3085187990090813,-0.3,1.0,0.0,411.0,801.0,0.0,0,288.0,1
38,38,-0.47868215299827993,-0.5,1.0,0.0,499.0,644.0,0.0,0,97.0,1
39,39,-0.13282342516823642,-0.1,0.0,1.0,403.0,630.0,1.0,0,1417.0,1
40,40,0.4059793939298987,0.4,0.0,0.0,312.0,790.0,0.0,1,918.0,1
41,41,-0.08562650292961616,-0.1,1.0,0.0,465.0,507.0,0.0,0,778.0,1
42,42,0.8328907819449717,0.8,1.0,1.0,273.0,521.0,1.0,1,-64.0,1
43,43,0.5636987138871167,0.6,0.0,0.0,483.0,928.0,0.0,1,679.0,1
44,44,0.8250165773869002,0.8,1.0,1.0,308.0,687.0,1.0,1,535.0,1
45,45,-0.24938694493341362,-0.2,0.0,1.0,450.0,689.0,1.0,0,751.0,1
46,46,0.06996675231998262,0.1,1.0,1.0,332.0,877.0,0.0,0,-179.0,0
47,47,0.49065546632852663,0.5,1.0,1.0,493.0,775.0,1.0,1,282.0,1
48,48,-0.3470346420966416,-0.3,1.0,0.0,402.0,914.0,0.0,0,344.0,1
49,49,-0.026151269917857545,-0.0,0.0,1.0,380.0,928.0,0.0,1,-548.0,0
50,50,-0.8552826569684516,-0.9,1.0,0.0,369.0,863.0,0.0,0,-112.0,1
51,51,0.6475589683289501,0.6,0.0,0.0,353.0,616.0,0.0,1,211.0,1
52,52,0.3353708919908681,0.3,1.0,1.0,438.0,602.0,1.0,1,1220.0,1
53,53,-0.4032224076678018,-0.4,1.0,0.0,442.0,630.0,0.0,0,568.0,1
54,54,0.5630959964073555,0.6,0.0,0.0,436.0,678.0,0.0,1,426.0,1
55,55,0.5248360548471339,0.5,1.0,1.0,416.0,710.0,1.0,1,204.0,1
56,56,0.6457315240394378,0.6,1.0,1.0,467.0,854.0,1.0,1,339.0,1
57,57,0.8793401577842334,0.9,0.0,0.0,447.0,833.0,0.0,1,180.0,1
58,58,0.01345391276333352,0.0,0.0,0.0,403.0,796.0,0.0,1,351.0,1
59,59,-0.385412467497132,-0.4,0.0,1.0,287.0,839.0,1.0,0,1854.0,1
60,60,0.7465445930815152,0.7,0.0,0.0,349.0,875.0,0.0,1,326.0,1
61,61,0.730344555406702,0.7,1.0,1.0,263.0,615.0,1.0,1,702.0,1
62,62,-0.38782810749739094,-0.4,1.0,0.0,253.0,745.0,0.0,0,42.0,1
63,63,0.6915345990785374,0.7,0.0,0.0,417.0,938.0,0.0,1,495.0,1
64,64,0.6134288969363323,0.6,1.0,1.0,373.0,885.0,0.0,0,-468.0,0
65,65,0.5247804710114162,0.5,1.0,1.0,310.0,834.0,1.0,1,586.0,1
66,66,0.4803373050134735,0.5,1.0,1.0,414.0,859.0,0.0,0,37.0,0
67,67,-0.32018095506049016,-0.3,0.0,1.0,270.0,635.0,1.0,0,2505.0,1
68,68,0.47695297800274894,0.5,1.0,1.0,371.0,578.0,1.0,1,-39.0,1
69,69,-0.20357734090995705,-0.2,0.0,1.0,452.0,696.0,0.0,1,1272.0,0
70,70,0.6613103028737964,0.7,1.0,1.0,497.0,636.0,1.0,1,67.0,1
71,71,0.650526639850494,0.7,0.0,0.0,491.0,775.0,0.0,1,114.0,1
72,72,-0.8901284249716731,-0.9,0.0,1.0,335.0,663.0,1.0,0,362.0,1
73,73,0.01620018084015651,0.0,0.0,0.0,430.0,822.0,0.0,1,508.0,1
74,74,0.6730176036508108,0.7,1.0,1.0,393.0,991.0,1.0,1,-14.0,1
75,75,-0.3162721507053272,-0.3,0.0,1.0,261.0,714.0,1.0,0,475.0,1
76,76,-0.5674438225613289,-0.6,1.0,0.0,466.0,862.0,0.0,0,182.0,1
77,77,-0.19194248966223681,-0.2,1.0,0.0,291.0,925.0,0.0,0,624.0,1
78,78,0.6343949696538028,0.6,1.0,1.0,277.0,749.0,1.0,1,384.0,1
79,79,0.8736794772394697,0.9,0.0,0.0,272.0,981.0,0.0,1,357.0,1
80,80,0.30120715383589924,0.3,0.0,0.0,332.0,947.0,0.0,1,171.0,1
81,81,0.2950918515210258,0.3,0.0,0.0,325.0,978.0,0.0,1,-33.0,1
82,82,-0.3880803832789026,-0.4,1.0,0.0,324.0,503.0,0.0,0,253.0,1
83,83,-0.13002362091313358,-0.1,0.0,1.0,258.0,594.0,1.0,0,4148.0,1
84,84,-0.7810673840324335,-0.8,1.0,0.0,329.0,589.0,1.0,1,-148.0,0
85,85,-0.17518755550955956,-0.2,1.0,0.0,410.0,698.0,0.0,0,102.0,1
86,86,-0.878020513697458,-0.9,1.0,0.0,454.0,585.0,0.0,0,261.0,1
87,87,-0.0990510595726598,-0.1,0.0,1.0,314.0,901.0,0.0,1,1555.0,0
88,88,0.242395869775062,0.2,0.0,0.0,275.0,803.0,0.0,1,782.0,1
89,89,-0.5835167120849605,-0.6,1.0,0.0,392.0,652.0,0.0,0,-44.0,1
90,90,-0.8999116835664153,-0.9,1.0,0.0,306.0,908.0,0.0,0,386.0,1
91,91,-0.15584273201894328,-0.2,1.0,0.0,343.0,951.0,0.0,0,-364.0,1
92,92,0.18903440175159159,0.2,0.0,0.0,294.0,963.0,0.0,1,503.0,1
93,93,-0.08175028807827178,-0.1,1.0,0.0,405.0,895.0,0.0,0,150.0,1
94,94,-0.45588757812007963,-0.5,1.0,0.0,383.0,852.0,0.0,0,85.0,1
95,95,0.2751988398628452,0.3,1.0,1.0,324.0,930.0,0.0,0,116.0,0
96,96,0.4255955510579593,0.4,1.0,1.0,316.0,511.0,1.0,1,303.0,1
97,97,0.24769262010272064,0.2,0.0,0.0,471.0,582.0,0.0,1,707.0,1
98,98,0.05866611614187711,0.1,1.0,1.0,420.0,970.0,0.0,0,-20.0,0
99,99,-0.06224151321534732,-0.1,0.0,1.0,305.0,563.0,0.0,1,852.0,0
100,100,0.646519368262844,0.6,1.0,1.0,427.0,940.0,1.0,1,213.0,1
101,101,0.752694960320485,0.8,1.0,1.0,482.0,583.0,1.0,1,325.0,1
102,102,-0.008693539159656538,-0.0,0.0,1.0,347.0,566.0,1.0,0,1987.0,1
103,103,0.5665777794941186,0.6,0.0,0.0,282.0,840.0,0.0,1,538.0,1
104,104,0.8594826283696023,0.9,1.0,1.0,290.0,947.0,1.0,1,83.0,1
105,105,-0.590280375492549,-0.6,1.0,0.0,402.0,839.0,0.0,0,499.0,1
106,106,-0.7754496334401504,-0.8,1.0,0.0,406.0,512.0,0.0,0,222.0,1
107,107,-0.8401341191120885,-0.8,0.0,1.0,299.0,752.0,1.0,0,119.0,1
108,108,0.6717680422183904,0.7,0.0,0.0,491.0,575.0,0.0,1,294.0,1
109,109,0.8636205403327782,0.9,0.0,0.0,490.0,518.0,0.0,1,-48.0,1
110,110,0.14772717283979564,0.1,1.0,1.0,265.0,723.0,0.0,0,-318.0,0
111,111,0.325808931622129,0.3,0.0,0.0,478.0,516.0,0.0,1,96.0,1
112,112,0.6568489966973557,0.7,0.0,0.0,420.0,888.0,0.0,1,172.0,1
113,113,0.21387459020732524,0.2,1.0,1.0,403.0,778.0,1.0,1,-221.0,1
114,114,-0.005364008466664738,-0.0,0.0,1.0,338.0,619.0,0.0,1,93.0,0
115,115,-0.03239128110209122,-0.0,0.0,1.0,495.0,855.0,0.0,1,430.0,0
116,116,-0.17359002003463164,-0.2,0.0,1.0,337.0,674.0,1.0,0,2059.0,1
117,117,0.4287816513131636,0.4,1.0,1.0,315.0,567.0,1.0,1,558.0,1
118,118,-0.8376531153250522,-0.8,0.0,1.0,363.0,917.0,0.0,1,-580.0,0
119,119,0.7731131029613575,0.8,0.0,0.0,263.0,773.0,0.0,1,214.0,1
120,120,0.6333411956492793,0.6,0.0,0.0,415.0,739.0,0.0,1,96.0,1
121,121,-0.5364347810654655,-0.5,1.0,0.0,284.0,915.0,0.0,0,351.0,1
122,122,0.06807310945776157,0.1,0.0,0.0,486.0,527.0,0.0,1,257.0,1
123,123,-0.682528400927484,-0.7,0.0,1.0,251.0,901.0,1.0,0,478.0,1
124,124,0.1515772289801044,0.2,0.0,0.0,483.0,581.0,0.0,1,666.0,1
125,125,0.5530020975863094,0.6,0.0,0.0,353.0,830.0,0.0,1,737.0,1
126,126,-0.6763228238483247,-0.7,0.0,1.0,319.0,626.0,1.0,0,535.0,1
127,127,-0.4018563569376446,-0.4,0.0,1.0,288.0,667.0,1.0,0,745.0,1
128,128,-0.24936932252815613,-0.2,0.0,1.0,454.0,913.0,1.0,0,1983.0,1
129,129,0.07510890171234386,0.1,1.0,1.0,327.0,511.0,1.0,1,112.0,1
130,130,0.49929152440464775,0.5,1.0,1.0,313.0,752.0,0.0,0,635.0,0
131,131,0.21491240280593227,0.2,1.0,1.0,401.0,593.0,0.0,0,-414.0,0
132,132,-0.8009170907777458,-0.8,1.0,0.0,414.0,925.0,0.0,0,-79.0,1
133,133,0.7070475670583797,0.7,0.0,0.0,419.0,856.0,0.0,1,275.0,1
134,134,-0.6107248371851743,-0.6,0.0,1.0,371.0,873.0,1.0,0,1556.0,1
135,135,0.6181924739154748,0.6,1.0,1.0,485.0,957.0,1.0,1,458.0,1
136,136,0.36082028691033197,0.4,1.0,1.0,313.0,532.0,1.0,1,1075.0,1
137,137,0.5056695905218241,0.5,1.0,1.0,463.0,698.0,1.0,1,59.0,1
138,138,0.22347747461973044,0.2,1.0,1.0,270.0,725.0,1.0,1,435.0,1
139,139,-0.037743371904894185,-0.0,0.0,1.0,368.0,541.0,1.0,0,351.0,1
140,140,-0.053599313429502526,-0.1,0.0,1.0,369.0,534.0,0.0,1,37.0,0
141,141,-0.8909905913271267,-0.9,0.0,1.0,435.0,500.0,1.0,0,555.0,1
142,142,0.1085943306273568,0.1,0.0,0.0,358.0,814.0,0.0,1,1938.0,1
143,143,0.2724202816625826,0.3,0.0,0.0,362.0,953.0,0.0,1,755.0,1
144,144,0.30648797553023754,0.3,0.0,0.0,408.0,980.0,0.0,1,-268.0,1
145,145,-0.5398370318943331,-0.5,1.0,0.0,489.0,621.0,0.0,0,690.0,1
146,146,0.8830445204415968,0.9,0.0,0.0,481.0,968.0,0.0,1,71.0,1
147,147,0.6043812499365572,0.6,0.0,0.0,450.0,943.0,0.0,1,387.0,1
148,148,-0.0662704341432454,-0.1,1.0,0.0,379.0,620.0,0.0,0,511.0,1
149,149,-0.23753371614160879,-0.2,1.0,0.0,484.0,887.0,0.0,0,-121.0,1
150,150,-0.2340902721724316,-0.2,1.0,0.0,269.0,968.0,0.0,0,213.0,1
151,151,0.774456567474589,0.8,1.0,1.0,282.0,688.0,1.0,1,190.0,1
152,152,-0.7349816281147161,-0.7,0.0,1.0,276.0,646.0,1.0,0,318.0,1
153,153,0.7939502538421067,0.8,1.0,1.0,452.0,790.0,1.0,1,638.0,1
154,154,-0.47624902436048655,-0.5,1.0,0.0,391.0,507.0,0.0,0,282.0,1
155,155,0.6670834951494732,0.7,1.0,1.0,333.0,630.0,1.0,1,147.0,1
156,156,0.1524994531688334,0.2,1.0,1.0,390.0,628.0,0.0,0,482.0,0
157,157,0.5646216297081535,0.6,0.0,0.0,270.0,523.0,0.0,1,237.0,1
158,158,-0.810062063986316,-0.8,0.0,1.0,399.0,888.0,1.0,0,783.0,1
159,159,0.5288409595432778,0.5,1.0,1.0,300.0,559.0,1.0,1,351.0,1
160,160,0.8643555957485792,0.9,1.0,1.0,386.0,910.0,1.0,1,-56.0,1
161,161,-0.3338702002608279,-0.3,1.0,0.0,497.0,543.0,1.0,1,70.0,0
162,162,-0.6806488060584845,-0.7,0.0,1.0,265.0,951.0,1.0,0,484.0,1
163,163,0.7365471064629966,0.7,1.0,1.0,382.0,898.0,0.0,0,-450.0,0
164,164,-0.37257097883192847,-0.4,1.0,0.0,325.0,549.0,0.0,0,2356.0,1
165,165,0.04544323322866073,0.0,0.0,0.0,259.0,929.0,0.0,1,1022.0,1
166,166,0.17373237651739182,0.2,0.0,0.0,453.0,838.0,0.0,1,-151.0,1
167,167,-0.7342589666368016,-0.7,0.0,1.0,287.0,674.0,1.0,0,499.0,1
168,168,0.19850565680906673,0.2,0.0,0.0,294.0,539.0,0.0,1,527.0,1
169,169,0.02503482124616918,0.0,1.0,1.0,403.0,807.0,0.0,0,480.0,0
170,170,-0.8582287230538466,-0.9,0.0,1.0,486.0,914.0,0.0,1,-280.0,0
171,171,0.7253003915862671,0.7,0.0,0.0,304.0,917.0,0.0,1,349.0,1
172,172,0.1546254359183613,0.2,1.0,1.0,305.0,508.0,1.0,1,747.0,1
173,173,0.05872651882629931,0.1,1.0,1.0,360.0,552.0,0.0,0,728.0,0
174,174,0.024706179797029493,0.0,0.0,0.0,356.0,757.0,0.0,1,537.0,1
175,175,-0.7564348237293507,-0.8,0.0,1.0,397.0,665.0,1.0,0,498.0,1
176,176,-0.0775687942049792,-0.1,0.0,1.0,313.0,944.0,0.0,1,-357.0,0
177,177,-0.1931366607951357,-0.2,1.0,0.0,394.0,847.0,0.0,0,559.0,1
178,178,-0.33389239656466485,-0.3,0.0,1.0,289.0,559.0,1.0,0,4152.0,1
179,179,0.60751586335342,0.6,0.0,0.0,295.0,830.0,0.0,1,605.0,1
180,180,-0.09445591933411113,-0.1,0.0,1.0,346.0,572.0,1.0,0,642.0,1
181,181,-0.5657451619922278,-0.6,0.0,1.0,383.0,646.0,1.0,0,1081.0,1
182,182,-0.5324653631121806,-0.5,0.0,1.0,429.0,830.0,0.0,1,-259.0,0
183,183,0.16247626830998685,0.2,0.0,0.0,472.0,747.0,0.0,1,511.0,1
184,184,0.44370824181773083,0.4,1.0,1.0,463.0,582.0,1.0,1,475.0,1
185,185,0.5130286626038426,0.5,0.0,0.0,350.0,697.0,0.0,1,783.0,1
186,186,0.14948548760743197,0.1,0.0,0.0,402.0,634.0,0.0,1,2034.0,1
187,187,-0.7782159984751477,-0.8,1.0,0.0,412.0,789.0,0.0,0,-21.0,1
188,188,0.8415743583397709,0.8,1.0,1.0,408.0,651.0,1.0,1,731.0,1
189,189,0.8726331419711407,0.9,1.0,1.0,394.0,596.0,1.0,1,-230.0,1
190,190,-0.07635750025414112,-0.1,0.0,1.0,255.0,656.0,0.0,1,219.0,0
191,191,0.503826315723018,0.5,0.0,0.0,259.0,976.0,0.0,1,315.0,1
192,192,-0.0171599322842495,-0.0,1.0,0.0,351.0,926.0,0.0,0,343.0,1
193,193,0.46670725001105795,0.5,0.0,0.0,316.0,723.0,0.0,1,-79.0,1
194,194,0.81304603123963,0.8,1.0,1.0,383.0,894.0,1.0,1,123.0,1
195,195,0.15902925062630568,0.2,0.0,0.0,343.0,912.0,1.0,0,25.0,0
196,196,-0.7567879164509808,-0.8,0.0,1.0,474.0,911.0,1.0,0,425.0,1
197,197,0.8173018862019804,0.8,1.0,1.0,423.0,641.0,0.0,0,-34.0,0
198,198,-0.6267187905892684,-0.6,0.0,1.0,282.0,576.0,1.0,0,212.0,1
199,199,-0.1991767178899022,-0.2,1.0,0.0,484.0,833.0,0.0,0,323.0,1
200,200,0.8482846678758306,0.8,0.0,0.0,363.0,547.0,0.0,1,160.0,1
201,201,-0.3548003189975406,-0.4,0.0,1.0,256.0,985.0,0.0,1,-61.0,0
202,202,-0.5716540369929544,-0.6,0.0,1.0,331.0,626.0,1.0,0,943.0,1
203,203,0.11540619639871019,0.1,0.0,0.0,406.0,934.0,0.0,1,590.0,1
204,204,0.19162084586765238,0.2,0.0,0.0,421.0,636.0,0.0,1,283.0,1
205,205,-0.5284853672306538,-0.5,0.0,1.0,253.0,789.0,0.0,1,-272.0,0
206,206,-0.23891612693062048,-0.2,0.0,1.0,467.0,586.0,1.0,0,407.0,1
207,207,0.27042661267778045,0.3,0.0,0.0,315.0,810.0,0.0,1,525.0,1
208,208,-0.6631600722242795,-0.7,1.0,0.0,422.0,773.0,0.0,0,975.0,1
209,209,0.07523889925944605,0.1,0.0,0.0,367.0,613.0,0.0,1,1270.0,1
210,210,0.13807138705733302,0.1,0.0,0.0,495.0,945.0,0.0,1,-580.0,1
211,211,-0.039080798087213764,-0.0,1.0,0.0,269.0,598.0,0.0,0,1003.0,1
212,212,-0.26805366781062323,-0.3,0.0,1.0,428.0,935.0,1.0,0,417.0,1
213,213,-0.6449707922684074,-0.6,0.0,1.0,315.0,826.0,1.0,0,129.0,1
214,214,0.00652516600483366,0.0,0.0,0.0,271.0,581.0,0.0,1,1758.0,1
215,215,0.7928138760886773,0.8,1.0,1.0,282.0,772.0,1.0,1,326.0,1
216,216,0.4945700955923028,0.5,1.0,1.0,297.0,776.0,0.0,0,-73.0,0
217,217,-0.2982318629408549,-0.3,0.0,1.0,250.0,621.0,1.0,0,459.0,1
218,218,0.47766142435489745,0.5,0.0,0.0,356.0,561.0,0.0,1,383.0,1
219,219,0.07815791173607523,0.1,1.0,1.0,365.0,640.0,0.0,0,475.0,0
220,220,-0.4147565429689493,-0.4,1.0,0.0,482.0,920.0,0.0,0,-602.0,1
221,221,-0.08939571754106723,-0.1,0.0,1.0,476.0,786.0,0.0,1,18.0,0
222,222,-0.6183040381495402,-0.6,0.0,1.0,294.0,573.0,1.0,0,913.0,1
223,223,-0.6156735938609287,-0.6,1.0,0.0,439.0,745.0,0.0,0,446.0,1
224,224,0.7662004532070791,0.8,1.0,1.0,460.0,521.0,1.0,1,319.0,1
225,225,-0.42252603175945896,-0.4,0.0,1.0,297.0,538.0,1.0,0,1105.0,1
226,226,-0.8186023039063748,-0.8,0.0,1.0,447.0,696.0,1.0,0,617.0,1
227,227,-0.4943180284801872,-0.5,1.0,0.0,391.0,988.0,0.0,0,-249.0,1
228,228,-0.5276157171622144,-0.5,0.0,1.0,360.0,590.0,1.0,0,710.0,1
229,229,-0.16413417280128006,-0.2,1.0,0.0,317.0,921.0,0.0,0,722.0,1
230,230,-0.17059313669775078,-0.2,1.0,0.0,449.0,576.0,1.0,1,755.0,0
231,231,-0.26559600864650523,-0.3,0.0,1.0,428.0,547.0,1.0,0,1115.0,1
232,232,0.7534694724595862,0.8,1.0,1.0,292.0,804.0,1.0,1,414.0,1
233,233,-0.26953610877071665,-0.3,1.0,0.0,342.0,977.0,0.0,0,1.0,1
234,234,-0.6192932202530725,-0.6,1.0,0.0,400.0,762.0,0.0,0,-312.0,1
235,235,0.13399372113060892,0.1,1.0,1.0,380.0,953.0,1.0,1,-383.0,1
236,236,0.6644072653234098,0.7,0.0,0.0,451.0,518.0,0.0,1,501.0,1
237,237,0.25881325620720486,0.3,0.0,0.0,468.0,914.0,0.0,1,308.0,1
238,238,-0.7291219037028548,-0.7,0.0,1.0,277.0,780.0,1.0,0,783.0,1
239,239,0.5532738677110182,0.6,1.0,1.0,394.0,924.0,1.0,1,-158.0,1
240,240,-0.28895298157559945,-0.3,1.0,0.0,467.0,624.0,0.0,0,-341.0,1
241,241,-0.8174673668564173,-0.8,0.0,1.0,377.0,674.0,1.0,0,189.0,1
242,242,0.4559588634227806,0.5,0.0,0.0,299.0,550.0,0.0,1,221.0,1
243,243,0.5971806151205304,0.6,0.0,0.0,499.0,772.0,0.0,1,359.0,1
244,244,0.5585205434736741,0.6,1.0,1.0,391.0,953.0,1.0,1,266.0,1
245,245,-0.4594463122972212,-0.5,1.0,0.0,347.0,527.0,0.0,0,816.0,1
246,246,-0.0282086908542184,-0.0,1.0,0.0,339.0,646.0,0.0,0,175.0,1
247,247,0.8855185517970142,0.9,1.0,1.0,430.0,880.0,1.0,1,140.0,1
248,248,-0.7308544011101719,-0.7,0.0,1.0,469.0,659.0,1.0,0,452.0,1
249,249,0.41799838882029705,0.4,0.0,0.0,356.0,682.0,0.0,1,92.0,1
250,250,0.25013773369626946,0.3,1.0,1.0,254.0,614.0,1.0,1,312.0,1
251,251,0.576722844097402,0.6,0.0,0.0,399.0,613.0,0.0,1,258.0,1
252,252,-0.7735645718546833,-0.8,0.0,1.0,295.0,597.0,1.0,0,498.0,1
253,253,-0.2635330120954821,-0.3,0.0,1.0,316.0,861.0,1.0,0,693.0,1
254,254,-0.3636813675116224,-0.4,1.0,0.0,358.0,512.0,1.0,1,70.0,0
255,255,-0.23857606741561665,-0.2,0.0,1.0,352.0,881.0,1.0,0,527.0,1
256,256,0.8604959478846813,0.9,0.0,0.0,457.0,971.0,0.0,1,72.0,1
257,257,-0.4554716660525724,-0.5,1.0,0.0,288.0,849.0,0.0,0,-127.0,1
258,258,-0.37356681175665074,-0.4,1.0,0.0,473.0,786.0,0.0,0,111.0,1
259,259,0.6928957898920803,0.7,0.0,0.0,433.0,781.0,0.0,1,206.0,1
260,260,0.7792021791130884,0.8,1.0,1.0,477.0,733.0,1.0,1,430.0,1
261,261,-0.20156307891540437,-0.2,0.0,1.0,455.0,561.0,0.0,1,3984.0,0
262,262,-0.48244438736417766,-0.5,1.0,0.0,444.0,746.0,0.0,0,290.0,1
263,263,0.6030457227109122,0.6,1.0,1.0,428.0,959.0,1.0,1,203.0,1
264,264,-0.18444802063814192,-0.2,0.0,1.0,334.0,985.0,1.0,0,491.0,1
265,265,-0.22625091997780689,-0.2,0.0,1.0,269.0,941.0,1.0,0,1160.0,1
266,266,-0.5265968991403491,-0.5,1.0,0.0,408.0,561.0,0.0,0,261.0,1
267,267,0.05059060064449761,0.1,0.0,0.0,439.0,749.0,0.0,1,-48.0,1
268,268,-0.734281192946578,-0.7,1.0,0.0,343.0,985.0,0.0,0,492.0,1
269,269,-0.2575401296406452,-0.3,0.0,1.0,339.0,826.0,0.0,1,1505.0,0
270,270,-0.123192262851059,-0.1,1.0,0.0,445.0,583.0,0.0,0,1772.0,1
271,271,-0.2549113853625704,-0.3,0.0,1.0,492.0,984.0,0.0,1,234.0,0
272,272,-0.041045963861990775,-0.0,1.0,0.0,497.0,564.0,1.0,1,-491.0,0
273,273,-0.36320365950164424,-0.4,1.0,0.0,378.0,813.0,0.0,0,-71.0,1
274,274,0.5620591564763918,0.6,1.0,1.0,428.0,502.0,1.0,1,780.0,1
275,275,-0.7733060023678084,-0.8,0.0,1.0,354.0,958.0,1.0,0,618.0,1
276,276,-0.47252588039408294,-0.5,1.0,0.0,413.0,829.0,0.0,0,-152.0,1
277,277,0.04730847611195799,0.0,1.0,1.0,280.0,800.0,1.0,1,530.0,1
278,278,0.3376104616971821,0.3,0.0,0.0,382.0,672.0,0.0,1,476.0,1
279,279,0.06782320924953178,0.1,1.0,1.0,404.0,532.0,0.0,0,114.0,0
280,280,-0.23035558889908658,-0.2,0.0,1.0,412.0,510.0,0.0,1,1038.0,0
281,281,0.34728398473051614,0.3,0.0,0.0,359.0,849.0,0.0,1,422.0,1
282,282,-0.6791680787133759,-0.7,1.0,0.0,424.0,862.0,0.0,0,354.0,1
283,283,0.22172487469659707,0.2,0.0,0.0,320.0,680.0,0.0,1,1140.0,1
284,284,-0.0263901878177224,-0.0,1.0,0.0,272.0,754.0,0.0,0,-116.0,1
285,285,0.10462739050713565,0.1,0.0,0.0,317.0,657.0,0.0,1,636.0,1
286,286,-0.5287734982180214,-0.5,0.0,1.0,469.0,839.0,1.0,0,312.0,1
287,287,-0.2270665721792161,-0.2,1.0,0.0,452.0,785.0,0.0,0,-227.0,1
288,288,-0.7546148634607611,-0.8,1.0,0.0,464.0,960.0,0.0,0,216.0,1
289,289,0.8956150535391297,0.9,1.0,1.0,404.0,755.0,1.0,1,141.0,1
290,290,-0.6305347584127168,-0.6,0.0,1.0,383.0,739.0,0.0,1,108.0,0
291,291,-0.7834059144715395,-0.8,1.0,0.0,442.0,685.0,0.0,0,273.0,1
292,292,-0.5922077768689755,-0.6,0.0,1.0,468.0,875.0,1.0,0,177.0,1
293,293,-0.7657070521793732,-0.8,1.0,0.0,262.0,762.0,0.0,0,196.0,1
294,294,0.2272114592895661,0.2,1.0,1.0,269.0,980.0,1.0,1,511.0,1
295,295,0.3077245775349061,0.3,0.0,0.0,413.0,816.0,0.0,1,191.0,1
296,296,0.8630482086117254,0.9,1.0,1.0,295.0,671.0,1.0,1,444.0,1
297,297,-0.5493695541811893,-0.5,0.0,1.0,295.0,764.0,1.0,0,421.0,1
298,298,0.4517630290652098,0.5,0.0,0.0,365.0,863.0,0.0,1,72.0,1
299,299,-0.07597211385522196,-0.1,1.0,0.0,405.0,515.0,0.0,0,320.0,1
300,300,0.7607281285341382,0.8,0.0,0.0,340.0,615.0,0.0,1,515.0,1
301,301,-0.5313698257668777,-0.5,1.0,0.0,492.0,644.0,0.0,0,454.0,1
302,302,0.8100336317538203,0.8,0.0,0.0,479.0,626.0,0.0,1,245.0,1
303,303,-0.059159289661437686,-0.1,1.0,0.0,388.0,741.0,0.0,0,551.0,1
304,304,-0.22954192975852794,-0.2,0.0,1.0,358.0,664.0,1.0,0,1338.0,1
305,305,0.779867600030654,0.8,0.0,0.0,380.0,575.0,0.0,1,435.0,1
306,306,-0.379183438581673,-0.4,0.0,1.0,370.0,866.0,1.0,0,1544.0,1
307,307,0.8184725616861211,0.8,0.0,0.0,433.0,674.0,0.0,1,483.0,1
308,308,-0.6920397182043073,-0.7,1.0,0.0,357.0,871.0,0.0,0,-38.0,1
309,309,0.8512798861825254,0.9,1.0,1.0,453.0,735.0,1.0,1,182.0,1
310,310,-0.3942168799563387,-0.4,1.0,0.0,470.0,598.0,0.0,0,422.0,1
311,311,-0.4733169264590046,-0.5,1.0,0.0,333.0,854.0,0.0,0,63.0,1
312,312,0.46226493129522217,0.5,0.0,0.0,349.0,689.0,0.0,1,552.0,1
313,313,0.5955162853067256,0.6,0.0,0.0,407.0,659.0,0.0,1,134.0,1
314,314,-0.7504255442713206,-0.8,1.0,0.0,453.0,950.0,0.0,0,-263.0,1
315,315,-0.826356029939388,-0.8,1.0,0.0,277.0,896.0,1.0,1,-663.0,0
316,316,-0.7098800122226042,-0.7,0.0,1.0,429.0,660.0,1.0,0,491.0,1
317,317,-0.2710711074359936,-0.3,0.0,1.0,448.0,692.0,1.0,0,1380.0,1
318,318,0.773409883681628,0.8,0.0,0.0,282.0,610.0,0.0,1,228.0,1
319,319,-0.6365889122292709,-0.6,0.0,1.0,314.0,913.0,0.0,1,-607.0,0
320,320,0.6196791249330559,0.6,1.0,1.0,250.0,942.0,1.0,1,138.0,1
321,321,0.8450655867028939,0.8,1.0,1.0,316.0,804.0,0.0,0,0.0,0
322,322,0.05708372410315554,0.1,1.0,1.0,383.0,858.0,0.0,0,-441.0,0
323,323,-0.8701258475458736,-0.9,0.0,1.0,437.0,527.0,1.0,0,306.0,1
324,324,0.8146347321470141,0.8,0.0,0.0,253.0,833.0,0.0,1,114.0,1
325,325,-0.7734149040646936,-0.8,0.0,1.0,482.0,561.0,1.0,0,387.0,1
326,326,-0.17406842899325314,-0.2,0.0,1.0,410.0,778.0,0.0,1,1552.0,0
327,327,0.7534840027848447,0.8,0.0,0.0,254.0,791.0,0.0,1,205.0,1
328,328,-0.8124625129741663,-0.8,1.0,0.0,439.0,726.0,0.0,0,345.0,1
329,329,0.47989418387649174,0.5,0.0,0.0,351.0,761.0,0.0,1,488.0,1
330,330,0.40416511207032835,0.4,1.0,1.0,300.0,625.0,1.0,1,515.0,1
331,331,0.7197403721543506,0.7,1.0,1.0,325.0,731.0,1.0,1,434.0,1
332,332,-0.5595734773427743,-0.6,0.0,1.0,290.0,545.0,1.0,0,525.0,1
333,333,-0.5951536090903209,-0.6,1.0,0.0,362.0,646.0,0.0,0,162.0,1
334,334,0.4678783884192942,0.5,1.0,1.0,349.0,568.0,1.0,1,-77.0,1
335,335,0.6152770852034061,0.6,0.0,0.0,438.0,838.0,0.0,1,1094.0,1
336,336,-0.7482379008789484,-0.7,0.0,1.0,362.0,762.0,1.0,0,206.0,1
337,337,-0.23012648726567841,-0.2,1.0,0.0,482.0,661.0,0.0,0,727.0,1
338,338,0.33636540318049,0.3,0.0,0.0,438.0,729.0,0.0,1,163.0,1
339,339,-0.18314638767764613,-0.2,0.0,1.0,450.0,795.0,1.0,0,815.0,1
340,340,-0.42562025000891796,-0.4,1.0,0.0,317.0,989.0,0.0,0,-456.0,1
341,341,0.714158029255152,0.7,1.0,1.0,377.0,734.0,1.0,1,189.0,1
342,342,-0.8219658928533157,-0.8,1.0,0.0,290.0,860.0,0.0,0,-240.0,1
343,343,0.5692373133025951,0.6,0.0,0.0,379.0,950.0,0.0,1,61.0,1
344,344,0.8076577818271978,0.8,1.0,1.0,431.0,693.0,1.0,1,436.0,1
345,345,-0.24944214504826523,-0.2,1.0,0.0,458.0,556.0,0.0,0,516.0,1
346,346,-0.06738063255117566,-0.1,0.0,1.0,465.0,789.0,0.0,1,456.0,0
347,347,-0.5395714637303983,-0.5,0.0,1.0,283.0,711.0,1.0,0,316.0,1
348,348,0.3084010309571016,0.3,0.0,0.0,491.0,791.0,0.0,1,828.0,1
349,349,-0.43321402632361283,-0.4,0.0,1.0,380.0,672.0,1.0,0,1328.0,1
350,350,-0.3729669290492432,-0.4,1.0,0.0,380.0,764.0,0.0,0,-44.0,1
351,351,0.44867001518839966,0.4,1.0,1.0,284.0,995.0,1.0,1,841.0,1
352,352,-0.5184264745141662,-0.5,1.0,0.0,340.0,948.0,0.0,0,72.0,1
353,353,-0.7273951458706721,-0.7,1.0,0.0,406.0,599.0,0.0,0,285.0,1
354,354,-0.2820129998530857,-0.3,0.0,1.0,485.0,570.0,0.0,1,675.0,0
355,355,-0.4262024387612467,-0.4,1.0,0.0,407.0,616.0,0.0,0,627.0,1
356,356,0.4678403319883079,0.5,0.0,0.0,263.0,899.0,0.0,1,128.0,1
357,357,-0.8323543949315204,-0.8,1.0,0.0,398.0,866.0,0.0,0,196.0,1
358,358,0.0338679868868933,0.0,0.0,0.0,295.0,514.0,1.0,0,61.0,0
359,359,0.8012806142534835,0.8,0.0,0.0,368.0,934.0,0.0,1,148.0,1
360,360,-0.6445750045591024,-0.6,1.0,0.0,465.0,707.0,0.0,0,98.0,1
361,361,-0.5505603836301789,-0.6,0.0,1.0,466.0,847.0,1.0,0,47.0,1
362,362,0.269868211446903,0.3,0.0,0.0,413.0,951.0,0.0,1,416.0,1
363,363,-0.40744408633473433,-0.4,1.0,0.0,482.0,998.0,0.0,0,400.0,1
364,364,0.30590832971202964,0.3,1.0,1.0,416.0,606.0,0.0,0,48.0,0
365,365,-0.3791945237802553,-0.4,1.0,0.0,367.0,856.0,0.0,0,127.0,1
366,366,-0.613025188062926,-0.6,1.0,0.0,350.0,820.0,1.0,1,0.0,0
367,367,-0.12142712328215977,-0.1,1.0,0.0,473.0,749.0,0.0,0,1968.0,1
368,368,0.544877225627343,0.5,1.0,1.0,343.0,788.0,1.0,1,369.0,1
369,369,0.09598101676901172,0.1,0.0,0.0,401.0,528.0,0.0,1,851.0,1
370,370,-0.38070824271871906,-0.4,0.0,1.0,357.0,657.0,0.0,1,326.0,0
371,371,-0.8221016143924558,-0.8,0.0,1.0,488.0,881.0,1.0,0,721.0,1
372,372,0.4765909721468836,0.5,0.0,0.0,266.0,784.0,0.0,1,200.0,1
373,373,-0.39246307136116776,-0.4,0.0,1.0,367.0,579.0,1.0,0,1604.0,1
374,374,-0.3749997543932353,-0.4,0.0,1.0,385.0,627.0,1.0,0,1348.0,1
375,375,0.20621962466565102,0.2,1.0,1.0,275.0,518.0,1.0,1,357.0,1
376,376,-0.17173572287755823,-0.2,1.0,0.0,394.0,741.0,0.0,0,1815.0,1
377,377,-0.23588606880644014,-0.2,1.0,0.0,320.0,714.0,0.0,0,496.0,1
378,378,0.5147504158371036,0.5,0.0,0.0,469.0,506.0,0.0,1,635.0,1
379,379,0.8440862795381247,0.8,1.0,1.0,340.0,977.0,1.0,1,383.0,1
380,380,0.4860844648998882,0.5,1.0,1.0,370.0,916.0,1.0,1,674.0,1
381,381,-0.25057527006666336,-0.3,1.0,0.0,342.0,668.0,0.0,0,-40.0,1
382,382,0.37539475919418297,0.4,1.0,1.0,367.0,815.0,0.0,0,88.0,0
383,383,0.5040888084774496,0.5,0.0,0.0,256.0,550.0,0.0,1,294.0,1
384,384,-0.8407955015977017,-0.8,0.0,1.0,420.0,535.0,1.0,0,205.0,1
385,385,-0.18381388107841523,-0.2,1.0,0.0,318.0,935.0,1.0,1,-343.0,0
386,386,0.8213605809505967,0.8,0.0,0.0,385.0,760.0,0.0,1,675.0,1
387,387,-0.5740530487236323,-0.6,0.0,1.0,325.0,977.0,1.0,0,678.0,1
388,388,0.7846913277324895,0.8,0.0,0.0,287.0,581.0,0.0,1,82.0,1
389,389,-0.02016996158524742,-0.0,1.0,0.0,428.0,679.0,1.0,1,2743.0,0
390,390,0.05887460991768312,0.1,0.0,0.0,290.0,631.0,0.0,1,449.0,1
391,391,-0.4796066642562072,-0.5,1.0,0.0,393.0,932.0,0.0,0,195.0,1
392,392,-0.4919201897422454,-0.5,1.0,0.0,408.0,861.0,0.0,0,111.0,1
393,393,-0.6331032511818042,-0.6,0.0,1.0,390.0,505.0,1.0,0,485.0,1
394,394,-0.08086151920007567,-0.1,0.0,1.0,271.0,559.0,1.0,0,940.0,1
395,395,0.1175207571740079,0.1,1.0,1.0,412.0,615.0,1.0,1,1043.0,1
396,396,-0.4158176798376649,-0.4,0.0,1.0,293.0,833.0,1.0,0,914.0,1
397,397,-0.21285861648547988,-0.2,1.0,0.0,431.0,838.0,0.0,0,-9.0,1
398,398,0.4446980309609051,0.4,1.0,1.0,294.0,504.0,0.0,0,432.0,0
399,399,-0.5947773624951205,-0.6,0.0,1.0,449.0,645.0,1.0,0,226.0,1
400,400,-0.3115980164654494,-0.3,1.0,0.0,363.0,742.0,0.0,0,495.0,1
401,401,-0.14182016037270495,-0.1,0.0,1.0,328.0,997.0,0.0,1,-225.0,0
402,402,0.7527054337462346,0.8,0.0,0.0,351.0,739.0,0.0,1,140.0,1
403,403,-0.1882419111018927,-0.2,0.0,1.0,253.0,596.0,0.0,1,761.0,0
404,404,-0.16745456613307497,-0.2,1.0,0.0,430.0,785.0,0.0,0,585.0,1
405,405,0.5886806276027211,0.6,0.0,0.0,454.0,541.0,0.0,1,595.0,1
406,406,-0.3075043751518851,-0.3,0.0,1.0,277.0,559.0,1.0,0,474.0,1
407,407,-0.4123938486535077,-0.4,1.0,0.0,363.0,756.0,1.0,1,-329.0,0
408,408,0.047747804806071215,0.0,0.0,0.0,262.0,544.0,0.0,1,1454.0,1
409,409,0.8132590596746566,0.8,0.0,0.0,342.0,783.0,0.0,1,175.0,1
410,410,-0.22565127431256093,-0.2,0.0,1.0,466.0,738.0,1.0,0,296.0,1
411,411,0.8870605681902134,0.9,0.0,0.0,492.0,711.0,0.0,1,167.0,1
412,412,0.44081896517927766,0.4,0.0,0.0,310.0,749.0,0.0,1,151.0,1
413,413,-0.07257805942043782,-0.1,0.0,1.0,313.0,847.0,0.0,1,180.0,0
414,414,-0.6028651534996746,-0.6,0.0,1.0,452.0,965.0,1.0,0,493.0,1
415,415,0.26098921596243574,0.3,0.0,0.0,455.0,517.0,0.0,1,668.0,1
416,416,0.331995742652747,0.3,0.0,0.0,266.0,933.0,0.0,1,631.0,1
417,417,0.6510111035474068,0.7,0.0,0.0,485.0,807.0,0.0,1,388.0,1
418,418,0.004584988001479662,0.0,1.0,1.0,471.0,683.0,0.0,0,2216.0,0
419,419,0.6145597335324223,0.6,1.0,1.0,479.0,640.0,1.0,1,381.0,1
420,420,0.20096225161840942,0.2,1.0,1.0,437.0,973.0,1.0,1,-380.0,1
421,421,-0.36478044485200667,-0.4,1.0,0.0,313.0,909.0,0.0,0,-212.0,1
422,422,-0.21730642960317081,-0.2,1.0,0.0,298.0,765.0,0.0,0,727.0,1
423,423,0.5505969416551494,0.6,0.0,0.0,309.0,594.0,0.0,1,327.0,1
424,424,0.38556784567788693,0.4,1.0,1.0,404.0,568.0,0.0,0,898.0,0
425,425,-0.19773415220348323,-0.2,0.0,1.0,373.0,981.0,1.0,0,2616.0,1
426,426,0.42448544873939176,0.4,0.0,0.0,377.0,941.0,0.0,1,152.0,1
427,427,-0.3887170848308268,-0.4,1.0,0.0,391.0,519.0,0.0,0,390.0,1
428,428,-0.21915713641148882,-0.2,0.0,1.0,481.0,858.0,0.0,1,3311.0,0
429,429,0.46134667936172946,0.5,0.0,0.0,257.0,715.0,0.0,1,558.0,1
430,430,-0.8429838625691501,-0.8,0.0,1.0,310.0,871.0,1.0,0,309.0,1
431,431,0.09498054798000011,0.1,0.0,0.0,422.0,873.0,0.0,1,2545.0,1
432,432,0.8355127575263849,0.8,0.0,0.0,478.0,892.0,0.0,1,-220.0,1
433,433,0.3790807463001572,0.4,1.0,1.0,361.0,886.0,1.0,1,-57.0,1
434,434,-0.5575649873104107,-0.6,1.0,0.0,497.0,822.0,0.0,0,231.0,1
435,435,-0.04333104745326699,-0.0,1.0,0.0,298.0,892.0,0.0,0,840.0,1
436,436,0.7719240740376011,0.8,1.0,1.0,432.0,652.0,0.0,0,-294.0,0
437,437,-0.8403505128633233,-0.8,0.0,1.0,481.0,608.0,1.0,0,251.0,1
438,438,-0.6531362829096657,-0.7,1.0,0.0,356.0,703.0,0.0,0,271.0,1
439,439,0.5103241643383744,0.5,1.0,1.0,447.0,543.0,1.0,1,740.0,1
440,440,-0.5477946387227924,-0.5,1.0,0.0,334.0,905.0,0.0,0,431.0,1
441,441,0.7197339425608938,0.7,0.0,0.0,353.0,869.0,0.0,1,418.0,1
442,442,-0.234910844025636,-0.2,1.0,0.0,430.0,960.0,0.0,0,230.0,1
443,443,-0.6789501165593969,-0.7,0.0,1.0,251.0,544.0,1.0,0,885.0,1
444,444,0.5113308274194449,0.5,1.0,1.0,390.0,955.0,1.0,1,45.0,1
445,445,0.7514279917204819,0.8,0.0,0.0,329.0,621.0,0.0,1,150.0,1
446,446,-0.8225474940658662,-0.8,1.0,0.0,333.0,567.0,0.0,0,170.0,1
447,447,-0.7387209385146366,-0.7,0.0,1.0,327.0,943.0,1.0,0,170.0,1
448,448,-0.03738871839138791,-0.0,0.0,1.0,418.0,812.0,0.0,1,610.0,0
449,449,-0.6616065797467416,-0.7,1.0,0.0,294.0,780.0,0.0,0,186.0,1
450,450,-0.5235998965420106,-0.5,0.0,1.0,498.0,926.0,1.0,0,466.0,1
451,451,-0.8053723376166544,-0.8,0.0,1.0,299.0,541.0,1.0,0,280.0,1
452,452,0.3576748258236494,0.4,1.0,1.0,396.0,675.0,1.0,1,1179.0,1
453,453,0.522778429108241,0.5,0.0,0.0,465.0,770.0,0.0,1,225.0,1
454,454,-0.5544662449320363,-0.6,0.0,1.0,258.0,726.0,1.0,0,206.0,1
455,455,-0.653287855859641,-0.7,0.0,1.0,365.0,810.0,1.0,0,595.0,1
456,456,-0.477013468853449,-0.5,1.0,0.0,300.0,974.0,0.0,0,-324.0,1
457,457,-0.8628966572911753,-0.9,0.0,1.0,413.0,598.0,1.0,0,309.0,1
458,458,-0.4215842168106787,-0.4,0.0,1.0,363.0,673.0,1.0,0,1904.0,1
459,459,-0.46580789339771445,-0.5,1.0,0.0,413.0,687.0,0.0,0,-80.0,1
460,460,-0.3528993127084221,-0.4,1.0,0.0,285.0,765.0,0.0,0,500.0,1
461,461,-0.8069908865884031,-0.8,1.0,0.0,393.0,985.0,0.0,0,232.0,1
462,462,-0.7463177840739692,-0.7,1.0,0.0,344.0,681.0,0.0,0,425.0,1
463,463,0.4430363282231379,0.4,1.0,1.0,467.0,751.0,1.0,1,112.0,1
464,464,-0.8680631011862456,-0.9,0.0,1.0,458.0,554.0,1.0,0,488.0,1
465,465,-0.04431446449502041,-0.0,0.0,1.0,369.0,709.0,0.0,1,3922.0,0
466,466,0.07196908880874486,0.1,1.0,1.0,444.0,955.0,0.0,0,-479.0,0
467,467,-0.7769447931942919,-0.8,0.0,1.0,456.0,585.0,1.0,0,719.0,1
468,468,-0.7962128758784744,-0.8,1.0,0.0,323.0,790.0,1.0,1,-13.0,0
469,469,0.57709456393485,0.6,0.0,0.0,337.0,681.0,0.0,1,342.0,1
470,470,0.6073524234621089,0.6,1.0,1.0,362.0,895.0,1.0,1,-627.0,1
471,471,0.2978360219600923,0.3,1.0,1.0,410.0,861.0,1.0,1,1119.0,1
472,472,-0.5561780153304796,-0.6,0.0,1.0,482.0,975.0,1.0,0,683.0,1
473,473,-0.40621867968176983,-0.4,1.0,0.0,285.0,773.0,0.0,0,792.0,1
474,474,-0.41423617414715863,-0.4,1.0,0.0,370.0,940.0,0.0,0,440.0,1
475,475,0.03606966220211805,0.0,1.0,1.0,464.0,937.0,0.0,0,-241.0,0
476,476,0.6855740516793783,0.7,0.0,0.0,334.0,834.0,0.0,1,132.0,1
477,477,0.4435191141496012,0.4,0.0,0.0,317.0,717.0,0.0,1,246.0,1
478,478,0.8509000933375087,0.9,1.0,1.0,339.0,790.0,1.0,1,251.0,1
479,479,-0.05726505273972349,-0.1,0.0,1.0,357.0,709.0,0.0,1,564.0,0
480,480,-0.26275269841578597,-0.3,1.0,0.0,360.0,808.0,0.0,0,412.0,1
481,481,-0.32859117127478876,-0.3,0.0,1.0,336.0,796.0,1.0,0,218.0,1
482,482,-0.6632700698430428,-0.7,1.0,0.0,405.0,772.0,0.0,0,223.0,1
483,483,0.5111088953374537,0.5,1.0,1.0,488.0,670.0,1.0,1,1022.0,1
484,484,0.4021849796936997,0.4,0.0,0.0,351.0,866.0,0.0,1,723.0,1
485,485,0.4991248091386996,0.5,1.0,1.0,369.0,878.0,1.0,1,1163.0,1
486,486,-0.3726863580045451,-0.4,1.0,0.0,467.0,560.0,0.0,0,273.0,1
487,487,-0.036173333685582953,-0.0,0.0,1.0,458.0,783.0,1.0,0,1209.0,1
488,488,-0.37997885240970997,-0.4,1.0,0.0,283.0,627.0,0.0,0,330.0,1
489,489,0.6952619041236222,0.7,0.0,0.0,418.0,636.0,0.0,1,416.0,1
490,490,-0.7162588384133307,-0.7,0.0,1.0,477.0,607.0,1.0,0,656.0,1
491,491,0.5417956607446094,0.5,0.0,0.0,442.0,731.0,0.0,1,87.0,1
492,492,-0.4135255679220269,-0.4,0.0,1.0,444.0,518.0,1.0,0,908.0,1
493,493,0.11973167595969814,0.1,0.0,0.0,356.0,616.0,0.0,1,878.0,1
494,494,-0.26144379966691766,-0.3,1.0,0.0,258.0,720.0,0.0,0,302.0,1
495,495,-0.5988359865474646,-0.6,0.0,1.0,322.0,642.0,1.0,0,1366.0,1
496,496,0.691794633058073,0.7,0.0,0.0,452.0,862.0,0.0,1,126.0,1
497,497,0.561585178892022,0.6,0.0,0.0,403.0,529.0,0.0,1,88.0,1
498,498,0.1822395129600184,0.2,0.0,0.0,302.0,854.0,0.0,1,414.0,1
499,499,-0.7143026467737854,-0.7,0.0,1.0,425.0,946.0,1.0,0,499.0,1
500,500,0.4705385219049695,0.5,1.0,1.0,412.0,785.0,1.0,1,273.0,1
501,501,-0.8626141965464292,-0.9,0.0,1.0,489.0,988.0,1.0,0,143.0,1
502,502,0.13594319596984505,0.1,1.0,1.0,493.0,740.0,0.0,0,437.0,0
503,503,0.025905271266885355,0.0,0.0,0.0,428.0,746.0,0.0,1,1406.0,1
504,504,-0.20618387667597882,-0.2,1.0,0.0,300.0,875.0,0.0,0,-815.0,1
505,505,-0.49874085162934184,-0.5,0.0,1.0,332.0,727.0,1.0,0,1201.0,1
506,506,-0.2759938139078665,-0.3,0.0,1.0,404.0,625.0,1.0,0,1371.0,1
507,507,-0.03033515235415274,-0.0,1.0,0.0,450.0,976.0,0.0,0,-206.0,1
508,508,0.021585100416732894,0.0,0.0,0.0,474.0,519.0,0.0,1,547.0,1
509,509,0.4366690666901275,0.4,1.0,1.0,378.0,732.0,1.0,1,100.0,1
510,510,-0.007653408925714866,-0.0,0.0,1.0,469.0,779.0,0.0,1,-258.0,0
511,511,0.40841924634880356,0.4,1.0,1.0,267.0,603.0,1.0,1,1310.0,1
512,512,0.5113354929661414,0.5,0.0,0.0,414.0,643.0,0.0,1,1023.0,1
513,513,0.8293439063807818,0.8,0.0,0.0,438.0,771.0,0.0,1,1.0,1
514,514,0.8933286938342496,0.9,1.0,1.0,281.0,502.0,1.0,1,697.0,1
515,515,-0.20976841017839698,-0.2,0.0,1.0,322.0,527.0,0.0,1,4151.0,0
516,516,0.6985730791378529,0.7,0.0,0.0,278.0,947.0,0.0,1,355.0,1
517,517,0.26949240922078566,0.3,0.0,0.0,402.0,712.0,0.0,1,246.0,1
518,518,0.040815172812403544,0.0,1.0,1.0,397.0,904.0,1.0,1,779.0,1
519,519,0.8328400080230104,0.8,0.0,0.0,283.0,540.0,0.0,1,87.0,1
520,520,-0.8391437101108054,-0.8,0.0,1.0,292.0,970.0,1.0,0,318.0,1
521,521,0.2535930678595316,0.3,1.0,1.0,352.0,566.0,1.0,1,1752.0,1
522,522,0.14918193701974902,0.1,1.0,1.0,295.0,508.0,1.0,1,777.0,1
523,523,0.36973052541320717,0.4,1.0,1.0,405.0,859.0,1.0,1,436.0,1
524,524,-0.8561223362279948,-0.9,0.0,1.0,411.0,906.0,1.0,0,53.0,1
525,525,-0.43898256762704013,-0.4,1.0,0.0,284.0,574.0,0.0,0,192.0,1
526,526,-0.01366018611420583,-0.0,0.0,1.0,407.0,861.0,0.0,1,-908.0,0
527,527,-0.033667730520929307,-0.0,0.0,1.0,430.0,518.0,0.0,1,1482.0,0
528,528,0.44218458499635227,0.4,0.0,0.0,450.0,597.0,0.0,1,573.0,1
529,529,-0.8870781966833808,-0.9,0.0,1.0,453.0,804.0,1.0,0,83.0,1
530,530,0.35438243341098785,0.4,0.0,0.0,396.0,506.0,0.0,1,568.0,1
531,531,0.33960055540703016,0.3,0.0,0.0,412.0,690.0,0.0,1,838.0,1
532,532,0.0021336749191483984,0.0,1.0,1.0,329.0,610.0,0.0,0,-39.0,0
533,533,0.11141947375135552,0.1,1.0,1.0,425.0,509.0,1.0,1,176.0,1
534,534,0.8311278221083293,0.8,0.0,0.0,322.0,848.0,0.0,1,-70.0,1
535,535,-0.2222359412569399,-0.2,1.0,0.0,413.0,687.0,1.0,1,-110.0,0
536,536,-0.2472836717843031,-0.2,0.0,1.0,372.0,525.0,0.0,1,1983.0,0
537,537,-0.7237423276387996,-0.7,0.0,1.0,334.0,690.0,1.0,0,416.0,1
538,538,-0.05723695706119192,-0.1,0.0,1.0,399.0,848.0,0.0,1,-377.0,0
539,539,-0.30546597873139447,-0.3,0.0,1.0,285.0,576.0,1.0,0,519.0,1
540,540,-0.22035690340295244,-0.2,1.0,0.0,302.0,709.0,0.0,0,609.0,1
541,541,0.0812522038440574,0.1,0.0,0.0,463.0,991.0,0.0,1,166.0,1
542,542,-0.22634506564107082,-0.2,0.0,1.0,298.0,679.0,0.0,1,2063.0,0
543,543,0.1430184670015805,0.1,1.0,1.0,420.0,929.0,1.0,1,321.0,1
544,544,0.7450474414162557,0.7,1.0,1.0,292.0,601.0,1.0,1,777.0,1
545,545,-0.8132962845225039,-0.8,1.0,0.0,313.0,816.0,0.0,0,321.0,1
546,546,0.8483401125368543,0.8,1.0,1.0,287.0,827.0,1.0,1,446.0,1
547,547,-0.7012615974035724,-0.7,1.0,0.0,336.0,917.0,0.0,0,-153.0,1
548,548,-0.72599058299496,-0.7,1.0,0.0,261.0,826.0,0.0,0,-197.0,1
549,549,0.7577918591688123,0.8,0.0,0.0,345.0,726.0,0.0,1,209.0,1
550,550,-0.7412914738246678,-0.7,0.0,1.0,356.0,741.0,1.0,0,353.0,1
551,551,-0.7166656236495248,-0.7,0.0,1.0,495.0,583.0,1.0,0,552.0,1
552,552,0.19170645149519683,0.2,1.0,1.0,264.0,674.0,1.0,1,352.0,1
553,553,-0.875470782311533,-0.9,1.0,0.0,497.0,887.0,0.0,0,-364.0,1
554,554,0.7203960231330785,0.7,1.0,1.0,462.0,580.0,1.0,1,1018.0,1
555,555,-0.7197599703257215,-0.7,0.0,1.0,313.0,532.0,1.0,0,915.0,1
556,556,0.2358407174221383,0.2,1.0,1.0,441.0,701.0,0.0,0,-622.0,0
557,557,-0.4704783683366932,-0.5,1.0,0.0,341.0,821.0,0.0,0,118.0,1
558,558,0.1272177592893099,0.1,1.0,1.0,286.0,784.0,0.0,0,710.0,0
559,559,0.11346999602859864,0.1,1.0,1.0,463.0,634.0,0.0,0,-387.0,0
560,560,-0.6971481613098401,-0.7,0.0,1.0,483.0,633.0,1.0,0,444.0,1
561,561,0.6320344244103705,0.6,0.0,0.0,343.0,652.0,0.0,1,135.0,1
562,562,-0.6333652520855623,-0.6,0.0,1.0,341.0,693.0,1.0,0,646.0,1
563,563,-0.26831908767310464,-0.3,1.0,0.0,462.0,926.0,1.0,1,-28.0,0
564,564,0.653337774223849,0.7,0.0,0.0,486.0,802.0,0.0,1,522.0,1
565,565,-0.7613836056278797,-0.8,0.0,1.0,316.0,716.0,1.0,0,678.0,1
566,566,0.3967619629958029,0.4,1.0,1.0,352.0,644.0,1.0,1,964.0,1
567,567,-0.3768298185778082,-0.4,1.0,0.0,415.0,969.0,0.0,0,86.0,1
568,568,-0.5584469274454091,-0.6,0.0,1.0,368.0,731.0,1.0,0,361.0,1
569,569,-0.3902963789350943,-0.4,0.0,1.0,311.0,545.0,0.0,1,384.0,0
570,570,-0.6545935802453214,-0.7,1.0,0.0,347.0,598.0,0.0,0,735.0,1
571,571,0.04686273481375014,0.0,1.0,1.0,318.0,732.0,0.0,0,540.0,0
572,572,0.41389341133920443,0.4,1.0,1.0,309.0,659.0,0.0,0,-68.0,0
573,573,0.22572258029423564,0.2,1.0,1.0,415.0,932.0,1.0,1,443.0,1
574,574,-0.8760908501916284,-0.9,0.0,1.0,329.0,816.0,1.0,0,385.0,1
575,575,-0.5143740060281147,-0.5,1.0,0.0,291.0,718.0,0.0,0,301.0,1
576,576,0.17214392644452203,0.2,1.0,1.0,268.0,955.0,0.0,0,-3.0,0
577,577,0.8765009357375365,0.9,0.0,0.0,433.0,835.0,0.0,1,82.0,1
578,578,0.08641511115759826,0.1,1.0,1.0,331.0,992.0,0.0,0,77.0,0
579,579,-0.7982157693078487,-0.8,1.0,0.0,273.0,948.0,0.0,0,-81.0,1
580,580,0.6502208378132807,0.7,1.0,1.0,311.0,967.0,1.0,1,-388.0,1
581,581,0.8260285102793156,0.8,1.0,1.0,376.0,902.0,1.0,1,342.0,1
582,582,-0.14987449293801647,-0.1,0.0,1.0,452.0,971.0,0.0,1,427.0,0
583,583,-0.6108553121215055,-0.6,1.0,0.0,387.0,836.0,0.0,0,-283.0,1
584,584,0.6824174444220227,0.7,1.0,1.0,365.0,860.0,0.0,0,-65.0,0
585,585,0.06164907485745019,0.1,0.0,0.0,372.0,919.0,0.0,1,879.0,1
586,586,-0.11668349660169164,-0.1,1.0,0.0,477.0,867.0,0.0,0,266.0,1
587,587,0.7909400562702754,0.8,1.0,1.0,392.0,507.0,1.0,1,891.0,1
588,588,-0.4063007637759086,-0.4,1.0,0.0,287.0,984.0,0.0,0,-811.0,1
589,589,-0.2648340307737479,-0.3,1.0,0.0,471.0,947.0,0.0,0,582.0,1
590,590,0.8591556925757405,0.9,0.0,0.0,337.0,977.0,0.0,1,326.0,1
591,591,0.13891290250470278,0.1,1.0,1.0,365.0,962.0,1.0,1,113.0,1
592,592,-0.03977588181830294,-0.0,0.0,1.0,453.0,589.0,0.0,1,848.0,0
593,593,-0.6034455746033018,-0.6,0.0,1.0,445.0,581.0,1.0,0,84.0,1
594,594,-0.632710296059221,-0.6,1.0,0.0,487.0,829.0,0.0,0,34.0,1
595,595,-0.04738645703553068,-0.0,1.0,0.0,404.0,510.0,0.0,0,406.0,1
596,596,-0.4314466728470736,-0.4,1.0,0.0,380.0,910.0,0.0,0,110.0,1
597,597,-0.6202947048993648,-0.6,0.0,1.0,389.0,552.0,1.0,0,929.0,1
598,598,0.5099587152705983,0.5,1.0,1.0,269.0,960.0,1.0,1,301.0,1
599,599,-0.6473274114125471,-0.6,1.0,0.0,375.0,587.0,0.0,0,318.0,1
600,600,0.27943143194684195,0.3,0.0,0.0,272.0,951.0,0.0,1,107.0,1
601,601,-0.4108711550522779,-0.4,1.0,0.0,373.0,935.0,0.0,0,492.0,1
602,602,0.17955774719703477,0.2,0.0,0.0,365.0,680.0,0.0,1,265.0,1
603,603,-0.6161987049839217,-0.6,0.0,1.0,339.0,864.0,1.0,0,377.0,1
604,604,-0.7655287029284464,-0.8,0.0,1.0,467.0,854.0,1.0,0,439.0,1
605,605,0.3221355583339466,0.3,0.0,0.0,427.0,855.0,0.0,1,728.0,1
606,606,0.3411671731489184,0.3,0.0,0.0,340.0,789.0,1.0,0,-449.0,0
607,607,-0.7412446344481756,-0.7,0.0,1.0,499.0,558.0,1.0,0,273.0,1
608,608,0.2758471684250564,0.3,1.0,1.0,253.0,962.0,0.0,0,-75.0,0
609,609,-0.6499951959240007,-0.6,0.0,1.0,266.0,824.0,1.0,0,1870.0,1
610,610,-0.8002153419370103,-0.8,1.0,0.0,251.0,851.0,0.0,0,88.0,1
611,611,-0.5780760078341113,-0.6,0.0,1.0,339.0,871.0,1.0,0,140.0,1
612,612,0.8357699457922049,0.8,1.0,1.0,340.0,941.0,1.0,1,179.0,1
613,613,0.8438824842831453,0.8,0.0,0.0,347.0,534.0,0.0,1,169.0,1
614,614,-0.5736297593068598,-0.6,0.0,1.0,276.0,677.0,1.0,0,2177.0,1
615,615,0.7409798434747351,0.7,0.0,0.0,451.0,928.0,0.0,1,211.0,1
616,616,0.2970636279829745,0.3,1.0,1.0,489.0,605.0,1.0,1,226.0,1
617,617,-0.8668262702089338,-0.9,0.0,1.0,391.0,579.0,1.0,0,220.0,1
618,618,0.7787990406076982,0.8,0.0,0.0,471.0,615.0,0.0,1,224.0,1
619,619,-0.8370596274611368,-0.8,1.0,0.0,322.0,797.0,0.0,0,351.0,1
620,620,-0.22254007924744568,-0.2,0.0,1.0,434.0,815.0,1.0,0,1501.0,1
621,621,-0.30581357000746623,-0.3,1.0,0.0,495.0,529.0,0.0,0,-94.0,1
622,622,-0.6938789769831016,-0.7,0.0,1.0,358.0,522.0,1.0,0,530.0,1
623,623,0.3233366178366922,0.3,1.0,1.0,397.0,516.0,1.0,1,1257.0,1
624,624,-0.11285252508050359,-0.1,1.0,0.0,422.0,614.0,0.0,0,1004.0,1
625,625,-0.44723063655075074,-0.4,0.0,1.0,442.0,756.0,1.0,0,1652.0,1
626,626,-0.6686433327827866,-0.7,0.0,1.0,443.0,570.0,1.0,0,377.0,1
627,627,-0.6768133347619049,-0.7,1.0,0.0,329.0,510.0,0.0,0,371.0,1
628,628,0.19722035275070093,0.2,0.0,0.0,316.0,571.0,0.0,1,163.0,1
629,629,-0.2676754221851321,-0.3,0.0,1.0,460.0,539.0,1.0,0,-209.0,1
630,630,-0.5389768014635117,-0.5,1.0,0.0,275.0,574.0,0.0,0,21.0,1
631,631,0.38948604281973276,0.4,1.0,1.0,483.0,535.0,1.0,1,102.0,1
632,632,-0.5044392021748181,-0.5,1.0,0.0,452.0,515.0,0.0,0,473.0,1
633,633,0.02195402651137779,0.0,0.0,0.0,423.0,984.0,0.0,1,333.0,1
634,634,-0.1154430544130618,-0.1,1.0,0.0,282.0,736.0,0.0,0,1232.0,1
635,635,-0.03690256657386681,-0.0,1.0,0.0,437.0,670.0,0.0,0,683.0,1
636,636,0.568228982927819,0.6,1.0,1.0,387.0,517.0,1.0,1,326.0,1
637,637,0.49180848554710355,0.5,0.0,0.0,490.0,866.0,0.0,1,414.0,1
638,638,-0.6759190024817352,-0.7,1.0,0.0,266.0,630.0,0.0,0,174.0,1
639,639,0.28778087040044975,0.3,1.0,1.0,450.0,627.0,0.0,0,-497.0,0
640,640,0.722418545737774,0.7,0.0,0.0,405.0,521.0,0.0,1,134.0,1
641,641,-0.26052380387332963,-0.3,1.0,0.0,267.0,615.0,0.0,0,528.0,1
642,642,0.8415666140925088,0.8,1.0,1.0,469.0,693.0,1.0,1,428.0,1
643,643,0.39785811318596076,0.4,1.0,1.0,451.0,915.0,1.0,1,124.0,1
644,644,0.1120331550423509,0.1,0.0,0.0,355.0,650.0,0.0,1,2295.0,1
645,645,-0.8793717409978614,-0.9,0.0,1.0,431.0,701.0,1.0,0,418.0,1
646,646,-0.7931095156528516,-0.8,1.0,0.0,350.0,697.0,0.0,0,213.0,1
647,647,-0.5055408581134551,-0.5,0.0,1.0,338.0,691.0,1.0,0,1651.0,1
648,648,0.1425827198962034,0.1,0.0,0.0,384.0,995.0,0.0,1,601.0,1
649,649,-0.14764522885379894,-0.1,0.0,1.0,314.0,945.0,0.0,1,-229.0,0
650,650,-0.28655386097057045,-0.3,1.0,0.0,327.0,730.0,0.0,0,483.0,1
651,651,0.1255091911722067,0.1,0.0,0.0,469.0,602.0,0.0,1,629.0,1
652,652,0.03783695351183691,0.0,0.0,0.0,491.0,997.0,0.0,1,2862.0,1
653,653,-0.7181287046378424,-0.7,0.0,1.0,433.0,767.0,1.0,0,590.0,1
654,654,0.012122644900409152,0.0,0.0,0.0,303.0,853.0,0.0,1,804.0,1
655,655,-0.4096956832503794,-0.4,1.0,0.0,433.0,971.0,0.0,0,146.0,1
656,656,-0.2816855276188167,-0.3,0.0,1.0,498.0,961.0,1.0,0,2881.0,1
657,657,-0.5522184912487491,-0.6,1.0,0.0,412.0,939.0,0.0,0,-431.0,1
658,658,0.5951257417705323,0.6,1.0,1.0,265.0,778.0,1.0,1,107.0,1
659,659,0.06730164115919601,0.1,0.0,0.0,474.0,741.0,0.0,1,605.0,1
660,660,-0.4933777809917191,-0.5,1.0,0.0,484.0,624.0,0.0,0,462.0,1
661,661,-0.08143288337766208,-0.1,0.0,1.0,391.0,875.0,0.0,1,454.0,0
662,662,-0.0012457944496152562,-0.0,1.0,0.0,368.0,714.0,0.0,0,1828.0,1
663,663,-0.046788419766155775,-0.0,0.0,1.0,377.0,781.0,0.0,1,382.0,0
664,664,-0.5921845482341097,-0.6,1.0,0.0,303.0,752.0,0.0,0,-145.0,1
665,665,0.29659789284825855,0.3,0.0,0.0,284.0,569.0,0.0,1,557.0,1
666,666,-0.26660986745920245,-0.3,1.0,0.0,451.0,806.0,0.0,0,363.0,1
667,667,0.3826964768414921,0.4,0.0,0.0,429.0,556.0,0.0,1,225.0,1
668,668,0.47170635435149333,0.5,1.0,1.0,391.0,589.0,1.0,1,560.0,1
669,669,0.8372809502909692,0.8,1.0,1.0,455.0,737.0,0.0,0,-112.0,0
670,670,0.5510722924150621,0.6,0.0,0.0,266.0,731.0,0.0,1,1233.0,1
671,671,0.8440634218293387,0.8,1.0,1.0,323.0,773.0,1.0,1,444.0,1
672,672,0.36501214844305696,0.4,0.0,0.0,340.0,723.0,0.0,1,1037.0,1
673,673,-0.4776091779267084,-0.5,0.0,1.0,256.0,717.0,1.0,0,937.0,1
674,674,0.5344323586353174,0.5,0.0,0.0,253.0,573.0,0.0,1,554.0,1
675,675,0.6078368963893516,0.6,1.0,1.0,288.0,589.0,1.0,1,313.0,1
676,676,-0.5818955265732092,-0.6,0.0,1.0,489.0,985.0,0.0,1,-24.0,0
677,677,0.5272145138736403,0.5,0.0,0.0,257.0,687.0,0.0,1,236.0,1
678,678,-0.5560202829681756,-0.6,1.0,0.0,453.0,868.0,0.0,0,-321.0,1
679,679,0.2388243687716639,0.2,0.0,0.0,358.0,668.0,0.0,1,984.0,1
680,680,-0.1860988130450324,-0.2,0.0,1.0,277.0,556.0,0.0,1,1257.0,0
681,681,-0.4899165655960669,-0.5,0.0,1.0,323.0,878.0,1.0,0,1319.0,1
682,682,0.24492896736278802,0.2,0.0,0.0,351.0,877.0,0.0,1,152.0,1
683,683,-0.16866447525743722,-0.2,0.0,1.0,436.0,685.0,1.0,0,1879.0,1
684,684,-0.5635970312547706,-0.6,0.0,1.0,308.0,791.0,1.0,0,721.0,1
685,685,0.1133742272467001,0.1,1.0,1.0,359.0,629.0,0.0,0,342.0,0
686,686,-0.051170576737878504,-0.1,1.0,0.0,483.0,750.0,0.0,0,1297.0,1
687,687,0.891358827486522,0.9,1.0,1.0,335.0,518.0,1.0,1,387.0,1
688,688,-0.734116241305021,-0.7,1.0,0.0,437.0,716.0,0.0,0,127.0,1
689,689,-0.5003150910082222,-0.5,1.0,0.0,291.0,816.0,0.0,0,243.0,1
690,690,-0.24630257548109247,-0.2,1.0,0.0,278.0,892.0,0.0,0,610.0,1
691,691,0.7535074021420886,0.8,0.0,0.0,395.0,970.0,0.0,1,325.0,1
692,692,-0.7503277628051168,-0.8,0.0,1.0,265.0,876.0,1.0,0,769.0,1
693,693,-0.37244092371813464,-0.4,1.0,0.0,397.0,632.0,0.0,0,111.0,1
694,694,-0.32624162095702114,-0.3,0.0,1.0,466.0,869.0,1.0,0,1255.0,1
695,695,-0.5066744095743445,-0.5,0.0,1.0,274.0,896.0,1.0,0,370.0,1
696,696,0.534124969829039,0.5,1.0,1.0,308.0,763.0,1.0,1,629.0,1
697,697,-0.04594106299863354,-0.0,0.0,1.0,367.0,787.0,0.0,1,-104.0,0
698,698,0.02295915178529906,0.0,0.0,0.0,277.0,626.0,0.0,1,1747.0,1
699,699,0.3631706334241219,0.4,0.0,0.0,333.0,797.0,0.0,1,500.0,1
700,700,0.4748552128224782,0.5,0.0,0.0,424.0,523.0,0.0,1,133.0,1
701,701,0.295926367072992,0.3,1.0,1.0,478.0,881.0,1.0,1,391.0,1
702,702,0.3598759463181428,0.4,0.0,0.0,261.0,709.0,0.0,1,890.0,1
703,703,0.4865338293701592,0.5,0.0,0.0,450.0,575.0,0.0,1,325.0,1
704,704,0.005099079688195118,0.0,0.0,0.0,324.0,802.0,0.0,1,3864.0,1
705,705,0.6825825045570441,0.7,1.0,1.0,475.0,566.0,1.0,1,609.0,1
706,706,0.76693600539132,0.8,0.0,0.0,339.0,516.0,0.0,1,-175.0,1
707,707,-0.2081701184112249,-0.2,0.0,1.0,375.0,534.0,0.0,1,4091.0,0
708,708,0.4395071423428719,0.4,0.0,0.0,406.0,791.0,0.0,1,223.0,1
709,709,0.6420598431789356,0.6,1.0,1.0,283.0,970.0,0.0,0,7.0,0
710,710,0.22209389109377475,0.2,0.0,0.0,400.0,839.0,0.0,1,551.0,1
711,711,-0.24408374198431848,-0.2,1.0,0.0,380.0,764.0,0.0,0,-14.0,1
712,712,0.6598467716409256,0.7,1.0,1.0,322.0,749.0,1.0,1,329.0,1
713,713,0.46157956054065064,0.5,1.0,1.0,481.0,950.0,1.0,1,39.0,1
714,714,-0.4261666030756224,-0.4,0.0,1.0,430.0,949.0,0.0,1,51.0,0
715,715,-0.8736189945031335,-0.9,0.0,1.0,429.0,977.0,1.0,0,294.0,1
716,716,-0.6229457759427733,-0.6,1.0,0.0,265.0,774.0,0.0,0,-129.0,1
717,717,-0.8001510772710423,-0.8,1.0,0.0,310.0,507.0,0.0,0,413.0,1
718,718,0.21688289348097178,0.2,1.0,1.0,321.0,559.0,1.0,1,600.0,1
719,719,-0.2316947045653054,-0.2,0.0,1.0,425.0,777.0,1.0,0,2238.0,1
720,720,0.17067142950756253,0.2,0.0,0.0,479.0,953.0,0.0,1,948.0,1
721,721,-0.16288537495419542,-0.2,1.0,0.0,290.0,894.0,0.0,0,-104.0,1
722,722,0.8904356928825997,0.9,0.0,0.0,476.0,537.0,0.0,1,567.0,1
723,723,0.05168585654775015,0.1,1.0,1.0,274.0,641.0,0.0,0,665.0,0
724,724,0.5968711669173205,0.6,0.0,0.0,391.0,502.0,0.0,1,257.0,1
725,725,0.3876269950242176,0.4,1.0,1.0,473.0,793.0,1.0,1,984.0,1
726,726,-0.33967260740830774,-0.3,0.0,1.0,263.0,565.0,1.0,0,262.0,1
727,727,0.07822438290638267,0.1,1.0,1.0,495.0,606.0,1.0,1,1639.0,1
728,728,-0.4822289812153749,-0.5,0.0,1.0,441.0,564.0,1.0,0,1305.0,1
729,729,-0.539553070875455,-0.5,0.0,1.0,329.0,739.0,1.0,0,122.0,1
730,730,-0.8220346362196965,-0.8,0.0,1.0,382.0,952.0,1.0,0,246.0,1
731,731,0.7061636538956976,0.7,1.0,1.0,441.0,830.0,1.0,1,329.0,1
732,732,0.17747409329598762,0.2,0.0,0.0,374.0,734.0,0.0,1,552.0,1
733,733,0.8575062247732729,0.9,0.0,0.0,370.0,979.0,0.0,1,281.0,1
734,734,0.8068704362484921,0.8,0.0,0.0,377.0,836.0,0.0,1,67.0,1
735,735,0.25948623993621467,0.3,1.0,1.0,393.0,795.0,0.0,0,-78.0,0
736,736,0.06990877926356587,0.1,1.0,1.0,290.0,540.0,0.0,0,260.0,0
737,737,-0.2907624598320756,-0.3,0.0,1.0,420.0,647.0,0.0,1,3.0,0
738,738,0.8103083712260627,0.8,0.0,0.0,418.0,529.0,0.0,1,153.0,1
739,739,-0.7134354303954393,-0.7,0.0,1.0,345.0,589.0,1.0,0,186.0,1
740,740,-0.3703109734211204,-0.4,0.0,1.0,446.0,543.0,1.0,0,961.0,1
741,741,0.37246476431957076,0.4,1.0,1.0,447.0,995.0,0.0,0,18.0,0
742,742,0.04927337708588697,0.0,1.0,1.0,320.0,752.0,1.0,1,-132.0,1
743,743,-0.8456237901986904,-0.8,0.0,1.0,463.0,958.0,1.0,0,569.0,1
744,744,-0.45490673615798216,-0.5,1.0,0.0,302.0,508.0,0.0,0,1490.0,1
745,745,-0.15963482305096266,-0.2,0.0,1.0,447.0,914.0,1.0,0,259.0,1
746,746,0.05403218431508161,0.1,1.0,1.0,293.0,715.0,1.0,1,42.0,1
747,747,0.0809188716194783,0.1,0.0,0.0,281.0,804.0,0.0,1,305.0,1
748,748,-0.5691142998690779,-0.6,1.0,0.0,463.0,726.0,0.0,0,401.0,1
749,749,-0.7244498656871772,-0.7,1.0,0.0,479.0,533.0,0.0,0,168.0,1
750,750,-0.17907558689555148,-0.2,0.0,1.0,392.0,642.0,0.0,1,496.0,0
751,751,-0.316706284018513,-0.3,1.0,0.0,473.0,684.0,0.0,0,133.0,1
752,752,-0.34047792259784226,-0.3,1.0,0.0,272.0,607.0,0.0,0,381.0,1
753,753,-0.070868735794274,-0.1,1.0,0.0,294.0,906.0,0.0,0,-10.0,1
754,754,-0.183990087185412,-0.2,0.0,1.0,488.0,759.0,0.0,1,-137.0,0
755,755,0.685348429894005,0.7,1.0,1.0,347.0,852.0,1.0,1,431.0,1
756,756,0.5687717162120377,0.6,1.0,1.0,414.0,668.0,0.0,0,-32.0,0
757,757,-0.6020229058437954,-0.6,1.0,0.0,458.0,506.0,0.0,0,246.0,1
758,758,0.6913919353841972,0.7,0.0,0.0,372.0,834.0,1.0,0,-66.0,0
759,759,0.3043711531459531,0.3,0.0,0.0,442.0,855.0,0.0,1,373.0,1
760,760,0.7893583163151491,0.8,1.0,1.0,431.0,858.0,1.0,1,31.0,1
761,761,-0.599642573343782,-0.6,0.0,1.0,489.0,742.0,1.0,0,659.0,1
762,762,0.4554293646994322,0.5,0.0,0.0,422.0,631.0,0.0,1,-853.0,1
763,763,0.24261989702544107,0.2,0.0,0.0,340.0,668.0,0.0,1,482.0,1
764,764,0.7312082320050296,0.7,1.0,1.0,277.0,764.0,1.0,1,1139.0,1
765,765,0.7386805424228152,0.7,1.0,1.0,344.0,702.0,1.0,1,564.0,1
766,766,0.8366685208684267,0.8,0.0,0.0,310.0,618.0,0.0,1,392.0,1
767,767,-0.5910692879733981,-0.6,1.0,0.0,347.0,562.0,0.0,0,341.0,1
768,768,0.5546022460014771,0.6,0.0,0.0,272.0,947.0,0.0,1,-139.0,1
769,769,0.0653410830625265,0.1,1.0,1.0,365.0,893.0,0.0,0,292.0,0
770,770,0.8026450135133248,0.8,0.0,0.0,349.0,852.0,0.0,1,409.0,1
771,771,0.5027390547922702,0.5,0.0,0.0,253.0,553.0,0.0,1,334.0,1
772,772,0.21691212111286473,0.2,1.0,1.0,467.0,849.0,1.0,1,704.0,1
773,773,0.8239994906769249,0.8,1.0,1.0,350.0,611.0,1.0,1,949.0,1
774,774,-0.705620312236088,-0.7,0.0,1.0,270.0,972.0,0.0,1,-52.0,0
775,775,-0.7201924118908436,-0.7,0.0,1.0,430.0,649.0,1.0,0,501.0,1
776,776,-0.2326752002113638,-0.2,1.0,0.0,326.0,536.0,0.0,0,498.0,1
777,777,0.5597201708183793,0.6,1.0,1.0,406.0,752.0,1.0,1,232.0,1
778,778,-0.6786684132535914,-0.7,1.0,0.0,288.0,860.0,0.0,0,-118.0,1
779,779,0.7791527929318977,0.8,0.0,0.0,307.0,693.0,0.0,1,370.0,1
780,780,-0.1338505797675711,-0.1,1.0,0.0,287.0,773.0,0.0,0,120.0,1
781,781,0.1955407464091713,0.2,0.0,0.0,297.0,957.0,0.0,1,1716.0,1
782,782,0.5744264058779304,0.6,1.0,1.0,364.0,532.0,1.0,1,534.0,1
783,783,0.5736491765943298,0.6,0.0,0.0,321.0,580.0,0.0,1,139.0,1
784,784,-0.6132677170671144,-0.6,0.0,1.0,400.0,639.0,0.0,1,-289.0,0
785,785,0.28186869195386943,0.3,0.0,0.0,426.0,769.0,0.0,1,385.0,1
786,786,0.23392978625874006,0.2,0.0,0.0,251.0,502.0,0.0,1,267.0,1
787,787,0.5059140151507932,0.5,0.0,0.0,361.0,969.0,0.0,1,520.0,1
788,788,0.631291889864107,0.6,0.0,0.0,468.0,732.0,0.0,1,-30.0,1
789,789,-0.35410791479717607,-0.4,0.0,1.0,299.0,772.0,1.0,0,1549.0,1
790,790,-0.2444782396651476,-0.2,1.0,0.0,316.0,770.0,0.0,0,-466.0,1
791,791,-0.3305331159302445,-0.3,0.0,1.0,482.0,813.0,0.0,1,3525.0,0
792,792,-0.18412946893436855,-0.2,1.0,0.0,432.0,910.0,0.0,0,238.0,1
793,793,0.2729288422089794,0.3,1.0,1.0,448.0,710.0,0.0,0,1052.0,0
794,794,-0.2152392918088677,-0.2,1.0,0.0,282.0,788.0,0.0,0,-200.0,1
795,795,0.720665407592577,0.7,0.0,0.0,348.0,514.0,0.0,1,298.0,1
796,796,-0.2099866819946925,-0.2,0.0,1.0,339.0,772.0,1.0,0,1729.0,1
797,797,0.5672733325230742,0.6,0.0,0.0,330.0,894.0,0.0,1,156.0,1
798,798,-0.5631302835383196,-0.6,0.0,1.0,350.0,560.0,1.0,0,790.0,1
799,799,-0.516904566468793,-0.5,0.0,1.0,438.0,991.0,1.0,0,161.0,1
800,800,0.3132970448639639,0.3,0.0,0.0,495.0,801.0,0.0,1,664.0,1
801,801,0.23781280484015854,0.2,1.0,1.0,384.0,615.0,1.0,1,-99.0,1
802,802,-0.08263664607916121,-0.1,0.0,1.0,428.0,723.0,0.0,1,499.0,0
803,803,0.06329884765475302,0.1,1.0,1.0,293.0,716.0,1.0,1,261.0,1
804,804,-0.3141614392809017,-0.3,0.0,1.0,283.0,696.0,1.0,0,821.0,1
805,805,0.7213024306489734,0.7,0.0,0.0,425.0,797.0,0.0,1,448.0,1
806,806,-0.3791322652657202,-0.4,0.0,1.0,371.0,958.0,1.0,0,561.0,1
807,807,0.1010221940214725,0.1,1.0,1.0,269.0,667.0,0.0,0,164.0,0
808,808,-0.34658465826388574,-0.3,1.0,0.0,328.0,839.0,0.0,0,-347.0,1
809,809,-0.4029989075298627,-0.4,0.0,1.0,476.0,737.0,1.0,0,387.0,1
810,810,0.7076309020461374,0.7,0.0,0.0,443.0,713.0,0.0,1,634.0,1
811,811,0.39238227806098036,0.4,0.0,0.0,457.0,723.0,0.0,1,610.0,1
812,812,0.7926715749187506,0.8,0.0,0.0,453.0,993.0,0.0,1,304.0,1
813,813,-0.3755712336981193,-0.4,0.0,1.0,376.0,598.0,1.0,0,446.0,1
814,814,0.5544464657862999,0.6,1.0,1.0,423.0,715.0,1.0,1,172.0,1
815,815,-0.8839216068335464,-0.9,0.0,1.0,408.0,752.0,1.0,0,510.0,1
816,816,0.43216816869967467,0.4,1.0,1.0,428.0,857.0,1.0,1,905.0,1
817,817,-0.2095194527273999,-0.2,0.0,1.0,278.0,535.0,0.0,1,1187.0,0
818,818,-0.5545358308966368,-0.6,1.0,0.0,289.0,655.0,0.0,0,276.0,1
819,819,-0.17143173975178405,-0.2,1.0,0.0,449.0,849.0,0.0,0,322.0,1
820,820,0.4949983561900505,0.5,1.0,1.0,330.0,639.0,1.0,1,651.0,1
821,821,0.4281283023035526,0.4,0.0,0.0,494.0,890.0,0.0,1,446.0,1
822,822,-0.4675490987960768,-0.5,0.0,1.0,388.0,851.0,1.0,0,1331.0,1
823,823,-0.013687381183738911,-0.0,1.0,0.0,419.0,663.0,0.0,0,-52.0,1
824,824,0.3518592679797473,0.4,1.0,1.0,373.0,711.0,0.0,0,146.0,0
825,825,0.812889045990521,0.8,0.0,0.0,494.0,582.0,0.0,1,444.0,1
826,826,-0.6877465795747636,-0.7,0.0,1.0,454.0,606.0,1.0,0,300.0,1
827,827,0.5384743868653333,0.5,1.0,1.0,353.0,566.0,1.0,1,631.0,1
828,828,0.22243424639858989,0.2,0.0,0.0,448.0,950.0,0.0,1,-398.0,1
829,829,-0.26327782008718836,-0.3,1.0,0.0,291.0,733.0,0.0,0,496.0,1
830,830,0.7800911404822098,0.8,1.0,1.0,250.0,842.0,1.0,1,98.0,1
831,831,0.7769103030078276,0.8,0.0,0.0,459.0,598.0,0.0,1,313.0,1
832,832,0.8857788935498788,0.9,1.0,1.0,435.0,874.0,1.0,1,201.0,1
833,833,0.8577413910716566,0.9,1.0,1.0,496.0,730.0,1.0,1,534.0,1
834,834,-0.4037143506562054,-0.4,0.0,1.0,309.0,891.0,1.0,0,1510.0,1
835,835,-0.35991954045732566,-0.4,0.0,1.0,410.0,562.0,1.0,0,948.0,1
836,836,-0.887609753392241,-0.9,1.0,0.0,363.0,797.0,0.0,0,160.0,1
837,837,-0.733113074235691,-0.7,0.0,1.0,313.0,790.0,1.0,0,407.0,1
838,838,-0.19395333113162538,-0.2,0.0,1.0,433.0,979.0,0.0,1,638.0,0
839,839,0.3235017894536324,0.3,1.0,1.0,264.0,697.0,1.0,1,89.0,1
840,840,-0.2918250799430895,-0.3,1.0,0.0,348.0,840.0,0.0,0,62.0,1
841,841,0.24344916534543148,0.2,0.0,0.0,469.0,708.0,0.0,1,-47.0,1
842,842,-0.5579545886443189,-0.6,0.0,1.0,276.0,802.0,1.0,0,242.0,1
843,843,0.5347663136152848,0.5,0.0,0.0,443.0,781.0,0.0,1,76.0,1
844,844,0.5385936446772869,0.5,0.0,0.0,307.0,952.0,0.0,1,91.0,1
845,845,0.5695773409194861,0.6,0.0,0.0,333.0,580.0,0.0,1,207.0,1
846,846,-0.008382276820346979,-0.0,1.0,0.0,333.0,825.0,0.0,0,772.0,1
847,847,-0.47941681416721954,-0.5,1.0,0.0,353.0,624.0,0.0,0,133.0,1
848,848,0.048769177153214494,0.0,0.0,0.0,451.0,820.0,0.0,1,1569.0,1
849,849,0.14047882058054773,0.1,1.0,1.0,269.0,852.0,0.0,0,-561.0,0
850,850,-0.2984968921692466,-0.3,0.0,1.0,258.0,985.0,0.0,1,-53.0,0
851,851,-0.25419237712738296,-0.3,1.0,0.0,306.0,584.0,0.0,0,970.0,1
852,852,0.6528924955454339,0.7,1.0,1.0,334.0,954.0,1.0,1,562.0,1
853,853,-0.8140789279127927,-0.8,0.0,1.0,421.0,716.0,1.0,0,423.0,1
854,854,-0.3924838893334621,-0.4,1.0,0.0,432.0,893.0,1.0,1,-175.0,0
855,855,0.8703782484966337,0.9,1.0,1.0,336.0,699.0,1.0,1,115.0,1
856,856,-0.8381419743675966,-0.8,1.0,0.0,331.0,622.0,0.0,0,237.0,1
857,857,-0.3708001743256105,-0.4,0.0,1.0,396.0,765.0,1.0,0,769.0,1
858,858,-0.4873116247082368,-0.5,1.0,0.0,419.0,563.0,0.0,0,278.0,1
859,859,-0.04832721807457507,-0.0,1.0,0.0,280.0,951.0,0.0,0,1039.0,1
860,860,0.46305050903553047,0.5,0.0,0.0,413.0,701.0,0.0,1,-254.0,1
861,861,0.8656667989010548,0.9,1.0,1.0,493.0,752.0,1.0,1,245.0,1
862,862,-0.15939443345182647,-0.2,0.0,1.0,318.0,950.0,0.0,1,-248.0,0
863,863,-0.8330979228142734,-0.8,1.0,0.0,403.0,962.0,0.0,0,-405.0,1
864,864,0.8743784092721546,0.9,1.0,1.0,255.0,508.0,1.0,1,327.0,1
865,865,0.037978646750078116,0.0,1.0,1.0,372.0,889.0,0.0,0,89.0,0
866,866,-0.6077061638634498,-0.6,0.0,1.0,381.0,804.0,1.0,0,935.0,1
867,867,-0.3234509656815904,-0.3,1.0,0.0,302.0,647.0,0.0,0,781.0,1
868,868,-0.602469989929049,-0.6,1.0,0.0,495.0,605.0,0.0,0,50.0,1
869,869,0.8656481062556943,0.9,0.0,0.0,365.0,674.0,0.0,1,151.0,1
870,870,0.6410119603613332,0.6,1.0,1.0,315.0,527.0,0.0,0,-82.0,0
871,871,-0.8178377779179116,-0.8,1.0,0.0,344.0,769.0,1.0,1,-463.0,0
872,872,-0.17946387908331762,-0.2,0.0,1.0,426.0,860.0,0.0,1,1244.0,0
873,873,0.32487154525363826,0.3,1.0,1.0,304.0,845.0,1.0,1,3551.0,1
874,874,-0.4096427987841852,-0.4,0.0,1.0,270.0,922.0,0.0,1,-272.0,0
875,875,0.13332449244166888,0.1,0.0,0.0,317.0,768.0,0.0,1,235.0,1
876,876,0.5969055067172465,0.6,1.0,1.0,400.0,586.0,1.0,1,1094.0,1
877,877,-0.3259272953038097,-0.3,0.0,1.0,382.0,538.0,1.0,0,190.0,1
878,878,-0.5113911534778052,-0.5,0.0,1.0,338.0,502.0,1.0,0,980.0,1
879,879,0.8448207217913445,0.8,1.0,1.0,429.0,664.0,1.0,1,367.0,1
880,880,0.6274674907843408,0.6,1.0,1.0,327.0,808.0,1.0,1,395.0,1
881,881,-0.31355077870484616,-0.3,0.0,1.0,497.0,978.0,1.0,0,65.0,1
882,882,-0.36528393156741834,-0.4,1.0,0.0,440.0,615.0,0.0,0,15.0,1
883,883,-0.6717965641954777,-0.7,1.0,0.0,378.0,675.0,0.0,0,107.0,1
884,884,0.22978413370153927,0.2,1.0,1.0,395.0,841.0,0.0,0,114.0,0
885,885,-0.2516695528978028,-0.3,0.0,1.0,288.0,883.0,0.0,1,-141.0,0
886,886,0.10608854291789382,0.1,1.0,1.0,385.0,605.0,1.0,1,180.0,1
887,887,-0.5756159546156778,-0.6,0.0,1.0,421.0,897.0,0.0,1,-88.0,0
888,888,-0.543365196716045,-0.5,1.0,0.0,313.0,838.0,0.0,0,829.0,1
889,889,0.7235717201212398,0.7,0.0,0.0,331.0,783.0,0.0,1,456.0,1
890,890,0.6140057944324578,0.6,0.0,0.0,425.0,838.0,0.0,1,537.0,1
891,891,0.6612678277730003,0.7,1.0,1.0,338.0,693.0,1.0,1,959.0,1
892,892,-0.8978136815976562,-0.9,1.0,0.0,344.0,566.0,0.0,0,140.0,1
893,893,-0.7032192361268089,-0.7,0.0,1.0,329.0,957.0,0.0,1,-36.0,0
894,894,0.6189053355059418,0.6,0.0,0.0,466.0,891.0,0.0,1,93.0,1
895,895,-0.15294703879604576,-0.2,1.0,0.0,325.0,619.0,0.0,0,256.0,1
896,896,-0.1405759445956506,-0.1,0.0,1.0,397.0,709.0,0.0,1,-116.0,0
897,897,0.687407332506904,0.7,0.0,0.0,330.0,573.0,0.0,1,197.0,1
898,898,0.8184885396976186,0.8,0.0,0.0,342.0,853.0,0.0,1,395.0,1
899,899,0.14463222605169046,0.1,0.0,0.0,486.0,587.0,1.0,0,507.0,0
900,900,0.10236870550814492,0.1,0.0,0.0,467.0,550.0,0.0,1,143.0,1
901,901,0.5581899490169228,0.6,0.0,0.0,443.0,738.0,0.0,1,219.0,1
902,902,-0.11708850252423408,-0.1,1.0,0.0,487.0,716.0,0.0,0,2717.0,1
903,903,-0.2688086484609272,-0.3,0.0,1.0,322.0,525.0,1.0,0,1253.0,1
904,904,0.7214175044374994,0.7,0.0,0.0,361.0,727.0,0.0,1,162.0,1
905,905,0.40795923689336366,0.4,1.0,1.0,443.0,723.0,0.0,0,-86.0,0
906,906,-0.1227781524591347,-0.1,1.0,0.0,373.0,576.0,0.0,0,-9.0,1
907,907,0.8876153221482727,0.9,1.0,1.0,491.0,625.0,1.0,1,294.0,1
908,908,0.8479273729601055,0.8,1.0,1.0,283.0,982.0,0.0,0,-35.0,0
909,909,-0.34067137706793227,-0.3,0.0,1.0,253.0,595.0,1.0,0,532.0,1
910,910,-0.5395189992387432,-0.5,1.0,0.0,378.0,860.0,0.0,0,232.0,1
911,911,0.02506144704595581,0.0,0.0,0.0,372.0,822.0,0.0,1,466.0,1
912,912,0.6952206896036935,0.7,1.0,1.0,344.0,720.0,1.0,1,736.0,1
913,913,0.3584795889477207,0.4,1.0,1.0,307.0,685.0,1.0,1,-182.0,1
914,914,-0.8446219692984492,-0.8,0.0,1.0,375.0,836.0,1.0,0,409.0,1
915,915,0.11138305447264207,0.1,0.0,0.0,258.0,986.0,1.0,0,-204.0,0
916,916,-0.0586392395124945,-0.1,1.0,0.0,278.0,680.0,0.0,0,132.0,1
917,917,-0.030042895414639004,-0.0,0.0,1.0,424.0,557.0,0.0,1,189.0,0
918,918,-0.19385315190170382,-0.2,1.0,0.0,479.0,609.0,0.0,0,-378.0,1
919,919,-0.23055398433746532,-0.2,0.0,1.0,310.0,889.0,1.0,0,2401.0,1
920,920,-0.15180500986588286,-0.2,1.0,0.0,421.0,838.0,0.0,0,-139.0,1
921,921,-0.8052248508684391,-0.8,1.0,0.0,275.0,542.0,1.0,1,-17.0,0
922,922,0.6591570451703886,0.7,1.0,1.0,364.0,535.0,1.0,1,661.0,1
923,923,-0.1590673633981966,-0.2,0.0,1.0,368.0,992.0,1.0,0,3640.0,1
924,924,0.8738286938602448,0.9,0.0,0.0,423.0,648.0,0.0,1,139.0,1
925,925,-0.3368647775107638,-0.3,0.0,1.0,391.0,510.0,1.0,0,1549.0,1
926,926,0.6651740706069439,0.7,0.0,0.0,285.0,642.0,0.0,1,33.0,1
927,927,-0.6296769351353932,-0.6,0.0,1.0,324.0,891.0,1.0,0,1075.0,1
928,928,-0.7109990957044716,-0.7,1.0,0.0,389.0,560.0,0.0,0,121.0,1
929,929,-0.7790383219081303,-0.8,1.0,0.0,340.0,980.0,0.0,0,140.0,1
930,930,-0.4177461985483305,-0.4,0.0,1.0,345.0,598.0,0.0,1,-143.0,0
931,931,-0.6499382244763741,-0.6,1.0,0.0,411.0,574.0,0.0,0,375.0,1
932,932,0.19221697293948237,0.2,1.0,1.0,404.0,752.0,1.0,1,504.0,1
933,933,-0.21012546277492083,-0.2,1.0,0.0,326.0,953.0,0.0,0,591.0,1
934,934,0.4731297229025623,0.5,1.0,1.0,444.0,698.0,0.0,0,-242.0,0
935,935,-0.559157856982879,-0.6,0.0,1.0,394.0,522.0,1.0,0,494.0,1
936,936,0.8594564475503507,0.9,1.0,1.0,347.0,839.0,1.0,1,304.0,1
937,937,0.464055495490442,0.5,0.0,0.0,361.0,846.0,0.0,1,213.0,1
938,938,-0.7538916158984474,-0.8,0.0,1.0,488.0,800.0,0.0,1,-358.0,0
939,939,0.43809992091798644,0.4,0.0,0.0,279.0,834.0,1.0,0,-33.0,0
940,940,0.26369613382157675,0.3,1.0,1.0,317.0,793.0,1.0,1,330.0,1
941,941,-0.3319773981487677,-0.3,1.0,0.0,331.0,847.0,0.0,0,242.0,1
942,942,-0.16995570324020182,-0.2,1.0,0.0,492.0,667.0,0.0,0,431.0,1
943,943,0.6220311442486027,0.6,1.0,1.0,340.0,850.0,1.0,1,520.0,1
944,944,0.479466628801713,0.5,1.0,1.0,432.0,997.0,0.0,0,-359.0,0
945,945,-0.011620412742818331,-0.0,0.0,1.0,301.0,586.0,1.0,0,823.0,1
946,946,0.007280034695999804,0.0,0.0,0.0,292.0,794.0,0.0,1,2204.0,1
947,947,-0.5353209856956842,-0.5,1.0,0.0,493.0,808.0,1.0,1,259.0,0
948,948,0.7066053348267397,0.7,1.0,1.0,328.0,545.0,1.0,1,427.0,1
949,949,0.4366878699005837,0.4,0.0,0.0,350.0,708.0,0.0,1,442.0,1
950,950,0.34853475849400406,0.3,1.0,1.0,439.0,859.0,1.0,1,682.0,1
951,951,-0.22507624617308541,-0.2,0.0,1.0,357.0,668.0,1.0,0,2665.0,1
952,952,-0.6038744679236405,-0.6,0.0,1.0,354.0,654.0,1.0,0,212.0,1
953,953,-0.524695595214622,-0.5,0.0,1.0,298.0,507.0,1.0,0,205.0,1
954,954,-0.5921797558201443,-0.6,0.0,1.0,478.0,532.0,1.0,0,0.0,1
955,955,0.6385440908321173,0.6,0.0,0.0,390.0,882.0,0.0,1,-262.0,1
956,956,0.12738720002023685,0.1,0.0,0.0,310.0,608.0,0.0,1,842.0,1
957,957,0.5304999520568522,0.5,0.0,0.0,352.0,644.0,0.0,1,434.0,1
958,958,-0.22184903905146425,-0.2,0.0,1.0,382.0,611.0,1.0,0,797.0,1
959,959,-0.005298409996381759,-0.0,1.0,0.0,499.0,874.0,0.0,0,557.0,1
960,960,-0.1656710199405118,-0.2,1.0,0.0,412.0,549.0,0.0,0,599.0,1
961,961,-0.5534803518469202,-0.6,0.0,1.0,382.0,619.0,1.0,0,1019.0,1
962,962,0.5204412586331685,0.5,1.0,1.0,487.0,842.0,1.0,1,1021.0,1
963,963,-0.38381759622042055,-0.4,0.0,1.0,345.0,558.0,1.0,0,1157.0,1
964,964,0.3305274227116871,0.3,0.0,0.0,450.0,799.0,0.0,1,191.0,1
965,965,0.17312943321309004,0.2,0.0,0.0,392.0,704.0,0.0,1,-116.0,1
966,966,0.08569944107416849,0.1,1.0,1.0,392.0,761.0,0.0,0,1057.0,0
967,967,-0.3546257423714909,-0.4,1.0,0.0,418.0,879.0,0.0,0,-487.0,1
968,968,-0.19237558336543825,-0.2,0.0,1.0,447.0,707.0,1.0,0,916.0,1
969,969,-0.38433652973098875,-0.4,0.0,1.0,283.0,589.0,1.0,0,158.0,1
970,970,-0.7717315464280546,-0.8,0.0,1.0,294.0,632.0,1.0,0,284.0,1
971,971,0.24791140736347617,0.2,1.0,1.0,367.0,708.0,1.0,1,-65.0,1
972,972,-0.23334418954954317,-0.2,0.0,1.0,360.0,590.0,0.0,1,490.0,0
973,973,-0.5262800632763136,-0.5,1.0,0.0,423.0,749.0,0.0,0,348.0,1
974,974,-0.6708424836158131,-0.7,1.0,0.0,486.0,918.0,0.0,0,-114.0,1
975,975,0.14820787684225378,0.1,0.0,0.0,332.0,701.0,0.0,1,77.0,1
976,976,-0.6636603357977898,-0.7,1.0,0.0,439.0,738.0,0.0,0,-267.0,1
977,977,0.314364514122382,0.3,1.0,1.0,280.0,771.0,0.0,0,-231.0,0
978,978,0.2737038651446594,0.3,1.0,1.0,327.0,727.0,1.0,1,-254.0,1
979,979,-0.8030513813219187,-0.8,0.0,1.0,354.0,890.0,1.0,0,166.0,1
980,980,0.23688118222808663,0.2,1.0,1.0,401.0,811.0,1.0,1,1048.0,1
981,981,-0.16212157764286506,-0.2,1.0,0.0,461.0,865.0,1.0,1,-696.0,0
982,982,0.8132082589551005,0.8,1.0,1.0,350.0,801.0,1.0,1,489.0,1
983,983,-0.8308975809276188,-0.8,0.0,1.0,334.0,713.0,1.0,0,173.0,1
984,984,-0.843378461983768,-0.8,0.0,1.0,497.0,823.0,1.0,0,560.0,1
985,985,-0.8205681252185018,-0.8,0.0,1.0,480.0,943.0,1.0,0,157.0,1
986,986,0.7729554569272893,0.8,1.0,1.0,329.0,929.0,1.0,1,592.0,1
987,987,0.8566872317539146,0.9,0.0,0.0,411.0,748.0,0.0,1,151.0,1
988,988,0.495494191750416,0.5,0.0,0.0,278.0,533.0,0.0,1,279.0,1
989,989,0.7665050187114223,0.8,0.0,0.0,372.0,854.0,0.0,1,374.0,1
990,990,-0.303990495453194,-0.3,0.0,1.0,383.0,909.0,1.0,0,2468.0,1
991,991,-0.4933751518373833,-0.5,0.0,1.0,349.0,904.0,1.0,0,607.0,1
992,992,-0.8304559735801406,-0.8,1.0,0.0,310.0,645.0,0.0,0,5.0,1
993,993,-0.505188988891214,-0.5,1.0,0.0,430.0,629.0,0.0,0,361.0,1
994,994,0.36229498930455384,0.4,0.0,0.0,461.0,810.0,0.0,1,499.0,1
995,995,0.5253773622865873,0.5,1.0,1.0,331.0,671.0,1.0,1,448.0,1
996,996,-0.3714336791526882,-0.4,0.0,1.0,356.0,985.0,1.0,0,1509.0,1
997,997,-0.7358584238981908,-0.7,0.0,1.0,294.0,612.0,1.0,0,504.0,1
998,998,-0.29740900768281575,-0.3,1.0,0.0,251.0,992.0,0.0,0,47.0,1
999,999,-0.19798754086742,-0.2,0.0,1.0,474.0,620.0,0.0,1,-204.0,0
1000,1000,0.08223036097272263,0.1,1.0,1.0,421.0,610.0,0.0,0,49.0,0
1001,1001,0.12288831198684969,0.1,1.0,1.0,372.0,732.0,1.0,1,2296.0,1
1002,1002,-0.1056246950630354,-0.1,1.0,0.0,280.0,915.0,0.0,0,-455.0,1
1003,1003,-0.4237327803001217,-0.4,1.0,0.0,363.0,591.0,0.0,0,536.0,1
1004,1004,0.6653353543743407,0.7,0.0,0.0,288.0,824.0,0.0,1,-262.0,1
1005,1005,0.32603972725689656,0.3,0.0,0.0,380.0,565.0,0.0,1,315.0,1
1006,1006,0.004991946744731912,0.0,1.0,1.0,485.0,763.0,1.0,1,2222.0,1
1007,1007,0.7821271797004282,0.8,0.0,0.0,318.0,509.0,0.0,1,43.0,1
1008,1008,-0.7774835157410276,-0.8,1.0,0.0,308.0,514.0,0.0,0,188.0,1
1009,1009,-0.5388083479314609,-0.5,0.0,1.0,296.0,707.0,1.0,0,1517.0,1
1010,1010,-0.07703172617937348,-0.1,0.0,1.0,324.0,514.0,0.0,1,832.0,0
1011,1011,0.46184729995886553,0.5,0.0,0.0,435.0,960.0,0.0,1,165.0,1
1012,1012,-0.05117390396868482,-0.1,1.0,0.0,272.0,990.0,0.0,0,1018.0,1
1013,1013,-0.7952916511207441,-0.8,0.0,1.0,417.0,634.0,1.0,0,319.0,1
1014,1014,-0.6638588526083399,-0.7,0.0,1.0,368.0,908.0,1.0,0,944.0,1
1015,1015,0.6232418282013091,0.6,1.0,1.0,338.0,764.0,0.0,0,168.0,0
1016,1016,-0.318939010724951,-0.3,0.0,1.0,306.0,713.0,1.0,0,1751.0,1
1017,1017,-0.8831426801249839,-0.9,0.0,1.0,328.0,871.0,1.0,0,541.0,1
1018,1018,0.7897071721291024,0.8,1.0,1.0,417.0,798.0,1.0,1,305.0,1
1019,1019,0.4914742630272607,0.5,0.0,0.0,315.0,873.0,0.0,1,202.0,1
1020,1020,-0.3956847190827374,-0.4,1.0,0.0,319.0,650.0,1.0,1,61.0,0
1021,1021,-0.1994871878258908,-0.2,1.0,0.0,383.0,947.0,0.0,0,500.0,1
1022,1022,0.19933550605652173,0.2,0.0,0.0,402.0,687.0,0.0,1,1041.0,1
1023,1023,-0.34911457468055385,-0.3,1.0,0.0,433.0,543.0,0.0,0,504.0,1
1024,1024,-0.11519898316324395,-0.1,1.0,0.0,416.0,705.0,1.0,1,549.0,0
1025,1025,-0.02457387203691963,-0.0,1.0,0.0,396.0,961.0,1.0,1,1553.0,0
1026,1026,-0.7927010108726159,-0.8,0.0,1.0,403.0,793.0,0.0,1,-46.0,0
1027,1027,0.7717083158750176,0.8,1.0,1.0,330.0,944.0,1.0,1,296.0,1
1028,1028,0.706432396386521,0.7,1.0,1.0,281.0,889.0,1.0,1,280.0,1
1029,1029,0.19991783624407244,0.2,1.0,1.0,314.0,712.0,0.0,0,1574.0,0
1030,1030,0.02937757287197762,0.0,1.0,1.0,357.0,762.0,0.0,0,361.0,0
1031,1031,-0.4249977261412526,-0.4,1.0,0.0,485.0,553.0,0.0,0,-158.0,1
1032,1032,-0.1494911240613349,-0.1,1.0,0.0,382.0,860.0,0.0,0,88.0,1
1033,1033,-0.0561616754321318,-0.1,0.0,1.0,390.0,696.0,0.0,1,234.0,0
1034,1034,-0.4907180061543098,-0.5,1.0,0.0,326.0,980.0,0.0,0,184.0,1
1035,1035,0.44557530753080343,0.4,0.0,0.0,388.0,895.0,0.0,1,307.0,1
1036,1036,0.1805249815762492,0.2,0.0,0.0,342.0,827.0,0.0,1,151.0,1
1037,1037,0.7454917101738411,0.7,1.0,1.0,356.0,571.0,1.0,1,313.0,1
1038,1038,-0.7638645946997165,-0.8,1.0,0.0,487.0,709.0,1.0,1,-226.0,0
1039,1039,0.7579455157977218,0.8,1.0,1.0,296.0,892.0,0.0,0,-348.0,0
1040,1040,0.5571970437717432,0.6,1.0,1.0,486.0,609.0,1.0,1,365.0,1
1041,1041,0.5529088635721396,0.6,1.0,1.0,462.0,578.0,1.0,1,250.0,1
1042,1042,0.03290366352921226,0.0,0.0,0.0,443.0,954.0,0.0,1,523.0,1
1043,1043,0.5695506946880274,0.6,0.0,0.0,417.0,884.0,1.0,0,-231.0,0
1044,1044,0.3556519475223253,0.4,0.0,0.0,318.0,732.0,0.0,1,230.0,1
1045,1045,-0.6586095189032065,-0.7,1.0,0.0,368.0,998.0,0.0,0,354.0,1
1046,1046,-0.28120373777644103,-0.3,1.0,0.0,356.0,717.0,0.0,0,167.0,1
1047,1047,-0.41507275592349063,-0.4,0.0,1.0,374.0,503.0,1.0,0,1673.0,1
1048,1048,0.6984282140007706,0.7,1.0,1.0,359.0,530.0,1.0,1,201.0,1
1049,1049,-0.2674796496979541,-0.3,0.0,1.0,443.0,668.0,1.0,0,3609.0,1
1050,1050,-0.4495347536384062,-0.4,1.0,0.0,397.0,721.0,0.0,0,352.0,1
1051,1051,-0.24554363309046578,-0.2,0.0,1.0,338.0,767.0,1.0,0,3895.0,1
1052,1052,0.5771089913945832,0.6,0.0,0.0,484.0,815.0,0.0,1,231.0,1
1053,1053,0.3606935893300093,0.4,1.0,1.0,391.0,899.0,1.0,1,670.0,1
1054,1054,0.3799949670377166,0.4,0.0,0.0,422.0,698.0,0.0,1,480.0,1
1055,1055,-0.5136290201392477,-0.5,1.0,0.0,465.0,609.0,0.0,0,996.0,1
1056,1056,0.8690142695397945,0.9,0.0,0.0,447.0,942.0,0.0,1,281.0,1
1057,1057,-0.17205388992005932,-0.2,0.0,1.0,334.0,757.0,0.0,1,-101.0,0
1058,1058,-0.032164225103071264,-0.0,0.0,1.0,328.0,653.0,0.0,1,799.0,0
1059,1059,-0.17476991178874912,-0.2,1.0,0.0,311.0,551.0,0.0,0,28.0,1
1060,1060,0.7593660712560978,0.8,1.0,1.0,453.0,705.0,1.0,1,432.0,1
1061,1061,0.16478068752410435,0.2,1.0,1.0,274.0,504.0,0.0,0,342.0,0
1062,1062,-0.5519748333619307,-0.6,1.0,0.0,489.0,711.0,0.0,0,490.0,1
1063,1063,0.7725183365899452,0.8,0.0,0.0,449.0,729.0,0.0,1,262.0,1
1064,1064,0.6126989547521752,0.6,0.0,0.0,462.0,813.0,0.0,1,185.0,1
1065,1065,0.8807808794277819,0.9,1.0,1.0,330.0,526.0,1.0,1,204.0,1
1066,1066,0.23785000018777558,0.2,1.0,1.0,362.0,914.0,1.0,1,644.0,1
1067,1067,0.587207030397683,0.6,0.0,0.0,256.0,710.0,0.0,1,364.0,1
1068,1068,-0.6850845739779736,-0.7,0.0,1.0,356.0,824.0,1.0,0,600.0,1
1069,1069,-0.39968900855606804,-0.4,0.0,1.0,429.0,570.0,1.0,0,541.0,1
1070,1070,-0.0013744090368018602,-0.0,1.0,0.0,440.0,609.0,0.0,0,391.0,1
1071,1071,-0.5148078256401204,-0.5,1.0,0.0,311.0,589.0,0.0,0,20.0,1
1072,1072,0.5824019256286691,0.6,1.0,1.0,293.0,861.0,1.0,1,376.0,1
1073,1073,0.7925541925230392,0.8,0.0,0.0,330.0,785.0,0.0,1,235.0,1
1074,1074,-0.29210424842483407,-0.3,1.0,0.0,399.0,844.0,0.0,0,447.0,1
1075,1075,0.7462809779780327,0.7,0.0,0.0,391.0,899.0,0.0,1,320.0,1
1076,1076,-0.42961135388995847,-0.4,0.0,1.0,324.0,511.0,1.0,0,425.0,1
1077,1077,-0.6120982660330322,-0.6,1.0,0.0,280.0,905.0,0.0,0,105.0,1
1078,1078,-0.8302161960385624,-0.8,0.0,1.0,486.0,751.0,1.0,0,373.0,1
1079,1079,0.08000095274939645,0.1,1.0,1.0,387.0,634.0,1.0,1,579.0,1
1080,1080,-0.03628910664757845,-0.0,1.0,0.0,417.0,738.0,0.0,0,985.0,1
1081,1081,-0.6299455101886589,-0.6,1.0,0.0,315.0,914.0,0.0,0,621.0,1
1082,1082,0.012603730842983385,0.0,1.0,1.0,363.0,752.0,0.0,0,455.0,0
1083,1083,0.039532301342000364,0.0,0.0,0.0,259.0,892.0,0.0,1,1279.0,1
1084,1084,0.7976545481009417,0.8,0.0,0.0,453.0,823.0,0.0,1,124.0,1
1085,1085,0.702663579704426,0.7,0.0,0.0,263.0,532.0,0.0,1,365.0,1
1086,1086,0.3061946679069475,0.3,0.0,0.0,324.0,581.0,0.0,1,645.0,1
1087,1087,0.4530116057159034,0.5,0.0,0.0,493.0,730.0,0.0,1,757.0,1
1088,1088,-0.263834501490012,-0.3,0.0,1.0,476.0,541.0,1.0,0,1193.0,1
1089,1089,-0.8537673348586026,-0.9,0.0,1.0,477.0,530.0,1.0,0,173.0,1
1090,1090,-0.16942164838026763,-0.2,1.0,0.0,464.0,546.0,0.0,0,1370.0,1
1091,1091,-0.5520509046655832,-0.6,1.0,0.0,286.0,845.0,0.0,0,-61.0,1
1092,1092,-0.264061619525788,-0.3,0.0,1.0,258.0,878.0,1.0,0,894.0,1
1093,1093,-0.5668781554140689,-0.6,1.0,0.0,463.0,715.0,0.0,0,352.0,1
1094,1094,0.596027327154555,0.6,1.0,1.0,476.0,713.0,0.0,0,-229.0,0
1095,1095,0.31181447459121603,0.3,1.0,1.0,455.0,968.0,1.0,1,367.0,1
1096,1096,-0.6660733667558736,-0.7,0.0,1.0,282.0,848.0,1.0,0,440.0,1
1097,1097,-0.8600881040207677,-0.9,0.0,1.0,357.0,837.0,1.0,0,236.0,1
1098,1098,0.23688789308655334,0.2,1.0,1.0,400.0,947.0,1.0,1,-577.0,1
1099,1099,0.19026620676365213,0.2,0.0,0.0,272.0,890.0,0.0,1,78.0,1
1100,1100,-0.05495206365043381,-0.1,1.0,0.0,296.0,688.0,0.0,0,206.0,1
1101,1101,-0.34774595867191804,-0.3,1.0,0.0,424.0,805.0,0.0,0,361.0,1
1102,1102,-0.25679457951520923,-0.3,0.0,1.0,493.0,983.0,0.0,1,-36.0,0
1103,1103,-0.4617606892177044,-0.5,0.0,1.0,358.0,606.0,1.0,0,756.0,1
1104,1104,-0.5955926941345596,-0.6,0.0,1.0,285.0,976.0,0.0,1,-331.0,0
1105,1105,-0.8405049762985461,-0.8,0.0,1.0,492.0,981.0,0.0,1,-983.0,0
1106,1106,-0.6200880784228426,-0.6,1.0,0.0,401.0,887.0,1.0,1,-148.0,0
1107,1107,-0.31970230853779347,-0.3,1.0,0.0,498.0,514.0,0.0,0,618.0,1
1108,1108,0.26777757988077566,0.3,1.0,1.0,301.0,530.0,1.0,1,439.0,1
1109,1109,-0.39515829578079686,-0.4,1.0,0.0,347.0,708.0,0.0,0,115.0,1
1110,1110,0.2346680356515568,0.2,0.0,0.0,493.0,752.0,0.0,1,1005.0,1
1111,1111,0.05945520864507181,0.1,0.0,0.0,473.0,878.0,0.0,1,-161.0,1
1112,1112,0.14234842552084548,0.1,0.0,0.0,350.0,543.0,0.0,1,667.0,1
1113,1113,-0.893578745980115,-0.9,0.0,1.0,286.0,693.0,1.0,0,211.0,1
1114,1114,0.20691297125571018,0.2,0.0,0.0,429.0,828.0,0.0,1,353.0,1
1115,1115,0.7153434789597225,0.7,1.0,1.0,437.0,994.0,0.0,0,-381.0,0
1116,1116,-0.5455796420550341,-0.5,0.0,1.0,311.0,714.0,1.0,0,775.0,1
1117,1117,-0.21150748385182672,-0.2,0.0,1.0,361.0,725.0,1.0,0,1674.0,1
1118,1118,0.319683055693481,0.3,0.0,0.0,299.0,974.0,0.0,1,-113.0,1
1119,1119,-0.6468018393493605,-0.6,1.0,0.0,478.0,577.0,0.0,0,455.0,1
1120,1120,0.3648600387371691,0.4,1.0,1.0,380.0,664.0,1.0,1,1166.0,1
1121,1121,-0.5877643910452264,-0.6,0.0,1.0,269.0,754.0,1.0,0,447.0,1
1122,1122,-0.3961511173701747,-0.4,1.0,0.0,465.0,871.0,0.0,0,-66.0,1
1123,1123,0.22539531185793826,0.2,0.0,0.0,423.0,527.0,0.0,1,1000.0,1
1124,1124,0.8632186812301629,0.9,1.0,1.0,428.0,618.0,1.0,1,674.0,1
1125,1125,-0.29436893886833027,-0.3,1.0,0.0,377.0,946.0,0.0,0,207.0,1
1126,1126,0.6017665492690957,0.6,0.0,0.0,434.0,736.0,0.0,1,240.0,1
1127,1127,-0.730040294671094,-0.7,1.0,0.0,457.0,932.0,0.0,0,-609.0,1
1128,1128,-0.4924549634426824,-0.5,0.0,1.0,326.0,593.0,1.0,0,571.0,1
1129,1129,-0.09215813976467924,-0.1,1.0,0.0,489.0,524.0,0.0,0,1237.0,1
1130,1130,-0.6462358065146367,-0.6,1.0,0.0,455.0,985.0,0.0,0,110.0,1
1131,1131,0.1056651090806987,0.1,0.0,0.0,448.0,553.0,0.0,1,929.0,1
1132,1132,-0.11414788736613513,-0.1,0.0,1.0,264.0,739.0,0.0,1,2587.0,0
1133,1133,0.7293888169074402,0.7,0.0,0.0,309.0,825.0,0.0,1,316.0,1
1134,1134,0.0136650952295444,0.0,0.0,0.0,297.0,923.0,0.0,1,860.0,1
1135,1135,-0.190626288593173,-0.2,0.0,1.0,285.0,714.0,0.0,1,1031.0,0
1136,1136,-0.19686954107306986,-0.2,1.0,0.0,476.0,934.0,0.0,0,230.0,1
1137,1137,0.6737252957112642,0.7,1.0,1.0,422.0,944.0,1.0,1,394.0,1
1138,1138,0.6449357982011698,0.6,1.0,1.0,393.0,578.0,1.0,1,549.0,1
1139,1139,0.38148635765764294,0.4,0.0,0.0,261.0,597.0,0.0,1,412.0,1
1140,1140,0.14546191040773404,0.1,1.0,1.0,287.0,954.0,0.0,0,809.0,0
1141,1141,0.36905911241659195,0.4,1.0,1.0,362.0,802.0,1.0,1,466.0,1
1142,1142,-0.47330730153777256,-0.5,1.0,0.0,279.0,758.0,1.0,1,-587.0,0
1143,1143,0.694554598034043,0.7,0.0,0.0,309.0,771.0,0.0,1,280.0,1
1144,1144,-0.04302632476465307,-0.0,0.0,1.0,363.0,695.0,1.0,0,1102.0,1
1145,1145,0.7803118903489369,0.8,1.0,1.0,392.0,926.0,1.0,1,322.0,1
1146,1146,-0.374582656887404,-0.4,1.0,0.0,325.0,633.0,0.0,0,622.0,1
1147,1147,0.023598522067928784,0.0,1.0,1.0,496.0,581.0,0.0,0,653.0,0
1148,1148,0.40074302498782977,0.4,0.0,0.0,442.0,521.0,0.0,1,657.0,1
1149,1149,-0.08108812879176208,-0.1,1.0,0.0,401.0,971.0,0.0,0,-432.0,1
1150,1150,0.7672593577598997,0.8,1.0,1.0,438.0,565.0,1.0,1,277.0,1
1151,1151,0.486285442582019,0.5,1.0,1.0,488.0,771.0,1.0,1,181.0,1
1152,1152,0.2707244109910941,0.3,0.0,0.0,346.0,867.0,0.0,1,197.0,1
1153,1153,0.6910214257931727,0.7,1.0,1.0,316.0,738.0,1.0,1,-84.0,1
1154,1154,0.1473915358246688,0.1,1.0,1.0,481.0,689.0,1.0,1,-320.0,1
1155,1155,0.0834900754677107,0.1,1.0,1.0,367.0,834.0,0.0,0,949.0,0
1156,1156,0.4834814058155844,0.5,0.0,0.0,466.0,825.0,0.0,1,199.0,1
1157,1157,-0.21753177549364133,-0.2,0.0,1.0,490.0,800.0,0.0,1,-180.0,0
1158,1158,-0.5302155277487997,-0.5,0.0,1.0,424.0,580.0,1.0,0,756.0,1
1159,1159,-0.05510894339145489,-0.1,0.0,1.0,366.0,872.0,0.0,1,1032.0,0
1160,1160,-0.09742244730004479,-0.1,1.0,0.0,496.0,832.0,0.0,0,-228.0,1
1161,1161,0.6568326419780123,0.7,0.0,0.0,430.0,837.0,0.0,1,243.0,1
1162,1162,-0.3513449096130259,-0.4,1.0,0.0,436.0,525.0,0.0,0,1099.0,1
1163,1163,-0.4725758682060335,-0.5,0.0,1.0,351.0,710.0,1.0,0,1879.0,1
1164,1164,-0.26354850011340103,-0.3,0.0,1.0,265.0,603.0,1.0,0,892.0,1
1165,1165,0.811159508484775,0.8,1.0,1.0,454.0,607.0,1.0,1,149.0,1
1166,1166,-0.2665640549522704,-0.3,1.0,0.0,270.0,752.0,0.0,0,-342.0,1
1167,1167,0.5759827100329654,0.6,1.0,1.0,352.0,806.0,1.0,1,842.0,1
1168,1168,-0.4777131104420942,-0.5,1.0,0.0,456.0,626.0,0.0,0,628.0,1
1169,1169,0.3635087904543334,0.4,0.0,0.0,427.0,891.0,0.0,1,342.0,1
1170,1170,0.448007436866818,0.4,1.0,1.0,262.0,997.0,1.0,1,621.0,1
1171,1171,-0.3613591364016999,-0.4,1.0,0.0,253.0,901.0,1.0,1,-54.0,0
1172,1172,-0.005088675195878967,-0.0,1.0,0.0,427.0,501.0,0.0,0,-348.0,1
1173,1173,-0.5396465488937626,-0.5,1.0,0.0,325.0,816.0,0.0,0,139.0,1
1174,1174,-0.06331020436685408,-0.1,1.0,0.0,333.0,798.0,1.0,1,-1.0,0
1175,1175,-0.1844751540011773,-0.2,1.0,0.0,274.0,858.0,0.0,0,928.0,1
1176,1176,0.5251174538091353,0.5,0.0,0.0,384.0,885.0,0.0,1,-339.0,1
1177,1177,0.01527424665139765,0.0,1.0,1.0,370.0,594.0,0.0,0,976.0,0
1178,1178,-0.5292742385109699,-0.5,0.0,1.0,384.0,989.0,1.0,0,207.0,1
1179,1179,0.21824747374618536,0.2,1.0,1.0,485.0,679.0,0.0,0,56.0,0
1180,1180,0.4712423176747079,0.5,1.0,1.0,411.0,932.0,0.0,0,-323.0,0
1181,1181,0.47724621681327906,0.5,0.0,0.0,434.0,730.0,0.0,1,36.0,1
1182,1182,0.6346657595091946,0.6,1.0,1.0,302.0,673.0,1.0,1,305.0,1
1183,1183,0.6028467639762908,0.6,0.0,0.0,497.0,539.0,0.0,1,384.0,1
1184,1184,0.7509078753129627,0.8,1.0,1.0,269.0,700.0,0.0,0,-109.0,0
1185,1185,0.0843940669799671,0.1,1.0,1.0,473.0,872.0,0.0,0,995.0,0
1186,1186,-0.614385111787141,-0.6,1.0,0.0,304.0,745.0,0.0,0,121.0,1
1187,1187,-0.5189529576675449,-0.5,0.0,1.0,445.0,501.0,1.0,0,254.0,1
1188,1188,-0.4520640267663715,-0.5,0.0,1.0,463.0,626.0,1.0,0,521.0,1
1189,1189,0.2025941894398714,0.2,1.0,1.0,303.0,595.0,0.0,0,-138.0,0
1190,1190,-0.624368626452594,-0.6,1.0,0.0,385.0,555.0,0.0,0,210.0,1
1191,1191,0.8338917759287258,0.8,0.0,0.0,443.0,521.0,0.0,1,556.0,1
1192,1192,-0.7796845142204454,-0.8,1.0,0.0,409.0,684.0,0.0,0,137.0,1
1193,1193,0.5915666411054984,0.6,0.0,0.0,282.0,980.0,0.0,1,78.0,1
1194,1194,-0.3148200988124845,-0.3,0.0,1.0,317.0,756.0,1.0,0,1087.0,1
1195,1195,0.3093970109613967,0.3,1.0,1.0,313.0,890.0,1.0,1,107.0,1
1196,1196,0.7814694779213082,0.8,0.0,0.0,457.0,901.0,0.0,1,132.0,1
1197,1197,0.1074129497553441,0.1,1.0,1.0,264.0,908.0,0.0,0,668.0,0
1198,1198,0.34189614809436397,0.3,1.0,1.0,484.0,648.0,1.0,1,338.0,1
1199,1199,0.7898096830013553,0.8,0.0,0.0,309.0,826.0,0.0,1,225.0,1
1200,1200,0.009938481480475603,0.0,0.0,0.0,262.0,807.0,0.0,1,3931.0,1
1201,1201,-0.5968830897400235,-0.6,1.0,0.0,316.0,588.0,0.0,0,126.0,1
1202,1202,-0.09960699280969831,-0.1,0.0,1.0,346.0,736.0,1.0,0,488.0,1
1203,1203,-0.5416666017326492,-0.5,1.0,0.0,371.0,863.0,0.0,0,596.0,1
1204,1204,0.42739327617114664,0.4,1.0,1.0,297.0,647.0,1.0,1,1096.0,1
1205,1205,-0.7635705300160229,-0.8,0.0,1.0,413.0,857.0,1.0,0,410.0,1
1206,1206,0.5508399599581352,0.6,1.0,1.0,404.0,978.0,1.0,1,218.0,1
1207,1207,0.6162749427816802,0.6,0.0,0.0,460.0,961.0,1.0,0,-151.0,0
1208,1208,-0.6941717472490215,-0.7,0.0,1.0,437.0,780.0,1.0,0,513.0,1
1209,1209,-0.4216363367135107,-0.4,0.0,1.0,369.0,895.0,1.0,0,1106.0,1
1210,1210,0.30605464329409016,0.3,1.0,1.0,460.0,822.0,1.0,1,498.0,1
1211,1211,0.07754981896136492,0.1,1.0,1.0,342.0,948.0,0.0,0,-400.0,0
1212,1212,0.5514079711275951,0.6,1.0,1.0,464.0,832.0,1.0,1,344.0,1
1213,1213,-0.053009305208933655,-0.1,0.0,1.0,353.0,950.0,1.0,0,3697.0,1
1214,1214,0.5262344902873052,0.5,1.0,1.0,399.0,509.0,1.0,1,1052.0,1
1215,1215,-0.662477108108844,-0.7,1.0,0.0,329.0,692.0,0.0,0,239.0,1
1216,1216,0.039639247504002606,0.0,0.0,0.0,372.0,525.0,0.0,1,1213.0,1
1217,1217,0.37082941231188904,0.4,0.0,0.0,378.0,906.0,0.0,1,436.0,1
1218,1218,0.17190967420874304,0.2,1.0,1.0,442.0,866.0,0.0,0,12.0,0
1219,1219,0.5739456711751326,0.6,0.0,0.0,397.0,657.0,0.0,1,316.0,1
1220,1220,0.3591352226386145,0.4,0.0,0.0,344.0,644.0,0.0,1,42.0,1
1221,1221,0.04903263847091399,0.0,0.0,0.0,380.0,885.0,0.0,1,345.0,1
1222,1222,-0.24676058775185705,-0.2,0.0,1.0,378.0,560.0,1.0,0,692.0,1
1223,1223,-0.1893325103173843,-0.2,1.0,0.0,309.0,805.0,0.0,0,826.0,1
1224,1224,-0.5528949323835604,-0.6,0.0,1.0,295.0,875.0,0.0,1,-50.0,0
1225,1225,-0.2197809188600608,-0.2,0.0,1.0,472.0,754.0,0.0,1,894.0,0
1226,1226,-0.5940853266057864,-0.6,1.0,0.0,456.0,717.0,0.0,0,427.0,1
1227,1227,-0.1646435205540725,-0.2,0.0,1.0,277.0,569.0,1.0,0,1214.0,1
1228,1228,-0.39670930644183633,-0.4,1.0,0.0,255.0,662.0,0.0,0,1363.0,1
1229,1229,0.6245971751160432,0.6,1.0,1.0,494.0,615.0,1.0,1,311.0,1
1230,1230,-0.7130203091076308,-0.7,0.0,1.0,456.0,903.0,1.0,0,481.0,1
1231,1231,0.8349205638028266,0.8,0.0,0.0,251.0,666.0,0.0,1,373.0,1
1232,1232,0.3170611925030332,0.3,1.0,1.0,402.0,563.0,1.0,1,535.0,1
1233,1233,-0.6738653255383962,-0.7,1.0,0.0,454.0,778.0,0.0,0,408.0,1
1234,1234,0.8676592676266025,0.9,1.0,1.0,410.0,607.0,1.0,1,513.0,1
1235,1235,0.7093858311948594,0.7,1.0,1.0,278.0,982.0,0.0,0,-530.0,0
1236,1236,0.26643787640135697,0.3,0.0,0.0,465.0,704.0,0.0,1,731.0,1
1237,1237,-0.8086441422783561,-0.8,1.0,0.0,408.0,799.0,0.0,0,-77.0,1
1238,1238,0.2714463830331858,0.3,0.0,0.0,423.0,515.0,0.0,1,932.0,1
1239,1239,-0.11521988901817326,-0.1,0.0,1.0,481.0,729.0,0.0,1,630.0,0
1240,1240,0.1727291627594546,0.2,1.0,1.0,312.0,823.0,0.0,0,-585.0,0
1241,1241,-0.34470311294801037,-0.3,1.0,0.0,356.0,909.0,0.0,0,-255.0,1
1242,1242,-0.2361803083473949,-0.2,0.0,1.0,365.0,750.0,1.0,0,3885.0,1
1243,1243,0.5471237639139727,0.5,1.0,1.0,447.0,583.0,1.0,1,1100.0,1
1244,1244,-0.1694867002847057,-0.2,0.0,1.0,349.0,732.0,0.0,1,3719.0,0
1245,1245,-0.7325347319794917,-0.7,1.0,0.0,310.0,618.0,0.0,0,172.0,1
1246,1246,0.590299052762279,0.6,0.0,0.0,351.0,570.0,0.0,1,249.0,1
1247,1247,0.4570399398561352,0.5,1.0,1.0,464.0,768.0,1.0,1,248.0,1
1248,1248,0.18734590560523523,0.2,0.0,0.0,478.0,926.0,0.0,1,1316.0,1
1249,1249,-0.7929213967450216,-0.8,1.0,0.0,336.0,548.0,0.0,0,166.0,1
1250,1250,0.6730315293752035,0.7,0.0,0.0,424.0,803.0,0.0,1,223.0,1
1251,1251,-0.27307729677560955,-0.3,1.0,0.0,463.0,710.0,0.0,0,427.0,1
1252,1252,-0.5451933092503175,-0.5,0.0,1.0,394.0,915.0,1.0,0,1201.0,1
1253,1253,0.5896840329107477,0.6,1.0,1.0,475.0,605.0,1.0,1,950.0,1
1254,1254,-0.48141720207218436,-0.5,0.0,1.0,332.0,895.0,1.0,0,3503.0,1
1255,1255,-0.4289910873815079,-0.4,0.0,1.0,376.0,774.0,0.0,1,2830.0,0
1256,1256,-0.6820186130710214,-0.7,0.0,1.0,429.0,711.0,1.0,0,670.0,1
1257,1257,-0.8721022423631998,-0.9,1.0,0.0,288.0,615.0,0.0,0,407.0,1
1258,1258,0.13199817372974854,0.1,0.0,0.0,414.0,627.0,0.0,1,669.0,1
1259,1259,-0.8957629371450899,-0.9,0.0,1.0,342.0,956.0,1.0,0,512.0,1
1260,1260,-0.646255091189452,-0.6,0.0,1.0,390.0,611.0,0.0,1,-211.0,0
1261,1261,0.03849634471588659,0.0,0.0,0.0,289.0,635.0,0.0,1,1226.0,1
1262,1262,-0.7793202927670592,-0.8,0.0,1.0,406.0,960.0,1.0,0,-66.0,1
1263,1263,0.003567085638057077,0.0,0.0,0.0,386.0,925.0,0.0,1,1549.0,1
1264,1264,-0.5489825704075588,-0.5,0.0,1.0,403.0,747.0,1.0,0,1170.0,1
1265,1265,-0.40844230611964416,-0.4,0.0,1.0,340.0,919.0,0.0,1,231.0,0
1266,1266,0.7894607458836244,0.8,1.0,1.0,335.0,539.0,1.0,1,1036.0,1
1267,1267,0.7129095568342151,0.7,1.0,1.0,286.0,898.0,1.0,1,-144.0,1
1268,1268,0.5790479256034885,0.6,0.0,0.0,360.0,837.0,0.0,1,43.0,1
1269,1269,0.34542580325988015,0.3,1.0,1.0,461.0,589.0,1.0,1,1880.0,1
1270,1270,-0.41089975673020174,-0.4,1.0,0.0,450.0,669.0,0.0,0,531.0,1
1271,1271,-0.2822646863406032,-0.3,0.0,1.0,329.0,658.0,1.0,0,2123.0,1
1272,1272,-0.8858443037610092,-0.9,1.0,0.0,329.0,881.0,0.0,0,420.0,1
1273,1273,0.6155661775664546,0.6,0.0,0.0,452.0,698.0,0.0,1,310.0,1
1274,1274,0.38164786128319494,0.4,1.0,1.0,400.0,587.0,1.0,1,593.0,1
1275,1275,0.7876113267529338,0.8,1.0,1.0,484.0,812.0,1.0,1,-296.0,1
1276,1276,0.8207303834203187,0.8,0.0,0.0,325.0,934.0,0.0,1,181.0,1
1277,1277,0.7839851263764276,0.8,0.0,0.0,337.0,793.0,0.0,1,-190.0,1
1278,1278,0.07545976980864733,0.1,1.0,1.0,379.0,653.0,0.0,0,-72.0,0
1279,1279,0.11294864380576353,0.1,0.0,0.0,366.0,610.0,0.0,1,494.0,1
1280,1280,-0.13096389417133925,-0.1,0.0,1.0,475.0,692.0,1.0,0,2813.0,1
1281,1281,-0.5457436312106008,-0.5,1.0,0.0,353.0,670.0,0.0,0,207.0,1
1282,1282,0.8333802478990594,0.8,0.0,0.0,448.0,522.0,0.0,1,420.0,1
1283,1283,-0.08380347828258061,-0.1,1.0,0.0,444.0,653.0,0.0,0,433.0,1
1284,1284,-0.37240775009624416,-0.4,1.0,0.0,326.0,652.0,1.0,1,-198.0,0
1285,1285,0.4276338993901193,0.4,1.0,1.0,299.0,878.0,0.0,0,-147.0,0
1286,1286,-0.39060780844243903,-0.4,0.0,1.0,441.0,769.0,1.0,0,1960.0,1
1287,1287,0.8651725595277563,0.9,1.0,1.0,407.0,528.0,1.0,1,505.0,1
1288,1288,-0.03145993468419206,-0.0,0.0,1.0,484.0,793.0,0.0,1,323.0,0
1289,1289,0.10487820294734995,0.1,1.0,1.0,421.0,911.0,1.0,1,598.0,1
1290,1290,-0.6895504299890918,-0.7,1.0,0.0,300.0,842.0,0.0,0,478.0,1
1291,1291,-0.36868971891601976,-0.4,1.0,0.0,319.0,595.0,0.0,0,666.0,1
1292,1292,0.47869326204269125,0.5,1.0,1.0,306.0,502.0,1.0,1,482.0,1
1293,1293,0.21673138915972923,0.2,0.0,0.0,440.0,752.0,0.0,1,318.0,1
1294,1294,-0.6205511807087511,-0.6,1.0,0.0,457.0,848.0,1.0,1,-315.0,0
1295,1295,0.27662940505727185,0.3,1.0,1.0,457.0,735.0,0.0,0,-242.0,0
1296,1296,0.02258735814620938,0.0,1.0,1.0,481.0,684.0,0.0,0,-325.0,0
1297,1297,-0.4924320315284147,-0.5,0.0,1.0,320.0,725.0,1.0,0,1265.0,1
1298,1298,0.19462550486909513,0.2,0.0,0.0,475.0,596.0,0.0,1,1029.0,1
1299,1299,-0.14482318563527952,-0.1,1.0,0.0,262.0,953.0,0.0,0,575.0,1
1300,1300,0.401938044263603,0.4,1.0,1.0,387.0,939.0,1.0,1,524.0,1
1301,1301,0.5558350970893505,0.6,0.0,0.0,354.0,774.0,0.0,1,402.0,1
1302,1302,0.35353491594682473,0.4,0.0,0.0,368.0,858.0,0.0,1,224.0,1
1303,1303,0.4661190259241087,0.5,1.0,1.0,419.0,651.0,0.0,0,-100.0,0
1304,1304,0.8518779167122653,0.9,0.0,0.0,380.0,679.0,0.0,1,101.0,1
1305,1305,-0.0033474637424559806,-0.0,0.0,1.0,394.0,765.0,0.0,1,481.0,0
1306,1306,-0.3171895928655829,-0.3,1.0,0.0,441.0,831.0,0.0,0,48.0,1
1307,1307,-0.8308122468661421,-0.8,1.0,0.0,311.0,530.0,0.0,0,259.0,1
1308,1308,-0.5899525280789062,-0.6,1.0,0.0,402.0,535.0,0.0,0,523.0,1
1309,1309,-0.37220800846352964,-0.4,1.0,0.0,471.0,726.0,0.0,0,1473.0,1
1310,1310,0.28337605685402967,0.3,1.0,1.0,393.0,502.0,1.0,1,185.0,1
1311,1311,-0.8340821467321906,-0.8,1.0,0.0,264.0,702.0,0.0,0,-16.0,1
1312,1312,0.26803195235227706,0.3,0.0,0.0,467.0,730.0,0.0,1,703.0,1
1313,1313,0.6173987470103371,0.6,0.0,0.0,358.0,892.0,0.0,1,-190.0,1
1314,1314,-0.10131623531381928,-0.1,1.0,0.0,262.0,986.0,1.0,1,-388.0,0
1315,1315,-0.6601915091439468,-0.7,1.0,0.0,451.0,602.0,0.0,0,-413.0,1
1316,1316,-0.01317601131838364,-0.0,1.0,0.0,448.0,677.0,0.0,0,1555.0,1
1317,1317,0.04146952159266337,0.0,1.0,1.0,457.0,988.0,0.0,0,-325.0,0
1318,1318,0.27304982718422,0.3,1.0,1.0,317.0,636.0,1.0,1,1347.0,1
1319,1319,-0.4932279797193203,-0.5,1.0,0.0,300.0,765.0,0.0,0,685.0,1
1320,1320,-0.6649711130277853,-0.7,1.0,0.0,360.0,849.0,0.0,0,411.0,1
1321,1321,0.37186033022036946,0.4,1.0,1.0,468.0,738.0,1.0,1,714.0,1
1322,1322,-0.8229281111555833,-0.8,1.0,0.0,353.0,509.0,0.0,0,-72.0,1
1323,1323,-0.007260113117574685,-0.0,0.0,1.0,311.0,959.0,0.0,1,770.0,0
1324,1324,0.0951645109410374,0.1,1.0,1.0,411.0,745.0,0.0,0,354.0,0
1325,1325,0.7137737795474323,0.7,1.0,1.0,295.0,633.0,1.0,1,222.0,1
1326,1326,0.8790140977208135,0.9,1.0,1.0,431.0,889.0,1.0,1,390.0,1
1327,1327,0.5873956443592753,0.6,0.0,0.0,259.0,655.0,0.0,1,86.0,1
1328,1328,0.8110641053484459,0.8,0.0,0.0,280.0,733.0,0.0,1,417.0,1
1329,1329,-0.4567406432379897,-0.5,0.0,1.0,376.0,968.0,1.0,0,1466.0,1
1330,1330,0.7985638151023876,0.8,0.0,0.0,450.0,633.0,0.0,1,647.0,1
1331,1331,0.8389471138925336,0.8,0.0,0.0,493.0,538.0,0.0,1,289.0,1
1332,1332,0.22375450404006958,0.2,1.0,1.0,427.0,902.0,0.0,0,1231.0,0
1333,1333,0.2518274589280757,0.3,1.0,1.0,414.0,725.0,0.0,0,221.0,0
1334,1334,0.8485266716474423,0.8,0.0,0.0,446.0,842.0,0.0,1,42.0,1
1335,1335,0.4633485093763955,0.5,1.0,1.0,453.0,622.0,1.0,1,655.0,1
1336,1336,0.0344692663068773,0.0,1.0,1.0,290.0,746.0,0.0,0,834.0,0
1337,1337,0.13768624777453453,0.1,0.0,0.0,289.0,999.0,0.0,1,92.0,1
1338,1338,0.8359386445468683,0.8,0.0,0.0,428.0,996.0,0.0,1,-54.0,1
1339,1339,-0.06363576463267895,-0.1,1.0,0.0,401.0,786.0,0.0,0,883.0,1
1340,1340,0.8830602754285465,0.9,0.0,0.0,405.0,633.0,0.0,1,152.0,1
1341,1341,-0.06194123919308525,-0.1,1.0,0.0,328.0,565.0,0.0,0,687.0,1
1342,1342,0.10018478041007473,0.1,1.0,1.0,425.0,947.0,0.0,0,1928.0,0
1343,1343,-0.14860881464424036,-0.1,1.0,0.0,318.0,798.0,0.0,0,144.0,1
1344,1344,0.6338617942583841,0.6,0.0,0.0,344.0,568.0,0.0,1,538.0,1
1345,1345,0.27490708717023893,0.3,0.0,0.0,421.0,826.0,0.0,1,-57.0,1
1346,1346,-0.6167496621910245,-0.6,1.0,0.0,388.0,600.0,0.0,0,-28.0,1
1347,1347,0.5701612359235341,0.6,1.0,1.0,330.0,820.0,1.0,1,720.0,1
1348,1348,0.4887554445454406,0.5,0.0,0.0,327.0,831.0,0.0,1,452.0,1
1349,1349,0.3270817265831468,0.3,1.0,1.0,462.0,868.0,1.0,1,340.0,1
1350,1350,-0.07399369636535791,-0.1,1.0,0.0,287.0,776.0,0.0,0,-123.0,1
1351,1351,-0.7509929337175805,-0.8,0.0,1.0,490.0,903.0,1.0,0,987.0,1
1352,1352,-0.47397617113940166,-0.5,1.0,0.0,452.0,536.0,0.0,0,392.0,1
1353,1353,-0.18021488474761016,-0.2,1.0,0.0,298.0,565.0,0.0,0,687.0,1
1354,1354,0.28177098029273917,0.3,1.0,1.0,443.0,998.0,0.0,0,-311.0,0
1355,1355,0.7775549116892834,0.8,0.0,0.0,448.0,763.0,0.0,1,139.0,1
1356,1356,-0.8719994032606985,-0.9,1.0,0.0,313.0,957.0,0.0,0,220.0,1
1357,1357,-0.836137607888048,-0.8,0.0,1.0,381.0,881.0,1.0,0,398.0,1
1358,1358,0.8752824514220262,0.9,1.0,1.0,459.0,602.0,1.0,1,79.0,1
1359,1359,-0.5769626958712221,-0.6,0.0,1.0,365.0,501.0,1.0,0,864.0,1
1360,1360,-0.37654641175533865,-0.4,1.0,0.0,285.0,562.0,0.0,0,143.0,1
1361,1361,-0.43387494678351785,-0.4,0.0,1.0,261.0,745.0,1.0,0,164.0,1
1362,1362,-0.5917994604260118,-0.6,0.0,1.0,327.0,836.0,0.0,1,-363.0,0
1363,1363,0.03507198198582295,0.0,0.0,0.0,458.0,777.0,0.0,1,2365.0,1
1364,1364,-0.25205790509847115,-0.3,1.0,0.0,415.0,537.0,0.0,0,388.0,1
1365,1365,0.8526378465032646,0.9,1.0,1.0,347.0,635.0,1.0,1,318.0,1
1366,1366,0.28357729552972655,0.3,1.0,1.0,471.0,659.0,1.0,1,570.0,1
1367,1367,-0.08437307509602976,-0.1,1.0,0.0,319.0,693.0,0.0,0,198.0,1
1368,1368,0.6209931082162855,0.6,0.0,0.0,343.0,659.0,0.0,1,228.0,1
1369,1369,-0.5531489763825408,-0.6,1.0,0.0,372.0,780.0,1.0,1,-152.0,0
1370,1370,0.1730034147491354,0.2,1.0,1.0,357.0,658.0,1.0,1,2885.0,1
1371,1371,-0.29039974604479335,-0.3,1.0,0.0,274.0,710.0,0.0,0,-104.0,1
1372,1372,-0.1604847702662886,-0.2,1.0,0.0,310.0,808.0,0.0,0,82.0,1
1373,1373,0.5926154933690438,0.6,0.0,0.0,358.0,588.0,0.0,1,204.0,1
1374,1374,-0.16592359027454728,-0.2,0.0,1.0,438.0,740.0,0.0,1,3822.0,0
1375,1375,0.4391118599310978,0.4,1.0,1.0,372.0,762.0,1.0,1,216.0,1
1376,1376,-0.31433074098640557,-0.3,1.0,0.0,382.0,932.0,0.0,0,-314.0,1
1377,1377,-0.27207848582395877,-0.3,0.0,1.0,377.0,771.0,0.0,1,1232.0,0
1378,1378,-0.3984947572481663,-0.4,1.0,0.0,396.0,951.0,1.0,1,-237.0,0
1379,1379,0.41643166393494113,0.4,0.0,0.0,344.0,564.0,0.0,1,582.0,1
1380,1380,0.8351564675076671,0.8,1.0,1.0,457.0,670.0,1.0,1,523.0,1
1381,1381,0.5529607082013527,0.6,1.0,1.0,439.0,638.0,1.0,1,383.0,1
1382,1382,0.1204600180762384,0.1,1.0,1.0,364.0,738.0,0.0,0,128.0,0
1383,1383,0.1355925045791092,0.1,1.0,1.0,449.0,793.0,0.0,0,558.0,0
1384,1384,0.669837765818509,0.7,0.0,0.0,351.0,983.0,0.0,1,26.0,1
1385,1385,0.8162467133547203,0.8,0.0,0.0,403.0,792.0,0.0,1,315.0,1
1386,1386,0.8913622680474046,0.9,0.0,0.0,476.0,513.0,0.0,1,321.0,1
1387,1387,0.668925915241288,0.7,0.0,0.0,405.0,927.0,0.0,1,248.0,1
1388,1388,0.29606562957514637,0.3,1.0,1.0,319.0,793.0,0.0,0,1008.0,0
1389,1389,0.6603873836005402,0.7,1.0,1.0,414.0,544.0,1.0,1,442.0,1
1390,1390,-0.7720489829806618,-0.8,1.0,0.0,381.0,989.0,0.0,0,110.0,1
1391,1391,0.4112840695075951,0.4,0.0,0.0,275.0,815.0,0.0,1,60.0,1
1392,1392,-0.6602447276782539,-0.7,1.0,0.0,359.0,960.0,0.0,0,-409.0,1
1393,1393,0.30906783144915295,0.3,0.0,0.0,292.0,992.0,0.0,1,166.0,1
1394,1394,-0.7232984757864491,-0.7,0.0,1.0,390.0,807.0,0.0,1,-57.0,0
1395,1395,-0.5600492298550773,-0.6,1.0,0.0,380.0,883.0,0.0,0,27.0,1
1396,1396,-0.7504422092415931,-0.8,1.0,0.0,273.0,750.0,0.0,0,217.0,1
1397,1397,0.18032119521183565,0.2,1.0,1.0,428.0,710.0,0.0,0,-208.0,0
1398,1398,0.8887072721902077,0.9,1.0,1.0,353.0,509.0,1.0,1,908.0,1
1399,1399,0.7731986773235479,0.8,1.0,1.0,492.0,795.0,1.0,1,-167.0,1
1400,1400,0.7963213807293735,0.8,0.0,0.0,404.0,570.0,0.0,1,346.0,1
1401,1401,0.6427703795642964,0.6,0.0,0.0,475.0,655.0,0.0,1,390.0,1
1402,1402,-0.8735478103667047,-0.9,1.0,0.0,441.0,674.0,0.0,0,175.0,1
1403,1403,0.7421462775304343,0.7,1.0,1.0,355.0,701.0,1.0,1,484.0,1
1404,1404,-0.20768430000902094,-0.2,0.0,1.0,256.0,624.0,0.0,1,1870.0,0
1405,1405,0.7395857553474473,0.7,0.0,0.0,321.0,822.0,0.0,1,527.0,1
1406,1406,0.23496386689866566,0.2,0.0,0.0,300.0,517.0,0.0,1,753.0,1
1407,1407,0.5536480869148651,0.6,1.0,1.0,405.0,937.0,0.0,0,-222.0,0
1408,1408,-0.21570178150862784,-0.2,1.0,0.0,470.0,690.0,0.0,0,550.0,1
1409,1409,-0.22356729011816467,-0.2,0.0,1.0,422.0,564.0,1.0,0,1394.0,1
1410,1410,-0.4121697533281844,-0.4,0.0,1.0,251.0,772.0,0.0,1,-393.0,0
1411,1411,-0.274537412175904,-0.3,0.0,1.0,402.0,694.0,1.0,0,824.0,1
1412,1412,-0.00461420820042191,-0.0,1.0,0.0,385.0,856.0,0.0,0,1679.0,1
1413,1413,0.13378261363254673,0.1,1.0,1.0,263.0,600.0,1.0,1,537.0,1
1414,1414,-0.8932297426779364,-0.9,1.0,0.0,378.0,852.0,0.0,0,200.0,1
1415,1415,0.4493855947452364,0.4,0.0,0.0,253.0,852.0,0.0,1,-235.0,1
1416,1416,0.8175624776687839,0.8,0.0,0.0,368.0,573.0,0.0,1,169.0,1
1417,1417,-0.646691856224859,-0.6,0.0,1.0,268.0,973.0,1.0,0,209.0,1
1418,1418,-0.4866579289670926,-0.5,1.0,0.0,323.0,526.0,0.0,0,311.0,1
1419,1419,0.221010679765285,0.2,1.0,1.0,378.0,795.0,0.0,0,57.0,0
1420,1420,0.11425508925630734,0.1,0.0,0.0,429.0,693.0,0.0,1,468.0,1
1421,1421,0.4924768856681482,0.5,0.0,0.0,355.0,517.0,0.0,1,478.0,1
1422,1422,0.03549206408023664,0.0,1.0,1.0,271.0,883.0,0.0,0,946.0,0
1423,1423,0.3163471311327156,0.3,0.0,0.0,282.0,588.0,0.0,1,310.0,1
1424,1424,-0.8005397625245346,-0.8,1.0,0.0,481.0,924.0,0.0,0,-65.0,1
1425,1425,0.7561407582221883,0.8,0.0,0.0,403.0,669.0,0.0,1,528.0,1
1426,1426,-0.7191077024897132,-0.7,0.0,1.0,373.0,913.0,1.0,0,454.0,1
1427,1427,0.8450489670515943,0.8,0.0,0.0,432.0,753.0,0.0,1,255.0,1
1428,1428,0.8112044604435379,0.8,1.0,1.0,347.0,751.0,1.0,1,42.0,1
1429,1429,0.20109045880555898,0.2,0.0,0.0,298.0,672.0,0.0,1,1250.0,1
1430,1430,0.8557631011967891,0.9,1.0,1.0,481.0,662.0,0.0,0,-363.0,0
1431,1431,-0.5640902668423177,-0.6,0.0,1.0,446.0,809.0,1.0,0,565.0,1
1432,1432,0.2540093430236655,0.3,1.0,1.0,346.0,504.0,1.0,1,720.0,1
1433,1433,0.08745196515579945,0.1,0.0,0.0,352.0,860.0,0.0,1,408.0,1
1434,1434,0.20993045543711453,0.2,1.0,1.0,390.0,974.0,0.0,0,366.0,0
1435,1435,0.16866255029186206,0.2,0.0,0.0,499.0,759.0,0.0,1,872.0,1
1436,1436,-0.4374173527048297,-0.4,1.0,0.0,277.0,901.0,0.0,0,-118.0,1
1437,1437,-0.22454761435428772,-0.2,1.0,0.0,431.0,579.0,0.0,0,2910.0,1
1438,1438,0.7610980873911005,0.8,1.0,1.0,422.0,574.0,1.0,1,544.0,1
1439,1439,-0.6337621495542813,-0.6,0.0,1.0,383.0,747.0,1.0,0,700.0,1
1440,1440,-0.6509146068834326,-0.7,0.0,1.0,330.0,643.0,1.0,0,607.0,1
1441,1441,0.1876593827634535,0.2,0.0,0.0,308.0,998.0,0.0,1,174.0,1
1442,1442,0.35986853513448736,0.4,0.0,0.0,262.0,851.0,0.0,1,387.0,1
1443,1443,-0.5572031366692588,-0.6,1.0,0.0,391.0,892.0,0.0,0,447.0,1
1444,1444,0.47682616318485416,0.5,1.0,1.0,473.0,736.0,1.0,1,651.0,1
1445,1445,-0.6433972139688555,-0.6,1.0,0.0,272.0,926.0,0.0,0,-98.0,1
1446,1446,-0.2961133595496577,-0.3,0.0,1.0,350.0,528.0,0.0,1,2282.0,0
1447,1447,-0.1736504607518422,-0.2,0.0,1.0,320.0,765.0,0.0,1,145.0,0
1448,1448,0.11061007606585227,0.1,1.0,1.0,456.0,960.0,0.0,0,-486.0,0
1449,1449,0.8178262300580658,0.8,0.0,0.0,301.0,600.0,0.0,1,339.0,1
1450,1450,0.2802856019101777,0.3,1.0,1.0,306.0,880.0,1.0,1,874.0,1
1451,1451,0.4109723637584316,0.4,0.0,0.0,381.0,702.0,0.0,1,207.0,1
1452,1452,0.7993932912198402,0.8,0.0,0.0,267.0,605.0,0.0,1,378.0,1
1453,1453,0.6555888756955907,0.7,0.0,0.0,486.0,813.0,0.0,1,161.0,1
1454,1454,0.19457925067628878,0.2,0.0,0.0,276.0,645.0,0.0,1,1719.0,1
1455,1455,0.39836460595870904,0.4,1.0,1.0,450.0,701.0,1.0,1,-221.0,1
1456,1456,-0.21730319315524516,-0.2,0.0,1.0,278.0,892.0,0.0,1,1690.0,0
1457,1457,0.09307263007517808,0.1,1.0,1.0,364.0,749.0,0.0,0,247.0,0
1458,1458,-0.7420074673661967,-0.7,1.0,0.0,282.0,691.0,0.0,0,267.0,1
1459,1459,-0.19742063948019617,-0.2,1.0,0.0,323.0,507.0,0.0,0,1030.0,1
1460,1460,-0.7068849152504635,-0.7,1.0,0.0,419.0,544.0,0.0,0,427.0,1
1461,1461,0.36784614602262466,0.4,1.0,1.0,469.0,867.0,1.0,1,64.0,1
1462,1462,0.34056901156779096,0.3,1.0,1.0,470.0,950.0,0.0,0,-390.0,0
1463,1463,0.22661502259271804,0.2,0.0,0.0,484.0,715.0,0.0,1,571.0,1
1464,1464,0.4056908391249673,0.4,1.0,1.0,426.0,775.0,1.0,1,369.0,1
1465,1465,-0.31753210040696767,-0.3,1.0,0.0,257.0,537.0,0.0,0,796.0,1
1466,1466,0.36474738261941575,0.4,1.0,1.0,283.0,672.0,1.0,1,1935.0,1
1467,1467,0.3826638238331278,0.4,1.0,1.0,345.0,872.0,1.0,1,-377.0,1
1468,1468,-0.2185379899490164,-0.2,0.0,1.0,367.0,729.0,0.0,1,3904.0,0
1469,1469,-0.532217770115682,-0.5,0.0,1.0,493.0,627.0,1.0,0,1040.0,1
1470,1470,-0.8473498249378333,-0.8,0.0,1.0,369.0,993.0,1.0,0,158.0,1
1471,1471,-0.5752414904884274,-0.6,1.0,0.0,301.0,992.0,0.0,0,-523.0,1
1472,1472,-0.6255898377770583,-0.6,1.0,0.0,481.0,737.0,0.0,0,92.0,1
1473,1473,-0.48863732329660564,-0.5,0.0,1.0,286.0,778.0,1.0,0,306.0,1
1474,1474,-0.5595139324049936,-0.6,0.0,1.0,332.0,655.0,1.0,0,-207.0,1
1475,1475,-0.5577280534251827,-0.6,1.0,0.0,435.0,526.0,0.0,0,899.0,1
1476,1476,-0.846639925326019,-0.8,1.0,0.0,331.0,669.0,0.0,0,-70.0,1
1477,1477,-0.0072276266850462845,-0.0,0.0,1.0,488.0,561.0,0.0,1,1641.0,0
1478,1478,0.22515398853397495,0.2,0.0,0.0,312.0,778.0,0.0,1,160.0,1
1479,1479,0.5644000662565579,0.6,0.0,0.0,258.0,916.0,0.0,1,116.0,1
1480,1480,0.6469007879946246,0.6,1.0,1.0,290.0,592.0,1.0,1,578.0,1
1481,1481,0.24803887827441462,0.2,1.0,1.0,261.0,739.0,0.0,0,420.0,0
1482,1482,0.27132404569799584,0.3,1.0,1.0,486.0,683.0,0.0,0,221.0,0
1483,1483,-0.31150472958410347,-0.3,1.0,0.0,455.0,702.0,0.0,0,653.0,1
1484,1484,-0.8497634511584459,-0.8,0.0,1.0,474.0,914.0,1.0,0,122.0,1
1485,1485,0.22067655437130373,0.2,1.0,1.0,321.0,816.0,0.0,0,-857.0,0
1486,1486,-0.708815234500951,-0.7,1.0,0.0,274.0,858.0,0.0,0,408.0,1
1487,1487,0.04418872676189034,0.0,0.0,0.0,488.0,963.0,0.0,1,929.0,1
1488,1488,-0.7266348691244673,-0.7,1.0,0.0,388.0,996.0,0.0,0,136.0,1
1489,1489,0.7830407302140813,0.8,1.0,1.0,262.0,762.0,1.0,1,36.0,1
