,trial,coherence,coherence_bin,green_side,correct_side,target_onset,checker_onset,decision,green_decision,decision_time,correct_decision
0,0,-0.5575476638210275,-0.6,0.0,1.0,303.0,939.0,0.0,1,1758.0,0
1,1,0.27414779348006035,0.3,1.0,1.0,436.0,529.0,0.0,0,2035.0,0
2,2,0.13638304397488443,0.1,1.0,1.0,365.0,776.0,0.0,0,1859.0,0
3,3,0.3175634190088107,0.3,1.0,1.0,319.0,878.0,0.0,0,1803.0,0
4,4,-0.6257915577345925,-0.6,1.0,0.0,498.0,939.0,0.0,0,1563.0,1
5,5,0.3286456443197968,0.3,0.0,0.0,475.0,525.0,0.0,1,2000.0,1
6,6,-0.887631742888824,-0.9,1.0,0.0,465.0,506.0,0.0,0,2029.0,1
7,7,-0.6839507258939085,-0.7,1.0,0.0,459.0,873.0,0.0,0,1668.0,1
8,8,-0.44263396562609797,-0.4,0.0,1.0,303.0,742.0,0.0,1,1955.0,0
9,9,0.12983344554471754,0.1,1.0,1.0,402.0,737.0,0.0,0,1861.0,0
10,10,-0.08965307302913572,-0.1,0.0,1.0,429.0,932.0,0.0,1,-1211.0,0
11,11,0.668032619249925,0.7,0.0,0.0,287.0,986.0,0.0,1,1727.0,1
12,12,-0.5086558908694949,-0.5,0.0,1.0,251.0,737.0,0.0,1,2012.0,0
13,13,-0.4878951646146282,-0.5,0.0,1.0,398.0,741.0,0.0,1,1861.0,0
14,14,-0.26271923423718213,-0.3,0.0,1.0,405.0,505.0,0.0,1,2090.0,0
15,15,-0.10235304828777747,-0.1,1.0,0.0,348.0,860.0,0.0,0,1792.0,1
16,16,0.16527300960098967,0.2,0.0,0.0,392.0,605.0,1.0,0,-977.0,0
17,17,-0.10511796064265144,-0.1,1.0,0.0,388.0,712.0,0.0,0,1900.0,1
18,18,-0.7546638039184791,-0.8,1.0,0.0,392.0,503.0,0.0,0,2105.0,1
19,19,-0.7807686515986207,-0.8,0.0,1.0,330.0,531.0,0.0,1,2139.0,0
20,20,-0.8273374517996381,-0.8,1.0,0.0,385.0,834.0,0.0,0,1781.0,1
21,21,0.5202345056169307,0.5,0.0,0.0,396.0,592.0,0.0,1,2012.0,1
22,22,0.7203923780017755,0.7,0.0,0.0,345.0,664.0,0.0,1,1991.0,1
23,23,0.13647635378141365,0.1,0.0,0.0,456.0,941.0,0.0,1,1603.0,1
24,24,-0.20676937001381346,-0.2,1.0,0.0,450.0,890.0,0.0,0,1660.0,1
25,25,0.21935441538544043,0.2,0.0,0.0,328.0,742.0,0.0,1,1930.0,1
26,26,0.4862585069569395,0.5,1.0,1.0,399.0,616.0,0.0,0,1985.0,0
27,27,0.47677628508542813,0.5,0.0,0.0,411.0,904.0,0.0,1,1685.0,1
28,28,-0.21441103577545095,-0.2,0.0,1.0,455.0,759.0,1.0,0,-1164.0,1
29,29,-0.5755116942436227,-0.6,0.0,1.0,295.0,607.0,0.0,1,2098.0,0
30,30,0.5371439636454124,0.5,0.0,0.0,273.0,961.0,0.0,1,1766.0,1
31,31,0.5421652690962139,0.5,0.0,0.0,454.0,579.0,0.0,1,1967.0,1
32,32,-0.32796743234701053,-0.3,0.0,1.0,477.0,848.0,0.0,1,-1325.0,0
33,33,0.8485249605397888,0.8,1.0,1.0,409.0,701.0,0.0,0,1890.0,0
34,34,0.4059231706915364,0.4,0.0,0.0,403.0,608.0,0.0,1,1989.0,1
35,35,-0.5633989965171313,-0.6,1.0,0.0,406.0,781.0,0.0,0,1813.0,1
36,36,-0.5838056613073356,-0.6,1.0,0.0,455.0,663.0,0.0,0,1882.0,1
37,37,-0.8731340607769525,-0.9,1.0,0.0,281.0,699.0,0.0,0,2020.0,1
38,38,0.3242500760016994,0.3,0.0,0.0,268.0,895.0,0.0,1,1837.0,1
39,39,0.3073624953957482,0.3,0.0,0.0,273.0,595.0,0.0,1,2132.0,1
40,40,0.6581033274851141,0.7,0.0,0.0,461.0,579.0,0.0,1,1960.0,1
41,41,0.8265431098865902,0.8,0.0,0.0,252.0,692.0,1.0,0,-914.0,0
42,42,0.5972303661639101,0.6,0.0,0.0,288.0,876.0,0.0,1,1836.0,1
43,43,0.661467912016109,0.7,0.0,0.0,265.0,841.0,0.0,1,1894.0,1
44,44,0.1460248864634216,0.1,1.0,1.0,286.0,707.0,0.0,0,2007.0,0
45,45,0.06522025995677472,0.1,0.0,0.0,327.0,719.0,0.0,1,1954.0,1
46,46,0.7754780518349863,0.8,1.0,1.0,309.0,501.0,0.0,0,2190.0,0
47,47,0.44350974032264034,0.4,0.0,0.0,327.0,529.0,0.0,1,-826.0,1
48,48,-0.7287059919300685,-0.7,1.0,0.0,341.0,624.0,0.0,0,2035.0,1
49,49,0.8347149543085411,0.8,0.0,0.0,451.0,895.0,0.0,1,1654.0,1
50,50,0.24273444212433726,0.2,0.0,0.0,385.0,768.0,0.0,1,1847.0,1
51,51,-0.45444029303665145,-0.5,0.0,1.0,456.0,729.0,0.0,1,1815.0,0
52,52,0.029328880464418283,0.0,0.0,0.0,360.0,983.0,0.0,1,1657.0,1
53,53,-0.48855743395835527,-0.5,0.0,1.0,396.0,928.0,0.0,1,1676.0,0
54,54,-0.5632869992943197,-0.6,1.0,0.0,418.0,843.0,0.0,0,1739.0,1
55,55,0.6595335891319124,0.7,0.0,0.0,265.0,535.0,0.0,1,2200.0,1
56,56,0.5821583674213565,0.6,1.0,1.0,286.0,717.0,0.0,0,1997.0,0
57,57,-0.2918334094459112,-0.3,0.0,1.0,252.0,507.0,0.0,1,2241.0,0
58,58,-0.7897195416460722,-0.8,1.0,0.0,276.0,551.0,0.0,0,2173.0,1
59,59,0.8376793998150046,0.8,1.0,1.0,347.0,736.0,0.0,0,-1033.0,0
60,60,0.6720693759056938,0.7,1.0,1.0,292.0,801.0,0.0,0,1907.0,0
61,61,-0.7353573303519042,-0.7,1.0,0.0,491.0,684.0,0.0,0,1825.0,1
62,62,-0.41480535159378534,-0.4,0.0,1.0,258.0,893.0,0.0,1,1849.0,0
63,63,-0.04691300825046352,-0.0,1.0,0.0,467.0,543.0,0.0,0,1990.0,1
64,64,-0.2884759013258925,-0.3,0.0,1.0,490.0,658.0,0.0,1,1852.0,0
65,65,0.32452734204074185,0.3,0.0,0.0,348.0,567.0,0.0,1,2085.0,1
66,66,-0.16250030642563928,-0.2,0.0,1.0,375.0,735.0,0.0,1,1890.0,0
67,67,-0.053975590258106276,-0.1,0.0,1.0,344.0,652.0,0.0,1,2004.0,0
68,68,-0.6276656434962206,-0.6,0.0,1.0,408.0,867.0,0.0,1,1725.0,0
69,69,0.6132384121292139,0.6,1.0,1.0,339.0,863.0,0.0,0,1798.0,0
70,70,-0.5173409714611059,-0.5,1.0,0.0,446.0,680.0,0.0,0,1874.0,1
71,71,0.572007221152086,0.6,1.0,1.0,266.0,904.0,0.0,0,1830.0,0
72,72,0.2873927224333407,0.3,0.0,0.0,461.0,937.0,0.0,1,1602.0,1
73,73,-0.1650080861300499,-0.2,0.0,1.0,475.0,600.0,0.0,1,1925.0,0
74,74,0.6655825805863643,0.7,0.0,0.0,468.0,780.0,0.0,1,1752.0,1
75,75,-0.0887666216888987,-0.1,0.0,1.0,480.0,936.0,0.0,1,1584.0,0
76,76,0.5062213154041054,0.5,1.0,1.0,273.0,985.0,0.0,0,1742.0,0
77,77,-0.4310062846650908,-0.4,0.0,1.0,384.0,934.0,0.0,1,1682.0,0
78,78,-0.20861269089665102,-0.2,1.0,0.0,288.0,814.0,0.0,0,1898.0,1
79,79,0.8280724106877216,0.8,1.0,1.0,297.0,842.0,0.0,0,1861.0,0
80,80,0.5404541686132872,0.5,0.0,0.0,474.0,721.0,0.0,1,1805.0,1
81,81,-0.4152505688561244,-0.4,1.0,0.0,432.0,912.0,0.0,0,1656.0,1
82,82,-0.04066907668225783,-0.0,0.0,1.0,287.0,527.0,0.0,1,2186.0,0
83,83,-0.7881150934097718,-0.8,0.0,1.0,284.0,865.0,0.0,1,1851.0,0
84,84,-0.1390273528165571,-0.1,0.0,1.0,346.0,704.0,1.0,0,-1010.0,1
85,85,-0.073356271885893,-0.1,1.0,0.0,447.0,623.0,0.0,0,1930.0,1
86,86,-0.3746429918679701,-0.4,0.0,1.0,259.0,652.0,0.0,1,2089.0,0
87,87,-0.5790923932962841,-0.6,1.0,0.0,325.0,931.0,0.0,0,1744.0,1
88,88,0.6215859659166126,0.6,0.0,0.0,412.0,840.0,0.0,1,1748.0,1
89,89,0.7595406189793396,0.8,0.0,0.0,453.0,965.0,0.0,1,1582.0,1
90,90,-0.5565238954357008,-0.6,0.0,1.0,490.0,597.0,0.0,1,1913.0,0
91,91,-0.7311898393464271,-0.7,0.0,1.0,308.0,885.0,1.0,0,-1123.0,1
92,92,0.4188863219931659,0.4,1.0,1.0,468.0,546.0,0.0,0,1986.0,0
93,93,-0.6697803140937878,-0.7,1.0,0.0,329.0,820.0,0.0,0,1851.0,1
94,94,-0.7469729421662559,-0.7,0.0,1.0,494.0,742.0,0.0,1,1764.0,0
95,95,-0.6281183321886454,-0.6,1.0,0.0,304.0,860.0,0.0,0,1836.0,1
96,96,0.35251724533304596,0.4,0.0,0.0,292.0,907.0,0.0,1,1801.0,1
97,97,0.8113066069599421,0.8,0.0,0.0,407.0,754.0,0.0,1,1839.0,1
98,98,-0.030700484225232416,-0.0,1.0,0.0,471.0,741.0,0.0,0,1788.0,1
99,99,-0.3921285634961149,-0.4,0.0,1.0,285.0,793.0,0.0,1,1922.0,0
100,100,-0.33449466897596913,-0.3,0.0,1.0,435.0,826.0,0.0,1,1739.0,0
101,101,-0.7002358826066136,-0.7,0.0,1.0,448.0,897.0,0.0,1,1655.0,0
102,102,-0.38140667568069664,-0.4,0.0,1.0,404.0,503.0,0.0,1,2093.0,0
103,103,0.427423425427491,0.4,0.0,0.0,375.0,860.0,0.0,1,1765.0,1
104,104,0.3839568355962736,0.4,1.0,1.0,389.0,828.0,0.0,0,1783.0,0
105,105,-0.492576528544924,-0.5,1.0,0.0,475.0,519.0,0.0,0,2006.0,1
106,106,-0.8240574076615824,-0.8,0.0,1.0,476.0,621.0,0.0,1,1903.0,0
107,107,0.38841133894368374,0.4,0.0,0.0,270.0,771.0,0.0,1,1959.0,1
108,108,-0.2813657533437076,-0.3,1.0,0.0,304.0,815.0,0.0,0,1881.0,1
109,109,0.17530878506678504,0.2,1.0,1.0,385.0,627.0,0.0,0,1988.0,0
110,110,-0.3232799163034229,-0.3,0.0,1.0,273.0,900.0,0.0,1,1827.0,0
111,111,0.8593700815105277,0.9,0.0,0.0,361.0,914.0,0.0,1,1725.0,1
112,112,-0.4885655545229772,-0.5,1.0,0.0,466.0,864.0,0.0,0,1670.0,1
113,113,-0.35632283817469024,-0.4,1.0,0.0,443.0,705.0,0.0,0,1852.0,1
114,114,0.04437330656005989,0.0,0.0,0.0,253.0,728.0,0.0,1,2019.0,1
115,115,-0.35408090249925606,-0.4,0.0,1.0,458.0,540.0,0.0,1,2002.0,0
116,116,0.09656768319278386,0.1,1.0,1.0,370.0,876.0,1.0,1,-1236.0,1
117,117,-0.6066451921140088,-0.6,1.0,0.0,472.0,711.0,0.0,0,1817.0,1
118,118,-0.3570006373668847,-0.4,0.0,1.0,257.0,836.0,0.0,1,1907.0,0
119,119,0.6928265987057415,0.7,1.0,1.0,430.0,710.0,0.0,0,1860.0,0
120,120,0.7971806468437711,0.8,0.0,0.0,269.0,721.0,0.0,1,-910.0,1
121,121,0.6913404461091376,0.7,0.0,0.0,399.0,550.0,0.0,1,2051.0,1
122,122,0.35669040167201793,0.4,0.0,0.0,425.0,810.0,0.0,1,1765.0,1
123,123,-0.2134773306393466,-0.2,0.0,1.0,452.0,530.0,0.0,1,2018.0,0
124,124,-0.6903685488093529,-0.7,0.0,1.0,434.0,833.0,0.0,1,1733.0,0
125,125,-0.6508350722851745,-0.7,1.0,0.0,462.0,554.0,0.0,0,1984.0,1
126,126,-0.6410790222145639,-0.6,1.0,0.0,455.0,651.0,0.0,0,1894.0,1
127,127,-0.5668509873832906,-0.6,0.0,1.0,443.0,619.0,0.0,1,1938.0,0
128,128,0.8827355359396055,0.9,1.0,1.0,457.0,627.0,0.0,0,1916.0,0
129,129,-0.005292397767299839,-0.0,1.0,0.0,494.0,604.0,0.0,0,1902.0,1
130,130,-0.21591206032781296,-0.2,1.0,0.0,496.0,786.0,1.0,1,-1282.0,0
131,131,-0.8525707524743624,-0.9,1.0,0.0,302.0,762.0,0.0,0,1936.0,1
132,132,0.5568833249774708,0.6,1.0,1.0,429.0,773.0,0.0,0,1798.0,0
133,133,-0.4088069268618756,-0.4,0.0,1.0,487.0,644.0,0.0,1,1869.0,0
134,134,0.75818072821061,0.8,1.0,1.0,422.0,946.0,0.0,0,-1358.0,0
135,135,-0.5552478793478453,-0.6,0.0,1.0,287.0,595.0,0.0,1,2118.0,0
136,136,0.43066531553771303,0.4,0.0,0.0,491.0,886.0,0.0,1,1623.0,1
137,137,0.4832213055706459,0.5,0.0,0.0,372.0,851.0,0.0,1,1777.0,1
138,138,0.8258165980427327,0.8,0.0,0.0,320.0,784.0,0.0,1,1896.0,1
139,139,0.3024138276602991,0.3,0.0,0.0,477.0,562.0,0.0,1,1961.0,1
140,140,-0.8308582114834364,-0.8,0.0,1.0,408.0,738.0,0.0,1,1854.0,0
141,141,-0.3016282567353058,-0.3,0.0,1.0,348.0,931.0,0.0,1,1721.0,0
142,142,-0.48983410277166095,-0.5,1.0,0.0,367.0,629.0,0.0,0,2004.0,1
143,143,-0.7967890568791857,-0.8,1.0,0.0,450.0,986.0,1.0,1,-1296.0,0
144,144,-0.3232414647320442,-0.3,0.0,1.0,379.0,718.0,0.0,1,1903.0,0
145,145,-0.7334246361220031,-0.7,1.0,0.0,287.0,750.0,0.0,0,1963.0,1
146,146,0.2895292088110716,0.3,0.0,0.0,397.0,895.0,0.0,1,1708.0,1
147,147,-0.6860047611383803,-0.7,0.0,1.0,343.0,558.0,0.0,1,2099.0,0
148,148,-0.34945423163210065,-0.3,1.0,0.0,491.0,536.0,1.0,1,-947.0,0
149,149,-0.33695891591608407,-0.3,1.0,0.0,459.0,623.0,0.0,0,1918.0,1
150,150,0.08779941366372113,0.1,0.0,0.0,412.0,991.0,0.0,1,1597.0,1
151,151,0.7571891640432248,0.8,1.0,1.0,466.0,736.0,0.0,0,1798.0,0
152,152,0.17864227521929144,0.2,0.0,0.0,458.0,670.0,0.0,1,1872.0,1
153,153,-0.771756150447453,-0.8,0.0,1.0,362.0,804.0,0.0,1,1834.0,0
154,154,-0.08815619029334132,-0.1,1.0,0.0,482.0,636.0,0.0,0,1882.0,1
155,155,0.05814831263867082,0.1,0.0,0.0,391.0,564.0,0.0,1,2045.0,1
156,156,-0.4241630125674647,-0.4,0.0,1.0,468.0,564.0,0.0,1,1968.0,0
157,157,-0.8448078727362388,-0.8,1.0,0.0,262.0,764.0,0.0,0,1974.0,1
158,158,-0.8685043378329949,-0.9,1.0,0.0,456.0,741.0,0.0,0,1803.0,1
159,159,-0.5693317906638469,-0.6,1.0,0.0,394.0,672.0,0.0,0,1934.0,1
160,160,-0.6809035507703235,-0.7,1.0,0.0,289.0,663.0,0.0,0,2048.0,1
161,161,-0.3532468750426567,-0.4,0.0,1.0,455.0,562.0,0.0,1,1983.0,0
162,162,0.3043046935775039,0.3,0.0,0.0,373.0,605.0,0.0,1,2022.0,1
163,163,0.583567146226169,0.6,0.0,0.0,307.0,786.0,0.0,1,1907.0,1
164,164,-0.8872396292207778,-0.9,1.0,0.0,376.0,966.0,0.0,0,1658.0,1
165,165,-0.024647548750799553,-0.0,1.0,0.0,354.0,925.0,0.0,0,1721.0,1
166,166,-0.029518836280637673,-0.0,0.0,1.0,312.0,698.0,0.0,1,1990.0,0
167,167,-0.03733896240464363,-0.0,0.0,1.0,457.0,866.0,0.0,1,1677.0,0
168,168,0.8861357123743457,0.9,1.0,1.0,414.0,662.0,0.0,0,1924.0,0
169,169,-0.08139727754946224,-0.1,0.0,1.0,451.0,809.0,0.0,1,1740.0,0
170,170,-0.48027338247566065,-0.5,1.0,0.0,346.0,917.0,0.0,0,1737.0,1
171,171,0.5995666607587958,0.6,1.0,1.0,271.0,617.0,0.0,0,2112.0,0
172,172,0.4063306530099261,0.4,1.0,1.0,271.0,901.0,0.0,0,1828.0,0
173,173,-0.79721585246274,-0.8,1.0,0.0,290.0,607.0,0.0,0,2103.0,1
174,174,0.4695446898810639,0.5,0.0,0.0,310.0,939.0,0.0,1,1751.0,1
175,175,-0.8077731681131906,-0.8,0.0,1.0,481.0,826.0,0.0,1,1693.0,0
176,176,0.21338193432725128,0.2,0.0,0.0,340.0,654.0,0.0,1,2006.0,1
177,177,-0.2671248472840311,-0.3,1.0,0.0,370.0,706.0,0.0,0,1924.0,1
178,178,0.773601631401612,0.8,0.0,0.0,469.0,832.0,0.0,1,1699.0,1
179,179,-0.8441392781939107,-0.8,0.0,1.0,364.0,508.0,0.0,1,2128.0,0
180,180,-0.6604159741705072,-0.7,0.0,1.0,400.0,581.0,0.0,1,2019.0,0
181,181,-0.46084139285185455,-0.5,1.0,0.0,475.0,506.0,0.0,0,2019.0,1
182,182,-0.3105557093570348,-0.3,0.0,1.0,420.0,835.0,0.0,1,1745.0,0
183,183,0.03595934402755141,0.0,1.0,1.0,351.0,850.0,0.0,0,1799.0,0
184,184,-0.4217953429602593,-0.4,0.0,1.0,251.0,812.0,0.0,1,1937.0,0
185,185,-0.6606137169501937,-0.7,0.0,1.0,470.0,693.0,0.0,1,1837.0,0
186,186,-0.47508889364259005,-0.5,1.0,0.0,250.0,753.0,0.0,0,1997.0,1
187,187,0.31449232608667443,0.3,1.0,1.0,386.0,694.0,0.0,0,1920.0,0
188,188,-0.26070217153435915,-0.3,1.0,0.0,406.0,535.0,0.0,0,2059.0,1
189,189,-0.03420009599380813,-0.0,1.0,0.0,404.0,666.0,0.0,0,1930.0,1
190,190,0.8496230113177866,0.8,0.0,0.0,321.0,909.0,0.0,1,1770.0,1
191,191,0.6327605579654855,0.6,1.0,1.0,360.0,718.0,0.0,0,1922.0,0
192,192,0.7346947561099427,0.7,0.0,0.0,467.0,679.0,0.0,1,1854.0,1
193,193,-0.8587923805561736,-0.9,0.0,1.0,406.0,988.0,0.0,1,1606.0,0
194,194,0.09167943242268617,0.1,1.0,1.0,295.0,618.0,0.0,0,2087.0,0
195,195,-0.7085805062942857,-0.7,1.0,0.0,300.0,725.0,0.0,0,1975.0,1
196,196,-0.09875795693587741,-0.1,0.0,1.0,471.0,524.0,0.0,1,2005.0,0
197,197,-0.11577275854010616,-0.1,0.0,1.0,269.0,988.0,0.0,1,1743.0,0
198,198,-0.295895278761911,-0.3,1.0,0.0,283.0,531.0,0.0,0,2186.0,1
199,199,0.22325669518100522,0.2,1.0,1.0,493.0,500.0,0.0,0,2007.0,0
200,200,0.18507237561681877,0.2,0.0,0.0,416.0,646.0,0.0,1,1938.0,1
201,201,-0.20612789677600596,-0.2,1.0,0.0,473.0,797.0,0.0,0,1730.0,1
202,202,-0.7088484923362819,-0.7,0.0,1.0,266.0,565.0,0.0,1,2169.0,0
203,203,0.10379363830926314,0.1,0.0,0.0,356.0,854.0,1.0,0,-1130.0,0
204,204,-0.8601369046372186,-0.9,0.0,1.0,257.0,638.0,0.0,1,2105.0,0
205,205,-0.5347410057354223,-0.5,0.0,1.0,446.0,583.0,0.0,1,1971.0,0
206,206,0.7007120759999498,0.7,0.0,0.0,442.0,902.0,0.0,1,1656.0,1
207,207,0.5606486772301235,0.6,1.0,1.0,458.0,862.0,0.0,0,1680.0,0
208,208,-0.09971794724185834,-0.1,0.0,1.0,323.0,919.0,0.0,1,1758.0,0
209,209,0.704319179307565,0.7,1.0,1.0,254.0,931.0,0.0,0,1815.0,0
210,210,-0.5307616652385536,-0.5,1.0,0.0,318.0,654.0,0.0,0,2028.0,1
211,211,-0.058339158114409706,-0.1,0.0,1.0,476.0,612.0,0.0,1,1912.0,0
212,212,0.7001484816329283,0.7,1.0,1.0,478.0,930.0,0.0,0,1592.0,0
213,213,-0.047801827813455766,-0.0,0.0,1.0,421.0,729.0,0.0,1,1850.0,0
214,214,-0.7862558491773189,-0.8,1.0,0.0,294.0,802.0,0.0,0,1904.0,1
215,215,0.36771631128622484,0.4,1.0,1.0,453.0,760.0,0.0,0,1787.0,0
216,216,-0.0899246152991019,-0.1,0.0,1.0,266.0,930.0,0.0,1,1804.0,0
217,217,-0.7731254683258518,-0.8,1.0,0.0,485.0,506.0,0.0,0,2009.0,1
218,218,-0.753610784652257,-0.8,0.0,1.0,323.0,568.0,0.0,1,2109.0,0
219,219,0.8519986824114322,0.9,1.0,1.0,271.0,842.0,0.0,0,1887.0,0
220,220,0.23474646591253168,0.2,1.0,1.0,323.0,944.0,0.0,0,1733.0,0
221,221,0.5038439582077768,0.5,0.0,0.0,389.0,868.0,0.0,1,1743.0,1
222,222,-0.29833202415331594,-0.3,1.0,0.0,382.0,801.0,0.0,0,1817.0,1
223,223,0.03293828243922059,0.0,0.0,0.0,414.0,634.0,0.0,1,1952.0,1
224,224,0.3951994778685014,0.4,1.0,1.0,494.0,758.0,0.0,0,1748.0,0
225,225,0.3363725647871342,0.3,0.0,0.0,354.0,741.0,0.0,1,1905.0,1
226,226,0.16795317812577137,0.2,0.0,0.0,491.0,897.0,0.0,1,1612.0,1
227,227,0.7512474064197164,0.8,1.0,1.0,302.0,594.0,0.0,0,2104.0,0
228,228,0.888009572555491,0.9,0.0,0.0,444.0,923.0,0.0,1,1633.0,1
229,229,0.8463511332847505,0.8,0.0,0.0,458.0,701.0,0.0,1,1841.0,1
230,230,-0.6478068655753151,-0.6,0.0,1.0,439.0,848.0,0.0,1,1713.0,0
231,231,0.4044733022393491,0.4,1.0,1.0,338.0,940.0,0.0,0,1722.0,0
232,232,-0.7096012780226348,-0.7,0.0,1.0,391.0,799.0,0.0,1,1810.0,0
233,233,0.7727177316810995,0.8,0.0,0.0,298.0,807.0,0.0,1,1895.0,1
234,234,-0.3863034910912788,-0.4,1.0,0.0,469.0,817.0,0.0,0,1714.0,1
235,235,0.6743595903669236,0.7,1.0,1.0,378.0,658.0,0.0,0,1964.0,0
236,236,-0.522227829402743,-0.5,1.0,0.0,455.0,669.0,0.0,0,1876.0,1
237,237,0.4231677675809703,0.4,0.0,0.0,424.0,722.0,0.0,1,1854.0,1
238,238,0.12611545829130788,0.1,1.0,1.0,319.0,594.0,0.0,0,2087.0,0
239,239,0.7078967714089693,0.7,1.0,1.0,326.0,599.0,0.0,0,2075.0,0
240,240,0.6605856710617345,0.7,1.0,1.0,437.0,777.0,0.0,0,1786.0,0
241,241,0.1933344627722965,0.2,1.0,1.0,437.0,851.0,0.0,0,1712.0,0
242,242,0.16850472500111857,0.2,1.0,1.0,360.0,676.0,0.0,0,-986.0,0
243,243,0.8820624158496307,0.9,1.0,1.0,366.0,653.0,1.0,1,-919.0,1
244,244,0.8280707686314231,0.8,0.0,0.0,384.0,625.0,0.0,1,1991.0,1
245,245,-0.015693349994103434,-0.0,1.0,0.0,259.0,748.0,0.0,0,1993.0,1
246,246,-0.43251689167428736,-0.4,0.0,1.0,422.0,735.0,0.0,1,1843.0,0
247,247,0.09878562364300036,0.1,1.0,1.0,255.0,761.0,0.0,0,1984.0,0
248,248,-0.6727789706155848,-0.7,0.0,1.0,423.0,501.0,0.0,1,2076.0,0
249,249,0.6556845859761277,0.7,1.0,1.0,470.0,561.0,0.0,0,1969.0,0
250,250,0.6213272873289727,0.6,0.0,0.0,424.0,911.0,0.0,1,1665.0,1
251,251,0.41871352813848206,0.4,1.0,1.0,471.0,920.0,0.0,0,1609.0,0
252,252,0.7191278805690148,0.7,0.0,0.0,263.0,536.0,0.0,1,-719.0,1
253,253,0.19067393685484768,0.2,0.0,0.0,362.0,762.0,0.0,1,1876.0,1
254,254,-0.49904557164377666,-0.5,0.0,1.0,263.0,865.0,0.0,1,1872.0,0
255,255,-0.20493224778020058,-0.2,0.0,1.0,383.0,653.0,0.0,1,1964.0,0
256,256,0.6889726874519976,0.7,1.0,1.0,418.0,765.0,0.0,0,1817.0,0
257,257,-0.17717850415302538,-0.2,1.0,0.0,417.0,944.0,0.0,0,-1351.0,1
258,258,-0.6618390073154765,-0.7,1.0,0.0,411.0,741.0,0.0,0,1848.0,1
259,259,0.05506808753722514,0.1,1.0,1.0,457.0,928.0,1.0,1,-1305.0,1
260,260,-0.1393393566511184,-0.1,0.0,1.0,448.0,700.0,0.0,1,1852.0,0
261,261,-0.8172762937578869,-0.8,0.0,1.0,335.0,946.0,0.0,1,1719.0,0
262,262,-0.8147809800188938,-0.8,1.0,0.0,479.0,704.0,0.0,0,1817.0,1
263,263,-0.12555885134700873,-0.1,1.0,0.0,279.0,673.0,0.0,0,2048.0,1
264,264,-0.66408724150489,-0.7,1.0,0.0,499.0,921.0,0.0,0,1580.0,1
265,265,-0.04168056754931304,-0.0,1.0,0.0,289.0,500.0,0.0,0,2211.0,1
266,266,0.7209433936744184,0.7,0.0,0.0,310.0,738.0,0.0,1,1952.0,1
267,267,-0.37316751928278125,-0.4,1.0,0.0,408.0,502.0,0.0,0,2090.0,1
268,268,0.6543389722677176,0.7,0.0,0.0,484.0,651.0,0.0,1,1865.0,1
269,269,-0.8791812488625563,-0.9,0.0,1.0,312.0,537.0,0.0,1,2151.0,0
270,270,-0.04054937036476769,-0.0,0.0,1.0,496.0,556.0,0.0,1,1948.0,0
271,271,-0.28259610523368994,-0.3,0.0,1.0,347.0,703.0,0.0,1,1950.0,0
272,272,0.8945297087249978,0.9,0.0,0.0,358.0,701.0,0.0,1,1941.0,1
273,273,0.37070797255947185,0.4,1.0,1.0,432.0,986.0,0.0,0,1582.0,0
274,274,0.6729101304386013,0.7,0.0,0.0,358.0,684.0,0.0,1,1958.0,1
275,275,-0.05956926451442457,-0.1,0.0,1.0,288.0,779.0,0.0,1,1933.0,0
276,276,-0.6300584074198259,-0.6,0.0,1.0,272.0,969.0,0.0,1,1759.0,0
277,277,-0.5534770133778105,-0.6,1.0,0.0,437.0,534.0,0.0,0,2029.0,1
278,278,-0.6420227364297524,-0.6,0.0,1.0,483.0,919.0,0.0,1,1598.0,0
279,279,0.875175327435474,0.9,0.0,0.0,325.0,947.0,0.0,1,1728.0,1
280,280,0.3811545760164611,0.4,0.0,0.0,308.0,838.0,0.0,1,1854.0,1
281,281,0.5055940994998008,0.5,0.0,0.0,345.0,881.0,0.0,1,1774.0,1
282,282,0.8621135773379128,0.9,1.0,1.0,391.0,761.0,0.0,0,1848.0,0
283,283,-0.6351498107477338,-0.6,1.0,0.0,495.0,538.0,0.0,0,1967.0,1
284,284,0.41418387215048524,0.4,0.0,0.0,457.0,711.0,0.0,1,1832.0,1
285,285,0.3726162135109151,0.4,0.0,0.0,461.0,943.0,0.0,1,1596.0,1
286,286,-0.5312889486641745,-0.5,1.0,0.0,418.0,711.0,0.0,0,1871.0,1
287,287,-0.14942070000197782,-0.1,0.0,1.0,255.0,861.0,0.0,1,1884.0,0
288,288,-0.7300354559619062,-0.7,0.0,1.0,252.0,932.0,0.0,1,1816.0,0
289,289,-0.01703178372010683,-0.0,0.0,1.0,274.0,506.0,0.0,1,2220.0,0
290,290,0.6329551172450102,0.6,0.0,0.0,342.0,764.0,0.0,1,1894.0,1
291,291,0.5433843831281479,0.5,1.0,1.0,310.0,552.0,1.0,1,-812.0,1
292,292,0.8280765431804898,0.8,1.0,1.0,474.0,921.0,0.0,0,1605.0,0
293,293,-0.72655933636519,-0.7,1.0,0.0,252.0,634.0,0.0,0,2114.0,1
294,294,0.1822211602306788,0.2,0.0,0.0,451.0,732.0,1.0,0,-1173.0,0
295,295,-0.012522055755901818,-0.0,0.0,1.0,315.0,913.0,0.0,1,-1178.0,0
296,296,0.5060640606425503,0.5,1.0,1.0,375.0,864.0,0.0,0,1761.0,0
297,297,0.818610346794652,0.8,1.0,1.0,474.0,555.0,0.0,0,1971.0,0
298,298,-0.28032851090949085,-0.3,1.0,0.0,403.0,712.0,0.0,0,1885.0,1
299,299,-0.1198544968287979,-0.1,1.0,0.0,352.0,684.0,0.0,0,1964.0,1
300,300,0.7333554162647088,0.7,0.0,0.0,397.0,945.0,0.0,1,1658.0,1
301,301,0.733376943012335,0.7,1.0,1.0,259.0,851.0,0.0,0,1890.0,0
302,302,-0.4018696433720279,-0.4,1.0,0.0,468.0,542.0,0.0,0,1990.0,1
303,303,-0.22362712909623594,-0.2,1.0,0.0,258.0,894.0,0.0,0,1848.0,1
304,304,-0.7300273702889727,-0.7,1.0,0.0,259.0,625.0,0.0,0,2116.0,1
305,305,0.7602370969853042,0.8,1.0,1.0,441.0,602.0,0.0,0,1957.0,0
306,306,0.6410815928964669,0.6,0.0,0.0,341.0,718.0,0.0,1,1941.0,1
307,307,-0.36443964577106946,-0.4,1.0,0.0,261.0,923.0,0.0,0,1816.0,1
308,308,-0.1618840692217297,-0.2,1.0,0.0,416.0,605.0,0.0,0,1979.0,1
309,309,-0.26534199366152933,-0.3,1.0,0.0,368.0,620.0,0.0,0,2012.0,1
310,310,0.5789204655075101,0.6,1.0,1.0,282.0,920.0,0.0,0,1798.0,0
311,311,-0.47327553377704995,-0.5,1.0,0.0,454.0,789.0,0.0,0,1757.0,1
312,312,0.18185051820636222,0.2,0.0,0.0,455.0,778.0,0.0,1,1767.0,1
313,313,-0.773149432134403,-0.8,1.0,0.0,288.0,523.0,0.0,0,2189.0,1
314,314,-0.8867279333357958,-0.9,0.0,1.0,429.0,690.0,0.0,1,1881.0,0
315,315,-0.21445546304475283,-0.2,1.0,0.0,493.0,995.0,0.0,0,1512.0,1
316,316,0.13984736098268435,0.1,1.0,1.0,288.0,544.0,0.0,0,2168.0,0
317,317,-0.599341390367108,-0.6,1.0,0.0,457.0,674.0,0.0,0,1869.0,1
318,318,0.23224864246638932,0.2,1.0,1.0,466.0,661.0,0.0,0,1873.0,0
319,319,0.2220176936790147,0.2,1.0,1.0,460.0,684.0,0.0,0,1856.0,0
320,320,-0.3976866373507332,-0.4,0.0,1.0,379.0,632.0,0.0,1,1989.0,0
321,321,0.5989966018967939,0.6,1.0,1.0,307.0,888.0,0.0,0,1805.0,0
322,322,0.874514695602994,0.9,0.0,0.0,283.0,928.0,0.0,1,1789.0,1
323,323,-0.7722557697463543,-0.8,0.0,1.0,327.0,847.0,0.0,1,1826.0,0
324,324,0.06507376990604974,0.1,0.0,0.0,390.0,788.0,0.0,1,1822.0,1
325,325,-0.38931532160809024,-0.4,0.0,1.0,306.0,784.0,0.0,1,1910.0,0
326,326,0.6824096372246601,0.7,1.0,1.0,489.0,681.0,0.0,0,1830.0,0
327,327,-0.30346964939357424,-0.3,0.0,1.0,389.0,736.0,0.0,1,1875.0,0
328,328,0.8663194699383662,0.9,0.0,0.0,317.0,862.0,0.0,1,1821.0,1
329,329,0.5076356931607685,0.5,0.0,0.0,338.0,830.0,0.0,1,1832.0,1
330,330,0.8923103638728646,0.9,0.0,0.0,416.0,567.0,0.0,1,2017.0,1
331,331,-0.4935469035665945,-0.5,1.0,0.0,251.0,787.0,0.0,0,1962.0,1
332,332,-0.3402944753747663,-0.3,1.0,0.0,494.0,705.0,0.0,0,1801.0,1
333,333,0.723813534613653,0.7,0.0,0.0,472.0,780.0,0.0,1,1748.0,1
334,334,0.364671846343425,0.4,0.0,0.0,419.0,822.0,0.0,1,-1071.0,1
335,335,0.04978904852394672,0.0,0.0,0.0,485.0,708.0,0.0,1,1807.0,1
336,336,0.25292051422837003,0.3,1.0,1.0,469.0,626.0,0.0,0,1905.0,0
337,337,0.8197552815606733,0.8,0.0,0.0,302.0,806.0,0.0,1,1892.0,1
338,338,0.04889751604311421,0.0,1.0,1.0,397.0,533.0,0.0,0,2070.0,0
339,339,-0.6681909353630272,-0.7,1.0,0.0,411.0,614.0,0.0,0,1975.0,1
340,340,-0.04822334357007074,-0.0,1.0,0.0,294.0,680.0,0.0,0,2026.0,1
341,341,-0.5653696963346369,-0.6,0.0,1.0,314.0,967.0,0.0,1,1719.0,0
342,342,0.007269931658077322,0.0,1.0,1.0,395.0,705.0,0.0,0,1900.0,0
343,343,0.7357225587634032,0.7,1.0,1.0,316.0,544.0,0.0,0,2140.0,0
344,344,-0.8270358504525283,-0.8,1.0,0.0,441.0,694.0,0.0,0,1865.0,1
345,345,-0.14207650557033613,-0.1,1.0,0.0,284.0,619.0,0.0,0,2097.0,1
346,346,-0.2818233736460468,-0.3,0.0,1.0,308.0,841.0,0.0,1,-1139.0,0
347,347,0.5138061335779641,0.5,0.0,0.0,328.0,970.0,0.0,1,1702.0,1
348,348,-0.2586993960419566,-0.3,0.0,1.0,324.0,950.0,0.0,1,1726.0,0
349,349,-0.7539493732760942,-0.8,0.0,1.0,488.0,568.0,0.0,1,1944.0,0
350,350,-0.7636749981285196,-0.8,0.0,1.0,469.0,970.0,0.0,1,1561.0,0
351,351,-0.4845785954544505,-0.5,1.0,0.0,496.0,712.0,0.0,0,1792.0,1
352,352,-0.44932603321998554,-0.4,1.0,0.0,360.0,735.0,0.0,0,1905.0,1
353,353,-0.3122756426133897,-0.3,0.0,1.0,313.0,621.0,0.0,1,2066.0,0
354,354,-0.11832718726658387,-0.1,0.0,1.0,262.0,854.0,0.0,1,1884.0,0
355,355,0.49577249504595045,0.5,0.0,0.0,385.0,878.0,1.0,0,-1233.0,0
356,356,0.3115740639984911,0.3,0.0,0.0,410.0,563.0,0.0,1,2027.0,1
357,357,0.2816344728044574,0.3,1.0,1.0,466.0,974.0,0.0,0,1560.0,0
358,358,-0.12102044852192129,-0.1,1.0,0.0,443.0,610.0,0.0,0,1947.0,1
359,359,-0.14326340704055696,-0.1,0.0,1.0,470.0,852.0,0.0,1,1678.0,0
360,360,-0.7541785520098989,-0.8,1.0,0.0,455.0,889.0,0.0,0,-1324.0,1
361,361,0.048860626667791784,0.0,1.0,1.0,363.0,573.0,0.0,0,2064.0,0
362,362,-0.5896741913683019,-0.6,1.0,0.0,264.0,817.0,0.0,0,-951.0,1
363,363,-0.0727245508903539,-0.1,0.0,1.0,250.0,603.0,0.0,1,2147.0,0
364,364,-0.3463980087099151,-0.3,0.0,1.0,388.0,807.0,0.0,1,1805.0,0
365,365,0.2886348938045441,0.3,1.0,1.0,307.0,886.0,0.0,0,1807.0,0
366,366,-0.4134566554073498,-0.4,0.0,1.0,272.0,577.0,0.0,1,2151.0,0
367,367,0.7734382104749137,0.8,1.0,1.0,282.0,722.0,0.0,0,1996.0,0
368,368,0.6433038543063913,0.6,1.0,1.0,337.0,570.0,0.0,0,2093.0,0
369,369,-0.31801156074499703,-0.3,0.0,1.0,417.0,901.0,0.0,1,1682.0,0
370,370,0.009953261890483511,0.0,1.0,1.0,454.0,904.0,0.0,0,1642.0,0
371,371,0.5601720756341556,0.6,1.0,1.0,404.0,543.0,0.0,0,2053.0,0
372,372,-0.6934705475642862,-0.7,0.0,1.0,264.0,839.0,0.0,1,1897.0,0
373,373,0.3285992252139184,0.3,0.0,0.0,270.0,833.0,0.0,1,1897.0,1
374,374,0.8445228874450558,0.8,0.0,0.0,286.0,825.0,0.0,1,1889.0,1
375,375,0.665615524069053,0.7,1.0,1.0,397.0,793.0,0.0,0,1810.0,0
376,376,-0.6887846325873332,-0.7,0.0,1.0,340.0,822.0,0.0,1,1838.0,0
377,377,-0.1704681277059943,-0.2,1.0,0.0,308.0,921.0,0.0,0,-1119.0,1
378,378,-0.35437651202307163,-0.4,1.0,0.0,306.0,879.0,0.0,0,1815.0,1
379,379,0.6610963644511066,0.7,0.0,0.0,316.0,922.0,1.0,0,-1038.0,0
380,380,-0.10492316924417722,-0.1,1.0,0.0,362.0,864.0,0.0,0,1774.0,1
381,381,0.528453215170054,0.5,0.0,0.0,260.0,589.0,0.0,1,2151.0,1
382,382,0.8261031420498198,0.8,1.0,1.0,341.0,829.0,0.0,0,1830.0,0
383,383,0.6721873483501987,0.7,0.0,0.0,478.0,870.0,0.0,1,1652.0,1
384,384,0.04645214666765318,0.0,0.0,0.0,370.0,763.0,0.0,1,1867.0,1
385,385,0.8379833032873322,0.8,1.0,1.0,435.0,932.0,0.0,0,1633.0,0
386,386,-0.6876824305891207,-0.7,1.0,0.0,390.0,645.0,0.0,0,1965.0,1
387,387,-0.2930660185932864,-0.3,1.0,0.0,394.0,565.0,0.0,0,2041.0,1
388,388,-0.2567076969750064,-0.3,0.0,1.0,386.0,637.0,0.0,1,1977.0,0
389,389,0.8178675769976197,0.8,1.0,1.0,397.0,551.0,0.0,0,2052.0,0
390,390,0.22621740636548593,0.2,1.0,1.0,312.0,663.0,0.0,0,2025.0,0
391,391,-0.4888900883482919,-0.5,1.0,0.0,429.0,893.0,0.0,0,1678.0,1
392,392,0.15480485011081357,0.2,0.0,0.0,361.0,638.0,0.0,1,2001.0,1
393,393,-0.34031673484019376,-0.3,1.0,0.0,308.0,524.0,0.0,0,2168.0,1
394,394,0.5897631098069839,0.6,0.0,0.0,434.0,866.0,0.0,1,1700.0,1
395,395,-0.3030108115976622,-0.3,1.0,0.0,298.0,683.0,0.0,0,2019.0,1
396,396,0.34962822541664595,0.3,1.0,1.0,392.0,784.0,0.0,0,1824.0,0
397,397,-0.795361823887543,-0.8,0.0,1.0,432.0,647.0,0.0,1,1921.0,0
398,398,-0.6806155074632616,-0.7,0.0,1.0,388.0,899.0,0.0,1,1713.0,0
399,399,-0.4686369971061846,-0.5,0.0,1.0,320.0,548.0,0.0,1,2132.0,0
400,400,-0.7799338806657711,-0.8,1.0,0.0,413.0,993.0,0.0,0,1594.0,1
401,401,-0.7242994579089894,-0.7,0.0,1.0,285.0,685.0,0.0,1,2030.0,0
402,402,-0.5457649884212641,-0.5,0.0,1.0,309.0,855.0,0.0,1,1836.0,0
403,403,-0.11155562674576247,-0.1,1.0,0.0,443.0,843.0,0.0,0,1714.0,1
404,404,0.5601825585728658,0.6,1.0,1.0,453.0,513.0,0.0,0,2034.0,0
405,405,-0.26480870621544217,-0.3,1.0,0.0,480.0,805.0,0.0,0,1715.0,1
406,406,-0.10810919907654226,-0.1,1.0,0.0,340.0,997.0,0.0,0,1663.0,1
407,407,0.5643809969819497,0.6,0.0,0.0,428.0,864.0,0.0,1,1708.0,1
408,408,0.3734613243079471,0.4,0.0,0.0,280.0,690.0,1.0,0,-820.0,0
409,409,0.7722575155952885,0.8,1.0,1.0,441.0,520.0,0.0,0,2039.0,0
410,410,0.8300990949085257,0.8,1.0,1.0,250.0,606.0,0.0,0,2144.0,0
411,411,-0.8529416447627907,-0.9,1.0,0.0,458.0,722.0,0.0,0,-1140.0,1
412,412,-0.7392781852261359,-0.7,1.0,0.0,279.0,872.0,0.0,0,1849.0,1
413,413,0.26286248162575465,0.3,0.0,0.0,484.0,662.0,0.0,1,1854.0,1
414,414,-0.8821105683112543,-0.9,1.0,0.0,478.0,596.0,0.0,0,1926.0,1
415,415,0.3466455514875685,0.3,1.0,1.0,372.0,994.0,0.0,0,1634.0,0
416,416,0.37997205913821286,0.4,0.0,0.0,426.0,906.0,0.0,1,1668.0,1
417,417,0.3377362778280538,0.3,1.0,1.0,370.0,962.0,0.0,0,1668.0,0
418,418,-0.10720797299356244,-0.1,1.0,0.0,377.0,776.0,0.0,0,1847.0,1
419,419,-0.6196638710601504,-0.6,0.0,1.0,259.0,746.0,0.0,1,1995.0,0
420,420,0.1312584243186613,0.1,0.0,0.0,498.0,833.0,1.0,0,-1291.0,0
421,421,0.4592188036266055,0.5,0.0,0.0,379.0,593.0,0.0,1,2028.0,1
422,422,0.18377799508722437,0.2,0.0,0.0,285.0,990.0,0.0,1,1725.0,1
423,423,0.04405474425735578,0.0,0.0,0.0,399.0,894.0,0.0,1,1707.0,1
424,424,-0.3401702240822998,-0.3,1.0,0.0,459.0,964.0,0.0,0,1577.0,1
425,425,-0.747497833278693,-0.7,0.0,1.0,345.0,525.0,0.0,1,2130.0,0
426,426,-0.39657182626324927,-0.4,1.0,0.0,425.0,594.0,0.0,0,-1019.0,1
427,427,-0.7449739626291068,-0.7,0.0,1.0,253.0,623.0,0.0,1,2124.0,0
428,428,-0.5172542339731327,-0.5,1.0,0.0,282.0,512.0,0.0,0,2206.0,1
429,429,0.5334711063647598,0.5,0.0,0.0,323.0,513.0,0.0,1,2164.0,1
430,430,0.615030693562049,0.6,1.0,1.0,489.0,776.0,0.0,0,1735.0,0
431,431,-0.7413413413501198,-0.7,1.0,0.0,417.0,622.0,0.0,0,1961.0,1
432,432,0.7020860694670462,0.7,0.0,0.0,483.0,630.0,0.0,1,1887.0,1
433,433,0.711056643646475,0.7,0.0,0.0,341.0,766.0,0.0,1,1893.0,1
434,434,0.7543254761356867,0.8,1.0,1.0,423.0,923.0,0.0,0,1654.0,0
435,435,-0.665946381933048,-0.7,0.0,1.0,308.0,625.0,0.0,1,2067.0,0
436,436,0.4310280742625473,0.4,1.0,1.0,384.0,670.0,0.0,0,1946.0,0
437,437,0.7750050395027895,0.8,0.0,0.0,306.0,616.0,0.0,1,2078.0,1
438,438,0.6783940871678077,0.7,0.0,0.0,267.0,949.0,0.0,1,1784.0,1
439,439,0.6075652808028876,0.6,0.0,0.0,469.0,844.0,0.0,1,1687.0,1
440,440,-0.6068136877919903,-0.6,1.0,0.0,464.0,714.0,0.0,0,1822.0,1
441,441,-0.7043605179667232,-0.7,0.0,1.0,363.0,787.0,0.0,1,1850.0,0
442,442,0.1183197686895322,0.1,0.0,0.0,441.0,513.0,0.0,1,2046.0,1
443,443,0.6757123830840183,0.7,0.0,0.0,251.0,782.0,0.0,1,1967.0,1
444,444,0.8260733256095018,0.8,1.0,1.0,267.0,863.0,0.0,0,1870.0,0
445,445,-0.25648628135787466,-0.3,0.0,1.0,359.0,641.0,0.0,1,2000.0,0
446,446,-0.08114574690930987,-0.1,1.0,0.0,375.0,645.0,0.0,0,1980.0,1
447,447,0.538970159121133,0.5,1.0,1.0,345.0,873.0,1.0,1,-1168.0,1
448,448,-0.212373778627169,-0.2,1.0,0.0,464.0,921.0,0.0,0,1615.0,1
449,449,0.5630664497340024,0.6,1.0,1.0,318.0,795.0,0.0,0,-1113.0,0
450,450,-0.004498159037972682,-0.0,1.0,0.0,481.0,838.0,0.0,0,1681.0,1
451,451,0.19055907919020487,0.2,1.0,1.0,428.0,634.0,0.0,0,1938.0,0
452,452,0.5243513352125196,0.5,0.0,0.0,285.0,975.0,0.0,1,1740.0,1
453,453,0.5418007828244223,0.5,0.0,0.0,328.0,830.0,0.0,1,1842.0,1
454,454,-0.7396864033396557,-0.7,0.0,1.0,295.0,664.0,0.0,1,2041.0,0
455,455,-0.18897197608048266,-0.2,0.0,1.0,276.0,604.0,0.0,1,2120.0,0
456,456,0.7323874087037329,0.7,0.0,0.0,431.0,597.0,0.0,1,1972.0,1
457,457,0.4125519607520024,0.4,0.0,0.0,275.0,810.0,0.0,1,1915.0,1
458,458,0.49466851840170867,0.5,0.0,0.0,317.0,688.0,0.0,1,1995.0,1
459,459,0.731026079017307,0.7,1.0,1.0,425.0,742.0,0.0,0,1833.0,0
460,460,0.41505981703776007,0.4,0.0,0.0,488.0,841.0,0.0,1,1671.0,1
461,461,-0.6710804286231364,-0.7,1.0,0.0,425.0,902.0,0.0,0,1673.0,1
462,462,-0.4448850706934432,-0.4,0.0,1.0,344.0,653.0,0.0,1,2003.0,0
463,463,0.281461791119512,0.3,1.0,1.0,269.0,836.0,0.0,0,1895.0,0
464,464,-0.7222452607763634,-0.7,0.0,1.0,467.0,719.0,0.0,1,1814.0,0
465,465,0.6336719617008765,0.6,1.0,1.0,442.0,783.0,0.0,0,1775.0,0
466,466,0.49015304116574676,0.5,1.0,1.0,445.0,901.0,0.0,0,1654.0,0
467,467,0.09268598644495496,0.1,1.0,1.0,381.0,539.0,0.0,0,2080.0,0
468,468,0.8435993559756138,0.8,1.0,1.0,265.0,586.0,0.0,0,2149.0,0
469,469,0.800672048531342,0.8,0.0,0.0,253.0,583.0,0.0,1,2164.0,1
470,470,-0.06443819094738357,-0.1,0.0,1.0,359.0,550.0,0.0,1,2091.0,0
471,471,0.8202206411408796,0.8,0.0,0.0,498.0,926.0,0.0,1,1576.0,1
472,472,0.669996964174674,0.7,1.0,1.0,491.0,673.0,0.0,0,1836.0,0
473,473,-0.36518640068522235,-0.4,0.0,1.0,310.0,843.0,0.0,1,1847.0,0
474,474,0.7309570875052417,0.7,1.0,1.0,469.0,729.0,0.0,0,1802.0,0
475,475,-0.017088029444488506,-0.0,0.0,1.0,469.0,600.0,0.0,1,1931.0,0
476,476,0.7245278245262227,0.7,0.0,0.0,452.0,932.0,0.0,1,1616.0,1
477,477,-0.6988678317846061,-0.7,0.0,1.0,293.0,545.0,0.0,1,2162.0,0
478,478,0.5495292843582164,0.5,1.0,1.0,429.0,676.0,0.0,0,1895.0,0
479,479,0.24632002445471335,0.2,0.0,0.0,316.0,714.0,0.0,1,1970.0,1
480,480,0.49399213353254,0.5,0.0,0.0,420.0,705.0,0.0,1,1875.0,1
481,481,-0.5875848815211233,-0.6,0.0,1.0,251.0,573.0,0.0,1,2176.0,0
482,482,0.09049580383781786,0.1,1.0,1.0,302.0,634.0,0.0,0,2064.0,0
483,483,0.4036851551502426,0.4,1.0,1.0,384.0,731.0,0.0,0,1885.0,0
484,484,0.8785538346714167,0.9,1.0,1.0,422.0,592.0,0.0,0,1986.0,0
485,485,0.7204884661554906,0.7,1.0,1.0,367.0,966.0,0.0,0,1667.0,0
486,486,0.7715834357516201,0.8,0.0,0.0,440.0,814.0,0.0,1,1746.0,1
487,487,0.4975712240715965,0.5,1.0,1.0,400.0,754.0,0.0,0,1846.0,0
488,488,0.2822538348141975,0.3,0.0,0.0,309.0,590.0,0.0,1,2101.0,1
489,489,0.8569280364221229,0.9,0.0,0.0,309.0,609.0,0.0,1,2082.0,1
490,490,0.560612780221467,0.6,1.0,1.0,253.0,579.0,0.0,0,2168.0,0
491,491,-0.3844036563623028,-0.4,1.0,0.0,464.0,715.0,0.0,0,1821.0,1
492,492,0.0021195518282636217,0.0,1.0,1.0,349.0,667.0,0.0,0,1984.0,0
493,493,-0.5862633726365059,-0.6,1.0,0.0,379.0,716.0,0.0,0,1905.0,1
494,494,-0.8847127640181961,-0.9,0.0,1.0,401.0,746.0,0.0,1,1853.0,0
495,495,0.5933600477021573,0.6,0.0,0.0,321.0,555.0,0.0,1,2124.0,1
496,496,0.3970265644750427,0.4,1.0,1.0,319.0,971.0,0.0,0,1710.0,0
497,497,-0.6863035402585455,-0.7,1.0,0.0,357.0,940.0,1.0,1,-1267.0,0
498,498,-0.14342329088585515,-0.1,1.0,0.0,459.0,776.0,0.0,0,1765.0,1
499,499,-0.4483732095921202,-0.4,1.0,0.0,461.0,907.0,0.0,0,1632.0,1
500,500,-0.017363947805306923,-0.0,1.0,0.0,432.0,672.0,0.0,0,1896.0,1
501,501,0.8844140689060019,0.9,0.0,0.0,436.0,632.0,0.0,1,1932.0,1
502,502,0.8255588927641239,0.8,0.0,0.0,393.0,639.0,0.0,1,1968.0,1
503,503,-0.3892327678434969,-0.4,1.0,0.0,469.0,754.0,0.0,0,1777.0,1
504,504,-0.08317638244575365,-0.1,0.0,1.0,317.0,544.0,0.0,1,2139.0,0
505,505,0.3862456331372218,0.4,1.0,1.0,427.0,978.0,0.0,0,1595.0,0
506,506,-0.6473570318179296,-0.6,0.0,1.0,435.0,613.0,0.0,1,1952.0,0
507,507,0.3859480141658974,0.4,0.0,0.0,355.0,505.0,0.0,1,2140.0,1
508,508,-0.3682486270557519,-0.4,0.0,1.0,421.0,599.0,0.0,1,1980.0,0
509,509,0.23180644758442026,0.2,1.0,1.0,472.0,846.0,0.0,0,1682.0,0
510,510,0.716088842017396,0.7,1.0,1.0,447.0,957.0,0.0,0,1596.0,0
511,511,0.3170322218641858,0.3,0.0,0.0,399.0,570.0,0.0,1,2031.0,1
512,512,0.6571812746354856,0.7,1.0,1.0,258.0,671.0,0.0,0,2071.0,0
513,513,-0.2508763836175868,-0.3,0.0,1.0,433.0,942.0,0.0,1,1625.0,0
514,514,0.04297181362007885,0.0,1.0,1.0,423.0,602.0,0.0,0,1975.0,0
515,515,-0.3567796426723078,-0.4,1.0,0.0,289.0,970.0,0.0,0,1741.0,1
516,516,0.21042175862335066,0.2,1.0,1.0,433.0,769.0,0.0,0,1798.0,0
517,517,0.5773892703892111,0.6,0.0,0.0,445.0,809.0,0.0,1,1746.0,1
518,518,0.892036730320097,0.9,1.0,1.0,447.0,738.0,0.0,0,1815.0,0
519,519,0.057253382529615315,0.1,0.0,0.0,271.0,696.0,0.0,1,2033.0,1
520,520,-0.3105209872120045,-0.3,0.0,1.0,276.0,627.0,0.0,1,2097.0,0
521,521,-0.1685739785821182,-0.2,0.0,1.0,444.0,501.0,0.0,1,2055.0,0
522,522,-0.20260447779007962,-0.2,1.0,0.0,298.0,968.0,0.0,0,1734.0,1
523,523,0.6100050560836371,0.6,1.0,1.0,320.0,739.0,0.0,0,1941.0,0
524,524,0.6751678960283162,0.7,0.0,0.0,318.0,588.0,0.0,1,2094.0,1
525,525,-0.6520835883969669,-0.7,1.0,0.0,432.0,762.0,0.0,0,1806.0,1
526,526,0.8810204109013494,0.9,0.0,0.0,363.0,653.0,0.0,1,1984.0,1
527,527,-0.5663370371315288,-0.6,1.0,0.0,452.0,763.0,0.0,0,1785.0,1
528,528,-0.8820639391263957,-0.9,1.0,0.0,386.0,571.0,0.0,0,2043.0,1
529,529,-0.32440455960160175,-0.3,0.0,1.0,451.0,596.0,0.0,1,1953.0,0
530,530,-0.30428522567738203,-0.3,1.0,0.0,354.0,517.0,0.0,0,2129.0,1
531,531,0.25559898125302183,0.3,0.0,0.0,412.0,522.0,0.0,1,2066.0,1
532,532,0.8751386622867371,0.9,0.0,0.0,478.0,867.0,0.0,1,1655.0,1
533,533,0.04677938369326062,0.0,0.0,0.0,422.0,686.0,0.0,1,1892.0,1
534,534,-0.7874172108506952,-0.8,0.0,1.0,302.0,500.0,0.0,1,2198.0,0
535,535,0.19830736169140672,0.2,1.0,1.0,441.0,526.0,0.0,0,2033.0,0
536,536,0.6012434549932925,0.6,1.0,1.0,428.0,822.0,0.0,0,1750.0,0
537,537,0.4720744121236352,0.5,1.0,1.0,368.0,771.0,0.0,0,1861.0,0
538,538,0.43463610343842485,0.4,0.0,0.0,298.0,881.0,0.0,1,1821.0,1
539,539,-0.032746648126362854,-0.0,0.0,1.0,294.0,870.0,0.0,1,1836.0,0
540,540,-0.6093787755770194,-0.6,0.0,1.0,327.0,663.0,0.0,1,2010.0,0
541,541,0.7441968189441169,0.7,0.0,0.0,469.0,955.0,0.0,1,1576.0,1
542,542,-0.5857767877145976,-0.6,1.0,0.0,463.0,539.0,0.0,0,1998.0,1
543,543,0.731797212711497,0.7,1.0,1.0,305.0,756.0,0.0,0,1939.0,0
544,544,0.20133037225035266,0.2,1.0,1.0,466.0,631.0,0.0,0,1903.0,0
545,545,-0.46448628276817006,-0.5,1.0,0.0,310.0,547.0,0.0,0,2143.0,1
546,546,0.5672130413340516,0.6,0.0,0.0,284.0,507.0,0.0,1,2209.0,1
547,547,-0.8940994877104683,-0.9,1.0,0.0,417.0,966.0,0.0,0,1617.0,1
548,548,-0.6076404479226599,-0.6,0.0,1.0,464.0,775.0,0.0,1,1761.0,0
549,549,0.7106513889126934,0.7,0.0,0.0,322.0,798.0,0.0,1,1880.0,1
550,550,0.24204660540239076,0.2,0.0,0.0,419.0,767.0,1.0,0,-1096.0,0
551,551,-0.5869400759666026,-0.6,0.0,1.0,334.0,585.0,0.0,1,2081.0,0
552,552,-0.7469555002847924,-0.7,0.0,1.0,355.0,814.0,0.0,1,-1049.0,0
553,553,-0.7542060794653256,-0.8,0.0,1.0,372.0,583.0,1.0,0,-765.0,1
554,554,-0.17555752552405068,-0.2,1.0,0.0,488.0,875.0,0.0,0,1637.0,1
555,555,-0.2043680952838811,-0.2,0.0,1.0,336.0,871.0,0.0,1,1793.0,0
556,556,0.8919935985817343,0.9,0.0,0.0,388.0,749.0,0.0,1,1863.0,1
557,557,0.23773358470917783,0.2,0.0,0.0,298.0,581.0,0.0,1,2121.0,1
558,558,-0.24294812613477146,-0.2,1.0,0.0,345.0,569.0,0.0,0,2086.0,1
559,559,-0.09725203393782023,-0.1,1.0,0.0,468.0,515.0,0.0,0,2017.0,1
560,560,-0.8338323255989718,-0.8,0.0,1.0,414.0,955.0,0.0,1,1631.0,0
561,561,-0.08496678720400186,-0.1,0.0,1.0,389.0,878.0,0.0,1,1733.0,0
562,562,0.12007210337947838,0.1,1.0,1.0,418.0,910.0,0.0,0,1672.0,0
563,563,-0.4507145842862033,-0.5,0.0,1.0,481.0,862.0,0.0,1,1657.0,0
564,564,-0.7396263951368806,-0.7,1.0,0.0,297.0,855.0,0.0,0,1848.0,1
565,565,-0.4545641971661855,-0.5,1.0,0.0,357.0,839.0,0.0,0,1804.0,1
566,566,-0.20942087918643426,-0.2,0.0,1.0,403.0,770.0,0.0,1,1827.0,0
567,567,-0.3567643834277384,-0.4,1.0,0.0,410.0,729.0,0.0,0,1861.0,1
568,568,0.7605530735946208,0.8,1.0,1.0,448.0,823.0,0.0,0,1729.0,0
569,569,0.10650224187927881,0.1,0.0,0.0,477.0,836.0,0.0,1,1687.0,1
570,570,0.539427474948427,0.5,1.0,1.0,478.0,832.0,0.0,0,1690.0,0
571,571,-0.6214146977657695,-0.6,0.0,1.0,365.0,814.0,0.0,1,1821.0,0
572,572,0.31181967029031676,0.3,1.0,1.0,454.0,527.0,0.0,0,2019.0,0
573,573,-0.1755345156393523,-0.2,1.0,0.0,440.0,895.0,0.0,0,1665.0,1
574,574,-0.4403163770236972,-0.4,0.0,1.0,443.0,780.0,0.0,1,1777.0,0
575,575,-0.11220741167410309,-0.1,1.0,0.0,302.0,506.0,0.0,0,2192.0,1
576,576,-0.07075766956319163,-0.1,1.0,0.0,297.0,760.0,0.0,0,1943.0,1
577,577,-0.6010225449917475,-0.6,0.0,1.0,423.0,732.0,0.0,1,1845.0,0
578,578,-0.7230013620135455,-0.7,1.0,0.0,270.0,541.0,0.0,0,2189.0,1
579,579,-0.14124994300619365,-0.1,0.0,1.0,451.0,560.0,0.0,1,1989.0,0
580,580,-0.6313040679501314,-0.6,0.0,1.0,359.0,604.0,0.0,1,2037.0,0
581,581,0.500417121504296,0.5,0.0,0.0,255.0,641.0,0.0,1,2104.0,1
582,582,-0.18638768724051136,-0.2,0.0,1.0,435.0,832.0,0.0,1,1733.0,0
583,583,0.12468403259551308,0.1,1.0,1.0,395.0,874.0,0.0,0,1731.0,0
584,584,-0.08355915214025267,-0.1,0.0,1.0,425.0,978.0,0.0,1,1597.0,0
585,585,0.7176900560127796,0.7,1.0,1.0,394.0,866.0,0.0,0,1740.0,0
586,586,-0.4575302414238659,-0.5,1.0,0.0,458.0,875.0,0.0,0,1667.0,1
587,587,0.2863485270934877,0.3,0.0,0.0,459.0,574.0,0.0,1,1967.0,1
588,588,-0.19928389877496921,-0.2,1.0,0.0,318.0,826.0,0.0,0,1856.0,1
589,589,-0.8748406278144752,-0.9,1.0,0.0,287.0,547.0,0.0,0,2166.0,1
590,590,0.7326499162130758,0.7,1.0,1.0,280.0,792.0,0.0,0,1928.0,0
591,591,0.538732102545522,0.5,0.0,0.0,355.0,648.0,0.0,1,1997.0,1
592,592,-0.0849453875236873,-0.1,1.0,0.0,460.0,759.0,0.0,0,-1189.0,1
593,593,0.273420539131192,0.3,1.0,1.0,415.0,761.0,0.0,0,1824.0,0
594,594,0.6292921069315952,0.6,0.0,0.0,443.0,712.0,0.0,1,1845.0,1
595,595,0.28832630085877187,0.3,1.0,1.0,497.0,533.0,0.0,0,1970.0,0
596,596,-0.724852425401884,-0.7,1.0,0.0,268.0,507.0,0.0,0,2225.0,1
597,597,0.886052246339167,0.9,1.0,1.0,455.0,876.0,0.0,0,-1311.0,0
598,598,0.5681793177141293,0.6,1.0,1.0,326.0,964.0,0.0,0,1710.0,0
599,599,-0.7068185708718047,-0.7,1.0,0.0,449.0,613.0,0.0,0,1938.0,1
600,600,-0.18740274664600232,-0.2,0.0,1.0,398.0,772.0,0.0,1,1830.0,0
601,601,-0.844986953887858,-0.8,1.0,0.0,475.0,857.0,0.0,0,1668.0,1
602,602,0.351693084064019,0.4,0.0,0.0,471.0,915.0,1.0,0,-1306.0,0
603,603,0.1917086012693886,0.2,0.0,0.0,359.0,532.0,0.0,1,2109.0,1
604,604,-0.5644101002047003,-0.6,0.0,1.0,383.0,950.0,0.0,1,1667.0,0
605,605,0.265626980117991,0.3,1.0,1.0,428.0,972.0,0.0,0,1600.0,0
606,606,0.29701490349800175,0.3,0.0,0.0,483.0,885.0,0.0,1,1632.0,1
607,607,0.7909319529371462,0.8,1.0,1.0,283.0,973.0,0.0,0,1744.0,0
608,608,0.6280473067876288,0.6,0.0,0.0,349.0,765.0,0.0,1,1886.0,1
609,609,-0.39399929299292213,-0.4,0.0,1.0,406.0,579.0,0.0,1,2015.0,0
610,610,-0.8668073591808156,-0.9,1.0,0.0,329.0,798.0,0.0,0,1873.0,1
611,611,-0.27812374118852745,-0.3,0.0,1.0,347.0,656.0,0.0,1,1997.0,0
612,612,-0.021550061444712054,-0.0,0.0,1.0,423.0,912.0,0.0,1,-1315.0,0
613,613,-0.12626605577686834,-0.1,1.0,0.0,439.0,519.0,0.0,0,2042.0,1
614,614,0.30463348273825697,0.3,1.0,1.0,355.0,685.0,0.0,0,1960.0,0
615,615,-0.7009957676645732,-0.7,1.0,0.0,408.0,547.0,0.0,0,-885.0,1
616,616,0.23351817304987665,0.2,0.0,0.0,460.0,600.0,0.0,1,1940.0,1
617,617,-0.5452938285925897,-0.5,1.0,0.0,279.0,696.0,0.0,0,2025.0,1
618,618,0.18290783071578776,0.2,1.0,1.0,274.0,888.0,0.0,0,1838.0,0
619,619,0.28251588837666264,0.3,0.0,0.0,260.0,909.0,0.0,1,1831.0,1
620,620,-0.686708365421858,-0.7,0.0,1.0,274.0,638.0,0.0,1,2088.0,0
621,621,-0.2129775840700785,-0.2,1.0,0.0,279.0,773.0,0.0,0,1948.0,1
622,622,0.16241903597662988,0.2,1.0,1.0,499.0,938.0,0.0,0,1563.0,0
623,623,0.07232443361069851,0.1,0.0,0.0,451.0,791.0,0.0,1,1758.0,1
624,624,-0.43910194745107217,-0.4,1.0,0.0,302.0,636.0,0.0,0,2062.0,1
625,625,0.11750285370453051,0.1,1.0,1.0,294.0,891.0,0.0,0,-1135.0,0
626,626,-0.7048487541733957,-0.7,0.0,1.0,368.0,664.0,0.0,1,1968.0,0
627,627,-0.08302507432876893,-0.1,0.0,1.0,473.0,613.0,0.0,1,1914.0,0
628,628,0.12935985993681853,0.1,0.0,0.0,389.0,777.0,0.0,1,1834.0,1
629,629,0.1078200318903847,0.1,1.0,1.0,388.0,931.0,0.0,0,1681.0,0
630,630,-0.8560212973189187,-0.9,1.0,0.0,498.0,918.0,0.0,0,1584.0,1
631,631,0.5158755510483434,0.5,0.0,0.0,309.0,600.0,0.0,1,2091.0,1
632,632,0.1578802221829091,0.2,0.0,0.0,413.0,825.0,0.0,1,1762.0,1
633,633,0.7396365513877098,0.7,1.0,1.0,389.0,856.0,0.0,0,-1235.0,0
634,634,0.6144573834107644,0.6,0.0,0.0,393.0,936.0,0.0,1,1671.0,1
635,635,0.25002363069175193,0.3,0.0,0.0,499.0,740.0,0.0,1,1761.0,1
636,636,-0.2951265591148524,-0.3,1.0,0.0,463.0,629.0,0.0,0,1908.0,1
637,637,-0.42635435247191883,-0.4,1.0,0.0,299.0,859.0,0.0,0,1842.0,1
638,638,0.1693581152643523,0.2,0.0,0.0,408.0,879.0,0.0,1,1713.0,1
639,639,-0.8628444208689591,-0.9,0.0,1.0,380.0,837.0,0.0,1,1783.0,0
640,640,0.2875721309217333,0.3,1.0,1.0,302.0,922.0,0.0,0,1776.0,0
641,641,-0.4109453011466026,-0.4,0.0,1.0,407.0,650.0,0.0,1,1943.0,0
642,642,-0.6252618136303298,-0.6,0.0,1.0,481.0,622.0,0.0,1,1897.0,0
643,643,-0.647635651150603,-0.6,0.0,1.0,301.0,573.0,0.0,1,2126.0,0
644,644,0.5880885738406926,0.6,0.0,0.0,275.0,515.0,0.0,1,2210.0,1
645,645,-0.8202894849503864,-0.8,1.0,0.0,357.0,617.0,0.0,0,2026.0,1
646,646,-0.6199232613116572,-0.6,1.0,0.0,372.0,748.0,0.0,0,-1100.0,1
647,647,-0.2930042751460614,-0.3,0.0,1.0,255.0,580.0,0.0,1,2165.0,0
648,648,0.6357853307035349,0.6,1.0,1.0,254.0,727.0,0.0,0,2019.0,0
649,649,0.46495289721099964,0.5,0.0,0.0,253.0,803.0,0.0,1,1944.0,1
650,650,-0.29903057100889474,-0.3,0.0,1.0,374.0,534.0,0.0,1,2092.0,0
651,651,-0.8814631342617274,-0.9,0.0,1.0,494.0,860.0,0.0,1,1646.0,0
652,652,0.03149429571938145,0.0,1.0,1.0,442.0,714.0,0.0,0,1844.0,0
653,653,0.7812555198293157,0.8,1.0,1.0,325.0,830.0,0.0,0,1845.0,0
654,654,0.6240547362408969,0.6,1.0,1.0,430.0,811.0,0.0,0,1759.0,0
655,655,0.3735728651567217,0.4,0.0,0.0,432.0,835.0,0.0,1,1733.0,1
656,656,-0.6927788177183508,-0.7,0.0,1.0,428.0,548.0,0.0,1,-976.0,0
657,657,-0.28428690691993286,-0.3,1.0,0.0,316.0,641.0,0.0,0,2043.0,1
658,658,0.5660836476266676,0.6,0.0,0.0,281.0,708.0,0.0,1,2011.0,1
659,659,-0.039311959855307776,-0.0,1.0,0.0,434.0,730.0,0.0,0,1836.0,1
660,660,0.6002002492298276,0.6,1.0,1.0,322.0,841.0,0.0,0,1837.0,0
661,661,-0.39505257744440125,-0.4,0.0,1.0,453.0,784.0,0.0,1,1763.0,0
662,662,-0.08617622751062837,-0.1,0.0,1.0,359.0,691.0,0.0,1,-1010.0,0
663,663,0.3159808379018977,0.3,1.0,1.0,398.0,990.0,0.0,0,1612.0,0
664,664,-0.3934844261064374,-0.4,1.0,0.0,449.0,704.0,0.0,0,1847.0,1
665,665,-0.7195536478130593,-0.7,1.0,0.0,317.0,905.0,0.0,0,1778.0,1
666,666,0.04359259398258353,0.0,1.0,1.0,288.0,880.0,0.0,0,1832.0,0
667,667,-0.7899550766740594,-0.8,1.0,0.0,380.0,839.0,0.0,0,1781.0,1
668,668,0.6964528941963929,0.7,1.0,1.0,470.0,508.0,0.0,0,2022.0,0
669,669,-0.17030078925360925,-0.2,0.0,1.0,309.0,863.0,0.0,1,-1162.0,0
670,670,-0.6885060347873224,-0.7,1.0,0.0,321.0,648.0,0.0,0,2031.0,1
671,671,0.018519725068587345,0.0,1.0,1.0,454.0,670.0,0.0,0,1876.0,0
672,672,0.5215121610878709,0.5,0.0,0.0,288.0,743.0,0.0,1,1969.0,1
673,673,0.11576163254065974,0.1,0.0,0.0,481.0,617.0,0.0,1,1902.0,1
674,674,0.07521172611565197,0.1,1.0,1.0,281.0,773.0,0.0,0,1946.0,0
675,675,0.588115947043932,0.6,1.0,1.0,363.0,940.0,0.0,0,1697.0,0
676,676,-0.3362397944213137,-0.3,0.0,1.0,368.0,527.0,0.0,1,2105.0,0
677,677,-0.1898763951558543,-0.2,1.0,0.0,435.0,587.0,0.0,0,1978.0,1
678,678,-0.6557726151096903,-0.7,1.0,0.0,391.0,627.0,0.0,0,1982.0,1
679,679,0.033858505183320564,0.0,1.0,1.0,378.0,876.0,0.0,0,1746.0,0
680,680,-0.029716229070037126,-0.0,0.0,1.0,463.0,829.0,0.0,1,1708.0,0
681,681,-0.023906574409817027,-0.0,0.0,1.0,469.0,606.0,0.0,1,1925.0,0
682,682,0.22465514378179352,0.2,0.0,0.0,392.0,875.0,0.0,1,1733.0,1
683,683,0.36582917798475767,0.4,1.0,1.0,488.0,854.0,0.0,0,1658.0,0
684,684,0.8813679113112692,0.9,1.0,1.0,382.0,675.0,0.0,0,1943.0,0
685,685,0.7471915923281577,0.7,1.0,1.0,334.0,580.0,1.0,1,-854.0,1
686,686,-0.8466833181973528,-0.8,1.0,0.0,423.0,922.0,0.0,0,1655.0,1
687,687,-0.6142816362125999,-0.6,1.0,0.0,332.0,611.0,1.0,1,-833.0,0
688,688,0.2531572267430614,0.3,0.0,0.0,285.0,512.0,0.0,1,2203.0,1
689,689,0.1261704137259677,0.1,0.0,0.0,388.0,941.0,0.0,1,1671.0,1
690,690,-0.7643515416090241,-0.8,1.0,0.0,496.0,944.0,0.0,0,1560.0,1
691,691,0.2409269665596382,0.2,1.0,1.0,495.0,930.0,0.0,0,1575.0,0
692,692,0.4309736901274265,0.4,1.0,1.0,487.0,909.0,0.0,0,1604.0,0
693,693,0.45184837997107363,0.5,1.0,1.0,414.0,871.0,1.0,1,-1265.0,1
694,694,-0.6853438308552239,-0.7,0.0,1.0,473.0,857.0,0.0,1,1670.0,0
695,695,-0.35119859649995244,-0.4,1.0,0.0,271.0,739.0,0.0,0,1990.0,1
696,696,-0.16588920873970214,-0.2,1.0,0.0,474.0,580.0,0.0,0,1946.0,1
697,697,0.4763610207159771,0.5,1.0,1.0,293.0,554.0,0.0,0,2153.0,0
698,698,-0.21540196441242,-0.2,1.0,0.0,420.0,819.0,0.0,0,1761.0,1
699,699,-0.7234364341699342,-0.7,0.0,1.0,343.0,883.0,0.0,1,1774.0,0
700,700,-0.8571650790635403,-0.9,1.0,0.0,485.0,646.0,0.0,0,1869.0,1
701,701,0.39793078060793297,0.4,1.0,1.0,496.0,581.0,0.0,0,1923.0,0
702,702,-0.5032885341826192,-0.5,0.0,1.0,305.0,837.0,0.0,1,1858.0,0
703,703,-0.6260760612067305,-0.6,0.0,1.0,487.0,674.0,0.0,1,1839.0,0
704,704,0.34577259847694364,0.3,0.0,0.0,463.0,601.0,0.0,1,1936.0,1
705,705,-0.6046090290671312,-0.6,0.0,1.0,259.0,621.0,0.0,1,2120.0,0
706,706,-0.12305842281852142,-0.1,0.0,1.0,420.0,592.0,0.0,1,1988.0,0
707,707,-0.48451727481797907,-0.5,1.0,0.0,471.0,544.0,0.0,0,1985.0,1
708,708,-0.696093564772924,-0.7,1.0,0.0,375.0,650.0,0.0,0,1975.0,1
709,709,-0.842989127490653,-0.8,1.0,0.0,481.0,821.0,0.0,0,1698.0,1
710,710,0.11015859601140121,0.1,0.0,0.0,254.0,640.0,0.0,1,2106.0,1
711,711,0.2885302326312479,0.3,0.0,0.0,295.0,579.0,0.0,1,2126.0,1
712,712,-0.14101336204905446,-0.1,0.0,1.0,408.0,866.0,0.0,1,1726.0,0
713,713,-0.010312864448664416,-0.0,1.0,0.0,270.0,764.0,0.0,0,1966.0,1
714,714,0.34495108757506043,0.3,0.0,0.0,450.0,924.0,0.0,1,1626.0,1
715,715,-0.6652039058698924,-0.7,1.0,0.0,487.0,735.0,0.0,0,1778.0,1
716,716,0.12927036079055376,0.1,1.0,1.0,490.0,981.0,0.0,0,1529.0,0
717,717,-0.4908874180909803,-0.5,0.0,1.0,268.0,946.0,0.0,1,1786.0,0
718,718,-0.5909078838812633,-0.6,0.0,1.0,375.0,583.0,0.0,1,2042.0,0
719,719,0.051593668276867066,0.1,0.0,0.0,427.0,895.0,0.0,1,1678.0,1
720,720,0.3588495416998879,0.4,0.0,0.0,419.0,888.0,0.0,1,1693.0,1
721,721,0.42349584137899676,0.4,1.0,1.0,470.0,875.0,0.0,0,1655.0,0
722,722,0.10819757628450011,0.1,1.0,1.0,342.0,995.0,0.0,0,1663.0,0
723,723,0.14424173260544026,0.1,0.0,0.0,308.0,879.0,0.0,1,1813.0,1
724,724,-0.5008674305894656,-0.5,0.0,1.0,477.0,936.0,0.0,1,1587.0,0
725,725,0.8058536995873514,0.8,0.0,0.0,312.0,503.0,0.0,1,2185.0,1
726,726,0.3613092162609416,0.4,0.0,0.0,456.0,814.0,0.0,1,1730.0,1
727,727,-0.1112430421706907,-0.1,0.0,1.0,262.0,900.0,0.0,1,1838.0,0
728,728,0.6997464722873769,0.7,1.0,1.0,308.0,515.0,0.0,0,2177.0,0
729,729,-0.7227455232940705,-0.7,1.0,0.0,297.0,662.0,1.0,1,-879.0,0
730,730,-0.0026605761996696398,-0.0,1.0,0.0,308.0,646.0,0.0,0,2046.0,1
731,731,0.5570991652704983,0.6,0.0,0.0,279.0,646.0,0.0,1,2075.0,1
732,732,-0.5908571026175322,-0.6,0.0,1.0,272.0,994.0,0.0,1,1734.0,0
733,733,0.000500817064020942,0.0,1.0,1.0,413.0,582.0,0.0,0,2005.0,0
734,734,-0.0020083573901734653,-0.0,0.0,1.0,369.0,887.0,0.0,1,1744.0,0
735,735,0.5655337595993496,0.6,1.0,1.0,274.0,967.0,0.0,0,1759.0,0
736,736,0.6974174288142284,0.7,1.0,1.0,466.0,563.0,0.0,0,1971.0,0
737,737,0.6833906990418753,0.7,0.0,0.0,257.0,519.0,1.0,0,-726.0,0
738,738,0.5079603976181258,0.5,0.0,0.0,289.0,514.0,0.0,1,2197.0,1
739,739,0.10026373296237845,0.1,1.0,1.0,443.0,725.0,0.0,0,1832.0,0
740,740,-0.3277535479492355,-0.3,1.0,0.0,319.0,998.0,0.0,0,1683.0,1
741,741,-0.46281816240521434,-0.5,0.0,1.0,269.0,862.0,0.0,1,1869.0,0
742,742,0.061573841052139255,0.1,1.0,1.0,265.0,568.0,0.0,0,2167.0,0
743,743,0.24049505753075107,0.2,0.0,0.0,492.0,696.0,0.0,1,1812.0,1
744,744,-0.2181856351410545,-0.2,1.0,0.0,497.0,820.0,0.0,0,1683.0,1
745,745,-0.48157870932866187,-0.5,1.0,0.0,330.0,747.0,0.0,0,1923.0,1
746,746,-0.6982254030252038,-0.7,0.0,1.0,270.0,675.0,0.0,1,2055.0,0
747,747,-0.2873245426191492,-0.3,0.0,1.0,358.0,991.0,0.0,1,-1329.0,0
748,748,-0.1878982502332499,-0.2,1.0,0.0,299.0,914.0,0.0,0,1787.0,1
749,749,0.18661609551918878,0.2,0.0,0.0,304.0,635.0,0.0,1,-939.0,1
750,750,0.4137927564166114,0.4,1.0,1.0,360.0,533.0,0.0,0,2107.0,0
751,751,-0.8254674329370734,-0.8,0.0,1.0,411.0,626.0,0.0,1,-937.0,0
752,752,0.2713350106189437,0.3,1.0,1.0,296.0,690.0,0.0,0,-986.0,0
753,753,-0.12760430147554136,-0.1,1.0,0.0,292.0,511.0,0.0,0,2197.0,1
754,754,0.8843130327860563,0.9,0.0,0.0,439.0,512.0,0.0,1,2049.0,1
755,755,0.4886847721110691,0.5,0.0,0.0,252.0,715.0,0.0,1,2033.0,1
756,756,0.24150705642705772,0.2,1.0,1.0,328.0,849.0,0.0,0,1823.0,0
757,757,-0.18239050381927135,-0.2,1.0,0.0,329.0,840.0,0.0,0,1831.0,1
758,758,0.11078773987678214,0.1,0.0,0.0,404.0,580.0,0.0,1,2016.0,1
759,759,-0.28842041049973144,-0.3,1.0,0.0,312.0,907.0,0.0,0,1781.0,1
760,760,-0.34246670649517497,-0.3,1.0,0.0,283.0,861.0,0.0,0,1856.0,1
761,761,0.027341199800145266,0.0,1.0,1.0,257.0,535.0,0.0,0,2208.0,0
762,762,0.6481767361560301,0.6,1.0,1.0,404.0,714.0,0.0,0,1882.0,0
763,763,0.8272217177804199,0.8,1.0,1.0,478.0,749.0,0.0,0,1773.0,0
764,764,0.11585413332077599,0.1,0.0,0.0,398.0,554.0,0.0,1,2048.0,1
765,765,-0.770585052755421,-0.8,0.0,1.0,357.0,633.0,0.0,1,2010.0,0
766,766,-0.5219017822838912,-0.5,1.0,0.0,483.0,874.0,0.0,0,1643.0,1
767,767,-0.19249659899748128,-0.2,0.0,1.0,394.0,908.0,0.0,1,1698.0,0
768,768,0.7054145212732587,0.7,0.0,0.0,384.0,693.0,0.0,1,1923.0,1
769,769,0.24913774874350836,0.2,1.0,1.0,261.0,710.0,0.0,0,2029.0,0
770,770,-0.08696279287257613,-0.1,1.0,0.0,261.0,928.0,0.0,0,1811.0,1
771,771,0.8783580296423529,0.9,0.0,0.0,283.0,505.0,0.0,1,2212.0,1
772,772,0.14179272849416125,0.1,0.0,0.0,424.0,784.0,0.0,1,1792.0,1
773,773,-0.38820767489586827,-0.4,1.0,0.0,488.0,576.0,0.0,0,-1034.0,1
774,774,-0.6341426946846336,-0.6,0.0,1.0,441.0,544.0,0.0,1,2015.0,0
775,775,0.22771698291620657,0.2,1.0,1.0,311.0,753.0,0.0,0,1936.0,0
776,776,-0.26645006020206574,-0.3,0.0,1.0,387.0,613.0,0.0,1,2000.0,0
777,777,0.134598193148313,0.1,1.0,1.0,400.0,551.0,0.0,0,2049.0,0
778,778,-0.8627164506086268,-0.9,0.0,1.0,261.0,560.0,0.0,1,2179.0,0
779,779,0.1055710272504401,0.1,0.0,0.0,403.0,711.0,0.0,1,1886.0,1
780,780,-0.6479904886582584,-0.6,1.0,0.0,304.0,686.0,0.0,0,2010.0,1
781,781,-0.10847781861362116,-0.1,1.0,0.0,421.0,848.0,0.0,0,1731.0,1
782,782,-0.7792746639023768,-0.8,0.0,1.0,439.0,826.0,0.0,1,-1205.0,0
783,783,0.7465191067357989,0.7,0.0,0.0,422.0,991.0,0.0,1,1587.0,1
784,784,-0.67210498599867,-0.7,0.0,1.0,263.0,774.0,0.0,1,1963.0,0
785,785,-0.05946228686955002,-0.1,1.0,0.0,259.0,652.0,0.0,0,2089.0,1
786,786,-0.6278513497067166,-0.6,1.0,0.0,385.0,973.0,0.0,0,1642.0,1
787,787,-0.5077233836714261,-0.5,1.0,0.0,258.0,993.0,0.0,0,1749.0,1
788,788,0.16555089794875488,0.2,1.0,1.0,250.0,560.0,1.0,1,-780.0,1
789,789,-0.6997733292180435,-0.7,0.0,1.0,486.0,937.0,0.0,1,1577.0,0
790,790,0.8220655752055966,0.8,1.0,1.0,478.0,930.0,0.0,0,1592.0,0
791,791,0.7708026398465754,0.8,1.0,1.0,251.0,831.0,0.0,0,1918.0,0
792,792,-0.2764424507391646,-0.3,0.0,1.0,308.0,529.0,0.0,1,2163.0,0
793,793,-0.561591110178674,-0.6,0.0,1.0,415.0,864.0,0.0,1,1721.0,0
794,794,0.49103399326788233,0.5,1.0,1.0,445.0,853.0,0.0,0,1702.0,0
795,795,0.013182849172237998,0.0,0.0,0.0,336.0,804.0,0.0,1,1860.0,1
796,796,-0.5476825882517927,-0.5,0.0,1.0,390.0,883.0,0.0,1,1727.0,0
797,797,-0.7436743224353585,-0.7,0.0,1.0,371.0,616.0,0.0,1,2013.0,0
798,798,0.4632730874924563,0.5,1.0,1.0,483.0,655.0,0.0,0,1862.0,0
799,799,-0.19260577653380584,-0.2,0.0,1.0,355.0,551.0,0.0,1,-876.0,0
800,800,-0.12958536063490111,-0.1,1.0,0.0,471.0,867.0,0.0,0,1662.0,1
801,801,0.05609002453098555,0.1,1.0,1.0,445.0,854.0,0.0,0,1701.0,0
802,802,0.7382434061794426,0.7,0.0,0.0,335.0,740.0,0.0,1,1925.0,1
803,803,0.7760065043293111,0.8,1.0,1.0,303.0,645.0,0.0,0,2052.0,0
804,804,-0.8833746553378574,-0.9,0.0,1.0,438.0,647.0,0.0,1,1915.0,0
805,805,0.17616337901744827,0.2,1.0,1.0,253.0,785.0,0.0,0,1962.0,0
806,806,-0.37047151242039833,-0.4,0.0,1.0,448.0,887.0,0.0,1,1665.0,0
807,807,-0.6181059949571422,-0.6,0.0,1.0,250.0,704.0,0.0,1,2046.0,0
808,808,0.05669586049881137,0.1,1.0,1.0,497.0,832.0,0.0,0,1671.0,0
809,809,0.5036487809458875,0.5,0.0,0.0,481.0,614.0,0.0,1,1905.0,1
810,810,0.7538630495767688,0.8,1.0,1.0,420.0,868.0,0.0,0,1712.0,0
811,811,0.7822430725850488,0.8,0.0,0.0,424.0,994.0,0.0,1,1582.0,1
812,812,0.7989646798754585,0.8,0.0,0.0,495.0,886.0,0.0,1,1619.0,1
813,813,0.14518184608189555,0.1,1.0,1.0,363.0,863.0,0.0,0,1774.0,0
814,814,-0.7753228269512816,-0.8,1.0,0.0,371.0,954.0,0.0,0,1675.0,1
815,815,-0.7059297789600433,-0.7,0.0,1.0,481.0,659.0,0.0,1,1860.0,0
816,816,0.3144222664936006,0.3,0.0,0.0,334.0,910.0,0.0,1,1756.0,1
817,817,0.5355211732224819,0.5,0.0,0.0,471.0,725.0,0.0,1,1804.0,1
818,818,0.7167401206944125,0.7,0.0,0.0,409.0,580.0,0.0,1,2011.0,1
819,819,-0.600011024647767,-0.6,0.0,1.0,424.0,916.0,0.0,1,-1290.0,0
820,820,-0.3993466930853814,-0.4,1.0,0.0,297.0,986.0,0.0,0,1717.0,1
821,821,0.18707933078061878,0.2,0.0,0.0,280.0,923.0,0.0,1,1797.0,1
822,822,0.43656141461987363,0.4,1.0,1.0,371.0,964.0,0.0,0,1665.0,0
823,823,0.42961459255796586,0.4,1.0,1.0,366.0,982.0,0.0,0,1652.0,0
824,824,0.36740296673304085,0.4,0.0,0.0,361.0,567.0,0.0,1,2072.0,1
825,825,-0.8787398595902366,-0.9,1.0,0.0,475.0,869.0,0.0,0,1656.0,1
826,826,-0.8463853965899198,-0.8,0.0,1.0,436.0,638.0,0.0,1,1926.0,0
827,827,0.7512319524652323,0.8,1.0,1.0,283.0,691.0,0.0,0,2026.0,0
828,828,0.41293373243800013,0.4,0.0,0.0,272.0,562.0,0.0,1,2166.0,1
829,829,0.8576097110233224,0.9,0.0,0.0,405.0,549.0,0.0,1,2046.0,1
830,830,-0.7993719941322334,-0.8,0.0,1.0,402.0,779.0,0.0,1,1819.0,0
831,831,-0.09196762460843655,-0.1,0.0,1.0,414.0,658.0,0.0,1,1928.0,0
832,832,-0.44138561330784226,-0.4,0.0,1.0,289.0,883.0,0.0,1,1828.0,0
833,833,-0.1451804523138832,-0.1,0.0,1.0,425.0,629.0,0.0,1,1946.0,0
834,834,0.8220685985036186,0.8,0.0,0.0,312.0,704.0,0.0,1,1984.0,1
835,835,0.03552239327883322,0.0,1.0,1.0,343.0,518.0,1.0,1,-841.0,1
836,836,0.5382908520373967,0.5,1.0,1.0,394.0,929.0,0.0,0,1677.0,0
837,837,0.5476026499909866,0.5,1.0,1.0,344.0,970.0,0.0,0,1686.0,0
838,838,-0.8236096418566717,-0.8,0.0,1.0,349.0,701.0,0.0,1,1950.0,0
839,839,-0.1805097091081559,-0.2,0.0,1.0,427.0,591.0,0.0,1,1982.0,0
840,840,-0.5628448619483424,-0.6,0.0,1.0,290.0,510.0,0.0,1,2200.0,0
841,841,0.6095363919154054,0.6,1.0,1.0,415.0,608.0,0.0,0,1977.0,0
842,842,-0.5211373100934266,-0.5,1.0,0.0,315.0,690.0,1.0,1,-965.0,0
843,843,-0.7899003182813724,-0.8,1.0,0.0,276.0,584.0,0.0,0,2140.0,1
844,844,0.810220369989885,0.8,1.0,1.0,316.0,694.0,0.0,0,1990.0,0
845,845,-0.8586682857830861,-0.9,1.0,0.0,309.0,664.0,0.0,0,2027.0,1
846,846,-0.3510242177919731,-0.4,0.0,1.0,421.0,563.0,0.0,1,2016.0,0
847,847,-0.043864773426475434,-0.0,0.0,1.0,455.0,910.0,0.0,1,1635.0,0
848,848,-0.14811254202830415,-0.1,1.0,0.0,261.0,800.0,0.0,0,1939.0,1
849,849,0.6315013389464151,0.6,1.0,1.0,257.0,891.0,0.0,0,1852.0,0
850,850,0.25380247931497546,0.3,1.0,1.0,492.0,575.0,1.0,1,-1007.0,1
851,851,-0.8577973386838614,-0.9,0.0,1.0,434.0,709.0,0.0,1,1857.0,0
852,852,0.8190471456977279,0.8,1.0,1.0,490.0,884.0,0.0,0,1626.0,0
853,853,0.23197188217543607,0.2,1.0,1.0,487.0,959.0,0.0,0,1554.0,0
854,854,0.7025861082066639,0.7,1.0,1.0,253.0,742.0,0.0,0,2005.0,0
855,855,0.2560326020022853,0.3,1.0,1.0,310.0,804.0,0.0,0,1886.0,0
856,856,0.5816845794294175,0.6,1.0,1.0,348.0,774.0,0.0,0,1878.0,0
857,857,-0.5969215646317768,-0.6,1.0,0.0,285.0,690.0,0.0,0,-965.0,1
858,858,-0.7439609470161435,-0.7,0.0,1.0,362.0,602.0,0.0,1,2036.0,0
859,859,-0.7400586195815976,-0.7,1.0,0.0,369.0,638.0,0.0,0,1993.0,1
860,860,-0.07377812453561794,-0.1,1.0,0.0,358.0,959.0,0.0,0,1683.0,1
861,861,-0.7308466653592505,-0.7,1.0,0.0,354.0,867.0,0.0,0,1779.0,1
862,862,0.6062258009171425,0.6,0.0,0.0,431.0,876.0,0.0,1,1693.0,1
863,863,0.4462755819724388,0.4,0.0,0.0,348.0,940.0,0.0,1,1712.0,1
864,864,-0.7581361408038853,-0.8,1.0,0.0,347.0,843.0,0.0,0,1810.0,1
865,865,-0.32025257887033,-0.3,1.0,0.0,432.0,675.0,0.0,0,1893.0,1
866,866,0.6734609292010899,0.7,1.0,1.0,411.0,728.0,0.0,0,1861.0,0
867,867,-0.29154126831287275,-0.3,0.0,1.0,378.0,726.0,0.0,1,1896.0,0
868,868,0.8236646298152775,0.8,1.0,1.0,432.0,927.0,0.0,0,1641.0,0
869,869,-0.6647487277254737,-0.7,0.0,1.0,376.0,813.0,0.0,1,1811.0,0
870,870,-0.23334228631861909,-0.2,1.0,0.0,310.0,635.0,0.0,0,2055.0,1
871,871,0.3348689909721255,0.3,1.0,1.0,364.0,859.0,1.0,1,-1213.0,1
872,872,0.8177997595046832,0.8,1.0,1.0,395.0,548.0,0.0,0,2057.0,0
873,873,-0.301489848984666,-0.3,1.0,0.0,468.0,955.0,0.0,0,1577.0,1
874,874,-0.36957006054053665,-0.4,0.0,1.0,384.0,610.0,0.0,1,2006.0,0
875,875,0.2727631175284061,0.3,0.0,0.0,408.0,890.0,0.0,1,1702.0,1
876,876,0.4950647597042136,0.5,0.0,0.0,270.0,614.0,0.0,1,2116.0,1
877,877,0.08081021616358763,0.1,0.0,0.0,263.0,776.0,0.0,1,1961.0,1
878,878,0.1654201812912438,0.2,0.0,0.0,269.0,559.0,0.0,1,2172.0,1
879,879,0.6992182865297826,0.7,0.0,0.0,451.0,821.0,0.0,1,1728.0,1
880,880,-0.010869340021587903,-0.0,1.0,0.0,410.0,563.0,0.0,0,2027.0,1
881,881,0.8963471725128725,0.9,1.0,1.0,288.0,509.0,0.0,0,2203.0,0
882,882,0.30646471919672813,0.3,0.0,0.0,345.0,751.0,0.0,1,1904.0,1
883,883,-0.5530834380668916,-0.6,1.0,0.0,419.0,999.0,0.0,0,1582.0,1
884,884,-0.14323190560567434,-0.1,0.0,1.0,370.0,951.0,0.0,1,1679.0,0
885,885,-0.8772947647706092,-0.9,1.0,0.0,331.0,553.0,0.0,0,2116.0,1
886,886,0.41849270603795297,0.4,0.0,0.0,476.0,763.0,0.0,1,1761.0,1
887,887,0.8971097575959764,0.9,0.0,0.0,381.0,709.0,1.0,0,-1080.0,0
888,888,-0.02667818966152824,-0.0,0.0,1.0,266.0,627.0,0.0,1,2107.0,0
889,889,0.22124730253428992,0.2,1.0,1.0,352.0,795.0,0.0,0,1853.0,0
890,890,-0.36479523099672595,-0.4,0.0,1.0,394.0,842.0,0.0,1,1764.0,0
891,891,-0.5474638589450145,-0.5,1.0,0.0,425.0,623.0,0.0,0,1952.0,1
892,892,0.1753558379982837,0.2,1.0,1.0,386.0,969.0,0.0,0,1645.0,0
893,893,-0.741240086990359,-0.7,0.0,1.0,467.0,510.0,0.0,1,2023.0,0
894,894,0.2475818481987505,0.2,1.0,1.0,493.0,585.0,0.0,0,1922.0,0
895,895,-0.19399101184453427,-0.2,1.0,0.0,353.0,941.0,0.0,0,1706.0,1
896,896,-0.46466225681606993,-0.5,0.0,1.0,437.0,775.0,0.0,1,1788.0,0
897,897,0.11682833772304246,0.1,0.0,0.0,313.0,799.0,0.0,1,1888.0,1
898,898,0.42233484555388145,0.4,1.0,1.0,322.0,602.0,0.0,0,2076.0,0
899,899,-0.6459068651832593,-0.6,1.0,0.0,278.0,813.0,0.0,0,1909.0,1
900,900,0.6797638715127244,0.7,0.0,0.0,402.0,793.0,0.0,1,1805.0,1
901,901,-0.4300265314489467,-0.4,1.0,0.0,350.0,812.0,0.0,0,-1092.0,1
902,902,-0.3042831638931035,-0.3,1.0,0.0,329.0,771.0,0.0,0,1900.0,1
903,903,0.33929770031251183,0.3,1.0,1.0,331.0,634.0,0.0,0,2035.0,0
904,904,-0.2573524515436394,-0.3,1.0,0.0,379.0,604.0,0.0,0,2017.0,1
905,905,0.5353095308945212,0.5,1.0,1.0,395.0,665.0,0.0,0,1940.0,0
906,906,0.05806596845363776,0.1,1.0,1.0,469.0,613.0,0.0,0,1918.0,0
907,907,-0.6251705166507076,-0.6,1.0,0.0,449.0,760.0,0.0,0,1791.0,1
908,908,0.4423835586445676,0.4,0.0,0.0,491.0,823.0,0.0,1,1686.0,1
909,909,0.3515913089939927,0.4,1.0,1.0,392.0,715.0,0.0,0,1893.0,0
910,910,-0.7497828086679411,-0.7,0.0,1.0,347.0,558.0,0.0,1,2095.0,0
911,911,0.730547019421152,0.7,1.0,1.0,489.0,735.0,0.0,0,1776.0,0
912,912,-0.5762483428629368,-0.6,1.0,0.0,403.0,526.0,0.0,0,2071.0,1
913,913,0.6561683386446912,0.7,0.0,0.0,275.0,999.0,0.0,1,1726.0,1
914,914,-0.38958953125614004,-0.4,0.0,1.0,459.0,920.0,0.0,1,1621.0,0
915,915,-0.5397220317839551,-0.5,1.0,0.0,327.0,976.0,0.0,0,1697.0,1
916,916,0.3079727679069483,0.3,1.0,1.0,399.0,948.0,0.0,0,1653.0,0
917,917,-0.6315823802235951,-0.6,0.0,1.0,291.0,849.0,0.0,1,1860.0,0
918,918,0.37978868624398554,0.4,0.0,0.0,442.0,960.0,0.0,1,1598.0,1
919,919,-0.8243443172320268,-0.8,1.0,0.0,375.0,952.0,0.0,0,1673.0,1
920,920,-0.22535611712145487,-0.2,0.0,1.0,270.0,810.0,0.0,1,1920.0,0
921,921,0.7561850051771374,0.8,1.0,1.0,424.0,986.0,0.0,0,1590.0,0
922,922,0.224038795126838,0.2,0.0,0.0,378.0,770.0,0.0,1,1852.0,1
923,923,-0.6883562452148618,-0.7,0.0,1.0,270.0,637.0,0.0,1,2093.0,0
924,924,-0.12125477022196662,-0.1,1.0,0.0,491.0,632.0,0.0,0,-1083.0,1
925,925,0.614364594431032,0.6,0.0,0.0,289.0,973.0,0.0,1,1738.0,1
926,926,0.5731930251230225,0.6,1.0,1.0,266.0,969.0,0.0,0,1765.0,0
927,927,0.2587280454874329,0.3,0.0,0.0,284.0,952.0,0.0,1,1764.0,1
928,928,0.24764174630155333,0.2,0.0,0.0,387.0,757.0,0.0,1,1856.0,1
929,929,0.06507939585717937,0.1,0.0,0.0,312.0,567.0,0.0,1,2121.0,1
930,930,0.4024024486051808,0.4,0.0,0.0,268.0,848.0,0.0,1,1884.0,1
931,931,0.8370982620414408,0.8,0.0,0.0,281.0,835.0,0.0,1,1884.0,1
932,932,0.3726139032500483,0.4,0.0,0.0,490.0,617.0,0.0,1,1893.0,1
933,933,0.32781418981444077,0.3,1.0,1.0,416.0,501.0,0.0,0,2083.0,0
934,934,-0.6383400820608236,-0.6,0.0,1.0,273.0,919.0,0.0,1,1808.0,0
935,935,-0.53359622852197,-0.5,0.0,1.0,448.0,702.0,0.0,1,1850.0,0
936,936,-0.8599965496977994,-0.9,1.0,0.0,343.0,524.0,0.0,0,2133.0,1
937,937,-0.06251031367251136,-0.1,0.0,1.0,311.0,621.0,0.0,1,2068.0,0
938,938,0.6748001304282089,0.7,1.0,1.0,349.0,667.0,0.0,0,1984.0,0
939,939,-0.6633495218153106,-0.7,1.0,0.0,363.0,996.0,0.0,0,1641.0,1
940,940,0.8476641425427439,0.8,1.0,1.0,396.0,611.0,0.0,0,1993.0,0
941,941,0.1902747319378778,0.2,1.0,1.0,319.0,756.0,0.0,0,1925.0,0
942,942,0.3613783396819815,0.4,1.0,1.0,452.0,516.0,0.0,0,-958.0,0
943,943,0.16720207506738893,0.2,0.0,0.0,492.0,916.0,0.0,1,1592.0,1
944,944,0.10448594011459711,0.1,1.0,1.0,376.0,699.0,0.0,0,1925.0,0
945,945,-0.5619784730631077,-0.6,0.0,1.0,293.0,505.0,0.0,1,2202.0,0
946,946,0.7244159204071993,0.7,1.0,1.0,331.0,874.0,0.0,0,1795.0,0
947,947,-0.07521642200458878,-0.1,1.0,0.0,290.0,690.0,0.0,0,2020.0,1
948,948,-0.4297410414538014,-0.4,0.0,1.0,362.0,772.0,0.0,1,1866.0,0
949,949,-0.3083438128317645,-0.3,0.0,1.0,326.0,828.0,1.0,0,-1094.0,1
950,950,-0.23772343649442562,-0.2,0.0,1.0,367.0,840.0,0.0,1,1793.0,0
951,951,-0.11003273053509444,-0.1,1.0,0.0,312.0,792.0,0.0,0,1896.0,1
952,952,-0.87558260609898,-0.9,0.0,1.0,439.0,731.0,1.0,0,-1140.0,1
953,953,-0.6318757821092627,-0.6,0.0,1.0,324.0,797.0,0.0,1,1879.0,0
954,954,0.19732643808059314,0.2,0.0,0.0,318.0,623.0,0.0,1,2059.0,1
955,955,0.5620297222089835,0.6,1.0,1.0,472.0,972.0,0.0,0,1556.0,0
956,956,0.6511668582207858,0.7,1.0,1.0,392.0,765.0,0.0,0,1843.0,0
957,957,-0.5225444517023554,-0.5,1.0,0.0,267.0,789.0,0.0,0,1944.0,1
958,958,-0.7524071438249273,-0.8,1.0,0.0,436.0,934.0,0.0,0,1630.0,1
959,959,0.08804594473007687,0.1,0.0,0.0,287.0,894.0,0.0,1,1819.0,1
960,960,0.6803224517743757,0.7,0.0,0.0,386.0,963.0,0.0,1,1651.0,1
961,961,0.1712524954745117,0.2,0.0,0.0,328.0,975.0,0.0,1,1697.0,1
962,962,0.10175374869749654,0.1,0.0,0.0,291.0,668.0,0.0,1,2041.0,1
963,963,-0.21199303910524037,-0.2,1.0,0.0,495.0,550.0,0.0,0,1955.0,1
964,964,-0.20720878683502153,-0.2,0.0,1.0,468.0,712.0,0.0,1,1820.0,0
965,965,-0.23840733888928856,-0.2,0.0,1.0,270.0,819.0,0.0,1,1911.0,0
966,966,0.18275529783225963,0.2,0.0,0.0,392.0,796.0,0.0,1,1812.0,1
967,967,-0.5098979533697983,-0.5,1.0,0.0,309.0,748.0,0.0,0,1943.0,1
968,968,0.03247444087065865,0.0,0.0,0.0,317.0,602.0,0.0,1,2081.0,1
969,969,-0.11425644255200651,-0.1,1.0,0.0,430.0,953.0,0.0,0,1617.0,1
970,970,0.3525690656574344,0.4,1.0,1.0,398.0,657.0,0.0,0,1945.0,0
971,971,0.2886517779632164,0.3,1.0,1.0,487.0,611.0,0.0,0,1902.0,0
972,972,-0.12451485001946017,-0.1,1.0,0.0,413.0,853.0,0.0,0,1734.0,1
973,973,-0.1704483423893114,-0.2,0.0,1.0,451.0,600.0,0.0,1,-1031.0,0
974,974,-0.31546008280997695,-0.3,0.0,1.0,336.0,703.0,0.0,1,1961.0,0
975,975,-0.08002111856141658,-0.1,0.0,1.0,273.0,865.0,0.0,1,1862.0,0
976,976,0.5522564262319113,0.6,1.0,1.0,448.0,543.0,0.0,0,2009.0,0
977,977,-0.8571741967469512,-0.9,0.0,1.0,394.0,735.0,0.0,1,1871.0,0
978,978,0.18375571034451255,0.2,0.0,0.0,359.0,543.0,0.0,1,2098.0,1
979,979,-0.3206318175692585,-0.3,1.0,0.0,281.0,906.0,0.0,0,-1147.0,1
980,980,0.2806364280639789,0.3,0.0,0.0,282.0,698.0,0.0,1,2020.0,1
981,981,-0.12479103981397033,-0.1,1.0,0.0,366.0,722.0,0.0,0,1912.0,1
982,982,-0.8469905246479608,-0.8,0.0,1.0,298.0,644.0,0.0,1,2058.0,0
983,983,-0.3258610852916386,-0.3,0.0,1.0,474.0,942.0,0.0,1,1584.0,0
984,984,0.47007536641836,0.5,1.0,1.0,396.0,734.0,0.0,0,1870.0,0
985,985,0.43867869614857813,0.4,0.0,0.0,338.0,648.0,0.0,1,2014.0,1
986,986,-0.8359208765619427,-0.8,1.0,0.0,369.0,997.0,0.0,0,1634.0,1
987,987,0.27091397072335777,0.3,1.0,1.0,353.0,574.0,0.0,0,2073.0,0
988,988,-0.19063001819430136,-0.2,1.0,0.0,296.0,958.0,0.0,0,1746.0,1
989,989,0.295755139059671,0.3,0.0,0.0,361.0,641.0,0.0,1,1998.0,1
990,990,0.07253454932701564,0.1,0.0,0.0,484.0,604.0,0.0,1,1912.0,1
991,991,-0.3311117067389755,-0.3,0.0,1.0,291.0,997.0,0.0,1,1712.0,0
992,992,-0.03683572732727047,-0.0,0.0,1.0,252.0,884.0,0.0,1,1864.0,0
993,993,0.23494795019306836,0.2,1.0,1.0,322.0,715.0,0.0,0,1963.0,0
994,994,0.7836480510916252,0.8,0.0,0.0,310.0,639.0,0.0,1,2051.0,1
995,995,-0.6957582990346901,-0.7,0.0,1.0,320.0,757.0,0.0,1,1923.0,0
996,996,0.7597883203612535,0.8,1.0,1.0,461.0,571.0,0.0,0,1968.0,0
997,997,0.03133463661737068,0.0,0.0,0.0,312.0,569.0,0.0,1,2119.0,1
998,998,0.22448372775330994,0.2,0.0,0.0,303.0,595.0,0.0,1,2102.0,1
999,999,-0.861029599006388,-0.9,1.0,0.0,408.0,613.0,0.0,0,1979.0,1
1000,1000,-0.2480919162039793,-0.2,0.0,1.0,499.0,603.0,0.0,1,1898.0,0
1001,1001,-0.8279099042524445,-0.8,0.0,1.0,337.0,989.0,0.0,1,1674.0,0
1002,1002,-0.5030543381243991,-0.5,0.0,1.0,381.0,937.0,0.0,1,-1208.0,0
1003,1003,0.7513294700176302,0.8,0.0,0.0,331.0,820.0,0.0,1,1849.0,1
1004,1004,0.5627342493055846,0.6,0.0,0.0,279.0,934.0,0.0,1,1787.0,1
1005,1005,0.7593888115789221,0.8,0.0,0.0,335.0,718.0,0.0,1,1947.0,1
1006,1006,-0.7238050824086005,-0.7,0.0,1.0,457.0,991.0,0.0,1,1552.0,0
1007,1007,-0.591419144348053,-0.6,0.0,1.0,391.0,510.0,0.0,1,2099.0,0
1008,1008,-0.6646457444097271,-0.7,0.0,1.0,285.0,638.0,0.0,1,2077.0,0
1009,1009,-0.3615214541910984,-0.4,0.0,1.0,380.0,872.0,0.0,1,1748.0,0
1010,1010,-0.1447038502206408,-0.1,1.0,0.0,253.0,709.0,0.0,0,2038.0,1
1011,1011,0.4261518527566023,0.4,0.0,0.0,416.0,582.0,0.0,1,-958.0,1
1012,1012,0.4245668822717149,0.4,0.0,0.0,461.0,748.0,1.0,0,-1159.0,0
1013,1013,0.5510721393149604,0.6,1.0,1.0,478.0,621.0,0.0,0,1901.0,0
1014,1014,0.08624646115953405,0.1,1.0,1.0,306.0,892.0,0.0,0,1802.0,0
1015,1015,-0.8813333323402908,-0.9,0.0,1.0,425.0,694.0,0.0,1,1881.0,0
1016,1016,-0.8242609783528894,-0.8,1.0,0.0,353.0,743.0,0.0,0,1904.0,1
1017,1017,0.11669871716640678,0.1,0.0,0.0,398.0,989.0,0.0,1,1613.0,1
1018,1018,0.16234395880659813,0.2,1.0,1.0,375.0,712.0,0.0,0,1913.0,0
1019,1019,0.26927945944992715,0.3,1.0,1.0,273.0,627.0,0.0,0,2100.0,0
1020,1020,0.12060410235636343,0.1,0.0,0.0,412.0,543.0,0.0,1,2045.0,1
1021,1021,-0.7707255677811975,-0.8,0.0,1.0,313.0,869.0,0.0,1,1818.0,0
1022,1022,-0.05390402399148386,-0.1,1.0,0.0,453.0,630.0,0.0,0,1917.0,1
1023,1023,-0.6796753835626663,-0.7,0.0,1.0,380.0,888.0,0.0,1,1732.0,0
1024,1024,-0.8601198857655461,-0.9,1.0,0.0,357.0,989.0,0.0,0,1654.0,1
1025,1025,-0.1790716394695756,-0.2,0.0,1.0,257.0,942.0,0.0,1,-1149.0,0
1026,1026,-0.7076362616539253,-0.7,0.0,1.0,373.0,962.0,0.0,1,1665.0,0
1027,1027,-0.12238839599577123,-0.1,1.0,0.0,355.0,672.0,0.0,0,1973.0,1
1028,1028,-0.14570625918812186,-0.1,0.0,1.0,330.0,529.0,0.0,1,2141.0,0
1029,1029,0.7238669845126976,0.7,1.0,1.0,410.0,548.0,0.0,0,2042.0,0
1030,1030,0.2037303704657879,0.2,0.0,0.0,284.0,742.0,0.0,1,1974.0,1
1031,1031,0.44371581363853874,0.4,1.0,1.0,471.0,592.0,0.0,0,1937.0,0
1032,1032,-0.35993249204720423,-0.4,1.0,0.0,469.0,996.0,0.0,0,1535.0,1
1033,1033,0.5811773339032053,0.6,0.0,0.0,437.0,925.0,0.0,1,1638.0,1
1034,1034,0.43739494255277556,0.4,0.0,0.0,437.0,526.0,0.0,1,2037.0,1
1035,1035,0.4068003502018288,0.4,1.0,1.0,298.0,843.0,0.0,0,1859.0,0
1036,1036,-0.6482695284984328,-0.6,1.0,0.0,475.0,904.0,0.0,0,1621.0,1
1037,1037,0.005332875351871991,0.0,1.0,1.0,351.0,813.0,0.0,0,1836.0,0
1038,1038,-0.3315274676504456,-0.3,1.0,0.0,367.0,918.0,0.0,0,1715.0,1
1039,1039,0.3131036671673536,0.3,0.0,0.0,457.0,932.0,0.0,1,1611.0,1
1040,1040,-0.024167253014390044,-0.0,1.0,0.0,328.0,982.0,1.0,1,-1270.0,0
1041,1041,0.10544135914868502,0.1,1.0,1.0,425.0,812.0,0.0,0,1763.0,0
1042,1042,-0.4692686277274715,-0.5,0.0,1.0,481.0,982.0,0.0,1,1537.0,0
1043,1043,-0.13579504555829647,-0.1,0.0,1.0,446.0,742.0,0.0,1,1812.0,0
1044,1044,0.3430229310688665,0.3,0.0,0.0,269.0,768.0,0.0,1,1963.0,1
1045,1045,-0.7123138665154087,-0.7,1.0,0.0,259.0,946.0,0.0,0,1795.0,1
1046,1046,0.5698993441380539,0.6,0.0,0.0,490.0,735.0,0.0,1,1775.0,1
1047,1047,-0.6662468740941491,-0.7,0.0,1.0,336.0,591.0,0.0,1,2073.0,0
1048,1048,-0.24649207376286497,-0.2,0.0,1.0,336.0,832.0,0.0,1,1832.0,0
1049,1049,-0.40933583739498136,-0.4,1.0,0.0,278.0,785.0,0.0,0,1937.0,1
1050,1050,0.6939258298666268,0.7,0.0,0.0,494.0,956.0,0.0,1,1550.0,1
1051,1051,0.09780431281566826,0.1,0.0,0.0,419.0,696.0,0.0,1,1885.0,1
1052,1052,0.7812373383488288,0.8,0.0,0.0,435.0,571.0,0.0,1,1994.0,1
1053,1053,0.28751638969235926,0.3,1.0,1.0,372.0,510.0,0.0,0,2118.0,0
1054,1054,-0.6677590945726029,-0.7,0.0,1.0,461.0,645.0,0.0,1,1894.0,0
1055,1055,-0.8348300874477698,-0.8,1.0,0.0,349.0,953.0,1.0,1,-1242.0,0
1056,1056,-0.805948290478576,-0.8,1.0,0.0,477.0,853.0,0.0,0,1670.0,1
1057,1057,-0.8723251587210215,-0.9,1.0,0.0,404.0,794.0,0.0,0,1802.0,1
1058,1058,0.7000408824576111,0.7,1.0,1.0,263.0,956.0,0.0,0,1781.0,0
1059,1059,-0.854628588429066,-0.9,1.0,0.0,464.0,600.0,0.0,0,-1014.0,1
1060,1060,0.7847652079631705,0.8,0.0,0.0,278.0,512.0,1.0,0,-770.0,0
1061,1061,-0.04232106429325899,-0.0,0.0,1.0,436.0,554.0,0.0,1,2010.0,0
1062,1062,0.5173933638493743,0.5,1.0,1.0,347.0,621.0,0.0,0,2032.0,0
1063,1063,0.14118882687078582,0.1,0.0,0.0,369.0,733.0,0.0,1,1898.0,1
1064,1064,0.002977092632244549,0.0,1.0,1.0,472.0,644.0,0.0,0,1884.0,0
1065,1065,0.035696379987279925,0.0,1.0,1.0,293.0,764.0,0.0,0,1943.0,0
1066,1066,0.16472195894468655,0.2,1.0,1.0,289.0,665.0,0.0,0,2046.0,0
1067,1067,0.6922690261007262,0.7,1.0,1.0,362.0,600.0,0.0,0,2038.0,0
1068,1068,-0.1436921188518695,-0.1,0.0,1.0,255.0,757.0,0.0,1,1988.0,0
1069,1069,-0.17385508368639413,-0.2,1.0,0.0,407.0,709.0,0.0,0,1884.0,1
1070,1070,-0.07044395157003347,-0.1,1.0,0.0,253.0,604.0,1.0,1,-827.0,0
1071,1071,-0.166374079926358,-0.2,0.0,1.0,445.0,917.0,0.0,1,1638.0,0
1072,1072,-0.7613447156855255,-0.8,1.0,0.0,302.0,865.0,0.0,0,1833.0,1
1073,1073,-0.0852469926762609,-0.1,0.0,1.0,392.0,599.0,0.0,1,2009.0,0
1074,1074,-0.5699123875622027,-0.6,1.0,0.0,271.0,766.0,0.0,0,1963.0,1
1075,1075,0.26508137723990155,0.3,0.0,0.0,251.0,741.0,0.0,1,2008.0,1
1076,1076,-0.285559942354651,-0.3,0.0,1.0,457.0,592.0,0.0,1,1951.0,0
1077,1077,0.35748980165572275,0.4,0.0,0.0,396.0,969.0,0.0,1,1635.0,1
1078,1078,0.74876280577402,0.7,1.0,1.0,342.0,646.0,0.0,0,2012.0,0
1079,1079,-0.8445731675188688,-0.8,0.0,1.0,341.0,754.0,0.0,1,1905.0,0
1080,1080,0.640930842255753,0.6,1.0,1.0,345.0,908.0,0.0,0,1747.0,0
1081,1081,-0.6561361996044072,-0.7,0.0,1.0,485.0,954.0,0.0,1,1561.0,0
1082,1082,-0.7842951488354649,-0.8,1.0,0.0,327.0,826.0,0.0,0,1847.0,1
1083,1083,-0.38035271172437035,-0.4,1.0,0.0,486.0,812.0,0.0,0,1702.0,1
1084,1084,-0.8015627317560012,-0.8,1.0,0.0,407.0,835.0,0.0,0,1758.0,1
1085,1085,0.594080870507743,0.6,0.0,0.0,345.0,985.0,1.0,0,-1320.0,0
1086,1086,-0.8619138997984159,-0.9,0.0,1.0,456.0,895.0,1.0,0,-1281.0,1
1087,1087,-0.2385277004852181,-0.2,0.0,1.0,313.0,679.0,0.0,1,2008.0,0
1088,1088,0.2641329519550156,0.3,1.0,1.0,344.0,569.0,0.0,0,2087.0,0
1089,1089,0.8531265281927048,0.9,1.0,1.0,273.0,562.0,0.0,0,2165.0,0
1090,1090,0.8665213578594398,0.9,1.0,1.0,412.0,953.0,0.0,0,1635.0,0
1091,1091,0.3446087596435844,0.3,0.0,0.0,280.0,923.0,0.0,1,1797.0,1
1092,1092,-0.035271995546104384,-0.0,1.0,0.0,336.0,938.0,0.0,0,1726.0,1
1093,1093,0.32460493013615566,0.3,1.0,1.0,256.0,665.0,0.0,0,2079.0,0
1094,1094,-0.8512516108634065,-0.9,0.0,1.0,485.0,936.0,0.0,1,1579.0,0
1095,1095,-0.16504461527923509,-0.2,0.0,1.0,446.0,926.0,0.0,1,1628.0,0
1096,1096,0.17284363692835691,0.2,1.0,1.0,355.0,923.0,0.0,0,-1248.0,0
1097,1097,-0.6779568197796287,-0.7,0.0,1.0,370.0,567.0,0.0,1,2063.0,0
1098,1098,-0.726879068607258,-0.7,1.0,0.0,460.0,937.0,0.0,0,1603.0,1
1099,1099,0.41126748161234905,0.4,0.0,0.0,262.0,624.0,0.0,1,2114.0,1
1100,1100,-0.052157750659703184,-0.1,0.0,1.0,492.0,655.0,0.0,1,1853.0,0
1101,1101,0.13530061732013599,0.1,1.0,1.0,372.0,535.0,0.0,0,2093.0,0
1102,1102,0.8667502389245233,0.9,0.0,0.0,387.0,797.0,0.0,1,1816.0,1
1103,1103,0.6985147702248892,0.7,1.0,1.0,418.0,581.0,0.0,0,2001.0,0
1104,1104,-0.8531875788584091,-0.9,0.0,1.0,434.0,812.0,0.0,1,1754.0,0
1105,1105,-0.7016003954637984,-0.7,0.0,1.0,344.0,899.0,0.0,1,1757.0,0
1106,1106,0.22618153076466407,0.2,0.0,0.0,378.0,956.0,0.0,1,1666.0,1
1107,1107,0.19455231545256735,0.2,0.0,0.0,460.0,998.0,0.0,1,1542.0,1
1108,1108,0.8655833085618604,0.9,0.0,0.0,280.0,563.0,0.0,1,2157.0,1
1109,1109,0.7859235333556519,0.8,0.0,0.0,387.0,911.0,0.0,1,1702.0,1
1110,1110,-0.6297483107804316,-0.6,1.0,0.0,403.0,525.0,0.0,0,2072.0,1
1111,1111,-0.030846429984491608,-0.0,1.0,0.0,367.0,713.0,0.0,0,1920.0,1
1112,1112,-0.7969542192823191,-0.8,0.0,1.0,482.0,857.0,0.0,1,1661.0,0
1113,1113,0.35645197706636333,0.4,0.0,0.0,320.0,601.0,0.0,1,2079.0,1
1114,1114,-0.7878750236015774,-0.8,0.0,1.0,368.0,900.0,0.0,1,1732.0,0
1115,1115,0.6188723558843358,0.6,0.0,0.0,355.0,962.0,1.0,0,-1277.0,0
1116,1116,-0.1866207762233334,-0.2,1.0,0.0,361.0,912.0,0.0,0,1727.0,1
1117,1117,0.6285435719467437,0.6,0.0,0.0,461.0,563.0,0.0,1,-1014.0,1
1118,1118,0.8644833580642369,0.9,0.0,0.0,314.0,502.0,0.0,1,2184.0,1
1119,1119,-0.8256983030093191,-0.8,0.0,1.0,290.0,634.0,0.0,1,2076.0,0
1120,1120,-0.16800781368112738,-0.2,0.0,1.0,251.0,919.0,0.0,1,1830.0,0
1121,1121,0.5758917657619361,0.6,1.0,1.0,276.0,996.0,0.0,0,1728.0,0
1122,1122,-0.17601191760583412,-0.2,1.0,0.0,293.0,902.0,0.0,0,1805.0,1
1123,1123,-0.4954366514566767,-0.5,0.0,1.0,329.0,746.0,0.0,1,-965.0,0
1124,1124,0.8857582388612467,0.9,0.0,0.0,409.0,536.0,0.0,1,2055.0,1
1125,1125,0.5650049103585902,0.6,0.0,0.0,332.0,774.0,0.0,1,1894.0,1
1126,1126,0.19037506620828004,0.2,1.0,1.0,478.0,982.0,0.0,0,1540.0,0
1127,1127,-0.10034245010455667,-0.1,1.0,0.0,300.0,622.0,0.0,0,2078.0,1
1128,1128,0.2800128412618571,0.3,0.0,0.0,272.0,682.0,0.0,1,2046.0,1
1129,1129,-0.4114926586972287,-0.4,1.0,0.0,275.0,880.0,0.0,0,1845.0,1
1130,1130,0.47037466540747086,0.5,1.0,1.0,255.0,633.0,0.0,0,2112.0,0
1131,1131,0.09184344238340103,0.1,0.0,0.0,398.0,880.0,0.0,1,1722.0,1
1132,1132,-0.8073968169465688,-0.8,0.0,1.0,354.0,842.0,0.0,1,1804.0,0
1133,1133,-0.1922844746087634,-0.2,0.0,1.0,411.0,809.0,0.0,1,1780.0,0
1134,1134,-0.8963047008831537,-0.9,1.0,0.0,347.0,670.0,0.0,0,1983.0,1
1135,1135,0.4648589349528117,0.5,0.0,0.0,480.0,991.0,0.0,1,1529.0,1
1136,1136,-0.11690821043773414,-0.1,1.0,0.0,425.0,800.0,0.0,0,1775.0,1
1137,1137,0.12241556012186494,0.1,1.0,1.0,285.0,673.0,0.0,0,2042.0,0
1138,1138,-0.4152842812842457,-0.4,0.0,1.0,257.0,822.0,0.0,1,1921.0,0
1139,1139,-0.3911373667956649,-0.4,1.0,0.0,389.0,786.0,0.0,0,1825.0,1
1140,1140,-0.8969677639263725,-0.9,0.0,1.0,485.0,722.0,0.0,1,1793.0,0
1141,1141,-0.03183031496888045,-0.0,0.0,1.0,282.0,940.0,0.0,1,1778.0,0
1142,1142,-0.8047506709046309,-0.8,0.0,1.0,332.0,555.0,0.0,1,2113.0,0
1143,1143,-0.3794681227427861,-0.4,0.0,1.0,495.0,642.0,0.0,1,1863.0,0
1144,1144,-0.823544700392466,-0.8,0.0,1.0,431.0,742.0,0.0,1,1827.0,0
1145,1145,-0.43593486766373085,-0.4,0.0,1.0,295.0,781.0,0.0,1,1924.0,0
1146,1146,0.3607844565250752,0.4,0.0,0.0,282.0,815.0,0.0,1,1903.0,1
1147,1147,-0.23902383572150754,-0.2,0.0,1.0,286.0,654.0,0.0,1,2060.0,0
1148,1148,0.40607910731504104,0.4,1.0,1.0,317.0,754.0,0.0,0,1929.0,0
1149,1149,-0.6273024623888512,-0.6,1.0,0.0,377.0,768.0,0.0,0,1855.0,1
1150,1150,-0.7373166531544517,-0.7,1.0,0.0,251.0,930.0,0.0,0,1819.0,1
1151,1151,-0.4104259638890877,-0.4,0.0,1.0,264.0,991.0,0.0,1,-1255.0,0
1152,1152,0.8191418513411958,0.8,1.0,1.0,402.0,804.0,0.0,0,1794.0,0
1153,1153,-0.23425642395848723,-0.2,0.0,1.0,315.0,824.0,1.0,0,-1069.0,1
1154,1154,0.1625737683359748,0.2,0.0,0.0,428.0,746.0,0.0,1,-1084.0,1
1155,1155,0.8013182261563144,0.8,0.0,0.0,372.0,619.0,0.0,1,2009.0,1
1156,1156,0.35772550846105344,0.4,0.0,0.0,277.0,572.0,0.0,1,2151.0,1
1157,1157,0.2868886006350363,0.3,1.0,1.0,347.0,850.0,0.0,0,1803.0,0
1158,1158,0.10495155189842797,0.1,1.0,1.0,342.0,567.0,0.0,0,2091.0,0
1159,1159,0.6037471751642812,0.6,1.0,1.0,276.0,838.0,1.0,1,-1104.0,1
1160,1160,-0.4820889580042841,-0.5,1.0,0.0,372.0,780.0,0.0,0,1848.0,1
1161,1161,0.4982500666345867,0.5,0.0,0.0,423.0,656.0,0.0,1,1921.0,1
1162,1162,0.23047880601195014,0.2,1.0,1.0,339.0,717.0,0.0,0,1944.0,0
1163,1163,0.7899879962535433,0.8,1.0,1.0,265.0,678.0,0.0,0,2057.0,0
1164,1164,0.11032759662657632,0.1,1.0,1.0,494.0,753.0,0.0,0,1753.0,0
1165,1165,0.8886649115770159,0.9,1.0,1.0,436.0,743.0,0.0,0,1821.0,0
1166,1166,-0.45524114358177886,-0.5,0.0,1.0,342.0,974.0,0.0,1,1684.0,0
1167,1167,0.718990010591198,0.7,1.0,1.0,287.0,557.0,0.0,0,2156.0,0
1168,1168,0.07630163466537487,0.1,0.0,0.0,495.0,961.0,0.0,1,1544.0,1
1169,1169,-0.30838352965020377,-0.3,0.0,1.0,391.0,876.0,0.0,1,1733.0,0
1170,1170,-0.16039791752755173,-0.2,0.0,1.0,448.0,750.0,0.0,1,1802.0,0
1171,1171,0.2616069004460192,0.3,1.0,1.0,464.0,812.0,0.0,0,1724.0,0
1172,1172,-0.647702255042427,-0.6,0.0,1.0,329.0,899.0,0.0,1,1772.0,0
1173,1173,-0.4560746775494662,-0.5,1.0,0.0,407.0,965.0,0.0,0,1628.0,1
1174,1174,0.005292185493971924,0.0,1.0,1.0,364.0,592.0,0.0,0,2044.0,0
1175,1175,0.6580456602581976,0.7,0.0,0.0,381.0,676.0,1.0,0,-997.0,0
1176,1176,0.39014335294846203,0.4,0.0,0.0,475.0,598.0,0.0,1,1927.0,1
1177,1177,0.8886511536611347,0.9,1.0,1.0,266.0,826.0,0.0,0,1908.0,0
1178,1178,-0.42413136001684776,-0.4,0.0,1.0,273.0,907.0,0.0,1,1820.0,0
1179,1179,-0.3464671047752611,-0.3,1.0,0.0,373.0,871.0,0.0,0,1756.0,1
1180,1180,-0.13875306288217815,-0.1,0.0,1.0,478.0,809.0,0.0,1,1713.0,0
1181,1181,0.13829579638824552,0.1,0.0,0.0,296.0,648.0,0.0,1,2056.0,1
1182,1182,0.7047781814232082,0.7,0.0,0.0,481.0,705.0,0.0,1,1814.0,1
1183,1183,-0.6179498519535442,-0.6,0.0,1.0,314.0,814.0,0.0,1,-1128.0,0
1184,1184,-0.38109477520103197,-0.4,1.0,0.0,483.0,537.0,0.0,0,1980.0,1
1185,1185,-0.4851483180433419,-0.5,0.0,1.0,394.0,892.0,0.0,1,1714.0,0
1186,1186,0.7983429566033945,0.8,0.0,0.0,417.0,522.0,0.0,1,2061.0,1
1187,1187,0.4727799132320022,0.5,1.0,1.0,433.0,858.0,0.0,0,1709.0,0
1188,1188,-0.8807012593017995,-0.9,1.0,0.0,311.0,757.0,0.0,0,1932.0,1
1189,1189,-0.04291676749351736,-0.0,1.0,0.0,342.0,545.0,0.0,0,2113.0,1
1190,1190,0.6608486602260547,0.7,1.0,1.0,394.0,693.0,0.0,0,1913.0,0
1191,1191,0.28679828459381296,0.3,0.0,0.0,409.0,966.0,0.0,1,1625.0,1
1192,1192,0.05384290438487038,0.1,1.0,1.0,370.0,740.0,0.0,0,1890.0,0
1193,1193,0.6711756451495824,0.7,0.0,0.0,386.0,661.0,0.0,1,1953.0,1
1194,1194,0.2475930810563186,0.2,1.0,1.0,375.0,521.0,0.0,0,2104.0,0
1195,1195,0.0029198924701255846,0.0,0.0,0.0,358.0,794.0,0.0,1,1848.0,1
1196,1196,0.1925182617490674,0.2,1.0,1.0,478.0,755.0,0.0,0,1767.0,0
1197,1197,-0.8713760878657458,-0.9,1.0,0.0,452.0,616.0,0.0,0,1932.0,1
1198,1198,0.32985130415105923,0.3,1.0,1.0,270.0,756.0,0.0,0,1974.0,0
1199,1199,-0.1552142609068572,-0.2,0.0,1.0,263.0,787.0,0.0,1,1950.0,0
1200,1200,0.39266485032280884,0.4,0.0,0.0,340.0,576.0,0.0,1,2084.0,1
1201,1201,-0.35878783544150217,-0.4,1.0,0.0,318.0,616.0,0.0,0,2066.0,1
1202,1202,0.16438069060987115,0.2,0.0,0.0,445.0,697.0,0.0,1,1858.0,1
1203,1203,-0.7180390434059505,-0.7,0.0,1.0,405.0,761.0,0.0,1,1834.0,0
1204,1204,0.8880860486841985,0.9,1.0,1.0,425.0,699.0,0.0,0,1876.0,0
1205,1205,0.11218157243556803,0.1,0.0,0.0,361.0,819.0,0.0,1,-1080.0,1
1206,1206,-0.25303363109180577,-0.3,0.0,1.0,387.0,886.0,0.0,1,1727.0,0
1207,1207,-0.026808605389841644,-0.0,1.0,0.0,486.0,683.0,0.0,0,1831.0,1
1208,1208,-0.6760427921825726,-0.7,0.0,1.0,486.0,600.0,0.0,1,1914.0,0
1209,1209,-0.5152939385593324,-0.5,0.0,1.0,270.0,933.0,0.0,1,1797.0,0
1210,1210,-0.7389647147333382,-0.7,0.0,1.0,288.0,619.0,0.0,1,2093.0,0
1211,1211,0.0948786531212088,0.1,1.0,1.0,281.0,945.0,1.0,1,-1116.0,1
1212,1212,-0.5599687492461938,-0.6,0.0,1.0,480.0,922.0,0.0,1,1598.0,0
1213,1213,0.6523118724821823,0.7,0.0,0.0,499.0,781.0,0.0,1,1720.0,1
1214,1214,0.28435570204350713,0.3,0.0,0.0,343.0,744.0,0.0,1,1913.0,1
1215,1215,-0.7395617680840009,-0.7,0.0,1.0,290.0,569.0,0.0,1,2141.0,0
1216,1216,-0.6050166564690882,-0.6,1.0,0.0,358.0,942.0,0.0,0,1700.0,1
1217,1217,0.7786132182556099,0.8,0.0,0.0,294.0,919.0,0.0,1,1787.0,1
1218,1218,0.615795683230172,0.6,1.0,1.0,358.0,656.0,0.0,0,1986.0,0
1219,1219,0.2373309903616868,0.2,1.0,1.0,436.0,677.0,0.0,0,1887.0,0
1220,1220,0.12975093721296715,0.1,1.0,1.0,437.0,695.0,0.0,0,1868.0,0
1221,1221,-0.8276562105035131,-0.8,0.0,1.0,355.0,869.0,0.0,1,1776.0,0
1222,1222,0.8531515876521386,0.9,0.0,0.0,494.0,934.0,0.0,1,1572.0,1
1223,1223,-0.8787141735953148,-0.9,1.0,0.0,383.0,748.0,0.0,0,1869.0,1
1224,1224,-0.03147105131334926,-0.0,1.0,0.0,420.0,519.0,0.0,0,2061.0,1
1225,1225,0.48264842435338273,0.5,0.0,0.0,424.0,816.0,0.0,1,1760.0,1
1226,1226,-0.13662874109854872,-0.1,0.0,1.0,282.0,786.0,0.0,1,1932.0,0
1227,1227,-0.46374262296644553,-0.5,0.0,1.0,366.0,537.0,0.0,1,2097.0,0
1228,1228,0.29940292799589796,0.3,1.0,1.0,392.0,629.0,0.0,0,1979.0,0
1229,1229,0.4615152176802647,0.5,1.0,1.0,405.0,737.0,1.0,1,-1042.0,1
1230,1230,-0.5546924397982622,-0.6,0.0,1.0,457.0,967.0,0.0,1,1576.0,0
1231,1231,-0.19688691944872183,-0.2,0.0,1.0,449.0,834.0,0.0,1,1717.0,0
1232,1232,-0.4776118817508386,-0.5,0.0,1.0,399.0,659.0,0.0,1,1942.0,0
1233,1233,-0.43907435888102825,-0.4,0.0,1.0,278.0,514.0,0.0,1,2208.0,0
1234,1234,-0.5241157671124812,-0.5,1.0,0.0,292.0,652.0,0.0,0,2056.0,1
1235,1235,-0.45217070644783347,-0.5,0.0,1.0,384.0,627.0,0.0,1,1989.0,0
1236,1236,0.2797095540433169,0.3,0.0,0.0,461.0,967.0,0.0,1,1572.0,1
1237,1237,-0.41520777211546406,-0.4,0.0,1.0,414.0,894.0,0.0,1,1692.0,0
1238,1238,0.264499123078369,0.3,1.0,1.0,422.0,672.0,1.0,1,-1044.0,1
1239,1239,-0.12333571097903628,-0.1,0.0,1.0,260.0,833.0,0.0,1,1907.0,0
1240,1240,0.1247319167934039,0.1,0.0,0.0,343.0,553.0,0.0,1,2104.0,1
1241,1241,-0.4982184934944305,-0.5,1.0,0.0,327.0,684.0,0.0,0,1989.0,1
1242,1242,0.37672637883891,0.4,0.0,0.0,411.0,921.0,0.0,1,1668.0,1
1243,1243,-0.4796935505901432,-0.5,0.0,1.0,312.0,876.0,0.0,1,1812.0,0
1244,1244,0.13796464857506507,0.1,0.0,0.0,487.0,549.0,0.0,1,1964.0,1
1245,1245,0.3094136872619665,0.3,1.0,1.0,394.0,685.0,0.0,0,1921.0,0
1246,1246,-0.038564917508539964,-0.0,1.0,0.0,255.0,597.0,0.0,0,2148.0,1
1247,1247,0.2516705914216867,0.3,0.0,0.0,380.0,798.0,0.0,1,1822.0,1
1248,1248,0.8443939163416788,0.8,0.0,0.0,322.0,849.0,0.0,1,1829.0,1
1249,1249,0.2194623921777582,0.2,0.0,0.0,498.0,576.0,0.0,1,1926.0,1
1250,1250,-0.27670616546296134,-0.3,1.0,0.0,322.0,864.0,0.0,0,-1156.0,1
1251,1251,0.6431761685835661,0.6,1.0,1.0,474.0,868.0,0.0,0,1658.0,0
1252,1252,-0.09734165218271984,-0.1,0.0,1.0,452.0,767.0,0.0,1,1781.0,0
1253,1253,-0.556471644206936,-0.6,1.0,0.0,324.0,985.0,0.0,0,1691.0,1
1254,1254,0.8786542899394009,0.9,1.0,1.0,288.0,724.0,0.0,0,1988.0,0
1255,1255,0.5910910500527239,0.6,1.0,1.0,325.0,622.0,0.0,0,2053.0,0
1256,1256,0.4674729678262376,0.5,0.0,0.0,309.0,810.0,0.0,1,1881.0,1
1257,1257,0.7310962940486195,0.7,0.0,0.0,413.0,691.0,0.0,1,1896.0,1
1258,1258,0.7122392611469336,0.7,0.0,0.0,447.0,847.0,0.0,1,-1254.0,1
1259,1259,-0.45825529985174035,-0.5,1.0,0.0,469.0,941.0,0.0,0,1590.0,1
1260,1260,0.21966897946331077,0.2,0.0,0.0,431.0,683.0,0.0,1,1886.0,1
1261,1261,-0.7693390126407902,-0.8,0.0,1.0,406.0,594.0,0.0,1,2000.0,0
1262,1262,0.4542412311719167,0.5,0.0,0.0,374.0,650.0,0.0,1,1976.0,1
1263,1263,0.5916123767228164,0.6,1.0,1.0,475.0,797.0,0.0,0,1728.0,0
1264,1264,0.485050923468454,0.5,1.0,1.0,371.0,834.0,0.0,0,1795.0,0
1265,1265,0.025613198304614282,0.0,0.0,0.0,378.0,549.0,1.0,0,-927.0,0
1266,1266,-0.47155322434541674,-0.5,1.0,0.0,463.0,584.0,0.0,0,1953.0,1
1267,1267,-0.610459349768038,-0.6,0.0,1.0,332.0,989.0,0.0,1,1679.0,0
1268,1268,0.6756970119195417,0.7,1.0,1.0,418.0,956.0,0.0,0,1626.0,0
1269,1269,-0.8520332683834544,-0.9,1.0,0.0,295.0,896.0,0.0,0,1809.0,1
1270,1270,0.28387252592323653,0.3,0.0,0.0,422.0,953.0,0.0,1,1625.0,1
1271,1271,0.8041763726781338,0.8,0.0,0.0,388.0,938.0,0.0,1,1674.0,1
1272,1272,-0.681949741034317,-0.7,0.0,1.0,470.0,801.0,0.0,1,1729.0,0
1273,1273,0.5862561585422891,0.6,1.0,1.0,272.0,907.0,0.0,0,-1099.0,0
1274,1274,0.021619157125621014,0.0,1.0,1.0,337.0,645.0,0.0,0,2018.0,0
1275,1275,-0.031090757226973742,-0.0,0.0,1.0,325.0,596.0,0.0,1,2079.0,0
1276,1276,0.3687750388639849,0.4,1.0,1.0,451.0,508.0,0.0,0,2041.0,0
1277,1277,0.5110951227057804,0.5,1.0,1.0,283.0,748.0,0.0,0,1969.0,0
1278,1278,-0.3129880452124957,-0.3,1.0,0.0,404.0,833.0,0.0,0,1763.0,1
1279,1279,0.30270042240408845,0.3,0.0,0.0,413.0,881.0,1.0,0,-1194.0,0
1280,1280,0.14454070014881937,0.1,1.0,1.0,444.0,755.0,0.0,0,1801.0,0
1281,1281,-0.022865467394481587,-0.0,0.0,1.0,432.0,591.0,0.0,1,1977.0,0
1282,1282,0.4659511363471004,0.5,0.0,0.0,352.0,687.0,0.0,1,1961.0,1
1283,1283,0.8589334505382148,0.9,0.0,0.0,432.0,764.0,0.0,1,1804.0,1
1284,1284,-0.8230993700408362,-0.8,0.0,1.0,444.0,606.0,0.0,1,1950.0,0
1285,1285,0.09050890102513431,0.1,1.0,1.0,455.0,863.0,0.0,0,1682.0,0
1286,1286,-0.3399116024405874,-0.3,1.0,0.0,484.0,695.0,0.0,0,1821.0,1
1287,1287,0.8236195987113505,0.8,1.0,1.0,326.0,776.0,0.0,0,1898.0,0
1288,1288,0.012171038852579197,0.0,1.0,1.0,278.0,998.0,0.0,0,1724.0,0
1289,1289,-0.7128026617414015,-0.7,0.0,1.0,490.0,577.0,0.0,1,1933.0,0
1290,1290,0.4905439915654065,0.5,0.0,0.0,332.0,556.0,0.0,1,2112.0,1
1291,1291,-0.5072423166378985,-0.5,1.0,0.0,304.0,725.0,0.0,0,1971.0,1
1292,1292,0.3996883095791345,0.4,0.0,0.0,365.0,942.0,0.0,1,1693.0,1
1293,1293,-0.2726068190922367,-0.3,0.0,1.0,270.0,507.0,0.0,1,2223.0,0
1294,1294,-0.30501780067446593,-0.3,0.0,1.0,253.0,877.0,0.0,1,1870.0,0
1295,1295,-0.6780835897823934,-0.7,0.0,1.0,490.0,797.0,0.0,1,1713.0,0
1296,1296,0.3007093287904744,0.3,0.0,0.0,350.0,528.0,0.0,1,2122.0,1
1297,1297,0.32683215676493427,0.3,1.0,1.0,464.0,504.0,0.0,0,2032.0,0
1298,1298,0.3533954206260249,0.4,0.0,0.0,363.0,769.0,0.0,1,1868.0,1
1299,1299,0.27042518210250754,0.3,0.0,0.0,337.0,611.0,0.0,1,2052.0,1
1300,1300,0.48451809459568984,0.5,0.0,0.0,403.0,532.0,0.0,1,2065.0,1
1301,1301,-0.1816105241176672,-0.2,0.0,1.0,426.0,534.0,0.0,1,2040.0,0
1302,1302,0.7006095263821447,0.7,0.0,0.0,331.0,514.0,0.0,1,2155.0,1
1303,1303,0.5092975532031693,0.5,1.0,1.0,321.0,795.0,0.0,0,1884.0,0
1304,1304,-0.7998965126734406,-0.8,0.0,1.0,317.0,974.0,0.0,1,1709.0,0
1305,1305,-0.06190815719065279,-0.1,0.0,1.0,414.0,915.0,0.0,1,1671.0,0
1306,1306,-0.38506764177466946,-0.4,0.0,1.0,464.0,543.0,0.0,1,1993.0,0
1307,1307,-0.6181683615137739,-0.6,1.0,0.0,287.0,651.0,0.0,0,2062.0,1
1308,1308,-0.4771008355569959,-0.5,0.0,1.0,485.0,882.0,0.0,1,1633.0,0
1309,1309,-0.6114673262804993,-0.6,0.0,1.0,476.0,887.0,0.0,1,1637.0,0
1310,1310,-0.4554702421901482,-0.5,1.0,0.0,491.0,759.0,0.0,0,1750.0,1
1311,1311,0.6929597465610818,0.7,0.0,0.0,339.0,622.0,0.0,1,-931.0,1
1312,1312,-0.6309351413549871,-0.6,1.0,0.0,316.0,538.0,0.0,0,2146.0,1
1313,1313,-0.6896002016673451,-0.7,0.0,1.0,262.0,617.0,0.0,1,2121.0,0
1314,1314,0.18360061145245032,0.2,0.0,0.0,350.0,661.0,0.0,1,1989.0,1
1315,1315,0.6907208550002261,0.7,1.0,1.0,438.0,502.0,0.0,0,2060.0,0
1316,1316,0.02192315942497558,0.0,1.0,1.0,431.0,585.0,0.0,0,1984.0,0
1317,1317,-0.7947273304476029,-0.8,0.0,1.0,271.0,978.0,0.0,1,1751.0,0
1318,1318,-0.8048891808743012,-0.8,0.0,1.0,398.0,984.0,0.0,1,1618.0,0
1319,1319,0.6696310089733261,0.7,1.0,1.0,420.0,700.0,0.0,0,1880.0,0
1320,1320,-0.5027151805238369,-0.5,1.0,0.0,317.0,612.0,0.0,0,2071.0,1
1321,1321,-0.8603447314504512,-0.9,0.0,1.0,396.0,720.0,0.0,1,1884.0,0
1322,1322,0.13339619666055336,0.1,1.0,1.0,425.0,741.0,0.0,0,1834.0,0
1323,1323,0.43423740607114747,0.4,1.0,1.0,465.0,650.0,0.0,0,1885.0,0
1324,1324,-0.028820469118895464,-0.0,0.0,1.0,259.0,962.0,0.0,1,1779.0,0
1325,1325,0.5793785161573256,0.6,1.0,1.0,492.0,684.0,0.0,0,1824.0,0
1326,1326,-0.6683019040724664,-0.7,1.0,0.0,314.0,569.0,0.0,0,2117.0,1
1327,1327,0.04674878773770652,0.0,0.0,0.0,428.0,969.0,0.0,1,1603.0,1
1328,1328,0.17718779116853878,0.2,1.0,1.0,422.0,934.0,0.0,0,-1286.0,0
1329,1329,0.3158778189493284,0.3,1.0,1.0,404.0,551.0,0.0,0,2045.0,0
1330,1330,-0.26366211637195913,-0.3,1.0,0.0,431.0,951.0,0.0,0,1618.0,1
1331,1331,0.4728045517882279,0.5,1.0,1.0,486.0,510.0,0.0,0,2004.0,0
1332,1332,0.3910653718923539,0.4,0.0,0.0,402.0,669.0,0.0,1,1929.0,1
1333,1333,-0.3027541708392464,-0.3,0.0,1.0,347.0,636.0,0.0,1,2017.0,0
1334,1334,0.3268266963001739,0.3,1.0,1.0,369.0,580.0,0.0,0,2051.0,0
1335,1335,-0.33922607448510556,-0.3,1.0,0.0,394.0,879.0,0.0,0,1727.0,1
1336,1336,-0.8337667962178008,-0.8,1.0,0.0,334.0,861.0,0.0,0,1805.0,1
1337,1337,0.29046312201023283,0.3,1.0,1.0,278.0,557.0,0.0,0,2165.0,0
1338,1338,0.07052883569765989,0.1,1.0,1.0,306.0,716.0,0.0,0,1978.0,0
1339,1339,-0.48056786746730523,-0.5,1.0,0.0,251.0,851.0,0.0,0,1898.0,1
1340,1340,-0.09755434003568186,-0.1,0.0,1.0,270.0,867.0,0.0,1,1863.0,0
1341,1341,-0.7837838829506083,-0.8,0.0,1.0,340.0,785.0,0.0,1,1875.0,0
1342,1342,-0.26012940420474395,-0.3,0.0,1.0,415.0,568.0,0.0,1,2017.0,0
1343,1343,-0.4822028088637471,-0.5,1.0,0.0,267.0,626.0,0.0,0,2107.0,1
1344,1344,0.8134841728956778,0.8,0.0,0.0,301.0,957.0,0.0,1,1742.0,1
1345,1345,0.6768914253820181,0.7,1.0,1.0,278.0,924.0,0.0,0,1798.0,0
1346,1346,0.6586015045913601,0.7,1.0,1.0,460.0,684.0,0.0,0,1856.0,0
1347,1347,-0.14347653725184306,-0.1,0.0,1.0,443.0,536.0,0.0,1,2021.0,0
1348,1348,-0.4335731728014255,-0.4,0.0,1.0,418.0,933.0,0.0,1,-1301.0,0
1349,1349,0.11949628613753605,0.1,0.0,0.0,486.0,814.0,0.0,1,1700.0,1
1350,1350,0.46369095322174825,0.5,0.0,0.0,292.0,569.0,0.0,1,2139.0,1
1351,1351,0.8119730443370031,0.8,0.0,0.0,443.0,593.0,0.0,1,1964.0,1
1352,1352,-0.014465061879529895,-0.0,0.0,1.0,318.0,525.0,0.0,1,2157.0,0
1353,1353,0.3873500012120482,0.4,0.0,0.0,319.0,786.0,0.0,1,1895.0,1
1354,1354,0.8276279218332431,0.8,0.0,0.0,341.0,795.0,0.0,1,-1086.0,1
1355,1355,-0.4453110990982477,-0.4,1.0,0.0,466.0,627.0,0.0,0,1907.0,1
1356,1356,0.2363168945202826,0.2,1.0,1.0,363.0,548.0,0.0,0,2089.0,0
1357,1357,0.6098259011373172,0.6,0.0,0.0,373.0,968.0,0.0,1,-1311.0,1
1358,1358,0.17110135445758956,0.2,1.0,1.0,431.0,779.0,1.0,1,-1100.0,1
1359,1359,0.3269791278718982,0.3,0.0,0.0,355.0,749.0,0.0,1,1896.0,1
1360,1360,-0.6260397183260931,-0.6,1.0,0.0,331.0,743.0,0.0,0,1926.0,1
1361,1361,0.0425329693025599,0.0,1.0,1.0,390.0,500.0,0.0,0,2110.0,0
1362,1362,0.5659747408149615,0.6,1.0,1.0,283.0,859.0,0.0,0,1858.0,0
1363,1363,-0.2013836149828282,-0.2,0.0,1.0,253.0,978.0,0.0,1,1769.0,0
1364,1364,-0.8779932068168206,-0.9,1.0,0.0,278.0,824.0,0.0,0,1898.0,1
1365,1365,0.25418668709207803,0.3,1.0,1.0,361.0,842.0,0.0,0,1797.0,0
1366,1366,-0.2215544929667408,-0.2,0.0,1.0,415.0,927.0,0.0,1,1658.0,0
1367,1367,-0.15740140637447964,-0.2,1.0,0.0,424.0,777.0,0.0,0,1799.0,1
1368,1368,0.10634801946340178,0.1,0.0,0.0,468.0,578.0,0.0,1,1954.0,1
1369,1369,0.09822868442586186,0.1,1.0,1.0,418.0,933.0,0.0,0,1649.0,0
1370,1370,0.6564039205413791,0.7,1.0,1.0,266.0,994.0,0.0,0,1740.0,0
1371,1371,-0.0901473733159196,-0.1,0.0,1.0,409.0,505.0,0.0,1,2086.0,0
1372,1372,0.602633769919945,0.6,1.0,1.0,285.0,887.0,0.0,0,1828.0,0
1373,1373,0.6652828269369734,0.7,1.0,1.0,336.0,548.0,0.0,0,2116.0,0
1374,1374,-0.8081327749364557,-0.8,0.0,1.0,299.0,798.0,0.0,1,1903.0,0
1375,1375,0.5387816375430613,0.5,0.0,0.0,398.0,933.0,0.0,1,1669.0,1
1376,1376,0.7808586496861313,0.8,0.0,0.0,317.0,534.0,0.0,1,2149.0,1
1377,1377,-0.2462596179805473,-0.2,1.0,0.0,355.0,667.0,0.0,0,1978.0,1
1378,1378,-0.5029592371283358,-0.5,1.0,0.0,360.0,618.0,0.0,0,2022.0,1
1379,1379,0.46897730393349757,0.5,1.0,1.0,272.0,620.0,0.0,0,2108.0,0
1380,1380,0.8518059641371368,0.9,1.0,1.0,327.0,902.0,0.0,0,1771.0,0
1381,1381,0.3745652320179348,0.4,1.0,1.0,496.0,886.0,0.0,0,1618.0,0
1382,1382,0.12690051306075223,0.1,0.0,0.0,413.0,707.0,0.0,1,1880.0,1
1383,1383,-0.5202170318802612,-0.5,1.0,0.0,486.0,531.0,0.0,0,1983.0,1
1384,1384,-0.5922271652252808,-0.6,0.0,1.0,432.0,685.0,0.0,1,1883.0,0
1385,1385,0.527803838862306,0.5,1.0,1.0,455.0,962.0,0.0,0,1583.0,0
1386,1386,-0.19237303350838697,-0.2,0.0,1.0,285.0,808.0,0.0,1,1907.0,0
1387,1387,-0.3903469960520122,-0.4,0.0,1.0,389.0,507.0,0.0,1,2104.0,0
1388,1388,0.22386880105394036,0.2,1.0,1.0,403.0,981.0,0.0,0,1616.0,0
1389,1389,0.20342645300158602,0.2,1.0,1.0,342.0,923.0,0.0,0,1735.0,0
1390,1390,-0.3057699719442325,-0.3,1.0,0.0,268.0,640.0,0.0,0,2092.0,1
1391,1391,0.31908188070146026,0.3,0.0,0.0,336.0,596.0,0.0,1,2068.0,1
1392,1392,-0.1566976127609594,-0.2,1.0,0.0,256.0,706.0,0.0,0,2038.0,1
1393,1393,-0.2909695195532218,-0.3,1.0,0.0,281.0,515.0,0.0,0,2204.0,1
1394,1394,-0.005122572466615294,-0.0,1.0,0.0,430.0,650.0,0.0,0,1920.0,1
1395,1395,0.4845843345621538,0.5,1.0,1.0,465.0,885.0,0.0,0,1650.0,0
1396,1396,-0.6102463626689607,-0.6,1.0,0.0,498.0,666.0,0.0,0,1836.0,1
1397,1397,-0.5132687183273146,-0.5,0.0,1.0,342.0,656.0,0.0,1,2002.0,0
1398,1398,-0.46047129736330883,-0.5,1.0,0.0,356.0,745.0,0.0,0,1899.0,1
1399,1399,-0.31871145719957217,-0.3,0.0,1.0,450.0,941.0,0.0,1,1609.0,0
1400,1400,0.7331312235034096,0.7,1.0,1.0,250.0,591.0,0.0,0,2159.0,0
1401,1401,0.6503985307869767,0.7,1.0,1.0,354.0,707.0,0.0,0,1939.0,0
1402,1402,0.7157194090385378,0.7,0.0,0.0,306.0,754.0,0.0,1,1940.0,1
1403,1403,-0.5197305873016447,-0.5,1.0,0.0,420.0,702.0,0.0,0,1878.0,1
1404,1404,-0.38776211114325854,-0.4,0.0,1.0,374.0,878.0,0.0,1,1748.0,0
1405,1405,-0.07303564536257667,-0.1,1.0,0.0,357.0,921.0,0.0,0,1722.0,1
1406,1406,0.1285818268119342,0.1,0.0,0.0,407.0,857.0,0.0,1,1736.0,1
1407,1407,0.7935510518848158,0.8,0.0,0.0,372.0,670.0,0.0,1,1958.0,1
1408,1408,-0.507792388604075,-0.5,0.0,1.0,492.0,675.0,0.0,1,1833.0,0
1409,1409,0.6185344663574576,0.6,0.0,0.0,428.0,531.0,0.0,1,2041.0,1
1410,1410,-0.21941258969569266,-0.2,0.0,1.0,401.0,607.0,0.0,1,-988.0,0
1411,1411,0.46068652774306906,0.5,0.0,0.0,496.0,820.0,0.0,1,1684.0,1
1412,1412,-0.2575868358969483,-0.3,0.0,1.0,414.0,873.0,0.0,1,1713.0,0
1413,1413,-0.44875935447347487,-0.4,0.0,1.0,381.0,820.0,0.0,1,-1141.0,0
1414,1414,-0.06648986690200676,-0.1,1.0,0.0,341.0,994.0,0.0,0,1665.0,1
1415,1415,0.05288559252580893,0.1,1.0,1.0,358.0,615.0,0.0,0,2027.0,0
1416,1416,-0.7497441310722511,-0.7,1.0,0.0,284.0,829.0,0.0,0,1887.0,1
1417,1417,0.671550473768029,0.7,0.0,0.0,288.0,673.0,0.0,1,2039.0,1
1418,1418,-0.7566271814171015,-0.8,1.0,0.0,303.0,756.0,0.0,0,1941.0,1
1419,1419,-0.4319480532714101,-0.4,0.0,1.0,272.0,580.0,0.0,1,2148.0,0
1420,1420,-0.12827834237915992,-0.1,1.0,0.0,440.0,669.0,0.0,0,1891.0,1
1421,1421,-0.8009083466565704,-0.8,0.0,1.0,441.0,777.0,0.0,1,1782.0,0
1422,1422,-0.3720599786318456,-0.4,1.0,0.0,366.0,860.0,0.0,0,1774.0,1
1423,1423,-0.7985388021630757,-0.8,1.0,0.0,321.0,837.0,0.0,0,1842.0,1
1424,1424,-0.7196065628326221,-0.7,0.0,1.0,317.0,521.0,0.0,1,2162.0,0
1425,1425,0.6166467013229183,0.6,0.0,0.0,308.0,910.0,0.0,1,1782.0,1
1426,1426,0.04434684804130096,0.0,1.0,1.0,430.0,523.0,0.0,0,2047.0,0
1427,1427,-0.7611435176616014,-0.8,1.0,0.0,287.0,770.0,0.0,0,1943.0,1
1428,1428,-0.5361317279569575,-0.5,1.0,0.0,473.0,680.0,0.0,0,1847.0,1
1429,1429,-0.753631280784516,-0.8,0.0,1.0,340.0,936.0,0.0,1,1724.0,0
1430,1430,0.01422380174103166,0.0,1.0,1.0,496.0,768.0,0.0,0,1736.0,0
1431,1431,-0.02318070206042877,-0.0,0.0,1.0,359.0,960.0,0.0,1,1681.0,0
1432,1432,0.6724955423575175,0.7,0.0,0.0,267.0,847.0,0.0,1,1886.0,1
1433,1433,0.2584451588887352,0.3,1.0,1.0,434.0,905.0,0.0,0,1661.0,0
1434,1434,0.7783493231759521,0.8,0.0,0.0,311.0,783.0,0.0,1,1906.0,1
1435,1435,-0.8744624501761491,-0.9,0.0,1.0,484.0,827.0,0.0,1,1689.0,0
1436,1436,-0.046284943139153656,-0.0,1.0,0.0,372.0,513.0,0.0,0,2115.0,1
1437,1437,0.48539457980812595,0.5,0.0,0.0,308.0,807.0,0.0,1,1885.0,1
1438,1438,-0.037872166888486936,-0.0,0.0,1.0,395.0,982.0,0.0,1,1623.0,0
1439,1439,0.3075776632024242,0.3,1.0,1.0,359.0,684.0,0.0,0,1957.0,0
1440,1440,0.1542467422396253,0.2,1.0,1.0,466.0,805.0,0.0,0,1729.0,0
1441,1441,0.190910116437622,0.2,1.0,1.0,458.0,626.0,0.0,0,1916.0,0
1442,1442,-0.1781024915976639,-0.2,1.0,0.0,439.0,776.0,0.0,0,1785.0,1
1443,1443,-0.724227916366557,-0.7,1.0,0.0,491.0,750.0,0.0,0,1759.0,1
1444,1444,0.34155320814107337,0.3,1.0,1.0,417.0,774.0,0.0,0,1809.0,0
1445,1445,0.5041703010085018,0.5,0.0,0.0,407.0,544.0,0.0,1,2049.0,1
1446,1446,-0.616877032576965,-0.6,1.0,0.0,468.0,929.0,0.0,0,1603.0,1
1447,1447,0.3371606770537069,0.3,1.0,1.0,327.0,937.0,0.0,0,1736.0,0
1448,1448,-0.7471948161344076,-0.7,1.0,0.0,439.0,611.0,0.0,0,1950.0,1
1449,1449,-0.773696433483594,-0.8,0.0,1.0,350.0,657.0,0.0,1,1993.0,0
1450,1450,0.8161881017679414,0.8,1.0,1.0,324.0,628.0,1.0,1,-932.0,1
1451,1451,0.7004562600505574,0.7,1.0,1.0,447.0,782.0,0.0,0,1771.0,0
1452,1452,0.6353267425093237,0.6,1.0,1.0,400.0,804.0,0.0,0,1796.0,0
1453,1453,0.7533866364430498,0.8,1.0,1.0,321.0,653.0,0.0,0,-864.0,0
1454,1454,-0.5293903093844095,-0.5,0.0,1.0,445.0,922.0,0.0,1,1633.0,0
1455,1455,0.3479567796018933,0.3,1.0,1.0,487.0,914.0,0.0,0,-1361.0,0
1456,1456,0.8259443613331742,0.8,0.0,0.0,446.0,815.0,0.0,1,1739.0,1
1457,1457,-0.3611023989343075,-0.4,0.0,1.0,385.0,667.0,0.0,1,1948.0,0
1458,1458,-0.747530435335243,-0.7,0.0,1.0,395.0,583.0,0.0,1,2022.0,0
1459,1459,0.6228099263040957,0.6,1.0,1.0,352.0,749.0,0.0,0,1899.0,0
1460,1460,-0.4724107377885582,-0.5,0.0,1.0,488.0,827.0,0.0,1,1685.0,0
1461,1461,-0.779046284531128,-0.8,0.0,1.0,264.0,843.0,0.0,1,1893.0,0
1462,1462,-0.7754913751370801,-0.8,1.0,0.0,260.0,983.0,0.0,0,1757.0,1
1463,1463,0.14955946046942847,0.1,1.0,1.0,315.0,501.0,0.0,0,2184.0,0
1464,1464,0.3145709225925709,0.3,0.0,0.0,272.0,777.0,0.0,1,1951.0,1
1465,1465,0.41429064111333636,0.4,0.0,0.0,256.0,951.0,0.0,1,-1117.0,1
1466,1466,0.7866442957003029,0.8,1.0,1.0,259.0,672.0,0.0,0,2069.0,0
1467,1467,0.41708527133701445,0.4,1.0,1.0,317.0,565.0,0.0,0,2118.0,0
1468,1468,0.30301040995950423,0.3,0.0,0.0,447.0,552.0,0.0,1,2001.0,1
1469,1469,-0.8959900630131149,-0.9,0.0,1.0,393.0,950.0,0.0,1,1657.0,0
1470,1470,-0.5578148752636525,-0.6,0.0,1.0,385.0,610.0,0.0,1,2005.0,0
