,trial,coherence,coherence_bin,green_side,correct_side,target_onset,checker_onset,decision,green_decision,decision_time,correct_decision
0,0,0.02153178412798329,0.0,0.0,0.0,281.0,769.0,0.0,1,190.0,1
1,1,-0.6912926194372945,-0.7,1.0,0.0,468.0,794.0,0.0,0,138.0,1
2,2,0.26156930828091884,0.3,1.0,1.0,487.0,612.0,1.0,1,461.0,1
3,3,0.7672951658756214,0.8,0.0,0.0,327.0,939.0,0.0,1,104.0,1
4,4,-0.00387551620704929,-0.0,1.0,0.0,499.0,840.0,0.0,0,571.0,1
5,5,0.38773286537419016,0.4,0.0,0.0,331.0,872.0,0.0,1,117.0,1
6,6,-0.4390238366962445,-0.4,1.0,0.0,287.0,878.0,0.0,0,75.0,1
7,7,-0.5235570290134997,-0.5,0.0,1.0,381.0,975.0,1.0,0,154.0,1
8,8,0.7848844985886446,0.8,1.0,1.0,351.0,814.0,1.0,1,105.0,1
9,9,0.46539474314769247,0.5,1.0,1.0,441.0,724.0,1.0,1,275.0,1
10,10,-0.33933089803579597,-0.3,1.0,0.0,356.0,773.0,0.0,0,261.0,1
11,11,-0.0067694982357447975,-0.0,1.0,0.0,278.0,609.0,0.0,0,1413.0,1
12,12,0.5409480960941934,0.5,1.0,1.0,335.0,579.0,1.0,1,236.0,1
13,13,-0.7332961325518197,-0.7,1.0,0.0,329.0,906.0,0.0,0,85.0,1
14,14,-0.8320763171205033,-0.8,0.0,1.0,286.0,843.0,1.0,0,81.0,1
15,15,0.050069624427463766,0.1,1.0,1.0,435.0,671.0,1.0,1,794.0,1
16,16,-0.7732944893007294,-0.8,1.0,0.0,256.0,639.0,0.0,0,145.0,1
17,17,0.15191751219166905,0.2,1.0,1.0,413.0,972.0,1.0,1,485.0,1
18,18,0.312807820859614,0.3,0.0,0.0,381.0,740.0,0.0,1,179.0,1
19,19,-0.028117911078242352,-0.0,1.0,0.0,308.0,609.0,0.0,0,603.0,1
20,20,0.5899869906699263,0.6,1.0,1.0,465.0,673.0,1.0,1,162.0,1
21,21,-0.7093978169166413,-0.7,1.0,0.0,488.0,585.0,0.0,0,137.0,1
22,22,-0.48129699602376685,-0.5,0.0,1.0,360.0,659.0,1.0,0,321.0,1
23,23,-0.5234514834724366,-0.5,1.0,0.0,326.0,579.0,0.0,0,235.0,1
24,24,-0.3499430892055415,-0.3,1.0,0.0,269.0,774.0,0.0,0,417.0,1
25,25,-0.06697978172696328,-0.1,1.0,0.0,384.0,789.0,0.0,0,787.0,1
26,26,0.7538238596068917,0.8,1.0,1.0,387.0,792.0,1.0,1,181.0,1
27,27,0.19848490824913323,0.2,1.0,1.0,252.0,654.0,1.0,1,1124.0,1
28,28,0.5918041215519215,0.6,0.0,0.0,403.0,864.0,0.0,1,213.0,1
29,29,0.3713064594653549,0.4,0.0,0.0,431.0,715.0,0.0,1,244.0,1
30,30,-0.37310265237995865,-0.4,0.0,1.0,335.0,818.0,1.0,0,297.0,1
31,31,-0.6166322496847654,-0.6,0.0,1.0,367.0,664.0,1.0,0,109.0,1
32,32,-0.40095252926375347,-0.4,0.0,1.0,338.0,710.0,1.0,0,292.0,1
33,33,-0.0815150856082224,-0.1,1.0,0.0,319.0,713.0,0.0,0,988.0,1
34,34,-0.4346185518879253,-0.4,1.0,0.0,458.0,650.0,0.0,0,112.0,1
35,35,-0.8647883177109473,-0.9,1.0,0.0,267.0,563.0,0.0,0,160.0,1
36,36,0.5342146890978589,0.5,0.0,0.0,286.0,997.0,0.0,1,167.0,1
37,37,0.7335123236350897,0.7,0.0,0.0,343.0,716.0,0.0,1,231.0,1
38,38,0.6359483409012069,0.6,0.0,0.0,344.0,598.0,0.0,1,208.0,1
39,39,0.8235273319317112,0.8,1.0,1.0,415.0,794.0,1.0,1,171.0,1
40,40,-0.4424702799386307,-0.4,1.0,0.0,487.0,573.0,0.0,0,420.0,1
41,41,0.6518052344220367,0.7,1.0,1.0,311.0,924.0,1.0,1,115.0,1
42,42,0.4769766787877102,0.5,0.0,0.0,310.0,660.0,0.0,1,300.0,1
43,43,0.14414190305810426,0.1,1.0,1.0,394.0,989.0,1.0,1,287.0,1
44,44,0.13864253011623118,0.1,0.0,0.0,291.0,870.0,0.0,1,209.0,1
45,45,0.5173136756472531,0.5,0.0,0.0,301.0,685.0,0.0,1,214.0,1
46,46,-0.39771686738971923,-0.4,1.0,0.0,278.0,722.0,0.0,0,180.0,1
47,47,-0.670255888362197,-0.7,0.0,1.0,318.0,728.0,1.0,0,164.0,1
48,48,0.34427479954970297,0.3,0.0,0.0,277.0,813.0,0.0,1,120.0,1
49,49,-0.37836072627142714,-0.4,0.0,1.0,334.0,641.0,1.0,0,215.0,1
50,50,-0.8710042195735564,-0.9,0.0,1.0,351.0,519.0,1.0,0,390.0,1
51,51,0.6310548020193903,0.6,0.0,0.0,392.0,846.0,0.0,1,112.0,1
52,52,-0.7918509675661971,-0.8,1.0,0.0,472.0,592.0,0.0,0,216.0,1
53,53,-0.8221119839443394,-0.8,1.0,0.0,382.0,837.0,0.0,0,91.0,1
54,54,-0.36094823508439766,-0.4,0.0,1.0,378.0,577.0,1.0,0,325.0,1
55,55,-0.5655590124723324,-0.6,1.0,0.0,411.0,605.0,0.0,0,204.0,1
56,56,-0.48082937994492747,-0.5,0.0,1.0,376.0,720.0,1.0,0,224.0,1
57,57,0.2623762708487255,0.3,0.0,0.0,389.0,989.0,0.0,1,62.0,1
58,58,-0.3246177049794967,-0.3,0.0,1.0,443.0,709.0,1.0,0,218.0,1
59,59,0.6801063423636627,0.7,0.0,0.0,276.0,598.0,0.0,1,136.0,1
60,60,-0.7264840613726595,-0.7,0.0,1.0,292.0,853.0,1.0,0,175.0,1
61,61,0.8134484198313273,0.8,0.0,0.0,452.0,819.0,0.0,1,89.0,1
62,62,-0.8676619090902988,-0.9,1.0,0.0,404.0,788.0,0.0,0,128.0,1
63,63,-0.058704607426846356,-0.1,1.0,0.0,290.0,525.0,0.0,0,465.0,1
64,64,0.6515002936216111,0.7,0.0,0.0,318.0,865.0,0.0,1,-13.0,1
65,65,-0.4262662304513486,-0.4,0.0,1.0,384.0,936.0,1.0,0,120.0,1
66,66,-0.42250279689195713,-0.4,0.0,1.0,489.0,968.0,1.0,0,153.0,1
67,67,-0.8026487981261188,-0.8,0.0,1.0,358.0,814.0,1.0,0,128.0,1
68,68,-0.004981904921598335,-0.0,0.0,1.0,266.0,692.0,0.0,1,1532.0,0
69,69,-0.25059338342397774,-0.3,1.0,0.0,400.0,513.0,0.0,0,407.0,1
70,70,0.17237645100855914,0.2,1.0,1.0,300.0,579.0,1.0,1,391.0,1
71,71,-0.4137588545321115,-0.4,1.0,0.0,305.0,629.0,0.0,0,266.0,1
72,72,0.6404368128181607,0.6,0.0,0.0,395.0,557.0,0.0,1,198.0,1
73,73,0.05190270525501428,0.1,0.0,0.0,393.0,517.0,0.0,1,870.0,1
74,74,-0.8600700595680267,-0.9,1.0,0.0,348.0,523.0,0.0,0,159.0,1
75,75,-0.6145786684714343,-0.6,1.0,0.0,398.0,715.0,0.0,0,137.0,1
76,76,0.39849548817097646,0.4,0.0,0.0,493.0,684.0,0.0,1,343.0,1
77,77,-0.06701242434767818,-0.1,0.0,1.0,284.0,928.0,1.0,0,1468.0,1
78,78,-0.7674200715644846,-0.8,0.0,1.0,344.0,580.0,1.0,0,156.0,1
79,79,0.09412665294398226,0.1,0.0,0.0,435.0,868.0,0.0,1,407.0,1
80,80,-0.3401295768604662,-0.3,0.0,1.0,300.0,512.0,1.0,0,648.0,1
81,81,0.6788566401086183,0.7,1.0,1.0,277.0,527.0,1.0,1,236.0,1
82,82,-0.03376578466541258,-0.0,0.0,1.0,476.0,799.0,0.0,1,795.0,0
83,83,0.5191853504788851,0.5,0.0,0.0,362.0,731.0,0.0,1,197.0,1
84,84,0.7709112497596254,0.8,1.0,1.0,284.0,800.0,1.0,1,86.0,1
85,85,0.029654592072425157,0.0,0.0,0.0,488.0,950.0,0.0,1,572.0,1
86,86,-0.2691296048103753,-0.3,1.0,0.0,402.0,791.0,0.0,0,257.0,1
87,87,-0.8579568705133951,-0.9,1.0,0.0,445.0,523.0,0.0,0,132.0,1
88,88,-0.48103527672108054,-0.5,1.0,0.0,319.0,575.0,0.0,0,296.0,1
89,89,-0.2899803386329469,-0.3,1.0,0.0,435.0,528.0,0.0,0,357.0,1
90,90,0.17962737824578678,0.2,0.0,0.0,341.0,852.0,0.0,1,117.0,1
91,91,-0.8528268971220517,-0.9,0.0,1.0,373.0,541.0,1.0,0,106.0,1
92,92,-0.7395967689081543,-0.7,1.0,0.0,468.0,632.0,0.0,0,190.0,1
93,93,-0.6852610242979895,-0.7,0.0,1.0,374.0,508.0,1.0,0,268.0,1
94,94,0.055127847010837505,0.1,1.0,1.0,395.0,828.0,1.0,1,1117.0,1
95,95,-0.5346355293644128,-0.5,1.0,0.0,339.0,854.0,0.0,0,127.0,1
96,96,-0.5202418717948873,-0.5,1.0,0.0,417.0,982.0,0.0,0,171.0,1
97,97,0.29555137607295257,0.3,0.0,0.0,434.0,761.0,0.0,1,325.0,1
98,98,0.3592547062237538,0.4,1.0,1.0,266.0,883.0,1.0,1,261.0,1
99,99,-0.1565172327536971,-0.2,1.0,0.0,321.0,533.0,0.0,0,446.0,1
100,100,-0.8829196315966492,-0.9,1.0,0.0,475.0,665.0,0.0,0,190.0,1
101,101,-0.662534737117286,-0.7,1.0,0.0,260.0,910.0,0.0,0,140.0,1
102,102,-0.37983853466449746,-0.4,1.0,0.0,369.0,666.0,0.0,0,205.0,1
103,103,0.15625708768579083,0.2,0.0,0.0,486.0,943.0,0.0,1,351.0,1
104,104,0.19784499268940203,0.2,1.0,1.0,283.0,547.0,1.0,1,690.0,1
105,105,0.43955761596582466,0.4,0.0,0.0,470.0,616.0,0.0,1,134.0,1
106,106,0.6244914553420956,0.6,0.0,0.0,451.0,713.0,0.0,1,146.0,1
107,107,-0.367932059074197,-0.4,1.0,0.0,495.0,949.0,0.0,0,66.0,1
108,108,-0.7547457170633446,-0.8,1.0,0.0,339.0,890.0,0.0,0,31.0,1
109,109,0.30580666120748445,0.3,1.0,1.0,491.0,568.0,1.0,1,951.0,1
110,110,0.7387809787031944,0.7,0.0,0.0,378.0,993.0,0.0,1,79.0,1
111,111,-0.718104374722411,-0.7,1.0,0.0,488.0,759.0,0.0,0,113.0,1
112,112,-0.6736294261195475,-0.7,0.0,1.0,451.0,566.0,1.0,0,203.0,1
113,113,-0.5776385656222139,-0.6,1.0,0.0,478.0,619.0,0.0,0,183.0,1
114,114,0.18458932850048326,0.2,1.0,1.0,347.0,800.0,1.0,1,173.0,1
115,115,0.8427651433614017,0.8,1.0,1.0,417.0,873.0,1.0,1,260.0,1
116,116,0.2102164866906563,0.2,0.0,0.0,463.0,996.0,0.0,1,161.0,1
117,117,-0.007852067681760055,-0.0,1.0,0.0,427.0,750.0,0.0,0,1373.0,1
118,118,-0.2511431560542937,-0.3,1.0,0.0,297.0,817.0,0.0,0,216.0,1
119,119,-0.775528823226811,-0.8,1.0,0.0,280.0,732.0,0.0,0,78.0,1
120,120,-0.15197280698107019,-0.2,1.0,0.0,353.0,939.0,0.0,0,278.0,1
121,121,-0.765336418806635,-0.8,0.0,1.0,287.0,533.0,1.0,0,180.0,1
122,122,-0.078777337179466,-0.1,0.0,1.0,277.0,609.0,1.0,0,1014.0,1
123,123,-0.15823109840894545,-0.2,0.0,1.0,391.0,838.0,1.0,0,561.0,1
124,124,-0.6632874601523878,-0.7,0.0,1.0,397.0,648.0,1.0,0,165.0,1
125,125,0.06617024998440157,0.1,1.0,1.0,255.0,813.0,1.0,1,652.0,1
126,126,-0.3112125160988072,-0.3,0.0,1.0,331.0,776.0,1.0,0,253.0,1
127,127,0.033312192484361014,0.0,0.0,0.0,287.0,577.0,0.0,1,606.0,1
128,128,-0.5667127188835189,-0.6,0.0,1.0,262.0,922.0,1.0,0,136.0,1
129,129,0.133469796170557,0.1,0.0,0.0,465.0,979.0,0.0,1,176.0,1
130,130,0.4207358457155367,0.4,0.0,0.0,263.0,736.0,0.0,1,431.0,1
131,131,0.8142142364229429,0.8,0.0,0.0,292.0,575.0,0.0,1,263.0,1
132,132,-0.6779332918192544,-0.7,1.0,0.0,265.0,788.0,0.0,0,117.0,1
133,133,0.8972265224902182,0.9,1.0,1.0,345.0,945.0,0.0,0,-50.0,0
134,134,-0.3870306847318542,-0.4,1.0,0.0,405.0,733.0,0.0,0,242.0,1
135,135,0.5467252571561917,0.5,1.0,1.0,409.0,634.0,1.0,1,157.0,1
136,136,0.7947421923155976,0.8,1.0,1.0,342.0,958.0,1.0,1,90.0,1
137,137,-0.3665096851367613,-0.4,1.0,0.0,326.0,851.0,0.0,0,223.0,1
138,138,0.8184136211988223,0.8,1.0,1.0,468.0,796.0,1.0,1,226.0,1
139,139,-0.22148286072875722,-0.2,0.0,1.0,424.0,638.0,1.0,0,388.0,1
140,140,-0.15874272862051475,-0.2,0.0,1.0,472.0,542.0,1.0,0,486.0,1
141,141,0.8873236035011108,0.9,1.0,1.0,460.0,900.0,1.0,1,110.0,1
142,142,0.14328032389481982,0.1,0.0,0.0,448.0,941.0,0.0,1,401.0,1
143,143,-0.4784003256022676,-0.5,1.0,0.0,383.0,956.0,0.0,0,61.0,1
144,144,0.7137064203458937,0.7,0.0,0.0,473.0,791.0,0.0,1,136.0,1
145,145,0.5554863177381931,0.6,0.0,0.0,362.0,531.0,0.0,1,227.0,1
146,146,-0.08755043605211499,-0.1,1.0,0.0,412.0,644.0,0.0,0,624.0,1
147,147,-0.8105741762667313,-0.8,1.0,0.0,272.0,571.0,0.0,0,187.0,1
148,148,-0.7121469206167326,-0.7,0.0,1.0,427.0,782.0,1.0,0,81.0,1
149,149,-0.7236206674849769,-0.7,1.0,0.0,467.0,662.0,0.0,0,231.0,1
150,150,0.881256473807562,0.9,0.0,0.0,416.0,913.0,0.0,1,141.0,1
151,151,0.5036718488950077,0.5,0.0,0.0,314.0,707.0,0.0,1,229.0,1
152,152,-0.5618584519171248,-0.6,0.0,1.0,265.0,853.0,1.0,0,132.0,1
153,153,0.652475237339807,0.7,0.0,0.0,362.0,969.0,0.0,1,119.0,1
154,154,0.6303966569208598,0.6,0.0,0.0,354.0,509.0,0.0,1,277.0,1
155,155,0.458275599722468,0.5,0.0,0.0,278.0,805.0,0.0,1,157.0,1
156,156,-0.8531655455853664,-0.9,1.0,0.0,367.0,755.0,0.0,0,118.0,1
157,157,-0.8357600668060096,-0.8,1.0,0.0,250.0,710.0,0.0,0,110.0,1
158,158,-0.6635608160483197,-0.7,1.0,0.0,439.0,839.0,0.0,0,172.0,1
159,159,0.5776279231484026,0.6,0.0,0.0,280.0,821.0,0.0,1,139.0,1
160,160,-0.6346730951385978,-0.6,1.0,0.0,453.0,889.0,0.0,0,28.0,1
161,161,-0.7897784238574734,-0.8,1.0,0.0,328.0,965.0,0.0,0,137.0,1
162,162,0.8180118950392602,0.8,1.0,1.0,392.0,669.0,1.0,1,209.0,1
163,163,0.5229316548384869,0.5,1.0,1.0,354.0,591.0,1.0,1,235.0,1
164,164,-0.8346132756638187,-0.8,0.0,1.0,355.0,973.0,1.0,0,62.0,1
165,165,0.7349309419197257,0.7,0.0,0.0,270.0,715.0,0.0,1,205.0,1
166,166,-0.7413248371973645,-0.7,1.0,0.0,374.0,790.0,0.0,0,116.0,1
167,167,-0.419805807605836,-0.4,1.0,0.0,324.0,888.0,0.0,0,48.0,1
168,168,0.09804470587719372,0.1,1.0,1.0,339.0,626.0,1.0,1,1195.0,1
169,169,-0.6358996708732326,-0.6,0.0,1.0,444.0,534.0,1.0,0,172.0,1
170,170,-0.7426411509512428,-0.7,1.0,0.0,419.0,928.0,0.0,0,103.0,1
171,171,-0.2108453728262467,-0.2,1.0,0.0,441.0,621.0,0.0,0,258.0,1
172,172,0.2322582284657989,0.2,0.0,0.0,268.0,846.0,0.0,1,206.0,1
173,173,-0.19903206424794295,-0.2,1.0,0.0,480.0,675.0,0.0,0,485.0,1
174,174,0.47562196695999404,0.5,1.0,1.0,275.0,502.0,1.0,1,353.0,1
175,175,-0.7459265950125613,-0.7,0.0,1.0,477.0,601.0,1.0,0,122.0,1
176,176,-0.33179578967300016,-0.3,0.0,1.0,392.0,663.0,1.0,0,235.0,1
177,177,0.1492062446124559,0.1,0.0,0.0,434.0,981.0,0.0,1,685.0,1
178,178,0.734575585381014,0.7,1.0,1.0,298.0,844.0,1.0,1,98.0,1
179,179,-0.5325752811200088,-0.5,0.0,1.0,264.0,936.0,1.0,0,180.0,1
180,180,0.451065179953713,0.5,1.0,1.0,427.0,913.0,1.0,1,200.0,1
181,181,-0.8612442793139157,-0.9,1.0,0.0,435.0,662.0,0.0,0,203.0,1
182,182,-0.6110921419614765,-0.6,0.0,1.0,469.0,754.0,1.0,0,257.0,1
183,183,-0.4860197308203394,-0.5,1.0,0.0,369.0,522.0,0.0,0,469.0,1
184,184,0.6172729230368635,0.6,1.0,1.0,362.0,657.0,1.0,1,191.0,1
185,185,0.7752387866230704,0.8,0.0,0.0,463.0,855.0,0.0,1,92.0,1
186,186,-0.22551678427549993,-0.2,0.0,1.0,431.0,649.0,1.0,0,210.0,1
187,187,-0.6810560438761575,-0.7,1.0,0.0,475.0,642.0,0.0,0,293.0,1
188,188,0.34460531558468943,0.3,0.0,0.0,341.0,805.0,0.0,1,204.0,1
189,189,-0.615677107232673,-0.6,1.0,0.0,432.0,775.0,0.0,0,203.0,1
190,190,-0.20065800586375848,-0.2,0.0,1.0,288.0,544.0,1.0,0,308.0,1
191,191,-0.8592797140056476,-0.9,1.0,0.0,293.0,850.0,0.0,0,117.0,1
192,192,-0.024442615767539366,-0.0,1.0,0.0,335.0,854.0,0.0,0,391.0,1
193,193,0.2314565014930431,0.2,0.0,0.0,291.0,924.0,0.0,1,155.0,1
194,194,-0.038646374764806146,-0.0,1.0,0.0,383.0,571.0,0.0,0,1806.0,1
195,195,0.15927902320785992,0.2,0.0,0.0,398.0,983.0,0.0,1,369.0,1
196,196,0.3054099125777311,0.3,1.0,1.0,446.0,790.0,1.0,1,244.0,1
197,197,-0.14905563331759442,-0.1,1.0,0.0,397.0,533.0,0.0,0,370.0,1
198,198,-0.19007747243361384,-0.2,0.0,1.0,438.0,723.0,1.0,0,399.0,1
199,199,-0.6871092266663954,-0.7,1.0,0.0,311.0,776.0,0.0,0,143.0,1
200,200,-0.34394651534712306,-0.3,0.0,1.0,477.0,608.0,1.0,0,335.0,1
201,201,-0.09439085944978665,-0.1,0.0,1.0,339.0,918.0,1.0,0,683.0,1
202,202,-0.1372219020141704,-0.1,1.0,0.0,370.0,772.0,0.0,0,388.0,1
203,203,-0.07844567084656007,-0.1,0.0,1.0,261.0,940.0,0.0,1,309.0,0
204,204,-0.5977204145571385,-0.6,0.0,1.0,319.0,515.0,1.0,0,176.0,1
205,205,-0.08041144231646447,-0.1,0.0,1.0,277.0,933.0,0.0,1,230.0,0
206,206,0.633453001019327,0.6,1.0,1.0,282.0,769.0,1.0,1,209.0,1
207,207,-0.31575828181835686,-0.3,1.0,0.0,362.0,791.0,0.0,0,307.0,1
208,208,0.45220921082149956,0.5,1.0,1.0,448.0,924.0,1.0,1,198.0,1
209,209,0.6280737737892798,0.6,0.0,0.0,350.0,647.0,0.0,1,263.0,1
210,210,0.8039443269003871,0.8,1.0,1.0,389.0,551.0,1.0,1,320.0,1
211,211,-0.6467550098349728,-0.6,0.0,1.0,435.0,900.0,1.0,0,155.0,1
212,212,-0.27478005172344033,-0.3,0.0,1.0,277.0,838.0,1.0,0,245.0,1
213,213,0.8992850789285279,0.9,1.0,1.0,251.0,808.0,1.0,1,171.0,1
214,214,-0.45518202694074483,-0.5,0.0,1.0,265.0,685.0,1.0,0,110.0,1
215,215,-0.04255947226612744,-0.0,1.0,0.0,459.0,854.0,0.0,0,227.0,1
216,216,-0.5934754714200856,-0.6,1.0,0.0,434.0,730.0,0.0,0,126.0,1
217,217,-0.06736918298439198,-0.1,1.0,0.0,459.0,949.0,0.0,0,692.0,1
218,218,0.7934439596458555,0.8,0.0,0.0,415.0,590.0,0.0,1,315.0,1
219,219,0.4536016452850805,0.5,0.0,0.0,479.0,893.0,0.0,1,128.0,1
220,220,-0.6963918381616357,-0.7,0.0,1.0,489.0,659.0,1.0,0,282.0,1
221,221,-0.6269208522938534,-0.6,1.0,0.0,272.0,674.0,0.0,0,164.0,1
222,222,0.06776935400696904,0.1,0.0,0.0,382.0,832.0,0.0,1,1246.0,1
223,223,-0.6635921617416959,-0.7,1.0,0.0,310.0,938.0,0.0,0,112.0,1
224,224,0.8757222945023574,0.9,0.0,0.0,472.0,913.0,0.0,1,65.0,1
225,225,-0.47454734256372516,-0.5,0.0,1.0,454.0,563.0,1.0,0,213.0,1
226,226,-0.4079932332871164,-0.4,1.0,0.0,420.0,965.0,0.0,0,145.0,1
227,227,0.4884570742903521,0.5,0.0,0.0,329.0,781.0,0.0,1,190.0,1
228,228,-0.6198261759066651,-0.6,0.0,1.0,346.0,560.0,1.0,0,214.0,1
229,229,0.20543796052591723,0.2,1.0,1.0,300.0,673.0,1.0,1,517.0,1
230,230,0.3010290912251855,0.3,0.0,0.0,407.0,577.0,0.0,1,276.0,1
231,231,-0.4687317046771982,-0.5,0.0,1.0,371.0,727.0,1.0,0,402.0,1
232,232,0.6755498939526544,0.7,0.0,0.0,308.0,724.0,0.0,1,128.0,1
233,233,0.7154625655818377,0.7,1.0,1.0,418.0,909.0,1.0,1,233.0,1
234,234,0.07050106782534538,0.1,1.0,1.0,404.0,716.0,1.0,1,1410.0,1
235,235,0.1491672604409261,0.1,0.0,0.0,386.0,506.0,0.0,1,528.0,1
236,236,-0.28417824419128024,-0.3,0.0,1.0,421.0,559.0,1.0,0,230.0,1
237,237,-0.6120344802458018,-0.6,1.0,0.0,289.0,946.0,0.0,0,155.0,1
238,238,-0.602353658363998,-0.6,0.0,1.0,496.0,764.0,1.0,0,160.0,1
239,239,-0.5149628649338078,-0.5,0.0,1.0,322.0,714.0,1.0,0,124.0,1
240,240,-0.8515884527030618,-0.9,0.0,1.0,279.0,749.0,1.0,0,222.0,1
241,241,-0.029221766449423092,-0.0,1.0,0.0,419.0,900.0,0.0,0,431.0,1
242,242,0.7351407317727675,0.7,1.0,1.0,458.0,943.0,1.0,1,89.0,1
243,243,-0.001986262472972733,-0.0,1.0,0.0,426.0,981.0,0.0,0,1143.0,1
244,244,-0.22535092603081397,-0.2,1.0,0.0,257.0,746.0,0.0,0,267.0,1
245,245,0.6823636913153476,0.7,0.0,0.0,495.0,847.0,0.0,1,128.0,1
246,246,0.2970787660683091,0.3,1.0,1.0,466.0,616.0,1.0,1,348.0,1
247,247,0.05934570297806485,0.1,1.0,1.0,383.0,930.0,1.0,1,567.0,1
248,248,-0.8133105699039372,-0.8,1.0,0.0,410.0,970.0,0.0,0,70.0,1
249,249,-0.11464560532846457,-0.1,1.0,0.0,266.0,775.0,0.0,0,449.0,1
250,250,-0.14214676269777848,-0.1,0.0,1.0,283.0,541.0,1.0,0,336.0,1
251,251,0.6448181482367895,0.6,0.0,0.0,254.0,744.0,0.0,1,132.0,1
252,252,0.7487341677187457,0.7,0.0,0.0,479.0,998.0,0.0,1,103.0,1
253,253,0.2453237385361987,0.2,0.0,0.0,345.0,546.0,0.0,1,469.0,1
254,254,-0.2696485555557875,-0.3,1.0,0.0,444.0,923.0,0.0,0,133.0,1
255,255,0.3719935033963161,0.4,0.0,0.0,293.0,866.0,0.0,1,211.0,1
256,256,-0.3921517020599027,-0.4,1.0,0.0,473.0,968.0,0.0,0,149.0,1
257,257,-0.022841223600051475,-0.0,0.0,1.0,298.0,982.0,0.0,1,630.0,0
258,258,0.6396085683708009,0.6,0.0,0.0,285.0,950.0,0.0,1,45.0,1
259,259,0.648164043992208,0.6,0.0,0.0,353.0,923.0,0.0,1,44.0,1
260,260,-0.12044027948236713,-0.1,0.0,1.0,456.0,890.0,1.0,0,664.0,1
261,261,-0.884606211077688,-0.9,0.0,1.0,285.0,573.0,1.0,0,182.0,1
262,262,-0.1683690942681919,-0.2,0.0,1.0,355.0,500.0,1.0,0,835.0,1
263,263,-0.38475343518647365,-0.4,1.0,0.0,467.0,689.0,0.0,0,114.0,1
264,264,-0.8967382873550056,-0.9,0.0,1.0,302.0,641.0,1.0,0,157.0,1
265,265,-0.6149694103981129,-0.6,1.0,0.0,324.0,683.0,0.0,0,163.0,1
266,266,-0.06325802006124825,-0.1,1.0,0.0,290.0,720.0,0.0,0,160.0,1
267,267,0.3580604986556929,0.4,0.0,0.0,457.0,847.0,0.0,1,176.0,1
268,268,0.18992005414633517,0.2,0.0,0.0,423.0,660.0,0.0,1,287.0,1
269,269,0.2965890131079244,0.3,0.0,0.0,488.0,576.0,0.0,1,306.0,1
270,270,0.24676869712584304,0.2,1.0,1.0,283.0,971.0,1.0,1,576.0,1
271,271,-0.3432215100936564,-0.3,0.0,1.0,253.0,803.0,1.0,0,514.0,1
272,272,0.4348932383263714,0.4,1.0,1.0,481.0,642.0,1.0,1,377.0,1
273,273,-0.1913414572237877,-0.2,1.0,0.0,366.0,702.0,0.0,0,202.0,1
274,274,0.4603948624629096,0.5,1.0,1.0,346.0,522.0,1.0,1,492.0,1
275,275,0.5650814088214805,0.6,1.0,1.0,283.0,834.0,1.0,1,173.0,1
276,276,0.15939920259507623,0.2,0.0,0.0,432.0,926.0,0.0,1,272.0,1
277,277,0.23794369882359956,0.2,1.0,1.0,457.0,879.0,1.0,1,274.0,1
278,278,0.21447486740225463,0.2,0.0,0.0,448.0,614.0,0.0,1,578.0,1
279,279,-0.19205055793711445,-0.2,1.0,0.0,373.0,824.0,0.0,0,313.0,1
280,280,-0.4763449890324786,-0.5,1.0,0.0,329.0,737.0,0.0,0,244.0,1
281,281,0.6606710535486281,0.7,1.0,1.0,327.0,581.0,1.0,1,292.0,1
282,282,0.2978665914513662,0.3,1.0,1.0,285.0,536.0,1.0,1,839.0,1
283,283,-0.43905372754854705,-0.4,0.0,1.0,486.0,863.0,1.0,0,261.0,1
284,284,0.5536532558597039,0.6,1.0,1.0,387.0,632.0,1.0,1,401.0,1
285,285,-0.7244225342846268,-0.7,1.0,0.0,465.0,812.0,0.0,0,143.0,1
286,286,-0.15906926577849534,-0.2,0.0,1.0,472.0,558.0,1.0,0,1040.0,1
287,287,0.7153545995857155,0.7,1.0,1.0,365.0,583.0,1.0,1,162.0,1
288,288,0.32092719747422394,0.3,0.0,0.0,391.0,595.0,0.0,1,364.0,1
289,289,-0.08651104808853971,-0.1,0.0,1.0,263.0,689.0,1.0,0,2048.0,1
290,290,-0.11506158927450494,-0.1,1.0,0.0,402.0,695.0,0.0,0,363.0,1
291,291,0.4972489975557498,0.5,0.0,0.0,392.0,501.0,0.0,1,197.0,1
292,292,0.5025942785996246,0.5,0.0,0.0,264.0,874.0,0.0,1,252.0,1
293,293,0.34526288074549727,0.3,1.0,1.0,268.0,513.0,1.0,1,359.0,1
294,294,0.3609342738757827,0.4,1.0,1.0,262.0,640.0,1.0,1,178.0,1
295,295,-0.4194740117452866,-0.4,1.0,0.0,477.0,925.0,0.0,0,58.0,1
296,296,-0.5800352825032653,-0.6,1.0,0.0,319.0,930.0,0.0,0,81.0,1
297,297,0.4468318661090219,0.4,1.0,1.0,390.0,994.0,1.0,1,176.0,1
298,298,-0.6222385614368201,-0.6,0.0,1.0,380.0,621.0,1.0,0,239.0,1
299,299,-0.18391989290871447,-0.2,1.0,0.0,465.0,595.0,0.0,0,270.0,1
300,300,-0.07862792171714716,-0.1,1.0,0.0,373.0,894.0,0.0,0,413.0,1
301,301,0.4600909527636582,0.5,1.0,1.0,343.0,728.0,1.0,1,159.0,1
302,302,0.4001805248956293,0.4,0.0,0.0,362.0,924.0,0.0,1,184.0,1
303,303,-0.5188898720562092,-0.5,1.0,0.0,295.0,850.0,0.0,0,235.0,1
304,304,-0.5637439543169442,-0.6,0.0,1.0,388.0,804.0,1.0,0,128.0,1
305,305,0.433295614226742,0.4,0.0,0.0,256.0,932.0,0.0,1,92.0,1
306,306,-0.7114899237794924,-0.7,0.0,1.0,339.0,907.0,1.0,0,114.0,1
307,307,0.5179486491581345,0.5,1.0,1.0,419.0,827.0,1.0,1,84.0,1
308,308,0.321118473743497,0.3,0.0,0.0,266.0,571.0,0.0,1,233.0,1
309,309,-0.12438237262990781,-0.1,0.0,1.0,496.0,544.0,1.0,0,1960.0,1
310,310,-0.2962671977718494,-0.3,1.0,0.0,477.0,601.0,0.0,0,392.0,1
311,311,0.2805664012009671,0.3,1.0,1.0,264.0,936.0,1.0,1,370.0,1
312,312,-0.6294578909109521,-0.6,0.0,1.0,493.0,823.0,1.0,0,94.0,1
313,313,0.8844213755684088,0.9,0.0,0.0,293.0,910.0,0.0,1,197.0,1
314,314,-0.5185076515487294,-0.5,1.0,0.0,266.0,851.0,0.0,0,163.0,1
315,315,-0.890762205608523,-0.9,0.0,1.0,378.0,651.0,1.0,0,221.0,1
316,316,0.5989044771049438,0.6,1.0,1.0,382.0,777.0,1.0,1,121.0,1
317,317,0.14655627798036275,0.1,0.0,0.0,291.0,866.0,0.0,1,303.0,1
318,318,0.04114297012468571,0.0,0.0,0.0,413.0,927.0,0.0,1,60.0,1
319,319,0.7247948898220063,0.7,1.0,1.0,264.0,928.0,1.0,1,118.0,1
320,320,0.2989485829099571,0.3,1.0,1.0,265.0,993.0,1.0,1,432.0,1
321,321,-0.3571909224257639,-0.4,1.0,0.0,443.0,670.0,0.0,0,207.0,1
322,322,-0.7999545273155241,-0.8,0.0,1.0,285.0,539.0,1.0,0,416.0,1
323,323,0.6842313358103723,0.7,1.0,1.0,443.0,806.0,1.0,1,241.0,1
324,324,0.2708724142101425,0.3,0.0,0.0,395.0,649.0,0.0,1,206.0,1
325,325,-0.2590143291243917,-0.3,0.0,1.0,379.0,952.0,1.0,0,389.0,1
326,326,0.15973370201252612,0.2,1.0,1.0,381.0,865.0,1.0,1,554.0,1
327,327,0.279461161688613,0.3,1.0,1.0,250.0,691.0,1.0,1,199.0,1
328,328,-0.18766236506740375,-0.2,1.0,0.0,416.0,617.0,0.0,0,347.0,1
329,329,-0.591700161381265,-0.6,0.0,1.0,316.0,990.0,1.0,0,144.0,1
330,330,0.048463638290120126,0.0,1.0,1.0,254.0,564.0,0.0,0,942.0,0
331,331,0.8436802558030355,0.8,0.0,0.0,360.0,761.0,0.0,1,69.0,1
332,332,-0.26303920353717936,-0.3,1.0,0.0,498.0,848.0,0.0,0,454.0,1
333,333,-0.8860929256818396,-0.9,0.0,1.0,334.0,623.0,1.0,0,143.0,1
334,334,0.02747969219641533,0.0,0.0,0.0,250.0,555.0,0.0,1,705.0,1
335,335,0.08649804735834676,0.1,0.0,0.0,451.0,645.0,0.0,1,634.0,1
336,336,0.44436921741305835,0.4,1.0,1.0,437.0,960.0,1.0,1,143.0,1
337,337,0.10352358842718623,0.1,0.0,0.0,483.0,856.0,0.0,1,131.0,1
338,338,-0.5106168733215969,-0.5,0.0,1.0,321.0,967.0,1.0,0,82.0,1
339,339,0.36972617448534406,0.4,0.0,0.0,384.0,714.0,0.0,1,542.0,1
340,340,0.6548724106284339,0.7,0.0,0.0,337.0,558.0,0.0,1,385.0,1
341,341,-0.3361865920152908,-0.3,0.0,1.0,430.0,739.0,1.0,0,161.0,1
342,342,-0.7874142522382646,-0.8,0.0,1.0,295.0,600.0,1.0,0,425.0,1
343,343,-0.5453499144193503,-0.5,0.0,1.0,430.0,705.0,1.0,0,135.0,1
344,344,-0.024803726324469144,-0.0,1.0,0.0,273.0,695.0,0.0,0,1162.0,1
345,345,0.8041692008205724,0.8,0.0,0.0,318.0,503.0,0.0,1,239.0,1
346,346,-0.604470695852789,-0.6,0.0,1.0,414.0,579.0,1.0,0,127.0,1
347,347,0.3512207775626047,0.4,0.0,0.0,403.0,525.0,0.0,1,312.0,1
348,348,-0.8605234143475673,-0.9,0.0,1.0,481.0,729.0,1.0,0,180.0,1
349,349,0.33693394258904974,0.3,1.0,1.0,430.0,676.0,1.0,1,494.0,1
350,350,0.8550939494734916,0.9,0.0,0.0,293.0,905.0,0.0,1,52.0,1
351,351,-0.5274267519046871,-0.5,0.0,1.0,280.0,765.0,1.0,0,225.0,1
352,352,-0.468386504851732,-0.5,0.0,1.0,339.0,795.0,1.0,0,276.0,1
353,353,-0.4359764202874999,-0.4,0.0,1.0,251.0,672.0,1.0,0,187.0,1
354,354,0.6027111284508141,0.6,0.0,0.0,291.0,931.0,0.0,1,218.0,1
355,355,0.7823224551699849,0.8,1.0,1.0,406.0,528.0,1.0,1,176.0,1
356,356,-0.581878394469928,-0.6,0.0,1.0,425.0,513.0,1.0,0,382.0,1
357,357,-0.08452320711747596,-0.1,0.0,1.0,301.0,883.0,0.0,1,1816.0,0
358,358,0.39895443626584004,0.4,1.0,1.0,300.0,990.0,1.0,1,230.0,1
359,359,-0.11073262305936094,-0.1,0.0,1.0,318.0,935.0,1.0,0,1417.0,1
360,360,-0.8589180227933279,-0.9,0.0,1.0,357.0,830.0,1.0,0,163.0,1
361,361,-0.4321496753432751,-0.4,0.0,1.0,457.0,627.0,1.0,0,276.0,1
362,362,-0.05532512406938672,-0.1,0.0,1.0,318.0,794.0,0.0,1,698.0,0
363,363,0.0797411716245292,0.1,1.0,1.0,394.0,794.0,1.0,1,1122.0,1
364,364,-0.8879008953420826,-0.9,0.0,1.0,497.0,983.0,1.0,0,120.0,1
365,365,0.5923028211683604,0.6,1.0,1.0,453.0,506.0,1.0,1,561.0,1
366,366,-0.8220703970045851,-0.8,0.0,1.0,353.0,714.0,1.0,0,123.0,1
367,367,0.7211852197711742,0.7,1.0,1.0,303.0,519.0,1.0,1,248.0,1
368,368,-0.1927154916963082,-0.2,0.0,1.0,403.0,875.0,1.0,0,312.0,1
369,369,0.6329554707409942,0.6,1.0,1.0,342.0,797.0,1.0,1,281.0,1
370,370,0.22020672013092446,0.2,0.0,0.0,336.0,733.0,0.0,1,391.0,1
371,371,0.1679650058208123,0.2,1.0,1.0,362.0,875.0,1.0,1,333.0,1
372,372,0.17307562962137057,0.2,1.0,1.0,439.0,715.0,1.0,1,336.0,1
373,373,0.21287828167406275,0.2,0.0,0.0,393.0,915.0,0.0,1,402.0,1
374,374,-0.324168080409847,-0.3,1.0,0.0,451.0,513.0,0.0,0,196.0,1
375,375,-0.04048629373142887,-0.0,0.0,1.0,479.0,592.0,1.0,0,309.0,1
376,376,-0.05323111775264289,-0.1,1.0,0.0,306.0,543.0,0.0,0,501.0,1
377,377,0.6281609390316404,0.6,1.0,1.0,315.0,948.0,1.0,1,137.0,1
378,378,0.5519833148787175,0.6,1.0,1.0,301.0,872.0,1.0,1,157.0,1
379,379,-0.13181551381084156,-0.1,0.0,1.0,369.0,923.0,1.0,0,538.0,1
380,380,0.6761089625331559,0.7,0.0,0.0,471.0,916.0,0.0,1,93.0,1
381,381,-0.5872669939403585,-0.6,0.0,1.0,384.0,922.0,1.0,0,354.0,1
382,382,0.8222994391815531,0.8,0.0,0.0,334.0,835.0,0.0,1,41.0,1
383,383,0.4595804269811531,0.5,0.0,0.0,262.0,823.0,0.0,1,135.0,1
384,384,0.6962936432623176,0.7,1.0,1.0,494.0,739.0,1.0,1,187.0,1
385,385,0.34800560557882354,0.3,0.0,0.0,384.0,579.0,0.0,1,367.0,1
386,386,0.21964031453842592,0.2,1.0,1.0,298.0,947.0,1.0,1,435.0,1
387,387,-0.8247209199701501,-0.8,0.0,1.0,435.0,923.0,0.0,1,-28.0,0
388,388,0.5025925467995206,0.5,1.0,1.0,283.0,917.0,1.0,1,110.0,1
389,389,0.6783810478854303,0.7,0.0,0.0,423.0,731.0,0.0,1,136.0,1
390,390,-0.7904678661389161,-0.8,0.0,1.0,355.0,658.0,1.0,0,127.0,1
391,391,0.38898030282458096,0.4,1.0,1.0,266.0,799.0,1.0,1,235.0,1
392,392,0.677175411221531,0.7,0.0,0.0,394.0,606.0,0.0,1,180.0,1
393,393,-0.556080406486505,-0.6,1.0,0.0,361.0,791.0,0.0,0,168.0,1
394,394,-0.7120287237554161,-0.7,1.0,0.0,455.0,870.0,0.0,0,35.0,1
395,395,-0.8635033679229798,-0.9,1.0,0.0,473.0,748.0,0.0,0,169.0,1
396,396,-0.47418607817929104,-0.5,0.0,1.0,369.0,560.0,1.0,0,221.0,1
397,397,0.5301987918515966,0.5,1.0,1.0,479.0,983.0,1.0,1,138.0,1
398,398,0.6830039121130594,0.7,1.0,1.0,323.0,930.0,1.0,1,47.0,1
399,399,0.2604852819061002,0.3,1.0,1.0,295.0,509.0,1.0,1,606.0,1
400,400,-0.46551051122074005,-0.5,1.0,0.0,443.0,869.0,0.0,0,148.0,1
401,401,0.6572163431405621,0.7,0.0,0.0,369.0,950.0,0.0,1,161.0,1
402,402,-0.22747393544508443,-0.2,0.0,1.0,334.0,677.0,1.0,0,339.0,1
403,403,-0.6313055097595563,-0.6,0.0,1.0,255.0,722.0,1.0,0,243.0,1
404,404,0.419251083608687,0.4,1.0,1.0,365.0,756.0,1.0,1,309.0,1
405,405,0.2707669959077973,0.3,0.0,0.0,286.0,797.0,0.0,1,237.0,1
406,406,0.6744403038452907,0.7,0.0,0.0,310.0,988.0,0.0,1,72.0,1
407,407,-0.7490140531917748,-0.7,1.0,0.0,408.0,733.0,0.0,0,289.0,1
408,408,0.35970313579922275,0.4,0.0,0.0,460.0,767.0,0.0,1,323.0,1
409,409,0.4638921420386001,0.5,1.0,1.0,387.0,881.0,1.0,1,162.0,1
410,410,-0.2661900725320451,-0.3,0.0,1.0,271.0,532.0,1.0,0,577.0,1
411,411,-0.37735156339498777,-0.4,0.0,1.0,426.0,844.0,1.0,0,220.0,1
412,412,0.49758245086168496,0.5,0.0,0.0,307.0,790.0,0.0,1,213.0,1
413,413,0.4435113449823064,0.4,1.0,1.0,264.0,980.0,1.0,1,146.0,1
414,414,0.3862941429113408,0.4,0.0,0.0,446.0,747.0,0.0,1,157.0,1
415,415,-0.443788268956988,-0.4,0.0,1.0,407.0,886.0,1.0,0,7.0,1
416,416,-0.36060151245844696,-0.4,0.0,1.0,499.0,505.0,1.0,0,396.0,1
417,417,0.4060153730569852,0.4,1.0,1.0,377.0,599.0,1.0,1,224.0,1
418,418,-0.654925812798068,-0.7,0.0,1.0,430.0,857.0,1.0,0,163.0,1
419,419,0.28035143903312976,0.3,1.0,1.0,490.0,996.0,1.0,1,214.0,1
420,420,-0.5782400097881282,-0.6,1.0,0.0,437.0,978.0,0.0,0,85.0,1
421,421,-0.3845885811865063,-0.4,1.0,0.0,442.0,662.0,0.0,0,186.0,1
422,422,-0.14405609306832812,-0.1,0.0,1.0,491.0,898.0,1.0,0,231.0,1
423,423,0.7385591544694957,0.7,0.0,0.0,425.0,577.0,0.0,1,198.0,1
424,424,-0.18741818108458197,-0.2,0.0,1.0,264.0,936.0,1.0,0,250.0,1
425,425,-0.5934637028206,-0.6,1.0,0.0,421.0,793.0,0.0,0,316.0,1
426,426,-0.8271684193591707,-0.8,0.0,1.0,356.0,792.0,1.0,0,112.0,1
427,427,-0.40337785376622964,-0.4,0.0,1.0,415.0,861.0,1.0,0,94.0,1
428,428,0.07882434068856359,0.1,1.0,1.0,348.0,734.0,0.0,0,528.0,0
429,429,-0.10045939440600149,-0.1,1.0,0.0,381.0,916.0,0.0,0,453.0,1
430,430,0.23363794730410004,0.2,0.0,0.0,499.0,908.0,0.0,1,323.0,1
431,431,-0.09897749809782952,-0.1,1.0,0.0,379.0,925.0,0.0,0,1016.0,1
432,432,0.1782718347482607,0.2,1.0,1.0,293.0,632.0,1.0,1,415.0,1
433,433,0.2180255290235774,0.2,1.0,1.0,264.0,948.0,1.0,1,138.0,1
434,434,0.2379790691740965,0.2,0.0,0.0,417.0,650.0,0.0,1,333.0,1
435,435,-0.7172366293603624,-0.7,0.0,1.0,441.0,886.0,1.0,0,93.0,1
436,436,0.4995170472434355,0.5,1.0,1.0,460.0,573.0,1.0,1,207.0,1
437,437,-0.6421392619822319,-0.6,0.0,1.0,424.0,933.0,1.0,0,73.0,1
438,438,0.5900191237300826,0.6,1.0,1.0,255.0,719.0,1.0,1,126.0,1
439,439,-0.888004429244542,-0.9,0.0,1.0,281.0,799.0,1.0,0,90.0,1
440,440,0.5740107014551222,0.6,1.0,1.0,367.0,850.0,1.0,1,213.0,1
441,441,-0.7132683634753242,-0.7,1.0,0.0,391.0,615.0,0.0,0,204.0,1
442,442,0.1790838949190222,0.2,0.0,0.0,441.0,690.0,0.0,1,549.0,1
443,443,0.6022220707562688,0.6,0.0,0.0,447.0,952.0,0.0,1,111.0,1
444,444,-0.7261377462055698,-0.7,1.0,0.0,306.0,865.0,0.0,0,99.0,1
445,445,-0.0009975468280007949,-0.0,0.0,1.0,368.0,899.0,0.0,1,973.0,0
446,446,0.8164441965577615,0.8,0.0,0.0,274.0,873.0,0.0,1,163.0,1
447,447,0.22924773677425947,0.2,0.0,0.0,453.0,646.0,0.0,1,371.0,1
448,448,0.3058696376471316,0.3,0.0,0.0,423.0,505.0,0.0,1,412.0,1
449,449,0.41872390176645335,0.4,0.0,0.0,357.0,874.0,0.0,1,109.0,1
450,450,0.3581014018295944,0.4,0.0,0.0,437.0,738.0,0.0,1,275.0,1
451,451,-0.4572447667226377,-0.5,1.0,0.0,480.0,988.0,0.0,0,-178.0,1
452,452,-0.48885421713073235,-0.5,0.0,1.0,285.0,829.0,1.0,0,136.0,1
453,453,0.2938553789865942,0.3,0.0,0.0,340.0,616.0,0.0,1,234.0,1
454,454,0.7774417153054841,0.8,0.0,0.0,462.0,709.0,0.0,1,109.0,1
455,455,0.09134378382531838,0.1,0.0,0.0,447.0,562.0,0.0,1,1711.0,1
456,456,-0.5333528810451785,-0.5,0.0,1.0,412.0,988.0,1.0,0,150.0,1
457,457,0.7567828775970821,0.8,1.0,1.0,362.0,794.0,1.0,1,144.0,1
458,458,0.06863706159647631,0.1,0.0,0.0,285.0,803.0,0.0,1,1142.0,1
459,459,0.38889768516136203,0.4,0.0,0.0,291.0,940.0,0.0,1,159.0,1
460,460,0.59395281001038,0.6,0.0,0.0,382.0,885.0,0.0,1,93.0,1
461,461,-0.11739253209599476,-0.1,0.0,1.0,321.0,747.0,1.0,0,1902.0,1
462,462,0.24216832500971586,0.2,0.0,0.0,440.0,922.0,0.0,1,158.0,1
463,463,0.4268731491053611,0.4,0.0,0.0,439.0,857.0,0.0,1,254.0,1
464,464,-0.3338429996456459,-0.3,0.0,1.0,315.0,717.0,1.0,0,388.0,1
465,465,-0.5761960182982853,-0.6,0.0,1.0,493.0,690.0,1.0,0,257.0,1
466,466,0.18820228030784658,0.2,1.0,1.0,448.0,515.0,1.0,1,557.0,1
467,467,0.8100169310195392,0.8,1.0,1.0,261.0,519.0,1.0,1,250.0,1
468,468,0.11917549164308927,0.1,1.0,1.0,345.0,623.0,1.0,1,592.0,1
469,469,0.6294903000190549,0.6,0.0,0.0,455.0,752.0,0.0,1,153.0,1
470,470,-0.12126445125370022,-0.1,1.0,0.0,321.0,939.0,0.0,0,420.0,1
471,471,0.45804561876996586,0.5,1.0,1.0,339.0,734.0,1.0,1,257.0,1
472,472,-0.5885042498675277,-0.6,0.0,1.0,452.0,672.0,1.0,0,166.0,1
473,473,0.5374172681597079,0.5,0.0,0.0,394.0,775.0,0.0,1,241.0,1
474,474,0.14786150106326434,0.1,0.0,0.0,368.0,908.0,0.0,1,284.0,1
475,475,-0.12862048194775144,-0.1,0.0,1.0,263.0,738.0,1.0,0,469.0,1
476,476,-0.4909302256842982,-0.5,1.0,0.0,489.0,959.0,0.0,0,62.0,1
477,477,-0.33278275749944786,-0.3,0.0,1.0,301.0,760.0,1.0,0,249.0,1
478,478,-0.6777001744817878,-0.7,1.0,0.0,352.0,860.0,0.0,0,88.0,1
479,479,0.23014523982031287,0.2,0.0,0.0,485.0,942.0,0.0,1,113.0,1
480,480,0.17301182751878186,0.2,1.0,1.0,279.0,777.0,1.0,1,544.0,1
481,481,0.7569499710784887,0.8,1.0,1.0,386.0,933.0,1.0,1,141.0,1
482,482,0.1701562622250702,0.2,1.0,1.0,419.0,659.0,1.0,1,242.0,1
483,483,0.5035089529165798,0.5,0.0,0.0,276.0,805.0,0.0,1,189.0,1
484,484,0.4398056890912002,0.4,1.0,1.0,412.0,506.0,1.0,1,282.0,1
485,485,-0.5782423319761694,-0.6,0.0,1.0,410.0,802.0,1.0,0,128.0,1
486,486,-0.6567174378712478,-0.7,0.0,1.0,319.0,722.0,1.0,0,189.0,1
487,487,0.14099365299406885,0.1,1.0,1.0,434.0,945.0,1.0,1,331.0,1
488,488,0.1311280342313238,0.1,0.0,0.0,269.0,702.0,0.0,1,299.0,1
489,489,0.2955216527914505,0.3,1.0,1.0,268.0,591.0,1.0,1,261.0,1
490,490,0.2273715411358258,0.2,0.0,0.0,354.0,772.0,0.0,1,174.0,1
491,491,0.4819027722091044,0.5,0.0,0.0,422.0,626.0,0.0,1,112.0,1
492,492,-0.48395059655046885,-0.5,1.0,0.0,321.0,698.0,0.0,0,161.0,1
493,493,0.4040596539716973,0.4,1.0,1.0,383.0,626.0,1.0,1,441.0,1
494,494,0.3439566396227943,0.3,1.0,1.0,366.0,943.0,1.0,1,51.0,1
495,495,-0.36280716540609315,-0.4,0.0,1.0,310.0,707.0,1.0,0,293.0,1
496,496,0.8944400172985673,0.9,0.0,0.0,349.0,775.0,0.0,1,116.0,1
497,497,-0.24395971545693584,-0.2,1.0,0.0,295.0,611.0,0.0,0,434.0,1
498,498,0.5883309521853531,0.6,0.0,0.0,286.0,695.0,0.0,1,149.0,1
499,499,-0.4419623950947616,-0.4,1.0,0.0,393.0,718.0,0.0,0,189.0,1
500,500,-0.8413985682457666,-0.8,0.0,1.0,409.0,913.0,1.0,0,48.0,1
501,501,0.7101766720077466,0.7,0.0,0.0,343.0,901.0,0.0,1,106.0,1
502,502,0.6158896173345224,0.6,1.0,1.0,414.0,810.0,1.0,1,226.0,1
503,503,-0.8976235716504908,-0.9,1.0,0.0,485.0,683.0,0.0,0,222.0,1
504,504,-0.22102281824516978,-0.2,0.0,1.0,368.0,999.0,1.0,0,203.0,1
505,505,0.19026353102095073,0.2,1.0,1.0,475.0,512.0,1.0,1,563.0,1
506,506,-0.8141606796645064,-0.8,0.0,1.0,474.0,792.0,1.0,0,124.0,1
507,507,0.8354186122745869,0.8,1.0,1.0,341.0,530.0,1.0,1,259.0,1
508,508,0.6890330475106782,0.7,1.0,1.0,286.0,684.0,1.0,1,220.0,1
509,509,-0.7744023169937129,-0.8,1.0,0.0,456.0,810.0,0.0,0,154.0,1
510,510,0.19505423115331266,0.2,0.0,0.0,270.0,615.0,0.0,1,165.0,1
511,511,-0.43326839918799276,-0.4,1.0,0.0,346.0,892.0,0.0,0,252.0,1
512,512,-0.7762570820022793,-0.8,0.0,1.0,470.0,588.0,1.0,0,332.0,1
513,513,-0.8181070897695557,-0.8,0.0,1.0,374.0,740.0,1.0,0,176.0,1
514,514,0.5974235934205899,0.6,1.0,1.0,398.0,824.0,1.0,1,178.0,1
515,515,0.6814052637486717,0.7,0.0,0.0,386.0,980.0,0.0,1,74.0,1
516,516,0.7404902679525177,0.7,1.0,1.0,429.0,611.0,1.0,1,210.0,1
517,517,0.32928249616373984,0.3,0.0,0.0,379.0,891.0,0.0,1,70.0,1
518,518,-0.49526021365239514,-0.5,0.0,1.0,499.0,754.0,1.0,0,157.0,1
519,519,-0.2418609040876889,-0.2,0.0,1.0,405.0,790.0,1.0,0,195.0,1
520,520,-0.5096801420312211,-0.5,1.0,0.0,359.0,864.0,0.0,0,137.0,1
521,521,-0.002125916047527987,-0.0,1.0,0.0,293.0,767.0,0.0,0,1300.0,1
522,522,0.3720927992927262,0.4,1.0,1.0,286.0,727.0,1.0,1,267.0,1
523,523,0.5584891900478194,0.6,1.0,1.0,319.0,953.0,1.0,1,138.0,1
524,524,-0.7899707041286754,-0.8,1.0,0.0,402.0,771.0,0.0,0,127.0,1
525,525,-0.6625824384065111,-0.7,0.0,1.0,379.0,830.0,1.0,0,111.0,1
526,526,0.8171952421173866,0.8,0.0,0.0,265.0,598.0,0.0,1,177.0,1
527,527,-0.07461411221299885,-0.1,1.0,0.0,375.0,808.0,0.0,0,677.0,1
528,528,-0.7693405392729988,-0.8,0.0,1.0,264.0,664.0,1.0,0,262.0,1
529,529,-0.33975764023599986,-0.3,0.0,1.0,360.0,885.0,1.0,0,105.0,1
530,530,0.04146122961376686,0.0,0.0,0.0,438.0,561.0,0.0,1,1561.0,1
531,531,0.8265673591132362,0.8,0.0,0.0,416.0,741.0,0.0,1,93.0,1
532,532,-0.4270120734770166,-0.4,0.0,1.0,435.0,632.0,1.0,0,223.0,1
533,533,0.5469613279315627,0.5,1.0,1.0,453.0,700.0,1.0,1,227.0,1
534,534,0.8973368795778077,0.9,1.0,1.0,287.0,729.0,1.0,1,154.0,1
535,535,-0.4008073029711445,-0.4,0.0,1.0,262.0,589.0,1.0,0,309.0,1
536,536,-0.5757219324746462,-0.6,1.0,0.0,277.0,921.0,0.0,0,112.0,1
537,537,-0.5484981031845393,-0.5,1.0,0.0,359.0,501.0,0.0,0,370.0,1
538,538,-0.5644328192334543,-0.6,1.0,0.0,332.0,753.0,0.0,0,245.0,1
539,539,-0.8815868694135638,-0.9,0.0,1.0,498.0,556.0,1.0,0,116.0,1
540,540,0.17940126606448048,0.2,0.0,0.0,427.0,717.0,0.0,1,476.0,1
541,541,0.23790388014753205,0.2,1.0,1.0,357.0,572.0,1.0,1,331.0,1
542,542,-0.1405268067274874,-0.1,1.0,0.0,433.0,749.0,0.0,0,238.0,1
543,543,0.3048826601475533,0.3,1.0,1.0,426.0,578.0,1.0,1,356.0,1
544,544,0.82711796399054,0.8,0.0,0.0,354.0,954.0,0.0,1,62.0,1
545,545,-0.5120963227719371,-0.5,1.0,0.0,281.0,715.0,0.0,0,184.0,1
546,546,-0.24765575676519025,-0.2,1.0,0.0,459.0,920.0,0.0,0,131.0,1
547,547,-0.09689388679497069,-0.1,0.0,1.0,409.0,895.0,1.0,0,666.0,1
548,548,0.28876673110044215,0.3,0.0,0.0,412.0,833.0,0.0,1,305.0,1
549,549,0.6648505524058722,0.7,1.0,1.0,342.0,576.0,1.0,1,262.0,1
550,550,0.844750958762481,0.8,0.0,0.0,310.0,889.0,0.0,1,211.0,1
551,551,-0.14981697853859743,-0.1,1.0,0.0,393.0,572.0,0.0,0,615.0,1
552,552,-0.4948856345895924,-0.5,0.0,1.0,384.0,723.0,1.0,0,313.0,1
553,553,0.794558021557963,0.8,0.0,0.0,481.0,519.0,0.0,1,200.0,1
554,554,-0.15858100010082465,-0.2,0.0,1.0,426.0,808.0,1.0,0,426.0,1
555,555,0.2048558065559315,0.2,1.0,1.0,298.0,628.0,1.0,1,374.0,1
556,556,0.43835241062385755,0.4,0.0,0.0,265.0,649.0,0.0,1,206.0,1
557,557,-0.540621567846153,-0.5,1.0,0.0,333.0,990.0,0.0,0,157.0,1
558,558,0.8884789209212703,0.9,1.0,1.0,429.0,988.0,1.0,1,73.0,1
559,559,-0.3822283381901448,-0.4,0.0,1.0,325.0,586.0,1.0,0,249.0,1
560,560,0.6215639866780015,0.6,1.0,1.0,279.0,595.0,1.0,1,166.0,1
561,561,0.6294013754814426,0.6,0.0,0.0,411.0,868.0,0.0,1,201.0,1
562,562,-0.2174927357309977,-0.2,1.0,0.0,363.0,689.0,0.0,0,638.0,1
563,563,0.5207104015515552,0.5,0.0,0.0,471.0,524.0,0.0,1,235.0,1
564,564,0.04969653542632446,0.0,1.0,1.0,387.0,515.0,1.0,1,1578.0,1
565,565,-0.808087216741124,-0.8,1.0,0.0,456.0,689.0,0.0,0,205.0,1
566,566,0.3258667050127536,0.3,1.0,1.0,359.0,988.0,1.0,1,223.0,1
567,567,0.4968393456474657,0.5,0.0,0.0,416.0,741.0,0.0,1,393.0,1
568,568,-0.3051685390430994,-0.3,1.0,0.0,405.0,920.0,0.0,0,415.0,1
569,569,0.05255955549813429,0.1,1.0,1.0,478.0,657.0,1.0,1,1865.0,1
570,570,-0.07014696131544318,-0.1,0.0,1.0,443.0,753.0,1.0,0,1804.0,1
571,571,0.709472107880826,0.7,1.0,1.0,319.0,722.0,1.0,1,259.0,1
572,572,0.2292523190190362,0.2,1.0,1.0,479.0,918.0,1.0,1,583.0,1
573,573,0.27631382765074786,0.3,0.0,0.0,488.0,830.0,0.0,1,152.0,1
574,574,-0.12629726891620552,-0.1,0.0,1.0,395.0,812.0,1.0,0,153.0,1
575,575,-0.30311447281369,-0.3,1.0,0.0,436.0,513.0,0.0,0,351.0,1
576,576,0.3344450125177326,0.3,0.0,0.0,466.0,775.0,0.0,1,109.0,1
577,577,-0.024369043131605705,-0.0,0.0,1.0,274.0,750.0,0.0,1,1796.0,0
578,578,-0.7500153864819029,-0.8,1.0,0.0,442.0,610.0,0.0,0,148.0,1
579,579,0.8751773276797054,0.9,1.0,1.0,395.0,855.0,1.0,1,120.0,1
580,580,0.3684073929754005,0.4,1.0,1.0,458.0,591.0,1.0,1,221.0,1
581,581,-0.28638858581114013,-0.3,0.0,1.0,415.0,551.0,1.0,0,544.0,1
582,582,-0.3732054773543112,-0.4,0.0,1.0,350.0,894.0,1.0,0,256.0,1
583,583,-0.8064748836010381,-0.8,1.0,0.0,324.0,710.0,0.0,0,116.0,1
584,584,-0.7338188046962667,-0.7,0.0,1.0,277.0,909.0,1.0,0,84.0,1
585,585,-0.5021418812733726,-0.5,0.0,1.0,353.0,900.0,1.0,0,77.0,1
586,586,0.16373994450787566,0.2,0.0,0.0,254.0,878.0,0.0,1,208.0,1
587,587,-0.20131140437731687,-0.2,0.0,1.0,304.0,560.0,1.0,0,576.0,1
588,588,-0.1151191357713457,-0.1,1.0,0.0,252.0,673.0,0.0,0,395.0,1
589,589,-0.5150144126210698,-0.5,1.0,0.0,471.0,961.0,0.0,0,238.0,1
590,590,0.710386387523224,0.7,0.0,0.0,390.0,599.0,0.0,1,201.0,1
591,591,-0.6550459488816447,-0.7,1.0,0.0,353.0,791.0,0.0,0,136.0,1
592,592,-0.8423164583201342,-0.8,0.0,1.0,428.0,896.0,1.0,0,106.0,1
593,593,-0.8899677131299961,-0.9,1.0,0.0,275.0,677.0,0.0,0,178.0,1
594,594,0.195437656734741,0.2,0.0,0.0,348.0,924.0,0.0,1,68.0,1
595,595,-0.33802735899630054,-0.3,1.0,0.0,389.0,842.0,0.0,0,199.0,1
596,596,-0.14190767153969042,-0.1,0.0,1.0,430.0,686.0,1.0,0,414.0,1
597,597,0.5218631857797541,0.5,0.0,0.0,423.0,752.0,0.0,1,175.0,1
598,598,-0.7671346448997429,-0.8,0.0,1.0,286.0,913.0,1.0,0,101.0,1
599,599,-0.8762808175186445,-0.9,1.0,0.0,388.0,550.0,0.0,0,212.0,1
600,600,-0.15753054754640905,-0.2,0.0,1.0,418.0,573.0,1.0,0,469.0,1
601,601,-0.2126910274377638,-0.2,0.0,1.0,344.0,801.0,1.0,0,295.0,1
602,602,0.4124572757402879,0.4,0.0,0.0,439.0,752.0,0.0,1,129.0,1
603,603,-0.44339844029927294,-0.4,1.0,0.0,388.0,704.0,0.0,0,208.0,1
604,604,0.2716191709039889,0.3,0.0,0.0,320.0,878.0,0.0,1,232.0,1
605,605,-0.18232731507825395,-0.2,0.0,1.0,339.0,589.0,1.0,0,372.0,1
606,606,-0.5072809000453986,-0.5,0.0,1.0,327.0,660.0,1.0,0,223.0,1
607,607,0.027808610883674145,0.0,0.0,0.0,370.0,951.0,0.0,1,289.0,1
608,608,0.6131641746455195,0.6,1.0,1.0,461.0,908.0,1.0,1,231.0,1
609,609,0.4675570239606476,0.5,1.0,1.0,473.0,913.0,1.0,1,154.0,1
610,610,0.8592354752568977,0.9,0.0,0.0,316.0,663.0,0.0,1,181.0,1
611,611,0.43180225753414503,0.4,1.0,1.0,315.0,664.0,1.0,1,261.0,1
612,612,-0.733420416398179,-0.7,1.0,0.0,472.0,716.0,0.0,0,252.0,1
613,613,0.5635446668035274,0.6,0.0,0.0,274.0,686.0,0.0,1,260.0,1
614,614,-0.03305835187226547,-0.0,1.0,0.0,283.0,578.0,0.0,0,1629.0,1
615,615,-0.6938228819819453,-0.7,0.0,1.0,385.0,664.0,1.0,0,91.0,1
616,616,-0.03646044809826754,-0.0,1.0,0.0,486.0,669.0,0.0,0,455.0,1
617,617,-0.40460465477553714,-0.4,0.0,1.0,395.0,685.0,1.0,0,220.0,1
618,618,0.6773655864905689,0.7,0.0,0.0,327.0,759.0,0.0,1,124.0,1
619,619,0.4182847410449869,0.4,0.0,0.0,365.0,671.0,0.0,1,394.0,1
620,620,-0.19345732581549657,-0.2,0.0,1.0,412.0,812.0,1.0,0,346.0,1
621,621,0.7485879657974551,0.7,0.0,0.0,352.0,737.0,0.0,1,101.0,1
622,622,0.18828795358927042,0.2,1.0,1.0,337.0,635.0,1.0,1,368.0,1
623,623,-0.5784412579072458,-0.6,1.0,0.0,269.0,975.0,0.0,0,66.0,1
624,624,-0.7080709737439643,-0.7,1.0,0.0,384.0,862.0,0.0,0,114.0,1
625,625,0.7199311695551341,0.7,1.0,1.0,373.0,504.0,1.0,1,443.0,1
626,626,-0.3365131792920807,-0.3,0.0,1.0,361.0,541.0,1.0,0,428.0,1
627,627,0.724901136027435,0.7,0.0,0.0,469.0,812.0,0.0,1,159.0,1
628,628,0.5625166516929031,0.6,1.0,1.0,367.0,608.0,1.0,1,195.0,1
629,629,-0.30854167814442457,-0.3,1.0,0.0,421.0,540.0,0.0,0,649.0,1
630,630,-0.7749253177938514,-0.8,1.0,0.0,416.0,879.0,0.0,0,105.0,1
631,631,0.33763488706205236,0.3,0.0,0.0,278.0,876.0,0.0,1,116.0,1
632,632,-0.6072282877425883,-0.6,0.0,1.0,256.0,723.0,1.0,0,101.0,1
633,633,0.4571158754374568,0.5,0.0,0.0,415.0,887.0,0.0,1,78.0,1
634,634,0.37989721086953454,0.4,1.0,1.0,300.0,853.0,1.0,1,257.0,1
635,635,0.15641920044248947,0.2,1.0,1.0,446.0,559.0,1.0,1,885.0,1
636,636,0.7527575881976473,0.8,0.0,0.0,258.0,994.0,0.0,1,188.0,1
637,637,0.4905389765597342,0.5,1.0,1.0,493.0,629.0,1.0,1,208.0,1
638,638,-0.6824103421904512,-0.7,0.0,1.0,383.0,897.0,1.0,0,170.0,1
639,639,-0.317380510004849,-0.3,1.0,0.0,275.0,844.0,0.0,0,171.0,1
640,640,-0.5907405228193142,-0.6,1.0,0.0,312.0,874.0,0.0,0,114.0,1
641,641,0.7623337429444609,0.8,0.0,0.0,473.0,645.0,0.0,1,112.0,1
642,642,0.3073241685103073,0.3,0.0,0.0,393.0,853.0,0.0,1,154.0,1
643,643,-0.8135716899273949,-0.8,1.0,0.0,419.0,590.0,0.0,0,161.0,1
644,644,0.26266577058108254,0.3,1.0,1.0,364.0,658.0,1.0,1,608.0,1
645,645,0.3698229361531281,0.4,0.0,0.0,484.0,619.0,0.0,1,367.0,1
646,646,-0.4857911487964806,-0.5,1.0,0.0,429.0,737.0,0.0,0,184.0,1
647,647,0.008418892657678922,0.0,0.0,0.0,273.0,504.0,0.0,1,1553.0,1
648,648,-0.7700074150278622,-0.8,1.0,0.0,488.0,684.0,0.0,0,58.0,1
649,649,-0.8734286889331739,-0.9,1.0,0.0,253.0,852.0,0.0,0,125.0,1
650,650,-0.4975219096532095,-0.5,1.0,0.0,405.0,691.0,0.0,0,104.0,1
651,651,-0.6083953065700167,-0.6,1.0,0.0,380.0,699.0,0.0,0,121.0,1
652,652,-0.40305858356111746,-0.4,0.0,1.0,354.0,937.0,1.0,0,159.0,1
653,653,0.03253936411575131,0.0,0.0,0.0,391.0,602.0,0.0,1,357.0,1
654,654,-0.5579573443586223,-0.6,1.0,0.0,341.0,716.0,0.0,0,143.0,1
655,655,-0.8412798126431456,-0.8,0.0,1.0,449.0,681.0,1.0,0,240.0,1
656,656,0.07041322012013818,0.1,1.0,1.0,499.0,948.0,0.0,0,533.0,0
657,657,0.7372117937782782,0.7,1.0,1.0,473.0,988.0,1.0,1,89.0,1
658,658,-0.08742226118801821,-0.1,0.0,1.0,364.0,910.0,1.0,0,666.0,1
659,659,-0.6805330424631857,-0.7,1.0,0.0,251.0,711.0,0.0,0,198.0,1
660,660,0.066984574574396,0.1,0.0,0.0,404.0,525.0,0.0,1,651.0,1
661,661,-0.0036149690225166786,-0.0,1.0,0.0,436.0,644.0,0.0,0,1920.0,1
662,662,-0.22884288308380363,-0.2,1.0,0.0,474.0,673.0,0.0,0,293.0,1
663,663,0.2017240708089313,0.2,0.0,0.0,371.0,947.0,0.0,1,232.0,1
664,664,0.53950057154389,0.5,0.0,0.0,272.0,543.0,0.0,1,275.0,1
665,665,0.0791403543611815,0.1,1.0,1.0,335.0,542.0,1.0,1,743.0,1
666,666,-0.6006881459123246,-0.6,1.0,0.0,454.0,509.0,0.0,0,477.0,1
667,667,0.5457363387565727,0.5,0.0,0.0,377.0,907.0,0.0,1,126.0,1
668,668,-0.043876765206562585,-0.0,1.0,0.0,275.0,908.0,0.0,0,317.0,1
669,669,0.44851407905821705,0.4,1.0,1.0,269.0,956.0,1.0,1,95.0,1
670,670,0.8702944948474051,0.9,1.0,1.0,254.0,993.0,1.0,1,113.0,1
671,671,0.2661598308177163,0.3,0.0,0.0,417.0,934.0,0.0,1,189.0,1
672,672,0.7822262611860539,0.8,1.0,1.0,348.0,908.0,1.0,1,144.0,1
673,673,0.49058507600864376,0.5,1.0,1.0,459.0,569.0,1.0,1,312.0,1
674,674,0.8424419593735929,0.8,1.0,1.0,451.0,744.0,1.0,1,175.0,1
675,675,-0.6922672891937116,-0.7,0.0,1.0,385.0,609.0,1.0,0,136.0,1
676,676,-0.4863846605684257,-0.5,0.0,1.0,392.0,564.0,1.0,0,214.0,1
677,677,0.7710604700003086,0.8,0.0,0.0,253.0,791.0,0.0,1,76.0,1
678,678,-0.17075692387415498,-0.2,0.0,1.0,416.0,692.0,1.0,0,502.0,1
679,679,-0.14069578971393126,-0.1,1.0,0.0,250.0,652.0,0.0,0,168.0,1
680,680,-0.06697595193937822,-0.1,0.0,1.0,452.0,733.0,1.0,0,1375.0,1
681,681,-0.2260747171208206,-0.2,0.0,1.0,496.0,666.0,1.0,0,508.0,1
682,682,0.27676337084277003,0.3,0.0,0.0,490.0,920.0,0.0,1,180.0,1
683,683,0.39840954760267,0.4,0.0,0.0,497.0,909.0,0.0,1,224.0,1
684,684,-0.5218800614111463,-0.5,0.0,1.0,496.0,756.0,1.0,0,198.0,1
685,685,-0.6590922244184902,-0.7,0.0,1.0,457.0,953.0,1.0,0,60.0,1
686,686,-0.009935218628604359,-0.0,1.0,0.0,490.0,674.0,1.0,1,1836.0,0
687,687,0.1426259478712092,0.1,0.0,0.0,307.0,633.0,0.0,1,370.0,1
688,688,-0.22619062042391547,-0.2,0.0,1.0,289.0,527.0,1.0,0,334.0,1
689,689,-0.4873131070109869,-0.5,1.0,0.0,495.0,797.0,0.0,0,218.0,1
690,690,-0.06523664194918433,-0.1,1.0,0.0,391.0,944.0,0.0,0,1225.0,1
691,691,0.17792823902968424,0.2,1.0,1.0,432.0,886.0,1.0,1,592.0,1
692,692,-0.3916201435132579,-0.4,1.0,0.0,301.0,592.0,0.0,0,417.0,1
693,693,-0.8528231837116546,-0.9,0.0,1.0,494.0,629.0,1.0,0,117.0,1
694,694,-0.19664917990517072,-0.2,0.0,1.0,444.0,837.0,1.0,0,179.0,1
695,695,0.10622781761708422,0.1,1.0,1.0,398.0,517.0,1.0,1,595.0,1
696,696,-0.8828603075241753,-0.9,0.0,1.0,441.0,546.0,1.0,0,293.0,1
697,697,-0.4156162212118498,-0.4,1.0,0.0,441.0,619.0,0.0,0,270.0,1
698,698,-0.4006741982866407,-0.4,0.0,1.0,251.0,686.0,1.0,0,403.0,1
699,699,-0.3995889554613399,-0.4,1.0,0.0,253.0,794.0,0.0,0,403.0,1
700,700,-0.628313633301298,-0.6,0.0,1.0,483.0,501.0,1.0,0,326.0,1
701,701,0.15517140842827437,0.2,1.0,1.0,377.0,661.0,1.0,1,842.0,1
702,702,-0.7501477636500917,-0.8,0.0,1.0,481.0,748.0,1.0,0,191.0,1
703,703,0.3843251877233197,0.4,1.0,1.0,263.0,573.0,1.0,1,384.0,1
704,704,-0.7849847059807202,-0.8,1.0,0.0,493.0,924.0,0.0,0,83.0,1
705,705,0.6937591928543504,0.7,1.0,1.0,400.0,981.0,1.0,1,269.0,1
706,706,0.7104297692832525,0.7,0.0,0.0,485.0,955.0,0.0,1,200.0,1
707,707,-0.466190369946506,-0.5,1.0,0.0,472.0,907.0,0.0,0,81.0,1
708,708,-0.483873468484363,-0.5,0.0,1.0,429.0,886.0,1.0,0,175.0,1
709,709,0.47514638641065565,0.5,1.0,1.0,466.0,680.0,1.0,1,194.0,1
710,710,0.2688023304413464,0.3,1.0,1.0,410.0,699.0,1.0,1,361.0,1
711,711,0.7104535562703135,0.7,1.0,1.0,301.0,971.0,0.0,0,-82.0,0
712,712,-0.20449115281560715,-0.2,0.0,1.0,282.0,520.0,1.0,0,488.0,1
713,713,0.2867602291658825,0.3,1.0,1.0,315.0,917.0,1.0,1,228.0,1
714,714,-0.6660469317300544,-0.7,1.0,0.0,387.0,596.0,0.0,0,177.0,1
715,715,0.4012684882880674,0.4,0.0,0.0,491.0,569.0,0.0,1,220.0,1
716,716,0.10610463165657291,0.1,1.0,1.0,325.0,919.0,1.0,1,-64.0,1
717,717,0.15981330817497585,0.2,0.0,0.0,434.0,649.0,0.0,1,327.0,1
718,718,0.015454307031728787,0.0,1.0,1.0,322.0,796.0,0.0,0,802.0,0
719,719,0.7220503506697239,0.7,1.0,1.0,355.0,878.0,1.0,1,177.0,1
720,720,-0.2483660536401695,-0.2,1.0,0.0,324.0,892.0,0.0,0,244.0,1
721,721,-0.40368032318052205,-0.4,0.0,1.0,431.0,528.0,1.0,0,341.0,1
722,722,-0.3303021739216605,-0.3,0.0,1.0,355.0,926.0,1.0,0,299.0,1
723,723,-0.8852513451627513,-0.9,0.0,1.0,332.0,958.0,1.0,0,120.0,1
724,724,0.05824000297627008,0.1,0.0,0.0,430.0,913.0,0.0,1,937.0,1
725,725,0.2631371138559878,0.3,0.0,0.0,278.0,932.0,0.0,1,150.0,1
726,726,-0.3683975477729635,-0.4,0.0,1.0,381.0,659.0,1.0,0,220.0,1
727,727,0.13503923820734898,0.1,0.0,0.0,293.0,992.0,0.0,1,315.0,1
728,728,-0.6952012925467587,-0.7,1.0,0.0,303.0,759.0,0.0,0,98.0,1
729,729,-0.8462039908349905,-0.8,1.0,0.0,340.0,769.0,0.0,0,111.0,1
730,730,-0.47452376059567003,-0.5,0.0,1.0,299.0,911.0,1.0,0,170.0,1
731,731,0.5224303783526184,0.5,1.0,1.0,372.0,799.0,1.0,1,99.0,1
732,732,0.681688083857661,0.7,1.0,1.0,283.0,590.0,1.0,1,427.0,1
733,733,-0.35303137190718004,-0.4,1.0,0.0,320.0,862.0,0.0,0,258.0,1
734,734,-0.011426520610803959,-0.0,0.0,1.0,289.0,638.0,0.0,1,563.0,0
735,735,0.8888285924677249,0.9,0.0,0.0,341.0,968.0,0.0,1,121.0,1
736,736,-0.5343446203640856,-0.5,1.0,0.0,372.0,752.0,0.0,0,226.0,1
737,737,-0.8744538666330884,-0.9,1.0,0.0,310.0,660.0,0.0,0,220.0,1
738,738,0.14569717543453675,0.1,1.0,1.0,354.0,848.0,1.0,1,888.0,1
739,739,0.6861155964324869,0.7,0.0,0.0,326.0,709.0,0.0,1,155.0,1
740,740,0.8025356525677853,0.8,0.0,0.0,320.0,936.0,0.0,1,84.0,1
741,741,0.743371705793091,0.7,0.0,0.0,483.0,985.0,0.0,1,32.0,1
742,742,-0.5148583453996354,-0.5,1.0,0.0,253.0,875.0,0.0,0,152.0,1
743,743,-0.8511294701122829,-0.9,0.0,1.0,490.0,695.0,1.0,0,315.0,1
744,744,-0.6225253663997063,-0.6,0.0,1.0,401.0,578.0,1.0,0,211.0,1
745,745,-0.7917770822229473,-0.8,0.0,1.0,403.0,542.0,1.0,0,215.0,1
746,746,0.46782415418060597,0.5,1.0,1.0,316.0,929.0,1.0,1,135.0,1
747,747,0.09432729478043467,0.1,1.0,1.0,394.0,890.0,1.0,1,896.0,1
748,748,-0.5575186333542523,-0.6,1.0,0.0,339.0,566.0,0.0,0,245.0,1
749,749,-0.665188318464316,-0.7,0.0,1.0,323.0,974.0,1.0,0,93.0,1
750,750,-0.7725981294505224,-0.8,0.0,1.0,485.0,531.0,1.0,0,154.0,1
751,751,-0.5198028364118727,-0.5,1.0,0.0,473.0,547.0,0.0,0,190.0,1
752,752,0.6830199352142318,0.7,0.0,0.0,421.0,532.0,0.0,1,377.0,1
753,753,0.6875264026575215,0.7,0.0,0.0,443.0,663.0,0.0,1,184.0,1
754,754,0.7967342660661086,0.8,1.0,1.0,321.0,765.0,1.0,1,134.0,1
755,755,-0.6267922194802601,-0.6,0.0,1.0,372.0,863.0,1.0,0,165.0,1
756,756,0.02681782527046539,0.0,1.0,1.0,438.0,959.0,0.0,0,1603.0,0
757,757,0.5210284562163893,0.5,1.0,1.0,472.0,744.0,1.0,1,214.0,1
758,758,0.21214490897721971,0.2,0.0,0.0,446.0,708.0,0.0,1,516.0,1
759,759,0.8210711776653566,0.8,0.0,0.0,312.0,698.0,0.0,1,200.0,1
760,760,0.676635933567112,0.7,0.0,0.0,280.0,553.0,0.0,1,87.0,1
761,761,0.6852536033476001,0.7,1.0,1.0,444.0,664.0,1.0,1,172.0,1
762,762,-0.14687897461662336,-0.1,0.0,1.0,299.0,621.0,1.0,0,670.0,1
763,763,0.532047456142262,0.5,0.0,0.0,325.0,704.0,0.0,1,231.0,1
764,764,-0.138659789647415,-0.1,0.0,1.0,279.0,501.0,1.0,0,1290.0,1
765,765,-0.2835338030668382,-0.3,0.0,1.0,390.0,746.0,1.0,0,574.0,1
766,766,0.13574737070857845,0.1,1.0,1.0,473.0,995.0,1.0,1,282.0,1
767,767,-0.6458280528366711,-0.6,0.0,1.0,365.0,505.0,1.0,0,200.0,1
768,768,-0.8922053231691999,-0.9,0.0,1.0,457.0,928.0,1.0,0,65.0,1
769,769,0.4142086902916834,0.4,1.0,1.0,367.0,926.0,1.0,1,237.0,1
770,770,0.8361659869011672,0.8,0.0,0.0,441.0,792.0,0.0,1,77.0,1
771,771,-0.03841511250799634,-0.0,0.0,1.0,352.0,617.0,0.0,1,2031.0,0
772,772,-0.6490205801551461,-0.6,0.0,1.0,314.0,786.0,1.0,0,190.0,1
773,773,-0.8021398882749912,-0.8,1.0,0.0,374.0,576.0,0.0,0,210.0,1
774,774,-0.17819490284662276,-0.2,0.0,1.0,356.0,562.0,1.0,0,522.0,1
775,775,0.4989161831156518,0.5,0.0,0.0,286.0,942.0,0.0,1,62.0,1
776,776,-0.06257226086089895,-0.1,1.0,0.0,455.0,501.0,0.0,0,924.0,1
777,777,-0.5061777566323336,-0.5,0.0,1.0,277.0,900.0,1.0,0,183.0,1
778,778,0.43842949699789424,0.4,0.0,0.0,425.0,948.0,0.0,1,137.0,1
779,779,-0.396400806176867,-0.4,0.0,1.0,264.0,525.0,1.0,0,601.0,1
780,780,0.08006282251312113,0.1,1.0,1.0,444.0,530.0,1.0,1,1126.0,1
781,781,-0.309586711746229,-0.3,1.0,0.0,298.0,677.0,0.0,0,395.0,1
782,782,-0.1399082250435797,-0.1,1.0,0.0,468.0,842.0,0.0,0,240.0,1
783,783,-0.8427076178447668,-0.8,0.0,1.0,490.0,998.0,1.0,0,92.0,1
784,784,-0.26582634729548327,-0.3,0.0,1.0,308.0,731.0,1.0,0,241.0,1
785,785,0.6025762223269037,0.6,0.0,0.0,340.0,744.0,0.0,1,116.0,1
786,786,-0.16605742559894943,-0.2,0.0,1.0,488.0,533.0,1.0,0,599.0,1
787,787,0.4383154133668784,0.4,1.0,1.0,256.0,683.0,1.0,1,241.0,1
788,788,0.8985875369572448,0.9,1.0,1.0,361.0,966.0,1.0,1,103.0,1
789,789,0.4221825760569803,0.4,1.0,1.0,354.0,521.0,1.0,1,305.0,1
790,790,0.7480212005134771,0.7,1.0,1.0,258.0,570.0,1.0,1,272.0,1
791,791,-0.10518026680150494,-0.1,1.0,0.0,272.0,927.0,0.0,0,391.0,1
792,792,-0.590722307018828,-0.6,0.0,1.0,392.0,724.0,1.0,0,294.0,1
793,793,-0.5790713718483955,-0.6,1.0,0.0,463.0,926.0,0.0,0,1.0,1
794,794,0.6449893503016645,0.6,1.0,1.0,254.0,883.0,1.0,1,153.0,1
795,795,0.18315912022112124,0.2,1.0,1.0,303.0,688.0,1.0,1,339.0,1
796,796,-0.5577566617361565,-0.6,0.0,1.0,326.0,907.0,1.0,0,307.0,1
797,797,-0.8988848747704765,-0.9,0.0,1.0,451.0,554.0,1.0,0,95.0,1
798,798,-0.27621200096416976,-0.3,0.0,1.0,312.0,746.0,1.0,0,72.0,1
799,799,-0.2635837197998878,-0.3,1.0,0.0,272.0,883.0,0.0,0,5.0,1
800,800,0.5028853326427755,0.5,0.0,0.0,437.0,744.0,0.0,1,539.0,1
801,801,0.7809619735848293,0.8,1.0,1.0,258.0,860.0,1.0,1,142.0,1
802,802,-0.4183549039187426,-0.4,0.0,1.0,267.0,813.0,1.0,0,160.0,1
803,803,-0.654475312287677,-0.7,1.0,0.0,371.0,814.0,0.0,0,125.0,1
804,804,-0.4733555410539038,-0.5,0.0,1.0,390.0,825.0,1.0,0,105.0,1
805,805,0.8510332521230216,0.9,0.0,0.0,295.0,873.0,0.0,1,102.0,1
806,806,0.8959129504489257,0.9,0.0,0.0,329.0,833.0,0.0,1,78.0,1
807,807,0.42114866227932957,0.4,0.0,0.0,483.0,509.0,0.0,1,358.0,1
808,808,0.7306779180348769,0.7,1.0,1.0,401.0,869.0,1.0,1,160.0,1
809,809,0.32268139275476726,0.3,1.0,1.0,295.0,893.0,1.0,1,242.0,1
810,810,0.5460949762819031,0.5,1.0,1.0,408.0,713.0,1.0,1,179.0,1
811,811,-0.23987188249297198,-0.2,0.0,1.0,421.0,797.0,1.0,0,512.0,1
812,812,0.536877813747478,0.5,1.0,1.0,375.0,940.0,1.0,1,175.0,1
813,813,0.2914550741898482,0.3,1.0,1.0,342.0,814.0,1.0,1,244.0,1
814,814,-0.698925121485201,-0.7,0.0,1.0,344.0,584.0,1.0,0,212.0,1
815,815,0.28445206696932124,0.3,0.0,0.0,275.0,973.0,0.0,1,82.0,1
816,816,0.1707281436355027,0.2,0.0,0.0,262.0,875.0,0.0,1,563.0,1
817,817,-0.0668909943930962,-0.1,1.0,0.0,433.0,944.0,0.0,0,1353.0,1
818,818,-0.722267074730034,-0.7,0.0,1.0,458.0,629.0,1.0,0,83.0,1
819,819,0.872343286545776,0.9,0.0,0.0,440.0,878.0,0.0,1,342.0,1
820,820,-0.3296102188606854,-0.3,1.0,0.0,261.0,504.0,0.0,0,595.0,1
821,821,-0.2409347848274327,-0.2,0.0,1.0,254.0,930.0,1.0,0,216.0,1
822,822,0.207031643845072,0.2,0.0,0.0,291.0,548.0,0.0,1,631.0,1
823,823,-0.887544633440952,-0.9,0.0,1.0,358.0,778.0,1.0,0,174.0,1
824,824,0.2889718092602914,0.3,1.0,1.0,341.0,773.0,1.0,1,336.0,1
825,825,-0.02708103136235185,-0.0,1.0,0.0,345.0,678.0,0.0,0,1977.0,1
826,826,0.09318411063809129,0.1,1.0,1.0,491.0,918.0,0.0,0,121.0,0
827,827,0.5409290563304477,0.5,1.0,1.0,418.0,936.0,1.0,1,126.0,1
828,828,0.11761361334035236,0.1,1.0,1.0,352.0,931.0,1.0,1,477.0,1
829,829,0.8753054570467699,0.9,0.0,0.0,459.0,918.0,0.0,1,183.0,1
830,830,0.6054255506409784,0.6,0.0,0.0,474.0,992.0,0.0,1,94.0,1
831,831,0.8831427692566761,0.9,0.0,0.0,350.0,683.0,0.0,1,107.0,1
832,832,0.7085504689023495,0.7,0.0,0.0,349.0,681.0,0.0,1,190.0,1
833,833,0.5930406276600028,0.6,1.0,1.0,455.0,892.0,1.0,1,143.0,1
834,834,0.6290837838087423,0.6,0.0,0.0,424.0,605.0,0.0,1,271.0,1
835,835,-0.7717047381789722,-0.8,0.0,1.0,353.0,947.0,1.0,0,200.0,1
836,836,0.6859527352597886,0.7,0.0,0.0,406.0,759.0,0.0,1,175.0,1
837,837,-0.09648980383053873,-0.1,1.0,0.0,466.0,803.0,0.0,0,521.0,1
838,838,-0.6271316643045524,-0.6,1.0,0.0,464.0,654.0,0.0,0,172.0,1
839,839,0.7865583133517741,0.8,1.0,1.0,334.0,866.0,1.0,1,250.0,1
840,840,-0.12919029209384414,-0.1,1.0,0.0,257.0,812.0,0.0,0,351.0,1
841,841,0.20017795676488237,0.2,0.0,0.0,361.0,607.0,0.0,1,252.0,1
842,842,-0.8647767857511475,-0.9,1.0,0.0,317.0,809.0,0.0,0,114.0,1
843,843,0.5438954112879449,0.5,1.0,1.0,417.0,686.0,1.0,1,77.0,1
844,844,-0.7599130323972842,-0.8,1.0,0.0,388.0,811.0,0.0,0,141.0,1
845,845,0.17807722732007203,0.2,1.0,1.0,455.0,885.0,1.0,1,310.0,1
846,846,0.5431496282657312,0.5,1.0,1.0,376.0,752.0,1.0,1,122.0,1
847,847,0.23047128156917596,0.2,0.0,0.0,461.0,851.0,0.0,1,488.0,1
848,848,0.800684001426022,0.8,1.0,1.0,331.0,630.0,1.0,1,209.0,1
849,849,0.032136224292623194,0.0,0.0,0.0,440.0,627.0,0.0,1,1933.0,1
850,850,0.6770532915246531,0.7,0.0,0.0,406.0,932.0,0.0,1,112.0,1
851,851,0.8390876403038233,0.8,0.0,0.0,336.0,775.0,0.0,1,109.0,1
852,852,0.6726819541242169,0.7,0.0,0.0,324.0,647.0,0.0,1,189.0,1
853,853,-0.018241025580453707,-0.0,0.0,1.0,310.0,683.0,0.0,1,867.0,0
854,854,-0.7201732526994803,-0.7,0.0,1.0,438.0,888.0,1.0,0,84.0,1
855,855,0.08359015318966145,0.1,0.0,0.0,378.0,618.0,0.0,1,404.0,1
856,856,0.0839510932481049,0.1,1.0,1.0,267.0,897.0,1.0,1,1006.0,1
857,857,0.2534940683236623,0.3,1.0,1.0,295.0,620.0,1.0,1,165.0,1
858,858,-0.5021597044454131,-0.5,1.0,0.0,358.0,676.0,0.0,0,336.0,1
859,859,-0.2837393530016642,-0.3,0.0,1.0,280.0,545.0,1.0,0,365.0,1
860,860,0.5165379123672172,0.5,0.0,0.0,424.0,580.0,0.0,1,206.0,1
861,861,-0.8075598864002668,-0.8,0.0,1.0,477.0,703.0,1.0,0,220.0,1
862,862,-0.08951039486813905,-0.1,0.0,1.0,476.0,873.0,1.0,0,1651.0,1
863,863,-0.06688228782239347,-0.1,0.0,1.0,496.0,993.0,0.0,1,1511.0,0
864,864,0.04065727143094533,0.0,1.0,1.0,360.0,580.0,1.0,1,2060.0,1
865,865,-0.5303890927860142,-0.5,1.0,0.0,357.0,956.0,0.0,0,147.0,1
866,866,-0.551433891994191,-0.6,0.0,1.0,375.0,992.0,1.0,0,133.0,1
867,867,0.7502416247445088,0.8,0.0,0.0,279.0,606.0,0.0,1,175.0,1
868,868,-0.7463329885350215,-0.7,1.0,0.0,340.0,766.0,0.0,0,94.0,1
869,869,0.48760345504447267,0.5,0.0,0.0,314.0,955.0,0.0,1,221.0,1
870,870,-0.16929367868131473,-0.2,0.0,1.0,257.0,590.0,1.0,0,603.0,1
871,871,-0.11102440341717679,-0.1,1.0,0.0,360.0,735.0,0.0,0,615.0,1
872,872,-0.574193879022189,-0.6,0.0,1.0,275.0,819.0,1.0,0,236.0,1
873,873,-0.5450236146159135,-0.5,0.0,1.0,399.0,716.0,1.0,0,165.0,1
874,874,-0.04825701139023053,-0.0,0.0,1.0,281.0,754.0,1.0,0,1965.0,1
875,875,-0.45943324048800777,-0.5,1.0,0.0,279.0,697.0,0.0,0,294.0,1
876,876,0.5913403018785736,0.6,1.0,1.0,262.0,721.0,1.0,1,207.0,1
877,877,-0.8203393314305903,-0.8,1.0,0.0,410.0,862.0,0.0,0,198.0,1
878,878,0.5724746835327669,0.6,0.0,0.0,497.0,787.0,0.0,1,156.0,1
879,879,0.4046562310490097,0.4,0.0,0.0,498.0,970.0,0.0,1,92.0,1
880,880,0.7723554661203443,0.8,0.0,0.0,324.0,690.0,0.0,1,456.0,1
881,881,0.7836639951311163,0.8,1.0,1.0,300.0,559.0,1.0,1,151.0,1
882,882,-0.2290552433951054,-0.2,0.0,1.0,293.0,871.0,1.0,0,406.0,1
883,883,0.5865465219082059,0.6,0.0,0.0,443.0,909.0,0.0,1,68.0,1
884,884,0.5440578142270399,0.5,0.0,0.0,267.0,980.0,0.0,1,53.0,1
885,885,-0.13508172028049015,-0.1,1.0,0.0,317.0,752.0,0.0,0,401.0,1
886,886,0.0002791487918096802,0.0,1.0,1.0,342.0,940.0,0.0,0,1718.0,0
887,887,0.5894848033757133,0.6,1.0,1.0,408.0,573.0,1.0,1,319.0,1
888,888,0.7873861649075936,0.8,0.0,0.0,488.0,927.0,0.0,1,185.0,1
889,889,-0.3250050705644989,-0.3,1.0,0.0,391.0,867.0,0.0,0,312.0,1
890,890,-0.5057170820025256,-0.5,1.0,0.0,276.0,846.0,0.0,0,158.0,1
891,891,0.47497065727608,0.5,1.0,1.0,287.0,846.0,1.0,1,187.0,1
892,892,0.6978797601381154,0.7,0.0,0.0,321.0,539.0,0.0,1,180.0,1
893,893,0.6954749379128241,0.7,1.0,1.0,270.0,870.0,1.0,1,280.0,1
894,894,0.24074458824143552,0.2,0.0,0.0,462.0,538.0,0.0,1,350.0,1
895,895,-0.30646110017197237,-0.3,0.0,1.0,275.0,816.0,1.0,0,219.0,1
896,896,0.8340590649408993,0.8,1.0,1.0,309.0,514.0,1.0,1,267.0,1
897,897,-0.6125323671978568,-0.6,0.0,1.0,453.0,829.0,1.0,0,138.0,1
898,898,-0.7336105485788582,-0.7,0.0,1.0,278.0,737.0,1.0,0,95.0,1
899,899,0.2095936090406102,0.2,1.0,1.0,307.0,858.0,1.0,1,245.0,1
900,900,0.6480955289170086,0.6,1.0,1.0,421.0,671.0,1.0,1,308.0,1
901,901,0.26574159432750066,0.3,0.0,0.0,422.0,572.0,0.0,1,326.0,1
902,902,-0.8748937821322843,-0.9,0.0,1.0,449.0,665.0,1.0,0,486.0,1
903,903,0.8418189975263805,0.8,0.0,0.0,466.0,636.0,0.0,1,128.0,1
904,904,0.8663183432047056,0.9,1.0,1.0,469.0,973.0,1.0,1,58.0,1
905,905,-0.5918660170498575,-0.6,0.0,1.0,483.0,990.0,1.0,0,177.0,1
906,906,-0.08648974417750566,-0.1,0.0,1.0,389.0,562.0,1.0,0,729.0,1
907,907,0.043674698428498804,0.0,0.0,0.0,410.0,584.0,0.0,1,376.0,1
908,908,-0.4060262964432067,-0.4,0.0,1.0,390.0,974.0,1.0,0,56.0,1
909,909,-0.2773129043246494,-0.3,1.0,0.0,314.0,639.0,0.0,0,277.0,1
910,910,-0.7182493828849019,-0.7,1.0,0.0,472.0,637.0,0.0,0,131.0,1
911,911,0.41942780907741806,0.4,0.0,0.0,446.0,946.0,0.0,1,48.0,1
912,912,0.7935593697267217,0.8,0.0,0.0,421.0,565.0,0.0,1,174.0,1
913,913,-0.5125966978806706,-0.5,1.0,0.0,275.0,962.0,0.0,0,23.0,1
914,914,0.29483203898349986,0.3,0.0,0.0,468.0,679.0,0.0,1,253.0,1
915,915,-0.4058629942984482,-0.4,1.0,0.0,291.0,975.0,0.0,0,184.0,1
916,916,-0.5094333657603234,-0.5,0.0,1.0,331.0,503.0,1.0,0,176.0,1
917,917,-0.45073738087442367,-0.5,1.0,0.0,321.0,902.0,0.0,0,227.0,1
918,918,-0.28443693130949066,-0.3,1.0,0.0,393.0,912.0,0.0,0,195.0,1
919,919,0.40768489623546345,0.4,1.0,1.0,295.0,986.0,1.0,1,159.0,1
920,920,-0.6224670216392627,-0.6,1.0,0.0,290.0,595.0,0.0,0,145.0,1
921,921,0.77785363541306,0.8,0.0,0.0,395.0,726.0,0.0,1,149.0,1
922,922,0.44802433187836155,0.4,0.0,0.0,447.0,829.0,0.0,1,154.0,1
923,923,0.30218865526378236,0.3,0.0,0.0,471.0,858.0,0.0,1,131.0,1
924,924,-0.10135537351362756,-0.1,0.0,1.0,457.0,722.0,1.0,0,571.0,1
925,925,0.30912407997267255,0.3,0.0,0.0,360.0,756.0,0.0,1,244.0,1
926,926,0.11625316160220167,0.1,1.0,1.0,429.0,961.0,1.0,1,280.0,1
927,927,0.7625168847339944,0.8,0.0,0.0,414.0,757.0,0.0,1,239.0,1
928,928,0.6711842028185081,0.7,0.0,0.0,377.0,791.0,0.0,1,182.0,1
929,929,-0.34356310833225634,-0.3,0.0,1.0,393.0,566.0,1.0,0,451.0,1
930,930,0.7815878519404905,0.8,0.0,0.0,350.0,821.0,0.0,1,169.0,1
931,931,0.1359406382731717,0.1,0.0,0.0,359.0,986.0,0.0,1,85.0,1
932,932,0.6759544194417485,0.7,0.0,0.0,340.0,593.0,0.0,1,217.0,1
933,933,-0.5860947215671599,-0.6,0.0,1.0,481.0,779.0,1.0,0,110.0,1
934,934,-0.5308276544268469,-0.5,0.0,1.0,323.0,986.0,1.0,0,161.0,1
935,935,-0.01640894304678664,-0.0,1.0,0.0,304.0,931.0,0.0,0,215.0,1
936,936,0.3759836010245098,0.4,1.0,1.0,414.0,888.0,1.0,1,318.0,1
937,937,0.6889499132062792,0.7,1.0,1.0,405.0,530.0,1.0,1,245.0,1
938,938,0.04635166522024803,0.0,1.0,1.0,396.0,727.0,0.0,0,287.0,0
939,939,0.6519287835906847,0.7,1.0,1.0,349.0,732.0,1.0,1,279.0,1
940,940,-0.6628177464581826,-0.7,1.0,0.0,469.0,693.0,0.0,0,148.0,1
941,941,0.30217717598610305,0.3,0.0,0.0,326.0,669.0,0.0,1,305.0,1
942,942,0.6553915628378845,0.7,1.0,1.0,363.0,777.0,1.0,1,130.0,1
943,943,0.16393850186339687,0.2,1.0,1.0,434.0,873.0,1.0,1,273.0,1
944,944,0.6351197801851182,0.6,1.0,1.0,433.0,972.0,1.0,1,295.0,1
945,945,-0.7900069324019577,-0.8,0.0,1.0,448.0,980.0,1.0,0,102.0,1
946,946,0.683000168497418,0.7,0.0,0.0,303.0,604.0,0.0,1,213.0,1
947,947,0.1786527689960754,0.2,0.0,0.0,380.0,887.0,0.0,1,513.0,1
948,948,0.6525259675795051,0.7,0.0,0.0,343.0,917.0,0.0,1,100.0,1
949,949,0.5657223592716732,0.6,1.0,1.0,370.0,510.0,1.0,1,250.0,1
950,950,-0.4810128778359009,-0.5,1.0,0.0,312.0,554.0,0.0,0,314.0,1
951,951,-0.7888050197800521,-0.8,0.0,1.0,311.0,557.0,1.0,0,212.0,1
952,952,-0.6749674122729642,-0.7,1.0,0.0,493.0,925.0,0.0,0,52.0,1
953,953,0.5213742456728477,0.5,0.0,0.0,327.0,768.0,0.0,1,235.0,1
954,954,0.5720906960152091,0.6,0.0,0.0,498.0,916.0,0.0,1,176.0,1
955,955,-0.5027812176312636,-0.5,0.0,1.0,262.0,820.0,1.0,0,108.0,1
956,956,0.6104635307323495,0.6,1.0,1.0,300.0,954.0,1.0,1,126.0,1
957,957,0.8682396703288048,0.9,0.0,0.0,389.0,625.0,0.0,1,196.0,1
958,958,0.6464272995165793,0.6,0.0,0.0,277.0,693.0,0.0,1,140.0,1
959,959,0.27100024212966634,0.3,0.0,0.0,299.0,766.0,0.0,1,165.0,1
960,960,0.424357881425126,0.4,0.0,0.0,305.0,622.0,0.0,1,273.0,1
961,961,0.6592448459144936,0.7,1.0,1.0,468.0,600.0,1.0,1,192.0,1
962,962,0.5293733715458194,0.5,0.0,0.0,471.0,598.0,0.0,1,381.0,1
963,963,-0.1478095433133596,-0.1,0.0,1.0,455.0,581.0,1.0,0,484.0,1
964,964,-0.29603860996087794,-0.3,0.0,1.0,396.0,945.0,1.0,0,159.0,1
965,965,0.1195569963577815,0.1,0.0,0.0,410.0,675.0,0.0,1,365.0,1
966,966,-0.23712773268517962,-0.2,1.0,0.0,329.0,976.0,0.0,0,235.0,1
967,967,0.3732486796606099,0.4,1.0,1.0,339.0,570.0,1.0,1,411.0,1
968,968,0.5843428567815426,0.6,0.0,0.0,356.0,884.0,0.0,1,180.0,1
969,969,-0.5886006191006832,-0.6,1.0,0.0,315.0,548.0,0.0,0,277.0,1
970,970,0.04173389231096836,0.0,1.0,1.0,453.0,884.0,0.0,0,273.0,0
971,971,-0.344986066265479,-0.3,0.0,1.0,397.0,801.0,1.0,0,662.0,1
972,972,-0.7159267726624174,-0.7,1.0,0.0,393.0,548.0,0.0,0,249.0,1
973,973,-0.8446639252520793,-0.8,0.0,1.0,269.0,570.0,1.0,0,261.0,1
974,974,0.5011668051838668,0.5,0.0,0.0,423.0,972.0,0.0,1,85.0,1
975,975,-0.2768388754195713,-0.3,1.0,0.0,337.0,933.0,0.0,0,110.0,1
976,976,-0.0071498743713214186,-0.0,0.0,1.0,459.0,730.0,0.0,1,1661.0,0
977,977,0.5172303546212397,0.5,0.0,0.0,371.0,726.0,0.0,1,153.0,1
978,978,0.10658252990743355,0.1,1.0,1.0,278.0,724.0,1.0,1,1398.0,1
979,979,0.5360004251451135,0.5,1.0,1.0,444.0,869.0,1.0,1,127.0,1
980,980,0.824231434129861,0.8,0.0,0.0,415.0,782.0,0.0,1,133.0,1
981,981,0.7990116355522857,0.8,0.0,0.0,288.0,520.0,0.0,1,172.0,1
982,982,0.15334578974943003,0.2,0.0,0.0,343.0,853.0,0.0,1,264.0,1
983,983,0.24727904020466662,0.2,1.0,1.0,381.0,557.0,1.0,1,482.0,1
984,984,-0.22359772362905905,-0.2,0.0,1.0,267.0,556.0,1.0,0,597.0,1
985,985,-0.6866697903582004,-0.7,0.0,1.0,308.0,868.0,1.0,0,84.0,1
986,986,-0.686099868770073,-0.7,1.0,0.0,448.0,504.0,0.0,0,238.0,1
987,987,0.027734007944061223,0.0,1.0,1.0,262.0,502.0,1.0,1,1816.0,1
988,988,-0.34907369571146196,-0.3,1.0,0.0,384.0,946.0,0.0,0,90.0,1
989,989,-0.6570769347006256,-0.7,0.0,1.0,364.0,867.0,1.0,0,229.0,1
990,990,-0.29157994012521415,-0.3,1.0,0.0,339.0,794.0,0.0,0,297.0,1
991,991,-0.031766108618680344,-0.0,1.0,0.0,466.0,815.0,0.0,0,109.0,1
992,992,0.7336874831141248,0.7,0.0,0.0,429.0,600.0,0.0,1,281.0,1
993,993,0.07029859042900177,0.1,0.0,0.0,332.0,913.0,0.0,1,385.0,1
994,994,-0.10061808778245063,-0.1,1.0,0.0,456.0,940.0,0.0,0,364.0,1
995,995,0.3354861576765814,0.3,0.0,0.0,399.0,573.0,0.0,1,188.0,1
996,996,0.44645616246043074,0.4,1.0,1.0,449.0,862.0,0.0,0,-1.0,0
997,997,0.8483396759891376,0.8,1.0,1.0,472.0,912.0,1.0,1,216.0,1
998,998,0.068391016475431,0.1,1.0,1.0,256.0,618.0,1.0,1,2126.0,1
999,999,0.38584164188439785,0.4,0.0,0.0,398.0,856.0,0.0,1,216.0,1
1000,1000,-0.6341863313187253,-0.6,0.0,1.0,384.0,929.0,1.0,0,97.0,1
1001,1001,-0.36366448699368714,-0.4,1.0,0.0,346.0,622.0,0.0,0,312.0,1
1002,1002,-0.7487220258826968,-0.7,0.0,1.0,259.0,690.0,1.0,0,131.0,1
1003,1003,0.46989814731383717,0.5,0.0,0.0,414.0,791.0,0.0,1,95.0,1
1004,1004,0.3545207665934643,0.4,1.0,1.0,464.0,584.0,1.0,1,282.0,1
1005,1005,0.3681444224110896,0.4,1.0,1.0,457.0,597.0,1.0,1,266.0,1
1006,1006,0.35288610106054075,0.4,1.0,1.0,345.0,900.0,1.0,1,335.0,1
1007,1007,-0.018506951124990678,-0.0,0.0,1.0,432.0,997.0,0.0,1,1571.0,0
1008,1008,0.3833966475674587,0.4,1.0,1.0,430.0,635.0,1.0,1,285.0,1
1009,1009,-0.7395765063141568,-0.7,1.0,0.0,417.0,697.0,0.0,0,166.0,1
1010,1010,0.24165862469730326,0.2,1.0,1.0,447.0,601.0,1.0,1,352.0,1
1011,1011,-0.41040997597011913,-0.4,1.0,0.0,383.0,604.0,0.0,0,353.0,1
1012,1012,-0.009289484858311825,-0.0,1.0,0.0,405.0,607.0,1.0,1,1988.0,0
1013,1013,0.8159626558696439,0.8,0.0,0.0,253.0,762.0,0.0,1,125.0,1
1014,1014,-0.44735382567428,-0.4,1.0,0.0,388.0,615.0,0.0,0,437.0,1
1015,1015,0.059377124161953176,0.1,0.0,0.0,324.0,578.0,0.0,1,678.0,1
1016,1016,0.32892701735678165,0.3,1.0,1.0,304.0,688.0,1.0,1,258.0,1
1017,1017,-0.8198993374809475,-0.8,0.0,1.0,438.0,715.0,1.0,0,77.0,1
1018,1018,-0.254356301439034,-0.3,0.0,1.0,307.0,847.0,1.0,0,156.0,1
1019,1019,0.2883795066235769,0.3,0.0,0.0,296.0,877.0,0.0,1,117.0,1
1020,1020,-0.7966933413200828,-0.8,0.0,1.0,403.0,679.0,1.0,0,148.0,1
1021,1021,-0.6683999732393011,-0.7,1.0,0.0,476.0,990.0,0.0,0,84.0,1
1022,1022,-0.7455177100397555,-0.7,0.0,1.0,297.0,904.0,1.0,0,209.0,1
1023,1023,-0.43278375576306205,-0.4,1.0,0.0,251.0,564.0,0.0,0,325.0,1
1024,1024,-0.6350093268634103,-0.6,0.0,1.0,357.0,614.0,1.0,0,169.0,1
1025,1025,0.8428046154871517,0.8,1.0,1.0,262.0,598.0,1.0,1,230.0,1
1026,1026,0.6061188557244862,0.6,0.0,0.0,499.0,846.0,0.0,1,55.0,1
1027,1027,0.27136050413182045,0.3,1.0,1.0,358.0,740.0,1.0,1,242.0,1
1028,1028,0.14420579292256763,0.1,1.0,1.0,383.0,950.0,1.0,1,457.0,1
1029,1029,0.5464735455516786,0.5,1.0,1.0,374.0,855.0,1.0,1,171.0,1
1030,1030,-0.8785493744747378,-0.9,1.0,0.0,270.0,796.0,0.0,0,144.0,1
1031,1031,0.7955033479162804,0.8,1.0,1.0,344.0,815.0,1.0,1,91.0,1
1032,1032,-0.35964382489379687,-0.4,1.0,0.0,396.0,958.0,0.0,0,176.0,1
1033,1033,0.2501746870401004,0.3,1.0,1.0,274.0,885.0,1.0,1,181.0,1
1034,1034,0.13977636440529084,0.1,1.0,1.0,351.0,570.0,1.0,1,619.0,1
1035,1035,-0.8314565875673682,-0.8,0.0,1.0,416.0,624.0,1.0,0,200.0,1
1036,1036,-0.05060554295925579,-0.1,0.0,1.0,471.0,830.0,0.0,1,1699.0,0
1037,1037,-0.14333653802900492,-0.1,0.0,1.0,361.0,514.0,1.0,0,395.0,1
1038,1038,-0.5664521944563038,-0.6,0.0,1.0,264.0,563.0,1.0,0,303.0,1
1039,1039,-0.18598499526864654,-0.2,1.0,0.0,318.0,794.0,0.0,0,298.0,1
1040,1040,-0.004325794035208164,-0.0,1.0,0.0,327.0,743.0,0.0,0,700.0,1
1041,1041,0.8807901791689136,0.9,1.0,1.0,261.0,911.0,1.0,1,178.0,1
1042,1042,0.8710935919177057,0.9,0.0,0.0,382.0,676.0,0.0,1,192.0,1
1043,1043,0.5752699003373555,0.6,0.0,0.0,448.0,654.0,0.0,1,258.0,1
1044,1044,-0.6851495906582689,-0.7,1.0,0.0,477.0,764.0,0.0,0,79.0,1
1045,1045,0.15848778620537585,0.2,1.0,1.0,320.0,700.0,1.0,1,530.0,1
1046,1046,0.13750038107186857,0.1,0.0,0.0,401.0,829.0,0.0,1,230.0,1
1047,1047,-0.28164653571127896,-0.3,1.0,0.0,403.0,503.0,0.0,0,334.0,1
1048,1048,0.5372166451493777,0.5,0.0,0.0,479.0,917.0,0.0,1,184.0,1
1049,1049,0.506786510631032,0.5,1.0,1.0,342.0,638.0,1.0,1,370.0,1
1050,1050,0.21131111897323518,0.2,1.0,1.0,484.0,507.0,1.0,1,529.0,1
1051,1051,0.5561883014079522,0.6,0.0,0.0,382.0,509.0,0.0,1,389.0,1
1052,1052,-0.489089095587498,-0.5,0.0,1.0,287.0,932.0,1.0,0,141.0,1
1053,1053,0.10188637447277127,0.1,0.0,0.0,457.0,533.0,0.0,1,450.0,1
1054,1054,-0.19548033326917447,-0.2,0.0,1.0,375.0,885.0,1.0,0,610.0,1
1055,1055,-0.04073659469566915,-0.0,0.0,1.0,443.0,998.0,1.0,0,1559.0,1
1056,1056,0.6993805141350934,0.7,1.0,1.0,492.0,737.0,1.0,1,251.0,1
1057,1057,0.7298693137628155,0.7,1.0,1.0,312.0,712.0,1.0,1,286.0,1
1058,1058,-0.5620609803486336,-0.6,0.0,1.0,278.0,673.0,1.0,0,389.0,1
1059,1059,-0.44471367788703925,-0.4,1.0,0.0,444.0,841.0,0.0,0,125.0,1
1060,1060,0.20138316608443863,0.2,0.0,0.0,470.0,898.0,0.0,1,102.0,1
1061,1061,0.44279125485619153,0.4,0.0,0.0,439.0,887.0,0.0,1,134.0,1
1062,1062,0.21424738774534002,0.2,1.0,1.0,359.0,814.0,1.0,1,307.0,1
1063,1063,0.18089670187065587,0.2,1.0,1.0,454.0,833.0,1.0,1,363.0,1
1064,1064,0.8305310839198968,0.8,1.0,1.0,330.0,551.0,1.0,1,169.0,1
1065,1065,0.4901174377073728,0.5,0.0,0.0,336.0,555.0,0.0,1,249.0,1
1066,1066,0.008125407450085165,0.0,1.0,1.0,404.0,560.0,1.0,1,1846.0,1
1067,1067,-0.31575641740238747,-0.3,1.0,0.0,328.0,501.0,0.0,0,391.0,1
1068,1068,0.04040449415467551,0.0,1.0,1.0,430.0,552.0,0.0,0,628.0,0
1069,1069,-0.6398850643504037,-0.6,1.0,0.0,296.0,606.0,0.0,0,328.0,1
1070,1070,-0.5368438539964346,-0.5,1.0,0.0,480.0,964.0,0.0,0,26.0,1
1071,1071,0.24044165933521067,0.2,0.0,0.0,314.0,790.0,0.0,1,216.0,1
1072,1072,-0.05439822382791071,-0.1,0.0,1.0,259.0,622.0,0.0,1,539.0,0
1073,1073,0.5248119079438439,0.5,1.0,1.0,459.0,786.0,1.0,1,285.0,1
1074,1074,-0.6125297073633464,-0.6,0.0,1.0,428.0,679.0,1.0,0,233.0,1
1075,1075,0.6325528833101978,0.6,0.0,0.0,383.0,607.0,0.0,1,150.0,1
1076,1076,0.055233124741395745,0.1,0.0,0.0,316.0,793.0,0.0,1,481.0,1
1077,1077,-0.13052507380547052,-0.1,0.0,1.0,344.0,740.0,1.0,0,546.0,1
1078,1078,-0.29239834339184223,-0.3,0.0,1.0,367.0,794.0,1.0,0,219.0,1
1079,1079,-0.821180908801625,-0.8,0.0,1.0,375.0,664.0,1.0,0,151.0,1
1080,1080,-0.7706370136439552,-0.8,0.0,1.0,430.0,917.0,1.0,0,113.0,1
1081,1081,-0.018333638953062503,-0.0,0.0,1.0,439.0,937.0,0.0,1,1624.0,0
1082,1082,0.7805217495286824,0.8,1.0,1.0,369.0,944.0,1.0,1,97.0,1
1083,1083,-0.7238774907601616,-0.7,0.0,1.0,496.0,834.0,1.0,0,110.0,1
1084,1084,0.3995617611075971,0.4,1.0,1.0,328.0,958.0,1.0,1,204.0,1
1085,1085,-0.05347490814977496,-0.1,1.0,0.0,306.0,753.0,0.0,0,731.0,1
1086,1086,-0.2826670455628828,-0.3,0.0,1.0,343.0,931.0,0.0,1,-24.0,0
1087,1087,0.33259577875046553,0.3,1.0,1.0,383.0,630.0,1.0,1,307.0,1
1088,1088,-0.5618880312183587,-0.6,0.0,1.0,468.0,927.0,1.0,0,115.0,1
1089,1089,0.2118472527321319,0.2,1.0,1.0,311.0,868.0,1.0,1,221.0,1
1090,1090,-0.5848697856378756,-0.6,0.0,1.0,433.0,996.0,1.0,0,151.0,1
1091,1091,-0.8169564803106582,-0.8,0.0,1.0,333.0,689.0,1.0,0,238.0,1
1092,1092,0.40955998215144207,0.4,0.0,0.0,260.0,661.0,0.0,1,119.0,1
1093,1093,0.2503378647441933,0.3,1.0,1.0,307.0,875.0,1.0,1,208.0,1
1094,1094,-0.6904954443008553,-0.7,1.0,0.0,381.0,640.0,0.0,0,199.0,1
1095,1095,-0.18219692280526878,-0.2,0.0,1.0,331.0,901.0,0.0,1,78.0,0
1096,1096,0.8974950904372992,0.9,1.0,1.0,457.0,552.0,1.0,1,211.0,1
1097,1097,-0.7761480352894923,-0.8,0.0,1.0,405.0,949.0,1.0,0,76.0,1
1098,1098,0.6578820039625505,0.7,1.0,1.0,481.0,617.0,1.0,1,152.0,1
1099,1099,-0.6409485528149605,-0.6,1.0,0.0,362.0,954.0,0.0,0,134.0,1
1100,1100,-0.5638127438935665,-0.6,1.0,0.0,397.0,924.0,0.0,0,149.0,1
1101,1101,-0.41848165070872545,-0.4,1.0,0.0,412.0,501.0,0.0,0,387.0,1
1102,1102,0.7565681598927035,0.8,1.0,1.0,431.0,795.0,1.0,1,224.0,1
1103,1103,0.004108036854199804,0.0,1.0,1.0,380.0,536.0,0.0,0,2084.0,0
1104,1104,0.8795437887833285,0.9,0.0,0.0,420.0,893.0,0.0,1,97.0,1
1105,1105,0.5596808432919579,0.6,1.0,1.0,433.0,704.0,1.0,1,163.0,1
1106,1106,-0.5562062457137864,-0.6,0.0,1.0,376.0,760.0,1.0,0,234.0,1
1107,1107,-0.7765394796327975,-0.8,1.0,0.0,473.0,506.0,0.0,0,161.0,1
1108,1108,-0.5864250713855825,-0.6,0.0,1.0,366.0,539.0,1.0,0,475.0,1
1109,1109,0.2231725901185847,0.2,0.0,0.0,432.0,928.0,0.0,1,190.0,1
1110,1110,0.5573945975940792,0.6,1.0,1.0,322.0,574.0,1.0,1,244.0,1
1111,1111,-0.597906112909414,-0.6,1.0,0.0,461.0,716.0,0.0,0,123.0,1
1112,1112,0.5748450492327611,0.6,0.0,0.0,424.0,500.0,0.0,1,176.0,1
1113,1113,0.6348446252186476,0.6,0.0,0.0,403.0,913.0,0.0,1,34.0,1
1114,1114,0.18398941593905993,0.2,1.0,1.0,427.0,566.0,1.0,1,507.0,1
1115,1115,0.7180653404940173,0.7,1.0,1.0,322.0,536.0,1.0,1,302.0,1
1116,1116,0.8502600122122635,0.9,1.0,1.0,419.0,997.0,1.0,1,104.0,1
1117,1117,-0.6725362487793004,-0.7,1.0,0.0,426.0,679.0,0.0,0,255.0,1
1118,1118,0.3411776378565664,0.3,1.0,1.0,357.0,634.0,1.0,1,329.0,1
1119,1119,-0.2878408143889549,-0.3,1.0,0.0,413.0,841.0,0.0,0,196.0,1
1120,1120,0.1478716392949596,0.1,1.0,1.0,276.0,664.0,1.0,1,1040.0,1
1121,1121,0.12452218311925456,0.1,1.0,1.0,337.0,576.0,1.0,1,797.0,1
1122,1122,0.7459001584986847,0.7,1.0,1.0,430.0,855.0,1.0,1,205.0,1
1123,1123,-0.4278673324818056,-0.4,0.0,1.0,288.0,709.0,1.0,0,233.0,1
1124,1124,-0.14042585459753165,-0.1,1.0,0.0,292.0,998.0,0.0,0,190.0,1
1125,1125,-0.50445241667518,-0.5,1.0,0.0,488.0,892.0,0.0,0,190.0,1
1126,1126,-0.6736423991651299,-0.7,1.0,0.0,430.0,887.0,0.0,0,133.0,1
1127,1127,-0.8778798893475174,-0.9,0.0,1.0,426.0,692.0,1.0,0,72.0,1
1128,1128,0.3209123706850131,0.3,1.0,1.0,258.0,784.0,1.0,1,198.0,1
1129,1129,0.7222838854135546,0.7,0.0,0.0,390.0,994.0,0.0,1,36.0,1
1130,1130,0.08232177231194493,0.1,1.0,1.0,454.0,621.0,1.0,1,565.0,1
1131,1131,-0.5522021844926421,-0.6,0.0,1.0,298.0,855.0,1.0,0,157.0,1
1132,1132,0.6509346342800809,0.7,1.0,1.0,279.0,918.0,1.0,1,103.0,1
1133,1133,0.6744500463935835,0.7,0.0,0.0,302.0,672.0,0.0,1,96.0,1
1134,1134,-0.6388733071354789,-0.6,1.0,0.0,349.0,836.0,0.0,0,145.0,1
1135,1135,0.12447781270470226,0.1,1.0,1.0,286.0,652.0,1.0,1,882.0,1
1136,1136,0.508026784150147,0.5,1.0,1.0,468.0,660.0,1.0,1,252.0,1
1137,1137,-0.21782701966640683,-0.2,0.0,1.0,357.0,995.0,1.0,0,168.0,1
1138,1138,0.019893387569668186,0.0,1.0,1.0,309.0,551.0,0.0,0,620.0,0
1139,1139,0.7807867379957495,0.8,0.0,0.0,290.0,897.0,0.0,1,113.0,1
1140,1140,0.08080590065092463,0.1,1.0,1.0,494.0,532.0,1.0,1,1094.0,1
1141,1141,0.7608547610203215,0.8,0.0,0.0,387.0,983.0,0.0,1,280.0,1
1142,1142,0.43091035875095496,0.4,1.0,1.0,432.0,816.0,1.0,1,172.0,1
1143,1143,-0.5252504864720217,-0.5,0.0,1.0,429.0,845.0,1.0,0,176.0,1
1144,1144,-0.2994407551350755,-0.3,0.0,1.0,416.0,884.0,1.0,0,570.0,1
1145,1145,-0.7949604711533651,-0.8,0.0,1.0,346.0,654.0,1.0,0,120.0,1
1146,1146,-0.7641610440376935,-0.8,1.0,0.0,313.0,593.0,0.0,0,214.0,1
1147,1147,0.29963392115158427,0.3,1.0,1.0,395.0,725.0,1.0,1,170.0,1
1148,1148,-0.7891680875874693,-0.8,1.0,0.0,333.0,830.0,0.0,0,57.0,1
1149,1149,-0.20598681061438118,-0.2,1.0,0.0,410.0,538.0,0.0,0,222.0,1
1150,1150,0.8205776986917263,0.8,0.0,0.0,328.0,840.0,0.0,1,52.0,1
1151,1151,0.8833076702326114,0.9,1.0,1.0,264.0,962.0,1.0,1,94.0,1
1152,1152,-0.2458135594352382,-0.2,0.0,1.0,285.0,779.0,1.0,0,176.0,1
1153,1153,-0.04422629073429918,-0.0,0.0,1.0,295.0,900.0,1.0,0,405.0,1
1154,1154,0.3159151013209939,0.3,1.0,1.0,364.0,961.0,1.0,1,125.0,1
1155,1155,-0.5884857111164465,-0.6,1.0,0.0,281.0,914.0,0.0,0,115.0,1
1156,1156,0.7949523362680887,0.8,1.0,1.0,497.0,646.0,1.0,1,157.0,1
1157,1157,-0.4917197135968929,-0.5,1.0,0.0,277.0,751.0,0.0,0,202.0,1
1158,1158,-0.16256471284483698,-0.2,1.0,0.0,306.0,869.0,0.0,0,105.0,1
1159,1159,0.7807439981559942,0.8,1.0,1.0,323.0,625.0,1.0,1,192.0,1
1160,1160,-0.564869555297168,-0.6,1.0,0.0,250.0,859.0,0.0,0,111.0,1
1161,1161,0.8601485128895622,0.9,0.0,0.0,385.0,523.0,0.0,1,232.0,1
1162,1162,-0.28258439094167376,-0.3,1.0,0.0,288.0,964.0,0.0,0,88.0,1
1163,1163,-0.16110740306144333,-0.2,1.0,0.0,269.0,545.0,0.0,0,476.0,1
1164,1164,0.7819924884093338,0.8,1.0,1.0,326.0,776.0,1.0,1,238.0,1
1165,1165,0.45306915823074034,0.5,1.0,1.0,480.0,917.0,1.0,1,153.0,1
1166,1166,-0.19035449068001287,-0.2,0.0,1.0,343.0,825.0,1.0,0,512.0,1
1167,1167,-0.3943636622762843,-0.4,1.0,0.0,426.0,501.0,0.0,0,283.0,1
1168,1168,0.1350157289691677,0.1,1.0,1.0,427.0,753.0,1.0,1,390.0,1
1169,1169,-0.3899747664693325,-0.4,1.0,0.0,314.0,612.0,0.0,0,274.0,1
1170,1170,-0.7953320447176248,-0.8,0.0,1.0,326.0,636.0,1.0,0,168.0,1
1171,1171,0.10086896179790317,0.1,0.0,0.0,394.0,878.0,0.0,1,1058.0,1
1172,1172,0.6735880422053718,0.7,0.0,0.0,349.0,575.0,0.0,1,246.0,1
1173,1173,-0.665263753464389,-0.7,1.0,0.0,323.0,582.0,0.0,0,175.0,1
1174,1174,-0.294556871796552,-0.3,1.0,0.0,326.0,745.0,0.0,0,109.0,1
1175,1175,0.190944379147998,0.2,1.0,1.0,288.0,731.0,1.0,1,301.0,1
1176,1176,-0.4909627944160265,-0.5,1.0,0.0,310.0,895.0,0.0,0,195.0,1
1177,1177,0.267646655764867,0.3,1.0,1.0,495.0,731.0,1.0,1,214.0,1
1178,1178,-0.7578456897455952,-0.8,1.0,0.0,409.0,731.0,0.0,0,160.0,1
1179,1179,-0.4552069705695063,-0.5,0.0,1.0,257.0,985.0,1.0,0,168.0,1
1180,1180,-0.3417319275110885,-0.3,1.0,0.0,313.0,884.0,0.0,0,183.0,1
1181,1181,-0.22301906559301887,-0.2,1.0,0.0,359.0,742.0,0.0,0,269.0,1
1182,1182,-0.5120235518787442,-0.5,0.0,1.0,409.0,947.0,1.0,0,134.0,1
1183,1183,-0.8816172955332645,-0.9,1.0,0.0,460.0,870.0,0.0,0,170.0,1
1184,1184,-0.5488927247529081,-0.5,0.0,1.0,294.0,857.0,1.0,0,139.0,1
1185,1185,0.7079595553700148,0.7,1.0,1.0,411.0,695.0,1.0,1,164.0,1
1186,1186,-0.16871946360133794,-0.2,1.0,0.0,379.0,624.0,0.0,0,367.0,1
1187,1187,-0.10396849558995414,-0.1,0.0,1.0,258.0,573.0,0.0,1,989.0,0
1188,1188,-0.013704469528490915,-0.0,0.0,1.0,337.0,538.0,0.0,1,1695.0,0
1189,1189,-0.04301491838013338,-0.0,1.0,0.0,463.0,846.0,0.0,0,161.0,1
1190,1190,-0.0466299953719842,-0.0,1.0,0.0,406.0,753.0,0.0,0,261.0,1
1191,1191,0.6497834010474132,0.6,0.0,0.0,425.0,539.0,0.0,1,346.0,1
1192,1192,0.7374636124177502,0.7,0.0,0.0,457.0,691.0,0.0,1,282.0,1
1193,1193,0.1173219156670765,0.1,0.0,0.0,364.0,892.0,0.0,1,524.0,1
1194,1194,-0.2904632234732629,-0.3,0.0,1.0,488.0,898.0,1.0,0,224.0,1
1195,1195,-0.7390712059367661,-0.7,1.0,0.0,442.0,927.0,0.0,0,131.0,1
1196,1196,-0.0010602835483924933,-0.0,1.0,0.0,419.0,582.0,0.0,0,1279.0,1
1197,1197,-0.5775133030161073,-0.6,0.0,1.0,418.0,720.0,1.0,0,132.0,1
1198,1198,0.4870988220520861,0.5,0.0,0.0,354.0,962.0,0.0,1,224.0,1
1199,1199,-0.6686383505999182,-0.7,0.0,1.0,312.0,942.0,1.0,0,106.0,1
1200,1200,0.533309949106361,0.5,1.0,1.0,273.0,988.0,1.0,1,119.0,1
1201,1201,0.6871301320700277,0.7,0.0,0.0,325.0,553.0,0.0,1,202.0,1
1202,1202,0.5388543222115848,0.5,0.0,0.0,251.0,502.0,0.0,1,327.0,1
1203,1203,0.13151960653126638,0.1,1.0,1.0,362.0,747.0,1.0,1,351.0,1
1204,1204,-0.3768070847177042,-0.4,1.0,0.0,337.0,674.0,0.0,0,329.0,1
1205,1205,-0.024320074476025244,-0.0,0.0,1.0,453.0,663.0,0.0,1,864.0,0
1206,1206,-0.24967829921569618,-0.2,0.0,1.0,428.0,530.0,1.0,0,322.0,1
1207,1207,0.4734350626601155,0.5,1.0,1.0,499.0,991.0,1.0,1,120.0,1
1208,1208,-0.3300293324913649,-0.3,0.0,1.0,431.0,763.0,1.0,0,176.0,1
1209,1209,-0.11561304261994398,-0.1,1.0,0.0,434.0,907.0,0.0,0,129.0,1
1210,1210,0.3382960489368375,0.3,1.0,1.0,401.0,616.0,1.0,1,373.0,1
1211,1211,0.2180039678697544,0.2,0.0,0.0,287.0,851.0,0.0,1,322.0,1
1212,1212,-0.07045241381827438,-0.1,0.0,1.0,415.0,815.0,1.0,0,1770.0,1
1213,1213,-0.3756667419144393,-0.4,1.0,0.0,312.0,522.0,0.0,0,446.0,1
1214,1214,0.4132079787177957,0.4,1.0,1.0,326.0,834.0,1.0,1,180.0,1
1215,1215,-0.2465805507513088,-0.2,0.0,1.0,474.0,698.0,1.0,0,468.0,1
1216,1216,0.5907939202914866,0.6,1.0,1.0,415.0,662.0,1.0,1,383.0,1
1217,1217,-0.05718943165736756,-0.1,1.0,0.0,416.0,575.0,0.0,0,1959.0,1
1218,1218,-0.8726213956705172,-0.9,1.0,0.0,335.0,733.0,0.0,0,162.0,1
1219,1219,-0.19303244299899325,-0.2,1.0,0.0,294.0,833.0,0.0,0,193.0,1
1220,1220,-0.27613889359256905,-0.3,1.0,0.0,285.0,850.0,0.0,0,405.0,1
1221,1221,0.29419662744176167,0.3,1.0,1.0,327.0,942.0,0.0,0,-149.0,0
1222,1222,-0.10895968191293448,-0.1,1.0,0.0,402.0,618.0,0.0,0,430.0,1
1223,1223,-0.8391450155067789,-0.8,0.0,1.0,423.0,606.0,1.0,0,241.0,1
1224,1224,0.6340398864167233,0.6,0.0,0.0,447.0,977.0,0.0,1,66.0,1
1225,1225,-0.3727064114381534,-0.4,0.0,1.0,267.0,952.0,1.0,0,141.0,1
1226,1226,-0.2030430663896272,-0.2,0.0,1.0,410.0,580.0,1.0,0,360.0,1
1227,1227,-0.42710341231885757,-0.4,1.0,0.0,437.0,706.0,0.0,0,167.0,1
1228,1228,-0.09932272082043869,-0.1,1.0,0.0,467.0,862.0,0.0,0,911.0,1
1229,1229,0.28802314390077777,0.3,1.0,1.0,332.0,871.0,1.0,1,267.0,1
1230,1230,0.45552444558544003,0.5,0.0,0.0,335.0,719.0,0.0,1,146.0,1
1231,1231,-0.6844131802077899,-0.7,0.0,1.0,386.0,920.0,1.0,0,74.0,1
1232,1232,0.8197382907985044,0.8,1.0,1.0,408.0,870.0,1.0,1,82.0,1
1233,1233,0.7393647896901069,0.7,1.0,1.0,433.0,624.0,1.0,1,233.0,1
1234,1234,-0.6672397458422745,-0.7,1.0,0.0,459.0,634.0,0.0,0,237.0,1
1235,1235,-0.6100377898966987,-0.6,0.0,1.0,448.0,526.0,1.0,0,416.0,1
1236,1236,-0.12924062157575378,-0.1,0.0,1.0,379.0,684.0,1.0,0,1187.0,1
1237,1237,0.4905645749655948,0.5,1.0,1.0,439.0,774.0,1.0,1,277.0,1
1238,1238,-0.827610063453064,-0.8,1.0,0.0,262.0,700.0,0.0,0,168.0,1
1239,1239,0.8066205930915525,0.8,1.0,1.0,464.0,981.0,1.0,1,75.0,1
1240,1240,0.7830910329806872,0.8,0.0,0.0,429.0,831.0,0.0,1,90.0,1
1241,1241,-0.42120236034398906,-0.4,1.0,0.0,262.0,747.0,0.0,0,251.0,1
1242,1242,-0.36020946296917644,-0.4,1.0,0.0,492.0,919.0,0.0,0,169.0,1
1243,1243,0.5781723120682639,0.6,0.0,0.0,321.0,505.0,0.0,1,754.0,1
1244,1244,0.5205933683265614,0.5,1.0,1.0,311.0,859.0,1.0,1,100.0,1
1245,1245,-0.12499206528770357,-0.1,0.0,1.0,372.0,617.0,1.0,0,521.0,1
1246,1246,0.19230361412380137,0.2,1.0,1.0,300.0,652.0,1.0,1,368.0,1
1247,1247,0.8725401958497173,0.9,0.0,0.0,274.0,987.0,0.0,1,379.0,1
1248,1248,0.7158634867646702,0.7,1.0,1.0,306.0,815.0,1.0,1,189.0,1
1249,1249,0.8800449389997097,0.9,1.0,1.0,398.0,830.0,1.0,1,132.0,1
1250,1250,-0.3193899590743924,-0.3,1.0,0.0,410.0,887.0,0.0,0,213.0,1
1251,1251,-0.6628902708192307,-0.7,0.0,1.0,412.0,886.0,1.0,0,82.0,1
1252,1252,-0.18797659226012842,-0.2,0.0,1.0,427.0,649.0,1.0,0,174.0,1
1253,1253,0.15273766372976738,0.2,0.0,0.0,386.0,513.0,0.0,1,471.0,1
1254,1254,-0.823618600440738,-0.8,1.0,0.0,419.0,809.0,0.0,0,62.0,1
1255,1255,-0.39510424425961677,-0.4,1.0,0.0,335.0,594.0,0.0,0,261.0,1
1256,1256,0.1984302082578714,0.2,1.0,1.0,308.0,613.0,1.0,1,229.0,1
1257,1257,0.6289051762163477,0.6,1.0,1.0,462.0,907.0,1.0,1,121.0,1
1258,1258,-0.4804129845071332,-0.5,0.0,1.0,379.0,909.0,1.0,0,202.0,1
1259,1259,-0.7548749886913817,-0.8,0.0,1.0,426.0,638.0,1.0,0,216.0,1
1260,1260,-0.5958283698921092,-0.6,0.0,1.0,353.0,660.0,1.0,0,197.0,1
1261,1261,-0.628079072332564,-0.6,0.0,1.0,326.0,603.0,1.0,0,291.0,1
1262,1262,-0.2610502795909124,-0.3,0.0,1.0,475.0,902.0,1.0,0,243.0,1
1263,1263,-0.8059316364781388,-0.8,0.0,1.0,493.0,720.0,1.0,0,157.0,1
1264,1264,-0.15880130211315324,-0.2,0.0,1.0,453.0,621.0,1.0,0,696.0,1
1265,1265,0.8344458853553564,0.8,1.0,1.0,490.0,734.0,1.0,1,186.0,1
1266,1266,0.10235059460635132,0.1,0.0,0.0,374.0,882.0,0.0,1,184.0,1
1267,1267,0.26466845116476956,0.3,0.0,0.0,489.0,890.0,0.0,1,181.0,1
1268,1268,-0.20991676414927318,-0.2,0.0,1.0,297.0,540.0,1.0,0,463.0,1
1269,1269,0.2817847834086794,0.3,1.0,1.0,266.0,521.0,1.0,1,513.0,1
1270,1270,0.8756444531646931,0.9,0.0,0.0,471.0,524.0,0.0,1,285.0,1
1271,1271,0.0792326905920846,0.1,0.0,0.0,411.0,676.0,0.0,1,313.0,1
1272,1272,-0.564722195027757,-0.6,1.0,0.0,420.0,980.0,0.0,0,150.0,1
1273,1273,0.7158652963756499,0.7,0.0,0.0,309.0,982.0,0.0,1,149.0,1
1274,1274,-0.638490279264182,-0.6,1.0,0.0,418.0,663.0,0.0,0,99.0,1
1275,1275,-0.513013887709655,-0.5,1.0,0.0,337.0,592.0,0.0,0,251.0,1
1276,1276,0.7587460301099557,0.8,1.0,1.0,254.0,999.0,1.0,1,217.0,1
1277,1277,-0.8813591485768543,-0.9,0.0,1.0,348.0,569.0,1.0,0,153.0,1
1278,1278,-0.261752219344237,-0.3,0.0,1.0,297.0,501.0,1.0,0,382.0,1
1279,1279,-0.6186746534364691,-0.6,0.0,1.0,385.0,805.0,1.0,0,150.0,1
1280,1280,0.26718331080651525,0.3,1.0,1.0,400.0,622.0,1.0,1,458.0,1
1281,1281,0.4767442786677275,0.5,0.0,0.0,400.0,604.0,0.0,1,296.0,1
1282,1282,0.03676853344852482,0.0,1.0,1.0,277.0,838.0,0.0,0,1015.0,0
1283,1283,0.05630932595057969,0.1,1.0,1.0,376.0,730.0,0.0,0,634.0,0
1284,1284,-0.348439116524211,-0.3,1.0,0.0,435.0,549.0,0.0,0,376.0,1
1285,1285,-0.8659441903379438,-0.9,0.0,1.0,316.0,911.0,1.0,0,73.0,1
1286,1286,0.7701408353465414,0.8,0.0,0.0,346.0,596.0,0.0,1,158.0,1
1287,1287,0.08147132320888562,0.1,0.0,0.0,495.0,694.0,0.0,1,101.0,1
1288,1288,0.09376339741648432,0.1,1.0,1.0,374.0,992.0,1.0,1,1464.0,1
1289,1289,-0.024935071970091927,-0.0,0.0,1.0,318.0,873.0,0.0,1,1349.0,0
1290,1290,0.8516738193424235,0.9,1.0,1.0,341.0,589.0,1.0,1,220.0,1
1291,1291,-0.8229014559205029,-0.8,1.0,0.0,339.0,864.0,0.0,0,387.0,1
1292,1292,-0.4961450042063216,-0.5,0.0,1.0,484.0,980.0,1.0,0,166.0,1
1293,1293,0.4317653259531894,0.4,0.0,0.0,274.0,603.0,0.0,1,313.0,1
1294,1294,0.7560817320845769,0.8,1.0,1.0,381.0,583.0,1.0,1,186.0,1
1295,1295,-0.691569157728647,-0.7,0.0,1.0,442.0,837.0,1.0,0,171.0,1
1296,1296,-0.11698114170993001,-0.1,1.0,0.0,306.0,521.0,0.0,0,713.0,1
1297,1297,0.5198750904028585,0.5,1.0,1.0,454.0,857.0,1.0,1,269.0,1
1298,1298,-0.42393026329870453,-0.4,0.0,1.0,495.0,815.0,1.0,0,180.0,1
1299,1299,-0.8216105502684011,-0.8,1.0,0.0,441.0,844.0,0.0,0,135.0,1
1300,1300,-0.5330418236228316,-0.5,1.0,0.0,390.0,803.0,0.0,0,107.0,1
1301,1301,-0.14820326664673122,-0.1,0.0,1.0,435.0,644.0,1.0,0,661.0,1
1302,1302,-0.5006444822705227,-0.5,1.0,0.0,332.0,791.0,0.0,0,107.0,1
1303,1303,0.26293910227432205,0.3,1.0,1.0,410.0,535.0,1.0,1,525.0,1
1304,1304,0.8253528644846343,0.8,1.0,1.0,423.0,524.0,1.0,1,373.0,1
1305,1305,0.686811380199294,0.7,1.0,1.0,451.0,517.0,1.0,1,192.0,1
1306,1306,-0.6059542915911109,-0.6,1.0,0.0,264.0,965.0,0.0,0,131.0,1
1307,1307,0.6740696611867377,0.7,0.0,0.0,377.0,633.0,0.0,1,160.0,1
1308,1308,0.8281508470392457,0.8,0.0,0.0,412.0,827.0,0.0,1,181.0,1
1309,1309,-0.8116609328423542,-0.8,0.0,1.0,250.0,848.0,1.0,0,132.0,1
1310,1310,0.611920038205107,0.6,1.0,1.0,360.0,826.0,1.0,1,144.0,1
1311,1311,0.006552303042968277,0.0,1.0,1.0,478.0,879.0,0.0,0,353.0,0
1312,1312,-0.5781957884216586,-0.6,0.0,1.0,362.0,684.0,1.0,0,104.0,1
1313,1313,-0.11972363119492468,-0.1,0.0,1.0,371.0,564.0,1.0,0,595.0,1
1314,1314,0.07848208984292127,0.1,0.0,0.0,399.0,892.0,0.0,1,339.0,1
1315,1315,-0.6973989208506242,-0.7,0.0,1.0,378.0,617.0,1.0,0,225.0,1
1316,1316,0.8057839619076214,0.8,1.0,1.0,285.0,667.0,1.0,1,298.0,1
1317,1317,0.2624347879165535,0.3,0.0,0.0,310.0,987.0,0.0,1,73.0,1
1318,1318,-0.06469911165699405,-0.1,0.0,1.0,461.0,991.0,1.0,0,1548.0,1
1319,1319,0.35514344654270713,0.4,1.0,1.0,491.0,520.0,1.0,1,499.0,1
1320,1320,0.6215707857458878,0.6,0.0,0.0,272.0,579.0,0.0,1,279.0,1
1321,1321,-0.3095068775391536,-0.3,1.0,0.0,334.0,786.0,0.0,0,170.0,1
1322,1322,0.4137786554483617,0.4,0.0,0.0,481.0,648.0,0.0,1,271.0,1
1323,1323,0.35049856030082716,0.4,0.0,0.0,357.0,927.0,0.0,1,296.0,1
1324,1324,0.8303595430277689,0.8,1.0,1.0,432.0,775.0,1.0,1,303.0,1
1325,1325,0.38240619657336083,0.4,1.0,1.0,333.0,746.0,1.0,1,241.0,1
1326,1326,0.1408767881314229,0.1,1.0,1.0,372.0,846.0,1.0,1,1412.0,1
1327,1327,0.23920419287919448,0.2,0.0,0.0,303.0,736.0,0.0,1,211.0,1
1328,1328,0.4030250383045618,0.4,0.0,0.0,364.0,691.0,0.0,1,205.0,1
1329,1329,-0.5045832727436976,-0.5,0.0,1.0,280.0,876.0,1.0,0,114.0,1
1330,1330,-0.6257409388258569,-0.6,1.0,0.0,418.0,977.0,0.0,0,155.0,1
1331,1331,-0.46410733949929117,-0.5,1.0,0.0,275.0,880.0,0.0,0,155.0,1
1332,1332,0.5244228339364158,0.5,1.0,1.0,293.0,887.0,1.0,1,230.0,1
1333,1333,-0.4517214433110164,-0.5,1.0,0.0,311.0,671.0,0.0,0,148.0,1
1334,1334,0.026268675836990996,0.0,0.0,0.0,432.0,720.0,0.0,1,418.0,1
1335,1335,0.391884569502322,0.4,0.0,0.0,491.0,679.0,0.0,1,220.0,1
1336,1336,-0.007149891071966508,-0.0,1.0,0.0,386.0,682.0,0.0,0,452.0,1
1337,1337,-0.12494661507814764,-0.1,0.0,1.0,450.0,569.0,1.0,0,401.0,1
1338,1338,-0.5629887969450855,-0.6,1.0,0.0,404.0,975.0,0.0,0,41.0,1
1339,1339,-0.5673015181321065,-0.6,1.0,0.0,416.0,709.0,0.0,0,195.0,1
1340,1340,0.7332840177537475,0.7,1.0,1.0,352.0,840.0,1.0,1,168.0,1
1341,1341,0.09574109319331015,0.1,0.0,0.0,379.0,925.0,0.0,1,206.0,1
1342,1342,-0.8605646371841429,-0.9,1.0,0.0,495.0,685.0,0.0,0,110.0,1
1343,1343,0.8311565661495249,0.8,1.0,1.0,270.0,823.0,1.0,1,147.0,1
1344,1344,0.25820977544686274,0.3,0.0,0.0,304.0,821.0,0.0,1,345.0,1
1345,1345,-0.10540783988344704,-0.1,1.0,0.0,395.0,965.0,0.0,0,330.0,1
1346,1346,0.8702501466507763,0.9,1.0,1.0,347.0,932.0,0.0,0,-39.0,0
1347,1347,-0.19892761462594544,-0.2,1.0,0.0,336.0,690.0,0.0,0,304.0,1
1348,1348,0.6119010777592379,0.6,1.0,1.0,260.0,573.0,1.0,1,407.0,1
1349,1349,0.5215571203334445,0.5,1.0,1.0,477.0,702.0,1.0,1,411.0,1
1350,1350,-0.8026380284229571,-0.8,0.0,1.0,377.0,867.0,1.0,0,106.0,1
1351,1351,0.11296750041539327,0.1,0.0,0.0,393.0,560.0,0.0,1,387.0,1
1352,1352,0.3665689668659816,0.4,1.0,1.0,384.0,561.0,1.0,1,535.0,1
1353,1353,-0.2326710744884103,-0.2,0.0,1.0,386.0,532.0,1.0,0,382.0,1
1354,1354,0.048531396464690846,0.0,0.0,0.0,432.0,534.0,0.0,1,1124.0,1
1355,1355,-0.19781009993412446,-0.2,1.0,0.0,404.0,947.0,0.0,0,169.0,1
1356,1356,-0.3080524876083668,-0.3,0.0,1.0,316.0,666.0,1.0,0,198.0,1
1357,1357,0.8767618542972154,0.9,0.0,0.0,455.0,986.0,0.0,1,169.0,1
1358,1358,0.7039420629930623,0.7,0.0,0.0,364.0,856.0,0.0,1,240.0,1
1359,1359,0.247576683499091,0.2,1.0,1.0,330.0,839.0,1.0,1,331.0,1
1360,1360,0.40938364623088164,0.4,0.0,0.0,394.0,930.0,0.0,1,36.0,1
1361,1361,-0.667086016336718,-0.7,1.0,0.0,262.0,951.0,0.0,0,107.0,1
1362,1362,0.5738530384010833,0.6,0.0,0.0,356.0,964.0,0.0,1,90.0,1
1363,1363,-0.26750539146490593,-0.3,1.0,0.0,294.0,647.0,0.0,0,259.0,1
1364,1364,0.7401495046076673,0.7,0.0,0.0,259.0,937.0,0.0,1,144.0,1
1365,1365,0.3625629659038264,0.4,0.0,0.0,302.0,632.0,0.0,1,176.0,1
1366,1366,0.6816658276229371,0.7,1.0,1.0,344.0,788.0,1.0,1,178.0,1
1367,1367,-0.8016422267345457,-0.8,1.0,0.0,366.0,567.0,0.0,0,267.0,1
1368,1368,-0.08537114863253636,-0.1,1.0,0.0,262.0,505.0,0.0,0,743.0,1
1369,1369,-0.18703872587180015,-0.2,0.0,1.0,462.0,699.0,1.0,0,389.0,1
1370,1370,0.5543600824445715,0.6,1.0,1.0,412.0,763.0,1.0,1,255.0,1
1371,1371,-0.48350084843895813,-0.5,1.0,0.0,423.0,697.0,0.0,0,210.0,1
1372,1372,-0.09618753786656475,-0.1,1.0,0.0,286.0,731.0,0.0,0,303.0,1
1373,1373,-0.12953770888619187,-0.1,0.0,1.0,302.0,624.0,1.0,0,434.0,1
1374,1374,-0.7540252366377839,-0.8,0.0,1.0,416.0,575.0,1.0,0,379.0,1
1375,1375,-0.4727299682620564,-0.5,0.0,1.0,465.0,725.0,1.0,0,190.0,1
1376,1376,0.10242852726550333,0.1,0.0,0.0,436.0,931.0,0.0,1,743.0,1
1377,1377,0.13867128160145803,0.1,0.0,0.0,393.0,983.0,0.0,1,394.0,1
1378,1378,0.5764320157377602,0.6,1.0,1.0,286.0,961.0,1.0,1,113.0,1
1379,1379,0.6317004383680397,0.6,1.0,1.0,261.0,583.0,1.0,1,356.0,1
1380,1380,0.1359015259052111,0.1,1.0,1.0,449.0,689.0,1.0,1,362.0,1
1381,1381,0.28902575759778537,0.3,0.0,0.0,313.0,894.0,0.0,1,413.0,1
1382,1382,-0.5996201783340231,-0.6,0.0,1.0,443.0,523.0,1.0,0,424.0,1
1383,1383,-0.01346875059980479,-0.0,0.0,1.0,471.0,668.0,1.0,0,1861.0,1
1384,1384,0.36515871104244246,0.4,0.0,0.0,285.0,743.0,0.0,1,162.0,1
1385,1385,0.8990960305559123,0.9,1.0,1.0,381.0,738.0,1.0,1,261.0,1
1386,1386,-0.0013531547455726267,-0.0,0.0,1.0,499.0,573.0,0.0,1,758.0,0
1387,1387,-0.7757765449673744,-0.8,0.0,1.0,259.0,720.0,1.0,0,211.0,1
1388,1388,-0.4681807923191625,-0.5,0.0,1.0,302.0,559.0,1.0,0,329.0,1
1389,1389,-0.5472062533330073,-0.5,1.0,0.0,441.0,768.0,0.0,0,171.0,1
1390,1390,-0.6874003177019872,-0.7,1.0,0.0,285.0,930.0,0.0,0,75.0,1
1391,1391,0.6108551439146163,0.6,1.0,1.0,289.0,657.0,1.0,1,214.0,1
1392,1392,-0.5862646956951962,-0.6,1.0,0.0,250.0,974.0,0.0,0,76.0,1
1393,1393,-0.5452085747571811,-0.5,0.0,1.0,430.0,739.0,1.0,0,231.0,1
1394,1394,0.5986961541402686,0.6,1.0,1.0,304.0,862.0,1.0,1,194.0,1
1395,1395,-0.6626909684860438,-0.7,1.0,0.0,329.0,636.0,0.0,0,295.0,1
1396,1396,0.4282522618527801,0.4,0.0,0.0,405.0,574.0,0.0,1,261.0,1
1397,1397,-0.26855404182428777,-0.3,1.0,0.0,428.0,911.0,0.0,0,191.0,1
1398,1398,0.5255147871139366,0.5,1.0,1.0,397.0,559.0,1.0,1,214.0,1
1399,1399,-0.8373779916305994,-0.8,0.0,1.0,306.0,907.0,1.0,0,97.0,1
1400,1400,-0.5380673075701115,-0.5,1.0,0.0,451.0,761.0,0.0,0,138.0,1
1401,1401,-0.12996011944442765,-0.1,1.0,0.0,265.0,671.0,0.0,0,434.0,1
1402,1402,0.5544445782886381,0.6,1.0,1.0,442.0,999.0,1.0,1,99.0,1
1403,1403,-0.5280159502780737,-0.5,1.0,0.0,340.0,651.0,0.0,0,219.0,1
1404,1404,-0.32339198369704647,-0.3,0.0,1.0,253.0,828.0,1.0,0,189.0,1
1405,1405,-0.4403375203103035,-0.4,1.0,0.0,334.0,962.0,0.0,0,84.0,1
1406,1406,0.21062172304733962,0.2,1.0,1.0,484.0,876.0,1.0,1,360.0,1
1407,1407,-0.852450062133023,-0.9,0.0,1.0,496.0,736.0,1.0,0,78.0,1
1408,1408,0.6942714369441295,0.7,1.0,1.0,470.0,787.0,1.0,1,143.0,1
1409,1409,-0.04088787550617101,-0.0,0.0,1.0,417.0,781.0,0.0,1,1802.0,0
1410,1410,-0.3039198377215677,-0.3,1.0,0.0,413.0,526.0,0.0,0,371.0,1
1411,1411,0.19985838691231905,0.2,1.0,1.0,359.0,755.0,1.0,1,496.0,1
1412,1412,-0.6166335774270255,-0.6,0.0,1.0,342.0,921.0,1.0,0,107.0,1
1413,1413,0.0414082742009364,0.0,0.0,0.0,377.0,724.0,0.0,1,379.0,1
1414,1414,-0.12142097182985712,-0.1,0.0,1.0,303.0,665.0,1.0,0,742.0,1
1415,1415,-0.7353782836942815,-0.7,0.0,1.0,386.0,656.0,1.0,0,108.0,1
1416,1416,0.5075381792991497,0.5,1.0,1.0,470.0,875.0,1.0,1,115.0,1
1417,1417,-0.18588587159189685,-0.2,0.0,1.0,480.0,757.0,1.0,0,233.0,1
1418,1418,-0.802580365675774,-0.8,1.0,0.0,259.0,652.0,0.0,0,129.0,1
1419,1419,0.5607262300462813,0.6,1.0,1.0,252.0,850.0,1.0,1,268.0,1
1420,1420,-0.6909010130385359,-0.7,0.0,1.0,298.0,961.0,1.0,0,81.0,1
1421,1421,-0.7696283813238344,-0.8,0.0,1.0,372.0,863.0,1.0,0,145.0,1
1422,1422,0.30634080041119416,0.3,1.0,1.0,443.0,659.0,1.0,1,288.0,1
1423,1423,0.23448505631697592,0.2,1.0,1.0,270.0,821.0,1.0,1,369.0,1
1424,1424,0.2572771806532469,0.3,1.0,1.0,330.0,615.0,1.0,1,315.0,1
1425,1425,0.5925101882703915,0.6,1.0,1.0,360.0,737.0,1.0,1,173.0,1
1426,1426,-0.7021273544966681,-0.7,0.0,1.0,274.0,999.0,1.0,0,127.0,1
1427,1427,0.6720362568485158,0.7,0.0,0.0,456.0,711.0,0.0,1,143.0,1
1428,1428,-0.36408740824637387,-0.4,0.0,1.0,296.0,964.0,1.0,0,230.0,1
1429,1429,0.5114310834999315,0.5,1.0,1.0,433.0,987.0,1.0,1,200.0,1
1430,1430,-0.18969114072229332,-0.2,0.0,1.0,360.0,553.0,1.0,0,657.0,1
1431,1431,-0.6362526074254038,-0.6,0.0,1.0,393.0,859.0,1.0,0,238.0,1
1432,1432,-0.21398146444289445,-0.2,0.0,1.0,251.0,901.0,1.0,0,158.0,1
1433,1433,0.17142845123278294,0.2,1.0,1.0,301.0,940.0,1.0,1,249.0,1
1434,1434,0.2278287625454959,0.2,0.0,0.0,300.0,578.0,0.0,1,282.0,1
1435,1435,0.48925381400882684,0.5,0.0,0.0,277.0,564.0,0.0,1,259.0,1
1436,1436,0.676407608651782,0.7,0.0,0.0,495.0,989.0,0.0,1,106.0,1
1437,1437,-0.679357547828268,-0.7,0.0,1.0,278.0,988.0,0.0,1,-26.0,0
1438,1438,0.895045858195806,0.9,0.0,0.0,366.0,730.0,0.0,1,184.0,1
1439,1439,-0.5108830023687525,-0.5,0.0,1.0,259.0,585.0,1.0,0,296.0,1
1440,1440,-0.5212755473256787,-0.5,1.0,0.0,350.0,921.0,0.0,0,99.0,1
1441,1441,-0.29305781460807556,-0.3,1.0,0.0,376.0,617.0,0.0,0,387.0,1
1442,1442,0.42309511258882326,0.4,0.0,0.0,299.0,668.0,0.0,1,283.0,1
1443,1443,-0.28294663460097924,-0.3,1.0,0.0,383.0,963.0,0.0,0,174.0,1
1444,1444,-0.17054251293392553,-0.2,1.0,0.0,413.0,574.0,0.0,0,713.0,1
1445,1445,0.4599810453138836,0.5,1.0,1.0,255.0,544.0,1.0,1,431.0,1
1446,1446,0.06420626974274013,0.1,1.0,1.0,266.0,532.0,1.0,1,1962.0,1
1447,1447,0.33516093595823226,0.3,0.0,0.0,379.0,666.0,0.0,1,195.0,1
1448,1448,0.3527226400906879,0.4,0.0,0.0,383.0,686.0,0.0,1,241.0,1
1449,1449,-0.22863852105327498,-0.2,0.0,1.0,298.0,763.0,1.0,0,349.0,1
1450,1450,-0.5884679230526311,-0.6,1.0,0.0,436.0,825.0,0.0,0,149.0,1
1451,1451,-0.8833262886226253,-0.9,0.0,1.0,308.0,557.0,1.0,0,225.0,1
1452,1452,-0.2319660510248015,-0.2,1.0,0.0,316.0,865.0,0.0,0,309.0,1
1453,1453,-0.7092930701471771,-0.7,1.0,0.0,377.0,633.0,0.0,0,270.0,1
1454,1454,0.5540738960997674,0.6,1.0,1.0,467.0,867.0,1.0,1,136.0,1
1455,1455,-0.03742166994509155,-0.0,0.0,1.0,333.0,755.0,1.0,0,292.0,1
1456,1456,0.04535713788296658,0.0,0.0,0.0,266.0,995.0,0.0,1,59.0,1
1457,1457,-0.0875901382783576,-0.1,1.0,0.0,477.0,651.0,0.0,0,812.0,1
1458,1458,0.7440864531796337,0.7,0.0,0.0,450.0,996.0,0.0,1,24.0,1
1459,1459,-0.28185030212816786,-0.3,0.0,1.0,407.0,827.0,1.0,0,196.0,1
1460,1460,-0.5662036424992998,-0.6,0.0,1.0,424.0,703.0,1.0,0,173.0,1
1461,1461,-0.49825890691043534,-0.5,1.0,0.0,481.0,603.0,0.0,0,326.0,1
1462,1462,-0.7693544024865687,-0.8,1.0,0.0,315.0,638.0,0.0,0,57.0,1
1463,1463,-0.7183036901603782,-0.7,1.0,0.0,388.0,752.0,0.0,0,210.0,1
1464,1464,-0.6484367894565859,-0.6,0.0,1.0,326.0,624.0,1.0,0,450.0,1
1465,1465,-0.5419680339586197,-0.5,1.0,0.0,288.0,669.0,0.0,0,193.0,1
1466,1466,0.8630991501851858,0.9,1.0,1.0,417.0,932.0,1.0,1,61.0,1
1467,1467,-0.2526903734427157,-0.3,1.0,0.0,302.0,553.0,0.0,0,305.0,1
1468,1468,-0.3820278382462292,-0.4,0.0,1.0,296.0,572.0,1.0,0,372.0,1
1469,1469,0.21457498241983075,0.2,0.0,0.0,278.0,625.0,0.0,1,297.0,1
1470,1470,-0.19123211016565578,-0.2,0.0,1.0,272.0,802.0,1.0,0,266.0,1
1471,1471,-0.8660137849578223,-0.9,1.0,0.0,327.0,934.0,0.0,0,129.0,1
1472,1472,0.7160122431777262,0.7,0.0,0.0,255.0,653.0,0.0,1,162.0,1
1473,1473,-0.11178380024697043,-0.1,1.0,0.0,357.0,962.0,0.0,0,401.0,1
1474,1474,0.4528151486687976,0.5,0.0,0.0,387.0,697.0,0.0,1,336.0,1
1475,1475,-0.42904353761171776,-0.4,1.0,0.0,461.0,510.0,0.0,0,289.0,1
1476,1476,-0.29993645425235205,-0.3,0.0,1.0,442.0,761.0,1.0,0,367.0,1
1477,1477,-0.4949533732864865,-0.5,1.0,0.0,487.0,848.0,0.0,0,65.0,1
1478,1478,-0.42779918730898236,-0.4,1.0,0.0,480.0,701.0,0.0,0,229.0,1
1479,1479,-0.26725179662791443,-0.3,0.0,1.0,411.0,961.0,1.0,0,148.0,1
1480,1480,-0.24909978735858518,-0.2,0.0,1.0,454.0,875.0,1.0,0,241.0,1
1481,1481,-0.5902547695254132,-0.6,0.0,1.0,490.0,912.0,1.0,0,188.0,1
1482,1482,-0.6577408239196889,-0.7,1.0,0.0,333.0,761.0,0.0,0,196.0,1
1483,1483,0.5685482806013461,0.6,0.0,0.0,445.0,836.0,0.0,1,39.0,1
1484,1484,-0.33620421588845717,-0.3,0.0,1.0,413.0,721.0,1.0,0,306.0,1
1485,1485,0.7405559997383463,0.7,1.0,1.0,455.0,603.0,1.0,1,222.0,1
1486,1486,0.32900294283444864,0.3,0.0,0.0,488.0,706.0,0.0,1,286.0,1
1487,1487,0.7441184663183372,0.7,0.0,0.0,438.0,720.0,0.0,1,112.0,1
1488,1488,-0.626460654098445,-0.6,0.0,1.0,285.0,641.0,1.0,0,374.0,1
1489,1489,-0.08123218799611465,-0.1,0.0,1.0,453.0,769.0,1.0,0,398.0,1
1490,1490,-0.19670976637747783,-0.2,0.0,1.0,462.0,838.0,1.0,0,590.0,1
1491,1491,-0.14488139051838034,-0.1,0.0,1.0,295.0,951.0,1.0,0,504.0,1
1492,1492,0.1160245894251054,0.1,0.0,0.0,493.0,796.0,0.0,1,261.0,1
1493,1493,0.8258087128484343,0.8,1.0,1.0,260.0,708.0,1.0,1,272.0,1
1494,1494,0.36606321937904507,0.4,0.0,0.0,458.0,674.0,0.0,1,228.0,1
