,trial,coherence,coherence_bin,green_side,correct_side,target_onset,checker_onset,decision,green_decision,decision_time,correct_decision
0,0,-0.26888483047429945,-0.3,0.0,1.0,265.0,835.0,1.0,0,3900.0,1
1,1,0.84106524899035,0.8,0.0,0.0,372.0,599.0,1.0,0,-251.0,0
2,2,-0.45876285985797427,-0.5,1.0,0.0,302.0,695.0,0.0,0,-997.0,1
3,3,0.8187325915535139,0.8,0.0,0.0,379.0,560.0,0.0,1,3611.0,1
4,4,0.8884181541555197,0.9,1.0,1.0,293.0,859.0,0.0,0,-492.0,0
5,5,0.5682139750349041,0.6,1.0,1.0,451.0,973.0,0.0,0,-1364.0,0
6,6,-0.19012358088197323,-0.2,1.0,0.0,257.0,947.0,1.0,1,-424.0,0
7,7,-0.2851481584917229,-0.3,0.0,1.0,470.0,765.0,1.0,0,-805.0,1
8,8,-0.3504908646326419,-0.4,1.0,0.0,266.0,559.0,1.0,1,-505.0,0
9,9,0.8811161662445212,0.9,1.0,1.0,271.0,832.0,0.0,0,-733.0,0
10,10,0.01054503575470711,0.0,1.0,1.0,359.0,601.0,1.0,1,-170.0,1
11,11,-0.32733434366837555,-0.3,0.0,1.0,396.0,887.0,1.0,0,1807.0,1
12,12,-0.3965392346682457,-0.4,0.0,1.0,366.0,879.0,0.0,1,-1155.0,0
13,13,-0.7403468958471303,-0.7,0.0,1.0,254.0,713.0,0.0,1,3113.0,0
14,14,-0.259065379725654,-0.3,0.0,1.0,375.0,612.0,1.0,0,-737.0,1
15,15,-0.24797737252198349,-0.2,0.0,1.0,391.0,622.0,0.0,1,947.0,0
16,16,0.3893442523882348,0.4,1.0,1.0,444.0,658.0,0.0,0,178.0,0
17,17,-0.5934606425163641,-0.6,1.0,0.0,384.0,745.0,0.0,0,-749.0,1
18,18,0.38150663372557025,0.4,1.0,1.0,275.0,618.0,0.0,0,687.0,0
19,19,-0.49509280217189516,-0.5,1.0,0.0,252.0,576.0,0.0,0,972.0,1
20,20,-0.4679279283130042,-0.5,1.0,0.0,287.0,813.0,1.0,1,2290.0,0
21,21,0.649773378147228,0.6,1.0,1.0,317.0,962.0,1.0,1,-1279.0,1
22,22,0.1035630281138088,0.1,1.0,1.0,295.0,621.0,0.0,0,614.0,0
23,23,0.26939518787502814,0.3,1.0,1.0,485.0,935.0,0.0,0,-890.0,0
24,24,0.6665101494115738,0.7,0.0,0.0,385.0,936.0,1.0,0,979.0,0
25,25,0.48314714487966526,0.5,1.0,1.0,450.0,684.0,0.0,0,3866.0,0
26,26,0.1675564382609379,0.2,0.0,0.0,483.0,797.0,1.0,0,-1020.0,0
27,27,-0.7510781780366577,-0.8,0.0,1.0,316.0,832.0,0.0,1,-1028.0,0
28,28,0.8034081830149914,0.8,1.0,1.0,373.0,981.0,1.0,1,3646.0,1
29,29,0.6156806618225973,0.6,1.0,1.0,355.0,792.0,0.0,0,2023.0,0
30,30,0.2053142883156166,0.2,1.0,1.0,406.0,565.0,0.0,0,-961.0,0
31,31,-0.7616259855739208,-0.8,1.0,0.0,333.0,610.0,1.0,1,-13.0,0
32,32,0.5110197846902892,0.5,0.0,0.0,339.0,799.0,0.0,1,-518.0,1
33,33,0.007178963739964517,0.0,1.0,1.0,363.0,505.0,0.0,0,-438.0,0
34,34,0.3924837648653753,0.4,0.0,0.0,485.0,514.0,0.0,1,1331.0,1
35,35,-0.39875836281827626,-0.4,1.0,0.0,305.0,718.0,0.0,0,-693.0,1
36,36,0.2159557568742284,0.2,1.0,1.0,376.0,554.0,0.0,0,330.0,0
37,37,-0.1624236507996205,-0.2,1.0,0.0,255.0,797.0,0.0,0,1188.0,1
38,38,0.4194670803732451,0.4,0.0,0.0,404.0,737.0,0.0,1,-1041.0,1
39,39,-0.4138362071878596,-0.4,0.0,1.0,352.0,828.0,0.0,1,-1170.0,0
40,40,0.6389062188392066,0.6,1.0,1.0,283.0,545.0,1.0,1,-38.0,1
41,41,0.5829804265505977,0.6,0.0,0.0,450.0,946.0,0.0,1,-36.0,1
42,42,0.5048367139071043,0.5,0.0,0.0,296.0,984.0,0.0,1,-1270.0,1
43,43,-0.2037348085984132,-0.2,1.0,0.0,389.0,837.0,0.0,0,2474.0,1
44,44,0.30784306024561714,0.3,0.0,0.0,384.0,930.0,0.0,1,-1014.0,1
45,45,0.14518299207355734,0.1,0.0,0.0,315.0,856.0,0.0,1,-1071.0,1
46,46,-0.8387070275434857,-0.8,1.0,0.0,297.0,946.0,0.0,0,577.0,1
47,47,-0.3846379879589903,-0.4,1.0,0.0,372.0,548.0,0.0,0,150.0,1
48,48,-0.5297737139354504,-0.5,0.0,1.0,413.0,581.0,0.0,1,-4.0,0
49,49,-0.2853295429992091,-0.3,1.0,0.0,389.0,500.0,0.0,0,4111.0,1
50,50,-0.2282746216529472,-0.2,1.0,0.0,376.0,597.0,0.0,0,-833.0,1
51,51,-0.8606199408475759,-0.9,0.0,1.0,408.0,729.0,1.0,0,-637.0,1
52,52,-0.6424512558311333,-0.6,0.0,1.0,325.0,711.0,0.0,1,-756.0,0
53,53,-0.5293258729453815,-0.5,0.0,1.0,325.0,790.0,0.0,1,-595.0,0
54,54,0.8277270830346076,0.8,0.0,0.0,459.0,757.0,0.0,1,-946.0,1
55,55,0.12395321935250803,0.1,0.0,0.0,362.0,910.0,0.0,1,-472.0,1
56,56,-0.4502710117733153,-0.5,1.0,0.0,331.0,526.0,1.0,1,-317.0,0
57,57,-0.6890127977112077,-0.7,0.0,1.0,317.0,608.0,1.0,0,4075.0,1
58,58,-0.8730589884439053,-0.9,1.0,0.0,425.0,510.0,0.0,0,485.0,1
59,59,0.3232082412153544,0.3,0.0,0.0,314.0,728.0,1.0,0,3958.0,0
60,60,0.5748006078545514,0.6,1.0,1.0,397.0,597.0,0.0,0,-654.0,0
61,61,-0.03276987440870471,-0.0,1.0,0.0,272.0,987.0,0.0,0,-99.0,1
62,62,-0.4556567439698814,-0.5,0.0,1.0,288.0,535.0,1.0,0,227.0,1
63,63,0.12243308225110783,0.1,0.0,0.0,436.0,720.0,0.0,1,-746.0,1
64,64,0.34186755457103735,0.3,1.0,1.0,306.0,772.0,0.0,0,-1078.0,0
65,65,-0.043994025620943567,-0.0,1.0,0.0,381.0,548.0,0.0,0,-869.0,1
66,66,0.46177151482995493,0.5,1.0,1.0,446.0,593.0,1.0,1,-889.0,1
67,67,-0.3030455783295627,-0.3,1.0,0.0,362.0,773.0,0.0,0,-1075.0,1
68,68,-0.10539117457860314,-0.1,1.0,0.0,339.0,618.0,1.0,1,263.0,0
69,69,-0.17304261700450263,-0.2,0.0,1.0,255.0,976.0,0.0,1,-1141.0,0
70,70,0.7396456291858114,0.7,0.0,0.0,314.0,514.0,0.0,1,632.0,1
71,71,-0.21508433277050076,-0.2,0.0,1.0,498.0,879.0,0.0,1,-447.0,0
72,72,0.2731648147913467,0.3,0.0,0.0,439.0,941.0,0.0,1,-1310.0,1
73,73,0.29344414000340346,0.3,0.0,0.0,268.0,724.0,0.0,1,-272.0,1
74,74,0.404106355508857,0.4,1.0,1.0,441.0,787.0,1.0,1,1022.0,1
75,75,0.7329107791532169,0.7,0.0,0.0,383.0,595.0,0.0,1,3882.0,1
76,76,-0.8120157816581202,-0.8,1.0,0.0,433.0,598.0,0.0,0,549.0,1
77,77,0.30113140412760153,0.3,1.0,1.0,333.0,513.0,0.0,0,694.0,0
78,78,-0.33225559938523785,-0.3,1.0,0.0,283.0,622.0,1.0,1,-255.0,0
79,79,0.20683741107700426,0.2,0.0,0.0,268.0,754.0,0.0,1,-472.0,1
80,80,0.05070139184566558,0.1,1.0,1.0,285.0,742.0,1.0,1,-967.0,1
81,81,0.21038816357522416,0.2,0.0,0.0,347.0,928.0,0.0,1,-1035.0,1
82,82,-0.4000913503283297,-0.4,1.0,0.0,355.0,527.0,0.0,0,408.0,1
83,83,0.5838889997327213,0.6,1.0,1.0,251.0,851.0,0.0,0,-652.0,0
84,84,0.3716057660188169,0.4,0.0,0.0,362.0,573.0,0.0,1,-195.0,1
85,85,-0.28416287316065403,-0.3,0.0,1.0,490.0,796.0,0.0,1,-1266.0,0
86,86,-0.6914472661012465,-0.7,1.0,0.0,313.0,759.0,0.0,0,-812.0,1
87,87,0.5188923821375134,0.5,1.0,1.0,368.0,783.0,0.0,0,-21.0,0
88,88,0.3724132965195909,0.4,0.0,0.0,465.0,513.0,0.0,1,-398.0,1
89,89,-0.4775026956002893,-0.5,1.0,0.0,302.0,763.0,0.0,0,915.0,1
90,90,0.8481496451089029,0.8,1.0,1.0,484.0,874.0,0.0,0,-1338.0,0
91,91,-0.7283946298761476,-0.7,0.0,1.0,421.0,687.0,0.0,1,-548.0,0
92,92,-0.607542636661806,-0.6,0.0,1.0,496.0,709.0,1.0,0,-895.0,1
93,93,-0.590991721194142,-0.6,0.0,1.0,395.0,738.0,0.0,1,-203.0,0
94,94,0.8218554328948621,0.8,0.0,0.0,410.0,739.0,0.0,1,81.0,1
95,95,0.06144768027419889,0.1,1.0,1.0,487.0,725.0,0.0,0,-922.0,0
96,96,-0.05372453463273097,-0.1,1.0,0.0,405.0,985.0,0.0,0,3130.0,1
97,97,-0.7097743467582325,-0.7,1.0,0.0,404.0,660.0,0.0,0,-664.0,1
98,98,0.21307832326788423,0.2,0.0,0.0,328.0,521.0,0.0,1,-199.0,1
99,99,-0.8220752734306784,-0.8,0.0,1.0,321.0,878.0,0.0,1,-1199.0,0
100,100,-0.5536480897177645,-0.6,1.0,0.0,336.0,950.0,0.0,0,-536.0,1
101,101,-0.8190483507427221,-0.8,1.0,0.0,389.0,919.0,1.0,1,-858.0,0
102,102,0.18387692394248834,0.2,1.0,1.0,432.0,850.0,1.0,1,-1272.0,1
103,103,-0.3513583900631423,-0.4,0.0,1.0,356.0,912.0,1.0,0,-278.0,1
104,104,0.20376944906581584,0.2,0.0,0.0,329.0,814.0,0.0,1,777.0,1
105,105,0.08052126515737679,0.1,0.0,0.0,344.0,515.0,0.0,1,851.0,1
106,106,-0.32140159780174715,-0.3,0.0,1.0,443.0,623.0,0.0,1,3934.0,0
107,107,0.11451168927186528,0.1,1.0,1.0,332.0,533.0,0.0,0,-755.0,0
108,108,-0.31952847992662003,-0.3,1.0,0.0,325.0,712.0,0.0,0,-757.0,1
109,109,0.2628986158439234,0.3,1.0,1.0,364.0,741.0,1.0,1,-785.0,1
110,110,-0.4656547536506671,-0.5,1.0,0.0,434.0,732.0,0.0,0,-606.0,1
111,111,-0.22153934710860235,-0.2,0.0,1.0,402.0,963.0,0.0,1,1325.0,0
112,112,-0.5966223972706387,-0.6,0.0,1.0,394.0,958.0,1.0,0,-92.0,1
113,113,-0.17208532184372272,-0.2,0.0,1.0,290.0,853.0,1.0,0,-283.0,1
114,114,-0.43496224908341913,-0.4,1.0,0.0,494.0,822.0,1.0,1,-476.0,0
115,115,0.5783449359547957,0.6,1.0,1.0,330.0,943.0,0.0,0,-63.0,0
116,116,-0.858774495671272,-0.9,0.0,1.0,411.0,970.0,1.0,0,-881.0,1
117,117,-0.4922090355490057,-0.5,0.0,1.0,350.0,983.0,0.0,1,407.0,0
118,118,0.11121044017747794,0.1,1.0,1.0,431.0,691.0,0.0,0,-1022.0,0
119,119,-0.0561224469959013,-0.1,0.0,1.0,273.0,781.0,1.0,0,3596.0,1
120,120,-0.1842722126679055,-0.2,1.0,0.0,459.0,538.0,0.0,0,-607.0,1
121,121,0.6027701544525855,0.6,1.0,1.0,361.0,594.0,0.0,0,-665.0,0
122,122,-0.6402117727795604,-0.6,0.0,1.0,464.0,908.0,0.0,1,1988.0,0
123,123,0.5340562749501904,0.5,0.0,0.0,395.0,547.0,0.0,1,-842.0,1
124,124,0.31564282545235833,0.3,0.0,0.0,445.0,986.0,0.0,1,-971.0,1
125,125,0.523193709301938,0.5,0.0,0.0,381.0,666.0,0.0,1,2863.0,1
126,126,0.7601658963373773,0.8,1.0,1.0,384.0,994.0,1.0,1,-1368.0,1
127,127,-0.19192577898740248,-0.2,0.0,1.0,266.0,905.0,1.0,0,-781.0,1
128,128,0.186414897540918,0.2,0.0,0.0,453.0,601.0,1.0,0,-564.0,0
129,129,0.30202296210534507,0.3,0.0,0.0,254.0,671.0,1.0,0,-135.0,0
130,130,-0.8386746561335482,-0.8,0.0,1.0,317.0,611.0,1.0,0,2762.0,1
131,131,-0.7314144813348551,-0.7,0.0,1.0,294.0,654.0,0.0,1,1692.0,0
132,132,0.7015871181379144,0.7,1.0,1.0,324.0,579.0,1.0,1,-213.0,1
133,133,-0.7877120881362593,-0.8,1.0,0.0,251.0,633.0,0.0,0,-154.0,1
134,134,0.6689487985302377,0.7,1.0,1.0,307.0,587.0,0.0,0,586.0,0
135,135,0.6303753906519632,0.6,0.0,0.0,273.0,616.0,0.0,1,251.0,1
136,136,-0.8635270705007587,-0.9,1.0,0.0,252.0,638.0,0.0,0,1030.0,1
137,137,0.22006343019952623,0.2,0.0,0.0,292.0,906.0,0.0,1,42.0,1
138,138,0.4983699798780784,0.5,0.0,0.0,322.0,759.0,1.0,0,-731.0,0
139,139,-0.2230564092128663,-0.2,0.0,1.0,392.0,870.0,0.0,1,-1202.0,0
140,140,-0.48333970602226023,-0.5,0.0,1.0,484.0,709.0,0.0,1,-673.0,0
141,141,-0.818829846255688,-0.8,0.0,1.0,320.0,675.0,1.0,0,2615.0,1
142,142,0.65901450721209,0.7,0.0,0.0,337.0,593.0,0.0,1,3780.0,1
143,143,0.7464988054300644,0.7,0.0,0.0,287.0,821.0,1.0,0,3892.0,0
144,144,0.047013972361296674,0.0,0.0,0.0,497.0,760.0,1.0,0,-367.0,0
145,145,-0.24212716716420435,-0.2,1.0,0.0,347.0,862.0,0.0,0,-929.0,1
146,146,-0.07213729285856396,-0.1,1.0,0.0,322.0,809.0,1.0,1,-851.0,0
147,147,-0.6824325294513481,-0.7,0.0,1.0,354.0,997.0,1.0,0,-211.0,1
148,148,0.26542168204607786,0.3,1.0,1.0,469.0,612.0,0.0,0,529.0,0
149,149,-0.02135865334571241,-0.0,0.0,1.0,339.0,694.0,1.0,0,-103.0,1
150,150,-0.15247808547340347,-0.2,0.0,1.0,376.0,951.0,1.0,0,753.0,1
151,151,-0.2728809451790376,-0.3,0.0,1.0,445.0,501.0,1.0,0,1244.0,1
152,152,-0.850837671130844,-0.9,0.0,1.0,383.0,715.0,1.0,0,502.0,1
153,153,0.631748882419069,0.6,0.0,0.0,499.0,987.0,0.0,1,-966.0,1
154,154,-0.27421556679974624,-0.3,0.0,1.0,367.0,651.0,1.0,0,-788.0,1
155,155,-0.15309855954528973,-0.2,0.0,1.0,303.0,924.0,0.0,1,1853.0,0
156,156,-0.14969454422511186,-0.1,0.0,1.0,381.0,700.0,0.0,1,3059.0,0
157,157,0.16765969833512828,0.2,0.0,0.0,481.0,812.0,0.0,1,1227.0,1
158,158,0.27492172985832497,0.3,1.0,1.0,474.0,793.0,0.0,0,1453.0,0
159,159,0.3726084661453887,0.4,0.0,0.0,393.0,771.0,0.0,1,-834.0,1
160,160,-0.028996845979371244,-0.0,0.0,1.0,471.0,623.0,0.0,1,-1094.0,0
161,161,-0.6423805199772639,-0.6,1.0,0.0,273.0,895.0,0.0,0,-818.0,1
162,162,-0.3435931302077295,-0.3,1.0,0.0,488.0,795.0,0.0,0,1287.0,1
163,163,0.35194056427069575,0.4,1.0,1.0,377.0,886.0,0.0,0,-843.0,0
164,164,-0.5453209994253434,-0.5,1.0,0.0,388.0,659.0,0.0,0,-697.0,1
165,165,-0.3922217097790913,-0.4,0.0,1.0,430.0,615.0,1.0,0,-735.0,1
166,166,0.3258585051186199,0.3,0.0,0.0,334.0,877.0,1.0,0,-971.0,0
167,167,0.42459183791939237,0.4,1.0,1.0,265.0,967.0,0.0,0,-832.0,0
168,168,0.7369089219817923,0.7,0.0,0.0,497.0,711.0,0.0,1,-1128.0,1
169,169,0.49361201918588604,0.5,0.0,0.0,389.0,901.0,0.0,1,-1200.0,1
170,170,-0.6350719726457279,-0.6,1.0,0.0,364.0,677.0,0.0,0,-101.0,1
171,171,0.6030749923303446,0.6,0.0,0.0,466.0,692.0,0.0,1,-258.0,1
172,172,-0.7898611433062643,-0.8,0.0,1.0,316.0,853.0,0.0,1,301.0,0
173,173,-0.4825971203019735,-0.5,1.0,0.0,361.0,914.0,0.0,0,695.0,1
174,174,-0.035619361499185875,-0.0,1.0,0.0,444.0,944.0,0.0,0,-868.0,1
175,175,-0.29983122583453226,-0.3,0.0,1.0,304.0,943.0,1.0,0,2513.0,1
176,176,-0.693631153789733,-0.7,0.0,1.0,318.0,958.0,1.0,0,-256.0,1
177,177,-0.05855246613743614,-0.1,1.0,0.0,260.0,630.0,0.0,0,-820.0,1
178,178,-0.019875345703983527,-0.0,0.0,1.0,393.0,885.0,0.0,1,82.0,0
179,179,0.8111538802445614,0.8,0.0,0.0,459.0,671.0,0.0,1,2390.0,1
180,180,-0.17372096435216833,-0.2,1.0,0.0,399.0,838.0,0.0,0,-707.0,1
181,181,-0.2722819126642162,-0.3,0.0,1.0,265.0,698.0,0.0,1,-53.0,0
182,182,0.8587117682183688,0.9,1.0,1.0,448.0,549.0,0.0,0,473.0,0
183,183,0.20611849112226943,0.2,1.0,1.0,481.0,758.0,1.0,1,-539.0,1
184,184,-0.8005704064658988,-0.8,1.0,0.0,389.0,554.0,0.0,0,-873.0,1
185,185,-0.4645321263900849,-0.5,1.0,0.0,483.0,537.0,0.0,0,1340.0,1
186,186,-0.21318967534339872,-0.2,1.0,0.0,413.0,699.0,0.0,0,-772.0,1
187,187,0.0495677544347517,0.0,0.0,0.0,286.0,829.0,0.0,1,-545.0,1
188,188,-0.7571841817040429,-0.8,1.0,0.0,470.0,758.0,0.0,0,-148.0,1
189,189,0.8234461319626641,0.8,1.0,1.0,452.0,989.0,1.0,1,2409.0,1
190,190,-0.1628699328584965,-0.2,1.0,0.0,482.0,890.0,0.0,0,2598.0,1
191,191,0.5752987481489732,0.6,0.0,0.0,461.0,553.0,0.0,1,3986.0,1
192,192,0.031987044815842136,0.0,0.0,0.0,326.0,932.0,0.0,1,-518.0,1
193,193,0.6207320261825998,0.6,0.0,0.0,410.0,878.0,1.0,0,-588.0,0
194,194,0.7114363095845938,0.7,1.0,1.0,282.0,996.0,1.0,1,1842.0,1
195,195,0.03761162859163092,0.0,0.0,0.0,334.0,500.0,0.0,1,3496.0,1
196,196,0.1774296444713651,0.2,1.0,1.0,285.0,706.0,1.0,1,-501.0,1
197,197,0.5136406384539084,0.5,0.0,0.0,448.0,705.0,0.0,1,-1083.0,1
198,198,-0.8330800937227733,-0.8,1.0,0.0,343.0,515.0,0.0,0,-478.0,1
199,199,0.294001352329725,0.3,1.0,1.0,392.0,701.0,0.0,0,-1093.0,0
200,200,0.7400295130760807,0.7,1.0,1.0,327.0,905.0,0.0,0,8.0,0
201,201,-0.12715070098258985,-0.1,1.0,0.0,419.0,585.0,0.0,0,456.0,1
202,202,0.4182836151781074,0.4,1.0,1.0,285.0,740.0,1.0,1,-795.0,1
203,203,0.4632401528358213,0.5,0.0,0.0,340.0,571.0,0.0,1,1049.0,1
204,204,0.05513641581314743,0.1,1.0,1.0,274.0,505.0,0.0,0,1491.0,0
205,205,0.4155068560812639,0.4,1.0,1.0,441.0,529.0,0.0,0,-420.0,0
206,206,0.789369389402684,0.8,0.0,0.0,427.0,603.0,0.0,1,-800.0,1
207,207,-0.41308696589507093,-0.4,1.0,0.0,342.0,776.0,0.0,0,52.0,1
208,208,0.024241927436534527,0.0,0.0,0.0,353.0,978.0,1.0,0,-651.0,0
209,209,-0.3573247033780108,-0.4,0.0,1.0,254.0,696.0,1.0,0,800.0,1
210,210,-0.27827566552893745,-0.3,1.0,0.0,331.0,994.0,1.0,1,-455.0,0
211,211,0.07445019791119856,0.1,0.0,0.0,464.0,663.0,0.0,1,453.0,1
212,212,-0.7238491028767298,-0.7,1.0,0.0,335.0,766.0,1.0,1,-691.0,0
213,213,0.18662029919648526,0.2,0.0,0.0,466.0,937.0,0.0,1,-1343.0,1
214,214,0.7520946002611791,0.8,0.0,0.0,408.0,817.0,0.0,1,2865.0,1
215,215,-0.502006809871899,-0.5,1.0,0.0,350.0,598.0,0.0,0,-938.0,1
216,216,0.1688344530087379,0.2,0.0,0.0,338.0,527.0,0.0,1,2545.0,1
217,217,-0.639385825531356,-0.6,1.0,0.0,256.0,998.0,0.0,0,-114.0,1
218,218,0.19304202113118618,0.2,1.0,1.0,454.0,743.0,0.0,0,803.0,0
219,219,-0.7380088060562523,-0.7,1.0,0.0,490.0,599.0,1.0,1,-539.0,0
220,220,0.5705017000144238,0.6,1.0,1.0,323.0,625.0,1.0,1,-308.0,1
221,221,-0.6028262670613691,-0.6,1.0,0.0,286.0,632.0,1.0,1,-498.0,0
222,222,0.5188156037906816,0.5,0.0,0.0,463.0,576.0,0.0,1,261.0,1
223,223,0.1561160847310915,0.2,1.0,1.0,306.0,627.0,1.0,1,-543.0,1
224,224,-0.717667348165013,-0.7,1.0,0.0,356.0,712.0,0.0,0,-518.0,1
225,225,-0.25960990307384524,-0.3,0.0,1.0,252.0,633.0,1.0,0,-865.0,1
226,226,-0.023929127913216885,-0.0,1.0,0.0,367.0,876.0,0.0,0,-1163.0,1
227,227,0.11220537743901515,0.1,0.0,0.0,383.0,691.0,1.0,0,-564.0,0
228,228,-0.0885637615805217,-0.1,1.0,0.0,381.0,778.0,1.0,1,-1089.0,0
229,229,-0.7388806604580734,-0.7,1.0,0.0,314.0,850.0,0.0,0,-1134.0,1
230,230,-0.11736763608245226,-0.1,0.0,1.0,469.0,760.0,0.0,1,-859.0,0
231,231,0.366141614905381,0.4,1.0,1.0,419.0,831.0,0.0,0,280.0,0
232,232,0.29662585545941933,0.3,0.0,0.0,262.0,588.0,0.0,1,300.0,1
233,233,0.14556762823010871,0.1,1.0,1.0,254.0,624.0,1.0,1,812.0,1
234,234,0.43746296063210977,0.4,1.0,1.0,354.0,577.0,1.0,1,379.0,1
235,235,-0.3444325816623841,-0.3,0.0,1.0,450.0,615.0,0.0,1,-705.0,0
236,236,0.8755335963299525,0.9,1.0,1.0,471.0,869.0,0.0,0,-1330.0,0
237,237,-0.6982364612572222,-0.7,0.0,1.0,392.0,735.0,0.0,1,-747.0,0
238,238,0.1042902029807663,0.1,0.0,0.0,329.0,547.0,0.0,1,-706.0,1
239,239,-0.4195038340010073,-0.4,0.0,1.0,315.0,825.0,0.0,1,1240.0,0
240,240,0.7787378241594428,0.8,1.0,1.0,302.0,888.0,0.0,0,-1100.0,0
241,241,-0.43341992073336344,-0.4,1.0,0.0,475.0,897.0,1.0,1,-212.0,0
242,242,0.8307264937851101,0.8,0.0,0.0,484.0,760.0,0.0,1,-1114.0,1
243,243,0.7012446045112005,0.7,1.0,1.0,367.0,626.0,1.0,1,-513.0,1
244,244,-0.36143332133051187,-0.4,1.0,0.0,300.0,748.0,0.0,0,92.0,1
245,245,0.42554933790747873,0.4,1.0,1.0,409.0,845.0,1.0,1,-1254.0,1
246,246,-0.7225084714559056,-0.7,0.0,1.0,393.0,513.0,1.0,0,-76.0,1
247,247,-0.20322874681969694,-0.2,0.0,1.0,422.0,821.0,0.0,1,-1153.0,0
248,248,0.6345523321241612,0.6,0.0,0.0,278.0,542.0,0.0,1,4180.0,1
249,249,0.5171468992998257,0.5,0.0,0.0,478.0,549.0,0.0,1,3383.0,1
250,250,-0.14497786755321618,-0.1,1.0,0.0,498.0,590.0,0.0,0,-1008.0,1
251,251,0.07800829064512338,0.1,1.0,1.0,484.0,926.0,0.0,0,-980.0,0
252,252,-0.7748591495208724,-0.8,0.0,1.0,250.0,961.0,0.0,1,-261.0,0
253,253,-0.38113996453558807,-0.4,1.0,0.0,292.0,929.0,1.0,1,909.0,0
254,254,0.06561911535046439,0.1,0.0,0.0,313.0,538.0,0.0,1,-331.0,1
255,255,0.37235582046120974,0.4,1.0,1.0,254.0,832.0,1.0,1,-656.0,1
256,256,0.06283912291357807,0.1,0.0,0.0,376.0,947.0,1.0,0,3677.0,0
257,257,-0.15240337427874218,-0.2,0.0,1.0,337.0,639.0,0.0,1,814.0,0
258,258,0.09888527252483026,0.1,1.0,1.0,410.0,584.0,1.0,1,-894.0,1
259,259,0.47888417858502363,0.5,1.0,1.0,273.0,912.0,0.0,0,-435.0,0
260,260,0.21439460993687842,0.2,0.0,0.0,318.0,555.0,0.0,1,-643.0,1
261,261,-0.42399199482425026,-0.4,1.0,0.0,277.0,714.0,0.0,0,9.0,1
262,262,0.6185461011782071,0.6,1.0,1.0,259.0,870.0,0.0,0,1301.0,0
263,263,-0.722978467045612,-0.7,1.0,0.0,269.0,524.0,1.0,1,1787.0,0
264,264,0.262926737786234,0.3,0.0,0.0,486.0,616.0,0.0,1,-1082.0,1
265,265,0.10859680970468377,0.1,0.0,0.0,258.0,884.0,1.0,0,-602.0,0
266,266,0.1383770992408252,0.1,0.0,0.0,268.0,597.0,1.0,0,-445.0,0
267,267,-0.3525521261313572,-0.4,1.0,0.0,345.0,577.0,0.0,0,-742.0,1
268,268,-0.14765122722056723,-0.1,0.0,1.0,419.0,911.0,0.0,1,-1240.0,0
269,269,0.3342981134053463,0.3,0.0,0.0,339.0,758.0,0.0,1,-1027.0,1
270,270,0.6993241379702219,0.7,0.0,0.0,365.0,785.0,0.0,1,-480.0,1
271,271,-0.13915986309396833,-0.1,1.0,0.0,379.0,630.0,0.0,0,-739.0,1
272,272,-0.8062370772845464,-0.8,0.0,1.0,375.0,849.0,0.0,1,336.0,0
273,273,-0.7677391559027208,-0.8,1.0,0.0,412.0,782.0,1.0,1,486.0,0
274,274,0.06964960997634484,0.1,0.0,0.0,413.0,955.0,0.0,1,-408.0,1
275,275,-0.5563716596945159,-0.6,0.0,1.0,499.0,662.0,0.0,1,-691.0,0
276,276,0.7247957500418208,0.7,1.0,1.0,353.0,706.0,0.0,0,-979.0,0
277,277,0.02317243568445082,0.0,0.0,0.0,301.0,585.0,0.0,1,914.0,1
278,278,0.037055951743042104,0.0,1.0,1.0,380.0,860.0,0.0,0,2050.0,0
279,279,0.29825918041198063,0.3,1.0,1.0,326.0,756.0,1.0,1,818.0,1
280,280,-0.004784922393686553,-0.0,0.0,1.0,335.0,565.0,0.0,1,70.0,0
281,281,0.26603021223837653,0.3,0.0,0.0,426.0,797.0,0.0,1,-1123.0,1
282,282,0.36268238339854697,0.4,1.0,1.0,423.0,882.0,0.0,0,-995.0,0
283,283,-0.7829465734313236,-0.8,0.0,1.0,287.0,760.0,0.0,1,1573.0,0
284,284,-0.5038048138084794,-0.5,0.0,1.0,312.0,523.0,0.0,1,1485.0,0
285,285,0.102116286426431,0.1,1.0,1.0,269.0,903.0,0.0,0,788.0,0
286,286,0.3629740184879321,0.4,0.0,0.0,310.0,714.0,0.0,1,86.0,1
287,287,-0.7964949027488637,-0.8,1.0,0.0,342.0,719.0,0.0,0,-971.0,1
288,288,-0.8573488129596626,-0.9,1.0,0.0,349.0,780.0,0.0,0,-469.0,1
289,289,0.32530022923718216,0.3,0.0,0.0,295.0,504.0,0.0,1,-799.0,1
290,290,0.4478674014304985,0.4,1.0,1.0,388.0,950.0,0.0,0,-458.0,0
291,291,-0.8249092260950968,-0.8,1.0,0.0,369.0,504.0,1.0,1,-373.0,0
292,292,-0.2123391284806877,-0.2,0.0,1.0,352.0,659.0,0.0,1,-271.0,0
293,293,0.6504556238434459,0.7,0.0,0.0,429.0,922.0,0.0,1,1289.0,1
294,294,-0.2524449071964968,-0.3,0.0,1.0,469.0,888.0,0.0,1,-887.0,0
295,295,0.792808623990182,0.8,0.0,0.0,350.0,671.0,0.0,1,-541.0,1
296,296,-0.41078301411911977,-0.4,1.0,0.0,334.0,658.0,1.0,1,-182.0,0
297,297,-0.7538082642483763,-0.8,0.0,1.0,270.0,788.0,0.0,1,-1038.0,0
298,298,0.7105216827900463,0.7,1.0,1.0,266.0,688.0,1.0,1,-644.0,1
299,299,0.6632362857060036,0.7,1.0,1.0,451.0,579.0,0.0,0,-850.0,0
300,300,0.7026650085997491,0.7,1.0,1.0,388.0,647.0,1.0,1,-495.0,1
301,301,0.15199470608784516,0.2,1.0,1.0,483.0,967.0,1.0,1,-580.0,1
302,302,0.4410606011424377,0.4,1.0,1.0,354.0,606.0,0.0,0,980.0,0
303,303,-0.04703143522836273,-0.0,1.0,0.0,441.0,838.0,0.0,0,-389.0,1
304,304,-0.6666758518132685,-0.7,1.0,0.0,373.0,923.0,0.0,0,-1256.0,1
305,305,0.09681645556613339,0.1,0.0,0.0,333.0,615.0,0.0,1,1142.0,1
306,306,0.7013066516697809,0.7,1.0,1.0,325.0,676.0,0.0,0,2429.0,0
307,307,0.7706137560821319,0.8,1.0,1.0,405.0,612.0,0.0,0,223.0,0
308,308,0.6627285987627006,0.7,1.0,1.0,387.0,504.0,0.0,0,879.0,0
309,309,-0.7221718790453349,-0.7,0.0,1.0,381.0,952.0,0.0,1,-1023.0,0
310,310,0.6035495103261398,0.6,1.0,1.0,378.0,653.0,0.0,0,-1021.0,0
311,311,0.40190813972142003,0.4,1.0,1.0,361.0,760.0,0.0,0,-341.0,0
312,312,0.606152063517371,0.6,1.0,1.0,262.0,835.0,0.0,0,-787.0,0
313,313,0.6806841377641698,0.7,0.0,0.0,333.0,873.0,0.0,1,1064.0,1
314,314,-0.6247889226643943,-0.6,1.0,0.0,313.0,667.0,1.0,1,-790.0,0
315,315,0.11425516163255744,0.1,0.0,0.0,359.0,709.0,0.0,1,-1018.0,1
316,316,-0.5312500720726419,-0.5,1.0,0.0,405.0,916.0,1.0,1,979.0,0
317,317,0.49128515338031364,0.5,1.0,1.0,408.0,691.0,1.0,1,1521.0,1
318,318,-0.7258083414922464,-0.7,1.0,0.0,492.0,648.0,1.0,1,-990.0,0
319,319,0.1609726036768372,0.2,0.0,0.0,313.0,983.0,1.0,0,-1256.0,0
320,320,0.2539933285451442,0.3,0.0,0.0,440.0,621.0,1.0,0,3939.0,0
321,321,0.08980109155768845,0.1,1.0,1.0,290.0,748.0,1.0,1,-518.0,1
322,322,0.24613370701059833,0.2,0.0,0.0,281.0,789.0,1.0,0,210.0,0
323,323,-0.565975350690129,-0.6,0.0,1.0,333.0,695.0,1.0,0,3552.0,1
324,324,-0.38556990285254966,-0.4,1.0,0.0,479.0,551.0,0.0,0,-990.0,1
325,325,0.35577275157638877,0.4,0.0,0.0,321.0,883.0,0.0,1,-444.0,1
326,326,-0.8047868994776249,-0.8,1.0,0.0,318.0,592.0,1.0,1,-580.0,0
327,327,-0.23459022314531752,-0.2,0.0,1.0,280.0,962.0,0.0,1,-1232.0,0
328,328,-0.8495805731652359,-0.8,1.0,0.0,389.0,553.0,0.0,0,1468.0,1
329,329,0.784780762402581,0.8,0.0,0.0,315.0,758.0,0.0,1,-1053.0,1
330,330,0.4463221611674538,0.4,0.0,0.0,272.0,894.0,0.0,1,2954.0,1
331,331,-0.6434329980108378,-0.6,1.0,0.0,360.0,956.0,0.0,0,-1146.0,1
332,332,-0.8919741656043886,-0.9,0.0,1.0,428.0,643.0,0.0,1,1239.0,0
333,333,0.06944449689885102,0.1,0.0,0.0,318.0,645.0,0.0,1,-843.0,1
334,334,0.43519596731134047,0.4,1.0,1.0,333.0,924.0,0.0,0,93.0,0
335,335,-0.7828689857981248,-0.8,1.0,0.0,471.0,751.0,0.0,0,2018.0,1
336,336,0.29434041620243023,0.3,0.0,0.0,355.0,864.0,1.0,0,-809.0,0
337,337,-0.653312393020312,-0.7,1.0,0.0,427.0,951.0,0.0,0,-198.0,1
338,338,-0.44815271958589337,-0.4,1.0,0.0,456.0,631.0,0.0,0,643.0,1
339,339,-0.17426231500949485,-0.2,1.0,0.0,423.0,791.0,1.0,1,-524.0,0
340,340,-0.19713312375151149,-0.2,0.0,1.0,437.0,906.0,0.0,1,-463.0,0
341,341,-0.5111846271873131,-0.5,1.0,0.0,484.0,501.0,1.0,1,-945.0,0
342,342,-0.2240003551366473,-0.2,0.0,1.0,438.0,927.0,0.0,1,-1035.0,0
343,343,-0.13838212998785038,-0.1,1.0,0.0,424.0,543.0,1.0,1,433.0,0
344,344,-0.1434295202669127,-0.1,0.0,1.0,430.0,866.0,0.0,1,-1286.0,0
345,345,0.8411060109838945,0.8,1.0,1.0,350.0,864.0,0.0,0,-1114.0,0
346,346,0.011875408666929599,0.0,0.0,0.0,420.0,785.0,1.0,0,1285.0,0
347,347,0.7718198132524478,0.8,1.0,1.0,478.0,895.0,0.0,0,-1293.0,0
348,348,0.7327842926745413,0.7,0.0,0.0,307.0,743.0,1.0,0,690.0,0
349,349,-0.7015875277536378,-0.7,1.0,0.0,479.0,707.0,0.0,0,-1026.0,1
350,350,-0.6467478632787038,-0.6,1.0,0.0,336.0,682.0,1.0,1,-688.0,0
351,351,-0.2360298934622561,-0.2,0.0,1.0,282.0,820.0,1.0,0,-1092.0,1
352,352,-0.6273210919874332,-0.6,1.0,0.0,407.0,663.0,0.0,0,-1040.0,1
353,353,0.02525597694968118,0.0,0.0,0.0,392.0,868.0,0.0,1,-1230.0,1
354,354,0.8110791620122607,0.8,1.0,1.0,406.0,508.0,0.0,0,1106.0,0
355,355,-0.00858502781675563,-0.0,0.0,1.0,349.0,903.0,0.0,1,1298.0,0
356,356,-0.3291329602883699,-0.3,1.0,0.0,273.0,826.0,0.0,0,-1059.0,1
357,357,-0.3080842982661124,-0.3,0.0,1.0,491.0,652.0,0.0,1,-923.0,0
358,358,-0.6428131823333967,-0.6,1.0,0.0,399.0,894.0,0.0,0,-1273.0,1
359,359,-0.7413623088858664,-0.7,0.0,1.0,434.0,736.0,0.0,1,1090.0,0
360,360,0.1646269598296014,0.2,0.0,0.0,366.0,674.0,0.0,1,-590.0,1
361,361,-0.589758909998525,-0.6,0.0,1.0,492.0,673.0,1.0,0,45.0,1
362,362,-0.6978107080915366,-0.7,1.0,0.0,470.0,646.0,0.0,0,744.0,1
363,363,-0.7449015097014344,-0.7,1.0,0.0,491.0,714.0,1.0,1,-1205.0,0
364,364,0.6405944208698408,0.6,0.0,0.0,371.0,997.0,0.0,1,-1308.0,1
365,365,0.6619771732767038,0.7,1.0,1.0,328.0,960.0,1.0,1,-568.0,1
366,366,-0.18173976022277905,-0.2,0.0,1.0,349.0,551.0,0.0,1,-130.0,0
367,367,0.5721000226526626,0.6,1.0,1.0,391.0,912.0,0.0,0,-23.0,0
368,368,-0.44171681059560813,-0.4,0.0,1.0,366.0,919.0,0.0,1,-1155.0,0
369,369,-0.6907906252013453,-0.7,0.0,1.0,298.0,583.0,0.0,1,-11.0,0
370,370,0.22497004143595423,0.2,0.0,0.0,275.0,994.0,0.0,1,-109.0,1
371,371,-0.5312047549827575,-0.5,1.0,0.0,295.0,540.0,0.0,0,25.0,1
372,372,-0.09800214959637543,-0.1,1.0,0.0,279.0,696.0,0.0,0,1865.0,1
373,373,0.009615596806002658,0.0,0.0,0.0,327.0,961.0,1.0,0,-758.0,0
374,374,-0.26873407690319295,-0.3,0.0,1.0,313.0,621.0,1.0,0,-564.0,1
375,375,0.8298930788542506,0.8,0.0,0.0,376.0,526.0,1.0,0,638.0,0
376,376,-0.8386748450259871,-0.8,1.0,0.0,413.0,676.0,0.0,0,2501.0,1
377,377,-0.8284037718843302,-0.8,0.0,1.0,421.0,925.0,1.0,0,-1336.0,1
378,378,-0.7038715075921768,-0.7,0.0,1.0,339.0,616.0,1.0,0,3345.0,1
379,379,-0.6075710234328453,-0.6,1.0,0.0,262.0,568.0,0.0,0,-800.0,1
380,380,-0.3013734788951129,-0.3,1.0,0.0,306.0,961.0,0.0,0,-557.0,1
381,381,-0.30139395657154766,-0.3,0.0,1.0,284.0,718.0,1.0,0,3418.0,1
382,382,-0.4281823035678522,-0.4,0.0,1.0,478.0,866.0,0.0,1,-1244.0,0
383,383,0.688104754252569,0.7,1.0,1.0,327.0,517.0,0.0,0,1426.0,0
384,384,0.7756508629939959,0.8,1.0,1.0,312.0,958.0,1.0,1,110.0,1
385,385,0.6432101621074807,0.6,0.0,0.0,368.0,895.0,0.0,1,1927.0,1
386,386,-0.5813058861193832,-0.6,1.0,0.0,255.0,858.0,0.0,0,-1033.0,1
387,387,-0.42942505442107354,-0.4,1.0,0.0,306.0,822.0,0.0,0,-988.0,1
388,388,-0.6748624563082127,-0.7,0.0,1.0,357.0,795.0,1.0,0,-1142.0,1
389,389,-0.5093708442241369,-0.5,1.0,0.0,326.0,692.0,0.0,0,-1018.0,1
390,390,0.7929074017864784,0.8,0.0,0.0,276.0,963.0,1.0,0,961.0,0
391,391,-0.4566606800209516,-0.5,1.0,0.0,290.0,795.0,0.0,0,1685.0,1
392,392,-0.654184147579433,-0.7,0.0,1.0,442.0,704.0,1.0,0,-1026.0,1
393,393,-0.398423172639379,-0.4,1.0,0.0,344.0,701.0,1.0,1,-115.0,0
394,394,0.4470519270762817,0.4,0.0,0.0,319.0,794.0,1.0,0,3887.0,0
395,395,-0.8244020092653525,-0.8,0.0,1.0,470.0,762.0,1.0,0,1868.0,1
396,396,-0.3033398666955981,-0.3,0.0,1.0,441.0,916.0,1.0,0,-307.0,1
397,397,-0.2810895014364767,-0.3,0.0,1.0,462.0,969.0,0.0,1,-651.0,0
398,398,0.8116734455152382,0.8,1.0,1.0,435.0,528.0,0.0,0,-923.0,0
399,399,-0.4509534315916015,-0.5,1.0,0.0,376.0,849.0,1.0,1,-925.0,0
400,400,0.14852955430139947,0.1,0.0,0.0,387.0,695.0,0.0,1,-232.0,1
401,401,0.1332608154917484,0.1,1.0,1.0,275.0,525.0,0.0,0,-400.0,0
402,402,0.6005892544792976,0.6,0.0,0.0,403.0,961.0,0.0,1,-804.0,1
403,403,-0.8383330523598616,-0.8,0.0,1.0,318.0,969.0,0.0,1,-517.0,0
404,404,0.6196883806303247,0.6,1.0,1.0,346.0,985.0,0.0,0,-681.0,0
405,405,0.068001653161889,0.1,0.0,0.0,287.0,549.0,0.0,1,84.0,1
406,406,0.3868952614825393,0.4,1.0,1.0,351.0,562.0,0.0,0,-783.0,0
407,407,0.8891769920967075,0.9,0.0,0.0,291.0,633.0,0.0,1,-274.0,1
408,408,0.6938939962746268,0.7,1.0,1.0,296.0,602.0,1.0,1,782.0,1
409,409,0.4185571477393114,0.4,1.0,1.0,335.0,517.0,0.0,0,388.0,0
410,410,-0.13466830065551305,-0.1,0.0,1.0,426.0,671.0,1.0,0,-947.0,1
411,411,0.45117941398651895,0.5,1.0,1.0,493.0,637.0,1.0,1,-110.0,1
412,412,-0.7586205375540849,-0.8,1.0,0.0,299.0,981.0,0.0,0,-600.0,1
413,413,-0.859043694188726,-0.9,0.0,1.0,417.0,702.0,0.0,1,-989.0,0
414,414,0.27232091627417854,0.3,0.0,0.0,317.0,529.0,1.0,0,-796.0,0
415,415,-0.03674368146830753,-0.0,0.0,1.0,337.0,717.0,1.0,0,-124.0,1
416,416,-0.09507745297958137,-0.1,1.0,0.0,381.0,514.0,0.0,0,2525.0,1
417,417,-0.0296106125771467,-0.0,1.0,0.0,486.0,529.0,0.0,0,225.0,1
418,418,0.717517925556601,0.7,0.0,0.0,418.0,517.0,0.0,1,-895.0,1
419,419,-0.7234610592650748,-0.7,1.0,0.0,462.0,565.0,0.0,0,-497.0,1
420,420,-0.6332963095591828,-0.6,1.0,0.0,372.0,915.0,0.0,0,-807.0,1
421,421,0.22422826814207564,0.2,0.0,0.0,262.0,829.0,1.0,0,-1.0,0
422,422,0.41893589438945467,0.4,1.0,1.0,453.0,900.0,0.0,0,-1273.0,0
423,423,0.09976113693340449,0.1,0.0,0.0,287.0,713.0,0.0,1,1410.0,1
424,424,-0.2770303243534624,-0.3,1.0,0.0,408.0,926.0,0.0,0,-414.0,1
425,425,-0.5798845526199568,-0.6,0.0,1.0,260.0,592.0,0.0,1,-702.0,0
426,426,-0.6871057043847579,-0.7,1.0,0.0,454.0,927.0,0.0,0,-991.0,1
427,427,-0.07540373430332692,-0.1,0.0,1.0,266.0,778.0,0.0,1,-584.0,0
428,428,-0.543410059610824,-0.5,1.0,0.0,424.0,681.0,0.0,0,2925.0,1
429,429,0.5694972704183573,0.6,1.0,1.0,370.0,559.0,0.0,0,-259.0,0
430,430,0.7936343097524482,0.8,0.0,0.0,273.0,998.0,1.0,0,-1041.0,0
431,431,0.5420727241004343,0.5,0.0,0.0,480.0,616.0,0.0,1,2364.0,1
432,432,-0.5503636850072151,-0.6,1.0,0.0,462.0,640.0,1.0,1,-832.0,0
433,433,0.22353789146101655,0.2,0.0,0.0,447.0,763.0,1.0,0,-1170.0,0
434,434,-0.22537087147231993,-0.2,1.0,0.0,453.0,796.0,0.0,0,-1029.0,1
435,435,0.6651424555278883,0.7,1.0,1.0,288.0,966.0,0.0,0,-984.0,0
436,436,0.842752373158136,0.8,0.0,0.0,260.0,601.0,0.0,1,-551.0,1
437,437,0.765880587086739,0.8,0.0,0.0,491.0,720.0,0.0,1,-1051.0,1
438,438,0.8322343568613265,0.8,1.0,1.0,260.0,568.0,0.0,0,902.0,0
439,439,0.8973457514976616,0.9,0.0,0.0,390.0,558.0,1.0,0,4052.0,0
440,440,-0.7158358740793005,-0.7,1.0,0.0,383.0,733.0,0.0,0,-346.0,1
441,441,0.736211988012183,0.7,0.0,0.0,458.0,860.0,0.0,1,-368.0,1
442,442,0.04711313390771399,0.0,1.0,1.0,304.0,500.0,1.0,1,-484.0,1
443,443,-0.03048414339116401,-0.0,0.0,1.0,429.0,628.0,0.0,1,-967.0,0
444,444,0.1806394800536223,0.2,1.0,1.0,353.0,685.0,0.0,0,3962.0,0
445,445,0.236988691084154,0.2,0.0,0.0,251.0,834.0,1.0,0,1135.0,0
446,446,-0.1556226875556328,-0.2,1.0,0.0,490.0,691.0,1.0,1,-61.0,0
447,447,-0.004693268456906097,-0.0,1.0,0.0,409.0,799.0,0.0,0,3672.0,1
448,448,-0.5234420108857405,-0.5,0.0,1.0,324.0,856.0,1.0,0,-430.0,1
449,449,-0.5006426076313562,-0.5,0.0,1.0,481.0,935.0,0.0,1,-1116.0,0
450,450,0.5974640351677337,0.6,1.0,1.0,332.0,577.0,0.0,0,-799.0,0
451,451,0.13035541451227972,0.1,0.0,0.0,456.0,886.0,0.0,1,2838.0,1
452,452,-0.37429836030414154,-0.4,0.0,1.0,421.0,793.0,1.0,0,2036.0,1
453,453,0.8036471185702642,0.8,1.0,1.0,398.0,789.0,0.0,0,-1007.0,0
454,454,0.2590031677356458,0.3,0.0,0.0,366.0,741.0,0.0,1,783.0,1
455,455,-0.6580946656222423,-0.7,1.0,0.0,459.0,923.0,0.0,0,58.0,1
456,456,-0.3965206565278978,-0.4,1.0,0.0,475.0,532.0,0.0,0,-957.0,1
457,457,0.10351042838103697,0.1,1.0,1.0,343.0,524.0,1.0,1,3.0,1
458,458,0.7932237919170136,0.8,1.0,1.0,410.0,825.0,1.0,1,-425.0,1
459,459,-0.5086188400446017,-0.5,1.0,0.0,263.0,709.0,1.0,1,1198.0,0
460,460,-0.3075203302515366,-0.3,1.0,0.0,440.0,713.0,1.0,1,-133.0,0
461,461,0.14025933141200586,0.1,0.0,0.0,480.0,624.0,0.0,1,-114.0,1
462,462,-0.37535965527975523,-0.4,1.0,0.0,253.0,870.0,0.0,0,-833.0,1
463,463,-0.7187760985220499,-0.7,1.0,0.0,326.0,532.0,0.0,0,1762.0,1
464,464,-0.8812415895834464,-0.9,0.0,1.0,275.0,985.0,0.0,1,10.0,0
465,465,-0.7140868906668422,-0.7,0.0,1.0,364.0,556.0,1.0,0,-780.0,1
466,466,0.19644429182373047,0.2,0.0,0.0,446.0,985.0,0.0,1,2859.0,1
467,467,0.7383801897353482,0.7,1.0,1.0,401.0,906.0,0.0,0,1833.0,0
468,468,-0.10990703956349368,-0.1,1.0,0.0,331.0,953.0,0.0,0,-1214.0,1
469,469,-0.8041136183971098,-0.8,0.0,1.0,300.0,860.0,1.0,0,-1130.0,1
470,470,-0.7702543297434294,-0.8,1.0,0.0,471.0,975.0,0.0,0,-1376.0,1
471,471,0.3058323122076966,0.3,1.0,1.0,462.0,993.0,1.0,1,1315.0,1
472,472,0.4057070783644877,0.4,1.0,1.0,440.0,931.0,1.0,1,-621.0,1
473,473,0.277013875574993,0.3,0.0,0.0,370.0,535.0,0.0,1,1295.0,1
474,474,0.4399553079364785,0.4,0.0,0.0,367.0,609.0,0.0,1,-716.0,1
475,475,-0.8563580014688948,-0.9,1.0,0.0,378.0,936.0,1.0,1,1876.0,0
476,476,-0.8161669458111331,-0.8,1.0,0.0,350.0,672.0,0.0,0,-1022.0,1
477,477,0.4166773123775275,0.4,0.0,0.0,421.0,971.0,0.0,1,208.0,1
478,478,0.6897280052204834,0.7,0.0,0.0,304.0,792.0,0.0,1,574.0,1
479,479,-0.20277549690890395,-0.2,0.0,1.0,366.0,894.0,0.0,1,-1230.0,0
480,480,0.804353308224896,0.8,1.0,1.0,377.0,882.0,1.0,1,-1229.0,1
481,481,0.05560567188906895,0.1,1.0,1.0,288.0,949.0,1.0,1,853.0,1
482,482,0.467620918450362,0.5,1.0,1.0,373.0,967.0,0.0,0,1150.0,0
483,483,-0.8870473945600723,-0.9,0.0,1.0,332.0,683.0,0.0,1,-875.0,0
484,484,-0.8361597062524457,-0.8,0.0,1.0,489.0,669.0,1.0,0,-668.0,1
485,485,-0.6848504222574306,-0.7,1.0,0.0,263.0,855.0,1.0,1,-848.0,0
486,486,-0.1333629668194829,-0.1,0.0,1.0,470.0,846.0,1.0,0,1494.0,1
487,487,0.29682152552160923,0.3,0.0,0.0,305.0,955.0,0.0,1,-1160.0,1
488,488,0.344180149367873,0.3,0.0,0.0,301.0,591.0,0.0,1,698.0,1
489,489,0.5749840571511348,0.6,0.0,0.0,416.0,524.0,1.0,0,-840.0,0
490,490,0.3870287397740694,0.4,1.0,1.0,296.0,896.0,1.0,1,-1102.0,1
491,491,0.03762832085300927,0.0,1.0,1.0,301.0,674.0,0.0,0,-255.0,0
492,492,0.22868898947148664,0.2,0.0,0.0,428.0,962.0,0.0,1,2170.0,1
493,493,-0.24234708374051883,-0.2,1.0,0.0,252.0,540.0,0.0,0,1088.0,1
494,494,0.28593283525386715,0.3,1.0,1.0,311.0,951.0,1.0,1,-432.0,1
495,495,0.5218487395092314,0.5,1.0,1.0,449.0,812.0,1.0,1,3739.0,1
496,496,0.4937277955013165,0.5,1.0,1.0,453.0,840.0,0.0,0,317.0,0
497,497,0.3997995899732253,0.4,1.0,1.0,461.0,995.0,0.0,0,-1206.0,0
498,498,-0.7421908424436117,-0.7,1.0,0.0,396.0,502.0,0.0,0,-748.0,1
499,499,0.8559231021059434,0.9,1.0,1.0,274.0,954.0,1.0,1,-718.0,1
500,500,0.07660048816026022,0.1,0.0,0.0,416.0,519.0,1.0,0,595.0,0
501,501,0.25104775072956265,0.3,0.0,0.0,251.0,758.0,0.0,1,-979.0,1
502,502,0.26368651713816205,0.3,0.0,0.0,497.0,977.0,0.0,1,2286.0,1
503,503,-0.8837005605190293,-0.9,0.0,1.0,316.0,796.0,0.0,1,518.0,0
504,504,0.34247994313163554,0.3,0.0,0.0,355.0,617.0,0.0,1,-802.0,1
505,505,0.7438293148304213,0.7,1.0,1.0,332.0,807.0,0.0,0,-1139.0,0
506,506,0.31475516998227404,0.3,1.0,1.0,272.0,677.0,0.0,0,-629.0,0
507,507,-0.2273114168013748,-0.2,1.0,0.0,444.0,975.0,0.0,0,-919.0,1
508,508,-0.7630715293286652,-0.8,0.0,1.0,489.0,685.0,1.0,0,-364.0,1
509,509,0.5917919567343569,0.6,1.0,1.0,385.0,717.0,0.0,0,-682.0,0
510,510,-0.3327547638949514,-0.3,0.0,1.0,448.0,756.0,1.0,0,-24.0,1
511,511,0.2469448084492517,0.2,1.0,1.0,347.0,558.0,1.0,1,-345.0,1
512,512,0.1580530724375694,0.2,0.0,0.0,474.0,943.0,0.0,1,-1077.0,1
513,513,0.5319253710460278,0.5,0.0,0.0,262.0,830.0,0.0,1,-992.0,1
514,514,0.8823676771549446,0.9,0.0,0.0,467.0,904.0,1.0,0,3629.0,0
515,515,0.32583815934686056,0.3,0.0,0.0,385.0,722.0,0.0,1,3813.0,1
516,516,0.4225323591012805,0.4,0.0,0.0,455.0,863.0,0.0,1,-138.0,1
517,517,0.2902537176385863,0.3,1.0,1.0,454.0,773.0,0.0,0,1113.0,0
518,518,-0.8429800430480787,-0.8,1.0,0.0,412.0,788.0,0.0,0,1500.0,1
519,519,0.3058449959694979,0.3,0.0,0.0,310.0,875.0,1.0,0,105.0,0
520,520,-0.843913618110431,-0.8,0.0,1.0,376.0,852.0,0.0,1,-498.0,0
521,521,-0.6148406356053105,-0.6,1.0,0.0,449.0,506.0,0.0,0,85.0,1
522,522,0.7120840074073002,0.7,1.0,1.0,426.0,764.0,0.0,0,-1070.0,0
523,523,0.5076123083935157,0.5,0.0,0.0,303.0,610.0,0.0,1,937.0,1
524,524,-0.4299333878692168,-0.4,0.0,1.0,304.0,666.0,1.0,0,4030.0,1
525,525,-0.6980375609487105,-0.7,1.0,0.0,406.0,788.0,0.0,0,-324.0,1
526,526,-0.700891127332681,-0.7,0.0,1.0,452.0,745.0,0.0,1,-657.0,0
527,527,0.16051765647265126,0.2,1.0,1.0,418.0,567.0,0.0,0,-935.0,0
528,528,0.8436972483832347,0.8,0.0,0.0,387.0,557.0,0.0,1,-904.0,1
529,529,-0.5758876932696343,-0.6,1.0,0.0,335.0,855.0,1.0,1,-1150.0,0
530,530,0.2652150358726121,0.3,1.0,1.0,485.0,733.0,0.0,0,-678.0,0
531,531,-0.3889884453857918,-0.4,0.0,1.0,472.0,683.0,0.0,1,755.0,0
532,532,0.42796528783078525,0.4,1.0,1.0,352.0,707.0,1.0,1,-279.0,1
533,533,0.02848762136921401,0.0,0.0,0.0,380.0,507.0,0.0,1,-807.0,1
534,534,-0.863545580837963,-0.9,0.0,1.0,344.0,784.0,1.0,0,-118.0,1
535,535,0.3451146226411451,0.3,1.0,1.0,254.0,657.0,0.0,0,359.0,0
536,536,0.4540668285406876,0.5,1.0,1.0,487.0,850.0,0.0,0,-757.0,0
537,537,0.6415982354394069,0.6,0.0,0.0,376.0,922.0,1.0,0,3702.0,0
538,538,-0.5560863780423901,-0.6,1.0,0.0,319.0,770.0,1.0,1,-429.0,0
539,539,-0.614202801584492,-0.6,0.0,1.0,371.0,887.0,0.0,1,-1148.0,0
540,540,-0.024424390738604806,-0.0,1.0,0.0,344.0,895.0,1.0,1,-1139.0,0
541,541,-0.10231454802309548,-0.1,1.0,0.0,395.0,717.0,1.0,1,-992.0,0
542,542,-0.3975176637125084,-0.4,0.0,1.0,323.0,841.0,0.0,1,276.0,0
543,543,0.48145139555658456,0.5,1.0,1.0,419.0,520.0,0.0,0,-479.0,0
544,544,-0.053126392369096886,-0.1,1.0,0.0,350.0,629.0,1.0,1,3311.0,0
545,545,0.011326035272134272,0.0,0.0,0.0,453.0,818.0,0.0,1,1949.0,1
546,546,0.31430918817020215,0.3,0.0,0.0,265.0,690.0,0.0,1,-685.0,1
547,547,0.14767890034293452,0.1,1.0,1.0,410.0,954.0,0.0,0,286.0,0
548,548,0.8586447119401087,0.9,0.0,0.0,427.0,805.0,1.0,0,-152.0,0
549,549,-0.852808481477403,-0.9,1.0,0.0,335.0,830.0,0.0,0,-965.0,1
550,550,-0.3336505794175785,-0.3,0.0,1.0,415.0,800.0,0.0,1,-1175.0,0
551,551,0.4194045395131195,0.4,0.0,0.0,282.0,933.0,0.0,1,-55.0,1
552,552,-0.4420975254988662,-0.4,1.0,0.0,395.0,668.0,0.0,0,-733.0,1
553,553,-0.009219805615753529,-0.0,0.0,1.0,287.0,843.0,0.0,1,160.0,0
554,554,-0.8248128836434493,-0.8,1.0,0.0,460.0,587.0,0.0,0,-997.0,1
555,555,0.7773110408862199,0.8,0.0,0.0,489.0,673.0,0.0,1,278.0,1
556,556,0.43854479246451017,0.4,0.0,0.0,467.0,628.0,0.0,1,3015.0,1
557,557,0.7630328083197379,0.8,0.0,0.0,347.0,696.0,1.0,0,3957.0,0
558,558,-0.3134605063185605,-0.3,0.0,1.0,403.0,645.0,0.0,1,1092.0,0
559,559,-0.89093870777765,-0.9,0.0,1.0,439.0,505.0,0.0,1,2896.0,0
560,560,0.863248410821431,0.9,0.0,0.0,414.0,671.0,1.0,0,-1025.0,0
561,561,0.5397683495439097,0.5,0.0,0.0,482.0,956.0,0.0,1,-1408.0,1
562,562,0.505551649417299,0.5,1.0,1.0,303.0,993.0,0.0,0,-936.0,0
563,563,0.09072407139378746,0.1,1.0,1.0,259.0,681.0,0.0,0,-730.0,0
564,564,0.44154575182863665,0.4,1.0,1.0,339.0,761.0,1.0,1,-300.0,1
565,565,-0.4231532006011191,-0.4,0.0,1.0,336.0,826.0,1.0,0,-922.0,1
566,566,-0.6173555161221749,-0.6,1.0,0.0,275.0,736.0,1.0,1,3989.0,0
567,567,-0.8364512866340614,-0.8,1.0,0.0,474.0,995.0,0.0,0,821.0,1
568,568,0.5432754133498564,0.5,0.0,0.0,309.0,911.0,0.0,1,-270.0,1
569,569,-0.37533710657338815,-0.4,0.0,1.0,327.0,500.0,0.0,1,-437.0,0
570,570,0.3476231479697679,0.3,0.0,0.0,380.0,637.0,0.0,1,-827.0,1
571,571,0.88945774653064,0.9,0.0,0.0,372.0,974.0,0.0,1,-846.0,1
572,572,-0.31595429501354055,-0.3,0.0,1.0,486.0,676.0,1.0,0,-392.0,1
573,573,-0.15132516790562556,-0.2,1.0,0.0,423.0,545.0,0.0,0,572.0,1
574,574,0.5273851069254057,0.5,0.0,0.0,297.0,934.0,0.0,1,-1081.0,1
575,575,-0.17644681237651627,-0.2,0.0,1.0,493.0,977.0,0.0,1,1540.0,0
576,576,0.3760397116953845,0.4,1.0,1.0,485.0,888.0,1.0,1,-1143.0,1
577,577,0.4806103777809191,0.5,0.0,0.0,409.0,918.0,0.0,1,903.0,1
578,578,0.00720850697174269,0.0,1.0,1.0,379.0,682.0,1.0,1,-881.0,1
579,579,0.4055977818773714,0.4,0.0,0.0,468.0,952.0,1.0,0,700.0,0
580,580,-0.8204653817883233,-0.8,1.0,0.0,315.0,814.0,1.0,1,101.0,0
581,581,0.6605485268306867,0.7,1.0,1.0,315.0,792.0,0.0,0,513.0,0
582,582,-0.07581194556656845,-0.1,0.0,1.0,293.0,901.0,1.0,0,3806.0,1
583,583,0.793440838669273,0.8,1.0,1.0,306.0,577.0,0.0,0,1167.0,0
584,584,-0.8780032200530158,-0.9,1.0,0.0,464.0,821.0,1.0,1,-1085.0,0
585,585,-0.408724664892049,-0.4,1.0,0.0,370.0,874.0,1.0,1,-624.0,0
586,586,-0.2773102155727004,-0.3,1.0,0.0,279.0,691.0,1.0,1,4030.0,0
587,587,0.17392184342220396,0.2,0.0,0.0,328.0,507.0,0.0,1,2065.0,1
588,588,-0.5544172848423865,-0.6,0.0,1.0,252.0,577.0,1.0,0,2421.0,1
589,589,-0.3163960669111119,-0.3,1.0,0.0,275.0,765.0,0.0,0,-310.0,1
590,590,0.710834440445561,0.7,0.0,0.0,284.0,502.0,0.0,1,-146.0,1
591,591,0.6917342568158052,0.7,0.0,0.0,440.0,670.0,1.0,0,-470.0,0
592,592,0.42917957330013456,0.4,1.0,1.0,401.0,607.0,1.0,1,2222.0,1
593,593,0.7712346800142301,0.8,1.0,1.0,302.0,730.0,1.0,1,-92.0,1
594,594,0.5520799523946817,0.6,1.0,1.0,489.0,951.0,0.0,0,-1140.0,0
595,595,-0.5944240669934763,-0.6,0.0,1.0,261.0,657.0,0.0,1,-828.0,0
596,596,-0.6902746842216457,-0.7,0.0,1.0,307.0,847.0,0.0,1,2816.0,0
597,597,-0.7911755441332464,-0.8,1.0,0.0,498.0,693.0,0.0,0,-611.0,1
598,598,-0.36036172720975346,-0.4,0.0,1.0,384.0,779.0,0.0,1,-1163.0,0
599,599,-0.8279851383369697,-0.8,0.0,1.0,454.0,787.0,0.0,1,-1051.0,0
600,600,-0.7850331176685146,-0.8,0.0,1.0,294.0,902.0,0.0,1,2854.0,0
601,601,-0.3055158948391956,-0.3,0.0,1.0,472.0,863.0,1.0,0,-1325.0,1
602,602,-0.6260503372830517,-0.6,1.0,0.0,454.0,828.0,0.0,0,-752.0,1
603,603,-0.3884752674670805,-0.4,0.0,1.0,262.0,760.0,1.0,0,3978.0,1
604,604,0.5439943508384203,0.5,1.0,1.0,310.0,721.0,0.0,0,3029.0,0
605,605,-0.12231276511491174,-0.1,1.0,0.0,427.0,795.0,1.0,1,-452.0,0
606,606,0.20855297663866945,0.2,0.0,0.0,297.0,737.0,1.0,0,-374.0,0
607,607,0.08037749229659963,0.1,1.0,1.0,374.0,721.0,0.0,0,-245.0,0
608,608,0.5869350025854086,0.6,0.0,0.0,280.0,604.0,0.0,1,3396.0,1
609,609,-0.7379404085825998,-0.7,1.0,0.0,335.0,755.0,1.0,1,690.0,0
610,610,0.09334472915742009,0.1,1.0,1.0,258.0,529.0,0.0,0,533.0,0
611,611,-0.5673690546667489,-0.6,1.0,0.0,332.0,932.0,1.0,1,-934.0,0
612,612,-0.6560591214110953,-0.7,0.0,1.0,494.0,867.0,1.0,0,-701.0,1
613,613,-0.6786046079890917,-0.7,1.0,0.0,322.0,829.0,1.0,1,-851.0,0
614,614,-0.6085396091589677,-0.6,0.0,1.0,449.0,536.0,0.0,1,-725.0,0
615,615,0.40816388036913975,0.4,0.0,0.0,437.0,596.0,0.0,1,-483.0,1
616,616,0.6580943222735179,0.7,0.0,0.0,356.0,826.0,0.0,1,-62.0,1
617,617,0.10027582555147874,0.1,1.0,1.0,375.0,869.0,0.0,0,-1084.0,0
618,618,0.5961965137483566,0.6,1.0,1.0,333.0,533.0,0.0,0,244.0,0
619,619,0.18174523962853473,0.2,1.0,1.0,493.0,907.0,0.0,0,620.0,0
620,620,0.5262942176449762,0.5,1.0,1.0,414.0,813.0,1.0,1,473.0,1
621,621,0.861044530897641,0.9,0.0,0.0,449.0,900.0,0.0,1,-999.0,1
622,622,-0.6233859134632318,-0.6,1.0,0.0,333.0,590.0,1.0,1,-453.0,0
623,623,-0.021860898868686585,-0.0,1.0,0.0,336.0,925.0,0.0,0,699.0,1
624,624,0.8810504129260593,0.9,0.0,0.0,344.0,598.0,0.0,1,1988.0,1
625,625,-0.3569396645670041,-0.4,1.0,0.0,409.0,964.0,0.0,0,347.0,1
626,626,-0.504934358987436,-0.5,1.0,0.0,311.0,679.0,1.0,1,60.0,0
627,627,-0.7041668683388949,-0.7,1.0,0.0,396.0,511.0,0.0,0,443.0,1
628,628,0.43841389764652805,0.4,0.0,0.0,462.0,737.0,0.0,1,-709.0,1
629,629,0.5348339317730398,0.5,0.0,0.0,263.0,734.0,1.0,0,113.0,0
630,630,-0.8090097473948271,-0.8,1.0,0.0,285.0,910.0,0.0,0,515.0,1
631,631,0.2775992479073647,0.3,0.0,0.0,424.0,946.0,0.0,1,-720.0,1
632,632,0.25714504181455833,0.3,0.0,0.0,404.0,697.0,0.0,1,339.0,1
633,633,-0.789572545607465,-0.8,1.0,0.0,481.0,597.0,0.0,0,1562.0,1
634,634,0.6077429629519359,0.6,0.0,0.0,441.0,767.0,0.0,1,1682.0,1
635,635,-0.1566486383533049,-0.2,1.0,0.0,484.0,981.0,0.0,0,955.0,1
636,636,0.45804627370611184,0.5,0.0,0.0,302.0,514.0,0.0,1,1094.0,1
637,637,0.17185831278651575,0.2,0.0,0.0,275.0,842.0,0.0,1,3883.0,1
638,638,-0.5962423511100752,-0.6,0.0,1.0,480.0,958.0,0.0,1,-1398.0,0
639,639,-0.478888766897167,-0.5,0.0,1.0,411.0,567.0,0.0,1,-288.0,0
640,640,0.7109348797102059,0.7,1.0,1.0,292.0,529.0,0.0,0,-21.0,0
641,641,-0.6824233873060896,-0.7,0.0,1.0,426.0,550.0,0.0,1,-656.0,0
642,642,-0.8214516345886399,-0.8,0.0,1.0,345.0,573.0,0.0,1,-778.0,0
643,643,0.4198696131926679,0.4,1.0,1.0,417.0,721.0,0.0,0,1782.0,0
644,644,0.49910925090247316,0.5,0.0,0.0,282.0,825.0,0.0,1,2093.0,1
645,645,-0.5654944952486338,-0.6,1.0,0.0,371.0,620.0,0.0,0,139.0,1
646,646,-0.6307249659924308,-0.6,1.0,0.0,383.0,563.0,0.0,0,434.0,1
647,647,0.20831144827403925,0.2,0.0,0.0,427.0,803.0,1.0,0,400.0,0
648,648,0.2447747633963403,0.2,1.0,1.0,470.0,553.0,0.0,0,-643.0,0
649,649,0.36997856944438257,0.4,1.0,1.0,346.0,674.0,0.0,0,-700.0,0
650,650,-0.3523384557523478,-0.4,1.0,0.0,437.0,944.0,0.0,0,3409.0,1
651,651,-0.7973013786667232,-0.8,0.0,1.0,270.0,692.0,0.0,1,-82.0,0
652,652,-0.6703101858432858,-0.7,0.0,1.0,411.0,997.0,1.0,0,-1028.0,1
653,653,-0.8932425252799566,-0.9,0.0,1.0,265.0,813.0,1.0,0,482.0,1
654,654,0.020716335244377437,0.0,0.0,0.0,363.0,617.0,0.0,1,-100.0,1
655,655,-0.09393916383551881,-0.1,1.0,0.0,292.0,853.0,0.0,0,-825.0,1
656,656,0.18434966351231485,0.2,1.0,1.0,383.0,670.0,0.0,0,2147.0,0
657,657,0.0755990420752507,0.1,1.0,1.0,498.0,863.0,0.0,0,-1141.0,0
658,658,0.11234754226951915,0.1,1.0,1.0,394.0,754.0,1.0,1,-308.0,1
659,659,0.1886976169502942,0.2,1.0,1.0,455.0,739.0,1.0,1,3486.0,1
660,660,-0.27730924867675033,-0.3,1.0,0.0,257.0,646.0,1.0,1,357.0,0
661,661,0.13949319189450937,0.1,1.0,1.0,307.0,954.0,0.0,0,3699.0,0
662,662,0.23620802489696968,0.2,1.0,1.0,495.0,592.0,0.0,0,1043.0,0
663,663,0.8860606400350831,0.9,0.0,0.0,262.0,968.0,0.0,1,-680.0,1
664,664,0.32654322868308105,0.3,0.0,0.0,398.0,689.0,1.0,0,2803.0,0
665,665,-0.3130374560220903,-0.3,1.0,0.0,302.0,596.0,0.0,0,2772.0,1
666,666,0.7908226426793751,0.8,1.0,1.0,479.0,815.0,0.0,0,-494.0,0
667,667,-0.1079527038662077,-0.1,0.0,1.0,274.0,553.0,1.0,0,-587.0,1
668,668,-0.7902004884707994,-0.8,0.0,1.0,379.0,520.0,0.0,1,-29.0,0
669,669,0.4364797240636201,0.4,0.0,0.0,444.0,782.0,0.0,1,2524.0,1
670,670,0.6814855494076276,0.7,0.0,0.0,391.0,598.0,1.0,0,4011.0,0
671,671,0.21982242164129417,0.2,0.0,0.0,278.0,986.0,0.0,1,86.0,1
672,672,-0.1306642166977181,-0.1,0.0,1.0,474.0,895.0,1.0,0,-1369.0,1
673,673,-0.24607907470811807,-0.2,0.0,1.0,389.0,781.0,0.0,1,-120.0,0
674,674,-0.4537628797574338,-0.5,1.0,0.0,362.0,955.0,1.0,1,3173.0,0
675,675,-0.7806872797073314,-0.8,0.0,1.0,441.0,927.0,0.0,1,1872.0,0
676,676,-0.8433272176154455,-0.8,1.0,0.0,321.0,842.0,0.0,0,247.0,1
677,677,0.6120713278069293,0.6,1.0,1.0,262.0,549.0,1.0,1,4189.0,1
678,678,0.3180536138409965,0.3,1.0,1.0,483.0,509.0,0.0,0,-262.0,0
679,679,-0.480136339702894,-0.5,1.0,0.0,497.0,574.0,0.0,0,-681.0,1
680,680,0.7001031645317378,0.7,0.0,0.0,324.0,908.0,0.0,1,-392.0,1
681,681,-0.7632341624104398,-0.8,1.0,0.0,359.0,543.0,0.0,0,-342.0,1
682,682,-0.3441152250782167,-0.3,0.0,1.0,295.0,981.0,0.0,1,-896.0,0
683,683,0.3442512115355213,0.3,1.0,1.0,441.0,747.0,1.0,1,2322.0,1
684,684,-0.25293519905645323,-0.3,1.0,0.0,456.0,501.0,1.0,1,743.0,0
685,685,0.7029650236014263,0.7,0.0,0.0,334.0,704.0,0.0,1,-98.0,1
686,686,-0.5290295882077518,-0.5,1.0,0.0,460.0,756.0,0.0,0,-136.0,1
687,687,-0.398556391147616,-0.4,0.0,1.0,311.0,864.0,1.0,0,2605.0,1
688,688,0.38506424748873835,0.4,0.0,0.0,253.0,628.0,1.0,0,4119.0,0
689,689,-0.3604793505484417,-0.4,0.0,1.0,451.0,997.0,1.0,0,142.0,1
690,690,0.08157325282642103,0.1,0.0,0.0,449.0,637.0,0.0,1,-246.0,1
691,691,0.23676926028053524,0.2,1.0,1.0,495.0,628.0,1.0,1,907.0,1
692,692,-0.748008605891769,-0.7,1.0,0.0,279.0,676.0,0.0,0,-835.0,1
693,693,-0.19393554758755038,-0.2,0.0,1.0,325.0,749.0,1.0,0,-924.0,1
694,694,-0.0013726757155588798,-0.0,0.0,1.0,387.0,631.0,0.0,1,-938.0,0
695,695,-0.37051292141765046,-0.4,0.0,1.0,350.0,759.0,0.0,1,-1109.0,0
696,696,0.7880749137792381,0.8,1.0,1.0,319.0,717.0,0.0,0,1204.0,0
697,697,0.5192310096370057,0.5,1.0,1.0,364.0,581.0,0.0,0,-945.0,0
698,698,0.6115432564896434,0.6,0.0,0.0,325.0,907.0,0.0,1,-62.0,1
699,699,-0.1695887343202953,-0.2,1.0,0.0,484.0,539.0,0.0,0,-783.0,1
700,700,0.1124910835613554,0.1,0.0,0.0,360.0,689.0,1.0,0,-299.0,0
701,701,-0.47167761053934043,-0.5,0.0,1.0,440.0,529.0,0.0,1,1401.0,0
702,702,0.2864258486768373,0.3,1.0,1.0,339.0,799.0,0.0,0,-1018.0,0
703,703,0.8670806895472775,0.9,1.0,1.0,476.0,875.0,1.0,1,-791.0,1
704,704,0.39743766485734644,0.4,0.0,0.0,358.0,972.0,1.0,0,3670.0,0
705,705,0.236976352129724,0.2,0.0,0.0,332.0,616.0,0.0,1,2322.0,1
706,706,-0.07876877113490621,-0.1,1.0,0.0,336.0,610.0,1.0,1,-896.0,0
707,707,0.2053519566974641,0.2,0.0,0.0,262.0,689.0,0.0,1,2429.0,1
708,708,-0.47235944453133133,-0.5,1.0,0.0,341.0,936.0,0.0,0,-827.0,1
709,709,0.3739844481710778,0.4,0.0,0.0,496.0,903.0,1.0,0,-1209.0,0
710,710,0.6239538507127552,0.6,0.0,0.0,333.0,654.0,0.0,1,-227.0,1
711,711,-0.16762433072881977,-0.2,1.0,0.0,305.0,803.0,1.0,1,-908.0,0
712,712,-0.7801136662898202,-0.8,0.0,1.0,466.0,512.0,0.0,1,692.0,0
713,713,0.5990614996546498,0.6,1.0,1.0,322.0,507.0,1.0,1,-229.0,1
714,714,-0.5381011295179012,-0.5,0.0,1.0,282.0,983.0,0.0,1,-625.0,0
715,715,0.4429832626474287,0.4,1.0,1.0,298.0,955.0,0.0,0,-1143.0,0
716,716,0.8439122318150095,0.8,1.0,1.0,418.0,926.0,0.0,0,-524.0,0
717,717,-0.0359271965157143,-0.0,1.0,0.0,376.0,935.0,1.0,1,1819.0,0
718,718,0.425896457922733,0.4,0.0,0.0,455.0,509.0,1.0,0,4036.0,0
719,719,0.2041050894405031,0.2,0.0,0.0,495.0,888.0,0.0,1,147.0,1
720,720,0.49138513471026257,0.5,1.0,1.0,251.0,823.0,0.0,0,2776.0,0
721,721,0.23825525943448522,0.2,1.0,1.0,381.0,592.0,1.0,1,-783.0,1
722,722,-0.1413718473292469,-0.1,0.0,1.0,486.0,935.0,1.0,0,89.0,1
723,723,-0.36927151024114624,-0.4,1.0,0.0,498.0,631.0,0.0,0,2511.0,1
724,724,-0.36643845270969566,-0.4,0.0,1.0,330.0,919.0,0.0,1,-1069.0,0
725,725,0.32888270327754776,0.3,1.0,1.0,416.0,972.0,0.0,0,-1318.0,0
726,726,0.014771749070836782,0.0,0.0,0.0,342.0,670.0,0.0,1,2248.0,1
727,727,0.444493519673118,0.4,1.0,1.0,325.0,826.0,1.0,1,-261.0,1
728,728,-0.18848212665298647,-0.2,0.0,1.0,340.0,709.0,0.0,1,-859.0,0
729,729,-0.2727862668705674,-0.3,1.0,0.0,473.0,588.0,0.0,0,-931.0,1
730,730,0.07538304436960919,0.1,1.0,1.0,251.0,656.0,1.0,1,-667.0,1
731,731,-0.06032030941875288,-0.1,0.0,1.0,486.0,547.0,1.0,0,3967.0,1
732,732,-0.6184200987927415,-0.6,1.0,0.0,372.0,901.0,0.0,0,107.0,1
733,733,0.3964188622936976,0.4,1.0,1.0,329.0,639.0,0.0,0,1462.0,0
734,734,0.7727135073788852,0.8,1.0,1.0,326.0,694.0,0.0,0,-370.0,0
735,735,0.15947509266640336,0.2,0.0,0.0,394.0,588.0,1.0,0,-242.0,0
736,736,0.41287896113595857,0.4,0.0,0.0,329.0,918.0,0.0,1,-1107.0,1
737,737,-0.5453165864417118,-0.5,0.0,1.0,292.0,923.0,0.0,1,1985.0,0
738,738,0.08918902985661514,0.1,0.0,0.0,400.0,697.0,0.0,1,2013.0,1
739,739,0.3809834641917088,0.4,0.0,0.0,351.0,514.0,0.0,1,615.0,1
740,740,0.31370489792140355,0.3,0.0,0.0,343.0,584.0,0.0,1,-867.0,1
741,741,-0.008167474715506051,-0.0,0.0,1.0,321.0,504.0,0.0,1,2945.0,0
742,742,-0.43186383969451964,-0.4,0.0,1.0,463.0,920.0,0.0,1,-1053.0,0
743,743,0.7616148502170593,0.8,1.0,1.0,288.0,516.0,0.0,0,1576.0,0
744,744,0.8782986922603161,0.9,1.0,1.0,435.0,973.0,0.0,0,-608.0,0
745,745,0.0064237528448694015,0.0,1.0,1.0,452.0,830.0,0.0,0,448.0,0
746,746,-0.6887308979309067,-0.7,1.0,0.0,432.0,685.0,1.0,1,-457.0,0
747,747,0.4090457540816145,0.4,0.0,0.0,387.0,669.0,0.0,1,-486.0,1
748,748,0.18853363815744395,0.2,1.0,1.0,370.0,983.0,0.0,0,3377.0,0
749,749,0.21390044180957746,0.2,0.0,0.0,432.0,893.0,1.0,0,1045.0,0
750,750,-0.26962196306355524,-0.3,1.0,0.0,382.0,732.0,1.0,1,-394.0,0
751,751,-0.8280024205894648,-0.8,1.0,0.0,334.0,693.0,1.0,1,1273.0,0
752,752,0.4267469627649475,0.4,1.0,1.0,295.0,856.0,0.0,0,1629.0,0
753,753,0.8315010986741763,0.8,1.0,1.0,257.0,687.0,0.0,0,-54.0,0
754,754,0.3254070035410256,0.3,0.0,0.0,304.0,727.0,1.0,0,-471.0,0
755,755,-0.6671854058410364,-0.7,1.0,0.0,400.0,699.0,0.0,0,-589.0,1
756,756,-0.7288138271936014,-0.7,0.0,1.0,305.0,592.0,0.0,1,2263.0,0
757,757,0.5622859619449642,0.6,0.0,0.0,468.0,500.0,1.0,0,4032.0,0
758,758,0.16482029792249675,0.2,0.0,0.0,478.0,541.0,1.0,0,3291.0,0
759,759,0.8707078636630686,0.9,0.0,0.0,264.0,520.0,1.0,0,16.0,0
760,760,0.701091446054038,0.7,1.0,1.0,306.0,544.0,0.0,0,170.0,0
761,761,-0.36688102565214065,-0.4,0.0,1.0,353.0,597.0,0.0,1,1380.0,0
762,762,0.17502645194359412,0.2,1.0,1.0,437.0,613.0,0.0,0,-170.0,0
763,763,0.3137858306277391,0.3,1.0,1.0,456.0,613.0,0.0,0,-649.0,0
764,764,0.6692765331338418,0.7,1.0,1.0,411.0,710.0,0.0,0,-1111.0,0
765,765,0.8620714652343738,0.9,1.0,1.0,327.0,588.0,1.0,1,-865.0,1
766,766,0.1277778223071918,0.1,0.0,0.0,292.0,703.0,0.0,1,1115.0,1
767,767,-0.10200753786554873,-0.1,1.0,0.0,308.0,669.0,0.0,0,-787.0,1
768,768,-0.413844331011008,-0.4,0.0,1.0,332.0,716.0,0.0,1,-768.0,0
769,769,0.07260412387909021,0.1,1.0,1.0,368.0,527.0,1.0,1,935.0,1
770,770,0.2854037008797278,0.3,1.0,1.0,368.0,655.0,1.0,1,77.0,1
771,771,-0.7406294828768384,-0.7,0.0,1.0,492.0,640.0,0.0,1,-332.0,0
772,772,-0.7663508188414022,-0.8,0.0,1.0,298.0,723.0,0.0,1,1329.0,0
773,773,-0.5787836863876865,-0.6,0.0,1.0,417.0,710.0,0.0,1,-1117.0,0
774,774,0.03929375025436621,0.0,0.0,0.0,420.0,901.0,1.0,0,-1291.0,0
775,775,0.5104595523902306,0.5,1.0,1.0,334.0,911.0,1.0,1,-235.0,1
776,776,0.3214875552977531,0.3,0.0,0.0,445.0,970.0,0.0,1,45.0,1
777,777,-0.8807865145689451,-0.9,0.0,1.0,444.0,675.0,0.0,1,1121.0,0
778,778,0.8787469222247378,0.9,1.0,1.0,480.0,999.0,0.0,0,-789.0,0
779,779,0.7262822854923613,0.7,0.0,0.0,395.0,881.0,0.0,1,1724.0,1
780,780,-0.5864178459352647,-0.6,0.0,1.0,409.0,526.0,0.0,1,-395.0,0
781,781,0.5300843448404383,0.5,1.0,1.0,256.0,920.0,0.0,0,-626.0,0
782,782,-0.2909633924687254,-0.3,0.0,1.0,480.0,737.0,1.0,0,-327.0,1
783,783,-0.670432190505542,-0.7,1.0,0.0,337.0,848.0,1.0,1,1525.0,0
784,784,0.6074664882622561,0.6,0.0,0.0,420.0,829.0,0.0,1,-1069.0,1
785,785,-0.47675211929584044,-0.5,0.0,1.0,390.0,894.0,1.0,0,1316.0,1
786,786,0.6834084020828685,0.7,1.0,1.0,410.0,623.0,1.0,1,-243.0,1
787,787,-0.7793792910170614,-0.8,1.0,0.0,476.0,586.0,0.0,0,-942.0,1
788,788,-0.776711595622259,-0.8,1.0,0.0,264.0,752.0,0.0,0,-226.0,1
789,789,-0.32636005886687536,-0.3,0.0,1.0,458.0,609.0,0.0,1,-657.0,0
790,790,-0.06278609625323406,-0.1,0.0,1.0,304.0,863.0,1.0,0,-867.0,1
791,791,-0.8810985936006633,-0.9,0.0,1.0,257.0,526.0,0.0,1,227.0,0
792,792,-0.3422917035158254,-0.3,1.0,0.0,345.0,633.0,1.0,1,1672.0,0
793,793,-0.34727307549119735,-0.3,0.0,1.0,277.0,524.0,0.0,1,1339.0,0
794,794,-0.6930473283442503,-0.7,0.0,1.0,353.0,938.0,0.0,1,2019.0,0
795,795,0.5325495842791576,0.5,1.0,1.0,338.0,607.0,0.0,0,-365.0,0
796,796,-0.18689074545897033,-0.2,0.0,1.0,445.0,541.0,0.0,1,944.0,0
797,797,0.3807189294754757,0.4,1.0,1.0,417.0,779.0,0.0,0,-776.0,0
798,798,-0.6528787692911473,-0.7,1.0,0.0,358.0,799.0,0.0,0,833.0,1
799,799,0.4315169997572771,0.4,0.0,0.0,269.0,768.0,1.0,0,2763.0,0
800,800,0.6738709686148182,0.7,1.0,1.0,411.0,657.0,0.0,0,3862.0,0
801,801,-0.7343709262664004,-0.7,1.0,0.0,308.0,695.0,0.0,0,-373.0,1
802,802,-0.6196649431143693,-0.6,1.0,0.0,289.0,926.0,0.0,0,995.0,1
803,803,-0.5677708839910811,-0.6,0.0,1.0,303.0,825.0,0.0,1,712.0,0
804,804,-0.23224133043138817,-0.2,1.0,0.0,284.0,787.0,1.0,1,1689.0,0
805,805,-0.8457901237094013,-0.8,0.0,1.0,391.0,927.0,1.0,0,642.0,1
806,806,0.29576356236498846,0.3,0.0,0.0,378.0,841.0,1.0,0,-809.0,0
807,807,-0.8687708808488797,-0.9,1.0,0.0,456.0,574.0,1.0,1,-60.0,0
808,808,-0.19377904581938898,-0.2,1.0,0.0,331.0,569.0,0.0,0,1240.0,1
809,809,0.0003758704945966418,0.0,1.0,1.0,287.0,552.0,0.0,0,-339.0,0
810,810,-0.053913997823442306,-0.1,1.0,0.0,306.0,811.0,1.0,1,-1107.0,0
811,811,0.1892457350587139,0.2,1.0,1.0,433.0,691.0,0.0,0,1136.0,0
812,812,0.34173988248757337,0.3,0.0,0.0,402.0,619.0,0.0,1,3059.0,1
813,813,0.8904776499778903,0.9,0.0,0.0,308.0,774.0,0.0,1,1678.0,1
814,814,-0.005410121472769092,-0.0,1.0,0.0,387.0,914.0,1.0,1,-941.0,0
815,815,0.7546780750015724,0.8,0.0,0.0,292.0,777.0,1.0,0,3931.0,0
816,816,0.6781547643946327,0.7,1.0,1.0,379.0,784.0,1.0,1,-873.0,1
817,817,-0.5168408591577858,-0.5,1.0,0.0,377.0,857.0,1.0,1,-1214.0,0
818,818,-0.7798717152934392,-0.8,0.0,1.0,312.0,962.0,0.0,1,1616.0,0
819,819,0.03786421733640777,0.0,0.0,0.0,488.0,605.0,0.0,1,1557.0,1
820,820,-0.7694652851053065,-0.8,0.0,1.0,292.0,576.0,0.0,1,-248.0,0
821,821,0.8395430393847666,0.8,0.0,0.0,385.0,989.0,0.0,1,-554.0,1
822,822,0.6204511989285738,0.6,1.0,1.0,293.0,949.0,0.0,0,448.0,0
823,823,0.7984170686972863,0.8,1.0,1.0,447.0,911.0,0.0,0,-938.0,0
824,824,0.49697340788933075,0.5,0.0,0.0,383.0,529.0,0.0,1,-872.0,1
825,825,-0.13471537944390932,-0.1,1.0,0.0,353.0,575.0,0.0,0,362.0,1
826,826,-0.5467654699845191,-0.5,1.0,0.0,488.0,946.0,0.0,0,2926.0,1
827,827,0.4706780160781986,0.5,0.0,0.0,269.0,686.0,0.0,1,-115.0,1
828,828,-0.6918411847419428,-0.7,0.0,1.0,455.0,917.0,1.0,0,1398.0,1
829,829,-0.28023711811572394,-0.3,1.0,0.0,315.0,698.0,0.0,0,-593.0,1
830,830,0.6994719782972959,0.7,0.0,0.0,421.0,850.0,0.0,1,-1161.0,1
831,831,-0.4279600813467075,-0.4,1.0,0.0,485.0,730.0,1.0,1,-345.0,0
832,832,-0.5359924034773216,-0.5,0.0,1.0,419.0,802.0,0.0,1,-1161.0,0
833,833,0.1812855871022604,0.2,0.0,0.0,304.0,906.0,0.0,1,3370.0,1
834,834,-0.19727752115664643,-0.2,0.0,1.0,287.0,956.0,0.0,1,-1073.0,0
835,835,-0.46503640786004014,-0.5,1.0,0.0,494.0,918.0,1.0,1,-122.0,0
836,836,-0.038808651629904656,-0.0,0.0,1.0,382.0,988.0,0.0,1,830.0,0
837,837,0.1506939163501827,0.2,1.0,1.0,370.0,763.0,0.0,0,-3.0,0
838,838,0.032301544066111965,0.0,0.0,0.0,397.0,679.0,1.0,0,-786.0,0
839,839,0.34237530784090253,0.3,0.0,0.0,291.0,596.0,0.0,1,-347.0,1
840,840,0.33144418856585445,0.3,1.0,1.0,319.0,578.0,1.0,1,-257.0,1
841,841,-0.8909300475250669,-0.9,1.0,0.0,486.0,896.0,0.0,0,-582.0,1
842,842,0.604834669704685,0.6,1.0,1.0,459.0,735.0,1.0,1,-754.0,1
843,843,-0.7056077217450956,-0.7,0.0,1.0,446.0,956.0,1.0,0,148.0,1
844,844,0.8666702685201823,0.9,1.0,1.0,487.0,559.0,0.0,0,-396.0,0
845,845,0.23703172999502653,0.2,1.0,1.0,476.0,684.0,1.0,1,280.0,1
846,846,-0.29584373614786597,-0.3,1.0,0.0,311.0,541.0,1.0,1,738.0,0
847,847,0.3622386061420305,0.4,0.0,0.0,437.0,917.0,1.0,0,-634.0,0
848,848,0.4854088566039373,0.5,1.0,1.0,269.0,843.0,1.0,1,-442.0,1
849,849,-0.886454492865988,-0.9,0.0,1.0,283.0,882.0,0.0,1,-335.0,0
850,850,0.8157449780309501,0.8,1.0,1.0,490.0,733.0,0.0,0,-283.0,0
851,851,0.07326497690132061,0.1,1.0,1.0,315.0,745.0,0.0,0,-850.0,0
852,852,0.3079489711700375,0.3,0.0,0.0,474.0,683.0,0.0,1,2633.0,1
853,853,0.8790525389026006,0.9,0.0,0.0,390.0,535.0,0.0,1,-795.0,1
854,854,0.03119158531069144,0.0,1.0,1.0,474.0,632.0,1.0,1,2624.0,1
855,855,-0.49992491597332994,-0.5,0.0,1.0,326.0,803.0,0.0,1,-739.0,0
856,856,0.7513325563549159,0.8,0.0,0.0,381.0,630.0,0.0,1,1029.0,1
857,857,-0.4837708740038851,-0.5,0.0,1.0,432.0,935.0,0.0,1,-577.0,0
858,858,-0.7458372446080013,-0.7,1.0,0.0,298.0,696.0,1.0,1,4006.0,0
859,859,-0.2856304967671507,-0.3,1.0,0.0,330.0,738.0,0.0,0,1542.0,1
860,860,0.7457227625680763,0.7,0.0,0.0,474.0,918.0,1.0,0,-1062.0,0
861,861,-0.166713053483038,-0.2,1.0,0.0,290.0,965.0,1.0,1,-775.0,0
862,862,-0.6369174930102031,-0.6,1.0,0.0,438.0,832.0,0.0,0,-150.0,1
863,863,-0.11199980333807003,-0.1,1.0,0.0,357.0,505.0,0.0,0,758.0,1
864,864,0.28081938654268324,0.3,1.0,1.0,464.0,575.0,0.0,0,1981.0,0
865,865,0.2488602705061519,0.2,1.0,1.0,481.0,906.0,1.0,1,-377.0,1
866,866,0.46104366118575035,0.5,0.0,0.0,261.0,776.0,0.0,1,-537.0,1
867,867,-0.5267126926901786,-0.5,1.0,0.0,252.0,638.0,0.0,0,430.0,1
868,868,0.5554684948423386,0.6,1.0,1.0,300.0,537.0,1.0,1,4163.0,1
869,869,-0.020155425017489903,-0.0,0.0,1.0,260.0,674.0,0.0,1,-94.0,0
870,870,0.8846107828720776,0.9,0.0,0.0,336.0,801.0,1.0,0,-467.0,0
871,871,-0.6371578586778152,-0.6,0.0,1.0,481.0,685.0,0.0,1,-1006.0,0
872,872,-0.38831355967892633,-0.4,1.0,0.0,484.0,696.0,1.0,1,-690.0,0
873,873,-0.5291634666924119,-0.5,0.0,1.0,407.0,532.0,0.0,1,-669.0,0
874,874,-0.31669929512193773,-0.3,0.0,1.0,474.0,541.0,0.0,1,1085.0,0
875,875,0.06885129539416679,0.1,0.0,0.0,390.0,954.0,1.0,0,426.0,0
876,876,-0.3167628237494976,-0.3,0.0,1.0,488.0,955.0,1.0,0,-73.0,1
877,877,0.342684274623246,0.3,0.0,0.0,276.0,697.0,0.0,1,1497.0,1
878,878,0.3274148299876588,0.3,0.0,0.0,325.0,505.0,0.0,1,1990.0,1
879,879,-0.16822478030099453,-0.2,1.0,0.0,278.0,706.0,0.0,0,-604.0,1
880,880,-0.034472902702335495,-0.0,0.0,1.0,461.0,935.0,0.0,1,-1326.0,0
881,881,-0.10565145893484207,-0.1,1.0,0.0,481.0,674.0,1.0,1,-825.0,0
882,882,0.8360940954811115,0.8,1.0,1.0,275.0,868.0,0.0,0,-633.0,0
883,883,-0.08430173286648457,-0.1,0.0,1.0,378.0,896.0,1.0,0,-834.0,1
884,884,0.36491111510342467,0.4,1.0,1.0,364.0,677.0,0.0,0,-621.0,0
885,885,0.6821404850215546,0.7,0.0,0.0,362.0,605.0,0.0,1,-357.0,1
886,886,-0.11576709195009638,-0.1,0.0,1.0,361.0,678.0,1.0,0,3961.0,1
887,887,0.10378294257521403,0.1,1.0,1.0,317.0,919.0,0.0,0,-216.0,0
888,888,0.35451326289369345,0.4,0.0,0.0,411.0,778.0,0.0,1,-859.0,1
889,889,-0.14717515802306158,-0.1,0.0,1.0,422.0,797.0,1.0,0,-439.0,1
890,890,-0.27098037990187684,-0.3,1.0,0.0,356.0,769.0,1.0,1,-565.0,0
891,891,-0.039018470762225865,-0.0,0.0,1.0,409.0,833.0,1.0,0,-1032.0,1
892,892,-0.7123778103785355,-0.7,0.0,1.0,303.0,628.0,0.0,1,-871.0,0
893,893,0.2737198860339437,0.3,0.0,0.0,321.0,774.0,0.0,1,2625.0,1
894,894,0.5239956730543965,0.5,1.0,1.0,325.0,670.0,1.0,1,-555.0,1
895,895,0.4300876607803489,0.4,1.0,1.0,493.0,924.0,0.0,0,-1237.0,0
896,896,-0.7194411930871443,-0.7,0.0,1.0,365.0,575.0,0.0,1,-820.0,0
897,897,0.4068274144888665,0.4,0.0,0.0,275.0,624.0,0.0,1,1751.0,1
898,898,0.2011632158589013,0.2,0.0,0.0,281.0,552.0,0.0,1,27.0,1
899,899,-0.7911676764950039,-0.8,0.0,1.0,361.0,609.0,1.0,0,-640.0,1
900,900,-0.6553301224053807,-0.7,1.0,0.0,305.0,510.0,1.0,1,-625.0,0
901,901,-0.2074240764461276,-0.2,0.0,1.0,252.0,685.0,0.0,1,2203.0,0
902,902,-0.8048406250092289,-0.8,0.0,1.0,354.0,774.0,1.0,0,1222.0,1
903,903,0.7124703535037856,0.7,1.0,1.0,471.0,883.0,0.0,0,-124.0,0
904,904,0.515126381668131,0.5,0.0,0.0,259.0,653.0,1.0,0,-682.0,0
905,905,0.7005873964685968,0.7,0.0,0.0,356.0,890.0,1.0,0,-1106.0,0
906,906,-0.5153668370455304,-0.5,0.0,1.0,281.0,701.0,0.0,1,448.0,0
907,907,-0.7195635809683844,-0.7,1.0,0.0,288.0,780.0,0.0,0,-268.0,1
908,908,0.3851029026105922,0.4,1.0,1.0,264.0,800.0,0.0,0,-284.0,0
909,909,0.7344398608014938,0.7,0.0,0.0,445.0,667.0,1.0,0,1358.0,0
910,910,0.02659303759748244,0.0,0.0,0.0,313.0,606.0,0.0,1,-9.0,1
911,911,-0.5727603810721971,-0.6,0.0,1.0,372.0,552.0,0.0,1,-644.0,0
912,912,-0.5189253412225995,-0.5,1.0,0.0,433.0,696.0,1.0,1,461.0,0
913,913,0.06029328592908412,0.1,0.0,0.0,253.0,542.0,0.0,1,3845.0,1
914,914,0.550765532163051,0.6,1.0,1.0,418.0,769.0,0.0,0,1233.0,0
915,915,0.6135386212421529,0.6,0.0,0.0,264.0,618.0,1.0,0,4118.0,0
916,916,0.5572400281399957,0.6,1.0,1.0,438.0,629.0,1.0,1,53.0,1
917,917,-0.16971730617357428,-0.2,0.0,1.0,270.0,845.0,0.0,1,925.0,0
918,918,0.6776533744069101,0.7,0.0,0.0,402.0,983.0,1.0,0,3615.0,0
919,919,-0.8720497653551175,-0.9,1.0,0.0,459.0,560.0,0.0,0,-829.0,1
920,920,-0.5748490573914307,-0.6,1.0,0.0,484.0,835.0,0.0,0,51.0,1
921,921,0.781423779782949,0.8,1.0,1.0,452.0,694.0,0.0,0,854.0,0
922,922,0.21469115196751798,0.2,1.0,1.0,274.0,570.0,0.0,0,-734.0,0
923,923,-0.11251891091267163,-0.1,1.0,0.0,333.0,845.0,0.0,0,-558.0,1
924,924,-0.16914594716159714,-0.2,0.0,1.0,260.0,780.0,0.0,1,-970.0,0
925,925,0.3476259448875859,0.3,0.0,0.0,254.0,742.0,1.0,0,-976.0,0
926,926,0.022360493899701295,0.0,0.0,0.0,463.0,644.0,0.0,1,-697.0,1
927,927,0.4627314501651826,0.5,0.0,0.0,498.0,509.0,0.0,1,2943.0,1
928,928,0.8162635517424998,0.8,0.0,0.0,261.0,972.0,0.0,1,-1143.0,1
929,929,0.3610897345253853,0.4,1.0,1.0,380.0,997.0,0.0,0,-1237.0,0
930,930,-0.1781881010085038,-0.2,1.0,0.0,415.0,751.0,0.0,0,-1116.0,1
931,931,-0.3484673063535316,-0.3,1.0,0.0,407.0,759.0,0.0,0,-66.0,1
932,932,0.48193217539971245,0.5,0.0,0.0,435.0,658.0,1.0,0,1667.0,0
933,933,-0.3531949614985277,-0.4,0.0,1.0,406.0,621.0,0.0,1,433.0,0
934,934,-0.6666453610076026,-0.7,1.0,0.0,334.0,826.0,0.0,0,-480.0,1
935,935,-0.5226358777915653,-0.5,0.0,1.0,400.0,930.0,0.0,1,1500.0,0
936,936,0.2482971101340009,0.2,0.0,0.0,369.0,620.0,1.0,0,-469.0,0
937,937,0.10173086656959207,0.1,0.0,0.0,273.0,785.0,0.0,1,2582.0,1
938,938,0.07886307863572595,0.1,1.0,1.0,409.0,654.0,0.0,0,-713.0,0
939,939,0.691098953122178,0.7,1.0,1.0,305.0,679.0,1.0,1,-814.0,1
940,940,-0.47939072905077024,-0.5,1.0,0.0,289.0,936.0,0.0,0,655.0,1
941,941,-0.08730749269972882,-0.1,1.0,0.0,367.0,600.0,1.0,1,-907.0,0
942,942,-0.2388871021595852,-0.2,0.0,1.0,323.0,881.0,1.0,0,96.0,1
943,943,0.8913550295382281,0.9,0.0,0.0,473.0,853.0,0.0,1,-76.0,1
944,944,0.8119599266002314,0.8,0.0,0.0,461.0,961.0,0.0,1,-202.0,1
945,945,0.5906587075112265,0.6,1.0,1.0,467.0,578.0,0.0,0,485.0,0
946,946,-0.09168181098875261,-0.1,1.0,0.0,444.0,530.0,0.0,0,-974.0,1
947,947,-0.7049834836091421,-0.7,1.0,0.0,362.0,880.0,0.0,0,-952.0,1
948,948,-0.07925811080505918,-0.1,0.0,1.0,434.0,622.0,0.0,1,-256.0,0
949,949,-0.30478656267719617,-0.3,1.0,0.0,349.0,732.0,1.0,1,-921.0,0
950,950,-0.8508654722058278,-0.9,0.0,1.0,439.0,935.0,1.0,0,-674.0,1
951,951,-0.7002857905737349,-0.7,1.0,0.0,478.0,734.0,0.0,0,-732.0,1
952,952,0.24926066541943326,0.2,1.0,1.0,330.0,764.0,0.0,0,-854.0,0
953,953,0.5865163352743422,0.6,0.0,0.0,277.0,611.0,0.0,1,-418.0,1
954,954,0.015083106427548842,0.0,1.0,1.0,427.0,960.0,1.0,1,93.0,1
955,955,-0.1131969305691759,-0.1,1.0,0.0,334.0,509.0,1.0,1,-663.0,0
956,956,0.15572019635594525,0.2,0.0,0.0,416.0,544.0,0.0,1,-450.0,1
957,957,0.28023222616036436,0.3,1.0,1.0,441.0,976.0,0.0,0,-67.0,0
958,958,-0.8507367959121752,-0.9,0.0,1.0,272.0,670.0,1.0,0,-542.0,1
959,959,-0.08408626537000152,-0.1,1.0,0.0,476.0,813.0,0.0,0,-1289.0,1
960,960,-0.15711771137709973,-0.2,0.0,1.0,334.0,847.0,1.0,0,-101.0,1
961,961,-0.6680205117975608,-0.7,1.0,0.0,252.0,563.0,1.0,1,-415.0,0
962,962,-0.46180892228136433,-0.5,1.0,0.0,341.0,890.0,1.0,1,-991.0,0
963,963,0.5985341960589906,0.6,1.0,1.0,382.0,710.0,1.0,1,-582.0,1
964,964,-0.8773950394902339,-0.9,0.0,1.0,458.0,658.0,1.0,0,184.0,1
965,965,-0.7673059046311645,-0.8,0.0,1.0,363.0,787.0,1.0,0,-1020.0,1
966,966,-0.42472092802295874,-0.4,1.0,0.0,257.0,608.0,1.0,1,4135.0,0
967,967,0.10029960257745218,0.1,0.0,0.0,456.0,583.0,1.0,0,-429.0,0
968,968,-0.28585150330900866,-0.3,0.0,1.0,498.0,936.0,0.0,1,2386.0,0
969,969,-0.11393979367735785,-0.1,0.0,1.0,252.0,819.0,1.0,0,-1011.0,1
970,970,0.1307133404622448,0.1,1.0,1.0,495.0,731.0,0.0,0,-1186.0,0
971,971,-0.7810351636148625,-0.8,0.0,1.0,350.0,556.0,1.0,0,1764.0,1
972,972,-0.3772884585521761,-0.4,1.0,0.0,290.0,745.0,0.0,0,1105.0,1
973,973,-0.23167205962290938,-0.2,1.0,0.0,459.0,792.0,0.0,0,-321.0,1
974,974,-0.4660560230490765,-0.5,1.0,0.0,374.0,680.0,0.0,0,-784.0,1
975,975,0.4359702390218362,0.4,1.0,1.0,372.0,922.0,0.0,0,-864.0,0
976,976,-0.585514891993672,-0.6,0.0,1.0,486.0,761.0,0.0,1,-1027.0,0
977,977,0.48058607032198386,0.5,1.0,1.0,402.0,677.0,0.0,0,-1039.0,0
978,978,0.11864069652658704,0.1,1.0,1.0,306.0,956.0,1.0,1,-992.0,1
979,979,0.7602567128718997,0.8,1.0,1.0,264.0,754.0,0.0,0,-478.0,0
980,980,0.08550336752216492,0.1,0.0,0.0,328.0,927.0,0.0,1,-5.0,1
981,981,-0.3163856740107641,-0.3,0.0,1.0,342.0,859.0,1.0,0,1909.0,1
982,982,-0.5039037107582522,-0.5,0.0,1.0,386.0,964.0,0.0,1,230.0,0
983,983,-0.37492575678956774,-0.4,1.0,0.0,259.0,507.0,0.0,0,524.0,1
984,984,0.03813029737015128,0.0,1.0,1.0,269.0,674.0,1.0,1,-843.0,1
985,985,0.3600189643856103,0.4,0.0,0.0,474.0,632.0,0.0,1,2234.0,1
986,986,0.6947238785716584,0.7,1.0,1.0,283.0,651.0,0.0,0,2276.0,0
987,987,0.574836440739484,0.6,0.0,0.0,394.0,872.0,1.0,0,764.0,0
988,988,0.20955763497503688,0.2,0.0,0.0,494.0,694.0,1.0,0,1232.0,0
989,989,0.33837497888185564,0.3,1.0,1.0,313.0,839.0,0.0,0,-2.0,0
990,990,0.430618960245145,0.4,1.0,1.0,257.0,530.0,1.0,1,2323.0,1
991,991,-0.46593335627127735,-0.5,0.0,1.0,445.0,931.0,0.0,1,1524.0,0
992,992,0.025571199594837113,0.0,1.0,1.0,262.0,870.0,0.0,0,-162.0,0
993,993,-0.47382760967971355,-0.5,1.0,0.0,318.0,991.0,0.0,0,-989.0,1
994,994,0.13770064084497424,0.1,1.0,1.0,421.0,650.0,1.0,1,-821.0,1
995,995,-0.7273090084332214,-0.7,0.0,1.0,346.0,703.0,0.0,1,-449.0,0
996,996,-0.08142136940727795,-0.1,1.0,0.0,416.0,885.0,0.0,0,-471.0,1
997,997,0.602220005590315,0.6,0.0,0.0,350.0,726.0,0.0,1,854.0,1
998,998,0.37055271421776037,0.4,1.0,1.0,399.0,947.0,1.0,1,254.0,1
999,999,0.4513730876963066,0.5,1.0,1.0,250.0,524.0,0.0,0,-694.0,0
1000,1000,-0.10669531349915495,-0.1,0.0,1.0,262.0,535.0,1.0,0,-747.0,1
1001,1001,0.8904162805364689,0.9,1.0,1.0,330.0,881.0,1.0,1,-741.0,1
1002,1002,0.5040726102615644,0.5,0.0,0.0,362.0,861.0,0.0,1,-1153.0,1
1003,1003,-0.34757001828568324,-0.3,1.0,0.0,347.0,911.0,1.0,1,-1038.0,0
1004,1004,-0.46096126096062057,-0.5,0.0,1.0,407.0,914.0,0.0,1,-111.0,0
1005,1005,-0.47661749320591285,-0.5,0.0,1.0,483.0,755.0,0.0,1,-868.0,0
1006,1006,-0.29439503450511795,-0.3,1.0,0.0,454.0,862.0,1.0,1,-776.0,0
1007,1007,0.20880837835712918,0.2,0.0,0.0,298.0,855.0,1.0,0,-493.0,0
1008,1008,0.807966444326203,0.8,0.0,0.0,269.0,829.0,0.0,1,342.0,1
1009,1009,-0.8289529532767174,-0.8,0.0,1.0,376.0,639.0,0.0,1,-955.0,0
1010,1010,0.15862376019356283,0.2,1.0,1.0,390.0,637.0,0.0,0,3633.0,0
1011,1011,-0.7200619410364094,-0.7,1.0,0.0,346.0,787.0,0.0,0,-723.0,1
1012,1012,0.31869033243591083,0.3,1.0,1.0,440.0,852.0,0.0,0,-1082.0,0
1013,1013,-0.48152275503115827,-0.5,1.0,0.0,323.0,902.0,0.0,0,-1165.0,1
1014,1014,0.20201560362523574,0.2,1.0,1.0,256.0,524.0,1.0,1,-700.0,1
1015,1015,0.649605530335983,0.6,0.0,0.0,390.0,906.0,1.0,0,1174.0,0
1016,1016,0.7070287833855723,0.7,1.0,1.0,446.0,578.0,0.0,0,-884.0,0
1017,1017,0.19943542297201333,0.2,1.0,1.0,467.0,902.0,0.0,0,-1179.0,0
1018,1018,0.4644839455311972,0.5,0.0,0.0,321.0,528.0,0.0,1,1221.0,1
1019,1019,-0.491647458645509,-0.5,1.0,0.0,294.0,538.0,0.0,0,-602.0,1
1020,1020,0.7824705330810487,0.8,0.0,0.0,417.0,602.0,0.0,1,-39.0,1
1021,1021,0.5713640507152945,0.6,1.0,1.0,466.0,848.0,0.0,0,-674.0,0
1022,1022,-0.5832818597414683,-0.6,0.0,1.0,465.0,787.0,0.0,1,-12.0,0
1023,1023,0.28739049037132924,0.3,0.0,0.0,458.0,550.0,0.0,1,-898.0,1
1024,1024,0.8363204534347491,0.8,0.0,0.0,485.0,770.0,1.0,0,-1215.0,0
1025,1025,-0.8389783372719581,-0.8,0.0,1.0,393.0,606.0,0.0,1,781.0,0
1026,1026,-0.5507672194591353,-0.6,1.0,0.0,339.0,811.0,0.0,0,-1040.0,1
1027,1027,-0.2295569392120136,-0.2,1.0,0.0,414.0,557.0,1.0,1,-651.0,0
1028,1028,-0.002810405945889549,-0.0,0.0,1.0,325.0,845.0,1.0,0,-260.0,1
1029,1029,-0.4956268126251947,-0.5,0.0,1.0,469.0,949.0,0.0,1,-888.0,0
1030,1030,0.19855101745970394,0.2,1.0,1.0,460.0,633.0,0.0,0,777.0,0
1031,1031,-0.40896860617470104,-0.4,1.0,0.0,441.0,777.0,1.0,1,-38.0,0
1032,1032,0.6990500833497527,0.7,1.0,1.0,426.0,875.0,0.0,0,-601.0,0
1033,1033,0.4130371940369003,0.4,1.0,1.0,416.0,580.0,1.0,1,-736.0,1
1034,1034,0.6231765444432701,0.6,0.0,0.0,442.0,759.0,1.0,0,1519.0,0
1035,1035,-0.6180777755867357,-0.6,1.0,0.0,332.0,977.0,0.0,0,-1269.0,1
1036,1036,0.03729748932180543,0.0,0.0,0.0,282.0,937.0,0.0,1,221.0,1
1037,1037,0.45978427163927316,0.5,1.0,1.0,297.0,782.0,1.0,1,211.0,1
1038,1038,0.11069015327728937,0.1,1.0,1.0,294.0,961.0,1.0,1,875.0,1
1039,1039,0.26230598899672886,0.3,1.0,1.0,453.0,679.0,0.0,0,188.0,0
1040,1040,0.30371981365861445,0.3,1.0,1.0,424.0,774.0,0.0,0,-828.0,0
1041,1041,-0.6672333564531543,-0.7,1.0,0.0,470.0,799.0,0.0,0,-1229.0,1
1042,1042,-0.3620560174831001,-0.4,1.0,0.0,260.0,580.0,0.0,0,780.0,1
1043,1043,-0.15328355996483545,-0.2,1.0,0.0,420.0,690.0,0.0,0,1860.0,1
1044,1044,0.8723196448184333,0.9,0.0,0.0,360.0,577.0,0.0,1,1833.0,1
1045,1045,-0.06335937958930804,-0.1,1.0,0.0,367.0,919.0,0.0,0,-1286.0,1
1046,1046,-0.6966739918143702,-0.7,0.0,1.0,370.0,702.0,0.0,1,168.0,0
1047,1047,0.44855187205070346,0.4,0.0,0.0,427.0,512.0,0.0,1,791.0,1
1048,1048,0.18454311900096732,0.2,1.0,1.0,384.0,645.0,1.0,1,-89.0,1
1049,1049,-0.7507809072757514,-0.8,0.0,1.0,300.0,520.0,0.0,1,-130.0,0
1050,1050,0.6766754415852189,0.7,1.0,1.0,430.0,617.0,0.0,0,-97.0,0
1051,1051,-0.6904295472432582,-0.7,0.0,1.0,498.0,833.0,0.0,1,729.0,0
1052,1052,0.31323576598317693,0.3,0.0,0.0,337.0,835.0,0.0,1,-1082.0,1
1053,1053,0.2839091286884393,0.3,1.0,1.0,365.0,619.0,0.0,0,-214.0,0
1054,1054,0.7643499396029473,0.8,0.0,0.0,333.0,837.0,0.0,1,-250.0,1
1055,1055,0.8113341568049138,0.8,0.0,0.0,470.0,751.0,1.0,0,3779.0,0
1056,1056,-0.12716222943342803,-0.1,0.0,1.0,473.0,749.0,0.0,1,-1122.0,0
1057,1057,-0.8196569254250017,-0.8,1.0,0.0,415.0,611.0,0.0,0,-876.0,1
1058,1058,-0.8791877397562304,-0.9,1.0,0.0,406.0,880.0,1.0,1,44.0,0
1059,1059,0.03645557418180212,0.0,1.0,1.0,336.0,606.0,1.0,1,808.0,1
1060,1060,-0.10268364509188799,-0.1,0.0,1.0,453.0,557.0,0.0,1,-950.0,0
1061,1061,0.04419089673162113,0.0,0.0,0.0,294.0,633.0,0.0,1,1463.0,1
1062,1062,0.2313469147281494,0.2,1.0,1.0,425.0,851.0,0.0,0,-1266.0,0
1063,1063,-0.33408661138841755,-0.3,0.0,1.0,282.0,649.0,0.0,1,1479.0,0
1064,1064,0.05806759604580447,0.1,0.0,0.0,375.0,592.0,1.0,0,523.0,0
1065,1065,-0.3631689312386639,-0.4,0.0,1.0,496.0,977.0,0.0,1,627.0,0
1066,1066,-0.006463931402649559,-0.0,1.0,0.0,391.0,506.0,0.0,0,213.0,1
1067,1067,0.47949480664037336,0.5,0.0,0.0,406.0,731.0,1.0,0,2613.0,0
1068,1068,0.6393019809453236,0.6,0.0,0.0,431.0,565.0,1.0,0,-586.0,0
1069,1069,-0.3711899181547993,-0.4,1.0,0.0,455.0,599.0,0.0,0,286.0,1
1070,1070,0.6200617226510176,0.6,1.0,1.0,320.0,964.0,0.0,0,-574.0,0
1071,1071,-0.04079718891169959,-0.0,0.0,1.0,349.0,951.0,0.0,1,1420.0,0
1072,1072,-0.04368351567728612,-0.0,1.0,0.0,436.0,818.0,1.0,1,-994.0,0
1073,1073,-0.2806309735739356,-0.3,1.0,0.0,454.0,862.0,0.0,0,-1276.0,1
1074,1074,0.47500002082232584,0.5,0.0,0.0,330.0,740.0,1.0,0,1440.0,0
1075,1075,0.5084983942574856,0.5,1.0,1.0,386.0,603.0,0.0,0,4011.0,0
1076,1076,0.8698117404250546,0.9,1.0,1.0,483.0,619.0,1.0,1,118.0,1
1077,1077,0.5951802020452949,0.6,1.0,1.0,307.0,620.0,1.0,1,-97.0,1
1078,1078,-0.4991571350801542,-0.5,0.0,1.0,402.0,936.0,1.0,0,-98.0,1
1079,1079,-0.32836414517455925,-0.3,1.0,0.0,358.0,899.0,0.0,0,-407.0,1
1080,1080,-0.053021276015012275,-0.1,1.0,0.0,385.0,508.0,0.0,0,2507.0,1
1081,1081,-0.04953972562585485,-0.0,1.0,0.0,376.0,717.0,1.0,1,777.0,0
1082,1082,0.3623618119666504,0.4,1.0,1.0,498.0,539.0,0.0,0,-397.0,0
1083,1083,0.7320830866191971,0.7,1.0,1.0,283.0,973.0,0.0,0,174.0,0
1084,1084,-0.004339116191024894,-0.0,1.0,0.0,427.0,694.0,0.0,0,-921.0,1
1085,1085,0.5479751910001532,0.5,1.0,1.0,319.0,674.0,0.0,0,-163.0,0
1086,1086,0.7171010284562592,0.7,1.0,1.0,322.0,787.0,0.0,0,881.0,0
1087,1087,-0.43767604853241987,-0.4,0.0,1.0,347.0,720.0,1.0,0,-1057.0,1
1088,1088,0.6116646892814518,0.6,0.0,0.0,453.0,930.0,0.0,1,-1293.0,1
1089,1089,-0.29785506771197845,-0.3,1.0,0.0,337.0,688.0,0.0,0,325.0,1
1090,1090,0.1385771964157282,0.1,1.0,1.0,337.0,866.0,1.0,1,-343.0,1
1091,1091,-0.5739389457108259,-0.6,1.0,0.0,324.0,881.0,0.0,0,245.0,1
1092,1092,0.7585967325280177,0.8,1.0,1.0,494.0,527.0,0.0,0,669.0,0
1093,1093,0.6385934190244357,0.6,1.0,1.0,463.0,779.0,0.0,0,-242.0,0
1094,1094,-0.592700825422275,-0.6,1.0,0.0,486.0,650.0,1.0,1,14.0,0
1095,1095,-0.19012723215684735,-0.2,0.0,1.0,305.0,761.0,0.0,1,994.0,0
1096,1096,0.4401366149215188,0.4,0.0,0.0,486.0,876.0,0.0,1,-32.0,1
1097,1097,0.7296258531911527,0.7,0.0,0.0,383.0,981.0,0.0,1,-414.0,1
1098,1098,-0.4473993902878066,-0.4,1.0,0.0,384.0,535.0,0.0,0,501.0,1
1099,1099,-0.17292441571376993,-0.2,0.0,1.0,496.0,961.0,1.0,0,-697.0,1
1100,1100,-0.07304188555630897,-0.1,1.0,0.0,313.0,966.0,1.0,1,-1019.0,0
1101,1101,-0.8784972301305217,-0.9,1.0,0.0,268.0,790.0,1.0,1,-958.0,0
1102,1102,-0.32814717866820386,-0.3,1.0,0.0,291.0,903.0,1.0,1,-494.0,0
1103,1103,-0.20723256953893576,-0.2,0.0,1.0,288.0,559.0,1.0,0,-77.0,1
1104,1104,0.8506368899544762,0.9,0.0,0.0,272.0,516.0,1.0,0,4212.0,0
1105,1105,0.44883972860937715,0.4,0.0,0.0,453.0,610.0,1.0,0,-733.0,0
1106,1106,0.8665290622703218,0.9,0.0,0.0,363.0,732.0,1.0,0,235.0,0
1107,1107,-0.05473165742504027,-0.1,0.0,1.0,368.0,811.0,0.0,1,-909.0,0
1108,1108,0.05201749142354728,0.1,0.0,0.0,348.0,880.0,1.0,0,1192.0,0
1109,1109,-0.7878828190442507,-0.8,1.0,0.0,330.0,519.0,0.0,0,441.0,1
1110,1110,0.2791286733820143,0.3,1.0,1.0,428.0,950.0,0.0,0,-1138.0,0
1111,1111,-0.25893741899857536,-0.3,1.0,0.0,497.0,979.0,0.0,0,-1346.0,1
1112,1112,0.6920372341938635,0.7,0.0,0.0,408.0,779.0,0.0,1,-1177.0,1
1113,1113,-0.8102356348308138,-0.8,0.0,1.0,437.0,551.0,0.0,1,722.0,0
1114,1114,-0.8364150498139407,-0.8,1.0,0.0,493.0,859.0,0.0,0,-1202.0,1
1115,1115,0.7017500451452746,0.7,0.0,0.0,480.0,965.0,1.0,0,2835.0,0
1116,1116,-0.48396398733527723,-0.5,0.0,1.0,324.0,590.0,1.0,0,-574.0,1
1117,1117,0.742398622618511,0.7,0.0,0.0,314.0,848.0,1.0,0,-502.0,0
1118,1118,0.2500726549460769,0.3,1.0,1.0,401.0,728.0,0.0,0,-719.0,0
1119,1119,-0.7531121164872192,-0.8,1.0,0.0,428.0,714.0,0.0,0,1658.0,1
1120,1120,-0.41104932826681734,-0.4,0.0,1.0,394.0,952.0,0.0,1,2334.0,0
1121,1121,0.5078795212109367,0.5,0.0,0.0,301.0,717.0,0.0,1,-788.0,1
1122,1122,0.880285863835559,0.9,1.0,1.0,352.0,799.0,1.0,1,2869.0,1
1123,1123,-0.23980669275615707,-0.2,0.0,1.0,293.0,772.0,1.0,0,2215.0,1
1124,1124,-0.2482383908649416,-0.2,1.0,0.0,386.0,822.0,1.0,1,-768.0,0
1125,1125,-0.05773059602499864,-0.1,0.0,1.0,252.0,669.0,0.0,1,9.0,0
1126,1126,-0.8264362763690086,-0.8,0.0,1.0,458.0,787.0,0.0,1,3655.0,0
1127,1127,-0.41606020597795057,-0.4,0.0,1.0,485.0,888.0,0.0,1,-513.0,0
1128,1128,0.09962360100769097,0.1,1.0,1.0,383.0,670.0,1.0,1,47.0,1
1129,1129,0.5432580988137857,0.5,1.0,1.0,323.0,563.0,1.0,1,94.0,1
1130,1130,-0.8367570004179774,-0.8,0.0,1.0,323.0,601.0,0.0,1,346.0,0
1131,1131,-0.37166780245056785,-0.4,1.0,0.0,287.0,545.0,1.0,1,-42.0,0
1132,1132,0.5480050496106313,0.5,1.0,1.0,451.0,915.0,0.0,0,-646.0,0
1133,1133,0.027709918599646444,0.0,1.0,1.0,353.0,915.0,0.0,0,-1148.0,0
1134,1134,0.6313181900814103,0.6,1.0,1.0,351.0,801.0,0.0,0,-652.0,0
1135,1135,0.8199667802976077,0.8,1.0,1.0,378.0,807.0,0.0,0,-235.0,0
1136,1136,0.6185688786472171,0.6,0.0,0.0,375.0,909.0,0.0,1,716.0,1
1137,1137,0.3927107231126542,0.4,0.0,0.0,483.0,957.0,1.0,0,-1410.0,0
1138,1138,-0.6680891732915368,-0.7,0.0,1.0,423.0,542.0,0.0,1,-95.0,0
1139,1139,0.5630820511324431,0.6,1.0,1.0,451.0,851.0,0.0,0,-22.0,0
1140,1140,0.5234108284424727,0.5,0.0,0.0,333.0,666.0,0.0,1,3361.0,1
1141,1141,0.05586464001581781,0.1,1.0,1.0,268.0,816.0,0.0,0,2096.0,0
1142,1142,0.07310455397995441,0.1,1.0,1.0,299.0,816.0,0.0,0,-65.0,0
1143,1143,0.3881874473689947,0.4,1.0,1.0,371.0,615.0,1.0,1,4014.0,1
1144,1144,0.8349891983259298,0.8,0.0,0.0,387.0,768.0,0.0,1,-1035.0,1
1145,1145,0.6635032003687976,0.7,1.0,1.0,386.0,632.0,1.0,1,-868.0,1
1146,1146,0.33057644967437005,0.3,1.0,1.0,476.0,708.0,1.0,1,-774.0,1
1147,1147,0.5900619556307206,0.6,0.0,0.0,260.0,619.0,0.0,1,1281.0,1
1148,1148,-0.5521664325349485,-0.6,0.0,1.0,483.0,656.0,1.0,0,631.0,1
1149,1149,-0.41553958858604817,-0.4,0.0,1.0,379.0,663.0,0.0,1,888.0,0
1150,1150,0.3702329925894513,0.4,0.0,0.0,451.0,884.0,1.0,0,-1085.0,0
1151,1151,0.2705478086656964,0.3,1.0,1.0,283.0,516.0,1.0,1,4201.0,1
1152,1152,-0.06721069821089476,-0.1,1.0,0.0,425.0,672.0,1.0,1,-157.0,0
1153,1153,0.007495430655312774,0.0,1.0,1.0,499.0,966.0,0.0,0,-175.0,0
1154,1154,0.4615654911321342,0.5,0.0,0.0,388.0,524.0,1.0,0,-502.0,0
1155,1155,0.13464187597564325,0.1,0.0,0.0,403.0,712.0,0.0,1,-1075.0,1
1156,1156,0.5751552325571915,0.6,0.0,0.0,389.0,894.0,1.0,0,2557.0,0
1157,1157,0.35582915190742004,0.4,0.0,0.0,384.0,851.0,0.0,1,3655.0,1
1158,1158,0.29982324399225113,0.3,1.0,1.0,486.0,869.0,1.0,1,1345.0,1
1159,1159,0.5750572976762615,0.6,0.0,0.0,277.0,738.0,0.0,1,-995.0,1
1160,1160,0.6859708637398706,0.7,0.0,0.0,390.0,848.0,0.0,1,-1098.0,1
1161,1161,-0.399647911358591,-0.4,1.0,0.0,489.0,702.0,1.0,1,1889.0,0
1162,1162,0.46617129653515554,0.5,1.0,1.0,476.0,544.0,0.0,0,-260.0,0
1163,1163,0.23196531671992793,0.2,0.0,0.0,487.0,957.0,0.0,1,-1234.0,1
1164,1164,0.29631756437763135,0.3,0.0,0.0,267.0,916.0,1.0,0,-263.0,0
1165,1165,-0.8534264389173825,-0.9,1.0,0.0,489.0,713.0,0.0,0,838.0,1
1166,1166,-0.4927996095990207,-0.5,0.0,1.0,314.0,695.0,0.0,1,-39.0,0
1167,1167,-0.7966379104989921,-0.8,1.0,0.0,272.0,804.0,0.0,0,2574.0,1
1168,1168,0.2575038606606085,0.3,1.0,1.0,319.0,682.0,1.0,1,969.0,1
1169,1169,-0.13129482165081685,-0.1,1.0,0.0,293.0,858.0,0.0,0,-91.0,1
1170,1170,-0.5727128013575977,-0.6,1.0,0.0,286.0,618.0,1.0,1,-284.0,0
1171,1171,0.7138444403795793,0.7,0.0,0.0,471.0,825.0,0.0,1,-1236.0,1
1172,1172,0.12934633282897512,0.1,0.0,0.0,343.0,832.0,1.0,0,1135.0,0
1173,1173,0.6690734278813758,0.7,0.0,0.0,267.0,797.0,1.0,0,1596.0,0
1174,1174,0.09768520375025569,0.1,1.0,1.0,296.0,614.0,0.0,0,1330.0,0
1175,1175,-0.6294354649159148,-0.6,1.0,0.0,496.0,759.0,1.0,1,1545.0,0
1176,1176,-0.7054339883282957,-0.7,1.0,0.0,347.0,945.0,1.0,1,-972.0,0
1177,1177,0.39679273631735545,0.4,1.0,1.0,361.0,628.0,0.0,0,221.0,0
1178,1178,0.24042381640495913,0.2,1.0,1.0,352.0,789.0,0.0,0,2419.0,0
1179,1179,0.018735061985068913,0.0,1.0,1.0,280.0,994.0,1.0,1,-1264.0,1
1180,1180,-0.7608725565915415,-0.8,0.0,1.0,314.0,935.0,0.0,1,-1239.0,0
1181,1181,0.8749475040371045,0.9,1.0,1.0,261.0,821.0,0.0,0,-1072.0,0
1182,1182,0.7324795959409084,0.7,0.0,0.0,425.0,528.0,0.0,1,147.0,1
1183,1183,-0.4612195796151674,-0.5,1.0,0.0,407.0,656.0,0.0,0,377.0,1
1184,1184,-0.8873173915607113,-0.9,1.0,0.0,382.0,536.0,1.0,1,-238.0,0
1185,1185,0.6924570117362002,0.7,0.0,0.0,378.0,572.0,0.0,1,-510.0,1
1186,1186,0.13026107882434734,0.1,1.0,1.0,415.0,903.0,0.0,0,-778.0,0
1187,1187,0.288518596142585,0.3,0.0,0.0,299.0,865.0,0.0,1,916.0,1
1188,1188,0.2643581407901533,0.3,0.0,0.0,382.0,901.0,0.0,1,1157.0,1
1189,1189,0.6565056844788134,0.7,0.0,0.0,455.0,592.0,0.0,1,1663.0,1
1190,1190,-0.3944116076845027,-0.4,0.0,1.0,298.0,869.0,0.0,1,-627.0,0
1191,1191,0.5460585687097935,0.5,0.0,0.0,488.0,645.0,1.0,0,307.0,0
1192,1192,0.8873843404414995,0.9,0.0,0.0,335.0,657.0,0.0,1,-442.0,1
1193,1193,0.8732360381040934,0.9,1.0,1.0,394.0,629.0,0.0,0,-853.0,0
1194,1194,0.15618687606351067,0.2,0.0,0.0,454.0,659.0,1.0,0,457.0,0
1195,1195,0.7272851521711495,0.7,0.0,0.0,430.0,837.0,0.0,1,-777.0,1
1196,1196,0.45818492485189644,0.5,0.0,0.0,356.0,908.0,0.0,1,-1094.0,1
1197,1197,0.7988649168790188,0.8,1.0,1.0,414.0,692.0,1.0,1,2114.0,1
1198,1198,-0.7747563410848308,-0.8,0.0,1.0,393.0,774.0,0.0,1,-1017.0,0
1199,1199,0.14687889219146266,0.1,0.0,0.0,389.0,869.0,0.0,1,-78.0,1
1200,1200,-0.627950073493011,-0.6,0.0,1.0,422.0,902.0,0.0,1,-954.0,0
1201,1201,-0.3981833146074576,-0.4,1.0,0.0,313.0,762.0,0.0,0,2245.0,1
1202,1202,0.6724039673816905,0.7,0.0,0.0,251.0,575.0,1.0,0,4174.0,0
1203,1203,-0.8303298685893339,-0.8,1.0,0.0,403.0,936.0,0.0,0,281.0,1
1204,1204,-0.07396756993581655,-0.1,1.0,0.0,434.0,878.0,1.0,1,-1002.0,0
1205,1205,0.35079513381499783,0.4,1.0,1.0,402.0,505.0,1.0,1,-847.0,1
1206,1206,0.18441755579132446,0.2,1.0,1.0,316.0,962.0,0.0,0,-1258.0,0
1207,1207,0.8615086622070863,0.9,1.0,1.0,393.0,585.0,0.0,0,-508.0,0
1208,1208,0.72933270927808,0.7,1.0,1.0,308.0,843.0,0.0,0,-721.0,0
1209,1209,-0.8502163231364568,-0.9,0.0,1.0,386.0,887.0,0.0,1,-973.0,0
1210,1210,-0.5666812044384588,-0.6,1.0,0.0,480.0,587.0,1.0,1,-317.0,0
1211,1211,0.5574406249535372,0.6,1.0,1.0,483.0,534.0,0.0,0,-917.0,0
1212,1212,0.3340711090214973,0.3,1.0,1.0,448.0,767.0,1.0,1,3785.0,1
1213,1213,-0.3861492300434728,-0.4,0.0,1.0,274.0,930.0,0.0,1,-1114.0,0
1214,1214,0.10613621160571063,0.1,1.0,1.0,353.0,526.0,0.0,0,-719.0,0
1215,1215,-0.21052115505678948,-0.2,0.0,1.0,495.0,886.0,0.0,1,-801.0,0
1216,1216,-0.156338341352377,-0.2,0.0,1.0,444.0,772.0,1.0,0,3784.0,1
1217,1217,-0.15774203138756493,-0.2,0.0,1.0,428.0,665.0,0.0,1,-493.0,0
1218,1218,0.3636038960121367,0.4,0.0,0.0,276.0,784.0,0.0,1,-930.0,1
1219,1219,-0.81714305374377,-0.8,0.0,1.0,425.0,602.0,0.0,1,1333.0,0
1220,1220,-0.3367410761835936,-0.3,1.0,0.0,427.0,563.0,0.0,0,1090.0,1
1221,1221,0.26454733917098994,0.3,0.0,0.0,250.0,744.0,0.0,1,-734.0,1
1222,1222,-0.4457543057349395,-0.4,1.0,0.0,407.0,525.0,0.0,0,2398.0,1
1223,1223,0.7340765486010111,0.7,0.0,0.0,495.0,845.0,0.0,1,-1310.0,1
1224,1224,0.2129447126848113,0.2,1.0,1.0,433.0,905.0,0.0,0,-1328.0,0
1225,1225,-0.7648174451246846,-0.8,0.0,1.0,310.0,794.0,1.0,0,996.0,1
1226,1226,0.7262291619749689,0.7,1.0,1.0,456.0,529.0,1.0,1,-515.0,1
1227,1227,-0.5161980719749866,-0.5,1.0,0.0,267.0,783.0,0.0,0,-220.0,1
1228,1228,-0.8471922083774515,-0.8,0.0,1.0,284.0,536.0,1.0,0,1250.0,1
1229,1229,0.6840300929173603,0.7,0.0,0.0,324.0,965.0,1.0,0,-459.0,0
1230,1230,0.8189049835894732,0.8,1.0,1.0,277.0,907.0,0.0,0,3816.0,0
1231,1231,0.6691526897483381,0.7,1.0,1.0,307.0,678.0,0.0,0,2035.0,0
1232,1232,-0.2917106703574709,-0.3,1.0,0.0,495.0,530.0,0.0,0,1385.0,1
1233,1233,-0.2761802209268661,-0.3,1.0,0.0,428.0,949.0,0.0,0,-117.0,1
1234,1234,-0.4238243696849646,-0.4,1.0,0.0,362.0,599.0,1.0,1,49.0,0
1235,1235,-0.24751759910089688,-0.2,0.0,1.0,439.0,737.0,0.0,1,-1016.0,0
1236,1236,-0.7625889016745555,-0.8,0.0,1.0,431.0,910.0,0.0,1,-741.0,0
1237,1237,0.37305578255698235,0.4,0.0,0.0,461.0,971.0,0.0,1,508.0,1
1238,1238,0.7988708778686856,0.8,1.0,1.0,273.0,830.0,1.0,1,3367.0,1
1239,1239,-0.817812256226542,-0.8,0.0,1.0,414.0,624.0,1.0,0,-938.0,1
1240,1240,-0.7022310532920779,-0.7,1.0,0.0,319.0,890.0,1.0,1,-899.0,0
1241,1241,0.8605093046422866,0.9,1.0,1.0,496.0,569.0,1.0,1,175.0,1
1242,1242,0.7530893276353127,0.8,0.0,0.0,327.0,877.0,1.0,0,-904.0,0
1243,1243,-0.48077709551396675,-0.5,1.0,0.0,491.0,853.0,0.0,0,-624.0,1
1244,1244,-0.21308195524268136,-0.2,1.0,0.0,329.0,827.0,0.0,0,-406.0,1
1245,1245,0.14764842243772225,0.1,0.0,0.0,301.0,677.0,1.0,0,572.0,0
1246,1246,0.8331332453131467,0.8,1.0,1.0,324.0,704.0,1.0,1,-568.0,1
1247,1247,0.186161375901312,0.2,1.0,1.0,348.0,694.0,0.0,0,48.0,0
1248,1248,-0.410365986764827,-0.4,0.0,1.0,486.0,835.0,0.0,1,2179.0,0
1249,1249,0.7089822244248528,0.7,1.0,1.0,254.0,896.0,0.0,0,-540.0,0
1250,1250,-0.648239493366711,-0.6,1.0,0.0,358.0,794.0,0.0,0,-1072.0,1
1251,1251,-0.8951877046954813,-0.9,1.0,0.0,297.0,633.0,1.0,1,-900.0,0
1252,1252,-0.038254128702975065,-0.0,1.0,0.0,477.0,629.0,1.0,1,-1066.0,0
1253,1253,-0.4709897702977778,-0.5,0.0,1.0,413.0,832.0,1.0,0,-1015.0,1
1254,1254,0.07898752226890438,0.1,0.0,0.0,456.0,853.0,0.0,1,-1299.0,1
1255,1255,-0.35515887502947385,-0.4,1.0,0.0,360.0,666.0,0.0,0,704.0,1
1256,1256,-0.35347633328462624,-0.4,1.0,0.0,275.0,777.0,1.0,1,3148.0,0
1257,1257,0.4152046430914157,0.4,1.0,1.0,260.0,583.0,1.0,1,2047.0,1
1258,1258,0.5467061467465267,0.5,0.0,0.0,402.0,668.0,1.0,0,3930.0,0
1259,1259,-0.2631256754883624,-0.3,1.0,0.0,404.0,624.0,1.0,1,-968.0,0
1260,1260,-0.4375192810264665,-0.4,0.0,1.0,495.0,763.0,0.0,1,-988.0,0
1261,1261,-0.44147872704535385,-0.4,0.0,1.0,414.0,993.0,0.0,1,-1027.0,0
1262,1262,0.059495468107116145,0.1,1.0,1.0,385.0,965.0,0.0,0,-80.0,0
1263,1263,0.15635182360409627,0.2,0.0,0.0,478.0,583.0,1.0,0,159.0,0
1264,1264,0.09644494869242137,0.1,1.0,1.0,353.0,883.0,1.0,1,1634.0,1
1265,1265,-0.5624679855320789,-0.6,0.0,1.0,441.0,604.0,0.0,1,285.0,0
1266,1266,0.13727186232168098,0.1,1.0,1.0,290.0,766.0,0.0,0,-986.0,0
1267,1267,-0.5331871878932519,-0.5,0.0,1.0,334.0,928.0,0.0,1,-702.0,0
1268,1268,0.438815117653491,0.4,1.0,1.0,471.0,926.0,1.0,1,-197.0,1
1269,1269,0.2970528524501391,0.3,1.0,1.0,372.0,857.0,1.0,1,-539.0,1
1270,1270,0.5672676174024086,0.6,1.0,1.0,425.0,862.0,0.0,0,13.0,0
1271,1271,0.4157772937449641,0.4,1.0,1.0,372.0,603.0,0.0,0,-175.0,0
1272,1272,0.7662402983392206,0.8,1.0,1.0,330.0,792.0,1.0,1,1398.0,1
1273,1273,-0.5710617352896594,-0.6,0.0,1.0,451.0,651.0,1.0,0,-1052.0,1
1274,1274,-0.5958866992531844,-0.6,1.0,0.0,474.0,647.0,1.0,1,-901.0,0
1275,1275,-0.24487830534700916,-0.2,1.0,0.0,341.0,604.0,0.0,0,1385.0,1
1276,1276,0.0310826074067011,0.0,0.0,0.0,461.0,997.0,1.0,0,72.0,0
1277,1277,-0.5552146943155594,-0.6,1.0,0.0,444.0,637.0,0.0,0,1189.0,1
1278,1278,0.8574213661179199,0.9,1.0,1.0,473.0,605.0,1.0,1,-578.0,1
1279,1279,0.3388551102032503,0.3,1.0,1.0,367.0,913.0,1.0,1,-1090.0,1
1280,1280,0.16976491791868453,0.2,1.0,1.0,476.0,906.0,0.0,0,-1092.0,0
1281,1281,-0.7920271480279364,-0.8,0.0,1.0,455.0,763.0,1.0,0,-508.0,1
1282,1282,-0.5257351977115958,-0.5,1.0,0.0,412.0,889.0,0.0,0,69.0,1
1283,1283,-0.5109083494852968,-0.5,0.0,1.0,314.0,623.0,0.0,1,-307.0,0
1284,1284,0.32698020085717705,0.3,1.0,1.0,354.0,972.0,1.0,1,674.0,1
1285,1285,-0.5200927950843877,-0.5,1.0,0.0,464.0,801.0,1.0,1,885.0,0
1286,1286,0.7377388761386571,0.7,1.0,1.0,397.0,797.0,1.0,1,-1184.0,1
1287,1287,0.7084788854092671,0.7,0.0,0.0,395.0,602.0,1.0,0,-497.0,0
1288,1288,-0.7679832381481284,-0.8,1.0,0.0,477.0,764.0,0.0,0,-751.0,1
1289,1289,0.1216617614387906,0.1,0.0,0.0,375.0,624.0,1.0,0,4001.0,0
1290,1290,0.7060581351989611,0.7,1.0,1.0,298.0,754.0,1.0,1,8.0,1
1291,1291,-0.7936247227379785,-0.8,1.0,0.0,341.0,576.0,0.0,0,-607.0,1
1292,1292,0.30073889738801685,0.3,0.0,0.0,405.0,799.0,0.0,1,-584.0,1
1293,1293,-0.2231283602687929,-0.2,1.0,0.0,382.0,519.0,1.0,1,-161.0,0
1294,1294,-0.8594019520629981,-0.9,0.0,1.0,323.0,997.0,1.0,0,-90.0,1
1295,1295,0.8430529833379442,0.8,0.0,0.0,393.0,566.0,1.0,0,-789.0,0
1296,1296,-0.062457575902345464,-0.1,0.0,1.0,367.0,711.0,0.0,1,-998.0,0
1297,1297,0.1925746323403147,0.2,0.0,0.0,462.0,918.0,0.0,1,-640.0,1
1298,1298,0.3328090993723366,0.3,1.0,1.0,395.0,970.0,0.0,0,-135.0,0
1299,1299,0.8596390898173861,0.9,0.0,0.0,459.0,788.0,0.0,1,-1227.0,1
1300,1300,-0.5595266302680464,-0.6,0.0,1.0,289.0,732.0,0.0,1,519.0,0
1301,1301,0.671213083509809,0.7,1.0,1.0,321.0,832.0,0.0,0,127.0,0
1302,1302,0.5662230737717736,0.6,1.0,1.0,431.0,985.0,0.0,0,664.0,0
1303,1303,0.23932719412998338,0.2,1.0,1.0,266.0,915.0,0.0,0,1399.0,0
1304,1304,-0.615797330441739,-0.6,1.0,0.0,308.0,649.0,0.0,0,633.0,1
1305,1305,-0.43345906992199074,-0.4,1.0,0.0,490.0,699.0,0.0,0,2561.0,1
1306,1306,-0.7147065967057104,-0.7,1.0,0.0,422.0,979.0,1.0,1,1069.0,0
1307,1307,0.08164376140360585,0.1,1.0,1.0,332.0,948.0,0.0,0,-730.0,0
1308,1308,-0.7971250795157543,-0.8,0.0,1.0,287.0,978.0,1.0,0,-1245.0,1
1309,1309,0.11650768419182256,0.1,0.0,0.0,306.0,958.0,0.0,1,3736.0,1
1310,1310,-0.8065786378702593,-0.8,0.0,1.0,360.0,993.0,0.0,1,-533.0,0
1311,1311,-0.7355734540385137,-0.7,0.0,1.0,359.0,517.0,0.0,1,-646.0,0
1312,1312,-0.3814184074247223,-0.4,0.0,1.0,344.0,984.0,0.0,1,-608.0,0
1313,1313,0.6664902104063054,0.7,1.0,1.0,358.0,590.0,0.0,0,-878.0,0
1314,1314,-0.2931287853921808,-0.3,0.0,1.0,444.0,845.0,0.0,1,1141.0,0
1315,1315,-0.14942836012121197,-0.1,0.0,1.0,409.0,791.0,1.0,0,3800.0,1
1316,1316,-0.6183934259260615,-0.6,1.0,0.0,261.0,556.0,0.0,0,2913.0,1
1317,1317,0.058778836227474485,0.1,1.0,1.0,316.0,849.0,0.0,0,-1165.0,0
1318,1318,-0.6007962869072051,-0.6,0.0,1.0,401.0,593.0,0.0,1,136.0,0
1319,1319,-0.11174241980474398,-0.1,1.0,0.0,262.0,892.0,0.0,0,-1134.0,1
1320,1320,-0.28012062492760026,-0.3,1.0,0.0,415.0,934.0,0.0,0,-59.0,1
1321,1321,-0.4931820960109447,-0.5,0.0,1.0,416.0,568.0,0.0,1,1186.0,0
1322,1322,-0.7489940520412652,-0.7,1.0,0.0,321.0,540.0,0.0,0,-851.0,1
1323,1323,-0.3289146885071256,-0.3,1.0,0.0,381.0,541.0,0.0,0,-882.0,1
1324,1324,0.06296782884718755,0.1,1.0,1.0,497.0,953.0,0.0,0,-1240.0,0
1325,1325,-0.8302307562793787,-0.8,0.0,1.0,479.0,582.0,0.0,1,-651.0,0
1326,1326,0.4738789857958431,0.5,1.0,1.0,402.0,869.0,0.0,0,1039.0,0
1327,1327,-0.2730674822438064,-0.3,0.0,1.0,342.0,749.0,0.0,1,-191.0,0
1328,1328,0.8700596128014374,0.9,1.0,1.0,376.0,846.0,0.0,0,-142.0,0
1329,1329,-0.1720714292984602,-0.2,1.0,0.0,380.0,791.0,1.0,1,219.0,0
1330,1330,-0.21664924172325462,-0.2,1.0,0.0,264.0,771.0,1.0,1,425.0,0
1331,1331,0.07522179278796248,0.1,1.0,1.0,290.0,518.0,1.0,1,2.0,1
1332,1332,0.7369877644893555,0.7,0.0,0.0,367.0,724.0,0.0,1,1069.0,1
1333,1333,0.43675307290943566,0.4,0.0,0.0,317.0,599.0,0.0,1,-266.0,1
1334,1334,0.524937007607046,0.5,0.0,0.0,376.0,940.0,1.0,0,3684.0,0
1335,1335,0.7843033432056846,0.8,0.0,0.0,299.0,890.0,0.0,1,-1089.0,1
1336,1336,0.13494461559854132,0.1,1.0,1.0,365.0,612.0,0.0,0,-727.0,0
1337,1337,0.3572963082185897,0.4,0.0,0.0,411.0,935.0,0.0,1,-1156.0,1
1338,1338,0.30682788374004255,0.3,1.0,1.0,416.0,953.0,0.0,0,-1299.0,0
1339,1339,-0.3456854713784455,-0.3,1.0,0.0,326.0,791.0,1.0,1,-1117.0,0
1340,1340,-0.20078082002196573,-0.2,1.0,0.0,298.0,968.0,0.0,0,1454.0,1
1341,1341,0.4773569267962726,0.5,0.0,0.0,281.0,876.0,0.0,1,-747.0,1
1342,1342,0.8783357032002451,0.9,0.0,0.0,281.0,744.0,1.0,0,-1025.0,0
1343,1343,-0.05249175907982839,-0.1,1.0,0.0,394.0,744.0,0.0,0,1732.0,1
1344,1344,0.32335120812012963,0.3,0.0,0.0,316.0,529.0,1.0,0,1805.0,0
1345,1345,-0.5406623524531204,-0.5,0.0,1.0,299.0,866.0,0.0,1,-1025.0,0
1346,1346,0.4109948684236088,0.4,1.0,1.0,441.0,796.0,1.0,1,-517.0,1
1347,1347,0.5541234398035645,0.6,0.0,0.0,257.0,613.0,0.0,1,-680.0,1
1348,1348,-0.305417359530496,-0.3,1.0,0.0,443.0,666.0,0.0,0,-319.0,1
1349,1349,0.17908610336178865,0.2,1.0,1.0,255.0,513.0,0.0,0,2332.0,0
1350,1350,-0.5584954633605905,-0.6,0.0,1.0,333.0,792.0,0.0,1,-1125.0,0
1351,1351,0.2700373774447494,0.3,1.0,1.0,389.0,791.0,0.0,0,-1160.0,0
1352,1352,0.2937458099889535,0.3,0.0,0.0,325.0,551.0,0.0,1,-326.0,1
1353,1353,0.8523225936966384,0.9,1.0,1.0,490.0,677.0,1.0,1,-527.0,1
1354,1354,-0.20732568082979008,-0.2,1.0,0.0,419.0,974.0,0.0,0,-863.0,1
1355,1355,0.5677720902521238,0.6,0.0,0.0,288.0,571.0,0.0,1,-799.0,1
1356,1356,-0.6905703515278705,-0.7,1.0,0.0,275.0,932.0,0.0,0,-1127.0,1
1357,1357,0.025209948312306385,0.0,0.0,0.0,252.0,821.0,0.0,1,-413.0,1
1358,1358,0.17737777257760368,0.2,0.0,0.0,280.0,993.0,0.0,1,-553.0,1
1359,1359,0.12007763842875485,0.1,0.0,0.0,448.0,607.0,0.0,1,315.0,1
1360,1360,-0.8776832760501448,-0.9,1.0,0.0,319.0,631.0,1.0,1,220.0,0
1361,1361,0.1252283367478294,0.1,0.0,0.0,327.0,600.0,0.0,1,213.0,1
1362,1362,0.09888692744214667,0.1,1.0,1.0,450.0,694.0,0.0,0,-914.0,0
1363,1363,-0.06272195696153848,-0.1,0.0,1.0,359.0,802.0,1.0,0,1499.0,1
1364,1364,-0.06681059179983073,-0.1,1.0,0.0,462.0,537.0,0.0,0,581.0,1
1365,1365,0.23739914451013167,0.2,1.0,1.0,429.0,764.0,0.0,0,-1103.0,0
1366,1366,-0.07382848548632404,-0.1,0.0,1.0,478.0,945.0,0.0,1,-1373.0,0
1367,1367,0.7512661810736502,0.8,0.0,0.0,420.0,735.0,0.0,1,355.0,1
1368,1368,0.3690640959564978,0.4,1.0,1.0,404.0,953.0,0.0,0,-1297.0,0
1369,1369,-0.10500276495129979,-0.1,0.0,1.0,443.0,708.0,0.0,1,-1141.0,0
1370,1370,-0.6681424949973429,-0.7,0.0,1.0,461.0,581.0,1.0,0,3958.0,1
1371,1371,0.6835922241838871,0.7,1.0,1.0,385.0,844.0,1.0,1,-209.0,1
1372,1372,-0.04132395314179338,-0.0,0.0,1.0,392.0,989.0,0.0,1,-21.0,0
1373,1373,0.3558072252185015,0.4,0.0,0.0,382.0,938.0,1.0,0,-1320.0,0
1374,1374,0.11369242625200038,0.1,1.0,1.0,467.0,617.0,0.0,0,-44.0,0
1375,1375,0.6580613858134944,0.7,1.0,1.0,447.0,849.0,0.0,0,3524.0,0
1376,1376,0.22153345120567713,0.2,1.0,1.0,461.0,689.0,1.0,1,-1060.0,1
1377,1377,-0.7424877248467473,-0.7,1.0,0.0,452.0,957.0,0.0,0,401.0,1
1378,1378,0.3392944951488216,0.3,0.0,0.0,380.0,618.0,0.0,1,-828.0,1
1379,1379,-0.8173526929105784,-0.8,0.0,1.0,299.0,822.0,0.0,1,-431.0,0
1380,1380,-0.836535019802662,-0.8,0.0,1.0,298.0,922.0,1.0,0,360.0,1
1381,1381,-0.06107937936536734,-0.1,1.0,0.0,372.0,762.0,0.0,0,-754.0,1
1382,1382,-0.7232977899886603,-0.7,0.0,1.0,330.0,994.0,0.0,1,-624.0,0
1383,1383,0.6109233045773931,0.6,1.0,1.0,490.0,932.0,0.0,0,-1252.0,0
1384,1384,-0.3930573008850643,-0.4,1.0,0.0,426.0,590.0,1.0,1,1064.0,0
1385,1385,0.6098634054259399,0.6,0.0,0.0,439.0,770.0,0.0,1,1561.0,1
1386,1386,-0.22692133128224123,-0.2,0.0,1.0,287.0,891.0,1.0,0,-708.0,1
1387,1387,-0.3683362583981057,-0.4,0.0,1.0,382.0,589.0,0.0,1,1919.0,0
1388,1388,-0.5493584739764437,-0.5,1.0,0.0,272.0,984.0,0.0,0,-256.0,1
1389,1389,-0.567427529129605,-0.6,0.0,1.0,421.0,907.0,0.0,1,572.0,0
1390,1390,0.10607511041213435,0.1,0.0,0.0,252.0,771.0,0.0,1,-823.0,1
1391,1391,0.19789582146094775,0.2,0.0,0.0,401.0,674.0,0.0,1,-885.0,1
1392,1392,0.62477523584158,0.6,1.0,1.0,481.0,883.0,0.0,0,-1124.0,0
1393,1393,0.33047669005217994,0.3,0.0,0.0,451.0,749.0,1.0,0,-180.0,0
1394,1394,0.31189192998152493,0.3,1.0,1.0,434.0,704.0,0.0,0,-828.0,0
1395,1395,-0.6666693928106404,-0.7,1.0,0.0,286.0,643.0,1.0,1,1331.0,0
1396,1396,0.8833571856267753,0.9,0.0,0.0,294.0,980.0,1.0,0,-734.0,0
1397,1397,0.18793813738566534,0.2,1.0,1.0,466.0,998.0,0.0,0,-774.0,0
1398,1398,0.012264032090762877,0.0,1.0,1.0,418.0,563.0,1.0,1,-371.0,1
1399,1399,-0.16346978791484734,-0.2,1.0,0.0,382.0,683.0,0.0,0,1165.0,1
1400,1400,0.3442874552056955,0.3,1.0,1.0,292.0,596.0,0.0,0,-868.0,0
1401,1401,0.5661395991174262,0.6,0.0,0.0,329.0,983.0,0.0,1,-292.0,1
1402,1402,0.13353068903414733,0.1,1.0,1.0,452.0,646.0,0.0,0,-608.0,0
1403,1403,-0.46773828527174555,-0.5,1.0,0.0,342.0,907.0,0.0,0,-799.0,1
1404,1404,-0.7053295586006529,-0.7,0.0,1.0,386.0,979.0,1.0,0,-445.0,1
1405,1405,0.06120062857891817,0.1,1.0,1.0,263.0,655.0,0.0,0,-898.0,0
1406,1406,-0.5156615321765301,-0.5,1.0,0.0,333.0,995.0,0.0,0,-988.0,1
1407,1407,-0.31618650189522024,-0.3,1.0,0.0,250.0,698.0,0.0,0,-748.0,1
1408,1408,-0.4390298023465223,-0.4,0.0,1.0,384.0,652.0,1.0,0,-36.0,1
1409,1409,-0.5800139335950277,-0.6,1.0,0.0,416.0,729.0,1.0,1,-1125.0,0
1410,1410,0.4711368723134809,0.5,1.0,1.0,293.0,647.0,1.0,1,550.0,1
1411,1411,0.2823034094477911,0.3,0.0,0.0,343.0,997.0,1.0,0,1000.0,0
1412,1412,-0.3891120660557287,-0.4,0.0,1.0,498.0,830.0,1.0,0,-78.0,1
1413,1413,-0.18251543444451102,-0.2,0.0,1.0,483.0,944.0,0.0,1,-867.0,0
1414,1414,0.007707525739619747,0.0,0.0,0.0,376.0,770.0,0.0,1,684.0,1
1415,1415,-0.5909049934111597,-0.6,0.0,1.0,420.0,988.0,0.0,1,-128.0,0
1416,1416,-0.43319915587387087,-0.4,1.0,0.0,297.0,583.0,0.0,0,1450.0,1
1417,1417,-0.5587037922921616,-0.6,1.0,0.0,473.0,664.0,0.0,0,-1107.0,1
1418,1418,0.6006178292266816,0.6,0.0,0.0,328.0,933.0,1.0,0,2189.0,0
1419,1419,0.7127199735845519,0.7,0.0,0.0,320.0,946.0,0.0,1,-1226.0,1
1420,1420,0.020628927090032834,0.0,1.0,1.0,490.0,753.0,1.0,1,-1083.0,1
1421,1421,0.23018012032453028,0.2,0.0,0.0,441.0,796.0,0.0,1,-577.0,1
1422,1422,-0.5670468956439046,-0.6,1.0,0.0,455.0,502.0,0.0,0,-427.0,1
1423,1423,0.08387993490542478,0.1,1.0,1.0,415.0,697.0,0.0,0,-302.0,0
1424,1424,0.713116224082733,0.7,0.0,0.0,372.0,982.0,0.0,1,666.0,1
1425,1425,0.26435710009198965,0.3,0.0,0.0,327.0,597.0,1.0,0,1196.0,0
1426,1426,-0.15547552442412071,-0.2,1.0,0.0,461.0,556.0,0.0,0,1573.0,1
1427,1427,0.5102994252678056,0.5,0.0,0.0,267.0,811.0,0.0,1,-508.0,1
1428,1428,-0.013289963058811471,-0.0,0.0,1.0,357.0,799.0,1.0,0,2644.0,1
1429,1429,-0.481371726491304,-0.5,0.0,1.0,343.0,654.0,0.0,1,-327.0,0
1430,1430,-0.7305874078474149,-0.7,1.0,0.0,453.0,901.0,1.0,1,1536.0,0
1431,1431,0.21958970453345816,0.2,1.0,1.0,494.0,837.0,1.0,1,-51.0,1
1432,1432,0.8073659639798944,0.8,0.0,0.0,260.0,639.0,1.0,0,4101.0,0
1433,1433,0.776119899288186,0.8,0.0,0.0,385.0,594.0,1.0,0,1271.0,0
1434,1434,0.7933007214355442,0.8,1.0,1.0,284.0,923.0,0.0,0,2883.0,0
1435,1435,-0.556903065215477,-0.6,1.0,0.0,361.0,772.0,1.0,1,1187.0,0
1436,1436,-0.8807471438159173,-0.9,1.0,0.0,313.0,647.0,0.0,0,-850.0,1
1437,1437,0.1656445908035581,0.2,0.0,0.0,382.0,875.0,0.0,1,-977.0,1
1438,1438,0.002790629234866948,0.0,1.0,1.0,489.0,844.0,0.0,0,-1323.0,0
1439,1439,0.7091226276511301,0.7,0.0,0.0,331.0,810.0,1.0,0,-121.0,0
1440,1440,-0.8640674629708357,-0.9,0.0,1.0,395.0,504.0,0.0,1,-729.0,0
1441,1441,-0.699925952357908,-0.7,1.0,0.0,323.0,795.0,0.0,0,-858.0,1
1442,1442,-0.7477552421048942,-0.7,1.0,0.0,483.0,932.0,1.0,1,245.0,0
1443,1443,0.3689277017352043,0.4,0.0,0.0,396.0,759.0,1.0,0,875.0,0
1444,1444,-0.19191094517855045,-0.2,0.0,1.0,352.0,999.0,1.0,0,-771.0,1
1445,1445,0.7748039042633007,0.8,0.0,0.0,316.0,738.0,0.0,1,-874.0,1
1446,1446,0.422249860027455,0.4,1.0,1.0,454.0,951.0,0.0,0,-825.0,0
1447,1447,-0.5334264734994556,-0.5,1.0,0.0,258.0,680.0,1.0,1,-918.0,0
1448,1448,-0.6254077708560832,-0.6,0.0,1.0,405.0,643.0,1.0,0,302.0,1
1449,1449,-0.6551838836681025,-0.7,1.0,0.0,275.0,651.0,1.0,1,544.0,0
1450,1450,0.6807251218103488,0.7,0.0,0.0,446.0,827.0,1.0,0,887.0,0
1451,1451,0.29560298514590977,0.3,1.0,1.0,333.0,842.0,1.0,1,165.0,1
1452,1452,0.101926005079913,0.1,0.0,0.0,434.0,508.0,0.0,1,-142.0,1
1453,1453,-0.8544783553204874,-0.9,1.0,0.0,259.0,608.0,1.0,1,173.0,0
1454,1454,-0.7938946099351034,-0.8,0.0,1.0,273.0,523.0,0.0,1,-636.0,0
1455,1455,0.11237615572380155,0.1,0.0,0.0,268.0,805.0,0.0,1,237.0,1
1456,1456,0.34869889271432786,0.3,0.0,0.0,355.0,732.0,0.0,1,1983.0,1
1457,1457,0.8412986363012337,0.8,0.0,0.0,497.0,930.0,1.0,0,-1417.0,0
1458,1458,0.757159338632231,0.8,1.0,1.0,312.0,933.0,1.0,1,15.0,1
1459,1459,-0.4647491905640788,-0.5,0.0,1.0,276.0,831.0,0.0,1,-757.0,0
1460,1460,-0.10120425642132791,-0.1,0.0,1.0,482.0,888.0,1.0,0,100.0,1
1461,1461,-0.2910784369926933,-0.3,0.0,1.0,390.0,661.0,1.0,0,-111.0,1
1462,1462,-0.21590398035444114,-0.2,1.0,0.0,490.0,729.0,1.0,1,2301.0,0
1463,1463,0.17839651937533485,0.2,0.0,0.0,260.0,928.0,0.0,1,-988.0,1
1464,1464,0.40919797560847326,0.4,1.0,1.0,451.0,601.0,1.0,1,-282.0,1
1465,1465,0.07045347793510981,0.1,1.0,1.0,363.0,581.0,1.0,1,-874.0,1
1466,1466,0.43654168580422914,0.4,1.0,1.0,374.0,966.0,0.0,0,100.0,0
1467,1467,-0.6404342107099552,-0.6,0.0,1.0,388.0,579.0,0.0,1,-397.0,0
1468,1468,-0.8469071193199522,-0.8,0.0,1.0,266.0,523.0,1.0,0,2361.0,1
1469,1469,-0.5261937591914065,-0.5,1.0,0.0,353.0,820.0,1.0,1,1227.0,0
1470,1470,-0.05966756393481443,-0.1,0.0,1.0,403.0,599.0,0.0,1,-492.0,0
1471,1471,0.7519657511255015,0.8,1.0,1.0,459.0,576.0,0.0,0,-585.0,0
1472,1472,0.8569005005386324,0.9,1.0,1.0,417.0,610.0,0.0,0,3303.0,0
1473,1473,-0.17420452831158229,-0.2,1.0,0.0,485.0,878.0,1.0,1,-1193.0,0
1474,1474,-0.8189365857686235,-0.8,0.0,1.0,474.0,557.0,0.0,1,-891.0,0
1475,1475,0.49610596131853246,0.5,0.0,0.0,310.0,750.0,0.0,1,890.0,1
