,trial,coherence,coherence_bin,green_side,correct_side,target_onset,checker_onset,decision,green_decision,decision_time,correct_decision
0,0,-0.8715903460114303,-0.9,0.0,1.0,445.0,688.0,1.0,0,367.0,1
1,1,-0.08186841891321783,-0.1,0.0,1.0,327.0,500.0,1.0,0,2173.0,1
2,2,0.20836275759527456,0.2,1.0,1.0,358.0,761.0,1.0,1,551.0,1
3,3,0.39408897060304005,0.4,1.0,1.0,260.0,533.0,1.0,1,257.0,1
4,4,0.21886165565541538,0.2,0.0,0.0,265.0,867.0,0.0,1,588.0,1
5,5,-0.3003170431290815,-0.3,0.0,1.0,486.0,546.0,1.0,0,168.0,1
6,6,0.04430869951844807,0.0,0.0,0.0,301.0,517.0,1.0,0,2182.0,0
7,7,-0.31173701822174105,-0.3,1.0,0.0,431.0,660.0,0.0,0,269.0,1
8,8,0.6631602589782969,0.7,0.0,0.0,304.0,776.0,0.0,1,90.0,1
9,9,0.3920966426928437,0.4,1.0,1.0,362.0,691.0,1.0,1,747.0,1
10,10,-0.39971089180291375,-0.4,1.0,0.0,403.0,768.0,0.0,0,129.0,1
11,11,0.6025430244329707,0.6,1.0,1.0,424.0,609.0,1.0,1,407.0,1
12,12,-0.621491709105697,-0.6,1.0,0.0,486.0,879.0,0.0,0,165.0,1
13,13,0.870349023658579,0.9,1.0,1.0,365.0,978.0,1.0,1,167.0,1
14,14,0.6906619907389678,0.7,1.0,1.0,375.0,791.0,1.0,1,204.0,1
15,15,0.14840204712081573,0.1,0.0,0.0,355.0,579.0,0.0,1,486.0,1
16,16,-0.5128882482726134,-0.5,0.0,1.0,304.0,626.0,1.0,0,120.0,1
17,17,0.02948714623168891,0.0,0.0,0.0,321.0,782.0,0.0,1,637.0,1
18,18,-0.19158811225637618,-0.2,0.0,1.0,276.0,954.0,1.0,0,1050.0,1
19,19,-0.18225431474444742,-0.2,1.0,0.0,261.0,978.0,0.0,0,981.0,1
20,20,-0.7046327399089606,-0.7,1.0,0.0,281.0,827.0,0.0,0,142.0,1
21,21,0.7944149022217376,0.8,0.0,0.0,470.0,802.0,0.0,1,208.0,1
22,22,0.29645054317575503,0.3,1.0,1.0,368.0,825.0,1.0,1,657.0,1
23,23,0.06072987449827871,0.1,1.0,1.0,412.0,912.0,1.0,1,1676.0,1
24,24,-0.5384992179285724,-0.5,1.0,0.0,358.0,932.0,0.0,0,-340.0,1
25,25,-0.7745524326758381,-0.8,0.0,1.0,438.0,610.0,1.0,0,222.0,1
26,26,0.24261527991925858,0.2,1.0,1.0,368.0,786.0,1.0,1,596.0,1
27,27,0.5755613862152921,0.6,1.0,1.0,477.0,897.0,1.0,1,496.0,1
28,28,0.5596306268128531,0.6,1.0,1.0,313.0,654.0,1.0,1,453.0,1
29,29,0.25038128199766174,0.3,0.0,0.0,431.0,828.0,0.0,1,311.0,1
30,30,-0.39383420277066683,-0.4,0.0,1.0,433.0,770.0,1.0,0,177.0,1
31,31,-0.3175183314225034,-0.3,1.0,0.0,411.0,637.0,0.0,0,322.0,1
32,32,-0.6770578384525006,-0.7,1.0,0.0,396.0,547.0,0.0,0,157.0,1
33,33,-0.2062720374979362,-0.2,0.0,1.0,267.0,506.0,1.0,0,207.0,1
34,34,0.05952758465775354,0.1,0.0,0.0,322.0,569.0,0.0,1,1239.0,1
35,35,0.576094198894911,0.6,0.0,0.0,403.0,872.0,0.0,1,205.0,1
36,36,0.5150251991910196,0.5,0.0,0.0,388.0,805.0,0.0,1,307.0,1
37,37,-0.5988080278577641,-0.6,1.0,0.0,453.0,714.0,0.0,0,123.0,1
38,38,-0.3819063795612486,-0.4,1.0,0.0,293.0,796.0,0.0,0,261.0,1
39,39,-0.002498824592711446,-0.0,1.0,0.0,330.0,689.0,1.0,1,1011.0,0
40,40,0.3895145486184478,0.4,1.0,1.0,325.0,798.0,1.0,1,417.0,1
41,41,0.22812552965814936,0.2,1.0,1.0,335.0,776.0,1.0,1,559.0,1
42,42,0.3299113736848588,0.3,1.0,1.0,490.0,787.0,1.0,1,683.0,1
43,43,0.4822000765430593,0.5,1.0,1.0,257.0,564.0,1.0,1,529.0,1
44,44,-0.05327098569670452,-0.1,0.0,1.0,406.0,859.0,0.0,1,1735.0,0
45,45,0.0708792479817193,0.1,1.0,1.0,447.0,834.0,0.0,0,1719.0,0
46,46,-0.6380749113099542,-0.6,1.0,0.0,261.0,704.0,0.0,0,445.0,1
47,47,0.22879218026919823,0.2,1.0,1.0,271.0,761.0,1.0,1,308.0,1
48,48,-0.866062043761147,-0.9,0.0,1.0,426.0,546.0,1.0,0,128.0,1
49,49,0.5889300998774775,0.6,0.0,0.0,334.0,635.0,0.0,1,221.0,1
50,50,-0.004372283222614848,-0.0,0.0,1.0,267.0,814.0,0.0,1,1199.0,0
51,51,-0.6932084693245218,-0.7,0.0,1.0,386.0,728.0,0.0,1,-234.0,0
52,52,0.06141424749125679,0.1,0.0,0.0,326.0,531.0,0.0,1,603.0,1
53,53,0.2280985790357014,0.2,1.0,1.0,359.0,636.0,1.0,1,945.0,1
54,54,0.12433285343608003,0.1,0.0,0.0,422.0,834.0,0.0,1,874.0,1
55,55,0.7141238847837715,0.7,1.0,1.0,419.0,718.0,1.0,1,253.0,1
56,56,-0.1255364246737225,-0.1,1.0,0.0,369.0,537.0,0.0,0,1204.0,1
57,57,-0.258600460228791,-0.3,1.0,0.0,398.0,658.0,0.0,0,514.0,1
58,58,0.004671390840033762,0.0,1.0,1.0,460.0,832.0,1.0,1,1708.0,1
59,59,-0.8470572502260744,-0.8,0.0,1.0,304.0,934.0,1.0,0,252.0,1
60,60,-0.7495923255384849,-0.7,1.0,0.0,386.0,527.0,0.0,0,317.0,1
61,61,-0.7253770473656675,-0.7,0.0,1.0,268.0,633.0,1.0,0,119.0,1
62,62,-0.43175293680660565,-0.4,0.0,1.0,369.0,649.0,1.0,0,302.0,1
63,63,0.4262080646017864,0.4,1.0,1.0,486.0,844.0,1.0,1,450.0,1
64,64,-0.04172271399247274,-0.0,0.0,1.0,422.0,824.0,1.0,0,1754.0,1
65,65,0.362640864537055,0.4,0.0,0.0,492.0,736.0,0.0,1,362.0,1
66,66,0.5574589133066151,0.6,0.0,0.0,346.0,543.0,0.0,1,191.0,1
67,67,0.4688768356700129,0.5,0.0,0.0,375.0,810.0,0.0,1,135.0,1
68,68,0.494083262443885,0.5,1.0,1.0,447.0,752.0,1.0,1,171.0,1
69,69,-0.49737994554938464,-0.5,0.0,1.0,441.0,687.0,1.0,0,252.0,1
70,70,-0.5564176625214148,-0.6,0.0,1.0,309.0,750.0,1.0,0,241.0,1
71,71,0.42466329159827254,0.4,1.0,1.0,463.0,545.0,1.0,1,642.0,1
72,72,-0.8816597122730703,-0.9,0.0,1.0,454.0,779.0,1.0,0,357.0,1
73,73,0.5643730804363424,0.6,1.0,1.0,488.0,840.0,1.0,1,1202.0,1
74,74,0.23161654193103287,0.2,0.0,0.0,255.0,649.0,0.0,1,486.0,1
75,75,0.49733529911357677,0.5,1.0,1.0,297.0,814.0,1.0,1,149.0,1
76,76,0.7472796442109167,0.7,0.0,0.0,476.0,876.0,0.0,1,168.0,1
77,77,-0.5141991989686716,-0.5,1.0,0.0,315.0,880.0,0.0,0,-65.0,1
78,78,-0.5287475009386673,-0.5,1.0,0.0,461.0,578.0,0.0,0,301.0,1
79,79,0.6230667592217519,0.6,0.0,0.0,443.0,862.0,0.0,1,195.0,1
80,80,0.30294061243623427,0.3,0.0,0.0,405.0,521.0,0.0,1,394.0,1
81,81,-0.8514616669417452,-0.9,1.0,0.0,444.0,672.0,0.0,0,274.0,1
82,82,-0.5817162714971535,-0.6,0.0,1.0,434.0,679.0,1.0,0,267.0,1
83,83,0.3550130151093135,0.4,0.0,0.0,376.0,646.0,0.0,1,388.0,1
84,84,0.259937551391734,0.3,0.0,0.0,427.0,702.0,0.0,1,731.0,1
85,85,-0.8956387043775247,-0.9,1.0,0.0,291.0,611.0,0.0,0,258.0,1
86,86,-0.8533125068543406,-0.9,0.0,1.0,484.0,756.0,1.0,0,240.0,1
87,87,0.16723327053543102,0.2,1.0,1.0,430.0,549.0,1.0,1,2021.0,1
88,88,0.09152010560019641,0.1,1.0,1.0,414.0,907.0,1.0,1,1679.0,1
89,89,0.5632713693583241,0.6,0.0,0.0,297.0,971.0,0.0,1,302.0,1
90,90,0.22743214244788035,0.2,1.0,1.0,377.0,905.0,1.0,1,828.0,1
91,91,-0.7598994881605181,-0.8,0.0,1.0,308.0,778.0,1.0,0,314.0,1
92,92,0.4104896115758706,0.4,1.0,1.0,367.0,550.0,1.0,1,283.0,1
93,93,-0.16983003461798318,-0.2,0.0,1.0,276.0,861.0,1.0,0,123.0,1
94,94,-0.039345819161509143,-0.0,1.0,0.0,414.0,760.0,0.0,0,1026.0,1
95,95,-0.40083718269598384,-0.4,0.0,1.0,271.0,722.0,1.0,0,317.0,1
96,96,-0.6868779998676893,-0.7,1.0,0.0,349.0,647.0,0.0,0,454.0,1
97,97,-0.6131081042610373,-0.6,1.0,0.0,469.0,992.0,0.0,0,109.0,1
98,98,-0.3005857940174673,-0.3,0.0,1.0,360.0,507.0,1.0,0,523.0,1
99,99,-0.36072010885346806,-0.4,0.0,1.0,328.0,801.0,1.0,0,161.0,1
100,100,0.29346216591657226,0.3,0.0,0.0,352.0,512.0,0.0,1,356.0,1
101,101,0.15697812965043767,0.2,1.0,1.0,285.0,550.0,1.0,1,885.0,1
102,102,0.8739944578456252,0.9,1.0,1.0,291.0,744.0,1.0,1,145.0,1
103,103,-0.26602125494235995,-0.3,0.0,1.0,294.0,959.0,1.0,0,227.0,1
104,104,-0.41620651641722545,-0.4,1.0,0.0,263.0,558.0,0.0,0,369.0,1
105,105,0.654150349458766,0.7,0.0,0.0,269.0,503.0,0.0,1,408.0,1
106,106,0.327904295015763,0.3,1.0,1.0,393.0,542.0,1.0,1,455.0,1
107,107,-0.2823643954965488,-0.3,0.0,1.0,452.0,586.0,1.0,0,342.0,1
108,108,-0.08100478781551135,-0.1,1.0,0.0,431.0,926.0,0.0,0,723.0,1
109,109,-0.7761534083204137,-0.8,0.0,1.0,290.0,781.0,1.0,0,169.0,1
110,110,-0.20866219833772148,-0.2,0.0,1.0,379.0,865.0,1.0,0,306.0,1
111,111,0.29384186325844974,0.3,1.0,1.0,394.0,881.0,1.0,1,1165.0,1
112,112,-0.8397366199876044,-0.8,0.0,1.0,340.0,974.0,1.0,0,106.0,1
113,113,-0.5275708787860047,-0.5,1.0,0.0,463.0,960.0,0.0,0,187.0,1
114,114,-0.47062201331411024,-0.5,0.0,1.0,404.0,552.0,1.0,0,614.0,1
115,115,-0.762311431268163,-0.8,1.0,0.0,290.0,672.0,0.0,0,278.0,1
116,116,-0.688131454912643,-0.7,1.0,0.0,496.0,579.0,0.0,0,195.0,1
117,117,-0.5932648764411528,-0.6,1.0,0.0,376.0,613.0,0.0,0,161.0,1
118,118,-0.5566970301993561,-0.6,0.0,1.0,391.0,610.0,1.0,0,169.0,1
119,119,0.014747717800750126,0.0,1.0,1.0,434.0,872.0,0.0,0,1694.0,0
120,120,-0.07901951842018762,-0.1,0.0,1.0,294.0,787.0,1.0,0,1919.0,1
121,121,-0.5376255465514532,-0.5,0.0,1.0,454.0,579.0,1.0,0,207.0,1
122,122,-0.1739914878643265,-0.2,0.0,1.0,392.0,973.0,1.0,0,1275.0,1
123,123,-0.41549758820244054,-0.4,1.0,0.0,369.0,567.0,0.0,0,244.0,1
124,124,0.41920498455047317,0.4,0.0,0.0,355.0,698.0,0.0,1,257.0,1
125,125,-0.14632632918842148,-0.1,1.0,0.0,447.0,708.0,0.0,0,1475.0,1
126,126,-0.29985962153486956,-0.3,0.0,1.0,481.0,617.0,1.0,0,92.0,1
127,127,0.5609053298613645,0.6,1.0,1.0,271.0,631.0,1.0,1,238.0,1
128,128,0.32858639622815156,0.3,0.0,0.0,366.0,786.0,0.0,1,778.0,1
129,129,0.7311665110054247,0.7,1.0,1.0,467.0,820.0,1.0,1,133.0,1
130,130,-0.669222621328111,-0.7,1.0,0.0,362.0,567.0,0.0,0,251.0,1
131,131,0.279601432689886,0.3,1.0,1.0,328.0,623.0,1.0,1,719.0,1
132,132,-0.3893732593348097,-0.4,1.0,0.0,375.0,786.0,0.0,0,99.0,1
133,133,-0.8794700689797633,-0.9,1.0,0.0,258.0,561.0,0.0,0,221.0,1
134,134,-0.4868323067707187,-0.5,0.0,1.0,373.0,972.0,1.0,0,425.0,1
135,135,-0.5655554220108723,-0.6,1.0,0.0,316.0,810.0,0.0,0,184.0,1
136,136,0.75524582673338,0.8,0.0,0.0,336.0,654.0,0.0,1,240.0,1
137,137,-0.3178874724798688,-0.3,1.0,0.0,332.0,579.0,0.0,0,599.0,1
138,138,-0.6952061679299391,-0.7,1.0,0.0,330.0,620.0,0.0,0,390.0,1
139,139,-0.4708315997973919,-0.5,1.0,0.0,271.0,869.0,0.0,0,420.0,1
140,140,0.7988637288399897,0.8,0.0,0.0,389.0,888.0,0.0,1,103.0,1
141,141,0.3507078685039754,0.4,0.0,0.0,326.0,723.0,0.0,1,331.0,1
142,142,0.022086978629373366,0.0,1.0,1.0,369.0,688.0,1.0,1,1323.0,1
143,143,-0.6158426624291804,-0.6,1.0,0.0,343.0,711.0,0.0,0,496.0,1
144,144,-0.43783407149827575,-0.4,0.0,1.0,458.0,956.0,1.0,0,476.0,1
145,145,-0.14352669375843652,-0.1,1.0,0.0,326.0,620.0,0.0,0,364.0,1
146,146,0.17701525984254285,0.2,1.0,1.0,449.0,569.0,1.0,1,1982.0,1
147,147,0.45553013746852533,0.5,0.0,0.0,365.0,825.0,0.0,1,260.0,1
148,148,0.3712478476166182,0.4,1.0,1.0,297.0,889.0,1.0,1,514.0,1
149,149,0.18561102961472475,0.2,0.0,0.0,285.0,632.0,0.0,1,1133.0,1
150,150,-0.7860824411734487,-0.8,1.0,0.0,316.0,942.0,0.0,0,292.0,1
151,151,-0.4816787681851608,-0.5,0.0,1.0,261.0,985.0,1.0,0,224.0,1
152,152,-0.45634348947659226,-0.5,0.0,1.0,468.0,552.0,1.0,0,270.0,1
153,153,-0.5057606125917625,-0.5,1.0,0.0,432.0,991.0,0.0,0,397.0,1
154,154,0.5227513415871398,0.5,0.0,0.0,254.0,779.0,0.0,1,307.0,1
155,155,0.18121101906074533,0.2,1.0,1.0,474.0,913.0,1.0,1,1613.0,1
156,156,0.030275866758856962,0.0,1.0,1.0,262.0,523.0,0.0,0,2215.0,0
157,157,-0.28055651106782387,-0.3,0.0,1.0,370.0,971.0,1.0,0,199.0,1
158,158,-0.6662931930409686,-0.7,0.0,1.0,317.0,840.0,1.0,0,133.0,1
159,159,0.8051057307209605,0.8,0.0,0.0,485.0,649.0,0.0,1,296.0,1
160,160,0.2158265682700743,0.2,1.0,1.0,367.0,687.0,1.0,1,966.0,1
161,161,0.2988732458258775,0.3,0.0,0.0,253.0,534.0,0.0,1,693.0,1
162,162,-0.18898161492629695,-0.2,0.0,1.0,447.0,749.0,1.0,0,214.0,1
163,163,-0.43699880570927646,-0.4,0.0,1.0,433.0,756.0,1.0,0,221.0,1
164,164,0.3278185624544955,0.3,1.0,1.0,418.0,619.0,1.0,1,103.0,1
165,165,-0.17761939045274744,-0.2,1.0,0.0,324.0,849.0,0.0,0,1447.0,1
166,166,-0.7261276795018274,-0.7,0.0,1.0,497.0,594.0,1.0,0,169.0,1
167,167,0.793641299498112,0.8,0.0,0.0,426.0,921.0,0.0,1,63.0,1
168,168,0.4240392772610674,0.4,0.0,0.0,459.0,545.0,0.0,1,516.0,1
169,169,-0.30728439488446024,-0.3,0.0,1.0,348.0,571.0,1.0,0,921.0,1
170,170,-0.16769967654844442,-0.2,1.0,0.0,292.0,617.0,0.0,0,421.0,1
171,171,-0.39062752626839514,-0.4,1.0,0.0,471.0,513.0,0.0,0,586.0,1
172,172,0.05120122785619241,0.1,0.0,0.0,438.0,936.0,0.0,1,1116.0,1
173,173,-0.10468919509002472,-0.1,1.0,0.0,372.0,877.0,0.0,0,691.0,1
174,174,0.7431739397195182,0.7,1.0,1.0,464.0,733.0,1.0,1,293.0,1
175,175,-0.29094933583667526,-0.3,0.0,1.0,451.0,558.0,1.0,0,491.0,1
176,176,0.4676283835622962,0.5,1.0,1.0,366.0,582.0,1.0,1,262.0,1
177,177,-0.3489352902912133,-0.3,0.0,1.0,481.0,732.0,1.0,0,357.0,1
178,178,0.3567744814340136,0.4,0.0,0.0,414.0,921.0,0.0,1,165.0,1
179,179,0.4585948663095153,0.5,1.0,1.0,348.0,833.0,1.0,1,279.0,1
180,180,-0.8772951150916162,-0.9,0.0,1.0,253.0,575.0,1.0,0,232.0,1
181,181,0.08283631332259833,0.1,0.0,0.0,419.0,635.0,0.0,1,1376.0,1
182,182,0.4171290508724087,0.4,0.0,0.0,459.0,592.0,0.0,1,279.0,1
183,183,0.4026795971523981,0.4,0.0,0.0,272.0,728.0,0.0,1,310.0,1
184,184,0.556594198055809,0.6,0.0,0.0,476.0,837.0,0.0,1,207.0,1
185,185,-0.8092980241603712,-0.8,0.0,1.0,417.0,876.0,1.0,0,117.0,1
186,186,0.6639866475720625,0.7,1.0,1.0,412.0,806.0,1.0,1,152.0,1
187,187,0.6221015531930024,0.6,1.0,1.0,440.0,654.0,1.0,1,136.0,1
188,188,-0.8823595957414335,-0.9,1.0,0.0,327.0,711.0,0.0,0,132.0,1
189,189,-0.020677892861165947,-0.0,1.0,0.0,441.0,928.0,0.0,0,1631.0,1
190,190,0.6414819693461543,0.6,1.0,1.0,492.0,702.0,1.0,1,296.0,1
191,191,0.8618403091096026,0.9,0.0,0.0,437.0,749.0,0.0,1,154.0,1
192,192,-0.324708699325016,-0.3,1.0,0.0,256.0,892.0,0.0,0,372.0,1
193,193,-0.14265203993037345,-0.1,1.0,0.0,370.0,771.0,0.0,0,589.0,1
194,194,0.7598045186821721,0.8,0.0,0.0,462.0,501.0,0.0,1,237.0,1
195,195,0.39019184574503696,0.4,1.0,1.0,321.0,943.0,1.0,1,336.0,1
196,196,0.3333400962498364,0.3,0.0,0.0,328.0,972.0,0.0,1,-180.0,1
197,197,0.16907505496954223,0.2,1.0,1.0,447.0,760.0,1.0,1,263.0,1
198,198,0.8023102572952169,0.8,0.0,0.0,377.0,989.0,0.0,1,-66.0,1
199,199,-0.8149730799898862,-0.8,0.0,1.0,342.0,989.0,1.0,0,139.0,1
200,200,0.8374468686470212,0.8,0.0,0.0,273.0,615.0,0.0,1,142.0,1
201,201,0.6140112460464783,0.6,0.0,0.0,360.0,953.0,0.0,1,397.0,1
202,202,0.09881130889105394,0.1,0.0,0.0,408.0,511.0,0.0,1,541.0,1
203,203,0.05919065073955776,0.1,1.0,1.0,317.0,629.0,0.0,0,244.0,0
204,204,0.5753617510856125,0.6,0.0,0.0,303.0,539.0,0.0,1,198.0,1
205,205,0.22676888457699806,0.2,0.0,0.0,400.0,644.0,0.0,1,1176.0,1
206,206,0.7906323839502586,0.8,1.0,1.0,395.0,845.0,1.0,1,150.0,1
207,207,-0.5943653526601398,-0.6,0.0,1.0,299.0,562.0,1.0,0,189.0,1
208,208,0.7734974470271464,0.8,1.0,1.0,274.0,816.0,1.0,1,270.0,1
209,209,0.06096795723413251,0.1,0.0,0.0,307.0,540.0,0.0,1,923.0,1
210,210,-0.6431778104162211,-0.6,1.0,0.0,450.0,896.0,0.0,0,124.0,1
211,211,-0.625021053222014,-0.6,0.0,1.0,334.0,788.0,1.0,0,238.0,1
212,212,0.7886084003221173,0.8,1.0,1.0,279.0,801.0,1.0,1,310.0,1
213,213,-0.8433604542291924,-0.8,0.0,1.0,424.0,617.0,1.0,0,429.0,1
214,214,-0.5222511693608565,-0.5,1.0,0.0,495.0,753.0,0.0,0,452.0,1
215,215,-0.2532974179137769,-0.3,1.0,0.0,471.0,624.0,0.0,0,605.0,1
216,216,-0.8685730685913184,-0.9,0.0,1.0,415.0,619.0,1.0,0,136.0,1
217,217,-0.3174993861886335,-0.3,0.0,1.0,263.0,832.0,1.0,0,345.0,1
218,218,0.3884473885932095,0.4,0.0,0.0,334.0,747.0,0.0,1,139.0,1
219,219,0.7678159630965101,0.8,1.0,1.0,448.0,764.0,1.0,1,238.0,1
220,220,0.7417487764894101,0.7,0.0,0.0,338.0,755.0,0.0,1,337.0,1
221,221,-0.7871025038931122,-0.8,1.0,0.0,405.0,684.0,0.0,0,251.0,1
222,222,-0.819167223406772,-0.8,0.0,1.0,465.0,733.0,1.0,0,102.0,1
223,223,0.2826998801966384,0.3,0.0,0.0,350.0,830.0,0.0,1,500.0,1
224,224,0.09535402911740909,0.1,0.0,0.0,287.0,593.0,0.0,1,340.0,1
225,225,-0.08084704579785995,-0.1,1.0,0.0,376.0,671.0,0.0,0,963.0,1
226,226,0.702579625783755,0.7,0.0,0.0,440.0,653.0,0.0,1,227.0,1
227,227,-0.18833719532345883,-0.2,1.0,0.0,299.0,769.0,0.0,0,1932.0,1
228,228,-0.7063867316003929,-0.7,0.0,1.0,354.0,768.0,1.0,0,118.0,1
229,229,0.43201940234048675,0.4,0.0,0.0,481.0,831.0,0.0,1,388.0,1
230,230,0.5248195439191153,0.5,1.0,1.0,433.0,754.0,1.0,1,193.0,1
231,231,-0.8683370098402672,-0.9,1.0,0.0,267.0,818.0,0.0,0,245.0,1
232,232,-0.7902950306852915,-0.8,1.0,0.0,277.0,575.0,0.0,0,158.0,1
233,233,-0.5659642844808133,-0.6,1.0,0.0,356.0,902.0,0.0,0,132.0,1
234,234,0.5405516154026481,0.5,0.0,0.0,293.0,744.0,0.0,1,413.0,1
235,235,0.11743850335430073,0.1,1.0,1.0,390.0,780.0,1.0,1,1820.0,1
236,236,0.6020591367006444,0.6,0.0,0.0,268.0,924.0,0.0,1,238.0,1
237,237,0.4112292950618527,0.4,0.0,0.0,437.0,901.0,0.0,1,402.0,1
238,238,0.5832317294449466,0.6,0.0,0.0,420.0,819.0,0.0,1,141.0,1
239,239,0.5308994783616255,0.5,0.0,0.0,286.0,716.0,0.0,1,168.0,1
240,240,-0.04599844620512927,-0.0,1.0,0.0,269.0,581.0,1.0,1,2150.0,0
241,241,-0.03483954003038481,-0.0,0.0,1.0,402.0,850.0,1.0,0,1748.0,1
242,242,-0.5069687576923002,-0.5,0.0,1.0,255.0,752.0,1.0,0,323.0,1
243,243,-0.3751979203795939,-0.4,0.0,1.0,351.0,617.0,1.0,0,432.0,1
244,244,0.1968048755214099,0.2,1.0,1.0,453.0,772.0,1.0,1,1775.0,1
245,245,0.4558938317745801,0.5,0.0,0.0,452.0,875.0,0.0,1,393.0,1
246,246,-0.7128077270102233,-0.7,0.0,1.0,318.0,685.0,1.0,0,77.0,1
247,247,0.2240488148143448,0.2,0.0,0.0,412.0,971.0,0.0,1,737.0,1
248,248,0.7699862551014302,0.8,1.0,1.0,319.0,954.0,1.0,1,327.0,1
249,249,-0.436550761570865,-0.4,1.0,0.0,493.0,536.0,0.0,0,501.0,1
250,250,-0.6947586569161588,-0.7,0.0,1.0,396.0,910.0,1.0,0,264.0,1
251,251,0.7728893651083163,0.8,0.0,0.0,488.0,780.0,0.0,1,372.0,1
252,252,-0.5010099120612685,-0.5,1.0,0.0,339.0,509.0,0.0,0,132.0,1
253,253,-0.2908551917881168,-0.3,1.0,0.0,324.0,889.0,0.0,0,597.0,1
254,254,0.5637518015671862,0.6,0.0,0.0,429.0,633.0,0.0,1,198.0,1
255,255,0.6812462859889153,0.7,0.0,0.0,487.0,643.0,0.0,1,150.0,1
256,256,0.7606752216560874,0.8,1.0,1.0,319.0,571.0,1.0,1,190.0,1
257,257,0.32416026531693276,0.3,0.0,0.0,489.0,792.0,0.0,1,239.0,1
258,258,-0.6544705819908563,-0.7,1.0,0.0,291.0,905.0,0.0,0,184.0,1
259,259,0.5030915777154116,0.5,1.0,1.0,306.0,909.0,1.0,1,225.0,1
260,260,0.7056043672192404,0.7,1.0,1.0,252.0,865.0,1.0,1,133.0,1
261,261,-0.1621561172422631,-0.2,1.0,0.0,291.0,829.0,0.0,0,780.0,1
262,262,-0.762818927660015,-0.8,0.0,1.0,316.0,541.0,1.0,0,283.0,1
263,263,-0.3638362803841936,-0.4,1.0,0.0,395.0,928.0,0.0,0,127.0,1
264,264,0.6097698031630084,0.6,1.0,1.0,390.0,677.0,1.0,1,93.0,1
265,265,0.2718438848509349,0.3,0.0,0.0,327.0,969.0,0.0,1,174.0,1
266,266,-0.26389200956546766,-0.3,1.0,0.0,441.0,527.0,0.0,0,782.0,1
267,267,0.35072410354334405,0.4,0.0,0.0,430.0,845.0,0.0,1,575.0,1
268,268,0.875516953425158,0.9,0.0,0.0,488.0,963.0,0.0,1,119.0,1
269,269,0.2061862522651955,0.2,1.0,1.0,311.0,728.0,1.0,1,1001.0,1
270,270,0.331380455714008,0.3,0.0,0.0,466.0,640.0,0.0,1,34.0,1
271,271,-0.012129324974542444,-0.0,0.0,1.0,263.0,836.0,0.0,1,1901.0,0
272,272,-0.7816134055581277,-0.8,1.0,0.0,419.0,601.0,0.0,0,200.0,1
273,273,0.17430010526926087,0.2,1.0,1.0,294.0,655.0,1.0,1,451.0,1
274,274,0.42130496162147,0.4,0.0,0.0,297.0,817.0,0.0,1,296.0,1
275,275,-0.5127427672963327,-0.5,0.0,1.0,328.0,640.0,1.0,0,232.0,1
276,276,-0.411415798368959,-0.4,1.0,0.0,464.0,662.0,0.0,0,324.0,1
277,277,-0.13841907914365836,-0.1,1.0,0.0,418.0,678.0,0.0,0,1344.0,1
278,278,0.6486385277597019,0.6,0.0,0.0,396.0,556.0,0.0,1,268.0,1
279,279,0.10146419341258228,0.1,1.0,1.0,256.0,665.0,1.0,1,759.0,1
280,280,-0.037769407353792306,-0.0,1.0,0.0,259.0,705.0,0.0,0,656.0,1
281,281,-0.18192655740530594,-0.2,0.0,1.0,428.0,522.0,1.0,0,1710.0,1
282,282,-0.2744978578021592,-0.3,0.0,1.0,296.0,847.0,1.0,0,127.0,1
283,283,-0.24011822309711306,-0.2,0.0,1.0,421.0,888.0,1.0,0,1511.0,1
284,284,-0.8001017886057236,-0.8,1.0,0.0,388.0,649.0,0.0,0,133.0,1
285,285,-0.4515974118525002,-0.5,0.0,1.0,449.0,800.0,1.0,0,621.0,1
286,286,0.8844158952330033,0.9,1.0,1.0,322.0,955.0,1.0,1,193.0,1
287,287,0.019009809476661088,0.0,0.0,0.0,447.0,759.0,0.0,1,324.0,1
288,288,0.8922904071149468,0.9,1.0,1.0,397.0,953.0,1.0,1,230.0,1
289,289,0.4771024004138543,0.5,1.0,1.0,283.0,749.0,1.0,1,238.0,1
290,290,0.5061437250457962,0.5,0.0,0.0,284.0,853.0,0.0,1,243.0,1
291,291,-0.6514174481334102,-0.7,1.0,0.0,469.0,553.0,0.0,0,268.0,1
292,292,-0.135264618862311,-0.1,0.0,1.0,482.0,951.0,1.0,0,1237.0,1
293,293,0.5696038061157226,0.6,1.0,1.0,453.0,879.0,1.0,1,188.0,1
294,294,0.5737891610354339,0.6,0.0,0.0,353.0,529.0,0.0,1,188.0,1
295,295,0.18515808429527347,0.2,1.0,1.0,344.0,927.0,1.0,1,749.0,1
296,296,-0.218307307130155,-0.2,1.0,0.0,457.0,667.0,0.0,0,606.0,1
297,297,-0.7224780564301266,-0.7,0.0,1.0,480.0,581.0,1.0,0,209.0,1
298,298,0.11324823333057588,0.1,1.0,1.0,372.0,693.0,1.0,1,1565.0,1
299,299,0.0643193823868331,0.1,0.0,0.0,287.0,797.0,0.0,1,1916.0,1
300,300,0.29894094361340795,0.3,0.0,0.0,265.0,564.0,0.0,1,401.0,1
301,301,0.44931573895066557,0.4,0.0,0.0,330.0,715.0,0.0,1,165.0,1
302,302,0.8312589462827426,0.8,0.0,0.0,341.0,824.0,0.0,1,135.0,1
303,303,-0.14331487590565084,-0.1,0.0,1.0,381.0,953.0,1.0,0,1666.0,1
304,304,0.49691735220774136,0.5,0.0,0.0,341.0,916.0,0.0,1,133.0,1
305,305,0.4703132842422507,0.5,1.0,1.0,389.0,981.0,1.0,1,390.0,1
306,306,0.19940351816033342,0.2,0.0,0.0,433.0,898.0,0.0,1,929.0,1
307,307,-0.4819417819120881,-0.5,1.0,0.0,349.0,559.0,0.0,0,182.0,1
308,308,-0.38414716897415535,-0.4,1.0,0.0,355.0,848.0,0.0,0,207.0,1
309,309,0.6581075507683015,0.7,0.0,0.0,363.0,712.0,0.0,1,185.0,1
310,310,-0.19858860042456106,-0.2,0.0,1.0,477.0,764.0,1.0,0,1669.0,1
311,311,0.37395092446140377,0.4,1.0,1.0,274.0,868.0,1.0,1,178.0,1
312,312,0.2894943161704596,0.3,0.0,0.0,357.0,826.0,0.0,1,437.0,1
313,313,0.6656774895363394,0.7,1.0,1.0,292.0,770.0,1.0,1,178.0,1
314,314,0.18710298276541415,0.2,1.0,1.0,399.0,878.0,1.0,1,303.0,1
315,315,0.3266398814460879,0.3,0.0,0.0,453.0,576.0,0.0,1,391.0,1
316,316,0.503469823455959,0.5,0.0,0.0,305.0,863.0,0.0,1,102.0,1
317,317,-0.558559145093996,-0.6,0.0,1.0,434.0,823.0,1.0,0,723.0,1
318,318,-0.12811337140374934,-0.1,0.0,1.0,278.0,712.0,1.0,0,890.0,1
319,319,-0.23806850604220187,-0.2,0.0,1.0,320.0,704.0,1.0,0,146.0,1
320,320,0.8192609904668681,0.8,0.0,0.0,484.0,874.0,0.0,1,242.0,1
321,321,-0.7794703149895662,-0.8,1.0,0.0,295.0,940.0,0.0,0,205.0,1
322,322,0.41021766712385455,0.4,0.0,0.0,362.0,818.0,0.0,1,240.0,1
323,323,0.1859587469741456,0.2,0.0,0.0,406.0,725.0,0.0,1,569.0,1
324,324,-0.13090805475464606,-0.1,0.0,1.0,416.0,952.0,1.0,0,1632.0,1
325,325,-0.8441089885190088,-0.8,0.0,1.0,307.0,531.0,1.0,0,452.0,1
326,326,-0.7794907369637804,-0.8,0.0,1.0,337.0,606.0,1.0,0,197.0,1
327,327,-0.3462541569029628,-0.3,0.0,1.0,335.0,557.0,1.0,0,358.0,1
328,328,0.7585508004908091,0.8,1.0,1.0,267.0,643.0,1.0,1,500.0,1
329,329,0.4665139533879893,0.5,0.0,0.0,446.0,889.0,0.0,1,265.0,1
330,330,-0.19271619518261296,-0.2,1.0,0.0,440.0,765.0,0.0,0,225.0,1
331,331,-0.8796362343761146,-0.9,1.0,0.0,285.0,697.0,0.0,0,218.0,1
332,332,0.6975650630620546,0.7,0.0,0.0,409.0,661.0,0.0,1,140.0,1
333,333,-0.5333764864081414,-0.5,0.0,1.0,480.0,541.0,1.0,0,319.0,1
334,334,-0.16869761627203061,-0.2,1.0,0.0,292.0,652.0,0.0,0,586.0,1
335,335,-0.5089415969265049,-0.5,0.0,1.0,402.0,628.0,1.0,0,270.0,1
336,336,0.6516842713544245,0.7,0.0,0.0,294.0,883.0,0.0,1,213.0,1
337,337,-0.07952725557137708,-0.1,1.0,0.0,478.0,951.0,0.0,0,451.0,1
338,338,0.851739963261137,0.9,1.0,1.0,408.0,620.0,1.0,1,152.0,1
339,339,-0.6114107087348324,-0.6,1.0,0.0,285.0,876.0,0.0,0,169.0,1
340,340,0.10281379325951712,0.1,0.0,0.0,468.0,761.0,0.0,1,1111.0,1
341,341,0.8834530653886031,0.9,0.0,0.0,440.0,688.0,0.0,1,182.0,1
342,342,-0.4208920959878728,-0.4,1.0,0.0,311.0,767.0,0.0,0,552.0,1
343,343,0.7632872345304932,0.8,0.0,0.0,426.0,645.0,0.0,1,209.0,1
344,344,0.17757573418650574,0.2,1.0,1.0,297.0,789.0,1.0,1,464.0,1
345,345,-0.6147420471063605,-0.6,1.0,0.0,335.0,968.0,0.0,0,77.0,1
346,346,0.24122566401131496,0.2,0.0,0.0,463.0,605.0,0.0,1,802.0,1
347,347,-0.5037270780704194,-0.5,1.0,0.0,369.0,943.0,0.0,0,348.0,1
348,348,-0.7247412734909429,-0.7,0.0,1.0,410.0,748.0,1.0,0,102.0,1
349,349,0.25515813908130724,0.3,1.0,1.0,458.0,715.0,1.0,1,447.0,1
350,350,-0.5274313120804546,-0.5,1.0,0.0,291.0,706.0,0.0,0,253.0,1
351,351,-0.6001073543903017,-0.6,0.0,1.0,323.0,769.0,1.0,0,238.0,1
352,352,0.135498383606513,0.1,0.0,0.0,330.0,660.0,0.0,1,430.0,1
353,353,0.5866978855192094,0.6,0.0,0.0,337.0,922.0,0.0,1,-89.0,1
354,354,0.048094675902305206,0.0,0.0,0.0,371.0,919.0,0.0,1,1710.0,1
355,355,-0.42918178380829397,-0.4,1.0,0.0,284.0,960.0,0.0,0,326.0,1
356,356,-0.3654043703353338,-0.4,0.0,1.0,312.0,907.0,1.0,0,461.0,1
357,357,-0.8558254550010065,-0.9,1.0,0.0,468.0,926.0,0.0,0,186.0,1
358,358,-0.4831909846816592,-0.5,1.0,0.0,275.0,764.0,0.0,0,211.0,1
359,359,0.46227032279729097,0.5,1.0,1.0,374.0,708.0,1.0,1,348.0,1
360,360,0.3630260587763191,0.4,1.0,1.0,349.0,512.0,1.0,1,229.0,1
361,361,0.6064362777576181,0.6,0.0,0.0,338.0,731.0,0.0,1,211.0,1
362,362,0.6327290126303545,0.6,1.0,1.0,251.0,735.0,1.0,1,164.0,1
363,363,0.7729811368772509,0.8,1.0,1.0,450.0,914.0,1.0,1,266.0,1
364,364,0.23493184668020606,0.2,1.0,1.0,494.0,702.0,1.0,1,1284.0,1
365,365,-0.7035711781229248,-0.7,0.0,1.0,442.0,863.0,1.0,0,125.0,1
366,366,0.3110370887022361,0.3,1.0,1.0,338.0,756.0,1.0,1,636.0,1
367,367,0.06421543575260058,0.1,0.0,0.0,331.0,799.0,0.0,1,1310.0,1
368,368,0.5767649119848522,0.6,0.0,0.0,337.0,593.0,0.0,1,250.0,1
369,369,-0.24370619205660304,-0.2,1.0,0.0,300.0,811.0,0.0,0,369.0,1
370,370,-0.6473057975216463,-0.6,0.0,1.0,445.0,757.0,1.0,0,238.0,1
371,371,-0.713672680659778,-0.7,0.0,1.0,332.0,585.0,1.0,0,253.0,1
372,372,-0.7250470796649712,-0.7,1.0,0.0,406.0,824.0,0.0,0,110.0,1
373,373,0.7115869152361985,0.7,0.0,0.0,355.0,540.0,0.0,1,125.0,1
374,374,0.5934550407355802,0.6,0.0,0.0,454.0,553.0,0.0,1,213.0,1
375,375,0.18160312767704723,0.2,0.0,0.0,306.0,617.0,0.0,1,537.0,1
376,376,0.6500610665874093,0.7,0.0,0.0,349.0,984.0,0.0,1,-223.0,1
377,377,-0.2640664212660657,-0.3,0.0,1.0,310.0,631.0,1.0,0,389.0,1
378,378,-0.25752384381063276,-0.3,1.0,0.0,383.0,648.0,0.0,0,309.0,1
379,379,-0.6695570428125568,-0.7,1.0,0.0,462.0,676.0,0.0,0,312.0,1
380,380,0.7749522643144334,0.8,1.0,1.0,489.0,587.0,1.0,1,264.0,1
381,381,0.10746930040002411,0.1,0.0,0.0,457.0,577.0,1.0,0,96.0,0
382,382,0.4656818171286067,0.5,1.0,1.0,263.0,551.0,1.0,1,376.0,1
383,383,-0.7207157797084978,-0.7,0.0,1.0,463.0,779.0,1.0,0,298.0,1
384,384,-0.41869524156347177,-0.4,1.0,0.0,444.0,944.0,0.0,0,252.0,1
385,385,-0.3027458233742427,-0.3,1.0,0.0,318.0,960.0,0.0,0,392.0,1
386,386,-0.40590788227204494,-0.4,1.0,0.0,287.0,667.0,0.0,0,266.0,1
387,387,-0.3542686596706378,-0.4,0.0,1.0,323.0,982.0,1.0,0,395.0,1
388,388,0.6674497103633131,0.7,0.0,0.0,447.0,944.0,0.0,1,179.0,1
389,389,0.6470745627338043,0.6,0.0,0.0,276.0,693.0,0.0,1,181.0,1
390,390,-0.527568356908907,-0.5,0.0,1.0,264.0,623.0,1.0,0,313.0,1
391,391,-0.08783322834318441,-0.1,1.0,0.0,271.0,586.0,0.0,0,1033.0,1
392,392,0.5564666282676015,0.6,1.0,1.0,400.0,630.0,1.0,1,90.0,1
393,393,0.16351376976221121,0.2,1.0,1.0,471.0,775.0,1.0,1,1074.0,1
394,394,0.22031196711013934,0.2,1.0,1.0,279.0,677.0,1.0,1,634.0,1
395,395,0.5968975716169559,0.6,0.0,0.0,474.0,779.0,0.0,1,307.0,1
396,396,0.5785234194346575,0.6,0.0,0.0,398.0,643.0,0.0,1,169.0,1
397,397,-0.5647684963781174,-0.6,0.0,1.0,376.0,514.0,1.0,0,230.0,1
398,398,0.19034970063877588,0.2,1.0,1.0,496.0,963.0,1.0,1,561.0,1
399,399,-0.14816317985094551,-0.1,0.0,1.0,254.0,531.0,1.0,0,195.0,1
400,400,0.4791002786936919,0.5,1.0,1.0,316.0,811.0,1.0,1,503.0,1
401,401,0.7606072760204717,0.8,0.0,0.0,316.0,905.0,0.0,1,99.0,1
402,402,0.6514614449072905,0.7,0.0,0.0,421.0,544.0,0.0,1,375.0,1
403,403,0.4958587400351261,0.5,0.0,0.0,320.0,971.0,0.0,1,59.0,1
404,404,0.6934187051601061,0.7,0.0,0.0,499.0,779.0,0.0,1,242.0,1
405,405,-0.11031211350390269,-0.1,0.0,1.0,274.0,619.0,0.0,1,2107.0,0
406,406,-0.17902253243580935,-0.2,0.0,1.0,358.0,830.0,1.0,0,442.0,1
407,407,0.1851051704201715,0.2,0.0,0.0,252.0,758.0,0.0,1,820.0,1
408,408,0.7997161547632331,0.8,1.0,1.0,391.0,658.0,1.0,1,241.0,1
409,409,0.06219054256163992,0.1,1.0,1.0,327.0,562.0,1.0,1,2111.0,1
410,410,0.16491172672568488,0.2,0.0,0.0,393.0,566.0,0.0,1,871.0,1
411,411,0.7959163405709041,0.8,1.0,1.0,357.0,966.0,1.0,1,177.0,1
412,412,-0.207836751719095,-0.2,1.0,0.0,338.0,789.0,0.0,0,783.0,1
413,413,-0.6465799934875917,-0.6,1.0,0.0,353.0,554.0,0.0,0,223.0,1
414,414,-0.096889328019788,-0.1,1.0,0.0,419.0,948.0,0.0,0,893.0,1
415,415,0.23262523845982097,0.2,0.0,0.0,491.0,664.0,0.0,1,255.0,1
416,416,0.66784017752237,0.7,1.0,1.0,275.0,578.0,1.0,1,987.0,1
417,417,-0.3680800050490809,-0.4,0.0,1.0,374.0,834.0,1.0,0,132.0,1
418,418,0.825405529157793,0.8,1.0,1.0,279.0,744.0,1.0,1,287.0,1
419,419,0.5161326954258,0.5,1.0,1.0,346.0,843.0,1.0,1,251.0,1
420,420,0.6337555552880599,0.6,1.0,1.0,270.0,504.0,1.0,1,206.0,1
421,421,0.8582497627599136,0.9,1.0,1.0,349.0,682.0,1.0,1,159.0,1
422,422,0.4756276413614341,0.5,1.0,1.0,271.0,605.0,1.0,1,524.0,1
423,423,0.5821216687287428,0.6,0.0,0.0,451.0,736.0,0.0,1,223.0,1
424,424,-0.6360830015734484,-0.6,0.0,1.0,290.0,901.0,1.0,0,229.0,1
425,425,-0.6822716314183814,-0.7,1.0,0.0,321.0,966.0,0.0,0,293.0,1
426,426,0.8156045264224828,0.8,0.0,0.0,314.0,833.0,0.0,1,-127.0,1
427,427,-0.43959489784559086,-0.4,0.0,1.0,354.0,725.0,1.0,0,91.0,1
428,428,0.013103884172662394,0.0,1.0,1.0,251.0,920.0,0.0,0,1829.0,0
429,429,0.5925418797948668,0.6,1.0,1.0,367.0,596.0,1.0,1,237.0,1
430,430,0.8153403849927173,0.8,0.0,0.0,376.0,569.0,0.0,1,95.0,1
431,431,-0.14297049826401387,-0.1,1.0,0.0,497.0,903.0,0.0,0,220.0,1
432,432,-0.7642757336615011,-0.8,1.0,0.0,388.0,918.0,0.0,0,114.0,1
433,433,0.6431589404900852,0.6,0.0,0.0,254.0,622.0,0.0,1,204.0,1
434,434,0.5402329736133492,0.5,0.0,0.0,461.0,864.0,0.0,1,255.0,1
435,435,-0.32767234655624866,-0.3,1.0,0.0,377.0,959.0,0.0,0,384.0,1
436,436,0.8232588187628457,0.8,1.0,1.0,411.0,743.0,1.0,1,166.0,1
437,437,-0.2363116576371097,-0.2,0.0,1.0,251.0,951.0,1.0,0,578.0,1
438,438,0.6706301645639524,0.7,0.0,0.0,496.0,741.0,0.0,1,173.0,1
439,439,0.7518581262178358,0.8,0.0,0.0,416.0,825.0,0.0,1,39.0,1
440,440,-0.5499911868214251,-0.5,1.0,0.0,451.0,768.0,0.0,0,301.0,1
441,441,0.4036933987133885,0.4,0.0,0.0,439.0,692.0,0.0,1,269.0,1
442,442,0.5282641995683238,0.5,0.0,0.0,460.0,933.0,0.0,1,257.0,1
443,443,0.48679415905711665,0.5,0.0,0.0,364.0,933.0,0.0,1,-7.0,1
444,444,-0.4307300424331019,-0.4,0.0,1.0,387.0,776.0,1.0,0,137.0,1
445,445,0.6644313659507525,0.7,0.0,0.0,364.0,668.0,0.0,1,88.0,1
446,446,0.5843228011130185,0.6,0.0,0.0,456.0,632.0,0.0,1,362.0,1
447,447,-0.39504748176385907,-0.4,1.0,0.0,404.0,724.0,0.0,0,322.0,1
448,448,0.5000504151147672,0.5,1.0,1.0,494.0,886.0,1.0,1,320.0,1
449,449,-0.055885521889880496,-0.1,1.0,0.0,449.0,980.0,0.0,0,1571.0,1
450,450,-0.4762569109558307,-0.5,0.0,1.0,411.0,930.0,1.0,0,399.0,1
451,451,-0.4551077488057533,-0.5,1.0,0.0,375.0,635.0,0.0,0,230.0,1
452,452,-0.3034283075729327,-0.3,1.0,0.0,399.0,986.0,0.0,0,625.0,1
453,453,-0.2470425046317709,-0.2,0.0,1.0,450.0,591.0,1.0,0,329.0,1
454,454,-0.12691473222371452,-0.1,1.0,0.0,418.0,806.0,0.0,0,1146.0,1
455,455,-0.4037894173115178,-0.4,0.0,1.0,496.0,995.0,1.0,0,529.0,1
456,456,0.7378106695166912,0.7,1.0,1.0,309.0,760.0,1.0,1,231.0,1
457,457,0.8451164819495981,0.8,1.0,1.0,265.0,796.0,1.0,1,199.0,1
458,458,0.08974537047140152,0.1,0.0,0.0,471.0,639.0,0.0,1,450.0,1
459,459,-0.6341962133118263,-0.6,1.0,0.0,295.0,666.0,0.0,0,269.0,1
460,460,0.29929201930235927,0.3,1.0,1.0,497.0,898.0,1.0,1,1605.0,1
461,461,0.002807164384658667,0.0,1.0,1.0,440.0,528.0,1.0,1,2032.0,1
462,462,0.5462409209185956,0.5,1.0,1.0,274.0,931.0,1.0,1,205.0,1
463,463,0.7468910904960565,0.7,1.0,1.0,416.0,732.0,1.0,1,452.0,1
464,464,-0.11210735050589071,-0.1,0.0,1.0,255.0,515.0,1.0,0,900.0,1
465,465,-0.2772796015641297,-0.3,1.0,0.0,295.0,952.0,0.0,0,373.0,1
466,466,0.0126221032595083,0.0,1.0,1.0,461.0,562.0,0.0,0,1977.0,0
467,467,-0.5628381430112966,-0.6,1.0,0.0,253.0,899.0,0.0,0,278.0,1
468,468,0.6187032339038673,0.6,0.0,0.0,393.0,895.0,0.0,1,312.0,1
469,469,0.6713601970543744,0.7,0.0,0.0,498.0,830.0,0.0,1,192.0,1
470,470,0.7140815314436878,0.7,0.0,0.0,491.0,698.0,0.0,1,151.0,1
471,471,-0.36983074170727714,-0.4,1.0,0.0,430.0,531.0,0.0,0,389.0,1
472,472,0.1878409261112054,0.2,1.0,1.0,311.0,771.0,1.0,1,1008.0,1
473,473,-0.3514810220788568,-0.4,0.0,1.0,293.0,730.0,1.0,0,227.0,1
474,474,0.705234929438081,0.7,1.0,1.0,451.0,850.0,1.0,1,129.0,1
475,475,-0.07632065102547814,-0.1,0.0,1.0,369.0,795.0,1.0,0,1836.0,1
476,476,0.7177075775237195,0.7,1.0,1.0,310.0,799.0,1.0,1,231.0,1
477,477,-0.3843307384766482,-0.4,1.0,0.0,413.0,806.0,0.0,0,211.0,1
478,478,0.5135538944707018,0.5,1.0,1.0,330.0,668.0,1.0,1,312.0,1
479,479,0.8324832898906641,0.8,0.0,0.0,467.0,629.0,0.0,1,254.0,1
480,480,0.12413227568268226,0.1,0.0,0.0,438.0,729.0,0.0,1,1023.0,1
481,481,-0.058630846057269204,-0.1,1.0,0.0,437.0,898.0,0.0,0,605.0,1
482,482,-0.5398697726583763,-0.5,0.0,1.0,485.0,783.0,1.0,0,412.0,1
483,483,0.029206780510896202,0.0,1.0,1.0,321.0,865.0,0.0,0,1554.0,0
484,484,0.33515030533620627,0.3,0.0,0.0,423.0,650.0,0.0,1,257.0,1
485,485,-0.312008329107618,-0.3,0.0,1.0,335.0,506.0,1.0,0,199.0,1
486,486,0.4458395973321895,0.4,0.0,0.0,385.0,926.0,0.0,1,159.0,1
487,487,0.22139165660910132,0.2,1.0,1.0,263.0,633.0,1.0,1,634.0,1
488,488,0.4879145287141614,0.5,1.0,1.0,370.0,717.0,1.0,1,353.0,1
489,489,-0.3932875093003265,-0.4,1.0,0.0,384.0,515.0,0.0,0,331.0,1
490,490,-0.7260520991213613,-0.7,0.0,1.0,253.0,643.0,1.0,0,354.0,1
491,491,0.1830666700245357,0.2,0.0,0.0,461.0,610.0,0.0,1,949.0,1
492,492,0.09461519599755253,0.1,1.0,1.0,417.0,864.0,1.0,1,1449.0,1
493,493,0.7761918213416165,0.8,0.0,0.0,269.0,937.0,0.0,1,64.0,1
494,494,0.49759047955316793,0.5,0.0,0.0,451.0,876.0,0.0,1,363.0,1
495,495,-0.5266879511928013,-0.5,0.0,1.0,303.0,622.0,1.0,0,285.0,1
496,496,-0.23914734461768872,-0.2,1.0,0.0,389.0,856.0,0.0,0,305.0,1
497,497,-0.3696395315163581,-0.4,1.0,0.0,299.0,972.0,0.0,0,389.0,1
498,498,0.2682475143484043,0.3,1.0,1.0,275.0,991.0,1.0,1,534.0,1
499,499,0.0963730230963511,0.1,1.0,1.0,450.0,684.0,1.0,1,566.0,1
500,500,0.23462576262181412,0.2,0.0,0.0,293.0,635.0,0.0,1,1042.0,1
501,501,0.7382303529874604,0.7,1.0,1.0,482.0,866.0,1.0,1,162.0,1
502,502,0.32849758146962194,0.3,0.0,0.0,478.0,536.0,0.0,1,256.0,1
503,503,-0.1434932644469471,-0.1,0.0,1.0,257.0,628.0,1.0,0,285.0,1
504,504,0.046720254508194836,0.0,0.0,0.0,329.0,581.0,0.0,1,1280.0,1
505,505,-0.7092563396596702,-0.7,1.0,0.0,369.0,826.0,0.0,0,195.0,1
506,506,0.8275883192634531,0.8,1.0,1.0,393.0,740.0,1.0,1,247.0,1
507,507,0.5051480827268219,0.5,0.0,0.0,356.0,618.0,0.0,1,206.0,1
508,508,-0.6092165848292601,-0.6,1.0,0.0,350.0,703.0,0.0,0,287.0,1
509,509,-0.7967316116104176,-0.8,0.0,1.0,387.0,979.0,1.0,0,174.0,1
510,510,0.7524189683118886,0.8,0.0,0.0,409.0,580.0,0.0,1,161.0,1
511,511,-0.40837549915807675,-0.4,0.0,1.0,474.0,966.0,1.0,0,500.0,1
512,512,0.629243012450413,0.6,0.0,0.0,319.0,963.0,0.0,1,208.0,1
513,513,-0.058773578495294854,-0.1,1.0,0.0,397.0,791.0,0.0,0,472.0,1
514,514,-0.029512471507804894,-0.0,1.0,0.0,399.0,797.0,0.0,0,1804.0,1
515,515,0.8109272223168703,0.8,0.0,0.0,481.0,749.0,0.0,1,250.0,1
516,516,-0.8648887646140381,-0.9,0.0,1.0,382.0,520.0,1.0,0,88.0,1
517,517,0.059874074531034105,0.1,1.0,1.0,264.0,835.0,1.0,1,1901.0,1
518,518,-0.5821429919141112,-0.6,1.0,0.0,404.0,740.0,0.0,0,266.0,1
519,519,0.008080428737837986,0.0,1.0,1.0,363.0,953.0,0.0,0,1684.0,0
520,520,-0.19869503800622668,-0.2,0.0,1.0,499.0,716.0,1.0,0,1785.0,1
521,521,0.11680821939369201,0.1,1.0,1.0,375.0,796.0,0.0,0,1829.0,0
522,522,0.7040198397801444,0.7,0.0,0.0,343.0,980.0,0.0,1,167.0,1
523,523,-0.606586544343896,-0.6,1.0,0.0,404.0,699.0,0.0,0,197.0,1
524,524,-0.09608271002513546,-0.1,1.0,0.0,403.0,512.0,0.0,0,1265.0,1
525,525,-0.3826126701872077,-0.4,1.0,0.0,327.0,546.0,0.0,0,387.0,1
526,526,-0.620970047348345,-0.6,0.0,1.0,288.0,521.0,1.0,0,321.0,1
527,527,0.3786329373096854,0.4,1.0,1.0,322.0,786.0,1.0,1,732.0,1
528,528,0.6106371079223673,0.6,1.0,1.0,437.0,868.0,1.0,1,345.0,1
529,529,0.1707412383886805,0.2,0.0,0.0,492.0,753.0,0.0,1,745.0,1
530,530,-0.7831876508313865,-0.8,1.0,0.0,431.0,953.0,0.0,0,156.0,1
531,531,-0.8894035663359536,-0.9,0.0,1.0,466.0,983.0,1.0,0,161.0,1
532,532,-0.7822177629918061,-0.8,0.0,1.0,354.0,520.0,1.0,0,186.0,1
533,533,-0.3772550333891439,-0.4,1.0,0.0,482.0,719.0,0.0,0,219.0,1
534,534,0.06244236685137783,0.1,1.0,1.0,336.0,778.0,0.0,0,1886.0,0
535,535,-0.8408619217084039,-0.8,1.0,0.0,341.0,954.0,0.0,0,175.0,1
536,536,0.6722770501555232,0.7,1.0,1.0,377.0,996.0,1.0,1,427.0,1
537,537,-0.21034901522746619,-0.2,1.0,0.0,403.0,863.0,0.0,0,614.0,1
538,538,-0.11509681868336552,-0.1,1.0,0.0,490.0,660.0,0.0,0,1850.0,1
539,539,0.8483519032088046,0.8,1.0,1.0,412.0,692.0,1.0,1,186.0,1
540,540,0.09538224756794611,0.1,0.0,0.0,387.0,872.0,0.0,1,541.0,1
541,541,-0.28188888222894803,-0.3,0.0,1.0,310.0,697.0,1.0,0,93.0,1
542,542,-0.10019953811874716,-0.1,0.0,1.0,317.0,662.0,1.0,0,581.0,1
543,543,0.12651583750669249,0.1,0.0,0.0,288.0,786.0,0.0,1,996.0,1
544,544,0.049269200016928805,0.0,1.0,1.0,397.0,520.0,1.0,1,2083.0,1
545,545,-0.5153136457509407,-0.5,1.0,0.0,292.0,566.0,0.0,0,32.0,1
546,546,-0.6604682669712003,-0.7,0.0,1.0,377.0,941.0,1.0,0,242.0,1
547,547,-0.2155881615720301,-0.2,1.0,0.0,276.0,754.0,0.0,0,820.0,1
548,548,0.2425872959797729,0.2,0.0,0.0,469.0,597.0,0.0,1,204.0,1
549,549,-0.1478965676816949,-0.1,0.0,1.0,338.0,519.0,1.0,0,1993.0,1
550,550,-0.472542344437123,-0.5,1.0,0.0,459.0,764.0,0.0,0,247.0,1
551,551,-0.8970075426149677,-0.9,0.0,1.0,475.0,806.0,1.0,0,189.0,1
552,552,-0.7080181134422601,-0.7,1.0,0.0,399.0,929.0,0.0,0,202.0,1
553,553,0.0496740434220011,0.0,0.0,0.0,378.0,930.0,0.0,1,752.0,1
554,554,0.0023948788632178752,0.0,1.0,1.0,356.0,615.0,1.0,1,2029.0,1
555,555,-0.22546981356064977,-0.2,1.0,0.0,314.0,639.0,0.0,0,207.0,1
556,556,0.5671333887635065,0.6,0.0,0.0,306.0,749.0,0.0,1,115.0,1
557,557,0.6050691046962401,0.6,0.0,0.0,458.0,862.0,0.0,1,350.0,1
558,558,0.29286711582237024,0.3,0.0,0.0,424.0,598.0,0.0,1,828.0,1
559,559,-0.7632358363299931,-0.8,0.0,1.0,492.0,619.0,1.0,0,219.0,1
560,560,0.6557368269885352,0.7,0.0,0.0,270.0,920.0,0.0,1,170.0,1
561,561,-0.02206897211018799,-0.0,1.0,0.0,493.0,826.0,0.0,0,1681.0,1
562,562,-0.08612747200914683,-0.1,0.0,1.0,337.0,974.0,1.0,0,1409.0,1
563,563,0.15158281251269756,0.2,0.0,0.0,368.0,602.0,0.0,1,210.0,1
564,564,0.044914550114810936,0.0,0.0,0.0,306.0,680.0,0.0,1,804.0,1
565,565,-0.04034799569526193,-0.0,0.0,1.0,265.0,657.0,0.0,1,428.0,0
566,566,0.5238064247595736,0.5,0.0,0.0,393.0,625.0,0.0,1,302.0,1
567,567,0.5521668164440322,0.6,1.0,1.0,439.0,695.0,1.0,1,306.0,1
568,568,0.32482315342941803,0.3,1.0,1.0,465.0,542.0,1.0,1,363.0,1
569,569,-0.7759327408891972,-0.8,0.0,1.0,342.0,823.0,1.0,0,175.0,1
570,570,-0.5556158741299837,-0.6,0.0,1.0,260.0,639.0,1.0,0,281.0,1
571,571,-0.4835644486334664,-0.5,0.0,1.0,400.0,632.0,1.0,0,228.0,1
572,572,0.3777594198911932,0.4,1.0,1.0,473.0,653.0,1.0,1,294.0,1
573,573,0.43035054859259925,0.4,1.0,1.0,409.0,624.0,1.0,1,407.0,1
574,574,-0.3491966037025065,-0.3,1.0,0.0,293.0,767.0,0.0,0,950.0,1
575,575,0.8632791978169462,0.9,1.0,1.0,342.0,629.0,1.0,1,209.0,1
576,576,-0.8907759018643872,-0.9,0.0,1.0,456.0,765.0,1.0,0,119.0,1
577,577,-0.024461175092342025,-0.0,0.0,1.0,292.0,511.0,0.0,1,2197.0,0
578,578,-0.3583389010939725,-0.4,0.0,1.0,353.0,741.0,1.0,0,266.0,1
579,579,0.7784743781006059,0.8,0.0,0.0,387.0,677.0,0.0,1,136.0,1
580,580,0.06977611673453488,0.1,0.0,0.0,411.0,714.0,0.0,1,795.0,1
581,581,-0.493682111028546,-0.5,1.0,0.0,372.0,715.0,0.0,0,203.0,1
582,582,-0.4046380147988138,-0.4,0.0,1.0,255.0,883.0,1.0,0,272.0,1
583,583,-0.761730631968551,-0.8,0.0,1.0,476.0,597.0,1.0,0,457.0,1
584,584,0.11685560229379066,0.1,0.0,0.0,445.0,880.0,0.0,1,525.0,1
585,585,-0.1016518275874988,-0.1,0.0,1.0,457.0,800.0,1.0,0,1743.0,1
586,586,-0.5575912187512957,-0.6,0.0,1.0,303.0,583.0,1.0,0,294.0,1
587,587,0.3655253781732698,0.4,0.0,0.0,343.0,763.0,0.0,1,334.0,1
588,588,0.5741203847320527,0.6,0.0,0.0,355.0,847.0,0.0,1,388.0,1
589,589,-0.19948629540724283,-0.2,0.0,1.0,491.0,742.0,1.0,0,1257.0,1
590,590,-0.7142507149855907,-0.7,1.0,0.0,461.0,777.0,0.0,0,302.0,1
591,591,0.5494116155396885,0.5,0.0,0.0,299.0,891.0,0.0,1,180.0,1
592,592,-0.6870338419998085,-0.7,0.0,1.0,327.0,636.0,1.0,0,297.0,1
593,593,0.3469999941012577,0.3,1.0,1.0,334.0,528.0,1.0,1,1188.0,1
594,594,0.35801677946138566,0.4,1.0,1.0,298.0,654.0,1.0,1,1598.0,1
595,595,0.6099551441731391,0.6,0.0,0.0,376.0,653.0,1.0,0,-49.0,0
596,596,0.7021981843136168,0.7,0.0,0.0,436.0,664.0,0.0,1,240.0,1
597,597,-0.7454626808788053,-0.7,0.0,1.0,378.0,808.0,1.0,0,124.0,1
598,598,-0.3823931019383118,-0.4,0.0,1.0,383.0,704.0,0.0,1,-17.0,0
599,599,0.4208207698508525,0.4,0.0,0.0,275.0,722.0,0.0,1,343.0,1
600,600,0.7614720873777342,0.8,1.0,1.0,338.0,886.0,1.0,1,216.0,1
601,601,0.24924076775275095,0.2,0.0,0.0,388.0,659.0,0.0,1,373.0,1
602,602,0.645581872536139,0.6,0.0,0.0,286.0,940.0,0.0,1,134.0,1
603,603,0.8398185466616906,0.8,1.0,1.0,454.0,958.0,1.0,1,108.0,1
604,604,0.6483170197233955,0.6,1.0,1.0,282.0,724.0,1.0,1,334.0,1
605,605,0.6900946488191891,0.7,0.0,0.0,451.0,763.0,0.0,1,56.0,1
606,606,-0.48531710116154053,-0.5,1.0,0.0,446.0,777.0,0.0,0,237.0,1
607,607,-0.5934599956194844,-0.6,1.0,0.0,471.0,597.0,0.0,0,242.0,1
608,608,-0.2329661675884931,-0.2,1.0,0.0,472.0,754.0,0.0,0,604.0,1
609,609,0.22454630495920058,0.2,0.0,0.0,327.0,943.0,0.0,1,500.0,1
610,610,0.5382352275056369,0.5,1.0,1.0,454.0,679.0,1.0,1,287.0,1
611,611,0.8118950563424537,0.8,1.0,1.0,288.0,907.0,1.0,1,175.0,1
612,612,-0.17809655437482874,-0.2,0.0,1.0,493.0,531.0,1.0,0,1586.0,1
613,613,0.6524760532124959,0.7,1.0,1.0,325.0,609.0,1.0,1,136.0,1
614,614,0.36955521677803793,0.4,0.0,0.0,357.0,754.0,0.0,1,319.0,1
615,615,-0.6864648599419684,-0.7,1.0,0.0,312.0,919.0,0.0,0,429.0,1
616,616,-0.18050937584131033,-0.2,1.0,0.0,369.0,577.0,0.0,0,1034.0,1
617,617,-0.7588237696512921,-0.8,0.0,1.0,377.0,640.0,1.0,0,113.0,1
618,618,0.8261705555804034,0.8,0.0,0.0,409.0,677.0,0.0,1,164.0,1
619,619,0.30897193568654446,0.3,0.0,0.0,309.0,696.0,0.0,1,115.0,1
620,620,0.44197250300373525,0.4,0.0,0.0,422.0,634.0,0.0,1,254.0,1
621,621,0.08498291554309534,0.1,0.0,0.0,383.0,539.0,0.0,1,578.0,1
622,622,-0.42520509403749224,-0.4,1.0,0.0,421.0,772.0,0.0,0,167.0,1
623,623,-0.8316257557103865,-0.8,1.0,0.0,462.0,545.0,0.0,0,133.0,1
624,624,-0.22320643746465674,-0.2,0.0,1.0,482.0,663.0,1.0,0,815.0,1
625,625,-0.683186096111813,-0.7,1.0,0.0,422.0,830.0,0.0,0,158.0,1
626,626,0.7444833377895378,0.7,0.0,0.0,341.0,530.0,0.0,1,139.0,1
627,627,0.7037650881209626,0.7,1.0,1.0,375.0,716.0,1.0,1,-41.0,1
628,628,-0.19530388171283308,-0.2,1.0,0.0,474.0,923.0,0.0,0,333.0,1
629,629,-0.5812759730742523,-0.6,1.0,0.0,497.0,541.0,0.0,0,292.0,1
630,630,-0.6132223247733668,-0.6,0.0,1.0,441.0,745.0,1.0,0,174.0,1
631,631,0.3888496040681927,0.4,1.0,1.0,270.0,840.0,1.0,1,340.0,1
632,632,-0.1892137121681574,-0.2,1.0,0.0,433.0,701.0,0.0,0,566.0,1
633,633,-0.31736295713356333,-0.3,0.0,1.0,294.0,515.0,1.0,0,461.0,1
634,634,-0.8239950881297374,-0.8,0.0,1.0,319.0,561.0,1.0,0,180.0,1
635,635,0.6773875118576299,0.7,1.0,1.0,453.0,945.0,1.0,1,402.0,1
636,636,-0.7689646371500468,-0.8,1.0,0.0,439.0,941.0,0.0,0,190.0,1
637,637,0.6989112825973468,0.7,0.0,0.0,457.0,939.0,0.0,1,214.0,1
638,638,-0.14399212628412483,-0.1,1.0,0.0,407.0,614.0,0.0,0,699.0,1
639,639,0.2958495072135866,0.3,0.0,0.0,364.0,884.0,0.0,1,612.0,1
640,640,0.18921599183882754,0.2,0.0,0.0,389.0,766.0,0.0,1,895.0,1
641,641,0.08677655216232583,0.1,0.0,0.0,480.0,824.0,0.0,1,1606.0,1
642,642,-0.47136597405647856,-0.5,0.0,1.0,272.0,979.0,1.0,0,269.0,1
643,643,0.4256479980726987,0.4,0.0,0.0,408.0,916.0,0.0,1,256.0,1
644,644,0.6482025067071194,0.6,0.0,0.0,428.0,948.0,0.0,1,174.0,1
645,645,-0.11183600538742211,-0.1,1.0,0.0,497.0,902.0,1.0,1,-389.0,0
646,646,0.41637161675193235,0.4,1.0,1.0,413.0,693.0,1.0,1,424.0,1
647,647,-0.8888062848908731,-0.9,1.0,0.0,275.0,649.0,0.0,0,296.0,1
648,648,-0.3342039349696343,-0.3,0.0,1.0,465.0,596.0,1.0,0,319.0,1
649,649,0.6205689486946832,0.6,0.0,0.0,467.0,719.0,0.0,1,214.0,1
650,650,-0.18780651462445996,-0.2,0.0,1.0,287.0,508.0,1.0,0,425.0,1
651,651,0.5068009598788336,0.5,1.0,1.0,292.0,692.0,1.0,1,1506.0,1
652,652,-0.42777972900971833,-0.4,0.0,1.0,290.0,697.0,1.0,0,493.0,1
653,653,-0.15516013402091589,-0.2,1.0,0.0,346.0,671.0,0.0,0,1653.0,1
654,654,0.6721427879188392,0.7,0.0,0.0,368.0,657.0,0.0,1,235.0,1
655,655,-0.3743368913780025,-0.4,1.0,0.0,456.0,793.0,0.0,0,291.0,1
656,656,0.6036697724489718,0.6,1.0,1.0,354.0,838.0,1.0,1,288.0,1
657,657,-0.4843817031663278,-0.5,0.0,1.0,398.0,617.0,1.0,0,285.0,1
658,658,-0.6722846546391711,-0.7,0.0,1.0,454.0,532.0,1.0,0,244.0,1
659,659,0.5968621639201311,0.6,1.0,1.0,499.0,926.0,1.0,1,525.0,1
660,660,-0.1766231327616271,-0.2,0.0,1.0,454.0,514.0,1.0,0,512.0,1
661,661,-0.05057181145716605,-0.1,1.0,0.0,319.0,984.0,0.0,0,397.0,1
662,662,-0.4150317276971327,-0.4,1.0,0.0,470.0,654.0,0.0,0,156.0,1
663,663,0.5860318294577697,0.6,1.0,1.0,257.0,848.0,1.0,1,465.0,1
664,664,-0.13118035688363572,-0.1,1.0,0.0,373.0,961.0,0.0,0,436.0,1
665,665,0.2797575601403516,0.3,0.0,0.0,298.0,646.0,0.0,1,306.0,1
666,666,-0.5123915060896151,-0.5,1.0,0.0,337.0,641.0,0.0,0,512.0,1
667,667,-0.06821876118892656,-0.1,1.0,0.0,413.0,885.0,1.0,1,1702.0,0
668,668,0.892302975368282,0.9,1.0,1.0,387.0,881.0,1.0,1,192.0,1
669,669,0.44682531148666615,0.4,1.0,1.0,294.0,994.0,1.0,1,522.0,1
670,670,0.7520831988277498,0.8,0.0,0.0,419.0,731.0,0.0,1,120.0,1
671,671,-0.40805633033472877,-0.4,0.0,1.0,260.0,934.0,1.0,0,226.0,1
672,672,-0.6786178211759706,-0.7,0.0,1.0,278.0,985.0,1.0,0,-363.0,1
673,673,0.16252080506372735,0.2,1.0,1.0,456.0,704.0,1.0,1,710.0,1
674,674,-0.7727607938452491,-0.8,0.0,1.0,319.0,967.0,1.0,0,234.0,1
675,675,-0.3958460640918855,-0.4,0.0,1.0,426.0,514.0,1.0,0,140.0,1
676,676,-0.09373084435319412,-0.1,0.0,1.0,318.0,551.0,1.0,0,1331.0,1
677,677,-0.4230652025201397,-0.4,0.0,1.0,377.0,502.0,1.0,0,181.0,1
678,678,0.7994086249758993,0.8,0.0,0.0,392.0,684.0,0.0,1,194.0,1
679,679,-0.43009529029024357,-0.4,0.0,1.0,408.0,865.0,1.0,0,367.0,1
680,680,-0.22629172178650547,-0.2,1.0,0.0,277.0,900.0,0.0,0,363.0,1
681,681,-0.28437416500347434,-0.3,0.0,1.0,297.0,535.0,1.0,0,548.0,1
682,682,0.2175257591676899,0.2,1.0,1.0,415.0,875.0,1.0,1,620.0,1
683,683,0.19662783991912114,0.2,0.0,0.0,366.0,557.0,0.0,1,477.0,1
684,684,0.7587793013179532,0.8,1.0,1.0,302.0,934.0,1.0,1,284.0,1
685,685,0.04789384712345279,0.0,1.0,1.0,432.0,884.0,0.0,0,1684.0,0
686,686,-0.8334532914453909,-0.8,1.0,0.0,489.0,970.0,0.0,0,131.0,1
687,687,0.6257270258616688,0.6,1.0,1.0,469.0,601.0,1.0,1,990.0,1
688,688,0.4687078825020897,0.5,0.0,0.0,317.0,517.0,0.0,1,256.0,1
689,689,-0.25505300740530046,-0.3,0.0,1.0,456.0,761.0,1.0,0,593.0,1
690,690,0.4137980939918927,0.4,1.0,1.0,468.0,846.0,0.0,0,96.0,0
691,691,0.22084151080695336,0.2,1.0,1.0,471.0,926.0,1.0,1,783.0,1
692,692,0.8741393991789638,0.9,1.0,1.0,301.0,939.0,1.0,1,270.0,1
693,693,0.798029972135139,0.8,1.0,1.0,267.0,696.0,1.0,1,137.0,1
694,694,-0.22312915673320877,-0.2,0.0,1.0,395.0,738.0,1.0,0,1457.0,1
695,695,0.42270056562742664,0.4,0.0,0.0,441.0,890.0,0.0,1,419.0,1
696,696,0.3494771607592816,0.3,0.0,0.0,388.0,603.0,0.0,1,799.0,1
697,697,0.2200986928821319,0.2,0.0,0.0,397.0,509.0,0.0,1,634.0,1
698,698,0.22389008271865662,0.2,0.0,0.0,394.0,825.0,0.0,1,551.0,1
699,699,0.1526411473846917,0.2,1.0,1.0,327.0,760.0,1.0,1,1793.0,1
700,700,-0.8189015245432602,-0.8,0.0,1.0,374.0,509.0,1.0,0,327.0,1
701,701,-0.635668351884305,-0.6,1.0,0.0,253.0,901.0,0.0,0,236.0,1
702,702,-0.37875048261561317,-0.4,0.0,1.0,428.0,511.0,1.0,0,311.0,1
703,703,-0.09948657565656505,-0.1,0.0,1.0,488.0,694.0,1.0,0,868.0,1
704,704,0.3051198790395516,0.3,1.0,1.0,277.0,774.0,1.0,1,599.0,1
705,705,0.01460447893875405,0.0,0.0,0.0,286.0,940.0,0.0,1,1684.0,1
706,706,-0.7700330062385972,-0.8,1.0,0.0,255.0,824.0,0.0,0,261.0,1
707,707,-0.7910000752485697,-0.8,0.0,1.0,385.0,664.0,1.0,0,361.0,1
708,708,-0.18103002672464796,-0.2,0.0,1.0,287.0,897.0,1.0,0,1406.0,1
709,709,0.7919722300380242,0.8,1.0,1.0,359.0,556.0,1.0,1,275.0,1
710,710,-0.6077778280299304,-0.6,1.0,0.0,346.0,679.0,0.0,0,115.0,1
711,711,0.26729690927261174,0.3,0.0,0.0,381.0,964.0,1.0,0,-75.0,0
712,712,0.3203688285193821,0.3,1.0,1.0,413.0,681.0,1.0,1,76.0,1
713,713,-0.1748391704861647,-0.2,0.0,1.0,295.0,582.0,1.0,0,1123.0,1
714,714,0.010140341815638498,0.0,1.0,1.0,385.0,744.0,1.0,1,1871.0,1
715,715,0.8616856916270873,0.9,0.0,0.0,305.0,593.0,0.0,1,172.0,1
716,716,-0.49223432398148015,-0.5,0.0,1.0,360.0,592.0,1.0,0,408.0,1
717,717,-0.33762595522743255,-0.3,1.0,0.0,299.0,937.0,0.0,0,364.0,1
718,718,-0.7655906789936895,-0.8,0.0,1.0,347.0,685.0,1.0,0,148.0,1
719,719,-0.4465145733051267,-0.4,1.0,0.0,483.0,882.0,0.0,0,165.0,1
720,720,0.3656211492364744,0.4,0.0,0.0,486.0,870.0,0.0,1,1114.0,1
721,721,-0.4235540377733375,-0.4,0.0,1.0,490.0,801.0,1.0,0,259.0,1
722,722,0.6706882319928519,0.7,0.0,0.0,418.0,779.0,0.0,1,243.0,1
723,723,0.46781607438424755,0.5,0.0,0.0,480.0,794.0,0.0,1,296.0,1
724,724,-0.4648910969398412,-0.5,0.0,1.0,457.0,647.0,1.0,0,586.0,1
725,725,-0.7841144741450762,-0.8,1.0,0.0,336.0,691.0,0.0,0,223.0,1
726,726,-0.14506319131463186,-0.1,1.0,0.0,406.0,578.0,0.0,0,2016.0,1
727,727,0.15304737320063866,0.2,0.0,0.0,372.0,934.0,0.0,1,164.0,1
728,728,0.7319058901637695,0.7,1.0,1.0,481.0,630.0,1.0,1,99.0,1
729,729,0.7009183604195747,0.7,1.0,1.0,428.0,622.0,1.0,1,280.0,1
730,730,0.8320297907237951,0.8,0.0,0.0,252.0,569.0,0.0,1,109.0,1
731,731,0.3029353703971446,0.3,0.0,0.0,375.0,524.0,0.0,1,721.0,1
732,732,0.34026719825138263,0.3,0.0,0.0,362.0,984.0,0.0,1,404.0,1
733,733,0.03571864073555697,0.0,1.0,1.0,433.0,514.0,1.0,1,2053.0,1
734,734,0.7833184232555287,0.8,1.0,1.0,362.0,529.0,1.0,1,199.0,1
735,735,0.22469956038270877,0.2,0.0,0.0,355.0,693.0,0.0,1,572.0,1
736,736,0.027414907254518006,0.0,1.0,1.0,432.0,965.0,1.0,1,1603.0,1
737,737,-0.20851463196233455,-0.2,1.0,0.0,447.0,617.0,0.0,0,636.0,1
738,738,0.8701962230643762,0.9,0.0,0.0,257.0,547.0,0.0,1,376.0,1
739,739,0.3883214835305223,0.4,1.0,1.0,354.0,863.0,1.0,1,583.0,1
740,740,-0.6520521316114737,-0.7,1.0,0.0,403.0,908.0,0.0,0,519.0,1
741,741,-0.4520118631234195,-0.5,1.0,0.0,439.0,585.0,0.0,0,186.0,1
742,742,-0.8997233573927644,-0.9,0.0,1.0,364.0,882.0,1.0,0,134.0,1
743,743,0.34149550237257864,0.3,1.0,1.0,381.0,626.0,1.0,1,193.0,1
744,744,-0.47555896777596074,-0.5,1.0,0.0,488.0,868.0,0.0,0,144.0,1
745,745,-0.19548231636182922,-0.2,1.0,0.0,374.0,858.0,0.0,0,1308.0,1
746,746,0.7507246915519462,0.8,0.0,0.0,307.0,837.0,0.0,1,266.0,1
747,747,-0.7464974382044067,-0.7,0.0,1.0,379.0,562.0,1.0,0,329.0,1
748,748,-0.5632962122981301,-0.6,1.0,0.0,459.0,706.0,0.0,0,365.0,1
749,749,-0.23158780469242113,-0.2,1.0,0.0,251.0,527.0,0.0,0,722.0,1
750,750,0.3451955810962336,0.3,0.0,0.0,352.0,940.0,0.0,1,358.0,1
751,751,-0.8233731931166233,-0.8,0.0,1.0,386.0,526.0,1.0,0,208.0,1
752,752,0.6773045166583728,0.7,1.0,1.0,332.0,717.0,1.0,1,201.0,1
753,753,0.7158383748692404,0.7,0.0,0.0,393.0,930.0,0.0,1,137.0,1
754,754,0.5765783830941308,0.6,0.0,0.0,353.0,677.0,0.0,1,610.0,1
755,755,-0.7559982843095532,-0.8,0.0,1.0,309.0,829.0,1.0,0,492.0,1
756,756,0.41836865363629594,0.4,1.0,1.0,439.0,686.0,1.0,1,385.0,1
757,757,-0.7820294017109582,-0.8,0.0,1.0,427.0,750.0,1.0,0,323.0,1
758,758,-0.47141935201802937,-0.5,1.0,0.0,392.0,965.0,0.0,0,253.0,1
759,759,0.1676057439001014,0.2,0.0,0.0,403.0,513.0,0.0,1,294.0,1
760,760,0.1826531659070979,0.2,1.0,1.0,314.0,512.0,1.0,1,1164.0,1
761,761,-0.8496305068732873,-0.8,1.0,0.0,303.0,950.0,0.0,0,137.0,1
762,762,0.4263559574760486,0.4,0.0,0.0,288.0,922.0,0.0,1,20.0,1
763,763,-0.7330886202589203,-0.7,0.0,1.0,467.0,885.0,1.0,0,168.0,1
764,764,-0.48476143207817873,-0.5,1.0,0.0,325.0,875.0,0.0,0,140.0,1
765,765,-0.0075695326168898625,-0.0,0.0,1.0,342.0,978.0,0.0,1,1680.0,0
766,766,0.1725558745458654,0.2,1.0,1.0,485.0,589.0,1.0,1,1206.0,1
767,767,-0.3201664536845429,-0.3,0.0,1.0,373.0,938.0,1.0,0,319.0,1
768,768,-0.3755398008669467,-0.4,0.0,1.0,251.0,988.0,1.0,0,381.0,1
769,769,0.07549315395880785,0.1,1.0,1.0,401.0,541.0,1.0,1,2058.0,1
770,770,-0.2992441737131726,-0.3,1.0,0.0,375.0,666.0,0.0,0,679.0,1
771,771,-0.5126978354331524,-0.5,0.0,1.0,371.0,574.0,1.0,0,145.0,1
772,772,-0.0667638073954121,-0.1,0.0,1.0,319.0,623.0,1.0,0,798.0,1
773,773,-0.8507145061348393,-0.9,1.0,0.0,486.0,846.0,0.0,0,198.0,1
774,774,-0.43702241577779694,-0.4,1.0,0.0,267.0,799.0,0.0,0,234.0,1
775,775,0.5756272825729084,0.6,0.0,0.0,480.0,666.0,0.0,1,84.0,1
776,776,-0.8231726538229964,-0.8,1.0,0.0,300.0,980.0,0.0,0,160.0,1
777,777,0.21355914865572723,0.2,0.0,0.0,330.0,914.0,0.0,1,256.0,1
778,778,-0.11733549077852712,-0.1,1.0,0.0,315.0,534.0,0.0,0,1141.0,1
779,779,-0.03564316536352097,-0.0,1.0,0.0,481.0,513.0,0.0,0,2006.0,1
780,780,0.7228061226595955,0.7,1.0,1.0,498.0,698.0,1.0,1,204.0,1
781,781,0.4925079509188405,0.5,0.0,0.0,317.0,682.0,0.0,1,361.0,1
782,782,0.406683678907659,0.4,0.0,0.0,418.0,610.0,0.0,1,202.0,1
783,783,-0.545803866123546,-0.5,0.0,1.0,262.0,891.0,1.0,0,157.0,1
784,784,-0.038136060173858954,-0.0,0.0,1.0,272.0,875.0,0.0,1,1853.0,0
785,785,-0.7783842639906986,-0.8,0.0,1.0,380.0,829.0,1.0,0,321.0,1
786,786,0.5888811270507596,0.6,0.0,0.0,385.0,785.0,0.0,1,240.0,1
787,787,0.5702814456156923,0.6,1.0,1.0,328.0,971.0,1.0,1,191.0,1
788,788,0.34975898454061805,0.3,0.0,0.0,435.0,946.0,0.0,1,269.0,1
789,789,-0.1335892442202391,-0.1,1.0,0.0,282.0,689.0,0.0,0,2029.0,1
790,790,0.061126483186434655,0.1,0.0,0.0,286.0,588.0,0.0,1,586.0,1
791,791,-0.7367834123826651,-0.7,0.0,1.0,385.0,511.0,1.0,0,344.0,1
792,792,0.45238095537075107,0.5,1.0,1.0,277.0,764.0,1.0,1,369.0,1
793,793,-0.5148001911359517,-0.5,0.0,1.0,381.0,582.0,1.0,0,317.0,1
794,794,-0.21219197837825143,-0.2,0.0,1.0,499.0,843.0,1.0,0,908.0,1
795,795,-0.5264046057378262,-0.5,0.0,1.0,472.0,820.0,0.0,1,-182.0,0
796,796,-0.8218261387282484,-0.8,1.0,0.0,294.0,783.0,0.0,0,333.0,1
797,797,-0.8654503752687793,-0.9,1.0,0.0,489.0,731.0,0.0,0,220.0,1
798,798,0.8857023733964803,0.9,0.0,0.0,254.0,641.0,0.0,1,115.0,1
799,799,0.75289033746604,0.8,0.0,0.0,340.0,803.0,0.0,1,97.0,1
800,800,0.8288962144220874,0.8,1.0,1.0,430.0,643.0,1.0,1,357.0,1
801,801,0.41031102092117633,0.4,1.0,1.0,269.0,809.0,1.0,1,282.0,1
802,802,-0.7587118539862834,-0.8,1.0,0.0,403.0,748.0,0.0,0,149.0,1
803,803,-6.211735943217889e-05,-0.0,0.0,1.0,422.0,907.0,0.0,1,1641.0,0
804,804,-0.4991988212659868,-0.5,1.0,0.0,260.0,779.0,0.0,0,251.0,1
805,805,0.8872785589743509,0.9,1.0,1.0,251.0,889.0,1.0,1,80.0,1
806,806,0.011615161426336007,0.0,0.0,0.0,290.0,528.0,0.0,1,1792.0,1
807,807,0.2123619242740652,0.2,1.0,1.0,318.0,529.0,1.0,1,603.0,1
808,808,0.6497097430629265,0.6,0.0,0.0,464.0,703.0,0.0,1,193.0,1
809,809,0.26266348490265357,0.3,0.0,0.0,298.0,660.0,0.0,1,282.0,1
810,810,-0.7899019371354085,-0.8,1.0,0.0,284.0,851.0,1.0,1,-125.0,0
811,811,0.22290716199765048,0.2,0.0,0.0,287.0,781.0,0.0,1,592.0,1
812,812,-0.15087383186615033,-0.2,0.0,1.0,302.0,714.0,1.0,0,694.0,1
813,813,-0.12195603933703703,-0.1,0.0,1.0,281.0,783.0,1.0,0,816.0,1
814,814,-0.3657165676028643,-0.4,1.0,0.0,275.0,969.0,0.0,0,176.0,1
815,815,0.31407965756181466,0.3,0.0,0.0,418.0,682.0,0.0,1,410.0,1
816,816,-0.5443747234932527,-0.5,1.0,0.0,304.0,860.0,0.0,0,246.0,1
817,817,0.4705887330043864,0.5,1.0,1.0,282.0,886.0,1.0,1,302.0,1
818,818,-0.04153534662007752,-0.0,0.0,1.0,390.0,760.0,1.0,0,180.0,1
819,819,-0.5358662767077786,-0.5,0.0,1.0,329.0,705.0,1.0,0,96.0,1
820,820,-0.7794248328693142,-0.8,1.0,0.0,472.0,790.0,0.0,0,198.0,1
821,821,0.35099286513717154,0.4,0.0,0.0,403.0,565.0,0.0,1,552.0,1
822,822,-0.07115244897980944,-0.1,1.0,0.0,359.0,653.0,0.0,0,1788.0,1
823,823,0.7393140498121146,0.7,1.0,1.0,253.0,635.0,1.0,1,302.0,1
824,824,-0.5387739839500432,-0.5,0.0,1.0,463.0,533.0,1.0,0,234.0,1
825,825,0.14564771170291946,0.1,1.0,1.0,335.0,779.0,1.0,1,1186.0,1
826,826,0.6734936942580713,0.7,0.0,0.0,454.0,970.0,0.0,1,116.0,1
827,827,-0.3546936704280512,-0.4,0.0,1.0,393.0,779.0,1.0,0,758.0,1
828,828,0.5556050429685527,0.6,0.0,0.0,337.0,948.0,0.0,1,295.0,1
829,829,-0.712487005863768,-0.7,0.0,1.0,486.0,861.0,1.0,0,253.0,1
830,830,0.005412634765626145,0.0,1.0,1.0,296.0,735.0,1.0,1,1179.0,1
831,831,0.40196169501975476,0.4,0.0,0.0,488.0,645.0,1.0,0,-113.0,0
832,832,0.5653548054192034,0.6,1.0,1.0,448.0,872.0,1.0,1,210.0,1
833,833,-0.46253790527412825,-0.5,1.0,0.0,393.0,831.0,0.0,0,186.0,1
834,834,-0.4286890674668748,-0.4,0.0,1.0,302.0,605.0,1.0,0,193.0,1
835,835,0.40699251508847223,0.4,0.0,0.0,310.0,717.0,0.0,1,173.0,1
836,836,-0.3383487777555467,-0.3,0.0,1.0,442.0,767.0,1.0,0,301.0,1
837,837,0.338036139296488,0.3,1.0,1.0,272.0,644.0,1.0,1,494.0,1
838,838,0.5375112025188983,0.5,1.0,1.0,252.0,872.0,1.0,1,166.0,1
839,839,0.8623325371223945,0.9,0.0,0.0,304.0,697.0,0.0,1,129.0,1
840,840,0.7287401530522511,0.7,1.0,1.0,286.0,694.0,1.0,1,510.0,1
841,841,-0.26013302235064284,-0.3,1.0,0.0,405.0,574.0,0.0,0,481.0,1
842,842,0.35949804302083843,0.4,1.0,1.0,421.0,518.0,1.0,1,481.0,1
843,843,0.38450577203522285,0.4,0.0,0.0,420.0,626.0,0.0,1,394.0,1
844,844,0.6019032648696517,0.6,0.0,0.0,421.0,691.0,0.0,1,78.0,1
845,845,-0.11029884858382277,-0.1,1.0,0.0,492.0,688.0,0.0,0,1820.0,1
846,846,0.8492269995331393,0.8,0.0,0.0,466.0,752.0,0.0,1,142.0,1
847,847,0.6514417595673664,0.7,0.0,0.0,481.0,522.0,0.0,1,77.0,1
848,848,0.12216397588487193,0.1,0.0,0.0,375.0,565.0,0.0,1,930.0,1
849,849,-0.2854045121954175,-0.3,1.0,0.0,282.0,611.0,0.0,0,657.0,1
850,850,0.004979837533716669,0.0,0.0,0.0,423.0,909.0,0.0,1,1668.0,1
851,851,0.37872147255833577,0.4,0.0,0.0,343.0,843.0,0.0,1,54.0,1
852,852,0.20446953184720018,0.2,0.0,0.0,273.0,838.0,0.0,1,249.0,1
853,853,0.09687187927624397,0.1,1.0,1.0,453.0,676.0,1.0,1,261.0,1
854,854,-0.5826402434080653,-0.6,0.0,1.0,387.0,832.0,1.0,0,191.0,1
855,855,0.22753846621909124,0.2,1.0,1.0,450.0,794.0,1.0,1,536.0,1
856,856,-0.061122997634682985,-0.1,1.0,0.0,422.0,679.0,0.0,0,1899.0,1
857,857,-0.4552874292329782,-0.5,1.0,0.0,384.0,827.0,0.0,0,299.0,1
858,858,-0.059936393634269725,-0.1,1.0,0.0,441.0,563.0,1.0,1,1996.0,0
859,859,-0.46189666319434186,-0.5,0.0,1.0,429.0,586.0,1.0,0,195.0,1
860,860,0.7980871664954597,0.8,1.0,1.0,499.0,661.0,1.0,1,570.0,1
861,861,0.8729827299671541,0.9,1.0,1.0,367.0,749.0,1.0,1,244.0,1
862,862,0.6031920381361057,0.6,0.0,0.0,372.0,943.0,0.0,1,295.0,1
863,863,0.6349993645562207,0.6,0.0,0.0,431.0,757.0,0.0,1,202.0,1
864,864,-0.8170751396052854,-0.8,0.0,1.0,297.0,681.0,1.0,0,362.0,1
865,865,-0.7176130501022364,-0.7,0.0,1.0,312.0,777.0,1.0,0,151.0,1
866,866,-0.5855974450404318,-0.6,0.0,1.0,472.0,607.0,1.0,0,351.0,1
867,867,0.7461266881891983,0.7,1.0,1.0,315.0,772.0,1.0,1,233.0,1
868,868,-0.6800925276733938,-0.7,0.0,1.0,450.0,907.0,1.0,0,213.0,1
869,869,-0.27171174909608287,-0.3,1.0,0.0,382.0,951.0,1.0,1,-413.0,0
870,870,-0.06595996664235604,-0.1,0.0,1.0,286.0,979.0,1.0,0,1045.0,1
871,871,-0.3664955629180616,-0.4,1.0,0.0,482.0,573.0,0.0,0,235.0,1
872,872,0.49475009637852974,0.5,0.0,0.0,478.0,592.0,0.0,1,270.0,1
873,873,-0.23744639839416948,-0.2,1.0,0.0,496.0,509.0,0.0,0,165.0,1
874,874,-0.5075554001506017,-0.5,1.0,0.0,300.0,830.0,0.0,0,250.0,1
875,875,0.669576267520478,0.7,0.0,0.0,445.0,528.0,0.0,1,207.0,1
876,876,0.8858972630342855,0.9,1.0,1.0,490.0,706.0,1.0,1,204.0,1
877,877,-0.529343948139708,-0.5,0.0,1.0,275.0,729.0,1.0,0,216.0,1
878,878,-0.0517296529144301,-0.1,1.0,0.0,463.0,865.0,0.0,0,1022.0,1
879,879,0.8471391106131049,0.8,1.0,1.0,415.0,848.0,1.0,1,127.0,1
880,880,-0.353778557227598,-0.4,1.0,0.0,311.0,509.0,0.0,0,410.0,1
881,881,0.664923697369347,0.7,1.0,1.0,274.0,664.0,1.0,1,212.0,1
882,882,-0.7207259447671711,-0.7,0.0,1.0,389.0,505.0,1.0,0,276.0,1
883,883,0.14006383975274417,0.1,0.0,0.0,286.0,566.0,0.0,1,948.0,1
884,884,0.6245861404880574,0.6,0.0,0.0,305.0,896.0,0.0,1,249.0,1
885,885,-0.254017367640639,-0.3,0.0,1.0,287.0,875.0,1.0,0,578.0,1
886,886,-0.32872012751138624,-0.3,1.0,0.0,301.0,586.0,0.0,0,243.0,1
887,887,-0.15694155015943223,-0.2,0.0,1.0,366.0,634.0,1.0,0,650.0,1
888,888,-0.38623360150718256,-0.4,1.0,0.0,477.0,724.0,0.0,0,289.0,1
889,889,-0.14776280567093458,-0.1,1.0,0.0,265.0,689.0,0.0,0,886.0,1
890,890,0.8191815121609277,0.8,0.0,0.0,291.0,817.0,0.0,1,82.0,1
891,891,0.7230104879267881,0.7,0.0,0.0,490.0,710.0,0.0,1,150.0,1
892,892,-0.5815156078355801,-0.6,0.0,1.0,325.0,509.0,1.0,0,246.0,1
893,893,0.8247820695970746,0.8,0.0,0.0,348.0,514.0,0.0,1,198.0,1
894,894,0.8083427438029637,0.8,0.0,0.0,333.0,896.0,0.0,1,101.0,1
895,895,0.6927221643288978,0.7,1.0,1.0,474.0,846.0,1.0,1,280.0,1
896,896,0.7171912138773401,0.7,1.0,1.0,341.0,594.0,1.0,1,165.0,1
897,897,0.42786244682213515,0.4,1.0,1.0,276.0,773.0,1.0,1,381.0,1
898,898,-0.24476554075454016,-0.2,1.0,0.0,351.0,652.0,0.0,0,437.0,1
899,899,-0.3418695665956608,-0.3,1.0,0.0,345.0,689.0,0.0,0,436.0,1
900,900,0.7297294789717478,0.7,1.0,1.0,339.0,701.0,1.0,1,180.0,1
901,901,0.3485789502655058,0.3,1.0,1.0,393.0,644.0,1.0,1,763.0,1
902,902,-0.6905276880711051,-0.7,0.0,1.0,403.0,946.0,1.0,0,1.0,1
903,903,-0.12057817504018631,-0.1,1.0,0.0,489.0,537.0,0.0,0,1144.0,1
904,904,0.7119618252055201,0.7,0.0,0.0,290.0,654.0,0.0,1,56.0,1
905,905,-0.5872615546779743,-0.6,0.0,1.0,497.0,651.0,1.0,0,242.0,1
906,906,0.6644622981782743,0.7,1.0,1.0,350.0,597.0,1.0,1,193.0,1
907,907,0.3364766969699057,0.3,0.0,0.0,350.0,569.0,0.0,1,481.0,1
908,908,-0.5944160156393412,-0.6,0.0,1.0,406.0,517.0,1.0,0,327.0,1
909,909,0.8844320866846479,0.9,0.0,0.0,365.0,594.0,0.0,1,161.0,1
910,910,0.2775643642467601,0.3,0.0,0.0,293.0,722.0,0.0,1,225.0,1
911,911,-0.8269612832642714,-0.8,0.0,1.0,436.0,991.0,1.0,0,193.0,1
912,912,0.8395914288707472,0.8,1.0,1.0,371.0,692.0,1.0,1,587.0,1
913,913,0.6221656483503498,0.6,1.0,1.0,345.0,852.0,1.0,1,493.0,1
914,914,0.21461313868354426,0.2,0.0,0.0,319.0,779.0,0.0,1,472.0,1
915,915,-0.524311538592787,-0.5,0.0,1.0,267.0,970.0,1.0,0,233.0,1
916,916,0.6121329194360349,0.6,0.0,0.0,465.0,895.0,0.0,1,-120.0,1
917,917,-0.3244430734980944,-0.3,1.0,0.0,319.0,622.0,0.0,0,219.0,1
918,918,0.09815656743559764,0.1,0.0,0.0,302.0,625.0,0.0,1,153.0,1
919,919,0.06368114364144306,0.1,1.0,1.0,408.0,893.0,1.0,1,629.0,1
920,920,-0.25498517266753584,-0.3,0.0,1.0,488.0,917.0,1.0,0,715.0,1
921,921,0.5832514497936133,0.6,1.0,1.0,271.0,781.0,1.0,1,238.0,1
922,922,-0.07466054844287107,-0.1,0.0,1.0,435.0,830.0,1.0,0,1735.0,1
923,923,-0.11564085081341091,-0.1,1.0,0.0,401.0,588.0,0.0,0,2011.0,1
924,924,-0.016514191745437,-0.0,0.0,1.0,328.0,818.0,1.0,0,1854.0,1
925,925,0.2033483923434417,0.2,0.0,0.0,490.0,930.0,0.0,1,410.0,1
926,926,0.5094820807051729,0.5,0.0,0.0,341.0,730.0,0.0,1,199.0,1
927,927,0.5123983796702439,0.5,1.0,1.0,388.0,903.0,1.0,1,269.0,1
928,928,0.16020524861404317,0.2,0.0,0.0,278.0,808.0,0.0,1,804.0,1
929,929,-0.14191165452505083,-0.1,1.0,0.0,340.0,647.0,0.0,0,313.0,1
930,930,-0.6658304527131023,-0.7,1.0,0.0,288.0,870.0,0.0,0,182.0,1
931,931,0.6477997316000247,0.6,1.0,1.0,378.0,623.0,1.0,1,589.0,1
932,932,-0.21951256876608127,-0.2,1.0,0.0,315.0,949.0,0.0,0,616.0,1
933,933,0.3936580865150875,0.4,0.0,0.0,305.0,736.0,0.0,1,479.0,1
934,934,0.1539605490820496,0.2,1.0,1.0,345.0,558.0,1.0,1,747.0,1
935,935,-0.8767159833486181,-0.9,1.0,0.0,283.0,600.0,0.0,0,257.0,1
936,936,0.6072366114299145,0.6,0.0,0.0,454.0,728.0,0.0,1,248.0,1
937,937,0.1750887894205323,0.2,0.0,0.0,418.0,836.0,0.0,1,716.0,1
938,938,-0.28554066961072755,-0.3,0.0,1.0,373.0,745.0,1.0,0,322.0,1
939,939,0.7102684738637218,0.7,1.0,1.0,272.0,509.0,1.0,1,229.0,1
940,940,0.24787889510028294,0.2,1.0,1.0,345.0,744.0,1.0,1,301.0,1
941,941,0.8172634981994652,0.8,0.0,0.0,411.0,630.0,0.0,1,619.0,1
942,942,-0.03763653461458638,-0.0,1.0,0.0,327.0,866.0,0.0,0,1807.0,1
943,943,0.2178028477606685,0.2,1.0,1.0,400.0,744.0,1.0,1,906.0,1
944,944,-0.3942911987585358,-0.4,1.0,0.0,460.0,984.0,0.0,0,396.0,1
945,945,0.04877080495322583,0.0,0.0,0.0,253.0,519.0,0.0,1,298.0,1
946,946,0.8556661390874126,0.9,1.0,1.0,419.0,807.0,1.0,1,204.0,1
947,947,0.17262655411524952,0.2,0.0,0.0,290.0,758.0,0.0,1,1092.0,1
948,948,0.6596335142428947,0.7,0.0,0.0,392.0,767.0,0.0,1,151.0,1
949,949,0.761095632799253,0.8,0.0,0.0,472.0,994.0,0.0,1,194.0,1
950,950,-0.5565638166819489,-0.6,1.0,0.0,491.0,766.0,0.0,0,263.0,1
951,951,0.4588885127605632,0.5,0.0,0.0,378.0,785.0,0.0,1,277.0,1
952,952,0.8480657546438733,0.8,0.0,0.0,346.0,652.0,0.0,1,222.0,1
953,953,0.4409121644824455,0.4,1.0,1.0,250.0,543.0,1.0,1,297.0,1
954,954,0.871756756953363,0.9,0.0,0.0,288.0,662.0,0.0,1,260.0,1
955,955,0.4425472214943996,0.4,0.0,0.0,495.0,923.0,0.0,1,182.0,1
956,956,0.6220565064465483,0.6,1.0,1.0,394.0,956.0,0.0,0,-60.0,0
957,957,0.7870390057828057,0.8,1.0,1.0,289.0,866.0,1.0,1,165.0,1
958,958,0.6964563981385542,0.7,0.0,0.0,375.0,874.0,0.0,1,181.0,1
959,959,0.00447700230955006,0.0,1.0,1.0,268.0,557.0,0.0,0,2175.0,0
960,960,-0.2044437381031029,-0.2,1.0,0.0,455.0,628.0,0.0,0,857.0,1
961,961,0.7660000853319683,0.8,1.0,1.0,325.0,728.0,1.0,1,77.0,1
962,962,0.4547204750214734,0.5,0.0,0.0,452.0,534.0,0.0,1,524.0,1
963,963,0.310581279320593,0.3,0.0,0.0,475.0,715.0,0.0,1,120.0,1
964,964,0.6899367113231459,0.7,0.0,0.0,357.0,782.0,0.0,1,191.0,1
965,965,-0.3923839900340216,-0.4,1.0,0.0,311.0,947.0,0.0,0,302.0,1
966,966,0.5591932405233738,0.6,0.0,0.0,429.0,815.0,0.0,1,366.0,1
967,967,-0.597951585607063,-0.6,0.0,1.0,375.0,766.0,1.0,0,159.0,1
968,968,-0.5913604125310743,-0.6,1.0,0.0,350.0,955.0,0.0,0,165.0,1
969,969,0.3388637140594358,0.3,0.0,0.0,373.0,526.0,0.0,1,641.0,1
970,970,0.8636532573698933,0.9,1.0,1.0,358.0,985.0,1.0,1,217.0,1
971,971,-0.06940880880579259,-0.1,0.0,1.0,434.0,971.0,0.0,1,1595.0,0
972,972,-0.3970884955912227,-0.4,1.0,0.0,378.0,861.0,0.0,0,111.0,1
973,973,0.7996383531663954,0.8,0.0,0.0,288.0,831.0,0.0,1,331.0,1
974,974,0.3302154897099493,0.3,1.0,1.0,470.0,711.0,1.0,1,1349.0,1
975,975,-0.501509418874361,-0.5,1.0,0.0,335.0,629.0,0.0,0,366.0,1
976,976,-0.29637556758965145,-0.3,0.0,1.0,284.0,887.0,1.0,0,359.0,1
977,977,-0.06390923022611561,-0.1,0.0,1.0,278.0,598.0,1.0,0,714.0,1
978,978,-0.12837934829333553,-0.1,0.0,1.0,386.0,638.0,1.0,0,536.0,1
979,979,-0.7447614164301437,-0.7,0.0,1.0,360.0,902.0,1.0,0,218.0,1
980,980,-0.3427949355373813,-0.3,1.0,0.0,415.0,559.0,0.0,0,486.0,1
981,981,-0.8154163131227378,-0.8,0.0,1.0,258.0,958.0,1.0,0,204.0,1
982,982,0.5704543142859474,0.6,0.0,0.0,279.0,735.0,0.0,1,236.0,1
983,983,-0.15727026905542163,-0.2,0.0,1.0,361.0,792.0,1.0,0,777.0,1
984,984,-0.5854916486980692,-0.6,0.0,1.0,384.0,617.0,1.0,0,249.0,1
985,985,-0.21267936341578486,-0.2,0.0,1.0,366.0,841.0,1.0,0,573.0,1
986,986,0.4552409042089488,0.5,0.0,0.0,344.0,696.0,0.0,1,140.0,1
987,987,0.563622148773996,0.6,1.0,1.0,268.0,572.0,1.0,1,220.0,1
988,988,-0.03263022650414993,-0.0,0.0,1.0,432.0,598.0,0.0,1,1970.0,0
989,989,-0.34863247445232903,-0.3,0.0,1.0,316.0,917.0,1.0,0,507.0,1
990,990,0.28023628245416876,0.3,1.0,1.0,485.0,670.0,1.0,1,665.0,1
991,991,-0.828086668612106,-0.8,0.0,1.0,490.0,628.0,1.0,0,142.0,1
992,992,0.731251607820235,0.7,0.0,0.0,317.0,752.0,0.0,1,181.0,1
993,993,0.7192496831104377,0.7,1.0,1.0,400.0,940.0,1.0,1,350.0,1
994,994,0.827836880066663,0.8,0.0,0.0,346.0,637.0,0.0,1,277.0,1
995,995,-0.5707510721678684,-0.6,0.0,1.0,324.0,794.0,1.0,0,372.0,1
996,996,-0.4682848223291081,-0.5,1.0,0.0,348.0,611.0,0.0,0,301.0,1
997,997,0.03218950713001001,0.0,1.0,1.0,452.0,772.0,0.0,0,1226.0,0
998,998,0.49338296636450096,0.5,0.0,0.0,317.0,935.0,0.0,1,218.0,1
999,999,-0.6023774164969395,-0.6,1.0,0.0,298.0,709.0,0.0,0,323.0,1
1000,1000,-0.541842391274423,-0.5,0.0,1.0,307.0,503.0,1.0,0,450.0,1
1001,1001,-0.37903695674876137,-0.4,1.0,0.0,436.0,929.0,0.0,0,495.0,1
1002,1002,0.04701485084956647,0.0,1.0,1.0,357.0,754.0,0.0,0,1889.0,0
1003,1003,0.7514957732400952,0.8,0.0,0.0,318.0,810.0,0.0,1,92.0,1
1004,1004,-0.43372764669592173,-0.4,1.0,0.0,381.0,839.0,0.0,0,310.0,1
1005,1005,-0.7982040148742221,-0.8,1.0,0.0,254.0,984.0,0.0,0,82.0,1
1006,1006,-0.6544707841044378,-0.7,0.0,1.0,338.0,721.0,1.0,0,81.0,1
1007,1007,-0.5964114541130248,-0.6,1.0,0.0,477.0,834.0,0.0,0,319.0,1
1008,1008,0.739885870682578,0.7,0.0,0.0,338.0,924.0,0.0,1,158.0,1
1009,1009,-0.8884311094776671,-0.9,0.0,1.0,403.0,912.0,1.0,0,65.0,1
1010,1010,0.07692899429588762,0.1,1.0,1.0,462.0,723.0,1.0,1,1815.0,1
1011,1011,0.1466439252425661,0.1,1.0,1.0,356.0,933.0,1.0,1,1281.0,1
1012,1012,0.5384482188340501,0.5,1.0,1.0,330.0,914.0,1.0,1,336.0,1
1013,1013,-0.8220694907457923,-0.8,0.0,1.0,438.0,659.0,1.0,0,113.0,1
1014,1014,0.7157502586990708,0.7,0.0,0.0,254.0,873.0,0.0,1,243.0,1
1015,1015,0.6805374015051598,0.7,0.0,0.0,360.0,685.0,0.0,1,125.0,1
1016,1016,0.33621725175812556,0.3,0.0,0.0,312.0,658.0,0.0,1,660.0,1
1017,1017,0.2583822021387886,0.3,0.0,0.0,476.0,993.0,0.0,1,521.0,1
1018,1018,0.2165373972807999,0.2,1.0,1.0,333.0,608.0,1.0,1,709.0,1
1019,1019,0.4527115420156854,0.5,1.0,1.0,298.0,923.0,1.0,1,99.0,1
1020,1020,0.6146566135696095,0.6,1.0,1.0,320.0,863.0,1.0,1,137.0,1
1021,1021,-0.4377191476822621,-0.4,0.0,1.0,367.0,542.0,1.0,0,511.0,1
1022,1022,0.0443413062574779,0.0,0.0,0.0,293.0,927.0,0.0,1,1780.0,1
1023,1023,-0.487874030522593,-0.5,0.0,1.0,416.0,905.0,1.0,0,179.0,1
1024,1024,-0.8007428512044302,-0.8,0.0,1.0,478.0,536.0,1.0,0,296.0,1
1025,1025,-0.04661144833172037,-0.0,1.0,0.0,364.0,573.0,0.0,0,2063.0,1
1026,1026,0.7422387845683153,0.7,0.0,0.0,354.0,934.0,0.0,1,62.0,1
1027,1027,-0.08911107130575191,-0.1,0.0,1.0,289.0,595.0,1.0,0,1956.0,1
1028,1028,0.7742986595607092,0.8,1.0,1.0,319.0,974.0,1.0,1,217.0,1
1029,1029,0.562804740982996,0.6,1.0,1.0,270.0,724.0,1.0,1,476.0,1
1030,1030,0.8233845962528922,0.8,1.0,1.0,409.0,782.0,1.0,1,209.0,1
1031,1031,-0.8564518176691435,-0.9,1.0,0.0,381.0,948.0,0.0,0,61.0,1
1032,1032,0.6083880876317332,0.6,1.0,1.0,333.0,806.0,1.0,1,251.0,1
1033,1033,-0.049498251789902414,-0.0,0.0,1.0,354.0,675.0,1.0,0,1971.0,1
1034,1034,0.3068124656654695,0.3,0.0,0.0,393.0,832.0,0.0,1,295.0,1
1035,1035,0.1774822671612276,0.2,0.0,0.0,459.0,968.0,1.0,0,-247.0,0
1036,1036,-0.5224739852727629,-0.5,1.0,0.0,421.0,991.0,0.0,0,28.0,1
1037,1037,0.21033632991293139,0.2,0.0,0.0,304.0,678.0,0.0,1,768.0,1
1038,1038,-0.3508715476083185,-0.4,1.0,0.0,388.0,543.0,0.0,0,639.0,1
1039,1039,-0.39522876567544174,-0.4,1.0,0.0,282.0,676.0,0.0,0,232.0,1
1040,1040,-0.3438457740286458,-0.3,1.0,0.0,388.0,964.0,0.0,0,238.0,1
1041,1041,-0.49081305701971456,-0.5,1.0,0.0,421.0,795.0,0.0,0,134.0,1
1042,1042,0.23204794816347707,0.2,0.0,0.0,309.0,596.0,0.0,1,225.0,1
1043,1043,-0.7756068556425275,-0.8,0.0,1.0,487.0,969.0,1.0,0,274.0,1
1044,1044,0.22899976517772413,0.2,1.0,1.0,329.0,593.0,1.0,1,938.0,1
1045,1045,0.6780189386200205,0.7,0.0,0.0,339.0,577.0,0.0,1,174.0,1
1046,1046,0.5888213636205096,0.6,1.0,1.0,475.0,740.0,1.0,1,215.0,1
1047,1047,0.4636761999303213,0.5,1.0,1.0,482.0,794.0,1.0,1,384.0,1
1048,1048,-0.09298386630669186,-0.1,1.0,0.0,325.0,994.0,0.0,0,1201.0,1
1049,1049,-0.3300203995165931,-0.3,1.0,0.0,317.0,841.0,0.0,0,172.0,1
1050,1050,-0.22374437149475668,-0.2,0.0,1.0,318.0,981.0,1.0,0,391.0,1
1051,1051,-0.3800457183941255,-0.4,0.0,1.0,259.0,835.0,1.0,0,536.0,1
1052,1052,-0.8347174243514666,-0.8,0.0,1.0,354.0,959.0,1.0,0,97.0,1
1053,1053,-0.17268057339267529,-0.2,1.0,0.0,442.0,582.0,0.0,0,1126.0,1
1054,1054,-0.5929762752080242,-0.6,0.0,1.0,397.0,808.0,1.0,0,205.0,1
1055,1055,-0.8639892451978781,-0.9,1.0,0.0,268.0,783.0,0.0,0,319.0,1
1056,1056,0.559259715405244,0.6,0.0,0.0,495.0,723.0,0.0,1,242.0,1
1057,1057,0.5475369302641876,0.5,0.0,0.0,386.0,677.0,0.0,1,157.0,1
1058,1058,-0.5045861171195665,-0.5,1.0,0.0,291.0,933.0,0.0,0,366.0,1
1059,1059,-0.8582218053123355,-0.9,0.0,1.0,275.0,707.0,1.0,0,198.0,1
1060,1060,-0.8537010195496102,-0.9,0.0,1.0,382.0,828.0,1.0,0,180.0,1
1061,1061,0.6612398862617422,0.7,1.0,1.0,287.0,592.0,1.0,1,411.0,1
1062,1062,0.6176215533324739,0.6,0.0,0.0,352.0,548.0,0.0,1,250.0,1
1063,1063,-0.6189233589522875,-0.6,0.0,1.0,394.0,867.0,1.0,0,199.0,1
1064,1064,-0.5930485187882403,-0.6,1.0,0.0,313.0,677.0,0.0,0,420.0,1
1065,1065,0.6470848211899419,0.6,1.0,1.0,263.0,912.0,1.0,1,155.0,1
1066,1066,0.49957340679654816,0.5,1.0,1.0,383.0,684.0,1.0,1,263.0,1
1067,1067,0.4849181688294427,0.5,1.0,1.0,401.0,882.0,1.0,1,407.0,1
1068,1068,-0.4781674295696671,-0.5,1.0,0.0,491.0,551.0,0.0,0,318.0,1
1069,1069,-0.2909039329243429,-0.3,1.0,0.0,413.0,846.0,0.0,0,221.0,1
1070,1070,0.5303646760106041,0.5,0.0,0.0,391.0,680.0,0.0,1,299.0,1
1071,1071,0.5491319103641329,0.5,1.0,1.0,440.0,959.0,1.0,1,231.0,1
1072,1072,0.20468774362339548,0.2,1.0,1.0,358.0,950.0,1.0,1,1032.0,1
1073,1073,-0.10143714828686623,-0.1,0.0,1.0,290.0,925.0,1.0,0,1435.0,1
1074,1074,0.2739390526522837,0.3,0.0,0.0,490.0,810.0,0.0,1,-230.0,1
1075,1075,-0.49292571515102385,-0.5,1.0,0.0,363.0,534.0,0.0,0,193.0,1
1076,1076,0.7666678315260264,0.8,0.0,0.0,307.0,639.0,0.0,1,244.0,1
1077,1077,0.3484411975729421,0.3,1.0,1.0,429.0,790.0,1.0,1,501.0,1
1078,1078,-0.8503634181531027,-0.9,1.0,0.0,491.0,745.0,0.0,0,354.0,1
1079,1079,0.5492305012162341,0.5,1.0,1.0,424.0,855.0,1.0,1,251.0,1
1080,1080,-0.8548073346748639,-0.9,1.0,0.0,421.0,944.0,0.0,0,205.0,1
1081,1081,0.7353165024393474,0.7,1.0,1.0,481.0,775.0,1.0,1,104.0,1
1082,1082,-0.5499497281622976,-0.5,1.0,0.0,283.0,971.0,0.0,0,156.0,1
1083,1083,0.031849583464968134,0.0,1.0,1.0,492.0,828.0,1.0,1,-410.0,1
1084,1084,0.3976087848149278,0.4,0.0,0.0,277.0,802.0,0.0,1,191.0,1
1085,1085,-0.6587023284529859,-0.7,0.0,1.0,437.0,530.0,1.0,0,273.0,1
1086,1086,-0.7549849627604588,-0.8,1.0,0.0,461.0,757.0,0.0,0,142.0,1
1087,1087,0.14958967341817997,0.1,0.0,0.0,413.0,584.0,0.0,1,663.0,1
1088,1088,-0.18739056440993862,-0.2,0.0,1.0,432.0,653.0,1.0,0,1565.0,1
1089,1089,0.7793901756800968,0.8,1.0,1.0,332.0,512.0,1.0,1,206.0,1
1090,1090,-0.03900489627606829,-0.0,0.0,1.0,304.0,918.0,0.0,1,1128.0,0
1091,1091,-0.19335980981546308,-0.2,1.0,0.0,451.0,591.0,0.0,0,748.0,1
1092,1092,0.3416721569588669,0.3,0.0,0.0,300.0,914.0,0.0,1,196.0,1
1093,1093,0.6778252528144658,0.7,1.0,1.0,356.0,616.0,1.0,1,418.0,1
1094,1094,0.3212225626928552,0.3,0.0,0.0,482.0,732.0,1.0,0,-194.0,0
1095,1095,-0.7772709558189675,-0.8,1.0,0.0,381.0,941.0,0.0,0,68.0,1
1096,1096,0.7280581366263729,0.7,0.0,0.0,359.0,661.0,0.0,1,300.0,1
1097,1097,-0.5146113481716353,-0.5,1.0,0.0,488.0,822.0,0.0,0,160.0,1
1098,1098,-0.1489756133581982,-0.1,0.0,1.0,423.0,782.0,0.0,1,25.0,0
1099,1099,-0.44592004287831194,-0.4,1.0,0.0,392.0,822.0,0.0,0,196.0,1
1100,1100,-0.053746098564420586,-0.1,1.0,0.0,284.0,828.0,0.0,0,1888.0,1
1101,1101,0.4915354855794255,0.5,1.0,1.0,481.0,703.0,1.0,1,386.0,1
1102,1102,0.7319104732751235,0.7,0.0,0.0,359.0,837.0,0.0,1,224.0,1
1103,1103,0.314646841471926,0.3,0.0,0.0,337.0,567.0,0.0,1,916.0,1
1104,1104,0.5596617229167836,0.6,0.0,0.0,257.0,613.0,0.0,1,100.0,1
1105,1105,0.6098242129078134,0.6,0.0,0.0,495.0,537.0,0.0,1,338.0,1
1106,1106,-0.01157089689863322,-0.0,0.0,1.0,492.0,723.0,1.0,0,1785.0,1
1107,1107,0.6249510912275466,0.6,1.0,1.0,371.0,892.0,1.0,1,257.0,1
1108,1108,-0.6407989868016648,-0.6,1.0,0.0,282.0,616.0,0.0,0,252.0,1
1109,1109,0.29185454489977125,0.3,1.0,1.0,475.0,531.0,1.0,1,474.0,1
1110,1110,0.8449877522001555,0.8,1.0,1.0,258.0,707.0,1.0,1,245.0,1
1111,1111,0.0644060002538156,0.1,1.0,1.0,480.0,717.0,1.0,1,1803.0,1
1112,1112,-0.10407518534697835,-0.1,0.0,1.0,313.0,855.0,1.0,0,292.0,1
1113,1113,0.477486820580462,0.5,1.0,1.0,288.0,501.0,1.0,1,221.0,1
1114,1114,-0.698346726235062,-0.7,1.0,0.0,301.0,753.0,0.0,0,256.0,1
1115,1115,-0.3359652611610855,-0.3,1.0,0.0,453.0,916.0,0.0,0,61.0,1
1116,1116,0.34216519926676947,0.3,0.0,0.0,414.0,625.0,0.0,1,591.0,1
1117,1117,-0.1266918471802826,-0.1,1.0,0.0,397.0,965.0,0.0,0,1638.0,1
1118,1118,0.4206407955856014,0.4,1.0,1.0,380.0,932.0,1.0,1,1088.0,1
1119,1119,-0.3345901638546863,-0.3,0.0,1.0,315.0,908.0,1.0,0,217.0,1
1120,1120,-0.24707930492715924,-0.2,0.0,1.0,311.0,557.0,1.0,0,1072.0,1
1121,1121,0.7939543404827577,0.8,1.0,1.0,298.0,916.0,1.0,1,256.0,1
1122,1122,-0.7849424027163066,-0.8,1.0,0.0,496.0,560.0,0.0,0,484.0,1
1123,1123,-0.4396350615748337,-0.4,1.0,0.0,257.0,899.0,0.0,0,364.0,1
1124,1124,0.6808046140175582,0.7,0.0,0.0,410.0,838.0,0.0,1,232.0,1
1125,1125,-0.3029745504501955,-0.3,1.0,0.0,444.0,549.0,0.0,0,287.0,1
1126,1126,0.5627216316655103,0.6,1.0,1.0,426.0,849.0,1.0,1,365.0,1
1127,1127,0.21405348116709566,0.2,0.0,0.0,315.0,855.0,0.0,1,590.0,1
1128,1128,-0.7627454481277043,-0.8,1.0,0.0,390.0,618.0,0.0,0,92.0,1
1129,1129,0.4199219052691635,0.4,1.0,1.0,279.0,703.0,1.0,1,408.0,1
1130,1130,0.5066997683287274,0.5,1.0,1.0,295.0,765.0,1.0,1,220.0,1
1131,1131,0.8436918289047602,0.8,1.0,1.0,339.0,815.0,1.0,1,66.0,1
1132,1132,0.43419014814447066,0.4,1.0,1.0,443.0,726.0,1.0,1,281.0,1
1133,1133,-0.5268936733800633,-0.5,1.0,0.0,446.0,923.0,0.0,0,101.0,1
1134,1134,0.2882395923511657,0.3,1.0,1.0,336.0,760.0,1.0,1,1044.0,1
1135,1135,0.6065455151804474,0.6,0.0,0.0,445.0,611.0,0.0,1,314.0,1
1136,1136,0.7573434877167907,0.8,0.0,0.0,294.0,631.0,0.0,1,145.0,1
1137,1137,-0.10511617141533236,-0.1,1.0,0.0,429.0,690.0,0.0,0,1231.0,1
1138,1138,0.6191120748770146,0.6,1.0,1.0,294.0,972.0,1.0,1,564.0,1
1139,1139,-0.25025058648547793,-0.3,1.0,0.0,327.0,819.0,0.0,0,714.0,1
1140,1140,-0.6070390694837249,-0.6,1.0,0.0,373.0,997.0,0.0,0,210.0,1
1141,1141,0.7251048536277959,0.7,1.0,1.0,412.0,997.0,1.0,1,141.0,1
1142,1142,-0.14755075409922647,-0.1,0.0,1.0,354.0,526.0,1.0,0,1220.0,1
1143,1143,-0.678518222450246,-0.7,0.0,1.0,345.0,968.0,1.0,0,237.0,1
1144,1144,-0.017253712584398007,-0.0,0.0,1.0,300.0,752.0,0.0,1,1948.0,0
1145,1145,0.34905753083011615,0.3,1.0,1.0,411.0,820.0,1.0,1,329.0,1
1146,1146,-0.38649636228271267,-0.4,0.0,1.0,286.0,658.0,1.0,0,556.0,1
1147,1147,0.4909684015808574,0.5,0.0,0.0,302.0,884.0,0.0,1,234.0,1
1148,1148,-0.6650436851304717,-0.7,1.0,0.0,404.0,595.0,0.0,0,221.0,1
1149,1149,0.6464320016333155,0.6,0.0,0.0,254.0,629.0,0.0,1,307.0,1
1150,1150,-0.8845633344281302,-0.9,0.0,1.0,268.0,652.0,1.0,0,170.0,1
1151,1151,0.6516360917292655,0.7,1.0,1.0,419.0,500.0,1.0,1,271.0,1
1152,1152,-0.8141052483440882,-0.8,0.0,1.0,296.0,618.0,1.0,0,166.0,1
1153,1153,-0.7877972682223475,-0.8,1.0,0.0,255.0,570.0,0.0,0,165.0,1
1154,1154,-0.3268801523897844,-0.3,0.0,1.0,306.0,716.0,1.0,0,428.0,1
1155,1155,-0.820109404233838,-0.8,0.0,1.0,346.0,917.0,1.0,0,187.0,1
1156,1156,0.20180291920375526,0.2,1.0,1.0,284.0,749.0,1.0,1,1107.0,1
1157,1157,-0.3238340195219065,-0.3,1.0,0.0,284.0,978.0,0.0,0,278.0,1
1158,1158,-0.028922408404689515,-0.0,1.0,0.0,389.0,826.0,1.0,1,1785.0,0
1159,1159,-0.5805472682558986,-0.6,0.0,1.0,286.0,619.0,1.0,0,1025.0,1
1160,1160,-0.43455268400774216,-0.4,1.0,0.0,253.0,796.0,0.0,0,351.0,1
1161,1161,-0.7412554577587351,-0.7,1.0,0.0,481.0,969.0,0.0,0,230.0,1
1162,1162,0.31099008353710633,0.3,0.0,0.0,309.0,888.0,0.0,1,413.0,1
1163,1163,0.8366411338453416,0.8,0.0,0.0,352.0,829.0,0.0,1,79.0,1
1164,1164,0.3628797709930772,0.4,0.0,0.0,388.0,950.0,0.0,1,102.0,1
1165,1165,0.8448082235230504,0.8,0.0,0.0,391.0,836.0,0.0,1,203.0,1
1166,1166,0.018885748308214212,0.0,1.0,1.0,499.0,743.0,0.0,0,1648.0,0
1167,1167,-0.3382795347287336,-0.3,0.0,1.0,426.0,509.0,1.0,0,445.0,1
1168,1168,-0.2174649342604218,-0.2,1.0,0.0,415.0,531.0,0.0,0,234.0,1
1169,1169,-0.468275766869153,-0.5,0.0,1.0,286.0,741.0,1.0,0,163.0,1
1170,1170,-0.29567532752101844,-0.3,1.0,0.0,389.0,877.0,0.0,0,234.0,1
1171,1171,0.21153572559287148,0.2,1.0,1.0,268.0,836.0,1.0,1,546.0,1
1172,1172,0.5943566859758894,0.6,0.0,0.0,383.0,964.0,0.0,1,173.0,1
1173,1173,-0.37944806336750025,-0.4,1.0,0.0,418.0,921.0,0.0,0,-339.0,1
1174,1174,-0.5073164189902127,-0.5,0.0,1.0,258.0,794.0,1.0,0,448.0,1
1175,1175,-0.47334837538571123,-0.5,0.0,1.0,445.0,704.0,1.0,0,371.0,1
1176,1176,-0.5549847528574039,-0.6,1.0,0.0,448.0,794.0,0.0,0,238.0,1
1177,1177,-0.3470612743264051,-0.3,0.0,1.0,361.0,546.0,1.0,0,233.0,1
1178,1178,0.6331741876024292,0.6,0.0,0.0,434.0,661.0,0.0,1,215.0,1
1179,1179,-0.5169557972083354,-0.5,1.0,0.0,415.0,512.0,0.0,0,323.0,1
1180,1180,0.6485886439260179,0.6,0.0,0.0,379.0,884.0,0.0,1,67.0,1
1181,1181,0.8755377114855628,0.9,0.0,0.0,411.0,524.0,0.0,1,305.0,1
1182,1182,-0.7267446919630022,-0.7,0.0,1.0,313.0,863.0,1.0,0,114.0,1
1183,1183,0.5130787572265377,0.5,1.0,1.0,451.0,914.0,1.0,1,895.0,1
1184,1184,-0.32376966813450925,-0.3,1.0,0.0,497.0,902.0,0.0,0,111.0,1
1185,1185,0.19343357169180064,0.2,1.0,1.0,304.0,858.0,1.0,1,838.0,1
1186,1186,0.4894248142127914,0.5,0.0,0.0,416.0,530.0,0.0,1,174.0,1
1187,1187,-0.6460200302958257,-0.6,0.0,1.0,466.0,940.0,1.0,0,124.0,1
1188,1188,-0.6229927623799276,-0.6,1.0,0.0,370.0,643.0,0.0,0,217.0,1
1189,1189,0.0319720652904405,0.0,1.0,1.0,466.0,662.0,1.0,1,512.0,1
1190,1190,0.27889850393905,0.3,1.0,1.0,364.0,505.0,1.0,1,741.0,1
1191,1191,-0.6454425629991896,-0.6,0.0,1.0,364.0,720.0,1.0,0,346.0,1
1192,1192,-0.4638231288637325,-0.5,1.0,0.0,449.0,739.0,0.0,0,232.0,1
1193,1193,0.5050897922629739,0.5,1.0,1.0,456.0,778.0,1.0,1,306.0,1
1194,1194,0.832927639627184,0.8,1.0,1.0,278.0,846.0,1.0,1,166.0,1
1195,1195,0.7608498613508151,0.8,0.0,0.0,318.0,627.0,0.0,1,265.0,1
1196,1196,0.29978936181986693,0.3,1.0,1.0,378.0,633.0,1.0,1,679.0,1
1197,1197,0.04721782359217641,0.0,1.0,1.0,285.0,896.0,0.0,0,-61.0,0
1198,1198,0.044928136330148694,0.0,0.0,0.0,460.0,647.0,0.0,1,1623.0,1
1199,1199,-0.08307613241415468,-0.1,1.0,0.0,407.0,889.0,0.0,0,654.0,1
1200,1200,-0.5413662112084114,-0.5,0.0,1.0,329.0,891.0,1.0,0,250.0,1
1201,1201,-0.3230111087680092,-0.3,0.0,1.0,464.0,946.0,1.0,0,510.0,1
1202,1202,-0.15802996449950113,-0.2,0.0,1.0,356.0,574.0,1.0,0,470.0,1
1203,1203,-0.5788640959030646,-0.6,1.0,0.0,341.0,887.0,0.0,0,62.0,1
1204,1204,-0.4444466031732108,-0.4,0.0,1.0,338.0,824.0,1.0,0,358.0,1
1205,1205,0.5899100317835967,0.6,0.0,0.0,443.0,665.0,0.0,1,132.0,1
1206,1206,-0.14336225944305814,-0.1,0.0,1.0,349.0,812.0,1.0,0,1249.0,1
1207,1207,0.5589603338665087,0.6,0.0,0.0,335.0,942.0,0.0,1,133.0,1
1208,1208,0.27102365226862524,0.3,1.0,1.0,365.0,730.0,1.0,1,1035.0,1
1209,1209,0.6198972777496518,0.6,1.0,1.0,299.0,935.0,1.0,1,226.0,1
1210,1210,-0.6910348657700264,-0.7,0.0,1.0,349.0,731.0,1.0,0,230.0,1
1211,1211,0.6067810229612086,0.6,1.0,1.0,277.0,765.0,1.0,1,228.0,1
1212,1212,0.37251351135686794,0.4,1.0,1.0,466.0,648.0,1.0,1,806.0,1
1213,1213,0.6918835863963363,0.7,0.0,0.0,262.0,988.0,0.0,1,60.0,1
1214,1214,0.44083492417444836,0.4,0.0,0.0,449.0,517.0,0.0,1,334.0,1
1215,1215,0.37701057398695503,0.4,1.0,1.0,317.0,727.0,1.0,1,366.0,1
1216,1216,-0.04500086346803034,-0.0,1.0,0.0,274.0,913.0,0.0,0,1753.0,1
1217,1217,0.060996436300045365,0.1,0.0,0.0,334.0,610.0,1.0,0,2056.0,0
1218,1218,-0.8398620867774821,-0.8,1.0,0.0,406.0,709.0,0.0,0,175.0,1
1219,1219,0.4000092947692092,0.4,0.0,0.0,255.0,557.0,0.0,1,318.0,1
1220,1220,0.02117067139278417,0.0,0.0,0.0,423.0,876.0,0.0,1,1641.0,1
1221,1221,-0.7105268661815001,-0.7,1.0,0.0,375.0,668.0,0.0,0,147.0,1
1222,1222,0.7331155191744169,0.7,0.0,0.0,410.0,557.0,0.0,1,103.0,1
1223,1223,-0.008373935754048989,-0.0,1.0,0.0,421.0,902.0,0.0,0,1347.0,1
1224,1224,0.1379280301811764,0.1,1.0,1.0,342.0,720.0,1.0,1,458.0,1
1225,1225,-0.7193220193895032,-0.7,1.0,0.0,374.0,763.0,0.0,0,233.0,1
1226,1226,-0.5625586676346219,-0.6,0.0,1.0,265.0,634.0,1.0,0,261.0,1
1227,1227,-0.5571645876476617,-0.6,1.0,0.0,423.0,836.0,0.0,0,81.0,1
1228,1228,-0.20268598465528997,-0.2,1.0,0.0,284.0,670.0,0.0,0,856.0,1
1229,1229,-0.8947811663715899,-0.9,0.0,1.0,296.0,783.0,1.0,0,121.0,1
1230,1230,-0.6362817801861471,-0.6,1.0,0.0,459.0,743.0,0.0,0,168.0,1
1231,1231,0.32478811018278486,0.3,1.0,1.0,422.0,676.0,1.0,1,632.0,1
1232,1232,0.13312390873555457,0.1,0.0,0.0,263.0,549.0,0.0,1,998.0,1
1233,1233,0.8388668995931748,0.8,0.0,0.0,317.0,693.0,0.0,1,220.0,1
1234,1234,0.8603950388687255,0.9,1.0,1.0,262.0,966.0,1.0,1,152.0,1
1235,1235,-0.1005619688557583,-0.1,1.0,0.0,250.0,847.0,0.0,0,1903.0,1
1236,1236,0.35284131727166257,0.4,1.0,1.0,329.0,541.0,1.0,1,550.0,1
1237,1237,-0.1586637692525419,-0.2,1.0,0.0,389.0,572.0,0.0,0,639.0,1
1238,1238,-0.133733601830066,-0.1,1.0,0.0,256.0,851.0,0.0,0,323.0,1
1239,1239,-0.2764484155409316,-0.3,0.0,1.0,424.0,943.0,1.0,0,323.0,1
1240,1240,0.056725512086420404,0.1,1.0,1.0,498.0,529.0,1.0,1,1973.0,1
1241,1241,0.1587625012274153,0.2,0.0,0.0,489.0,721.0,0.0,1,770.0,1
1242,1242,0.6808247185269031,0.7,1.0,1.0,472.0,880.0,1.0,1,258.0,1
1243,1243,0.7359949403586755,0.7,0.0,0.0,282.0,512.0,0.0,1,186.0,1
1244,1244,0.6243290462626164,0.6,1.0,1.0,262.0,674.0,1.0,1,264.0,1
1245,1245,-0.6881238713841101,-0.7,1.0,0.0,321.0,955.0,0.0,0,334.0,1
1246,1246,-0.4504734172646995,-0.5,1.0,0.0,392.0,754.0,0.0,0,144.0,1
1247,1247,-0.7638095508006669,-0.8,0.0,1.0,497.0,798.0,1.0,0,165.0,1
1248,1248,0.8653962105599932,0.9,0.0,0.0,432.0,557.0,0.0,1,421.0,1
1249,1249,-0.38663722200275774,-0.4,1.0,0.0,428.0,923.0,0.0,0,99.0,1
1250,1250,0.8524394811210886,0.9,0.0,0.0,366.0,537.0,0.0,1,-273.0,1
1251,1251,0.3957550340277801,0.4,1.0,1.0,315.0,637.0,1.0,1,488.0,1
1252,1252,0.6109034945541619,0.6,0.0,0.0,443.0,504.0,0.0,1,153.0,1
1253,1253,0.03850411381507146,0.0,1.0,1.0,337.0,579.0,0.0,0,2084.0,0
1254,1254,0.6748194979659873,0.7,0.0,0.0,344.0,603.0,0.0,1,163.0,1
1255,1255,0.7307118099246283,0.7,1.0,1.0,449.0,805.0,1.0,1,106.0,1
1256,1256,-0.3267832905183985,-0.3,0.0,1.0,341.0,635.0,1.0,0,774.0,1
1257,1257,-0.06695388339369479,-0.1,1.0,0.0,361.0,806.0,0.0,0,963.0,1
1258,1258,0.3197983999010007,0.3,1.0,1.0,282.0,689.0,1.0,1,209.0,1
1259,1259,0.48879176912168754,0.5,1.0,1.0,462.0,979.0,1.0,1,359.0,1
1260,1260,-0.5325443571402144,-0.5,0.0,1.0,368.0,915.0,1.0,0,197.0,1
1261,1261,-0.8309917234547357,-0.8,0.0,1.0,335.0,849.0,1.0,0,146.0,1
1262,1262,0.8797498816628736,0.9,1.0,1.0,354.0,553.0,1.0,1,123.0,1
1263,1263,0.6686949999244957,0.7,0.0,0.0,307.0,646.0,0.0,1,347.0,1
1264,1264,-0.6299815656755712,-0.6,0.0,1.0,364.0,785.0,1.0,0,221.0,1
1265,1265,0.3022484151663277,0.3,1.0,1.0,351.0,734.0,1.0,1,315.0,1
1266,1266,0.49595897927543897,0.5,0.0,0.0,417.0,729.0,0.0,1,164.0,1
1267,1267,0.727631497787505,0.7,1.0,1.0,427.0,568.0,1.0,1,355.0,1
1268,1268,0.2310207559949745,0.2,1.0,1.0,307.0,766.0,1.0,1,327.0,1
1269,1269,0.6629083784328383,0.7,0.0,0.0,272.0,669.0,0.0,1,239.0,1
1270,1270,0.09900384189054423,0.1,1.0,1.0,427.0,777.0,1.0,1,986.0,1
1271,1271,0.028200447182162636,0.0,0.0,0.0,309.0,787.0,0.0,1,1504.0,1
1272,1272,0.2361118661000131,0.2,0.0,0.0,400.0,698.0,0.0,1,192.0,1
1273,1273,-0.48258083629276644,-0.5,1.0,0.0,388.0,545.0,0.0,0,247.0,1
1274,1274,-0.4763073221438473,-0.5,1.0,0.0,347.0,511.0,0.0,0,92.0,1
1275,1275,-0.5182892511240651,-0.5,0.0,1.0,348.0,971.0,1.0,0,241.0,1
1276,1276,0.3031203325293409,0.3,1.0,1.0,434.0,513.0,1.0,1,223.0,1
1277,1277,-0.39943111464350156,-0.4,0.0,1.0,389.0,719.0,1.0,0,492.0,1
1278,1278,-0.14711192007174312,-0.1,0.0,1.0,484.0,815.0,1.0,0,1701.0,1
1279,1279,0.4290413637921867,0.4,0.0,0.0,366.0,650.0,0.0,1,284.0,1
1280,1280,-0.4002894843148991,-0.4,1.0,0.0,451.0,941.0,0.0,0,108.0,1
1281,1281,0.8757212488825431,0.9,0.0,0.0,308.0,641.0,0.0,1,91.0,1
1282,1282,-0.8135953179074731,-0.8,1.0,0.0,368.0,794.0,0.0,0,208.0,1
1283,1283,0.2119705945387883,0.2,1.0,1.0,398.0,831.0,1.0,1,731.0,1
1284,1284,-0.46384577185578746,-0.5,1.0,0.0,416.0,537.0,0.0,0,267.0,1
1285,1285,-0.7855597338580498,-0.8,1.0,0.0,498.0,849.0,0.0,0,213.0,1
1286,1286,-0.7963385848435228,-0.8,0.0,1.0,416.0,612.0,1.0,0,202.0,1
1287,1287,0.16276579250070788,0.2,1.0,1.0,480.0,640.0,1.0,1,740.0,1
1288,1288,0.2660508732171819,0.3,1.0,1.0,410.0,790.0,1.0,1,530.0,1
1289,1289,0.06355988278417624,0.1,0.0,0.0,306.0,658.0,0.0,1,526.0,1
1290,1290,-0.3863935285710347,-0.4,1.0,0.0,373.0,744.0,0.0,0,363.0,1
1291,1291,0.08071606818670429,0.1,1.0,1.0,425.0,893.0,0.0,0,1682.0,0
1292,1292,0.1765008470432189,0.2,0.0,0.0,489.0,956.0,0.0,1,715.0,1
1293,1293,-0.0866257631347378,-0.1,1.0,0.0,309.0,641.0,0.0,0,580.0,1
1294,1294,-0.08388715277437975,-0.1,1.0,0.0,272.0,766.0,0.0,0,1962.0,1
1295,1295,-0.8594978529291302,-0.9,0.0,1.0,440.0,651.0,1.0,0,259.0,1
1296,1296,0.053166162913308446,0.1,0.0,0.0,431.0,987.0,1.0,0,-58.0,0
1297,1297,-0.6462687901167746,-0.6,1.0,0.0,252.0,924.0,0.0,0,164.0,1
1298,1298,-0.6417209669581767,-0.6,0.0,1.0,416.0,910.0,1.0,0,444.0,1
1299,1299,-0.380159975580906,-0.4,0.0,1.0,256.0,728.0,1.0,0,226.0,1
1300,1300,0.1765056686410168,0.2,1.0,1.0,355.0,899.0,1.0,1,1516.0,1
1301,1301,0.16233517549652932,0.2,1.0,1.0,262.0,821.0,1.0,1,1017.0,1
1302,1302,-0.19861897971268405,-0.2,0.0,1.0,429.0,609.0,1.0,0,782.0,1
1303,1303,-0.6948548395692004,-0.7,1.0,0.0,376.0,682.0,0.0,0,182.0,1
1304,1304,0.1314815084974491,0.1,0.0,0.0,288.0,652.0,0.0,1,800.0,1
1305,1305,0.3499485747444654,0.3,1.0,1.0,415.0,769.0,1.0,1,476.0,1
1306,1306,0.7976372797164474,0.8,0.0,0.0,258.0,641.0,0.0,1,201.0,1
1307,1307,-0.3298873458824856,-0.3,0.0,1.0,327.0,527.0,1.0,0,326.0,1
1308,1308,0.5641570374474799,0.6,0.0,0.0,384.0,745.0,0.0,1,361.0,1
1309,1309,0.6521384866611185,0.7,0.0,0.0,399.0,807.0,0.0,1,204.0,1
1310,1310,0.08314540812806492,0.1,0.0,0.0,421.0,622.0,0.0,1,1957.0,1
1311,1311,-0.2884763787133249,-0.3,1.0,0.0,388.0,747.0,0.0,0,495.0,1
1312,1312,-0.22964803626153585,-0.2,1.0,0.0,436.0,608.0,0.0,0,426.0,1
1313,1313,-0.21607594709789257,-0.2,1.0,0.0,390.0,843.0,0.0,0,447.0,1
1314,1314,0.09615814381974819,0.1,1.0,1.0,381.0,591.0,1.0,1,128.0,1
1315,1315,-0.048575232169915994,-0.0,1.0,0.0,361.0,712.0,0.0,0,1927.0,1
1316,1316,0.1835597156439247,0.2,0.0,0.0,255.0,546.0,0.0,1,699.0,1
1317,1317,0.8842252125018909,0.9,0.0,0.0,326.0,875.0,0.0,1,159.0,1
1318,1318,0.49877791228227564,0.5,0.0,0.0,485.0,870.0,0.0,1,275.0,1
1319,1319,-0.4114789935155235,-0.4,1.0,0.0,296.0,754.0,0.0,0,310.0,1
1320,1320,-0.31041561245937865,-0.3,0.0,1.0,402.0,933.0,1.0,0,965.0,1
1321,1321,0.6678175741716487,0.7,0.0,0.0,392.0,850.0,0.0,1,308.0,1
1322,1322,0.16892305897826076,0.2,1.0,1.0,279.0,577.0,1.0,1,844.0,1
1323,1323,0.09490285173304636,0.1,0.0,0.0,263.0,965.0,0.0,1,242.0,1
1324,1324,-0.835873258268636,-0.8,1.0,0.0,397.0,551.0,0.0,0,202.0,1
1325,1325,0.08024353690843045,0.1,0.0,0.0,253.0,925.0,0.0,1,-308.0,1
1326,1326,-0.7748182774355098,-0.8,0.0,1.0,454.0,634.0,1.0,0,222.0,1
1327,1327,-0.7433788943811027,-0.7,1.0,0.0,296.0,967.0,0.0,0,97.0,1
1328,1328,-0.623466573366558,-0.6,0.0,1.0,318.0,889.0,1.0,0,283.0,1
1329,1329,-0.47749807892907437,-0.5,1.0,0.0,496.0,701.0,0.0,0,323.0,1
1330,1330,-0.4108607284672277,-0.4,1.0,0.0,267.0,695.0,0.0,0,168.0,1
1331,1331,0.38041783126571904,0.4,1.0,1.0,329.0,565.0,1.0,1,656.0,1
1332,1332,-0.605981224450565,-0.6,1.0,0.0,349.0,903.0,0.0,0,378.0,1
1333,1333,0.1855245543734244,0.2,0.0,0.0,492.0,583.0,0.0,1,495.0,1
1334,1334,0.4821766151806207,0.5,1.0,1.0,341.0,873.0,1.0,1,976.0,1
1335,1335,-0.8893350845261924,-0.9,0.0,1.0,455.0,702.0,1.0,0,263.0,1
1336,1336,0.575806210660149,0.6,0.0,0.0,279.0,576.0,0.0,1,405.0,1
1337,1337,-0.3642438437846547,-0.4,1.0,0.0,428.0,727.0,0.0,0,285.0,1
1338,1338,0.07590568874068471,0.1,0.0,0.0,345.0,817.0,0.0,1,1838.0,1
1339,1339,0.27510223486500396,0.3,0.0,0.0,438.0,678.0,0.0,1,394.0,1
1340,1340,-0.38762942212568907,-0.4,0.0,1.0,354.0,653.0,1.0,0,753.0,1
1341,1341,-0.3432693269453664,-0.3,1.0,0.0,290.0,943.0,0.0,0,257.0,1
1342,1342,-0.39715045572062657,-0.4,0.0,1.0,333.0,854.0,1.0,0,443.0,1
1343,1343,0.36845752761428374,0.4,1.0,1.0,255.0,972.0,1.0,1,293.0,1
1344,1344,0.01689116509097388,0.0,0.0,0.0,358.0,634.0,0.0,1,1268.0,1
1345,1345,0.6469423510034688,0.6,1.0,1.0,293.0,687.0,1.0,1,270.0,1
1346,1346,-0.4127463913687214,-0.4,0.0,1.0,411.0,779.0,1.0,0,-50.0,1
1347,1347,0.6205215668240046,0.6,1.0,1.0,345.0,822.0,1.0,1,323.0,1
1348,1348,0.0873918849126295,0.1,1.0,1.0,324.0,882.0,1.0,1,1794.0,1
1349,1349,-0.2622741999831506,-0.3,0.0,1.0,418.0,951.0,0.0,1,-649.0,0
1350,1350,0.3138752930970087,0.3,1.0,1.0,421.0,703.0,1.0,1,566.0,1
1351,1351,0.4011505379272745,0.4,0.0,0.0,402.0,924.0,0.0,1,324.0,1
1352,1352,-0.8749474219833921,-0.9,1.0,0.0,357.0,998.0,0.0,0,155.0,1
1353,1353,0.02544630500923395,0.0,1.0,1.0,304.0,891.0,1.0,1,1605.0,1
1354,1354,-0.499260976935824,-0.5,1.0,0.0,476.0,604.0,0.0,0,320.0,1
1355,1355,-0.4460859724696829,-0.4,0.0,1.0,423.0,505.0,1.0,0,372.0,1
1356,1356,0.7001482551019641,0.7,1.0,1.0,383.0,654.0,1.0,1,263.0,1
1357,1357,0.16570659538489874,0.2,0.0,0.0,461.0,745.0,0.0,1,214.0,1
1358,1358,0.7591830255741779,0.8,1.0,1.0,447.0,690.0,1.0,1,243.0,1
1359,1359,-0.7017503561755832,-0.7,0.0,1.0,302.0,750.0,1.0,0,268.0,1
1360,1360,0.49929760327695283,0.5,1.0,1.0,469.0,867.0,1.0,1,144.0,1
1361,1361,-0.575381150517115,-0.6,0.0,1.0,254.0,782.0,1.0,0,274.0,1
1362,1362,0.19839375264697623,0.2,0.0,0.0,427.0,744.0,0.0,1,199.0,1
1363,1363,0.7095074109490503,0.7,1.0,1.0,392.0,860.0,1.0,1,298.0,1
1364,1364,-0.6455075768562019,-0.6,0.0,1.0,281.0,530.0,1.0,0,819.0,1
1365,1365,-0.8558903941727612,-0.9,1.0,0.0,499.0,993.0,0.0,0,58.0,1
1366,1366,-0.026452921502820526,-0.0,1.0,0.0,464.0,623.0,0.0,0,1913.0,1
1367,1367,0.6282237030918899,0.6,1.0,1.0,266.0,748.0,0.0,0,-264.0,0
1368,1368,0.18118943843058666,0.2,0.0,0.0,288.0,656.0,0.0,1,356.0,1
1369,1369,0.369625490769801,0.4,1.0,1.0,386.0,695.0,1.0,1,399.0,1
1370,1370,-0.3005241268826847,-0.3,0.0,1.0,471.0,605.0,1.0,0,264.0,1
1371,1371,0.16768828362269128,0.2,0.0,0.0,254.0,622.0,0.0,1,984.0,1
1372,1372,-0.27262704456253695,-0.3,1.0,0.0,481.0,808.0,0.0,0,1071.0,1
1373,1373,0.3170213038351889,0.3,1.0,1.0,347.0,868.0,1.0,1,255.0,1
1374,1374,0.6430350753268889,0.6,1.0,1.0,467.0,984.0,1.0,1,159.0,1
1375,1375,-0.08218388261493714,-0.1,0.0,1.0,442.0,643.0,0.0,1,1915.0,0
1376,1376,0.23500327750555094,0.2,1.0,1.0,419.0,856.0,1.0,1,715.0,1
1377,1377,0.06986406250004662,0.1,1.0,1.0,404.0,717.0,1.0,1,349.0,1
1378,1378,0.8081366256540902,0.8,0.0,0.0,323.0,591.0,0.0,1,386.0,1
1379,1379,-0.5989699293080217,-0.6,1.0,0.0,276.0,681.0,0.0,0,243.0,1
1380,1380,0.380579401549756,0.4,0.0,0.0,272.0,911.0,0.0,1,217.0,1
1381,1381,-0.3952112272298589,-0.4,1.0,0.0,293.0,702.0,0.0,0,355.0,1
1382,1382,-0.5550783959926916,-0.6,1.0,0.0,409.0,577.0,0.0,0,224.0,1
1383,1383,0.14917538045925804,0.1,1.0,1.0,345.0,778.0,1.0,1,577.0,1
1384,1384,0.2644790030595531,0.3,1.0,1.0,273.0,906.0,0.0,0,-489.0,0
1385,1385,0.8617912330229772,0.9,0.0,0.0,488.0,770.0,0.0,1,152.0,1
1386,1386,0.1210691167040866,0.1,1.0,1.0,277.0,503.0,1.0,1,630.0,1
1387,1387,-0.371782897281282,-0.4,1.0,0.0,452.0,600.0,0.0,0,338.0,1
1388,1388,0.3551618830680122,0.4,1.0,1.0,256.0,670.0,1.0,1,704.0,1
1389,1389,0.43789477511331987,0.4,1.0,1.0,305.0,729.0,1.0,1,306.0,1
1390,1390,-0.8227115668393425,-0.8,1.0,0.0,472.0,840.0,1.0,1,-292.0,0
1391,1391,-0.7624667504638372,-0.8,0.0,1.0,293.0,731.0,1.0,0,236.0,1
1392,1392,0.47296088533825753,0.5,1.0,1.0,364.0,604.0,1.0,1,312.0,1
1393,1393,-0.5149273501897347,-0.5,1.0,0.0,441.0,724.0,0.0,0,325.0,1
1394,1394,-0.46345692368270514,-0.5,1.0,0.0,304.0,820.0,0.0,0,336.0,1
1395,1395,-0.4792758622671324,-0.5,0.0,1.0,266.0,645.0,1.0,0,349.0,1
1396,1396,-0.33518531845434196,-0.3,0.0,1.0,453.0,567.0,1.0,0,310.0,1
1397,1397,-0.06572921146703159,-0.1,0.0,1.0,251.0,643.0,1.0,0,-264.0,1
1398,1398,0.18265968754882833,0.2,1.0,1.0,426.0,614.0,1.0,1,900.0,1
1399,1399,0.5935890547959454,0.6,1.0,1.0,409.0,568.0,1.0,1,253.0,1
1400,1400,-0.22000140072688246,-0.2,1.0,0.0,425.0,876.0,0.0,0,109.0,1
1401,1401,-0.3879419057425967,-0.4,1.0,0.0,466.0,743.0,0.0,0,641.0,1
1402,1402,-0.6633513464083505,-0.7,1.0,0.0,305.0,956.0,0.0,0,289.0,1
1403,1403,0.661913830102837,0.7,1.0,1.0,344.0,853.0,1.0,1,113.0,1
1404,1404,0.6887838060757098,0.7,0.0,0.0,493.0,505.0,0.0,1,182.0,1
1405,1405,-0.4515005218782155,-0.5,1.0,0.0,465.0,976.0,0.0,0,229.0,1
1406,1406,-0.6846485867062283,-0.7,0.0,1.0,304.0,842.0,1.0,0,204.0,1
1407,1407,-0.08236286853101615,-0.1,1.0,0.0,412.0,641.0,0.0,0,1347.0,1
1408,1408,0.17728934339175273,0.2,1.0,1.0,320.0,849.0,1.0,1,1281.0,1
1409,1409,-0.6037734662038434,-0.6,0.0,1.0,253.0,664.0,1.0,0,153.0,1
1410,1410,-0.5329571064586778,-0.5,1.0,0.0,277.0,534.0,0.0,0,209.0,1
1411,1411,0.8071469629104636,0.8,1.0,1.0,300.0,803.0,1.0,1,137.0,1
1412,1412,-0.44938555245704487,-0.4,0.0,1.0,281.0,568.0,1.0,0,221.0,1
1413,1413,-0.7242293638710423,-0.7,1.0,0.0,387.0,719.0,0.0,0,504.0,1
1414,1414,-0.6615848746478357,-0.7,0.0,1.0,378.0,556.0,1.0,0,466.0,1
1415,1415,0.8545366855685795,0.9,0.0,0.0,305.0,976.0,0.0,1,169.0,1
1416,1416,-0.05289682557995257,-0.1,1.0,0.0,291.0,960.0,0.0,0,1049.0,1
1417,1417,-0.05217648162475774,-0.1,1.0,0.0,459.0,841.0,1.0,1,1700.0,0
1418,1418,0.3707111804576896,0.4,1.0,1.0,497.0,769.0,1.0,1,284.0,1
1419,1419,-0.43723277218730877,-0.4,1.0,0.0,314.0,972.0,0.0,0,234.0,1
1420,1420,0.05703560124342577,0.1,1.0,1.0,261.0,558.0,1.0,1,621.0,1
1421,1421,0.23615628033596037,0.2,1.0,1.0,274.0,989.0,1.0,1,967.0,1
1422,1422,-0.058056496003126457,-0.1,1.0,0.0,428.0,617.0,0.0,0,1955.0,1
1423,1423,-0.2919108854534602,-0.3,0.0,1.0,493.0,735.0,1.0,0,542.0,1
1424,1424,-0.2560766257008299,-0.3,0.0,1.0,329.0,577.0,1.0,0,494.0,1
1425,1425,0.32437803457167347,0.3,1.0,1.0,446.0,537.0,1.0,1,357.0,1
1426,1426,0.4132499680023659,0.4,1.0,1.0,339.0,511.0,1.0,1,440.0,1
1427,1427,-0.6937165935814623,-0.7,1.0,0.0,461.0,947.0,0.0,0,292.0,1
1428,1428,0.8129412938326747,0.8,1.0,1.0,465.0,636.0,1.0,1,179.0,1
1429,1429,-0.6955684507151727,-0.7,1.0,0.0,465.0,671.0,0.0,0,384.0,1
1430,1430,-0.8399320850673185,-0.8,0.0,1.0,372.0,659.0,1.0,0,189.0,1
1431,1431,-0.7789542852517353,-0.8,0.0,1.0,261.0,737.0,1.0,0,82.0,1
1432,1432,0.2821181730858079,0.3,0.0,0.0,299.0,727.0,0.0,1,534.0,1
1433,1433,-0.2992510914829051,-0.3,1.0,0.0,292.0,764.0,0.0,0,-56.0,1
1434,1434,0.5933934976742367,0.6,1.0,1.0,467.0,872.0,1.0,1,231.0,1
1435,1435,-0.22620574410667738,-0.2,1.0,0.0,483.0,607.0,0.0,0,200.0,1
1436,1436,-0.5981080121827156,-0.6,0.0,1.0,471.0,581.0,1.0,0,88.0,1
1437,1437,-0.2696025068374944,-0.3,1.0,0.0,446.0,700.0,0.0,0,494.0,1
1438,1438,0.3830098879202598,0.4,1.0,1.0,281.0,637.0,1.0,1,232.0,1
1439,1439,0.30965270164251024,0.3,0.0,0.0,411.0,801.0,0.0,1,228.0,1
1440,1440,0.02470617527268515,0.0,1.0,1.0,385.0,915.0,1.0,1,1700.0,1
1441,1441,0.15913388866612255,0.2,1.0,1.0,328.0,649.0,1.0,1,823.0,1
1442,1442,0.3679605706139012,0.4,0.0,0.0,342.0,666.0,0.0,1,322.0,1
1443,1443,-0.6884965658328285,-0.7,1.0,0.0,391.0,970.0,0.0,0,-81.0,1
1444,1444,0.5663676831586343,0.6,0.0,0.0,293.0,687.0,0.0,1,380.0,1
1445,1445,0.4915381870514567,0.5,1.0,1.0,367.0,829.0,1.0,1,354.0,1
1446,1446,-0.23208050030970973,-0.2,1.0,0.0,305.0,793.0,0.0,0,542.0,1
1447,1447,0.46960455272171375,0.5,1.0,1.0,261.0,879.0,1.0,1,330.0,1
1448,1448,-0.634485139324108,-0.6,0.0,1.0,346.0,550.0,1.0,0,204.0,1
1449,1449,0.15353838131085717,0.2,1.0,1.0,258.0,835.0,0.0,0,187.0,0
1450,1450,0.13839295697929332,0.1,0.0,0.0,394.0,928.0,0.0,1,118.0,1
1451,1451,0.887665320293667,0.9,0.0,0.0,338.0,945.0,0.0,1,7.0,1
1452,1452,-0.45892863405060297,-0.5,1.0,0.0,416.0,840.0,0.0,0,404.0,1
1453,1453,-0.7865594610203483,-0.8,1.0,0.0,254.0,870.0,0.0,0,186.0,1
1454,1454,-0.8090295368760809,-0.8,0.0,1.0,327.0,843.0,1.0,0,260.0,1
1455,1455,-0.11803568613926585,-0.1,1.0,0.0,419.0,804.0,0.0,0,127.0,1
1456,1456,-0.07463938180858853,-0.1,0.0,1.0,331.0,697.0,1.0,0,772.0,1
1457,1457,0.7119040636758914,0.7,0.0,0.0,435.0,820.0,0.0,1,335.0,1
1458,1458,0.040555963825336216,0.0,1.0,1.0,413.0,698.0,1.0,1,1889.0,1
1459,1459,-0.8446016185202778,-0.8,1.0,0.0,411.0,765.0,0.0,0,444.0,1
1460,1460,-0.18228020673438394,-0.2,0.0,1.0,377.0,890.0,1.0,0,383.0,1
1461,1461,-0.03287786705797435,-0.0,0.0,1.0,250.0,741.0,1.0,0,1559.0,1
1462,1462,-0.25351949278359975,-0.3,1.0,0.0,420.0,967.0,0.0,0,413.0,1
1463,1463,0.8073980928753272,0.8,1.0,1.0,413.0,727.0,1.0,1,210.0,1
1464,1464,0.08556511969613156,0.1,1.0,1.0,466.0,949.0,0.0,0,855.0,0
1465,1465,0.12931212348806642,0.1,1.0,1.0,478.0,745.0,1.0,1,547.0,1
1466,1466,0.10331692902160461,0.1,0.0,0.0,294.0,730.0,0.0,1,536.0,1
1467,1467,0.6516710903070618,0.7,1.0,1.0,469.0,720.0,1.0,1,571.0,1
1468,1468,-0.5323698140181699,-0.5,0.0,1.0,458.0,523.0,1.0,0,129.0,1
1469,1469,-0.22124283015665203,-0.2,1.0,0.0,388.0,763.0,0.0,0,1179.0,1
1470,1470,0.8832049633227851,0.9,1.0,1.0,253.0,829.0,1.0,1,278.0,1
1471,1471,-0.19825393995145835,-0.2,0.0,1.0,361.0,661.0,1.0,0,158.0,1
1472,1472,-0.09020378399964746,-0.1,1.0,0.0,404.0,720.0,0.0,0,1876.0,1
1473,1473,0.7680285172852462,0.8,0.0,0.0,293.0,986.0,0.0,1,191.0,1
1474,1474,-0.023397361585009158,-0.0,0.0,1.0,326.0,684.0,0.0,1,1990.0,0
1475,1475,-0.7846400317618116,-0.8,0.0,1.0,497.0,530.0,1.0,0,263.0,1
1476,1476,0.194021810265263,0.2,0.0,0.0,271.0,906.0,0.0,1,783.0,1
1477,1477,-0.46835547678469786,-0.5,0.0,1.0,256.0,992.0,1.0,0,72.0,1
1478,1478,0.5117574058611664,0.5,0.0,0.0,464.0,888.0,0.0,1,498.0,1
1479,1479,0.21018643952073457,0.2,0.0,0.0,446.0,805.0,0.0,1,429.0,1
1480,1480,0.12269650192643666,0.1,1.0,1.0,407.0,796.0,1.0,1,487.0,1
1481,1481,-0.39430174573227617,-0.4,1.0,0.0,468.0,554.0,0.0,0,208.0,1
1482,1482,-0.8590189231751848,-0.9,1.0,0.0,286.0,872.0,0.0,0,202.0,1
1483,1483,0.16395354586686894,0.2,0.0,0.0,385.0,592.0,0.0,1,373.0,1
1484,1484,0.6236348104511692,0.6,0.0,0.0,310.0,828.0,0.0,1,182.0,1
1485,1485,-0.7633052285690722,-0.8,1.0,0.0,304.0,600.0,0.0,0,236.0,1
1486,1486,-0.6926652416330614,-0.7,1.0,0.0,278.0,672.0,0.0,0,250.0,1
1487,1487,-0.781430386930086,-0.8,0.0,1.0,263.0,906.0,1.0,0,151.0,1
1488,1488,0.5115805549116273,0.5,1.0,1.0,396.0,510.0,1.0,1,204.0,1
1489,1489,-0.8505089398201311,-0.9,1.0,0.0,387.0,723.0,0.0,0,220.0,1
1490,1490,-0.10290977204983454,-0.1,1.0,0.0,485.0,689.0,0.0,0,406.0,1
1491,1491,-0.10744781394106862,-0.1,0.0,1.0,407.0,843.0,0.0,1,-220.0,0
1492,1492,0.08005334550116039,0.1,0.0,0.0,332.0,919.0,1.0,0,1749.0,0
