,trial,coherence,coherence_bin,green_side,correct_side,target_onset,checker_onset,decision,green_decision,decision_time,correct_decision
0,0,-0.5000392731736604,-0.5,1.0,0.0,435.0,746.0,0.0,0,1819.0,1
1,1,-0.32540775252296683,-0.3,0.0,1.0,276.0,946.0,1.0,0,-1112.0,1
2,2,-0.44753255319995006,-0.4,0.0,1.0,474.0,931.0,0.0,1,1595.0,0
3,3,0.014223071102718143,0.0,1.0,1.0,352.0,633.0,0.0,0,2015.0,0
4,4,0.4214435354258489,0.4,1.0,1.0,458.0,627.0,0.0,0,1915.0,0
5,5,0.8086793045699247,0.8,1.0,1.0,369.0,922.0,0.0,0,1709.0,0
6,6,-0.6798746680468178,-0.7,0.0,1.0,459.0,704.0,0.0,1,1837.0,0
7,7,0.27009886900537905,0.3,1.0,1.0,261.0,945.0,0.0,0,1794.0,0
8,8,0.3277971879396627,0.3,0.0,0.0,466.0,978.0,0.0,1,-1424.0,1
9,9,0.5935301539612575,0.6,0.0,0.0,399.0,560.0,0.0,1,2041.0,1
10,10,-0.2897069406167515,-0.3,1.0,0.0,496.0,578.0,0.0,0,1926.0,1
11,11,-0.637220596869817,-0.6,0.0,1.0,446.0,840.0,0.0,1,-1276.0,0
12,12,-0.17679265333820904,-0.2,0.0,1.0,428.0,847.0,0.0,1,1725.0,0
13,13,0.6255920118762711,0.6,1.0,1.0,440.0,988.0,0.0,0,1572.0,0
14,14,-0.7672488031898401,-0.8,1.0,0.0,308.0,688.0,0.0,0,2004.0,1
15,15,-0.2743993537136099,-0.3,1.0,0.0,263.0,832.0,0.0,0,1905.0,1
16,16,-0.7874303866714624,-0.8,1.0,0.0,490.0,918.0,0.0,0,-1398.0,1
17,17,0.8555421276068117,0.9,1.0,1.0,275.0,620.0,1.0,1,-895.0,1
18,18,-0.3259338080185922,-0.3,1.0,0.0,478.0,969.0,1.0,1,-1437.0,0
19,19,0.19181201453026386,0.2,0.0,0.0,457.0,766.0,0.0,1,1777.0,1
20,20,-0.6937578172588645,-0.7,0.0,1.0,306.0,995.0,0.0,1,1699.0,0
21,21,-0.2754498358140117,-0.3,0.0,1.0,339.0,589.0,0.0,1,2072.0,0
22,22,0.7880953548006121,0.8,0.0,0.0,470.0,925.0,1.0,0,-1265.0,0
23,23,-0.06204969419430206,-0.1,0.0,1.0,309.0,726.0,0.0,1,1965.0,0
24,24,0.0868018111282437,0.1,1.0,1.0,257.0,682.0,0.0,0,2061.0,0
25,25,0.8933285474158369,0.9,1.0,1.0,485.0,652.0,0.0,0,1863.0,0
26,26,-0.7451072036815555,-0.7,1.0,0.0,332.0,948.0,0.0,0,-1180.0,1
27,27,0.5592036348277604,0.6,1.0,1.0,451.0,601.0,0.0,0,1948.0,0
28,28,0.2958521684400416,0.3,1.0,1.0,375.0,859.0,0.0,0,1766.0,0
29,29,-0.4408036591187203,-0.4,1.0,0.0,364.0,681.0,0.0,0,1955.0,1
30,30,0.7584450862447506,0.8,0.0,0.0,383.0,619.0,0.0,1,1998.0,1
31,31,0.613739200809328,0.6,1.0,1.0,353.0,870.0,1.0,1,-953.0,1
32,32,0.8550803487897803,0.9,0.0,0.0,399.0,818.0,0.0,1,1783.0,1
33,33,0.08397205309206968,0.1,1.0,1.0,250.0,651.0,0.0,0,2099.0,0
34,34,-0.8527249820751317,-0.9,0.0,1.0,384.0,961.0,0.0,1,1655.0,0
35,35,-0.40279727501759904,-0.4,1.0,0.0,290.0,887.0,0.0,0,1823.0,1
36,36,0.818375379585084,0.8,0.0,0.0,327.0,667.0,0.0,1,2006.0,1
37,37,0.11400172178723567,0.1,1.0,1.0,343.0,624.0,0.0,0,2033.0,0
38,38,0.6814483275534816,0.7,1.0,1.0,297.0,908.0,1.0,1,-945.0,1
39,39,0.5433642402907507,0.5,1.0,1.0,458.0,688.0,0.0,0,1854.0,0
40,40,-0.7541502782418978,-0.8,1.0,0.0,302.0,670.0,0.0,0,2028.0,1
41,41,-0.699726877836002,-0.7,1.0,0.0,452.0,868.0,0.0,0,1680.0,1
42,42,0.4691559763789662,0.5,1.0,1.0,405.0,766.0,0.0,0,1829.0,0
43,43,0.47670019724255963,0.5,0.0,0.0,322.0,873.0,0.0,1,1805.0,1
44,44,-0.7922813144399095,-0.8,0.0,1.0,387.0,519.0,0.0,1,2094.0,0
45,45,0.09346234214609084,0.1,1.0,1.0,406.0,750.0,1.0,1,-966.0,1
46,46,0.6081421162646826,0.6,0.0,0.0,288.0,855.0,0.0,1,1857.0,1
47,47,-0.017468722321696162,-0.0,0.0,1.0,393.0,898.0,0.0,1,1709.0,0
48,48,-0.30288522970179266,-0.3,1.0,0.0,443.0,806.0,0.0,0,1751.0,1
49,49,-0.4295003081442763,-0.4,1.0,0.0,365.0,511.0,0.0,0,-766.0,1
50,50,-0.03859417001000376,-0.0,0.0,1.0,370.0,969.0,0.0,1,1661.0,0
51,51,0.13686959390464082,0.1,1.0,1.0,425.0,652.0,1.0,1,-737.0,1
52,52,0.3601472224304255,0.4,0.0,0.0,340.0,628.0,0.0,1,2032.0,1
53,53,-0.4324218472884917,-0.4,1.0,0.0,455.0,638.0,0.0,0,1907.0,1
54,54,0.805868281595531,0.8,0.0,0.0,469.0,712.0,0.0,1,1819.0,1
55,55,0.8348079851836882,0.8,0.0,0.0,250.0,902.0,0.0,1,1848.0,1
56,56,0.763572683228274,0.8,1.0,1.0,393.0,908.0,0.0,0,1699.0,0
57,57,-0.11214684364441485,-0.1,0.0,1.0,316.0,896.0,0.0,1,1788.0,0
58,58,-0.8555051906991078,-0.9,0.0,1.0,385.0,771.0,0.0,1,1844.0,0
59,59,0.23665911597831923,0.2,0.0,0.0,472.0,965.0,0.0,1,1563.0,1
60,60,-0.5837866649562434,-0.6,0.0,1.0,402.0,744.0,0.0,1,-1146.0,0
61,61,0.0357678136445273,0.0,0.0,0.0,489.0,654.0,0.0,1,1857.0,1
62,62,0.4470612269458324,0.4,0.0,0.0,305.0,781.0,0.0,1,1914.0,1
63,63,-0.5216762038029941,-0.5,1.0,0.0,477.0,534.0,0.0,0,1989.0,1
64,64,-0.6728138376701481,-0.7,0.0,1.0,319.0,921.0,0.0,1,1760.0,0
65,65,0.7941142923248242,0.8,0.0,0.0,479.0,999.0,0.0,1,1522.0,1
66,66,-0.5439337608663084,-0.5,1.0,0.0,439.0,550.0,0.0,0,2011.0,1
67,67,0.12383502095765098,0.1,1.0,1.0,368.0,590.0,0.0,0,2042.0,0
68,68,-0.6084959762296739,-0.6,0.0,1.0,483.0,891.0,1.0,0,-1104.0,1
69,69,0.8423489486656869,0.8,1.0,1.0,281.0,918.0,0.0,0,1801.0,0
70,70,-0.15617781657479135,-0.2,1.0,0.0,481.0,679.0,0.0,0,1840.0,1
71,71,0.10023932286740178,0.1,0.0,0.0,279.0,873.0,0.0,1,1848.0,1
72,72,0.05919125414199333,0.1,1.0,1.0,453.0,573.0,0.0,0,1974.0,0
73,73,-0.5655100264681764,-0.6,0.0,1.0,295.0,994.0,0.0,1,1711.0,0
74,74,0.5893304967288232,0.6,0.0,0.0,377.0,650.0,0.0,1,1973.0,1
75,75,0.19650776330611308,0.2,1.0,1.0,294.0,874.0,0.0,0,1832.0,0
76,76,0.2827909308672224,0.3,0.0,0.0,458.0,727.0,0.0,1,1815.0,1
77,77,-0.44590778916845913,-0.4,0.0,1.0,473.0,883.0,0.0,1,1644.0,0
78,78,-0.35612001638286517,-0.4,1.0,0.0,280.0,595.0,0.0,0,2125.0,1
79,79,-0.810678641211113,-0.8,1.0,0.0,308.0,645.0,0.0,0,2047.0,1
80,80,-0.1593560011275229,-0.2,0.0,1.0,421.0,922.0,0.0,1,1657.0,0
81,81,0.48288160844804884,0.5,1.0,1.0,332.0,586.0,0.0,0,2082.0,0
82,82,0.20729313398187876,0.2,1.0,1.0,370.0,617.0,0.0,0,2013.0,0
83,83,0.26650052311078987,0.3,0.0,0.0,295.0,661.0,0.0,1,2044.0,1
84,84,0.8272041752002922,0.8,1.0,1.0,361.0,614.0,0.0,0,2025.0,0
85,85,0.6327764905428025,0.6,0.0,0.0,449.0,857.0,0.0,1,1694.0,1
86,86,0.48025276081928425,0.5,0.0,0.0,296.0,538.0,0.0,1,2166.0,1
87,87,-0.1135002254736045,-0.1,1.0,0.0,475.0,583.0,0.0,0,1942.0,1
88,88,-0.3693092059124701,-0.4,0.0,1.0,369.0,724.0,0.0,1,1907.0,0
89,89,0.8951310535286757,0.9,1.0,1.0,416.0,959.0,0.0,0,1625.0,0
90,90,-0.25306569875896545,-0.3,0.0,1.0,320.0,522.0,0.0,1,2158.0,0
91,91,0.7272496861533014,0.7,0.0,0.0,488.0,676.0,0.0,1,1836.0,1
92,92,-0.06388894210049167,-0.1,0.0,1.0,382.0,955.0,0.0,1,1663.0,0
93,93,-0.4167740215207845,-0.4,1.0,0.0,311.0,920.0,0.0,0,-1211.0,1
94,94,0.1477735538041013,0.1,0.0,0.0,439.0,965.0,0.0,1,1596.0,1
95,95,-0.5143377123200816,-0.5,1.0,0.0,467.0,909.0,0.0,0,1624.0,1
96,96,0.8816333149090246,0.9,1.0,1.0,366.0,613.0,0.0,0,2021.0,0
97,97,0.03217637252381034,0.0,1.0,1.0,280.0,778.0,0.0,0,1942.0,0
98,98,-0.2553792651463419,-0.3,0.0,1.0,456.0,709.0,0.0,1,1835.0,0
99,99,0.7358576871911845,0.7,0.0,0.0,398.0,944.0,0.0,1,1658.0,1
100,100,0.8557381677745813,0.9,0.0,0.0,344.0,551.0,0.0,1,2105.0,1
101,101,0.02034520176248633,0.0,1.0,1.0,475.0,930.0,0.0,0,1595.0,0
102,102,0.7905776846863527,0.8,0.0,0.0,440.0,658.0,1.0,0,-1078.0,0
103,103,0.8421941695033713,0.8,0.0,0.0,290.0,564.0,0.0,1,-774.0,1
104,104,0.07868637164850545,0.1,1.0,1.0,420.0,960.0,0.0,0,1620.0,0
105,105,-0.12428286931714594,-0.1,1.0,0.0,372.0,502.0,0.0,0,2126.0,1
106,106,0.303182490961334,0.3,0.0,0.0,289.0,855.0,0.0,1,1856.0,1
107,107,0.7584396637107026,0.8,0.0,0.0,290.0,674.0,0.0,1,2036.0,1
108,108,-0.8826658269617055,-0.9,1.0,0.0,307.0,542.0,0.0,0,2151.0,1
109,109,0.18143950124453878,0.2,1.0,1.0,458.0,746.0,1.0,1,-1014.0,1
110,110,0.23350828006591595,0.2,0.0,0.0,350.0,728.0,0.0,1,1922.0,1
111,111,0.6862439380776847,0.7,1.0,1.0,313.0,741.0,0.0,0,-1034.0,0
112,112,0.14762398594529913,0.1,0.0,0.0,490.0,975.0,0.0,1,1535.0,1
113,113,0.17517536685528146,0.2,1.0,1.0,268.0,548.0,0.0,0,2184.0,0
114,114,-0.8725121045376177,-0.9,1.0,0.0,394.0,847.0,0.0,0,1759.0,1
115,115,0.16725506015418523,0.2,1.0,1.0,252.0,707.0,0.0,0,-949.0,0
116,116,-0.8999904245567681,-0.9,1.0,0.0,482.0,988.0,0.0,0,1530.0,1
117,117,-0.6466949137342448,-0.6,1.0,0.0,309.0,827.0,1.0,1,-586.0,0
118,118,-0.6794418821446331,-0.7,1.0,0.0,444.0,846.0,0.0,0,1710.0,1
119,119,-0.6373881167367387,-0.6,0.0,1.0,468.0,865.0,0.0,1,1667.0,0
120,120,-0.17801559181383553,-0.2,0.0,1.0,337.0,634.0,0.0,1,2029.0,0
121,121,0.01585431887297095,0.0,0.0,0.0,390.0,788.0,0.0,1,1822.0,1
122,122,-0.2708524061284865,-0.3,0.0,1.0,441.0,637.0,0.0,1,1922.0,0
123,123,-0.4771515486523028,-0.5,0.0,1.0,266.0,570.0,0.0,1,2164.0,0
124,124,-0.8100998434488765,-0.8,1.0,0.0,279.0,722.0,0.0,0,-961.0,1
125,125,-0.6169177783336949,-0.6,1.0,0.0,391.0,874.0,1.0,1,-1235.0,0
126,126,0.8946591341579989,0.9,0.0,0.0,348.0,689.0,0.0,1,1963.0,1
127,127,0.005694959658766541,0.0,0.0,0.0,340.0,981.0,0.0,1,1679.0,1
128,128,0.4993404814841299,0.5,1.0,1.0,453.0,895.0,1.0,1,-1288.0,1
129,129,0.8198226823838418,0.8,1.0,1.0,470.0,709.0,0.0,0,1821.0,0
130,130,0.011904520090796122,0.0,1.0,1.0,480.0,930.0,0.0,0,1590.0,0
131,131,-0.6298507747876025,-0.6,0.0,1.0,354.0,525.0,0.0,1,2121.0,0
132,132,0.254095821797946,0.3,0.0,0.0,280.0,776.0,0.0,1,1944.0,1
133,133,0.5608460640183367,0.6,0.0,0.0,443.0,548.0,1.0,0,-891.0,0
134,134,0.5664988132626824,0.6,0.0,0.0,440.0,639.0,0.0,1,1921.0,1
135,135,-0.44196726422620064,-0.4,1.0,0.0,342.0,778.0,0.0,0,1880.0,1
136,136,-0.2427578881142094,-0.2,1.0,0.0,414.0,783.0,0.0,0,1803.0,1
137,137,0.06412468697721552,0.1,0.0,0.0,304.0,634.0,0.0,1,2062.0,1
138,138,-0.1335939251990902,-0.1,1.0,0.0,400.0,568.0,0.0,0,2032.0,1
139,139,-0.3542427639874527,-0.4,1.0,0.0,340.0,779.0,1.0,1,-569.0,0
140,140,0.6642544297643956,0.7,1.0,1.0,391.0,682.0,0.0,0,1927.0,0
141,141,-0.022918461859627648,-0.0,0.0,1.0,499.0,507.0,0.0,1,1994.0,0
142,142,-0.4791798657462636,-0.5,0.0,1.0,337.0,524.0,0.0,1,2139.0,0
143,143,-0.20935077848166717,-0.2,1.0,0.0,496.0,965.0,0.0,0,1539.0,1
144,144,-0.7733429834791793,-0.8,0.0,1.0,475.0,761.0,0.0,1,1764.0,0
145,145,0.06455229034072629,0.1,1.0,1.0,269.0,515.0,0.0,0,2216.0,0
146,146,0.37334127958079966,0.4,1.0,1.0,418.0,691.0,0.0,0,1891.0,0
147,147,0.4993056043524028,0.5,0.0,0.0,452.0,633.0,0.0,1,1915.0,1
148,148,0.5570588315494852,0.6,0.0,0.0,423.0,869.0,0.0,1,1708.0,1
149,149,-0.6562802163803957,-0.7,1.0,0.0,273.0,509.0,0.0,0,2218.0,1
150,150,-0.447285266902632,-0.4,0.0,1.0,357.0,833.0,0.0,1,1810.0,0
151,151,-0.8188456557984929,-0.8,1.0,0.0,325.0,803.0,0.0,0,1872.0,1
152,152,0.6480183411455024,0.6,0.0,0.0,383.0,685.0,0.0,1,1932.0,1
153,153,-0.03851000348514222,-0.0,1.0,0.0,444.0,942.0,0.0,0,1614.0,1
154,154,-0.079858043326964,-0.1,1.0,0.0,337.0,970.0,0.0,0,1693.0,1
155,155,0.7802543279203457,0.8,1.0,1.0,331.0,922.0,0.0,0,1747.0,0
156,156,0.30113987224459626,0.3,0.0,0.0,467.0,799.0,0.0,1,-1226.0,1
157,157,0.7385105430940054,0.7,0.0,0.0,399.0,553.0,0.0,1,2048.0,1
158,158,-0.7970004406571947,-0.8,1.0,0.0,369.0,577.0,0.0,0,2054.0,1
159,159,0.3072903531406671,0.3,0.0,0.0,284.0,976.0,0.0,1,1740.0,1
160,160,0.4447219185782333,0.4,1.0,1.0,293.0,841.0,0.0,0,1866.0,0
161,161,0.7510118218868888,0.8,0.0,0.0,438.0,882.0,0.0,1,1680.0,1
162,162,0.4082664276664588,0.4,0.0,0.0,473.0,983.0,0.0,1,1544.0,1
163,163,0.01321304030099113,0.0,0.0,0.0,422.0,967.0,0.0,1,1611.0,1
164,164,-0.22032153173611702,-0.2,0.0,1.0,367.0,545.0,0.0,1,2088.0,0
165,165,0.6143890761756542,0.6,0.0,0.0,311.0,677.0,0.0,1,2012.0,1
166,166,0.6825754999472821,0.7,0.0,0.0,312.0,975.0,0.0,1,1713.0,1
167,167,0.6913751279073884,0.7,0.0,0.0,319.0,912.0,0.0,1,1769.0,1
168,168,0.7966603307829893,0.8,1.0,1.0,467.0,784.0,1.0,1,-1091.0,1
169,169,0.5208514689990581,0.5,1.0,1.0,482.0,868.0,1.0,1,-1140.0,1
170,170,-0.04149813039231465,-0.0,1.0,0.0,444.0,764.0,0.0,0,1792.0,1
171,171,-0.43236057795853816,-0.4,0.0,1.0,257.0,966.0,0.0,1,1777.0,0
172,172,-0.7546626035304179,-0.8,0.0,1.0,292.0,894.0,0.0,1,1814.0,0
173,173,0.5525706285073843,0.6,1.0,1.0,407.0,716.0,0.0,0,1877.0,0
174,174,0.8488339531400241,0.8,0.0,0.0,467.0,837.0,0.0,1,1696.0,1
175,175,0.7990233886082782,0.8,1.0,1.0,307.0,747.0,0.0,0,1946.0,0
176,176,0.8515048188097553,0.9,0.0,0.0,320.0,667.0,0.0,1,2013.0,1
177,177,0.4578053626476549,0.5,0.0,0.0,382.0,600.0,0.0,1,2018.0,1
178,178,-0.8121008663669864,-0.8,0.0,1.0,315.0,953.0,1.0,0,-1238.0,1
179,179,0.2595649247323709,0.3,0.0,0.0,455.0,817.0,0.0,1,1728.0,1
180,180,-0.4269469740422815,-0.4,0.0,1.0,448.0,919.0,0.0,1,1633.0,0
181,181,-0.10070073520513823,-0.1,1.0,0.0,382.0,720.0,0.0,0,1898.0,1
182,182,0.8730889170339041,0.9,1.0,1.0,346.0,837.0,0.0,0,1817.0,0
183,183,-0.19718027897739776,-0.2,0.0,1.0,446.0,611.0,0.0,1,1943.0,0
184,184,-0.7110660366042223,-0.7,1.0,0.0,412.0,550.0,0.0,0,2038.0,1
185,185,0.00930158982346685,0.0,1.0,1.0,448.0,948.0,0.0,0,1604.0,0
186,186,-0.371371486638166,-0.4,1.0,0.0,432.0,719.0,0.0,0,1849.0,1
187,187,0.2074631942769095,0.2,0.0,0.0,316.0,596.0,1.0,0,-712.0,0
188,188,0.24422891481666043,0.2,0.0,0.0,410.0,748.0,0.0,1,1842.0,1
189,189,0.6434179620736705,0.6,1.0,1.0,480.0,936.0,0.0,0,1584.0,0
190,190,-0.8482800471043598,-0.8,0.0,1.0,300.0,586.0,0.0,1,2114.0,0
191,191,-0.5912554807631276,-0.6,0.0,1.0,281.0,773.0,0.0,1,1946.0,0
192,192,0.7448359666345706,0.7,1.0,1.0,357.0,757.0,0.0,0,1886.0,0
193,193,-0.0353558059525767,-0.0,0.0,1.0,468.0,591.0,0.0,1,1941.0,0
194,194,-0.6785302752952501,-0.7,1.0,0.0,256.0,887.0,0.0,0,1857.0,1
195,195,-0.22097751613093364,-0.2,1.0,0.0,252.0,710.0,0.0,0,2038.0,1
196,196,-0.3430043983032133,-0.3,0.0,1.0,260.0,721.0,0.0,1,2019.0,0
197,197,-0.3569746674786125,-0.4,1.0,0.0,499.0,538.0,0.0,0,1963.0,1
198,198,-0.6435271388618917,-0.6,0.0,1.0,391.0,521.0,1.0,0,-762.0,1
199,199,-0.7196540073233071,-0.7,0.0,1.0,315.0,592.0,1.0,0,-727.0,1
200,200,-0.3761897977997991,-0.4,0.0,1.0,378.0,844.0,0.0,1,1778.0,0
201,201,-0.44337180731829556,-0.4,1.0,0.0,358.0,872.0,0.0,0,1770.0,1
202,202,-0.546230326331955,-0.5,0.0,1.0,457.0,544.0,0.0,1,1999.0,0
203,203,0.41092723201284953,0.4,1.0,1.0,415.0,723.0,0.0,0,1862.0,0
204,204,-0.17060566799483823,-0.2,0.0,1.0,347.0,634.0,0.0,1,2019.0,0
205,205,-0.7274577132962774,-0.7,1.0,0.0,400.0,901.0,0.0,0,1699.0,1
206,206,0.2503204613374802,0.3,0.0,0.0,454.0,583.0,0.0,1,1963.0,1
207,207,-0.47167556923063053,-0.5,1.0,0.0,334.0,581.0,0.0,0,2085.0,1
208,208,-0.6342394118132948,-0.6,0.0,1.0,474.0,683.0,1.0,0,-1037.0,1
209,209,0.8759744672278013,0.9,1.0,1.0,444.0,909.0,1.0,1,-1203.0,1
210,210,0.21190382925232065,0.2,1.0,1.0,364.0,984.0,0.0,0,1652.0,0
211,211,0.6974662776016781,0.7,1.0,1.0,370.0,952.0,0.0,0,-1302.0,0
212,212,0.325554127054409,0.3,1.0,1.0,252.0,812.0,0.0,0,1936.0,0
213,213,0.6901535044658925,0.7,1.0,1.0,455.0,747.0,0.0,0,1798.0,0
214,214,-0.4757393713521134,-0.5,1.0,0.0,436.0,535.0,0.0,0,2029.0,1
215,215,-0.34396011456952047,-0.3,1.0,0.0,299.0,505.0,0.0,0,2196.0,1
216,216,-0.7328527690777227,-0.7,1.0,0.0,402.0,767.0,0.0,0,1831.0,1
217,217,-0.85827606924906,-0.9,1.0,0.0,330.0,971.0,0.0,0,1699.0,1
218,218,0.2293845242577438,0.2,1.0,1.0,335.0,769.0,0.0,0,1896.0,0
219,219,-0.19328460463931263,-0.2,0.0,1.0,250.0,525.0,0.0,1,2225.0,0
220,220,0.4653638835506123,0.5,1.0,1.0,260.0,990.0,0.0,0,1750.0,0
221,221,-0.6021637069160941,-0.6,0.0,1.0,295.0,521.0,0.0,1,2184.0,0
222,222,-0.6579356559087766,-0.7,0.0,1.0,426.0,758.0,0.0,1,1816.0,0
223,223,0.5106230523070417,0.5,0.0,0.0,310.0,897.0,0.0,1,1793.0,1
224,224,-0.3942302402849085,-0.4,1.0,0.0,463.0,668.0,0.0,0,1869.0,1
225,225,0.7321102551143578,0.7,0.0,0.0,305.0,534.0,1.0,0,-749.0,0
226,226,-0.1937382338628385,-0.2,0.0,1.0,427.0,714.0,1.0,0,-1061.0,1
227,227,-0.7008331586314663,-0.7,1.0,0.0,285.0,954.0,0.0,0,1761.0,1
228,228,-0.4876759150549376,-0.5,1.0,0.0,429.0,814.0,0.0,0,1757.0,1
229,229,-0.22291115832586594,-0.2,1.0,0.0,498.0,686.0,0.0,0,1816.0,1
230,230,0.5717096572719852,0.6,1.0,1.0,392.0,619.0,0.0,0,1989.0,0
231,231,-0.014297045825104826,-0.0,1.0,0.0,394.0,947.0,0.0,0,1659.0,1
232,232,0.8262486160879506,0.8,0.0,0.0,384.0,657.0,0.0,1,1959.0,1
233,233,0.7665784198369058,0.8,0.0,0.0,318.0,864.0,0.0,1,1818.0,1
234,234,-0.15604361662314126,-0.2,0.0,1.0,293.0,761.0,0.0,1,1946.0,0
235,235,0.7484893762779735,0.7,0.0,0.0,375.0,601.0,0.0,1,2024.0,1
236,236,0.2943383477269156,0.3,1.0,1.0,349.0,700.0,0.0,0,1951.0,0
237,237,0.010662432690404788,0.0,1.0,1.0,462.0,668.0,0.0,0,1870.0,0
238,238,0.33217702492219237,0.3,1.0,1.0,310.0,909.0,0.0,0,1781.0,0
239,239,-0.2127829530664762,-0.2,1.0,0.0,467.0,977.0,0.0,0,1556.0,1
240,240,-0.5077278582837446,-0.5,0.0,1.0,328.0,519.0,0.0,1,2153.0,0
241,241,-0.766852251442806,-0.8,1.0,0.0,282.0,665.0,0.0,0,2053.0,1
242,242,0.41141019370847476,0.4,1.0,1.0,284.0,840.0,0.0,0,1876.0,0
243,243,0.8039930761205633,0.8,1.0,1.0,384.0,603.0,0.0,0,2013.0,0
244,244,0.3870500258850228,0.4,1.0,1.0,278.0,636.0,1.0,1,-784.0,1
245,245,0.7524629575409706,0.8,0.0,0.0,290.0,634.0,0.0,1,2076.0,1
246,246,-0.061893844049656366,-0.1,0.0,1.0,391.0,552.0,0.0,1,2057.0,0
247,247,0.5839190414315104,0.6,1.0,1.0,275.0,692.0,0.0,0,2033.0,0
248,248,-0.09205514919576752,-0.1,0.0,1.0,258.0,519.0,0.0,1,2223.0,0
249,249,-0.5581185348315707,-0.6,0.0,1.0,447.0,895.0,0.0,1,1658.0,0
250,250,-0.3480994129389713,-0.3,1.0,0.0,479.0,885.0,0.0,0,1636.0,1
251,251,0.7780451787758597,0.8,0.0,0.0,354.0,770.0,0.0,1,1876.0,1
252,252,-0.4314606554466222,-0.4,0.0,1.0,425.0,863.0,0.0,1,-1288.0,0
253,253,0.17857560879398815,0.2,0.0,0.0,478.0,987.0,0.0,1,1535.0,1
254,254,0.5332456172886734,0.5,0.0,0.0,446.0,656.0,0.0,1,1898.0,1
255,255,0.08723248167733832,0.1,0.0,0.0,273.0,770.0,0.0,1,1957.0,1
256,256,-0.7101480128801649,-0.7,1.0,0.0,418.0,836.0,1.0,1,-1064.0,0
257,257,-0.42650936492632213,-0.4,1.0,0.0,488.0,560.0,0.0,0,1952.0,1
258,258,-0.25087854267147347,-0.3,0.0,1.0,474.0,610.0,0.0,1,-1064.0,0
259,259,0.4603225069257032,0.5,1.0,1.0,397.0,626.0,0.0,0,1977.0,0
260,260,-0.8046202818502758,-0.8,0.0,1.0,375.0,672.0,0.0,1,1953.0,0
261,261,0.26623638938450245,0.3,1.0,1.0,302.0,901.0,0.0,0,1797.0,0
262,262,-0.0502444287820899,-0.1,1.0,0.0,426.0,903.0,0.0,0,1671.0,1
263,263,-0.5461463601161435,-0.5,1.0,0.0,493.0,620.0,0.0,0,1887.0,1
264,264,-0.5125569237111933,-0.5,0.0,1.0,291.0,520.0,0.0,1,-791.0,0
265,265,0.6204636086992911,0.6,1.0,1.0,274.0,509.0,0.0,0,2217.0,0
266,266,-0.2799038829711752,-0.3,0.0,1.0,360.0,578.0,0.0,1,2062.0,0
267,267,-0.49830683775700707,-0.5,0.0,1.0,359.0,696.0,0.0,1,1945.0,0
268,268,0.598472125010307,0.6,1.0,1.0,319.0,646.0,0.0,0,2035.0,0
269,269,-0.13415553349427178,-0.1,1.0,0.0,380.0,788.0,0.0,0,1832.0,1
270,270,0.8859603295392321,0.9,1.0,1.0,282.0,707.0,0.0,0,2011.0,0
271,271,-0.8752384091820101,-0.9,0.0,1.0,379.0,786.0,0.0,1,1835.0,0
272,272,0.4440193071405548,0.4,1.0,1.0,478.0,577.0,0.0,0,1945.0,0
273,273,0.46063372158696925,0.5,0.0,0.0,438.0,791.0,0.0,1,1771.0,1
274,274,-0.8280006179876676,-0.8,0.0,1.0,275.0,520.0,0.0,1,2205.0,0
275,275,-0.6805309322457153,-0.7,0.0,1.0,325.0,541.0,0.0,1,2134.0,0
276,276,-0.177369966157629,-0.2,1.0,0.0,337.0,677.0,0.0,0,1986.0,1
277,277,0.6210014794724578,0.6,0.0,0.0,482.0,943.0,1.0,0,-1365.0,0
278,278,-0.278325422777843,-0.3,1.0,0.0,479.0,547.0,0.0,0,1974.0,1
279,279,-0.10082650903683477,-0.1,0.0,1.0,481.0,834.0,0.0,1,1685.0,0
280,280,0.548583116540544,0.5,1.0,1.0,280.0,805.0,0.0,0,1915.0,0
281,281,-0.4455514339720357,-0.4,1.0,0.0,424.0,784.0,0.0,0,1792.0,1
282,282,0.15061975564933017,0.2,1.0,1.0,361.0,578.0,0.0,0,2061.0,0
283,283,-0.8764856368309776,-0.9,0.0,1.0,320.0,651.0,0.0,1,2029.0,0
284,284,0.1979769414344691,0.2,1.0,1.0,440.0,779.0,0.0,0,1781.0,0
285,285,-0.7033005638845462,-0.7,0.0,1.0,330.0,883.0,0.0,1,1787.0,0
286,286,0.603722090949384,0.6,1.0,1.0,452.0,991.0,0.0,0,1557.0,0
287,287,0.35734643937844546,0.4,0.0,0.0,357.0,524.0,0.0,1,2119.0,1
288,288,-0.7688631314545828,-0.8,1.0,0.0,335.0,620.0,0.0,0,2045.0,1
289,289,0.8913745186259806,0.9,0.0,0.0,257.0,953.0,0.0,1,1790.0,1
290,290,-0.6996378455372056,-0.7,1.0,0.0,361.0,732.0,0.0,0,1907.0,1
291,291,-0.862931631669587,-0.9,1.0,0.0,409.0,900.0,0.0,0,1691.0,1
292,292,-0.01715223994646331,-0.0,1.0,0.0,337.0,595.0,0.0,0,2068.0,1
293,293,-0.6721368126838546,-0.7,0.0,1.0,299.0,845.0,0.0,1,1856.0,0
294,294,-0.23259633044630312,-0.2,1.0,0.0,408.0,516.0,0.0,0,-914.0,1
295,295,0.32231176373279957,0.3,1.0,1.0,375.0,995.0,0.0,0,1630.0,0
296,296,-0.23758514490128846,-0.2,0.0,1.0,468.0,914.0,0.0,1,1618.0,0
297,297,-0.11047048588339659,-0.1,0.0,1.0,461.0,751.0,0.0,1,1788.0,0
298,298,0.7117692454892094,0.7,1.0,1.0,413.0,972.0,0.0,0,1615.0,0
299,299,0.26154163044787826,0.3,0.0,0.0,277.0,950.0,0.0,1,1773.0,1
300,300,-0.8194058474657098,-0.8,0.0,1.0,466.0,856.0,0.0,1,1678.0,0
301,301,0.7892879166603642,0.8,0.0,0.0,278.0,632.0,0.0,1,2090.0,1
302,302,0.5414777235840126,0.5,0.0,0.0,284.0,904.0,0.0,1,1812.0,1
303,303,-0.14584822425601385,-0.1,1.0,0.0,298.0,757.0,0.0,0,1945.0,1
304,304,0.6730103562304989,0.7,0.0,0.0,273.0,760.0,0.0,1,1967.0,1
305,305,0.8663316087330611,0.9,0.0,0.0,477.0,564.0,0.0,1,1959.0,1
306,306,0.15981716548474945,0.2,0.0,0.0,287.0,769.0,0.0,1,1944.0,1
307,307,0.7213370928890815,0.7,1.0,1.0,429.0,799.0,0.0,0,-1208.0,0
308,308,0.43167383803959025,0.4,1.0,1.0,466.0,549.0,0.0,0,-845.0,0
309,309,-0.08849705549390752,-0.1,0.0,1.0,271.0,576.0,0.0,1,2153.0,0
310,310,-0.5635258011179217,-0.6,1.0,0.0,448.0,591.0,0.0,0,1961.0,1
311,311,-0.5020222507733276,-0.5,1.0,0.0,351.0,523.0,1.0,1,-734.0,0
312,312,-0.4225157198848599,-0.4,0.0,1.0,479.0,524.0,0.0,1,1997.0,0
313,313,-0.08776848191701359,-0.1,0.0,1.0,363.0,789.0,0.0,1,1848.0,0
314,314,-0.36268772143178785,-0.4,1.0,0.0,399.0,795.0,0.0,0,1806.0,1
315,315,0.2390347520163124,0.2,1.0,1.0,322.0,944.0,1.0,1,-1076.0,1
316,316,-0.7873665891008517,-0.8,1.0,0.0,486.0,894.0,0.0,0,1620.0,1
317,317,0.7758715594559223,0.8,0.0,0.0,438.0,821.0,0.0,1,1741.0,1
318,318,0.3755703125855615,0.4,0.0,0.0,450.0,655.0,0.0,1,1895.0,1
319,319,0.3242971196697694,0.3,0.0,0.0,361.0,973.0,0.0,1,1666.0,1
320,320,-0.2123693825843498,-0.2,1.0,0.0,411.0,868.0,0.0,0,1721.0,1
321,321,0.5835235967713749,0.6,1.0,1.0,492.0,722.0,0.0,0,1786.0,0
322,322,0.7854254788253915,0.8,0.0,0.0,284.0,967.0,0.0,1,1749.0,1
323,323,-0.48944433861227865,-0.5,0.0,1.0,485.0,588.0,0.0,1,1927.0,0
324,324,0.46228282306726765,0.5,0.0,0.0,283.0,990.0,0.0,1,1727.0,1
325,325,-0.48045555121236383,-0.5,0.0,1.0,290.0,736.0,0.0,1,1974.0,0
326,326,-0.19721295710590636,-0.2,1.0,0.0,379.0,863.0,0.0,0,1758.0,1
327,327,-0.06064042619542798,-0.1,0.0,1.0,299.0,705.0,1.0,0,-974.0,1
328,328,0.024133347027231022,0.0,1.0,1.0,276.0,813.0,0.0,0,1911.0,0
329,329,0.7934423254607713,0.8,1.0,1.0,393.0,878.0,0.0,0,1729.0,0
330,330,0.8203026825403256,0.8,0.0,0.0,318.0,511.0,0.0,1,-809.0,1
331,331,-0.7801782233363544,-0.8,0.0,1.0,451.0,517.0,0.0,1,2032.0,0
332,332,-0.15397251432943238,-0.2,1.0,0.0,422.0,581.0,0.0,0,1997.0,1
333,333,-0.6104908531969286,-0.6,1.0,0.0,404.0,689.0,0.0,0,1907.0,1
334,334,-0.5539144992686242,-0.6,1.0,0.0,383.0,667.0,0.0,0,1950.0,1
335,335,-0.23333335504415686,-0.2,1.0,0.0,459.0,644.0,0.0,0,1897.0,1
336,336,0.7912683322273558,0.8,1.0,1.0,292.0,648.0,0.0,0,2060.0,0
337,337,-0.5171717620391747,-0.5,1.0,0.0,269.0,778.0,0.0,0,1953.0,1
338,338,-0.13292221066373633,-0.1,1.0,0.0,402.0,836.0,1.0,1,-838.0,0
339,339,-0.7115841166878984,-0.7,1.0,0.0,420.0,904.0,0.0,0,1676.0,1
340,340,0.27284554088360713,0.3,0.0,0.0,300.0,664.0,1.0,0,-834.0,0
341,341,-0.5908957793726493,-0.6,0.0,1.0,347.0,649.0,1.0,0,-986.0,1
342,342,-0.6949149392753635,-0.7,1.0,0.0,363.0,993.0,0.0,0,1644.0,1
343,343,-0.8961954217316151,-0.9,0.0,1.0,446.0,802.0,0.0,1,1752.0,0
344,344,0.2447214010463451,0.2,0.0,0.0,313.0,869.0,0.0,1,1818.0,1
345,345,-0.38114194478690344,-0.4,1.0,0.0,307.0,683.0,1.0,1,-880.0,0
346,346,0.8399267292250184,0.8,1.0,1.0,270.0,521.0,0.0,0,2209.0,0
347,347,0.22877560785035767,0.2,1.0,1.0,334.0,946.0,0.0,0,1720.0,0
348,348,-0.7339991846632338,-0.7,0.0,1.0,418.0,973.0,1.0,0,-1101.0,1
349,349,0.23858148898323084,0.2,0.0,0.0,344.0,905.0,0.0,1,-1119.0,1
350,350,-0.6284134135907431,-0.6,0.0,1.0,483.0,592.0,0.0,1,1925.0,0
351,351,-0.11772112673407165,-0.1,1.0,0.0,304.0,656.0,0.0,0,2040.0,1
352,352,0.7532819513589589,0.8,1.0,1.0,423.0,826.0,0.0,0,1751.0,0
353,353,0.1583187606914519,0.2,0.0,0.0,461.0,687.0,0.0,1,1852.0,1
354,354,0.4276376489699373,0.4,1.0,1.0,452.0,770.0,0.0,0,1778.0,0
355,355,0.4442669149682331,0.4,0.0,0.0,252.0,523.0,0.0,1,2225.0,1
356,356,-0.8925675269489421,-0.9,1.0,0.0,453.0,892.0,0.0,0,-1305.0,1
357,357,-0.2739235231511903,-0.3,1.0,0.0,416.0,845.0,0.0,0,1739.0,1
358,358,-0.04097127100705544,-0.0,1.0,0.0,327.0,919.0,0.0,0,1754.0,1
359,359,0.18342283138944115,0.2,1.0,1.0,295.0,725.0,0.0,0,-700.0,0
360,360,0.1645541367240363,0.2,0.0,0.0,302.0,741.0,0.0,1,1957.0,1
361,361,0.7104635742502389,0.7,0.0,0.0,364.0,547.0,0.0,1,2089.0,1
362,362,0.7629826505741643,0.8,0.0,0.0,265.0,749.0,0.0,1,1986.0,1
363,363,0.10383828735794054,0.1,1.0,1.0,251.0,788.0,0.0,0,1961.0,0
364,364,0.5132497683080607,0.5,1.0,1.0,457.0,989.0,0.0,0,1554.0,0
365,365,0.5998478413524228,0.6,0.0,0.0,466.0,561.0,0.0,1,1973.0,1
366,366,-0.06615831970562236,-0.1,1.0,0.0,306.0,568.0,0.0,0,2126.0,1
367,367,0.7657191889083655,0.8,0.0,0.0,478.0,640.0,0.0,1,1882.0,1
368,368,-0.2593752989272755,-0.3,0.0,1.0,364.0,664.0,0.0,1,1972.0,0
369,369,0.6292779028201473,0.6,0.0,0.0,303.0,825.0,0.0,1,1872.0,1
370,370,0.27383608824132744,0.3,0.0,0.0,452.0,916.0,0.0,1,1632.0,1
371,371,0.6220159083769407,0.6,0.0,0.0,361.0,950.0,1.0,0,-1231.0,0
372,372,-0.13876249560986031,-0.1,0.0,1.0,280.0,849.0,1.0,0,-979.0,1
373,373,-0.6721696035857117,-0.7,1.0,0.0,409.0,751.0,0.0,0,1840.0,1
374,374,0.5645776269937935,0.6,0.0,0.0,482.0,874.0,0.0,1,1644.0,1
375,375,0.11752816293124513,0.1,0.0,0.0,487.0,636.0,0.0,1,1877.0,1
376,376,0.0828601872767264,0.1,1.0,1.0,253.0,974.0,0.0,0,1773.0,0
377,377,0.37026132553219016,0.4,0.0,0.0,450.0,611.0,0.0,1,1939.0,1
378,378,-0.7410172154903882,-0.7,0.0,1.0,400.0,979.0,0.0,1,1621.0,0
379,379,-0.3580464029613344,-0.4,0.0,1.0,448.0,638.0,0.0,1,-996.0,0
380,380,-0.5837781042564458,-0.6,1.0,0.0,497.0,951.0,0.0,0,1552.0,1
381,381,-0.7546031296477964,-0.8,0.0,1.0,351.0,721.0,0.0,1,1928.0,0
382,382,-0.8683930123457761,-0.9,1.0,0.0,364.0,713.0,0.0,0,-1047.0,1
383,383,-0.2828967195630048,-0.3,0.0,1.0,394.0,963.0,1.0,0,-1217.0,1
384,384,0.5205933761498113,0.5,1.0,1.0,340.0,538.0,1.0,1,-738.0,1
385,385,-0.15657645525824604,-0.2,1.0,0.0,300.0,677.0,0.0,0,2023.0,1
386,386,-0.5904524020194178,-0.6,1.0,0.0,278.0,728.0,1.0,1,-926.0,0
387,387,-0.1911777877257177,-0.2,0.0,1.0,479.0,811.0,0.0,1,1710.0,0
388,388,0.35836552127764476,0.4,1.0,1.0,402.0,909.0,0.0,0,1689.0,0
389,389,0.1258938210323658,0.1,1.0,1.0,271.0,901.0,0.0,0,1828.0,0
390,390,-0.16786321399027926,-0.2,0.0,1.0,420.0,589.0,0.0,1,1991.0,0
391,391,0.8227043907483292,0.8,1.0,1.0,384.0,902.0,0.0,0,-1256.0,0
392,392,-0.5508080779274844,-0.6,1.0,0.0,274.0,759.0,0.0,0,1967.0,1
393,393,0.11200141746337289,0.1,0.0,0.0,360.0,519.0,0.0,1,2121.0,1
394,394,0.29743636845398014,0.3,0.0,0.0,396.0,703.0,0.0,1,1901.0,1
395,395,0.830853892595994,0.8,1.0,1.0,265.0,508.0,0.0,0,2227.0,0
396,396,-0.6987350941701271,-0.7,1.0,0.0,453.0,575.0,0.0,0,1972.0,1
397,397,-0.21164642494453278,-0.2,0.0,1.0,427.0,994.0,0.0,1,1579.0,0
398,398,-0.6663536516142211,-0.7,0.0,1.0,318.0,656.0,0.0,1,2026.0,0
399,399,-0.8602665758853367,-0.9,1.0,0.0,451.0,744.0,0.0,0,1805.0,1
400,400,-0.36931665376602996,-0.4,1.0,0.0,304.0,894.0,1.0,1,-1078.0,0
401,401,0.7261269612469957,0.7,0.0,0.0,442.0,876.0,0.0,1,1682.0,1
402,402,0.8057141770347128,0.8,0.0,0.0,440.0,643.0,0.0,1,1917.0,1
403,403,0.20542824550882754,0.2,0.0,0.0,302.0,593.0,0.0,1,2105.0,1
404,404,-0.11645128836829333,-0.1,1.0,0.0,429.0,792.0,0.0,0,1779.0,1
405,405,-0.6528638090555596,-0.7,1.0,0.0,354.0,623.0,1.0,1,-707.0,0
406,406,0.6524442900825075,0.7,0.0,0.0,285.0,898.0,0.0,1,1817.0,1
407,407,-0.6794309325270437,-0.7,0.0,1.0,486.0,712.0,0.0,1,1802.0,0
408,408,0.14157532004450102,0.1,1.0,1.0,360.0,572.0,0.0,0,2068.0,0
409,409,0.15693795251935982,0.2,1.0,1.0,377.0,816.0,0.0,0,1807.0,0
410,410,-0.8792108289421582,-0.9,1.0,0.0,455.0,748.0,0.0,0,1797.0,1
411,411,0.8630421921122727,0.9,0.0,0.0,377.0,755.0,1.0,0,-1132.0,0
412,412,0.42663360898997216,0.4,1.0,1.0,485.0,740.0,0.0,0,1775.0,0
413,413,0.22749284586822982,0.2,1.0,1.0,341.0,799.0,0.0,0,1860.0,0
414,414,0.15300722911571063,0.2,0.0,0.0,478.0,711.0,0.0,1,1811.0,1
415,415,0.5547274978985491,0.6,1.0,1.0,421.0,791.0,0.0,0,1788.0,0
416,416,0.07328889003275318,0.1,0.0,0.0,426.0,692.0,0.0,1,1882.0,1
417,417,0.1575934971005145,0.2,1.0,1.0,355.0,821.0,0.0,0,1824.0,0
418,418,0.04584010870850952,0.0,1.0,1.0,398.0,755.0,0.0,0,1847.0,0
419,419,-0.8151684075442232,-0.8,1.0,0.0,335.0,503.0,1.0,1,-518.0,0
420,420,-0.8747142988201703,-0.9,0.0,1.0,344.0,799.0,0.0,1,1857.0,0
421,421,-0.8958275919102475,-0.9,1.0,0.0,452.0,509.0,0.0,0,2039.0,1
422,422,-0.08383804105038162,-0.1,1.0,0.0,352.0,559.0,0.0,0,-911.0,1
423,423,0.49331366773884244,0.5,0.0,0.0,320.0,922.0,0.0,1,1758.0,1
424,424,0.08819837502240835,0.1,0.0,0.0,345.0,684.0,0.0,1,1971.0,1
425,425,0.6961494697161336,0.7,1.0,1.0,420.0,810.0,0.0,0,1770.0,0
426,426,-0.7008474170262469,-0.7,1.0,0.0,401.0,910.0,0.0,0,1689.0,1
427,427,0.641880339047414,0.6,1.0,1.0,371.0,837.0,1.0,1,-1208.0,1
428,428,0.28728054779578727,0.3,1.0,1.0,459.0,670.0,0.0,0,1871.0,0
429,429,-0.39535830708288244,-0.4,0.0,1.0,391.0,826.0,0.0,1,1783.0,0
430,430,0.8541676981281031,0.9,0.0,0.0,282.0,916.0,0.0,1,1802.0,1
431,431,0.5527712576179867,0.6,0.0,0.0,338.0,929.0,0.0,1,1733.0,1
432,432,0.41565749695866916,0.4,0.0,0.0,275.0,828.0,0.0,1,1897.0,1
433,433,0.020341775491862668,0.0,1.0,1.0,352.0,863.0,0.0,0,1785.0,0
434,434,-0.5991286926519901,-0.6,0.0,1.0,253.0,823.0,0.0,1,1924.0,0
435,435,0.4697448904644378,0.5,0.0,0.0,295.0,897.0,0.0,1,1808.0,1
436,436,0.7354514769261103,0.7,0.0,0.0,395.0,557.0,0.0,1,2048.0,1
437,437,-0.14178066128434907,-0.1,1.0,0.0,285.0,925.0,0.0,0,1790.0,1
438,438,-0.31056724068366004,-0.3,1.0,0.0,354.0,732.0,0.0,0,1914.0,1
439,439,0.04255632122114528,0.0,0.0,0.0,383.0,830.0,0.0,1,1787.0,1
440,440,-0.18155740671645448,-0.2,1.0,0.0,356.0,589.0,0.0,0,2055.0,1
441,441,-0.555155555618017,-0.6,1.0,0.0,404.0,604.0,0.0,0,1992.0,1
442,442,-0.5266763526281741,-0.5,0.0,1.0,451.0,707.0,0.0,1,1842.0,0
443,443,-0.13670431059484955,-0.1,1.0,0.0,254.0,536.0,0.0,0,2210.0,1
444,444,-0.7955931589314199,-0.8,1.0,0.0,339.0,971.0,0.0,0,1690.0,1
445,445,0.5664443495844186,0.6,1.0,1.0,323.0,909.0,0.0,0,1768.0,0
446,446,0.7215988507837604,0.7,1.0,1.0,498.0,648.0,1.0,1,-1126.0,1
447,447,0.43343626330812823,0.4,1.0,1.0,295.0,691.0,0.0,0,2014.0,0
448,448,0.2809772623366452,0.3,1.0,1.0,384.0,997.0,0.0,0,1619.0,0
449,449,-0.015010764506605434,-0.0,1.0,0.0,278.0,676.0,0.0,0,2046.0,1
450,450,-0.1451323576459126,-0.1,1.0,0.0,467.0,740.0,0.0,0,1793.0,1
451,451,0.8187503783344429,0.8,1.0,1.0,313.0,841.0,0.0,0,1846.0,0
452,452,0.3907855420485268,0.4,0.0,0.0,289.0,618.0,0.0,1,2093.0,1
453,453,0.0784328137010114,0.1,0.0,0.0,256.0,571.0,0.0,1,-797.0,1
454,454,-0.5100136808260416,-0.5,1.0,0.0,471.0,913.0,0.0,0,1616.0,1
455,455,-0.46822972240874533,-0.5,1.0,0.0,397.0,842.0,0.0,0,1761.0,1
456,456,0.8308941661042294,0.8,0.0,0.0,467.0,821.0,0.0,1,1712.0,1
457,457,0.2966478113754262,0.3,1.0,1.0,415.0,823.0,1.0,1,-1148.0,1
458,458,-0.14425577091482655,-0.1,0.0,1.0,387.0,737.0,1.0,0,-1104.0,1
459,459,0.7895100423701517,0.8,1.0,1.0,323.0,775.0,0.0,0,1902.0,0
460,460,0.24910905598178978,0.2,0.0,0.0,428.0,546.0,0.0,1,2026.0,1
461,461,-0.20026780321747462,-0.2,1.0,0.0,336.0,843.0,0.0,0,1821.0,1
462,462,-0.24688001620257616,-0.2,0.0,1.0,428.0,743.0,0.0,1,1829.0,0
463,463,-0.5542604588683343,-0.6,0.0,1.0,347.0,846.0,1.0,0,-963.0,1
464,464,-0.6035216671296623,-0.6,1.0,0.0,269.0,791.0,0.0,0,1940.0,1
465,465,-0.7366706129903039,-0.7,0.0,1.0,256.0,676.0,0.0,1,2068.0,0
466,466,-0.8863592025930483,-0.9,1.0,0.0,493.0,806.0,0.0,0,1701.0,1
467,467,0.18100380696413987,0.2,0.0,0.0,281.0,982.0,0.0,1,1737.0,1
468,468,0.1260167886670044,0.1,1.0,1.0,351.0,716.0,0.0,0,1933.0,0
469,469,-0.5981480862300822,-0.6,1.0,0.0,379.0,729.0,0.0,0,1892.0,1
470,470,-0.45255673870957785,-0.5,1.0,0.0,410.0,710.0,0.0,0,1880.0,1
471,471,0.734435119785623,0.7,1.0,1.0,433.0,947.0,0.0,0,1620.0,0
472,472,-0.16045428242840765,-0.2,0.0,1.0,448.0,833.0,0.0,1,1719.0,0
473,473,0.2487557221552349,0.2,1.0,1.0,349.0,868.0,0.0,0,-1197.0,0
474,474,0.6137944698787329,0.6,1.0,1.0,376.0,922.0,0.0,0,1702.0,0
475,475,0.1992907997335006,0.2,0.0,0.0,477.0,625.0,0.0,1,1898.0,1
476,476,-0.5572854823498818,-0.6,0.0,1.0,351.0,797.0,0.0,1,1852.0,0
477,477,0.05843998026334507,0.1,1.0,1.0,419.0,679.0,0.0,0,1902.0,0
478,478,0.5340908256896791,0.5,0.0,0.0,388.0,740.0,0.0,1,1872.0,1
479,479,0.36415213335393115,0.4,1.0,1.0,268.0,994.0,0.0,0,1738.0,0
480,480,-0.8522158118816546,-0.9,1.0,0.0,398.0,815.0,0.0,0,1787.0,1
481,481,-0.33072329257526223,-0.3,1.0,0.0,457.0,889.0,0.0,0,1654.0,1
482,482,-0.8661080683233197,-0.9,0.0,1.0,485.0,616.0,0.0,1,1899.0,0
483,483,-0.19803117453427843,-0.2,1.0,0.0,305.0,509.0,0.0,0,2186.0,1
484,484,0.16534424945662896,0.2,1.0,1.0,480.0,664.0,0.0,0,1856.0,0
485,485,-0.06930046357906527,-0.1,1.0,0.0,445.0,610.0,1.0,1,-905.0,0
486,486,-0.32205153034398726,-0.3,0.0,1.0,427.0,557.0,0.0,1,2016.0,0
487,487,0.270693923630121,0.3,0.0,0.0,334.0,969.0,0.0,1,1697.0,1
488,488,0.2937223102471075,0.3,0.0,0.0,266.0,843.0,0.0,1,1891.0,1
489,489,-0.8333279994179353,-0.8,0.0,1.0,478.0,637.0,0.0,1,1885.0,0
490,490,0.2972828130808055,0.3,0.0,0.0,435.0,684.0,0.0,1,1881.0,1
491,491,0.07070550384104968,0.1,0.0,0.0,279.0,917.0,0.0,1,1804.0,1
492,492,-0.6606846674857231,-0.7,0.0,1.0,474.0,886.0,0.0,1,1640.0,0
493,493,0.31435607916793973,0.3,0.0,0.0,442.0,858.0,0.0,1,1700.0,1
494,494,-0.607179178624681,-0.6,0.0,1.0,360.0,506.0,0.0,1,2134.0,0
495,495,0.3128428376223277,0.3,0.0,0.0,445.0,950.0,0.0,1,1605.0,1
496,496,0.8475205921375265,0.8,0.0,0.0,292.0,754.0,0.0,1,1954.0,1
497,497,0.8576211845848768,0.9,0.0,0.0,387.0,676.0,1.0,0,-1003.0,0
498,498,0.2662347689351524,0.3,1.0,1.0,263.0,808.0,0.0,0,1929.0,0
499,499,-0.37801768259494006,-0.4,0.0,1.0,363.0,991.0,1.0,0,-1264.0,1
500,500,0.8111430351639762,0.8,0.0,0.0,444.0,841.0,0.0,1,1715.0,1
501,501,0.5515467408689189,0.6,0.0,0.0,364.0,567.0,0.0,1,2069.0,1
502,502,-0.3044996237414441,-0.3,1.0,0.0,312.0,767.0,0.0,0,1921.0,1
503,503,-0.8707898863620389,-0.9,0.0,1.0,465.0,792.0,0.0,1,1743.0,0
504,504,-0.7246921216555549,-0.7,0.0,1.0,284.0,940.0,0.0,1,-1124.0,0
505,505,-0.5308048940727539,-0.5,0.0,1.0,312.0,687.0,0.0,1,2001.0,0
506,506,0.5752785758677504,0.6,1.0,1.0,266.0,701.0,0.0,0,2033.0,0
507,507,0.026025393946608966,0.0,0.0,0.0,286.0,696.0,0.0,1,2018.0,1
508,508,0.3296684396400723,0.3,1.0,1.0,474.0,795.0,0.0,0,1731.0,0
509,509,-0.030415065308400546,-0.0,1.0,0.0,303.0,548.0,1.0,1,-781.0,0
510,510,-0.06991073505837508,-0.1,0.0,1.0,412.0,823.0,0.0,1,1765.0,0
511,511,0.7611633999502606,0.8,0.0,0.0,342.0,705.0,0.0,1,1953.0,1
512,512,0.35297146204220275,0.4,0.0,0.0,278.0,643.0,0.0,1,2079.0,1
513,513,0.7688589491082062,0.8,1.0,1.0,318.0,835.0,0.0,0,1847.0,0
514,514,-0.4152803582107121,-0.4,0.0,1.0,294.0,953.0,1.0,0,-1187.0,1
515,515,0.8750007902932356,0.9,1.0,1.0,385.0,541.0,0.0,0,2074.0,0
516,516,-0.8057234428057956,-0.8,0.0,1.0,459.0,658.0,0.0,1,-1087.0,0
517,517,0.3630472266294952,0.4,0.0,0.0,387.0,533.0,0.0,1,2080.0,1
518,518,-0.8788876248751776,-0.9,1.0,0.0,440.0,708.0,0.0,0,1852.0,1
519,519,-0.5249430365514196,-0.5,0.0,1.0,295.0,967.0,0.0,1,1738.0,0
520,520,0.30207131249598274,0.3,1.0,1.0,486.0,529.0,0.0,0,1985.0,0
521,521,0.3659572984699674,0.4,0.0,0.0,472.0,782.0,0.0,1,1746.0,1
522,522,0.5277610609946649,0.5,1.0,1.0,323.0,556.0,0.0,0,2121.0,0
523,523,0.4520961104771387,0.5,0.0,0.0,290.0,981.0,0.0,1,1729.0,1
524,524,-0.27852588127463396,-0.3,1.0,0.0,344.0,746.0,0.0,0,1910.0,1
525,525,0.6094953427516857,0.6,0.0,0.0,306.0,644.0,1.0,0,-900.0,0
526,526,-0.6817604257914448,-0.7,0.0,1.0,421.0,858.0,0.0,1,1721.0,0
527,527,0.6126643372445327,0.6,0.0,0.0,447.0,904.0,0.0,1,1649.0,1
528,528,-0.8791856269087537,-0.9,0.0,1.0,463.0,850.0,0.0,1,1687.0,0
529,529,0.7293264331920511,0.7,0.0,0.0,317.0,576.0,0.0,1,2107.0,1
530,530,-0.34379808306161685,-0.3,1.0,0.0,409.0,721.0,1.0,1,-950.0,0
531,531,-0.6751764337292189,-0.7,0.0,1.0,387.0,934.0,1.0,0,-1321.0,1
532,532,0.4644146512451216,0.5,0.0,0.0,350.0,771.0,1.0,0,-931.0,0
533,533,-0.8431539852024783,-0.8,1.0,0.0,425.0,690.0,0.0,0,1885.0,1
534,534,0.5024720100180574,0.5,0.0,0.0,252.0,791.0,0.0,1,1957.0,1
535,535,-0.743989984509585,-0.7,1.0,0.0,252.0,644.0,0.0,0,2104.0,1
536,536,0.4876626560497622,0.5,1.0,1.0,461.0,520.0,1.0,1,-851.0,1
537,537,0.050654307578385294,0.1,1.0,1.0,407.0,606.0,0.0,0,1987.0,0
538,538,0.41503128295066294,0.4,0.0,0.0,416.0,604.0,0.0,1,1980.0,1
539,539,-0.24195867899559975,-0.2,1.0,0.0,311.0,928.0,0.0,0,1761.0,1
540,540,-0.16993653683688792,-0.2,0.0,1.0,385.0,883.0,0.0,1,1732.0,0
541,541,-0.09099645997574468,-0.1,0.0,1.0,495.0,557.0,0.0,1,1948.0,0
542,542,-0.5989809349533017,-0.6,1.0,0.0,310.0,705.0,0.0,0,1985.0,1
543,543,-0.7881322497032872,-0.8,0.0,1.0,444.0,963.0,0.0,1,1593.0,0
544,544,-0.3201885862939149,-0.3,0.0,1.0,412.0,601.0,0.0,1,1987.0,0
545,545,-0.3558782753926846,-0.4,0.0,1.0,302.0,674.0,0.0,1,2024.0,0
546,546,-0.8884221379417395,-0.9,1.0,0.0,354.0,793.0,0.0,0,1853.0,1
547,547,-0.40681812042189874,-0.4,1.0,0.0,286.0,692.0,0.0,0,2022.0,1
548,548,-0.8183786135322878,-0.8,1.0,0.0,453.0,641.0,0.0,0,1906.0,1
549,549,-0.19385304904294465,-0.2,0.0,1.0,401.0,942.0,0.0,1,1657.0,0
550,550,-0.1981878632141807,-0.2,1.0,0.0,364.0,686.0,0.0,0,1950.0,1
551,551,-0.3884924717196606,-0.4,1.0,0.0,425.0,723.0,0.0,0,1852.0,1
552,552,0.7526578890609817,0.8,1.0,1.0,411.0,889.0,0.0,0,1700.0,0
553,553,0.14435478622725906,0.1,1.0,1.0,260.0,613.0,0.0,0,2127.0,0
554,554,0.49790206235796697,0.5,1.0,1.0,342.0,500.0,0.0,0,2158.0,0
555,555,0.5789058042628786,0.6,0.0,0.0,417.0,904.0,0.0,1,1679.0,1
556,556,-0.6419455280228912,-0.6,0.0,1.0,396.0,926.0,0.0,1,1678.0,0
557,557,0.24395068000652287,0.2,0.0,0.0,279.0,661.0,0.0,1,2060.0,1
558,558,0.22300845812296555,0.2,0.0,0.0,373.0,623.0,0.0,1,2004.0,1
559,559,-0.44321394626275246,-0.4,1.0,0.0,387.0,786.0,0.0,0,1827.0,1
560,560,-0.08292760332501747,-0.1,1.0,0.0,489.0,570.0,0.0,0,1941.0,1
561,561,0.883355257401479,0.9,1.0,1.0,342.0,927.0,0.0,0,1731.0,0
562,562,-0.6751520137355101,-0.7,1.0,0.0,268.0,523.0,0.0,0,2209.0,1
563,563,-0.014503603332919557,-0.0,0.0,1.0,413.0,949.0,0.0,1,-1362.0,0
564,564,-0.4544855992915672,-0.5,0.0,1.0,387.0,617.0,0.0,1,1996.0,0
565,565,-0.041005189086515736,-0.0,0.0,1.0,335.0,589.0,0.0,1,2076.0,0
566,566,-0.6035832199563018,-0.6,0.0,1.0,294.0,568.0,0.0,1,2138.0,0
567,567,0.8127703500116851,0.8,0.0,0.0,385.0,798.0,0.0,1,1817.0,1
568,568,0.03525613540318362,0.0,1.0,1.0,460.0,816.0,0.0,0,1724.0,0
569,569,-0.5014069217217099,-0.5,0.0,1.0,307.0,907.0,1.0,0,-954.0,1
570,570,-0.39408823405135673,-0.4,1.0,0.0,451.0,611.0,0.0,0,-992.0,1
571,571,0.647521088123371,0.6,0.0,0.0,374.0,845.0,1.0,0,-1199.0,0
572,572,-0.6181640738977066,-0.6,1.0,0.0,262.0,863.0,0.0,0,1875.0,1
573,573,0.5410976348884443,0.5,1.0,1.0,430.0,520.0,1.0,1,-880.0,1
574,574,-0.5605414416429654,-0.6,0.0,1.0,299.0,513.0,0.0,1,2188.0,0
575,575,-0.5271257010472978,-0.5,0.0,1.0,397.0,866.0,0.0,1,1737.0,0
576,576,0.06320833697788342,0.1,1.0,1.0,283.0,705.0,0.0,0,2012.0,0
577,577,0.12241752183625387,0.1,0.0,0.0,341.0,557.0,0.0,1,2102.0,1
578,578,-0.5004385507997149,-0.5,1.0,0.0,285.0,719.0,0.0,0,1996.0,1
579,579,-0.7447205553658567,-0.7,1.0,0.0,303.0,807.0,1.0,1,-1020.0,0
580,580,0.48939158617029566,0.5,1.0,1.0,258.0,960.0,0.0,0,1782.0,0
581,581,-0.4118060483402444,-0.4,0.0,1.0,374.0,535.0,1.0,0,-779.0,1
582,582,-0.5927135093043445,-0.6,1.0,0.0,274.0,548.0,0.0,0,2178.0,1
583,583,0.6012931617914125,0.6,1.0,1.0,422.0,959.0,0.0,0,1619.0,0
584,584,-0.03179398349518314,-0.0,1.0,0.0,313.0,582.0,0.0,0,2105.0,1
585,585,-0.1817398629868585,-0.2,0.0,1.0,478.0,902.0,0.0,1,1620.0,0
586,586,-0.20052814751979908,-0.2,1.0,0.0,317.0,567.0,0.0,0,2116.0,1
587,587,-0.038624519465296436,-0.0,1.0,0.0,365.0,905.0,0.0,0,1730.0,1
588,588,-0.1708901123521288,-0.2,1.0,0.0,260.0,503.0,0.0,0,2237.0,1
589,589,0.7974293659314303,0.8,1.0,1.0,374.0,933.0,0.0,0,1693.0,0
590,590,-0.7609513057955288,-0.8,0.0,1.0,469.0,511.0,0.0,1,2020.0,0
591,591,0.458367327469947,0.5,1.0,1.0,266.0,799.0,0.0,0,1935.0,0
592,592,-0.6490676765863062,-0.6,1.0,0.0,497.0,870.0,0.0,0,1633.0,1
593,593,0.552327577630669,0.6,0.0,0.0,414.0,788.0,0.0,1,1798.0,1
594,594,0.5399570073038263,0.5,0.0,0.0,293.0,706.0,0.0,1,2001.0,1
595,595,0.05489284231696723,0.1,1.0,1.0,466.0,962.0,0.0,0,1572.0,0
596,596,0.7638975737372978,0.8,1.0,1.0,379.0,607.0,0.0,0,2014.0,0
597,597,0.6949843168733371,0.7,1.0,1.0,399.0,564.0,1.0,1,-943.0,1
598,598,0.1319266293277218,0.1,0.0,0.0,470.0,925.0,0.0,1,1605.0,1
599,599,0.6213554854321596,0.6,0.0,0.0,404.0,628.0,0.0,1,1968.0,1
600,600,0.336733795768945,0.3,1.0,1.0,338.0,945.0,0.0,0,1717.0,0
601,601,-0.19710476619164163,-0.2,0.0,1.0,293.0,888.0,0.0,1,1819.0,0
602,602,0.24115059498474778,0.2,1.0,1.0,465.0,998.0,1.0,1,-1283.0,1
603,603,0.3847142941907554,0.4,1.0,1.0,383.0,527.0,0.0,0,2090.0,0
604,604,0.6557988897642387,0.7,0.0,0.0,495.0,775.0,0.0,1,1730.0,1
605,605,0.46622490400497874,0.5,1.0,1.0,383.0,593.0,0.0,0,2024.0,0
606,606,0.22054243191286604,0.2,0.0,0.0,354.0,760.0,0.0,1,1886.0,1
607,607,-0.20521979857824568,-0.2,1.0,0.0,342.0,533.0,0.0,0,2125.0,1
608,608,0.5298996819396727,0.5,1.0,1.0,258.0,621.0,0.0,0,2121.0,0
609,609,0.1052786689096169,0.1,0.0,0.0,429.0,617.0,0.0,1,1954.0,1
610,610,-0.14119644435380707,-0.1,0.0,1.0,437.0,647.0,0.0,1,1916.0,0
611,611,0.549552893474255,0.5,1.0,1.0,335.0,825.0,0.0,0,1840.0,0
612,612,-0.8988384111672888,-0.9,0.0,1.0,282.0,826.0,1.0,0,-1008.0,1
613,613,-0.5362833193580285,-0.5,1.0,0.0,493.0,501.0,1.0,1,-754.0,0
614,614,0.06581215316135047,0.1,0.0,0.0,424.0,737.0,0.0,1,1839.0,1
615,615,0.2562300170012236,0.3,1.0,1.0,257.0,808.0,0.0,0,-1045.0,0
616,616,0.2178849119301508,0.2,1.0,1.0,270.0,903.0,0.0,0,1827.0,0
617,617,0.7758987859940255,0.8,1.0,1.0,287.0,508.0,1.0,1,-765.0,1
618,618,-0.6158167023682759,-0.6,0.0,1.0,256.0,534.0,0.0,1,2210.0,0
619,619,-0.8385191704355633,-0.8,0.0,1.0,375.0,609.0,0.0,1,2016.0,0
620,620,0.6696088592723121,0.7,0.0,0.0,404.0,623.0,0.0,1,1973.0,1
621,621,-0.47042818692474564,-0.5,1.0,0.0,299.0,804.0,1.0,1,-853.0,0
622,622,0.5173631668884876,0.5,0.0,0.0,426.0,642.0,1.0,0,-1028.0,0
623,623,0.24757966223280914,0.2,0.0,0.0,437.0,555.0,0.0,1,2008.0,1
624,624,-0.7077212663418473,-0.7,1.0,0.0,335.0,534.0,0.0,0,2131.0,1
625,625,-0.3126248062280337,-0.3,0.0,1.0,481.0,548.0,0.0,1,1971.0,0
626,626,0.34182463718184686,0.3,1.0,1.0,297.0,663.0,0.0,0,2040.0,0
627,627,-0.28108436193698727,-0.3,1.0,0.0,438.0,689.0,0.0,0,1873.0,1
628,628,0.39326218157643134,0.4,0.0,0.0,463.0,560.0,0.0,1,1977.0,1
629,629,-0.5929312177591759,-0.6,1.0,0.0,322.0,656.0,0.0,0,2022.0,1
630,630,-0.24719923611844352,-0.2,1.0,0.0,453.0,744.0,0.0,0,1803.0,1
631,631,0.8576818853168734,0.9,1.0,1.0,306.0,701.0,0.0,0,1993.0,0
632,632,-0.17687618876575195,-0.2,0.0,1.0,298.0,657.0,0.0,1,2045.0,0
633,633,0.19219634667762875,0.2,0.0,0.0,453.0,525.0,0.0,1,2022.0,1
634,634,-0.03687936698826633,-0.0,1.0,0.0,314.0,628.0,1.0,1,-902.0,0
635,635,-0.4344481087663316,-0.4,1.0,0.0,396.0,895.0,0.0,0,1709.0,1
636,636,-0.019798633427463908,-0.0,0.0,1.0,261.0,876.0,0.0,1,1863.0,0
637,637,0.32979609522794207,0.3,0.0,0.0,409.0,757.0,0.0,1,1834.0,1
638,638,0.17033149438672324,0.2,0.0,0.0,372.0,711.0,0.0,1,1917.0,1
639,639,-0.5069904434449266,-0.5,0.0,1.0,495.0,982.0,1.0,0,-1277.0,1
640,640,-0.4039374000020437,-0.4,1.0,0.0,428.0,974.0,0.0,0,1598.0,1
641,641,0.2814141648964307,0.3,0.0,0.0,329.0,519.0,0.0,1,2152.0,1
642,642,0.24360836520416462,0.2,1.0,1.0,322.0,611.0,1.0,1,-863.0,1
643,643,-0.3922177462952402,-0.4,0.0,1.0,346.0,780.0,0.0,1,1874.0,0
644,644,0.006878487788270493,0.0,0.0,0.0,363.0,530.0,0.0,1,2107.0,1
645,645,0.8124595167437548,0.8,1.0,1.0,325.0,569.0,0.0,0,2106.0,0
646,646,0.5504847005340409,0.6,1.0,1.0,303.0,899.0,0.0,0,1798.0,0
647,647,-0.052685219775620684,-0.1,1.0,0.0,406.0,870.0,0.0,0,1724.0,1
648,648,0.11337919457557522,0.1,1.0,1.0,426.0,768.0,0.0,0,1806.0,0
649,649,0.5959108196696453,0.6,0.0,0.0,496.0,552.0,0.0,1,1952.0,1
650,650,-0.16360090120584436,-0.2,1.0,0.0,356.0,922.0,0.0,0,1722.0,1
651,651,0.16858049270293451,0.2,1.0,1.0,455.0,713.0,0.0,0,1832.0,0
652,652,-0.7597404790965806,-0.8,0.0,1.0,429.0,902.0,0.0,1,1669.0,0
653,653,-0.13948555051204092,-0.1,0.0,1.0,452.0,539.0,0.0,1,2009.0,0
654,654,0.28489256309405875,0.3,1.0,1.0,386.0,954.0,1.0,1,-1290.0,1
655,655,0.6946263659733908,0.7,0.0,0.0,337.0,623.0,1.0,0,-770.0,0
656,656,-0.5974641389091179,-0.6,0.0,1.0,300.0,936.0,0.0,1,1764.0,0
657,657,0.7370181075347787,0.7,0.0,0.0,465.0,753.0,1.0,0,-1138.0,0
658,658,-0.8016484638890793,-0.8,0.0,1.0,284.0,887.0,1.0,0,-951.0,1
659,659,-0.5550091781373085,-0.6,1.0,0.0,410.0,679.0,0.0,0,1911.0,1
660,660,0.764108099795786,0.8,1.0,1.0,400.0,656.0,0.0,0,1944.0,0
661,661,0.6408907242290912,0.6,1.0,1.0,484.0,549.0,0.0,0,1967.0,0
662,662,-0.6848442198014973,-0.7,0.0,1.0,351.0,837.0,0.0,1,1812.0,0
663,663,-0.06172587566329413,-0.1,0.0,1.0,498.0,564.0,1.0,0,-742.0,1
664,664,0.5868502678765942,0.6,0.0,0.0,289.0,964.0,0.0,1,1747.0,1
665,665,0.6359642331458798,0.6,1.0,1.0,414.0,817.0,0.0,0,1769.0,0
666,666,0.6485916646465181,0.6,0.0,0.0,253.0,805.0,0.0,1,1942.0,1
667,667,0.21822698395541085,0.2,0.0,0.0,363.0,847.0,0.0,1,1790.0,1
668,668,0.08547335870750428,0.1,1.0,1.0,367.0,669.0,1.0,1,-756.0,1
669,669,0.31264044940175173,0.3,1.0,1.0,272.0,732.0,0.0,0,1996.0,0
670,670,0.7554027602210444,0.8,0.0,0.0,382.0,601.0,0.0,1,2017.0,1
671,671,-0.23698060457593528,-0.2,0.0,1.0,392.0,719.0,0.0,1,1889.0,0
672,672,-0.2364663904310127,-0.2,0.0,1.0,373.0,576.0,0.0,1,2051.0,0
673,673,-0.04982563998901468,-0.0,1.0,0.0,332.0,761.0,0.0,0,1907.0,1
674,674,0.28521009042514056,0.3,0.0,0.0,342.0,953.0,0.0,1,1705.0,1
675,675,0.6126417561431631,0.6,0.0,0.0,259.0,933.0,1.0,0,-662.0,0
676,676,-0.43723604814620115,-0.4,0.0,1.0,337.0,527.0,0.0,1,2136.0,0
677,677,-0.6162727833060672,-0.6,1.0,0.0,383.0,704.0,0.0,0,1913.0,1
678,678,-0.35539610030362534,-0.4,1.0,0.0,326.0,752.0,1.0,1,-748.0,0
679,679,0.8167344350499385,0.8,1.0,1.0,488.0,611.0,1.0,1,-1029.0,1
680,680,0.42330523673320275,0.4,0.0,0.0,379.0,759.0,0.0,1,1862.0,1
681,681,0.015146678823619197,0.0,0.0,0.0,281.0,960.0,0.0,1,1759.0,1
682,682,0.7079236554830676,0.7,1.0,1.0,285.0,535.0,0.0,0,-760.0,0
683,683,-0.8057138972180801,-0.8,1.0,0.0,420.0,814.0,0.0,0,1766.0,1
684,684,0.41283856831993526,0.4,1.0,1.0,268.0,533.0,0.0,0,2199.0,0
685,685,-0.25448045746640147,-0.3,1.0,0.0,315.0,678.0,0.0,0,2007.0,1
686,686,0.24053776230036228,0.2,1.0,1.0,287.0,987.0,1.0,1,-994.0,1
687,687,-0.6994721859223259,-0.7,0.0,1.0,479.0,836.0,0.0,1,1685.0,0
688,688,-0.2659698151779809,-0.3,0.0,1.0,354.0,543.0,0.0,1,2103.0,0
689,689,-0.8551759877150001,-0.9,0.0,1.0,372.0,998.0,0.0,1,1630.0,0
690,690,-0.12015612779583029,-0.1,1.0,0.0,296.0,585.0,0.0,0,2119.0,1
691,691,0.26189015138955607,0.3,1.0,1.0,266.0,998.0,0.0,0,1736.0,0
692,692,-0.8128628061729882,-0.8,1.0,0.0,291.0,994.0,0.0,0,1715.0,1
693,693,0.24764934241615355,0.2,0.0,0.0,408.0,962.0,0.0,1,1630.0,1
694,694,-0.1543757840102361,-0.2,0.0,1.0,499.0,849.0,0.0,1,1652.0,0
695,695,-0.7286860698921532,-0.7,0.0,1.0,470.0,903.0,1.0,0,-1193.0,1
696,696,-0.6916364349926716,-0.7,0.0,1.0,279.0,686.0,0.0,1,2035.0,0
697,697,-0.6792401331802622,-0.7,1.0,0.0,354.0,689.0,0.0,0,1957.0,1
698,698,0.6381161365770059,0.6,1.0,1.0,257.0,941.0,0.0,0,1802.0,0
699,699,0.14753212604593158,0.1,0.0,0.0,411.0,987.0,0.0,1,1602.0,1
700,700,-0.7610940144066793,-0.8,1.0,0.0,383.0,796.0,0.0,0,1821.0,1
701,701,0.804647670143667,0.8,1.0,1.0,380.0,830.0,0.0,0,1790.0,0
702,702,0.5949030269984193,0.6,1.0,1.0,357.0,931.0,0.0,0,1712.0,0
703,703,-0.3067718033244413,-0.3,0.0,1.0,433.0,716.0,0.0,1,-1039.0,0
704,704,-0.019091992773430877,-0.0,1.0,0.0,282.0,722.0,0.0,0,1996.0,1
705,705,0.6474279689398009,0.6,1.0,1.0,345.0,589.0,0.0,0,2066.0,0
706,706,0.5481694657224511,0.5,0.0,0.0,322.0,596.0,0.0,1,2082.0,1
707,707,-0.2384969137852827,-0.2,0.0,1.0,302.0,809.0,0.0,1,1889.0,0
708,708,-0.48630999371473016,-0.5,0.0,1.0,264.0,803.0,0.0,1,1933.0,0
709,709,-0.36828504804793427,-0.4,1.0,0.0,339.0,544.0,0.0,0,2117.0,1
710,710,0.5883228855598234,0.6,0.0,0.0,358.0,748.0,0.0,1,-976.0,1
711,711,0.8103843692382168,0.8,1.0,1.0,491.0,710.0,0.0,0,1799.0,0
712,712,-0.09837918946136304,-0.1,0.0,1.0,409.0,904.0,0.0,1,1687.0,0
713,713,-0.14823743146913948,-0.1,0.0,1.0,423.0,511.0,0.0,1,2066.0,0
714,714,0.5817214670153715,0.6,1.0,1.0,326.0,549.0,0.0,0,2125.0,0
715,715,0.6364305601660939,0.6,1.0,1.0,326.0,811.0,0.0,0,-1047.0,0
716,716,-0.5046941197244761,-0.5,0.0,1.0,354.0,506.0,0.0,1,2140.0,0
717,717,-0.06472457497321815,-0.1,1.0,0.0,338.0,688.0,0.0,0,1974.0,1
718,718,-0.7680865647945498,-0.8,1.0,0.0,423.0,999.0,0.0,0,1578.0,1
719,719,-0.794373024135476,-0.8,1.0,0.0,271.0,583.0,0.0,0,-794.0,1
720,720,-0.46911006973537556,-0.5,0.0,1.0,267.0,855.0,0.0,1,1878.0,0
721,721,0.46638691648334396,0.5,1.0,1.0,437.0,524.0,0.0,0,2039.0,0
722,722,0.6555772030365609,0.7,1.0,1.0,494.0,873.0,0.0,0,1633.0,0
723,723,0.7811306538595236,0.8,0.0,0.0,452.0,986.0,0.0,1,1562.0,1
724,724,0.663926030739416,0.7,0.0,0.0,456.0,727.0,0.0,1,1817.0,1
725,725,0.13136678655915024,0.1,0.0,0.0,332.0,777.0,0.0,1,1891.0,1
726,726,0.06279887501595383,0.1,1.0,1.0,367.0,733.0,0.0,0,1900.0,0
727,727,0.004828017690890363,0.0,0.0,0.0,329.0,862.0,0.0,1,1809.0,1
728,728,-0.3017656918554956,-0.3,1.0,0.0,442.0,646.0,0.0,0,1912.0,1
729,729,-0.11554416506572263,-0.1,1.0,0.0,284.0,975.0,0.0,0,1741.0,1
730,730,0.8804205657364584,0.9,0.0,0.0,342.0,569.0,1.0,0,-831.0,0
731,731,-0.5394464415955817,-0.5,1.0,0.0,450.0,872.0,0.0,0,1678.0,1
732,732,0.18001096499798253,0.2,1.0,1.0,258.0,719.0,0.0,0,2023.0,0
733,733,0.1937669750833687,0.2,0.0,0.0,367.0,515.0,0.0,1,2118.0,1
734,734,-0.6857083469215357,-0.7,0.0,1.0,480.0,877.0,0.0,1,1643.0,0
735,735,-0.12050582379747588,-0.1,1.0,0.0,250.0,959.0,0.0,0,1791.0,1
736,736,0.7785280230950696,0.8,0.0,0.0,413.0,882.0,0.0,1,1705.0,1
737,737,-0.338249198887289,-0.3,0.0,1.0,370.0,898.0,0.0,1,1732.0,0
738,738,0.8678603913812338,0.9,1.0,1.0,261.0,634.0,0.0,0,2105.0,0
739,739,-0.41775383278927053,-0.4,1.0,0.0,483.0,854.0,0.0,0,1663.0,1
740,740,-0.844191150383668,-0.8,1.0,0.0,478.0,796.0,0.0,0,1726.0,1
741,741,-0.1062117704576403,-0.1,1.0,0.0,251.0,539.0,0.0,0,2210.0,1
742,742,-0.07816978660471208,-0.1,0.0,1.0,327.0,643.0,0.0,1,2030.0,0
743,743,0.0012335669713980923,0.0,1.0,1.0,403.0,790.0,0.0,0,1807.0,0
744,744,0.45880285005351984,0.5,0.0,0.0,317.0,811.0,0.0,1,1872.0,1
745,745,0.8260673143862355,0.8,1.0,1.0,353.0,822.0,1.0,1,-975.0,1
746,746,-0.5445920805098996,-0.5,0.0,1.0,488.0,507.0,0.0,1,2005.0,0
747,747,-0.30711942973189166,-0.3,0.0,1.0,317.0,571.0,0.0,1,2112.0,0
748,748,0.0023978188526574407,0.0,0.0,0.0,443.0,630.0,0.0,1,1927.0,1
749,749,-0.5588751378758094,-0.6,1.0,0.0,389.0,543.0,0.0,0,2068.0,1
750,750,0.47042328914508713,0.5,0.0,0.0,367.0,938.0,0.0,1,1695.0,1
751,751,0.1547633885714984,0.2,0.0,0.0,322.0,603.0,0.0,1,2075.0,1
752,752,0.0019481940898118388,0.0,1.0,1.0,340.0,824.0,0.0,0,1836.0,0
753,753,0.10776537401256003,0.1,0.0,0.0,398.0,988.0,1.0,0,-1276.0,0
754,754,0.5188056636815476,0.5,0.0,0.0,374.0,745.0,1.0,0,-979.0,0
755,755,-0.0433670718375494,-0.0,0.0,1.0,423.0,635.0,0.0,1,1942.0,0
756,756,-0.14623341404711032,-0.1,0.0,1.0,262.0,893.0,0.0,1,1845.0,0
757,757,0.31876931620353177,0.3,1.0,1.0,462.0,860.0,0.0,0,1678.0,0
758,758,0.2484368454910909,0.2,1.0,1.0,298.0,560.0,0.0,0,-378.0,0
759,759,0.6114302138959619,0.6,0.0,0.0,398.0,522.0,0.0,1,2080.0,1
760,760,0.5875615462611571,0.6,1.0,1.0,337.0,643.0,0.0,0,2020.0,0
761,761,0.008771610841832977,0.0,1.0,1.0,356.0,751.0,0.0,0,-1007.0,0
762,762,-0.43206196105765726,-0.4,0.0,1.0,475.0,959.0,0.0,1,1566.0,0
763,763,0.4629582177318444,0.5,0.0,0.0,452.0,893.0,1.0,0,-1335.0,0
764,764,-0.5919473613050361,-0.6,0.0,1.0,457.0,750.0,0.0,1,1793.0,0
765,765,0.7764553760628584,0.8,0.0,0.0,373.0,851.0,0.0,1,1776.0,1
766,766,-0.7576365356501271,-0.8,0.0,1.0,428.0,853.0,0.0,1,1719.0,0
767,767,0.05272168568233282,0.1,1.0,1.0,413.0,932.0,0.0,0,1655.0,0
768,768,-0.1506442810950691,-0.2,0.0,1.0,367.0,832.0,0.0,1,1801.0,0
769,769,-0.5441273253010748,-0.5,1.0,0.0,406.0,900.0,0.0,0,1694.0,1
770,770,0.704377128183102,0.7,1.0,1.0,320.0,837.0,0.0,0,1843.0,0
771,771,-0.7670897009777472,-0.8,0.0,1.0,308.0,716.0,0.0,1,1976.0,0
772,772,0.7522096002795701,0.8,0.0,0.0,389.0,725.0,0.0,1,1886.0,1
773,773,-0.07997557244583564,-0.1,1.0,0.0,411.0,715.0,0.0,0,1874.0,1
774,774,-0.8414942232824761,-0.8,1.0,0.0,383.0,983.0,0.0,0,1634.0,1
775,775,-0.46341323423300274,-0.5,0.0,1.0,467.0,853.0,0.0,1,1680.0,0
776,776,-0.11293263601854442,-0.1,0.0,1.0,332.0,879.0,0.0,1,1789.0,0
777,777,0.8837233193740498,0.9,1.0,1.0,280.0,904.0,0.0,0,-1144.0,0
778,778,-0.1583317696395825,-0.2,1.0,0.0,269.0,776.0,0.0,0,1955.0,1
779,779,-0.18657406638073615,-0.2,1.0,0.0,341.0,700.0,1.0,1,-911.0,0
780,780,-0.058253152639619055,-0.1,0.0,1.0,477.0,910.0,0.0,1,1613.0,0
781,781,0.27723280534639694,0.3,1.0,1.0,422.0,595.0,0.0,0,1983.0,0
782,782,0.3528668351270262,0.4,0.0,0.0,433.0,879.0,0.0,1,1688.0,1
783,783,0.233646818681564,0.2,0.0,0.0,337.0,890.0,0.0,1,1773.0,1
784,784,0.6443616039617216,0.6,1.0,1.0,494.0,542.0,0.0,0,1964.0,0
785,785,-0.8325176116269842,-0.8,0.0,1.0,408.0,977.0,0.0,1,1615.0,0
786,786,0.7547052987917754,0.8,0.0,0.0,459.0,627.0,1.0,0,-966.0,0
787,787,0.8927315589672092,0.9,1.0,1.0,273.0,515.0,1.0,1,-758.0,1
788,788,-0.14805308126297367,-0.1,0.0,1.0,290.0,780.0,0.0,1,-1060.0,0
789,789,0.5878472059524845,0.6,1.0,1.0,365.0,579.0,0.0,0,2056.0,0
790,790,0.7001903171202878,0.7,0.0,0.0,321.0,645.0,1.0,0,-896.0,0
791,791,-0.35748707982094985,-0.4,0.0,1.0,392.0,792.0,0.0,1,1816.0,0
792,792,0.2736678437123722,0.3,0.0,0.0,475.0,561.0,0.0,1,1964.0,1
793,793,-0.7989779869607684,-0.8,0.0,1.0,479.0,857.0,0.0,1,1664.0,0
794,794,0.052649605059436166,0.1,1.0,1.0,485.0,687.0,0.0,0,1828.0,0
795,795,0.5434705237268788,0.5,1.0,1.0,337.0,877.0,0.0,0,1786.0,0
796,796,0.5491493901692676,0.5,1.0,1.0,353.0,655.0,1.0,1,-988.0,1
797,797,0.10125543303026163,0.1,0.0,0.0,444.0,970.0,1.0,0,-1204.0,0
798,798,-0.3899843543170194,-0.4,0.0,1.0,466.0,762.0,0.0,1,1772.0,0
799,799,0.41461268298224485,0.4,1.0,1.0,277.0,892.0,0.0,0,1831.0,0
800,800,-0.24062872833406534,-0.2,0.0,1.0,331.0,592.0,0.0,1,2077.0,0
801,801,0.374724660077527,0.4,0.0,0.0,455.0,747.0,0.0,1,1798.0,1
802,802,0.6315653872135286,0.6,1.0,1.0,369.0,725.0,0.0,0,1906.0,0
803,803,0.4335817415200539,0.4,1.0,1.0,291.0,824.0,0.0,0,1885.0,0
804,804,0.8198648499708711,0.8,1.0,1.0,322.0,742.0,0.0,0,1936.0,0
805,805,-0.8606235621805156,-0.9,1.0,0.0,356.0,935.0,0.0,0,1709.0,1
806,806,0.7125248973996948,0.7,0.0,0.0,261.0,655.0,0.0,1,2084.0,1
807,807,-0.38564044335026837,-0.4,0.0,1.0,386.0,796.0,1.0,0,-1062.0,1
808,808,-0.766070764655278,-0.8,0.0,1.0,436.0,521.0,0.0,1,2043.0,0
809,809,0.6395924072609004,0.6,1.0,1.0,357.0,769.0,0.0,0,1874.0,0
810,810,-0.40415385955203476,-0.4,1.0,0.0,255.0,771.0,0.0,0,1974.0,1
811,811,-0.3343451459888409,-0.3,0.0,1.0,349.0,727.0,0.0,1,1924.0,0
812,812,0.39854989302684485,0.4,1.0,1.0,423.0,909.0,0.0,0,1668.0,0
813,813,0.3011205000040159,0.3,1.0,1.0,417.0,992.0,0.0,0,1591.0,0
814,814,0.42496056472945154,0.4,1.0,1.0,419.0,614.0,0.0,0,1967.0,0
815,815,0.7010142585928881,0.7,1.0,1.0,259.0,963.0,0.0,0,1778.0,0
816,816,0.5819461131460076,0.6,1.0,1.0,421.0,723.0,0.0,0,1856.0,0
817,817,-0.3697848646314895,-0.4,1.0,0.0,312.0,792.0,0.0,0,1896.0,1
818,818,0.5494857960266971,0.5,1.0,1.0,300.0,607.0,0.0,0,-757.0,0
819,819,0.3516799577765565,0.4,0.0,0.0,431.0,771.0,0.0,1,1798.0,1
820,820,-0.013648303913268434,-0.0,0.0,1.0,425.0,934.0,0.0,1,1641.0,0
821,821,-0.6422534020515807,-0.6,0.0,1.0,432.0,557.0,0.0,1,2011.0,0
822,822,0.3388819831975983,0.3,0.0,0.0,474.0,898.0,0.0,1,1628.0,1
823,823,0.45628098408001316,0.5,1.0,1.0,252.0,890.0,0.0,0,1858.0,0
824,824,0.755693572228299,0.8,1.0,1.0,480.0,549.0,0.0,0,1971.0,0
825,825,-0.5592156146587393,-0.6,0.0,1.0,442.0,865.0,0.0,1,1693.0,0
826,826,0.7533569226853724,0.8,0.0,0.0,453.0,596.0,0.0,1,1951.0,1
827,827,0.865482546367626,0.9,0.0,0.0,489.0,723.0,0.0,1,1788.0,1
828,828,-0.3334351232852837,-0.3,1.0,0.0,380.0,509.0,0.0,0,2111.0,1
829,829,0.6339568924919984,0.6,0.0,0.0,386.0,868.0,0.0,1,1746.0,1
830,830,0.21610803673912227,0.2,1.0,1.0,333.0,745.0,0.0,0,1922.0,0
831,831,0.00993285895899465,0.0,0.0,0.0,263.0,859.0,0.0,1,1878.0,1
832,832,-0.20754243034040387,-0.2,0.0,1.0,313.0,783.0,0.0,1,1904.0,0
833,833,-0.5715649808293723,-0.6,1.0,0.0,452.0,886.0,1.0,1,-1218.0,0
834,834,-0.5223727728485685,-0.5,0.0,1.0,266.0,522.0,0.0,1,2212.0,0
835,835,-0.2485711569841318,-0.2,1.0,0.0,427.0,914.0,0.0,0,1659.0,1
836,836,0.8288630893072358,0.8,1.0,1.0,497.0,585.0,0.0,0,1918.0,0
837,837,0.7707799305168624,0.8,0.0,0.0,457.0,884.0,0.0,1,1659.0,1
838,838,0.5313062313804192,0.5,0.0,0.0,481.0,594.0,0.0,1,1925.0,1
839,839,-0.542121809544786,-0.5,1.0,0.0,314.0,523.0,0.0,0,2163.0,1
840,840,0.40534438363470693,0.4,1.0,1.0,471.0,587.0,1.0,1,-708.0,1
841,841,-0.7501915762131194,-0.8,0.0,1.0,264.0,747.0,0.0,1,1989.0,0
842,842,-0.3345899910433645,-0.3,0.0,1.0,337.0,592.0,0.0,1,2071.0,0
843,843,0.12243264769514173,0.1,0.0,0.0,349.0,804.0,0.0,1,1847.0,1
844,844,0.5672907560371535,0.6,1.0,1.0,421.0,571.0,0.0,0,2008.0,0
845,845,-0.011614868016162738,-0.0,0.0,1.0,424.0,527.0,0.0,1,2049.0,0
846,846,0.8248652503056021,0.8,0.0,0.0,397.0,927.0,0.0,1,1676.0,1
847,847,-0.056540883165736244,-0.1,0.0,1.0,397.0,973.0,0.0,1,1630.0,0
848,848,-0.7029142917849087,-0.7,1.0,0.0,279.0,786.0,0.0,0,1935.0,1
849,849,-0.5931200249333228,-0.6,0.0,1.0,298.0,999.0,0.0,1,1703.0,0
850,850,-0.11971274489318984,-0.1,0.0,1.0,268.0,709.0,0.0,1,2023.0,0
851,851,0.16013778096258713,0.2,1.0,1.0,252.0,598.0,0.0,0,2150.0,0
852,852,-0.5568335737009495,-0.6,1.0,0.0,398.0,633.0,0.0,0,1969.0,1
853,853,0.13558051907689628,0.1,1.0,1.0,304.0,927.0,0.0,0,1769.0,0
854,854,0.2812339321584688,0.3,0.0,0.0,427.0,725.0,1.0,0,-1012.0,0
855,855,-0.8334525253917678,-0.8,0.0,1.0,429.0,900.0,0.0,1,1671.0,0
856,856,0.5878588940682242,0.6,0.0,0.0,345.0,868.0,0.0,1,1787.0,1
857,857,-0.6608072786230592,-0.7,1.0,0.0,301.0,832.0,0.0,0,1867.0,1
858,858,-0.17738429521060317,-0.2,1.0,0.0,335.0,665.0,1.0,1,-940.0,0
859,859,0.13775519157887206,0.1,1.0,1.0,335.0,630.0,0.0,0,2035.0,0
860,860,0.7332741590070545,0.7,1.0,1.0,277.0,505.0,0.0,0,2218.0,0
861,861,0.25319304456248115,0.3,0.0,0.0,261.0,520.0,0.0,1,-731.0,1
862,862,0.8304461293589575,0.8,0.0,0.0,463.0,508.0,0.0,1,2029.0,1
863,863,-0.4993071237081264,-0.5,0.0,1.0,343.0,756.0,0.0,1,1901.0,0
864,864,-0.0022898858880375794,-0.0,1.0,0.0,364.0,856.0,0.0,0,1780.0,1
865,865,-0.41472318839330385,-0.4,1.0,0.0,460.0,676.0,0.0,0,1864.0,1
866,866,-0.5373011289788865,-0.5,0.0,1.0,368.0,575.0,0.0,1,2057.0,0
867,867,-0.29138335252414227,-0.3,1.0,0.0,426.0,796.0,0.0,0,1778.0,1
868,868,0.48927606366283627,0.5,0.0,0.0,268.0,635.0,0.0,1,2097.0,1
869,869,0.6127830576017789,0.6,1.0,1.0,336.0,805.0,0.0,0,1859.0,0
870,870,-0.6936144059801336,-0.7,0.0,1.0,269.0,779.0,1.0,0,-778.0,1
871,871,0.43963257405800527,0.4,1.0,1.0,379.0,940.0,0.0,0,1681.0,0
872,872,-0.35759298504045056,-0.4,0.0,1.0,451.0,631.0,0.0,1,1918.0,0
873,873,-0.46308222834995394,-0.5,0.0,1.0,411.0,623.0,0.0,1,1966.0,0
874,874,0.28421823868552465,0.3,0.0,0.0,308.0,537.0,0.0,1,2155.0,1
875,875,0.5955445453165799,0.6,0.0,0.0,477.0,811.0,1.0,0,-1238.0,0
876,876,-0.03913834516057357,-0.0,0.0,1.0,423.0,697.0,0.0,1,1880.0,0
877,877,-0.28348246140723665,-0.3,0.0,1.0,417.0,839.0,0.0,1,1744.0,0
878,878,0.26190209731243297,0.3,0.0,0.0,355.0,728.0,0.0,1,1917.0,1
879,879,0.4575427036693608,0.5,0.0,0.0,302.0,842.0,0.0,1,1856.0,1
880,880,0.834072740783845,0.8,0.0,0.0,491.0,527.0,0.0,1,1982.0,1
881,881,0.870375702429136,0.9,1.0,1.0,373.0,848.0,0.0,0,1779.0,0
882,882,-0.46662603917893014,-0.5,0.0,1.0,281.0,701.0,0.0,1,-952.0,0
883,883,-0.6303005681978222,-0.6,1.0,0.0,377.0,569.0,0.0,0,2054.0,1
884,884,0.6813708794586394,0.7,1.0,1.0,309.0,928.0,0.0,0,1763.0,0
885,885,-0.3926471203680645,-0.4,1.0,0.0,394.0,626.0,0.0,0,1980.0,1
886,886,0.10090797578777544,0.1,0.0,0.0,483.0,898.0,0.0,1,1619.0,1
887,887,0.8381570136512299,0.8,1.0,1.0,397.0,576.0,0.0,0,2027.0,0
888,888,-0.18148292662033072,-0.2,1.0,0.0,493.0,833.0,0.0,0,1674.0,1
889,889,-0.2936195442316043,-0.3,0.0,1.0,454.0,796.0,0.0,1,1750.0,0
890,890,0.12019831394324865,0.1,0.0,0.0,423.0,550.0,0.0,1,2027.0,1
891,891,0.490477797462303,0.5,0.0,0.0,460.0,896.0,0.0,1,1644.0,1
892,892,-0.6446164377751862,-0.6,1.0,0.0,253.0,795.0,0.0,0,1952.0,1
893,893,-0.08223254076224173,-0.1,1.0,0.0,385.0,956.0,0.0,0,1659.0,1
894,894,-0.06009050418867401,-0.1,1.0,0.0,441.0,656.0,0.0,0,1903.0,1
895,895,-0.11047281852173274,-0.1,0.0,1.0,454.0,549.0,0.0,1,1997.0,0
896,896,0.8509155079921068,0.9,0.0,0.0,302.0,795.0,0.0,1,1903.0,1
897,897,-0.8511326464687872,-0.9,1.0,0.0,404.0,760.0,0.0,0,1836.0,1
898,898,-0.13030483466968712,-0.1,0.0,1.0,409.0,865.0,0.0,1,1726.0,0
899,899,0.22584572043874906,0.2,0.0,0.0,259.0,784.0,0.0,1,1957.0,1
900,900,-0.7130290504304699,-0.7,1.0,0.0,489.0,652.0,0.0,0,1859.0,1
901,901,-0.008397809717401228,-0.0,1.0,0.0,316.0,686.0,0.0,0,1998.0,1
902,902,-0.5226435442919596,-0.5,0.0,1.0,302.0,532.0,0.0,1,-524.0,0
903,903,0.787365904327528,0.8,1.0,1.0,445.0,675.0,1.0,1,-930.0,1
904,904,0.4298281074634699,0.4,1.0,1.0,483.0,919.0,0.0,0,1598.0,0
905,905,0.0019416497902337015,0.0,0.0,0.0,497.0,744.0,0.0,1,1759.0,1
906,906,0.7282062291196795,0.7,0.0,0.0,351.0,828.0,0.0,1,1821.0,1
907,907,-0.08639835183188871,-0.1,1.0,0.0,481.0,916.0,0.0,0,1603.0,1
908,908,-0.86340031850705,-0.9,0.0,1.0,491.0,562.0,0.0,1,1947.0,0
909,909,0.09414113583556083,0.1,0.0,0.0,343.0,987.0,0.0,1,1670.0,1
910,910,0.8777507754660653,0.9,0.0,0.0,401.0,978.0,0.0,1,1621.0,1
911,911,-0.5841473968064242,-0.6,0.0,1.0,332.0,882.0,0.0,1,1786.0,0
912,912,0.45555296976929893,0.5,1.0,1.0,350.0,641.0,0.0,0,2009.0,0
913,913,0.7841889539353423,0.8,0.0,0.0,457.0,779.0,0.0,1,1764.0,1
914,914,-0.15061502498572155,-0.2,0.0,1.0,499.0,896.0,0.0,1,1605.0,0
915,915,-0.05745815287632816,-0.1,0.0,1.0,393.0,660.0,0.0,1,1947.0,0
916,916,0.4032807995868498,0.4,1.0,1.0,485.0,806.0,0.0,0,1709.0,0
917,917,0.288180338860789,0.3,0.0,0.0,455.0,613.0,0.0,1,1932.0,1
918,918,-0.041396966855448136,-0.0,1.0,0.0,255.0,839.0,0.0,0,1906.0,1
919,919,0.16166694610192767,0.2,1.0,1.0,367.0,579.0,1.0,1,-406.0,1
920,920,-0.4912827348685043,-0.5,0.0,1.0,477.0,933.0,1.0,0,-1340.0,1
921,921,0.863600663605072,0.9,0.0,0.0,373.0,699.0,0.0,1,1928.0,1
922,922,0.750121787792812,0.8,1.0,1.0,368.0,562.0,0.0,0,2070.0,0
923,923,0.4802921277790996,0.5,1.0,1.0,304.0,542.0,0.0,0,2154.0,0
924,924,-0.8273206795955589,-0.8,1.0,0.0,479.0,913.0,1.0,1,-1352.0,0
925,925,0.6784440942276427,0.7,0.0,0.0,293.0,803.0,0.0,1,1904.0,1
926,926,0.1774940543913125,0.2,1.0,1.0,349.0,903.0,1.0,1,-1202.0,1
927,927,0.8265351383875735,0.8,0.0,0.0,409.0,893.0,0.0,1,1698.0,1
928,928,-0.29581011034714866,-0.3,0.0,1.0,456.0,566.0,0.0,1,1978.0,0
929,929,0.044253577306063274,0.0,1.0,1.0,257.0,526.0,1.0,1,-773.0,1
930,930,0.6226794427601322,0.6,1.0,1.0,363.0,954.0,0.0,0,1683.0,0
931,931,-0.6667871630773017,-0.7,1.0,0.0,353.0,875.0,0.0,0,1772.0,1
932,932,-0.8349002267846255,-0.8,1.0,0.0,469.0,522.0,0.0,0,2009.0,1
933,933,0.5017414026368282,0.5,1.0,1.0,452.0,528.0,0.0,0,2020.0,0
934,934,-0.7214338250971213,-0.7,0.0,1.0,274.0,593.0,0.0,1,2133.0,0
935,935,-0.39075956054424477,-0.4,0.0,1.0,368.0,782.0,0.0,1,1850.0,0
936,936,-0.034165818028417005,-0.0,1.0,0.0,375.0,741.0,0.0,0,1884.0,1
937,937,-0.08142481912510402,-0.1,0.0,1.0,303.0,619.0,0.0,1,2078.0,0
938,938,0.8846801916023824,0.9,0.0,0.0,434.0,954.0,0.0,1,1612.0,1
939,939,-0.3134820267349372,-0.3,1.0,0.0,419.0,975.0,0.0,0,1606.0,1
940,940,0.10494694204012955,0.1,0.0,0.0,481.0,884.0,0.0,1,1635.0,1
941,941,-0.08900768091577171,-0.1,1.0,0.0,314.0,552.0,0.0,0,2134.0,1
942,942,-0.6964635310365257,-0.7,0.0,1.0,254.0,784.0,0.0,1,1962.0,0
943,943,0.21946386150287778,0.2,1.0,1.0,318.0,612.0,0.0,0,2070.0,0
944,944,-0.16895156721690496,-0.2,1.0,0.0,335.0,931.0,0.0,0,1734.0,1
945,945,-0.7046757262773422,-0.7,0.0,1.0,421.0,882.0,0.0,1,1697.0,0
946,946,0.7733115907100908,0.8,1.0,1.0,348.0,854.0,0.0,0,1798.0,0
947,947,0.46042886164873165,0.5,1.0,1.0,393.0,826.0,0.0,0,1781.0,0
948,948,0.3458937416924176,0.3,0.0,0.0,400.0,806.0,0.0,1,1794.0,1
949,949,-0.5685277348864615,-0.6,0.0,1.0,358.0,579.0,0.0,1,2063.0,0
950,950,0.14083682327949154,0.1,0.0,0.0,269.0,824.0,0.0,1,1907.0,1
951,951,0.49324139448052506,0.5,1.0,1.0,401.0,659.0,0.0,0,1940.0,0
952,952,0.03097851252344741,0.0,1.0,1.0,263.0,635.0,0.0,0,2102.0,0
953,953,-0.48292805199471445,-0.5,1.0,0.0,269.0,982.0,0.0,0,1749.0,1
954,954,-0.47777971570047023,-0.5,1.0,0.0,368.0,943.0,0.0,0,1689.0,1
955,955,0.6313856528030443,0.6,1.0,1.0,458.0,805.0,0.0,0,1737.0,0
956,956,-0.34890530388920915,-0.3,1.0,0.0,401.0,715.0,0.0,0,1884.0,1
957,957,0.09240899242516754,0.1,1.0,1.0,362.0,779.0,0.0,0,1859.0,0
958,958,-0.709633225295252,-0.7,0.0,1.0,450.0,970.0,0.0,1,1580.0,0
959,959,-0.36508682247456936,-0.4,0.0,1.0,419.0,612.0,0.0,1,1969.0,0
960,960,0.49733841638039034,0.5,0.0,0.0,398.0,705.0,0.0,1,1897.0,1
961,961,-0.4079873334649606,-0.4,1.0,0.0,313.0,827.0,0.0,0,-870.0,1
962,962,0.7303114377690948,0.7,0.0,0.0,391.0,557.0,1.0,0,-708.0,0
963,963,0.3939274432384291,0.4,0.0,0.0,461.0,887.0,1.0,0,-1288.0,0
964,964,-0.4848051729545459,-0.5,1.0,0.0,311.0,587.0,1.0,1,-848.0,0
965,965,-0.5186816528765286,-0.5,0.0,1.0,328.0,507.0,0.0,1,-795.0,0
966,966,0.4620217878268108,0.5,1.0,1.0,403.0,702.0,0.0,0,1895.0,0
967,967,-0.053119619391205575,-0.1,1.0,0.0,452.0,683.0,0.0,0,1865.0,1
968,968,-0.6628455970318081,-0.7,1.0,0.0,297.0,965.0,0.0,0,1738.0,1
969,969,0.07685339371763233,0.1,0.0,0.0,322.0,986.0,0.0,1,1692.0,1
970,970,0.2422571217511279,0.2,1.0,1.0,399.0,898.0,1.0,1,-1247.0,1
971,971,0.16796519878277738,0.2,1.0,1.0,426.0,663.0,0.0,0,1911.0,0
972,972,0.21292951315251785,0.2,1.0,1.0,481.0,599.0,0.0,0,1920.0,0
973,973,0.07896950202396591,0.1,0.0,0.0,323.0,530.0,0.0,1,2147.0,1
974,974,0.5387734672725378,0.5,0.0,0.0,327.0,811.0,0.0,1,1862.0,1
975,975,-0.19860109055437114,-0.2,0.0,1.0,347.0,692.0,0.0,1,1961.0,0
976,976,-0.46365382912753056,-0.5,0.0,1.0,318.0,735.0,0.0,1,1947.0,0
977,977,-0.7285983664324385,-0.7,1.0,0.0,462.0,733.0,0.0,0,1805.0,1
978,978,0.12818754602151572,0.1,1.0,1.0,266.0,878.0,0.0,0,-1094.0,0
979,979,-0.7432338866163024,-0.7,1.0,0.0,273.0,996.0,0.0,0,1731.0,1
980,980,0.34267945695462887,0.3,0.0,0.0,337.0,838.0,0.0,1,1825.0,1
981,981,0.46452425540338804,0.5,0.0,0.0,487.0,789.0,1.0,0,-1086.0,0
982,982,0.3171653011675103,0.3,1.0,1.0,264.0,869.0,0.0,0,1867.0,0
983,983,-0.38563826284587566,-0.4,0.0,1.0,439.0,986.0,0.0,1,1575.0,0
984,984,0.2638864013930765,0.3,0.0,0.0,465.0,919.0,0.0,1,1616.0,1
985,985,-0.4652279487111187,-0.5,0.0,1.0,492.0,680.0,0.0,1,1828.0,0
986,986,0.5631610831667303,0.6,1.0,1.0,305.0,607.0,0.0,0,2088.0,0
987,987,-0.7323423098494135,-0.7,1.0,0.0,476.0,823.0,0.0,0,1701.0,1
988,988,-0.7885685375511454,-0.8,0.0,1.0,332.0,891.0,1.0,0,-1203.0,1
989,989,-0.5817657803291818,-0.6,1.0,0.0,422.0,975.0,0.0,0,1603.0,1
990,990,-0.5483332091965953,-0.5,1.0,0.0,464.0,643.0,0.0,0,1893.0,1
991,991,-0.19343876341262156,-0.2,1.0,0.0,431.0,661.0,0.0,0,1908.0,1
992,992,0.1828952837765262,0.2,0.0,0.0,310.0,988.0,0.0,1,1702.0,1
993,993,0.846178881175312,0.8,1.0,1.0,261.0,874.0,0.0,0,1865.0,0
994,994,-0.3334936538326132,-0.3,0.0,1.0,369.0,582.0,0.0,1,2049.0,0
995,995,-0.7901084407913548,-0.8,0.0,1.0,394.0,626.0,0.0,1,1980.0,0
996,996,0.173078160401812,0.2,1.0,1.0,499.0,553.0,0.0,0,1948.0,0
997,997,-0.6496992041665258,-0.6,1.0,0.0,471.0,688.0,0.0,0,1841.0,1
998,998,-0.7972181636454503,-0.8,1.0,0.0,281.0,869.0,0.0,0,1850.0,1
999,999,-0.5819408133815542,-0.6,1.0,0.0,347.0,868.0,0.0,0,1785.0,1
1000,1000,-0.19367150502773522,-0.2,1.0,0.0,406.0,615.0,0.0,0,1979.0,1
1001,1001,-0.18835193152020213,-0.2,0.0,1.0,386.0,782.0,0.0,1,1832.0,0
1002,1002,-0.8986566362141858,-0.9,1.0,0.0,410.0,660.0,0.0,0,1930.0,1
1003,1003,0.7399642202596189,0.7,0.0,0.0,252.0,536.0,0.0,1,2212.0,1
1004,1004,0.8309996581840674,0.8,1.0,1.0,274.0,639.0,0.0,0,2087.0,0
1005,1005,-0.17662941219301476,-0.2,1.0,0.0,409.0,822.0,0.0,0,1769.0,1
1006,1006,0.31573579434862065,0.3,0.0,0.0,495.0,543.0,0.0,1,1962.0,1
1007,1007,-0.25179211380864674,-0.3,0.0,1.0,283.0,996.0,0.0,1,1721.0,0
1008,1008,-0.7164673719459238,-0.7,0.0,1.0,311.0,920.0,0.0,1,1769.0,0
1009,1009,-0.33495016253626153,-0.3,0.0,1.0,401.0,855.0,0.0,1,1744.0,0
1010,1010,-0.6592626556814989,-0.7,0.0,1.0,315.0,680.0,0.0,1,2005.0,0
1011,1011,0.3419398864926734,0.3,0.0,0.0,390.0,774.0,0.0,1,1836.0,1
1012,1012,0.6409748274035895,0.6,0.0,0.0,474.0,761.0,0.0,1,1765.0,1
1013,1013,0.8760117159351465,0.9,0.0,0.0,386.0,968.0,0.0,1,1646.0,1
1014,1014,0.7722396346488839,0.8,0.0,0.0,499.0,989.0,0.0,1,1512.0,1
1015,1015,-0.28936322299974226,-0.3,0.0,1.0,363.0,517.0,0.0,1,2120.0,0
1016,1016,-0.5267918241967285,-0.5,1.0,0.0,434.0,933.0,0.0,0,1633.0,1
1017,1017,0.31627202778395846,0.3,1.0,1.0,250.0,934.0,0.0,0,1816.0,0
1018,1018,0.530134211742158,0.5,1.0,1.0,488.0,733.0,0.0,0,1779.0,0
1019,1019,0.03798711646886277,0.0,0.0,0.0,498.0,699.0,0.0,1,1803.0,1
1020,1020,-0.8854736524268293,-0.9,0.0,1.0,361.0,714.0,0.0,1,1925.0,0
1021,1021,-0.40407889211278036,-0.4,1.0,0.0,299.0,926.0,0.0,0,1775.0,1
1022,1022,0.2845539815353161,0.3,1.0,1.0,491.0,741.0,0.0,0,1768.0,0
1023,1023,0.17658225599822452,0.2,0.0,0.0,350.0,511.0,0.0,1,-771.0,1
1024,1024,0.4122111159875147,0.4,1.0,1.0,425.0,848.0,0.0,0,1727.0,0
1025,1025,0.16341953092121908,0.2,1.0,1.0,258.0,690.0,1.0,1,-808.0,1
1026,1026,0.40390249638169917,0.4,1.0,1.0,413.0,624.0,0.0,0,1963.0,0
1027,1027,-0.5157393236132524,-0.5,1.0,0.0,404.0,980.0,0.0,0,1616.0,1
1028,1028,0.33151557564562706,0.3,1.0,1.0,267.0,981.0,0.0,0,1752.0,0
1029,1029,0.4142191670764176,0.4,1.0,1.0,488.0,804.0,0.0,0,1708.0,0
1030,1030,-0.3459213441415313,-0.3,0.0,1.0,261.0,756.0,0.0,1,1983.0,0
1031,1031,0.8840451782269251,0.9,0.0,0.0,349.0,984.0,0.0,1,1667.0,1
1032,1032,-0.3068934833883673,-0.3,1.0,0.0,444.0,712.0,0.0,0,1844.0,1
1033,1033,0.6786933511994268,0.7,1.0,1.0,402.0,555.0,0.0,0,2043.0,0
1034,1034,0.4959682043602861,0.5,1.0,1.0,443.0,593.0,0.0,0,-916.0,0
1035,1035,0.39177433968288444,0.4,0.0,0.0,470.0,939.0,0.0,1,1591.0,1
1036,1036,-0.23519929509165494,-0.2,1.0,0.0,388.0,991.0,0.0,0,1621.0,1
1037,1037,0.8915063036551601,0.9,1.0,1.0,415.0,652.0,0.0,0,1933.0,0
1038,1038,-0.5605760822327814,-0.6,0.0,1.0,254.0,910.0,0.0,1,1836.0,0
1039,1039,0.6068220994610848,0.6,0.0,0.0,253.0,906.0,0.0,1,1841.0,1
1040,1040,-0.05800127917149722,-0.1,1.0,0.0,321.0,904.0,0.0,0,-1175.0,1
1041,1041,-0.5634014216402474,-0.6,1.0,0.0,344.0,679.0,0.0,0,1977.0,1
1042,1042,-0.6950220358596952,-0.7,1.0,0.0,383.0,775.0,0.0,0,1842.0,1
1043,1043,0.17734746473810714,0.2,0.0,0.0,265.0,844.0,0.0,1,1891.0,1
1044,1044,0.24400153366124233,0.2,1.0,1.0,346.0,872.0,1.0,1,-1218.0,1
1045,1045,0.33123795088092745,0.3,0.0,0.0,467.0,945.0,0.0,1,-1342.0,1
1046,1046,-0.8746195117109642,-0.9,0.0,1.0,437.0,889.0,0.0,1,1674.0,0
1047,1047,0.15337785481925648,0.2,0.0,0.0,321.0,702.0,0.0,1,1977.0,1
1048,1048,-0.28427499353882824,-0.3,1.0,0.0,290.0,973.0,0.0,0,1737.0,1
1049,1049,0.36705526110144493,0.4,0.0,0.0,445.0,671.0,0.0,1,1884.0,1
1050,1050,0.19471415526014602,0.2,0.0,0.0,294.0,987.0,1.0,0,-1281.0,0
1051,1051,0.8986473200779604,0.9,0.0,0.0,421.0,656.0,0.0,1,1923.0,1
1052,1052,0.5892203123447121,0.6,1.0,1.0,365.0,846.0,0.0,0,1789.0,0
1053,1053,-0.388803333160731,-0.4,0.0,1.0,460.0,791.0,0.0,1,1749.0,0
1054,1054,-0.5602334824062065,-0.6,1.0,0.0,382.0,566.0,1.0,1,-758.0,0
1055,1055,0.2636354637112138,0.3,1.0,1.0,387.0,845.0,0.0,0,1768.0,0
1056,1056,-0.15505583355344732,-0.2,0.0,1.0,407.0,760.0,0.0,1,1833.0,0
1057,1057,0.5055759173520039,0.5,0.0,0.0,497.0,906.0,0.0,1,1597.0,1
1058,1058,0.42757283752347786,0.4,0.0,0.0,438.0,905.0,0.0,1,1657.0,1
1059,1059,-0.19515871192487422,-0.2,1.0,0.0,326.0,762.0,0.0,0,1912.0,1
1060,1060,0.4564991814220126,0.5,0.0,0.0,380.0,760.0,0.0,1,1860.0,1
1061,1061,-0.457605025159684,-0.5,1.0,0.0,280.0,506.0,0.0,0,2214.0,1
1062,1062,0.5805755418809878,0.6,0.0,0.0,456.0,768.0,1.0,0,-1224.0,0
1063,1063,0.8209563418411111,0.8,0.0,0.0,335.0,590.0,0.0,1,2075.0,1
1064,1064,-0.8595466182199181,-0.9,0.0,1.0,304.0,969.0,0.0,1,1727.0,0
1065,1065,0.4379950638907292,0.4,1.0,1.0,376.0,972.0,0.0,0,1652.0,0
1066,1066,-0.013727923847590251,-0.0,0.0,1.0,431.0,547.0,0.0,1,2022.0,0
1067,1067,0.03235637551500503,0.0,0.0,0.0,425.0,505.0,0.0,1,2070.0,1
1068,1068,-0.13129176166207446,-0.1,1.0,0.0,407.0,712.0,0.0,0,1881.0,1
1069,1069,-0.3366361551334598,-0.3,1.0,0.0,254.0,509.0,0.0,0,2237.0,1
1070,1070,-0.29515139696813486,-0.3,1.0,0.0,498.0,897.0,0.0,0,1605.0,1
1071,1071,-0.13285084851218232,-0.1,0.0,1.0,470.0,882.0,0.0,1,1648.0,0
1072,1072,0.07134158998913265,0.1,0.0,0.0,264.0,579.0,0.0,1,2157.0,1
1073,1073,0.8844909440985304,0.9,1.0,1.0,264.0,701.0,0.0,0,2035.0,0
1074,1074,0.6278904310808348,0.6,0.0,0.0,302.0,718.0,0.0,1,1980.0,1
1075,1075,-0.0002791449131700485,-0.0,0.0,1.0,359.0,614.0,0.0,1,2027.0,0
1076,1076,-0.6636287158425009,-0.7,0.0,1.0,442.0,540.0,0.0,1,2018.0,0
1077,1077,-0.23373498964393746,-0.2,0.0,1.0,404.0,967.0,0.0,1,1629.0,0
1078,1078,-0.07982147242327708,-0.1,1.0,0.0,431.0,880.0,0.0,0,1689.0,1
1079,1079,-0.23757058856062907,-0.2,1.0,0.0,434.0,873.0,0.0,0,1693.0,1
1080,1080,0.5047319065836945,0.5,1.0,1.0,419.0,857.0,0.0,0,1724.0,0
1081,1081,-0.020080567018592732,-0.0,1.0,0.0,480.0,610.0,0.0,0,1910.0,1
1082,1082,0.5071036048618541,0.5,0.0,0.0,398.0,900.0,0.0,1,1702.0,1
1083,1083,0.8318887550936299,0.8,1.0,1.0,250.0,592.0,1.0,1,-502.0,1
1084,1084,-0.7352436466717159,-0.7,1.0,0.0,367.0,993.0,0.0,0,1640.0,1
1085,1085,0.8646149906498922,0.9,1.0,1.0,453.0,827.0,0.0,0,1720.0,0
1086,1086,0.6989959802816611,0.7,0.0,0.0,417.0,545.0,0.0,1,-912.0,1
1087,1087,-0.2592396061125378,-0.3,0.0,1.0,401.0,927.0,0.0,1,1672.0,0
1088,1088,0.1525036334898452,0.2,1.0,1.0,283.0,853.0,1.0,1,-1046.0,1
1089,1089,0.30717262112508836,0.3,1.0,1.0,377.0,628.0,0.0,0,1995.0,0
1090,1090,0.24768765725706332,0.2,0.0,0.0,348.0,968.0,1.0,0,-1306.0,0
1091,1091,0.4140430675187715,0.4,1.0,1.0,264.0,968.0,0.0,0,1768.0,0
1092,1092,-0.5670674408113614,-0.6,1.0,0.0,489.0,555.0,0.0,0,1956.0,1
1093,1093,-0.3061749060994401,-0.3,0.0,1.0,389.0,504.0,0.0,1,2107.0,0
1094,1094,-0.20779271039014724,-0.2,1.0,0.0,488.0,815.0,0.0,0,1697.0,1
1095,1095,-0.13561560172344445,-0.1,0.0,1.0,430.0,828.0,0.0,1,1742.0,0
1096,1096,0.4368492536071883,0.4,1.0,1.0,354.0,707.0,0.0,0,1939.0,0
1097,1097,0.6780550406389697,0.7,1.0,1.0,298.0,790.0,0.0,0,1912.0,0
1098,1098,0.8958405261946155,0.9,1.0,1.0,483.0,672.0,0.0,0,1845.0,0
1099,1099,-0.8834752448038233,-0.9,0.0,1.0,446.0,546.0,0.0,1,2008.0,0
1100,1100,-0.2486979090581557,-0.2,0.0,1.0,439.0,552.0,0.0,1,2009.0,0
1101,1101,0.32403949670754806,0.3,1.0,1.0,328.0,533.0,0.0,0,2139.0,0
1102,1102,0.31211675205225975,0.3,0.0,0.0,382.0,617.0,0.0,1,2001.0,1
1103,1103,0.4982305270209936,0.5,1.0,1.0,281.0,625.0,0.0,0,2094.0,0
1104,1104,0.049407352401562465,0.0,0.0,0.0,496.0,746.0,0.0,1,1758.0,1
1105,1105,0.005021112371658254,0.0,1.0,1.0,358.0,891.0,0.0,0,-1219.0,0
1106,1106,0.8010242617135154,0.8,1.0,1.0,283.0,552.0,0.0,0,2165.0,0
1107,1107,0.40632546480305154,0.4,1.0,1.0,286.0,928.0,0.0,0,1786.0,0
1108,1108,-0.10617890845037226,-0.1,0.0,1.0,408.0,985.0,0.0,1,1607.0,0
1109,1109,-0.8257458127737061,-0.8,1.0,0.0,364.0,713.0,0.0,0,1923.0,1
1110,1110,-0.15522108042217464,-0.2,1.0,0.0,272.0,628.0,0.0,0,2100.0,1
1111,1111,-0.6385977442868876,-0.6,1.0,0.0,473.0,981.0,0.0,0,1546.0,1
1112,1112,-0.2873921303499637,-0.3,0.0,1.0,390.0,881.0,0.0,1,1729.0,0
1113,1113,0.210956499643142,0.2,1.0,1.0,318.0,973.0,1.0,1,-1291.0,1
1114,1114,0.8019202889959217,0.8,1.0,1.0,295.0,807.0,0.0,0,1898.0,0
1115,1115,-0.008798373222229205,-0.0,1.0,0.0,443.0,611.0,0.0,0,1946.0,1
1116,1116,0.10591424710709074,0.1,0.0,0.0,366.0,546.0,0.0,1,-792.0,1
1117,1117,-0.09397524970992788,-0.1,0.0,1.0,356.0,695.0,0.0,1,-1021.0,0
1118,1118,-0.3479939406866024,-0.3,1.0,0.0,452.0,654.0,0.0,0,1894.0,1
1119,1119,-0.5477456732209622,-0.5,0.0,1.0,316.0,735.0,0.0,1,1949.0,0
1120,1120,0.31239369635229963,0.3,1.0,1.0,337.0,837.0,1.0,1,-924.0,1
1121,1121,0.6254107778026711,0.6,1.0,1.0,427.0,616.0,1.0,1,-823.0,1
1122,1122,-0.026769037463825307,-0.0,1.0,0.0,337.0,662.0,0.0,0,2001.0,1
1123,1123,-0.32026775831107235,-0.3,1.0,0.0,357.0,520.0,0.0,0,-867.0,1
1124,1124,0.08102748939387949,0.1,1.0,1.0,412.0,700.0,0.0,0,1888.0,0
1125,1125,0.29878849561954224,0.3,0.0,0.0,256.0,775.0,0.0,1,1969.0,1
1126,1126,-0.8189667801411517,-0.8,0.0,1.0,269.0,595.0,0.0,1,2136.0,0
1127,1127,0.03056719329659696,0.0,0.0,0.0,286.0,867.0,0.0,1,1847.0,1
1128,1128,0.37023873367325966,0.4,0.0,0.0,283.0,562.0,0.0,1,2155.0,1
1129,1129,0.30638988931703726,0.3,1.0,1.0,452.0,766.0,1.0,1,-1058.0,1
1130,1130,0.40804755710024077,0.4,0.0,0.0,401.0,525.0,0.0,1,2074.0,1
1131,1131,0.447867498751661,0.4,0.0,0.0,268.0,937.0,0.0,1,1795.0,1
1132,1132,0.08117311740681088,0.1,0.0,0.0,366.0,583.0,0.0,1,2051.0,1
1133,1133,-0.5222898768601131,-0.5,1.0,0.0,330.0,996.0,0.0,0,1674.0,1
1134,1134,0.07684785682882855,0.1,1.0,1.0,330.0,779.0,0.0,0,1891.0,0
1135,1135,-0.3195505922557541,-0.3,0.0,1.0,294.0,566.0,0.0,1,2140.0,0
1136,1136,0.4899603865606218,0.5,1.0,1.0,298.0,761.0,0.0,0,1941.0,0
1137,1137,-0.29252774647591506,-0.3,1.0,0.0,469.0,878.0,0.0,0,1653.0,1
1138,1138,-0.23579508544407501,-0.2,0.0,1.0,300.0,581.0,0.0,1,2119.0,0
1139,1139,-0.8807231622877587,-0.9,1.0,0.0,304.0,621.0,0.0,0,2075.0,1
1140,1140,0.5049341919513243,0.5,1.0,1.0,422.0,913.0,0.0,0,1665.0,0
1141,1141,0.81848396413287,0.8,1.0,1.0,367.0,553.0,0.0,0,2080.0,0
1142,1142,0.1532201908531542,0.2,1.0,1.0,486.0,932.0,0.0,0,1582.0,0
1143,1143,0.5518258110328288,0.6,1.0,1.0,394.0,504.0,0.0,0,2102.0,0
1144,1144,0.11862375379603052,0.1,0.0,0.0,251.0,504.0,0.0,1,2245.0,1
1145,1145,-0.18039343747311787,-0.2,1.0,0.0,422.0,814.0,0.0,0,1764.0,1
1146,1146,0.7104008763109445,0.7,1.0,1.0,400.0,686.0,0.0,0,1914.0,0
1147,1147,0.09052099136413527,0.1,0.0,0.0,423.0,863.0,0.0,1,1714.0,1
1148,1148,0.7838703337604614,0.8,0.0,0.0,396.0,958.0,1.0,0,-1104.0,0
1149,1149,0.05396291577515355,0.1,1.0,1.0,496.0,592.0,0.0,0,1912.0,0
1150,1150,0.44838544047827,0.4,0.0,0.0,428.0,925.0,0.0,1,1647.0,1
1151,1151,0.5859944925545982,0.6,0.0,0.0,279.0,793.0,1.0,0,-872.0,0
1152,1152,-0.13192779866608328,-0.1,1.0,0.0,419.0,771.0,0.0,0,1810.0,1
1153,1153,-0.10704209559386868,-0.1,1.0,0.0,250.0,797.0,0.0,0,1953.0,1
1154,1154,0.33596191473350656,0.3,0.0,0.0,416.0,740.0,0.0,1,1844.0,1
1155,1155,0.21378258272278183,0.2,1.0,1.0,311.0,680.0,0.0,0,2009.0,0
1156,1156,0.7089000323255673,0.7,1.0,1.0,457.0,729.0,0.0,0,1814.0,0
1157,1157,-0.19807060765998274,-0.2,1.0,0.0,382.0,717.0,0.0,0,1901.0,1
1158,1158,0.44561260371550226,0.4,1.0,1.0,425.0,692.0,0.0,0,1883.0,0
1159,1159,0.7722978307984013,0.8,0.0,0.0,415.0,908.0,0.0,1,1677.0,1
1160,1160,-0.4005419812656073,-0.4,0.0,1.0,475.0,896.0,0.0,1,1629.0,0
1161,1161,0.21462921010257474,0.2,1.0,1.0,386.0,966.0,0.0,0,1648.0,0
1162,1162,-0.7588056981350848,-0.8,0.0,1.0,367.0,983.0,1.0,0,-1110.0,1
1163,1163,-0.7999137778333165,-0.8,0.0,1.0,494.0,729.0,0.0,1,1777.0,0
1164,1164,-0.1412187192387484,-0.1,1.0,0.0,409.0,910.0,1.0,1,-1289.0,0
1165,1165,0.05609278458424738,0.1,0.0,0.0,411.0,707.0,0.0,1,1882.0,1
1166,1166,-0.4000535426558542,-0.4,1.0,0.0,460.0,691.0,0.0,0,1849.0,1
1167,1167,-0.5616943027931578,-0.6,0.0,1.0,492.0,745.0,0.0,1,1763.0,0
1168,1168,-0.08767770176714607,-0.1,1.0,0.0,495.0,643.0,0.0,0,1862.0,1
1169,1169,0.4492508942672623,0.4,0.0,0.0,496.0,931.0,0.0,1,1573.0,1
1170,1170,-0.6007579448983607,-0.6,1.0,0.0,338.0,523.0,1.0,1,-841.0,0
1171,1171,0.3369549891583966,0.3,0.0,0.0,490.0,515.0,0.0,1,1995.0,1
1172,1172,0.121779412888542,0.1,0.0,0.0,418.0,760.0,0.0,1,1822.0,1
1173,1173,-0.5210303986148785,-0.5,0.0,1.0,369.0,965.0,0.0,1,1666.0,0
1174,1174,-0.16076510588747805,-0.2,1.0,0.0,396.0,524.0,0.0,0,2080.0,1
1175,1175,0.12971539866036264,0.1,1.0,1.0,340.0,586.0,0.0,0,2074.0,0
1176,1176,-0.011551917140040002,-0.0,0.0,1.0,455.0,733.0,0.0,1,1812.0,0
1177,1177,0.4548854505001908,0.5,1.0,1.0,290.0,877.0,0.0,0,1833.0,0
1178,1178,-0.8963191862149263,-0.9,0.0,1.0,287.0,740.0,0.0,1,1973.0,0
1179,1179,0.5685414099379392,0.6,1.0,1.0,396.0,769.0,0.0,0,1835.0,0
1180,1180,-0.19738671107358996,-0.2,0.0,1.0,285.0,598.0,0.0,1,2117.0,0
1181,1181,0.509281303852189,0.5,1.0,1.0,434.0,591.0,0.0,0,1975.0,0
1182,1182,-0.6322383747759208,-0.6,0.0,1.0,479.0,936.0,0.0,1,1585.0,0
1183,1183,0.7670250857412454,0.8,0.0,0.0,493.0,961.0,0.0,1,1546.0,1
1184,1184,-0.7978272611072271,-0.8,1.0,0.0,290.0,769.0,0.0,0,1941.0,1
1185,1185,0.7585088284128189,0.8,0.0,0.0,285.0,761.0,0.0,1,-996.0,1
1186,1186,0.5214546601016076,0.5,0.0,0.0,383.0,785.0,0.0,1,1832.0,1
1187,1187,-0.17655339007254478,-0.2,0.0,1.0,493.0,794.0,0.0,1,1713.0,0
1188,1188,0.13628327161444254,0.1,0.0,0.0,482.0,524.0,0.0,1,1994.0,1
1189,1189,-0.3474966977102433,-0.3,0.0,1.0,431.0,619.0,0.0,1,1950.0,0
1190,1190,0.19578422453704014,0.2,0.0,0.0,398.0,785.0,1.0,0,-1173.0,0
1191,1191,0.8585155010904236,0.9,0.0,0.0,443.0,576.0,0.0,1,1981.0,1
1192,1192,-0.42536024291906355,-0.4,0.0,1.0,437.0,688.0,0.0,1,1875.0,0
1193,1193,-0.46870313835767036,-0.5,1.0,0.0,293.0,836.0,0.0,0,1871.0,1
1194,1194,-0.5262444587313662,-0.5,1.0,0.0,357.0,702.0,0.0,0,1941.0,1
1195,1195,0.5405537557122134,0.5,1.0,1.0,323.0,990.0,1.0,1,-1273.0,1
1196,1196,0.15510764221637874,0.2,1.0,1.0,483.0,879.0,0.0,0,1638.0,0
1197,1197,0.7374522842154579,0.7,0.0,0.0,305.0,833.0,0.0,1,-1008.0,1
1198,1198,-0.33693498462023463,-0.3,1.0,0.0,316.0,994.0,1.0,1,-1300.0,0
1199,1199,0.44862563511242615,0.4,1.0,1.0,427.0,930.0,1.0,1,-1347.0,1
1200,1200,0.35914937998198304,0.4,1.0,1.0,392.0,868.0,0.0,0,1740.0,0
1201,1201,0.25966651524979867,0.3,1.0,1.0,475.0,515.0,0.0,0,2010.0,0
1202,1202,-0.7116737193764904,-0.7,1.0,0.0,274.0,894.0,0.0,0,1832.0,1
1203,1203,-0.14513011673204912,-0.1,0.0,1.0,418.0,720.0,0.0,1,1862.0,0
1204,1204,-0.4054060270527425,-0.4,0.0,1.0,324.0,694.0,0.0,1,1982.0,0
1205,1205,0.2508900186989681,0.3,0.0,0.0,498.0,841.0,0.0,1,1661.0,1
1206,1206,-0.3736802896930883,-0.4,0.0,1.0,410.0,796.0,0.0,1,1794.0,0
1207,1207,0.27646132875090934,0.3,0.0,0.0,464.0,971.0,0.0,1,1565.0,1
1208,1208,0.05859341156253162,0.1,0.0,0.0,472.0,742.0,0.0,1,1786.0,1
1209,1209,-0.5482167483553421,-0.5,0.0,1.0,404.0,626.0,0.0,1,1970.0,0
1210,1210,-0.4610352440906698,-0.5,1.0,0.0,266.0,733.0,0.0,0,2001.0,1
1211,1211,0.8155585132033906,0.8,0.0,0.0,352.0,822.0,1.0,0,-894.0,0
1212,1212,-0.47436092146369946,-0.5,1.0,0.0,425.0,670.0,0.0,0,1905.0,1
1213,1213,0.18558286274618896,0.2,0.0,0.0,410.0,588.0,0.0,1,2002.0,1
1214,1214,-0.8429940670423447,-0.8,0.0,1.0,252.0,642.0,0.0,1,2106.0,0
1215,1215,0.4420095991217402,0.4,1.0,1.0,423.0,547.0,0.0,0,2030.0,0
1216,1216,-0.7805959759602306,-0.8,1.0,0.0,382.0,615.0,0.0,0,2003.0,1
1217,1217,-0.815820798500604,-0.8,1.0,0.0,463.0,814.0,0.0,0,1723.0,1
1218,1218,-0.8107889051113156,-0.8,0.0,1.0,483.0,902.0,0.0,1,1615.0,0
1219,1219,0.49911662115517463,0.5,0.0,0.0,417.0,648.0,0.0,1,1935.0,1
1220,1220,0.10897716080059905,0.1,1.0,1.0,422.0,704.0,0.0,0,1874.0,0
1221,1221,-0.1477665315380896,-0.1,1.0,0.0,408.0,506.0,0.0,0,2086.0,1
1222,1222,-0.7227860737563245,-0.7,0.0,1.0,411.0,846.0,0.0,1,1743.0,0
1223,1223,0.7180429219661634,0.7,0.0,0.0,485.0,858.0,0.0,1,1657.0,1
1224,1224,-0.46155250384605884,-0.5,0.0,1.0,330.0,848.0,0.0,1,1822.0,0
1225,1225,0.5430351505975787,0.5,1.0,1.0,305.0,887.0,1.0,1,-672.0,1
1226,1226,0.7963368141529282,0.8,0.0,0.0,398.0,612.0,1.0,0,-980.0,0
1227,1227,0.7244812928215852,0.7,1.0,1.0,426.0,812.0,0.0,0,1762.0,0
1228,1228,0.7181111965113688,0.7,1.0,1.0,370.0,807.0,0.0,0,-1047.0,0
1229,1229,0.4679347982356553,0.5,0.0,0.0,490.0,936.0,0.0,1,1574.0,1
1230,1230,0.2775608891436466,0.3,0.0,0.0,328.0,828.0,0.0,1,1844.0,1
1231,1231,-0.8688150166577148,-0.9,0.0,1.0,442.0,802.0,0.0,1,1756.0,0
1232,1232,-0.2882004469971646,-0.3,0.0,1.0,447.0,854.0,0.0,1,1699.0,0
1233,1233,0.5287250861818141,0.5,1.0,1.0,295.0,593.0,1.0,1,-778.0,1
1234,1234,0.39115602667161176,0.4,0.0,0.0,321.0,954.0,0.0,1,1725.0,1
1235,1235,-0.47683090465146866,-0.5,1.0,0.0,267.0,939.0,0.0,0,1794.0,1
1236,1236,0.42288750636995764,0.4,1.0,1.0,257.0,507.0,1.0,1,-634.0,1
1237,1237,0.5062149255964797,0.5,1.0,1.0,266.0,666.0,0.0,0,2068.0,0
1238,1238,-0.3095128382881882,-0.3,0.0,1.0,458.0,514.0,0.0,1,2028.0,0
1239,1239,-0.1767164574649288,-0.2,0.0,1.0,315.0,770.0,0.0,1,1915.0,0
1240,1240,0.5052946366830978,0.5,0.0,0.0,299.0,742.0,1.0,0,-941.0,0
1241,1241,-0.3623612617435129,-0.4,1.0,0.0,304.0,538.0,0.0,0,2158.0,1
1242,1242,0.07973571322292972,0.1,1.0,1.0,263.0,858.0,0.0,0,1879.0,0
1243,1243,-0.19379326847486988,-0.2,1.0,0.0,480.0,732.0,1.0,1,-1182.0,0
1244,1244,0.7682665337757416,0.8,1.0,1.0,387.0,661.0,0.0,0,1952.0,0
1245,1245,-0.8612894810838114,-0.9,1.0,0.0,299.0,825.0,0.0,0,1876.0,1
1246,1246,0.803041614603586,0.8,1.0,1.0,328.0,920.0,0.0,0,1752.0,0
1247,1247,0.04074298602772797,0.0,1.0,1.0,421.0,824.0,0.0,0,1755.0,0
1248,1248,0.7421812264766255,0.7,1.0,1.0,314.0,730.0,0.0,0,1956.0,0
1249,1249,-0.8501264800364818,-0.9,1.0,0.0,362.0,989.0,0.0,0,1649.0,1
1250,1250,-0.6784620296156568,-0.7,0.0,1.0,350.0,525.0,0.0,1,2125.0,0
1251,1251,-0.7008131745575731,-0.7,0.0,1.0,490.0,683.0,0.0,1,1827.0,0
1252,1252,0.08457650249984283,0.1,0.0,0.0,301.0,795.0,0.0,1,1904.0,1
1253,1253,-0.638086856088274,-0.6,1.0,0.0,281.0,913.0,0.0,0,1806.0,1
1254,1254,0.3389075104179239,0.3,0.0,0.0,441.0,870.0,0.0,1,1689.0,1
1255,1255,0.29942040502140255,0.3,0.0,0.0,369.0,917.0,0.0,1,1714.0,1
1256,1256,0.8913419399556245,0.9,0.0,0.0,474.0,649.0,0.0,1,1877.0,1
1257,1257,-0.027298664983078202,-0.0,0.0,1.0,465.0,730.0,0.0,1,1805.0,0
1258,1258,0.32232804498889445,0.3,1.0,1.0,423.0,705.0,0.0,0,1872.0,0
1259,1259,0.24176655222137933,0.2,1.0,1.0,345.0,724.0,0.0,0,1931.0,0
1260,1260,-0.7135938028523174,-0.7,1.0,0.0,301.0,867.0,0.0,0,1832.0,1
1261,1261,-0.04761826974795802,-0.0,0.0,1.0,449.0,821.0,0.0,1,1730.0,0
1262,1262,-0.5653891842410578,-0.6,1.0,0.0,322.0,843.0,0.0,0,1835.0,1
1263,1263,0.38173457076659034,0.4,0.0,0.0,257.0,642.0,0.0,1,2101.0,1
1264,1264,-0.009352443677215438,-0.0,0.0,1.0,391.0,560.0,1.0,0,-531.0,1
1265,1265,0.6431898926184668,0.6,0.0,0.0,340.0,720.0,0.0,1,1940.0,1
1266,1266,-0.44167133123394947,-0.4,0.0,1.0,317.0,736.0,0.0,1,1947.0,0
1267,1267,-0.14542907204383304,-0.1,1.0,0.0,449.0,630.0,0.0,0,1921.0,1
1268,1268,-0.8324124098262232,-0.8,0.0,1.0,429.0,500.0,0.0,1,2071.0,0
1269,1269,0.6695711095855558,0.7,1.0,1.0,393.0,796.0,0.0,0,1811.0,0
1270,1270,0.33097439999284595,0.3,0.0,0.0,338.0,624.0,0.0,1,2038.0,1
1271,1271,-0.07932063363764119,-0.1,1.0,0.0,340.0,950.0,0.0,0,1710.0,1
1272,1272,0.537184030679917,0.5,0.0,0.0,372.0,906.0,0.0,1,1722.0,1
1273,1273,-0.6931216255034717,-0.7,0.0,1.0,281.0,907.0,0.0,1,1812.0,0
1274,1274,0.05417119171221951,0.1,0.0,0.0,426.0,982.0,0.0,1,1592.0,1
1275,1275,0.7155749774183057,0.7,1.0,1.0,499.0,672.0,0.0,0,1829.0,0
1276,1276,0.7679006771915041,0.8,0.0,0.0,286.0,879.0,0.0,1,1835.0,1
1277,1277,0.23659999452784175,0.2,0.0,0.0,408.0,891.0,1.0,0,-1049.0,0
1278,1278,0.210395303130697,0.2,0.0,0.0,286.0,860.0,0.0,1,1854.0,1
1279,1279,-0.4761112733101821,-0.5,1.0,0.0,396.0,623.0,0.0,0,1981.0,1
1280,1280,0.35338999703889973,0.4,1.0,1.0,482.0,782.0,0.0,0,1736.0,0
1281,1281,-0.775913385604041,-0.8,0.0,1.0,325.0,920.0,1.0,0,-1175.0,1
1282,1282,-0.07814175908537546,-0.1,0.0,1.0,414.0,799.0,0.0,1,1787.0,0
1283,1283,0.37363032240293814,0.4,0.0,0.0,462.0,834.0,0.0,1,1704.0,1
1284,1284,0.30877658602524594,0.3,1.0,1.0,466.0,933.0,0.0,0,-1399.0,0
1285,1285,0.3710470042941324,0.4,1.0,1.0,416.0,717.0,0.0,0,1867.0,0
1286,1286,-0.8279555123005329,-0.8,0.0,1.0,458.0,675.0,1.0,0,-973.0,1
1287,1287,0.20515879543755655,0.2,1.0,1.0,447.0,909.0,0.0,0,1644.0,0
1288,1288,0.4292691085549786,0.4,1.0,1.0,277.0,566.0,0.0,0,2157.0,0
1289,1289,-0.16860084827401867,-0.2,0.0,1.0,372.0,752.0,0.0,1,1876.0,0
1290,1290,0.2988067334764898,0.3,1.0,1.0,434.0,610.0,0.0,0,1956.0,0
1291,1291,0.6330676331080173,0.6,0.0,0.0,254.0,552.0,0.0,1,2194.0,1
1292,1292,0.628948002898066,0.6,0.0,0.0,301.0,680.0,0.0,1,2019.0,1
1293,1293,0.7493175847203032,0.7,1.0,1.0,493.0,559.0,0.0,0,1948.0,0
1294,1294,-0.49943038295598724,-0.5,1.0,0.0,397.0,961.0,0.0,0,1642.0,1
1295,1295,-0.11760901987395056,-0.1,1.0,0.0,300.0,710.0,0.0,0,1990.0,1
1296,1296,0.18432263124065507,0.2,0.0,0.0,367.0,940.0,0.0,1,1693.0,1
1297,1297,0.7492889286094185,0.7,1.0,1.0,496.0,901.0,0.0,0,1603.0,0
1298,1298,-0.3645488294996483,-0.4,1.0,0.0,324.0,807.0,0.0,0,1869.0,1
1299,1299,-0.8946406717333059,-0.9,1.0,0.0,454.0,789.0,0.0,0,1757.0,1
1300,1300,0.2831917908394933,0.3,0.0,0.0,269.0,862.0,0.0,1,1869.0,1
1301,1301,0.2297427100624715,0.2,0.0,0.0,322.0,881.0,0.0,1,-1193.0,1
1302,1302,0.08415471176697076,0.1,1.0,1.0,493.0,673.0,0.0,0,1834.0,0
1303,1303,-0.5308782444176864,-0.5,1.0,0.0,470.0,918.0,0.0,0,1612.0,1
1304,1304,-0.8205369398259839,-0.8,1.0,0.0,485.0,916.0,0.0,0,1599.0,1
1305,1305,-0.5151424213550032,-0.5,0.0,1.0,267.0,593.0,0.0,1,2140.0,0
1306,1306,0.7197681315664907,0.7,0.0,0.0,407.0,790.0,0.0,1,1803.0,1
1307,1307,-0.18942383636938664,-0.2,0.0,1.0,288.0,521.0,0.0,1,-799.0,0
1308,1308,0.6254378308505629,0.6,0.0,0.0,250.0,512.0,0.0,1,2238.0,1
1309,1309,0.4788508426284185,0.5,0.0,0.0,264.0,601.0,0.0,1,2135.0,1
1310,1310,0.7517195270143694,0.8,1.0,1.0,439.0,581.0,0.0,0,1980.0,0
1311,1311,-0.7595315592192402,-0.8,0.0,1.0,252.0,640.0,0.0,1,2108.0,0
1312,1312,0.17600474899738472,0.2,0.0,0.0,339.0,839.0,0.0,1,1822.0,1
1313,1313,0.4023995111770481,0.4,1.0,1.0,351.0,869.0,0.0,0,1780.0,0
1314,1314,0.5469145555747515,0.5,1.0,1.0,368.0,616.0,0.0,0,-824.0,0
1315,1315,0.15626209018410286,0.2,1.0,1.0,457.0,644.0,0.0,0,1899.0,0
1316,1316,0.0908281242790655,0.1,1.0,1.0,488.0,758.0,0.0,0,1754.0,0
1317,1317,0.021530465692444767,0.0,0.0,0.0,265.0,852.0,0.0,1,1883.0,1
1318,1318,-0.20217103897394362,-0.2,0.0,1.0,330.0,851.0,0.0,1,1819.0,0
1319,1319,0.8799949600354368,0.9,1.0,1.0,313.0,628.0,0.0,0,2059.0,0
1320,1320,-0.8653029318454132,-0.9,1.0,0.0,446.0,989.0,0.0,0,1565.0,1
1321,1321,-0.267123596404217,-0.3,1.0,0.0,309.0,680.0,0.0,0,2011.0,1
1322,1322,0.6779264525401326,0.7,0.0,0.0,341.0,603.0,0.0,1,2056.0,1
1323,1323,0.42635597112386836,0.4,0.0,0.0,413.0,584.0,0.0,1,2003.0,1
1324,1324,0.40818169670626936,0.4,0.0,0.0,377.0,824.0,0.0,1,1799.0,1
1325,1325,-0.39157929402925207,-0.4,1.0,0.0,461.0,553.0,0.0,0,1986.0,1
1326,1326,-0.8039686043253274,-0.8,1.0,0.0,251.0,606.0,0.0,0,2143.0,1
1327,1327,-0.4266320054402952,-0.4,0.0,1.0,398.0,644.0,0.0,1,1958.0,0
1328,1328,-0.6062374228041716,-0.6,0.0,1.0,265.0,560.0,0.0,1,2175.0,0
1329,1329,-0.05803470733580407,-0.1,1.0,0.0,266.0,714.0,0.0,0,2020.0,1
1330,1330,0.5543884620190599,0.6,0.0,0.0,490.0,831.0,0.0,1,1679.0,1
1331,1331,0.36198775588043086,0.4,0.0,0.0,307.0,704.0,0.0,1,1989.0,1
1332,1332,-0.3519961191686526,-0.4,1.0,0.0,477.0,748.0,0.0,0,1775.0,1
1333,1333,0.8772268499605803,0.9,0.0,0.0,275.0,795.0,0.0,1,1930.0,1
1334,1334,-0.48342187600387715,-0.5,1.0,0.0,442.0,577.0,0.0,0,1981.0,1
1335,1335,-0.08697724183551503,-0.1,0.0,1.0,438.0,921.0,0.0,1,1641.0,0
1336,1336,-0.6322189048776565,-0.6,1.0,0.0,279.0,995.0,0.0,0,1726.0,1
1337,1337,-0.6519280977900053,-0.7,1.0,0.0,415.0,632.0,0.0,0,1953.0,1
1338,1338,-0.4619131262713187,-0.5,1.0,0.0,300.0,536.0,1.0,1,-766.0,0
1339,1339,0.3244079115164381,0.3,1.0,1.0,437.0,737.0,0.0,0,1826.0,0
1340,1340,-0.8160146566990465,-0.8,0.0,1.0,449.0,890.0,0.0,1,1661.0,0
1341,1341,0.798903653095674,0.8,1.0,1.0,345.0,989.0,0.0,0,1666.0,0
1342,1342,-0.1571645599084348,-0.2,0.0,1.0,493.0,592.0,0.0,1,1915.0,0
1343,1343,-0.19181188275461336,-0.2,0.0,1.0,282.0,721.0,0.0,1,1997.0,0
1344,1344,-0.22414945308973833,-0.2,1.0,0.0,382.0,638.0,1.0,1,-630.0,0
1345,1345,-0.061258438910833934,-0.1,0.0,1.0,259.0,581.0,0.0,1,2160.0,0
1346,1346,0.7076806311210958,0.7,0.0,0.0,412.0,886.0,0.0,1,1702.0,1
1347,1347,0.5193659704743597,0.5,0.0,0.0,487.0,810.0,0.0,1,1703.0,1
1348,1348,-0.7261478321048536,-0.7,0.0,1.0,346.0,894.0,0.0,1,1760.0,0
1349,1349,0.7542625356640419,0.8,1.0,1.0,444.0,751.0,1.0,1,-1175.0,1
1350,1350,-0.5262331323532115,-0.5,1.0,0.0,476.0,900.0,0.0,0,1624.0,1
1351,1351,-0.4033393997840659,-0.4,1.0,0.0,438.0,921.0,0.0,0,1641.0,1
1352,1352,-0.5506536024056001,-0.6,1.0,0.0,431.0,502.0,0.0,0,2067.0,1
1353,1353,-0.0018189677276603256,-0.0,1.0,0.0,410.0,891.0,0.0,0,1699.0,1
1354,1354,-0.12325072651947622,-0.1,0.0,1.0,331.0,762.0,0.0,1,1907.0,0
1355,1355,0.7343182856761418,0.7,0.0,0.0,351.0,603.0,0.0,1,2046.0,1
1356,1356,0.854233404873474,0.9,0.0,0.0,351.0,640.0,0.0,1,2009.0,1
1357,1357,-0.43874165344918536,-0.4,0.0,1.0,342.0,666.0,1.0,0,-928.0,1
1358,1358,-0.5052647980340098,-0.5,0.0,1.0,487.0,852.0,0.0,1,1661.0,0
1359,1359,-0.5514886295566073,-0.6,0.0,1.0,369.0,868.0,0.0,1,1763.0,0
1360,1360,0.6712500267454774,0.7,0.0,0.0,320.0,877.0,0.0,1,1803.0,1
1361,1361,0.5827181328374559,0.6,0.0,0.0,264.0,730.0,1.0,0,-814.0,0
1362,1362,0.5343802076105725,0.5,0.0,0.0,382.0,597.0,0.0,1,2021.0,1
1363,1363,0.6438250883028239,0.6,1.0,1.0,291.0,801.0,0.0,0,1908.0,0
1364,1364,-0.4324437512388862,-0.4,1.0,0.0,303.0,925.0,1.0,1,-1098.0,0
1365,1365,0.7971759817796326,0.8,0.0,0.0,278.0,560.0,1.0,0,-768.0,0
1366,1366,0.5509532508655736,0.6,1.0,1.0,317.0,950.0,0.0,0,1733.0,0
1367,1367,-0.6411266956631544,-0.6,1.0,0.0,257.0,681.0,0.0,0,2062.0,1
1368,1368,-0.056016789541645684,-0.1,1.0,0.0,444.0,741.0,0.0,0,1815.0,1
1369,1369,-0.8189707012355252,-0.8,1.0,0.0,373.0,901.0,0.0,0,1726.0,1
1370,1370,-0.3370927332849185,-0.3,0.0,1.0,422.0,682.0,0.0,1,1896.0,0
1371,1371,0.5041471621535697,0.5,1.0,1.0,396.0,899.0,0.0,0,1705.0,0
1372,1372,0.28861177733262877,0.3,0.0,0.0,444.0,660.0,0.0,1,1896.0,1
1373,1373,0.5845311738715365,0.6,0.0,0.0,357.0,773.0,0.0,1,1870.0,1
1374,1374,0.2614846498288138,0.3,0.0,0.0,358.0,935.0,0.0,1,1707.0,1
1375,1375,0.36751697791553706,0.4,1.0,1.0,293.0,899.0,0.0,0,1808.0,0
1376,1376,0.0867430603002809,0.1,1.0,1.0,328.0,679.0,0.0,0,1993.0,0
1377,1377,-0.0641130076415466,-0.1,0.0,1.0,371.0,823.0,0.0,1,1806.0,0
1378,1378,-0.6758453743053509,-0.7,1.0,0.0,291.0,697.0,0.0,0,2012.0,1
1379,1379,-0.42802776523342456,-0.4,1.0,0.0,272.0,667.0,0.0,0,2061.0,1
1380,1380,-0.328396650823487,-0.3,0.0,1.0,376.0,545.0,0.0,1,2079.0,0
1381,1381,-0.06564434068504221,-0.1,1.0,0.0,299.0,716.0,1.0,1,-825.0,0
1382,1382,0.6368960630569772,0.6,0.0,0.0,469.0,848.0,0.0,1,1683.0,1
1383,1383,-0.6587083905114506,-0.7,1.0,0.0,345.0,870.0,0.0,0,1785.0,1
1384,1384,0.15320905113391114,0.2,0.0,0.0,302.0,609.0,1.0,0,-701.0,0
1385,1385,0.5582511942789664,0.6,1.0,1.0,348.0,874.0,0.0,0,1778.0,0
1386,1386,0.7238037986090932,0.7,1.0,1.0,450.0,954.0,0.0,0,1596.0,0
1387,1387,-0.2957101614702705,-0.3,1.0,0.0,388.0,577.0,0.0,0,-935.0,1
1388,1388,-0.5759916989371467,-0.6,0.0,1.0,294.0,726.0,0.0,1,1980.0,0
1389,1389,0.6943453235561122,0.7,0.0,0.0,266.0,817.0,0.0,1,1917.0,1
1390,1390,-0.6118165599706353,-0.6,1.0,0.0,402.0,612.0,0.0,0,1986.0,1
1391,1391,0.18580270014834344,0.2,1.0,1.0,494.0,727.0,0.0,0,1779.0,0
1392,1392,-0.8996531131514895,-0.9,0.0,1.0,452.0,929.0,0.0,1,1619.0,0
1393,1393,-0.5341156397002005,-0.5,1.0,0.0,306.0,874.0,0.0,0,1820.0,1
1394,1394,-0.7401447334262371,-0.7,1.0,0.0,421.0,713.0,0.0,0,1866.0,1
1395,1395,0.8757065229967568,0.9,0.0,0.0,388.0,803.0,0.0,1,1809.0,1
1396,1396,-0.10096102039082655,-0.1,0.0,1.0,445.0,945.0,0.0,1,1610.0,0
1397,1397,0.18949613801653775,0.2,0.0,0.0,454.0,680.0,0.0,1,-1104.0,1
1398,1398,0.38502778298414964,0.4,1.0,1.0,461.0,779.0,0.0,0,1760.0,0
1399,1399,-0.22061522162359948,-0.2,0.0,1.0,258.0,887.0,0.0,1,1855.0,0
1400,1400,0.47549403346099106,0.5,1.0,1.0,367.0,962.0,0.0,0,-1289.0,0
1401,1401,0.8005793473355368,0.8,0.0,0.0,355.0,982.0,0.0,1,1663.0,1
1402,1402,-0.37244404553374666,-0.4,1.0,0.0,484.0,543.0,1.0,1,-937.0,0
1403,1403,-0.6929769972401235,-0.7,1.0,0.0,407.0,881.0,1.0,1,-1278.0,0
1404,1404,0.12495653722384559,0.1,0.0,0.0,250.0,536.0,0.0,1,2214.0,1
1405,1405,-0.29541963227086776,-0.3,1.0,0.0,384.0,916.0,0.0,0,1700.0,1
1406,1406,-0.6181963984590964,-0.6,1.0,0.0,250.0,939.0,0.0,0,1811.0,1
1407,1407,0.8948707078390211,0.9,1.0,1.0,485.0,800.0,0.0,0,1715.0,0
1408,1408,-0.5320276683855905,-0.5,1.0,0.0,276.0,681.0,0.0,0,2043.0,1
1409,1409,-0.13335366777903823,-0.1,1.0,0.0,388.0,966.0,1.0,1,-1094.0,0
1410,1410,-0.1631001101365348,-0.2,1.0,0.0,275.0,621.0,0.0,0,2104.0,1
1411,1411,0.5107321975083327,0.5,1.0,1.0,383.0,579.0,0.0,0,2038.0,0
1412,1412,0.8755748920480978,0.9,0.0,0.0,478.0,763.0,0.0,1,1759.0,1
1413,1413,-0.5755423146955996,-0.6,1.0,0.0,460.0,767.0,0.0,0,1773.0,1
1414,1414,0.551139813286455,0.6,1.0,1.0,438.0,570.0,0.0,0,1992.0,0
1415,1415,0.8395979970219846,0.8,0.0,0.0,440.0,721.0,0.0,1,1839.0,1
1416,1416,0.36953775917160525,0.4,0.0,0.0,322.0,818.0,0.0,1,1860.0,1
1417,1417,0.0018011497732042248,0.0,1.0,1.0,327.0,718.0,0.0,0,1955.0,0
1418,1418,0.3091291744388055,0.3,1.0,1.0,324.0,825.0,1.0,1,-1149.0,1
1419,1419,0.4840114757925641,0.5,0.0,0.0,372.0,977.0,0.0,1,1651.0,1
1420,1420,-0.3526233804133374,-0.4,0.0,1.0,271.0,848.0,0.0,1,1881.0,0
1421,1421,0.8907434773146282,0.9,0.0,0.0,314.0,722.0,0.0,1,1964.0,1
1422,1422,-0.3457855138455358,-0.3,0.0,1.0,457.0,682.0,0.0,1,1861.0,0
1423,1423,0.2466225867969868,0.2,1.0,1.0,314.0,919.0,0.0,0,1767.0,0
1424,1424,0.6471577960388634,0.6,1.0,1.0,263.0,616.0,0.0,0,2121.0,0
1425,1425,-0.07182843983339149,-0.1,1.0,0.0,312.0,599.0,0.0,0,2089.0,1
1426,1426,0.29473154274950175,0.3,1.0,1.0,287.0,638.0,0.0,0,2075.0,0
1427,1427,-0.6854113712915066,-0.7,0.0,1.0,378.0,905.0,0.0,1,1717.0,0
1428,1428,-0.7451438320203407,-0.7,1.0,0.0,483.0,937.0,0.0,0,1580.0,1
1429,1429,-0.03050494720928698,-0.0,1.0,0.0,423.0,840.0,0.0,0,1737.0,1
1430,1430,0.37280716317987805,0.4,1.0,1.0,284.0,989.0,0.0,0,1727.0,0
1431,1431,-0.7430469471614343,-0.7,0.0,1.0,346.0,527.0,0.0,1,2127.0,0
1432,1432,-0.07129938304987471,-0.1,1.0,0.0,353.0,579.0,0.0,0,2068.0,1
1433,1433,-0.6221548989625156,-0.6,1.0,0.0,397.0,586.0,0.0,0,2017.0,1
1434,1434,0.7271671483423819,0.7,0.0,0.0,287.0,785.0,1.0,0,-892.0,0
1435,1435,0.18921556279657692,0.2,1.0,1.0,482.0,569.0,0.0,0,1949.0,0
1436,1436,-0.3462976830093599,-0.3,0.0,1.0,441.0,746.0,0.0,1,1813.0,0
1437,1437,-0.8811244603321287,-0.9,0.0,1.0,310.0,521.0,1.0,0,-741.0,1
1438,1438,-0.6828642893501824,-0.7,0.0,1.0,434.0,692.0,0.0,1,1874.0,0
1439,1439,0.23746185911954532,0.2,1.0,1.0,427.0,651.0,0.0,0,1922.0,0
1440,1440,-0.38244889507803137,-0.4,1.0,0.0,484.0,966.0,0.0,0,1550.0,1
1441,1441,0.5383716688299088,0.5,0.0,0.0,322.0,886.0,1.0,0,-1088.0,0
1442,1442,-0.2006197123864748,-0.2,0.0,1.0,425.0,943.0,0.0,1,-1328.0,0
1443,1443,0.38485283932237746,0.4,0.0,0.0,354.0,792.0,0.0,1,1854.0,1
1444,1444,0.07847821175507519,0.1,0.0,0.0,364.0,900.0,0.0,1,1736.0,1
1445,1445,0.8140034136371289,0.8,1.0,1.0,467.0,813.0,0.0,0,1720.0,0
1446,1446,-0.04106908410975041,-0.0,1.0,0.0,350.0,886.0,0.0,0,1764.0,1
1447,1447,-0.1859280496877621,-0.2,0.0,1.0,338.0,848.0,0.0,1,1814.0,0
1448,1448,0.20448183043279433,0.2,1.0,1.0,276.0,673.0,0.0,0,2051.0,0
1449,1449,0.0867087717951095,0.1,1.0,1.0,343.0,577.0,0.0,0,2080.0,0
1450,1450,0.08356922332131234,0.1,0.0,0.0,392.0,645.0,0.0,1,1963.0,1
1451,1451,0.6530278639608961,0.7,1.0,1.0,263.0,545.0,0.0,0,2192.0,0
1452,1452,0.6016819463982762,0.6,0.0,0.0,308.0,894.0,0.0,1,1798.0,1
1453,1453,0.7407234600560223,0.7,1.0,1.0,498.0,769.0,0.0,0,1733.0,0
1454,1454,-0.2649568470978978,-0.3,1.0,0.0,498.0,617.0,0.0,0,1885.0,1
1455,1455,-0.8996468418007114,-0.9,0.0,1.0,347.0,987.0,0.0,1,1666.0,0
1456,1456,-0.1763282852826672,-0.2,1.0,0.0,440.0,625.0,0.0,0,1935.0,1
1457,1457,0.09590163148881636,0.1,1.0,1.0,337.0,725.0,0.0,0,1938.0,0
1458,1458,0.015889839762601388,0.0,1.0,1.0,255.0,721.0,0.0,0,2024.0,0
1459,1459,0.033139130244951076,0.0,0.0,0.0,298.0,521.0,0.0,1,2181.0,1
1460,1460,-0.4764740217240416,-0.5,1.0,0.0,375.0,968.0,0.0,0,1657.0,1
1461,1461,0.3828872320073894,0.4,0.0,0.0,269.0,801.0,0.0,1,1930.0,1
1462,1462,-0.039154645865664084,-0.0,1.0,0.0,481.0,811.0,0.0,0,1708.0,1
1463,1463,0.522336244864272,0.5,0.0,0.0,496.0,989.0,0.0,1,1515.0,1
1464,1464,0.5448267131595065,0.5,1.0,1.0,386.0,619.0,0.0,0,-985.0,0
1465,1465,0.5227787628660355,0.5,1.0,1.0,369.0,688.0,0.0,0,-1037.0,0
1466,1466,0.6124839079007468,0.6,0.0,0.0,445.0,899.0,0.0,1,1656.0,1
1467,1467,0.3513581514891627,0.4,0.0,0.0,362.0,840.0,0.0,1,1798.0,1
1468,1468,0.2573601107967193,0.3,0.0,0.0,473.0,836.0,0.0,1,1691.0,1
1469,1469,0.4610304858027504,0.5,1.0,1.0,439.0,986.0,0.0,0,1575.0,0
1470,1470,0.4245711916439855,0.4,1.0,1.0,402.0,568.0,0.0,0,2030.0,0
