,trial,coherence,coherence_bin,green_side,correct_side,target_onset,checker_onset,decision,green_decision,decision_time,correct_decision
0,0,0.1326034665808965,0.1,0.0,0.0,460.0,926.0,0.0,1,1224.0,1
1,1,-0.6685807605810055,-0.7,0.0,1.0,290.0,876.0,1.0,0,234.0,1
2,2,0.260442955737355,0.3,1.0,1.0,316.0,586.0,1.0,1,698.0,1
3,3,-0.4163687164510012,-0.4,0.0,1.0,375.0,894.0,1.0,0,841.0,1
4,4,-0.4108680787678853,-0.4,1.0,0.0,384.0,552.0,0.0,0,454.0,1
5,5,0.38699981378363424,0.4,0.0,0.0,406.0,951.0,0.0,1,103.0,1
6,6,0.5175613424811812,0.5,0.0,0.0,422.0,946.0,0.0,1,192.0,1
7,7,-0.8231344328576152,-0.8,1.0,0.0,430.0,526.0,0.0,0,184.0,1
8,8,-0.22695676309341706,-0.2,0.0,1.0,301.0,620.0,1.0,0,389.0,1
9,9,-0.6345072322609535,-0.6,1.0,0.0,271.0,887.0,0.0,0,182.0,1
10,10,0.16187583296198615,0.2,1.0,1.0,306.0,768.0,1.0,1,1226.0,1
11,11,-0.1928201058304161,-0.2,1.0,0.0,329.0,728.0,0.0,0,183.0,1
12,12,0.3848722014092002,0.4,0.0,0.0,304.0,540.0,0.0,1,196.0,1
13,13,-0.6769457218607973,-0.7,1.0,0.0,335.0,973.0,0.0,0,102.0,1
14,14,-0.15973663399086147,-0.2,0.0,1.0,409.0,678.0,1.0,0,523.0,1
15,15,0.2512843482083883,0.3,1.0,1.0,289.0,565.0,1.0,1,636.0,1
16,16,-0.7087312199544349,-0.7,1.0,0.0,495.0,937.0,0.0,0,138.0,1
17,17,0.11502137825903669,0.1,0.0,0.0,303.0,698.0,0.0,1,509.0,1
18,18,0.5616567128658568,0.6,0.0,0.0,310.0,649.0,0.0,1,251.0,1
19,19,0.33103533168338173,0.3,1.0,1.0,349.0,945.0,1.0,1,116.0,1
20,20,-0.8399104877116446,-0.8,1.0,0.0,415.0,933.0,0.0,0,102.0,1
21,21,-0.14841767802751338,-0.1,0.0,1.0,281.0,584.0,1.0,0,585.0,1
22,22,0.3800519938767649,0.4,0.0,0.0,380.0,792.0,0.0,1,178.0,1
23,23,-0.5116985492290351,-0.5,1.0,0.0,277.0,767.0,0.0,0,406.0,1
24,24,-0.6707587818879868,-0.7,1.0,0.0,410.0,920.0,0.0,0,210.0,1
25,25,0.1844736121415912,0.2,1.0,1.0,485.0,776.0,1.0,1,299.0,1
26,26,-0.7033874103149104,-0.7,1.0,0.0,307.0,709.0,0.0,0,214.0,1
27,27,-0.3467611160695475,-0.3,0.0,1.0,412.0,693.0,1.0,0,165.0,1
28,28,0.7614978655947998,0.8,0.0,0.0,402.0,707.0,0.0,1,161.0,1
29,29,-0.3855752461953911,-0.4,0.0,1.0,264.0,549.0,1.0,0,197.0,1
30,30,0.5644521839008333,0.6,0.0,0.0,497.0,750.0,0.0,1,183.0,1
31,31,0.29545878070114673,0.3,0.0,0.0,316.0,568.0,0.0,1,416.0,1
32,32,0.5092454290460876,0.5,1.0,1.0,403.0,908.0,1.0,1,169.0,1
33,33,-0.29789238481281954,-0.3,1.0,0.0,264.0,947.0,0.0,0,489.0,1
34,34,0.44366594641567947,0.4,0.0,0.0,324.0,993.0,0.0,1,193.0,1
35,35,-0.23210581746372405,-0.2,0.0,1.0,379.0,644.0,1.0,0,367.0,1
36,36,0.8026793586861626,0.8,1.0,1.0,301.0,977.0,1.0,1,172.0,1
37,37,0.04753434816341673,0.0,1.0,1.0,468.0,585.0,1.0,1,1577.0,1
38,38,0.6667216413625966,0.7,0.0,0.0,256.0,507.0,0.0,1,227.0,1
39,39,-0.4698298375906147,-0.5,0.0,1.0,307.0,970.0,1.0,0,203.0,1
40,40,-0.8726864968005554,-0.9,0.0,1.0,309.0,997.0,1.0,0,84.0,1
41,41,0.008781094262089062,0.0,0.0,0.0,335.0,842.0,0.0,1,1823.0,1
42,42,0.5793180945256439,0.6,1.0,1.0,482.0,529.0,1.0,1,229.0,1
43,43,-0.42104680105609343,-0.4,1.0,0.0,304.0,794.0,0.0,0,122.0,1
44,44,0.0025302974765825104,0.0,0.0,0.0,404.0,897.0,1.0,0,209.0,0
45,45,-0.8139880137877115,-0.8,1.0,0.0,406.0,880.0,0.0,0,164.0,1
46,46,-0.5229623786747339,-0.5,0.0,1.0,355.0,834.0,1.0,0,21.0,1
47,47,0.6636343779944552,0.7,0.0,0.0,450.0,556.0,0.0,1,274.0,1
48,48,-0.2638273232487257,-0.3,1.0,0.0,316.0,660.0,0.0,0,414.0,1
49,49,0.4178275458283004,0.4,0.0,0.0,458.0,569.0,0.0,1,243.0,1
50,50,-0.48933549682703104,-0.5,1.0,0.0,251.0,917.0,0.0,0,92.0,1
51,51,-0.4369037819897343,-0.4,0.0,1.0,272.0,930.0,1.0,0,78.0,1
52,52,0.7548746164468979,0.8,0.0,0.0,250.0,990.0,0.0,1,110.0,1
53,53,-0.3805265394983225,-0.4,0.0,1.0,394.0,731.0,1.0,0,125.0,1
54,54,-0.2746194734888313,-0.3,0.0,1.0,419.0,838.0,1.0,0,513.0,1
55,55,0.10928372695676447,0.1,1.0,1.0,260.0,977.0,1.0,1,693.0,1
56,56,-0.06855845404104288,-0.1,1.0,0.0,385.0,740.0,0.0,0,595.0,1
57,57,0.16458864299213138,0.2,0.0,0.0,458.0,847.0,0.0,1,565.0,1
58,58,-0.7840103819644102,-0.8,1.0,0.0,457.0,896.0,0.0,0,107.0,1
59,59,0.827169261982183,0.8,1.0,1.0,387.0,742.0,1.0,1,231.0,1
60,60,0.17182050521867753,0.2,1.0,1.0,455.0,530.0,1.0,1,485.0,1
61,61,-0.4059526184318815,-0.4,1.0,0.0,280.0,934.0,0.0,0,316.0,1
62,62,0.8499050288798412,0.8,0.0,0.0,338.0,507.0,0.0,1,215.0,1
63,63,0.6873558805847942,0.7,1.0,1.0,364.0,581.0,1.0,1,225.0,1
64,64,-0.06401258897150364,-0.1,0.0,1.0,451.0,629.0,1.0,0,620.0,1
65,65,0.2937460841950098,0.3,1.0,1.0,310.0,612.0,1.0,1,348.0,1
66,66,0.7982540479910768,0.8,0.0,0.0,264.0,779.0,0.0,1,97.0,1
67,67,0.37456122353830057,0.4,1.0,1.0,449.0,755.0,1.0,1,286.0,1
68,68,0.35746369443006165,0.4,0.0,0.0,490.0,560.0,0.0,1,320.0,1
69,69,-0.4485631064799005,-0.4,1.0,0.0,372.0,758.0,1.0,1,-450.0,0
70,70,-0.030267634552989642,-0.0,1.0,0.0,432.0,705.0,0.0,0,533.0,1
71,71,-0.8605146794644946,-0.9,1.0,0.0,468.0,541.0,0.0,0,101.0,1
72,72,-0.35360227257089427,-0.4,0.0,1.0,378.0,633.0,1.0,0,259.0,1
73,73,0.7800762257269439,0.8,1.0,1.0,316.0,757.0,1.0,1,107.0,1
74,74,0.2723319494763238,0.3,1.0,1.0,378.0,516.0,1.0,1,296.0,1
75,75,-0.20724729112004592,-0.2,1.0,0.0,288.0,698.0,0.0,0,444.0,1
76,76,0.28845638126373985,0.3,1.0,1.0,283.0,904.0,1.0,1,323.0,1
77,77,-0.6181850624746215,-0.6,1.0,0.0,414.0,871.0,0.0,0,145.0,1
78,78,-0.07046322604131383,-0.1,1.0,0.0,387.0,873.0,1.0,1,100.0,0
79,79,-0.2280561465335018,-0.2,1.0,0.0,401.0,632.0,0.0,0,227.0,1
80,80,-0.8239605355643198,-0.8,1.0,0.0,379.0,759.0,0.0,0,152.0,1
81,81,-0.10739058185450889,-0.1,1.0,0.0,275.0,724.0,0.0,0,471.0,1
82,82,-0.7521326850229451,-0.8,0.0,1.0,397.0,952.0,1.0,0,51.0,1
83,83,-0.3785019467682854,-0.4,1.0,0.0,287.0,843.0,0.0,0,120.0,1
84,84,0.5214929907091216,0.5,1.0,1.0,377.0,612.0,1.0,1,291.0,1
85,85,0.567774686845984,0.6,0.0,0.0,271.0,671.0,0.0,1,148.0,1
86,86,0.4440028791722038,0.4,0.0,0.0,253.0,503.0,0.0,1,294.0,1
87,87,0.5974545965463233,0.6,1.0,1.0,399.0,936.0,1.0,1,155.0,1
88,88,0.845666921872957,0.8,1.0,1.0,358.0,580.0,1.0,1,192.0,1
89,89,-0.8079897867046496,-0.8,0.0,1.0,308.0,534.0,1.0,0,188.0,1
90,90,-0.6241533591349077,-0.6,0.0,1.0,436.0,545.0,1.0,0,249.0,1
91,91,0.44007882081922045,0.4,1.0,1.0,478.0,838.0,1.0,1,304.0,1
92,92,-0.5656647661704323,-0.6,0.0,1.0,434.0,716.0,1.0,0,260.0,1
93,93,0.15685525183634164,0.2,1.0,1.0,339.0,688.0,1.0,1,343.0,1
94,94,0.6068186941798587,0.6,1.0,1.0,253.0,663.0,1.0,1,134.0,1
95,95,0.8406211732413301,0.8,0.0,0.0,257.0,963.0,0.0,1,120.0,1
96,96,0.820041152266405,0.8,0.0,0.0,381.0,791.0,0.0,1,158.0,1
97,97,-0.8792152092498726,-0.9,0.0,1.0,278.0,659.0,1.0,0,193.0,1
98,98,0.7572557511974572,0.8,0.0,0.0,490.0,907.0,0.0,1,133.0,1
99,99,0.7191638454852026,0.7,0.0,0.0,333.0,568.0,0.0,1,269.0,1
100,100,-0.6049240733852337,-0.6,1.0,0.0,474.0,697.0,0.0,0,429.0,1
101,101,0.19936625763694293,0.2,1.0,1.0,467.0,666.0,1.0,1,417.0,1
102,102,-0.8601115837881009,-0.9,1.0,0.0,431.0,769.0,0.0,0,180.0,1
103,103,0.7840308718769805,0.8,0.0,0.0,461.0,553.0,0.0,1,166.0,1
104,104,-0.6051465036630741,-0.6,1.0,0.0,442.0,951.0,0.0,0,317.0,1
105,105,0.030245546009795454,0.0,0.0,0.0,346.0,585.0,0.0,1,2069.0,1
106,106,0.24810905456616827,0.2,1.0,1.0,264.0,552.0,1.0,1,474.0,1
107,107,0.4752769737761805,0.5,1.0,1.0,358.0,755.0,1.0,1,127.0,1
108,108,0.32857920306472066,0.3,0.0,0.0,368.0,698.0,0.0,1,234.0,1
109,109,-0.658345118667149,-0.7,1.0,0.0,480.0,727.0,0.0,0,183.0,1
110,110,-0.5892630839474282,-0.6,0.0,1.0,327.0,518.0,1.0,0,235.0,1
111,111,0.5380131050770421,0.5,1.0,1.0,497.0,797.0,1.0,1,126.0,1
112,112,-0.20004465238490443,-0.2,0.0,1.0,481.0,762.0,1.0,0,357.0,1
113,113,-0.12787892587939376,-0.1,0.0,1.0,416.0,816.0,1.0,0,168.0,1
114,114,0.4864738172715385,0.5,1.0,1.0,409.0,741.0,1.0,1,180.0,1
115,115,0.3057326609968788,0.3,1.0,1.0,383.0,993.0,1.0,1,234.0,1
116,116,-0.6958258217419121,-0.7,0.0,1.0,445.0,800.0,1.0,0,105.0,1
117,117,0.3666019489800699,0.4,1.0,1.0,280.0,692.0,1.0,1,178.0,1
118,118,0.08065713976383293,0.1,0.0,0.0,364.0,810.0,0.0,1,1026.0,1
119,119,0.1127766473123396,0.1,0.0,0.0,385.0,866.0,0.0,1,249.0,1
120,120,0.14110153693783334,0.1,0.0,0.0,320.0,799.0,0.0,1,341.0,1
121,121,0.3809583205361219,0.4,0.0,0.0,302.0,616.0,0.0,1,192.0,1
122,122,-0.8198482079722871,-0.8,1.0,0.0,415.0,665.0,0.0,0,410.0,1
123,123,-0.7367354790516502,-0.7,0.0,1.0,406.0,609.0,1.0,0,135.0,1
124,124,0.3312248000212755,0.3,1.0,1.0,430.0,673.0,1.0,1,477.0,1
125,125,-0.6027624364428992,-0.6,0.0,1.0,266.0,670.0,1.0,0,214.0,1
126,126,0.49567668872681214,0.5,1.0,1.0,387.0,582.0,1.0,1,231.0,1
127,127,0.6648329402172756,0.7,1.0,1.0,314.0,994.0,1.0,1,322.0,1
128,128,-0.09147035170585516,-0.1,1.0,0.0,283.0,589.0,0.0,0,438.0,1
129,129,0.6689392473398307,0.7,1.0,1.0,261.0,989.0,1.0,1,150.0,1
130,130,0.8591616940521359,0.9,1.0,1.0,488.0,560.0,1.0,1,172.0,1
131,131,0.5596010679770741,0.6,0.0,0.0,299.0,945.0,0.0,1,356.0,1
132,132,-0.2577558908375899,-0.3,0.0,1.0,395.0,642.0,1.0,0,213.0,1
133,133,0.276987981470061,0.3,0.0,0.0,297.0,710.0,0.0,1,443.0,1
134,134,-0.4506777497435935,-0.5,0.0,1.0,462.0,643.0,1.0,0,185.0,1
135,135,-0.44083713392870905,-0.4,0.0,1.0,471.0,665.0,1.0,0,164.0,1
136,136,-0.39924572757465515,-0.4,1.0,0.0,436.0,540.0,0.0,0,264.0,1
137,137,0.06535134889935768,0.1,1.0,1.0,251.0,725.0,1.0,1,1224.0,1
138,138,0.5806609910059043,0.6,0.0,0.0,365.0,791.0,0.0,1,184.0,1
139,139,0.012368019817343479,0.0,1.0,1.0,297.0,708.0,0.0,0,1725.0,0
140,140,-0.860591133735926,-0.9,1.0,0.0,269.0,990.0,0.0,0,-59.0,1
141,141,0.06656756128942654,0.1,0.0,0.0,280.0,509.0,0.0,1,821.0,1
142,142,0.09003915573099819,0.1,0.0,0.0,372.0,764.0,0.0,1,1104.0,1
143,143,0.48645012286917033,0.5,0.0,0.0,479.0,659.0,0.0,1,222.0,1
144,144,0.643901698618306,0.6,1.0,1.0,357.0,842.0,1.0,1,251.0,1
145,145,0.7803235533708294,0.8,0.0,0.0,441.0,959.0,0.0,1,100.0,1
146,146,0.6993582248834856,0.7,0.0,0.0,319.0,728.0,0.0,1,83.0,1
147,147,0.8819287687768137,0.9,0.0,0.0,319.0,794.0,0.0,1,127.0,1
148,148,0.4036617340667482,0.4,0.0,0.0,354.0,715.0,0.0,1,261.0,1
149,149,0.8422469477501421,0.8,1.0,1.0,434.0,913.0,1.0,1,203.0,1
150,150,0.4189620112017308,0.4,0.0,0.0,314.0,930.0,0.0,1,116.0,1
151,151,-0.6347387102141269,-0.6,0.0,1.0,322.0,822.0,1.0,0,36.0,1
152,152,-0.5416042084956176,-0.5,1.0,0.0,303.0,993.0,0.0,0,124.0,1
153,153,-0.824997095239756,-0.8,1.0,0.0,434.0,730.0,0.0,0,236.0,1
154,154,0.5873301615810717,0.6,0.0,0.0,313.0,966.0,0.0,1,141.0,1
155,155,0.3058259984356678,0.3,0.0,0.0,468.0,916.0,0.0,1,246.0,1
156,156,0.0919604242975528,0.1,1.0,1.0,487.0,528.0,1.0,1,1145.0,1
157,157,-0.8106415065302702,-0.8,0.0,1.0,482.0,526.0,1.0,0,202.0,1
158,158,0.539521883148041,0.5,1.0,1.0,392.0,523.0,1.0,1,245.0,1
159,159,0.2434512919900892,0.2,0.0,0.0,259.0,989.0,0.0,1,422.0,1
160,160,-0.0982760049005511,-0.1,0.0,1.0,297.0,580.0,1.0,0,723.0,1
161,161,-0.17221213633641885,-0.2,1.0,0.0,293.0,794.0,0.0,0,263.0,1
162,162,-0.6129481375824053,-0.6,1.0,0.0,434.0,737.0,0.0,0,149.0,1
163,163,0.3991750722175432,0.4,0.0,0.0,258.0,812.0,0.0,1,240.0,1
164,164,-0.30988936007677814,-0.3,0.0,1.0,267.0,960.0,1.0,0,143.0,1
165,165,0.3635542793525711,0.4,1.0,1.0,294.0,677.0,1.0,1,359.0,1
166,166,0.741575162656576,0.7,0.0,0.0,363.0,858.0,0.0,1,149.0,1
167,167,-0.055019689776646286,-0.1,1.0,0.0,464.0,969.0,1.0,1,1567.0,0
168,168,-0.15903968744281816,-0.2,1.0,0.0,326.0,932.0,0.0,0,432.0,1
169,169,-0.5007752991434946,-0.5,1.0,0.0,446.0,723.0,0.0,0,331.0,1
170,170,0.6378005449830174,0.6,1.0,1.0,420.0,640.0,1.0,1,370.0,1
171,171,0.16562005612181163,0.2,1.0,1.0,334.0,832.0,1.0,1,444.0,1
172,172,-0.8545768237949217,-0.9,0.0,1.0,317.0,732.0,1.0,0,131.0,1
173,173,-0.28208058512462664,-0.3,0.0,1.0,306.0,964.0,1.0,0,-60.0,1
174,174,-0.5499382446257521,-0.5,1.0,0.0,286.0,897.0,0.0,0,107.0,1
175,175,-0.41624404614146093,-0.4,0.0,1.0,327.0,963.0,1.0,0,210.0,1
176,176,0.6334733794587982,0.6,1.0,1.0,435.0,683.0,1.0,1,212.0,1
177,177,0.001038171948363198,0.0,0.0,0.0,350.0,871.0,1.0,0,1409.0,0
178,178,-0.8588641208198532,-0.9,0.0,1.0,367.0,947.0,1.0,0,136.0,1
179,179,-0.3801888563827458,-0.4,0.0,1.0,389.0,888.0,1.0,0,263.0,1
180,180,0.7790479943507908,0.8,0.0,0.0,367.0,534.0,0.0,1,179.0,1
181,181,-0.2045616221723734,-0.2,1.0,0.0,341.0,642.0,0.0,0,157.0,1
182,182,0.3157980256512781,0.3,1.0,1.0,451.0,939.0,1.0,1,330.0,1
183,183,-0.5450510162700477,-0.5,0.0,1.0,469.0,909.0,1.0,0,82.0,1
184,184,0.4415517555879561,0.4,0.0,0.0,361.0,912.0,0.0,1,197.0,1
185,185,-0.7281887337012453,-0.7,0.0,1.0,465.0,931.0,1.0,0,114.0,1
186,186,-0.4661870670002505,-0.5,1.0,0.0,365.0,507.0,0.0,0,238.0,1
187,187,0.3238039348842662,0.3,1.0,1.0,443.0,923.0,1.0,1,154.0,1
188,188,-0.6911780792586644,-0.7,1.0,0.0,489.0,727.0,0.0,0,194.0,1
189,189,0.39046475592021845,0.4,0.0,0.0,380.0,546.0,0.0,1,384.0,1
190,190,0.332303248458485,0.3,0.0,0.0,314.0,965.0,0.0,1,231.0,1
191,191,0.6770283390450816,0.7,0.0,0.0,359.0,595.0,0.0,1,266.0,1
192,192,0.017635199448970185,0.0,1.0,1.0,334.0,662.0,1.0,1,354.0,1
193,193,-0.2612402351288562,-0.3,1.0,0.0,293.0,950.0,0.0,0,277.0,1
194,194,0.4883599039976715,0.5,1.0,1.0,401.0,675.0,1.0,1,174.0,1
195,195,-0.48787408927783366,-0.5,0.0,1.0,488.0,810.0,1.0,0,52.0,1
196,196,-0.5944053829406983,-0.6,0.0,1.0,466.0,810.0,1.0,0,54.0,1
197,197,0.4238402295945175,0.4,1.0,1.0,468.0,536.0,1.0,1,246.0,1
198,198,0.16961898597304648,0.2,0.0,0.0,346.0,517.0,0.0,1,497.0,1
199,199,0.056879937006496295,0.1,1.0,1.0,265.0,543.0,1.0,1,612.0,1
200,200,-0.4314234914216028,-0.4,0.0,1.0,318.0,798.0,1.0,0,124.0,1
201,201,-0.5230643384372053,-0.5,0.0,1.0,447.0,969.0,1.0,0,324.0,1
202,202,0.4468713376477692,0.4,0.0,0.0,265.0,996.0,0.0,1,369.0,1
203,203,-0.8565968163911893,-0.9,0.0,1.0,295.0,796.0,1.0,0,199.0,1
204,204,-0.1614737146756018,-0.2,0.0,1.0,453.0,896.0,1.0,0,481.0,1
205,205,0.8265674686353964,0.8,0.0,0.0,414.0,575.0,0.0,1,231.0,1
206,206,-0.4636349307889917,-0.5,1.0,0.0,361.0,905.0,0.0,0,134.0,1
207,207,0.6964990737932292,0.7,1.0,1.0,325.0,686.0,1.0,1,209.0,1
208,208,-0.6525682812730927,-0.7,1.0,0.0,288.0,854.0,0.0,0,198.0,1
209,209,0.20517095973014132,0.2,1.0,1.0,472.0,609.0,1.0,1,489.0,1
210,210,0.26318177105979135,0.3,1.0,1.0,317.0,704.0,1.0,1,479.0,1
211,211,0.6450996211930807,0.6,0.0,0.0,428.0,823.0,0.0,1,189.0,1
212,212,0.6566758830044089,0.7,1.0,1.0,394.0,960.0,1.0,1,156.0,1
213,213,-0.45200495010382996,-0.5,1.0,0.0,322.0,502.0,0.0,0,616.0,1
214,214,-0.716359567990275,-0.7,0.0,1.0,450.0,923.0,1.0,0,87.0,1
215,215,0.10340336862658261,0.1,0.0,0.0,323.0,593.0,0.0,1,2084.0,1
216,216,-0.019031482914043885,-0.0,1.0,0.0,251.0,991.0,0.0,0,1148.0,1
217,217,-0.6653699555849215,-0.7,1.0,0.0,431.0,776.0,0.0,0,133.0,1
218,218,0.27253008813213897,0.3,0.0,0.0,447.0,583.0,0.0,1,580.0,1
219,219,-0.647071549739195,-0.6,1.0,0.0,293.0,967.0,0.0,0,80.0,1
220,220,-0.04619612288787611,-0.0,1.0,0.0,438.0,980.0,0.0,0,772.0,1
221,221,-0.5296088308028393,-0.5,1.0,0.0,261.0,901.0,0.0,0,88.0,1
222,222,0.8882600701663418,0.9,0.0,0.0,456.0,625.0,0.0,1,229.0,1
223,223,0.890337788250449,0.9,0.0,0.0,348.0,767.0,0.0,1,135.0,1
224,224,0.11698946376646291,0.1,1.0,1.0,385.0,832.0,1.0,1,433.0,1
225,225,0.41492482161081157,0.4,1.0,1.0,310.0,666.0,1.0,1,204.0,1
226,226,-0.8088575882935014,-0.8,1.0,0.0,460.0,564.0,0.0,0,136.0,1
227,227,0.8293892895180576,0.8,0.0,0.0,358.0,802.0,0.0,1,150.0,1
228,228,-0.4888792249941688,-0.5,1.0,0.0,279.0,961.0,0.0,0,180.0,1
229,229,-0.6620587397754089,-0.7,0.0,1.0,455.0,539.0,1.0,0,96.0,1
230,230,-0.21010251845774885,-0.2,0.0,1.0,268.0,735.0,1.0,0,657.0,1
231,231,-0.5727118978082457,-0.6,0.0,1.0,485.0,727.0,1.0,0,168.0,1
232,232,0.16489721353324371,0.2,0.0,0.0,370.0,804.0,0.0,1,496.0,1
233,233,-0.17925098725388533,-0.2,0.0,1.0,476.0,924.0,1.0,0,340.0,1
234,234,-0.4331608342004433,-0.4,1.0,0.0,444.0,926.0,0.0,0,300.0,1
235,235,-0.415611414134574,-0.4,0.0,1.0,320.0,856.0,1.0,0,254.0,1
236,236,-0.8892309493350268,-0.9,1.0,0.0,250.0,735.0,0.0,0,85.0,1
237,237,-0.4455991197204153,-0.4,1.0,0.0,328.0,581.0,0.0,0,211.0,1
238,238,0.8660129654132002,0.9,1.0,1.0,311.0,566.0,1.0,1,243.0,1
239,239,-0.890003755232989,-0.9,1.0,0.0,453.0,503.0,0.0,0,774.0,1
240,240,-0.25023173302822077,-0.3,0.0,1.0,372.0,825.0,1.0,0,173.0,1
241,241,-0.2653383925352999,-0.3,1.0,0.0,341.0,912.0,0.0,0,197.0,1
242,242,0.3695614018423027,0.4,1.0,1.0,366.0,672.0,1.0,1,112.0,1
243,243,0.8417552801226874,0.8,1.0,1.0,354.0,801.0,1.0,1,195.0,1
244,244,-0.2391218370182161,-0.2,1.0,0.0,315.0,875.0,0.0,0,510.0,1
245,245,-0.874966630425811,-0.9,0.0,1.0,325.0,958.0,1.0,0,77.0,1
246,246,0.8625501748726928,0.9,0.0,0.0,342.0,795.0,0.0,1,83.0,1
247,247,-0.4135911428487829,-0.4,0.0,1.0,266.0,751.0,1.0,0,233.0,1
248,248,-0.30600584815632603,-0.3,0.0,1.0,334.0,951.0,1.0,0,235.0,1
249,249,-0.5029404167533558,-0.5,1.0,0.0,318.0,559.0,0.0,0,263.0,1
250,250,-0.11999102445093479,-0.1,0.0,1.0,363.0,880.0,1.0,0,977.0,1
251,251,0.4330178654238378,0.4,1.0,1.0,442.0,922.0,1.0,1,476.0,1
252,252,-0.5589105030819496,-0.6,0.0,1.0,407.0,642.0,1.0,0,241.0,1
253,253,0.8236628097871889,0.8,1.0,1.0,385.0,665.0,1.0,1,100.0,1
254,254,-0.866171591085719,-0.9,1.0,0.0,288.0,734.0,0.0,0,78.0,1
255,255,0.12485858230292834,0.1,0.0,0.0,319.0,567.0,0.0,1,434.0,1
256,256,0.056625687668515834,0.1,1.0,1.0,383.0,745.0,1.0,1,792.0,1
257,257,-0.4826879297664755,-0.5,1.0,0.0,384.0,698.0,0.0,0,168.0,1
258,258,0.6578952093958427,0.7,0.0,0.0,394.0,978.0,0.0,1,118.0,1
259,259,0.8522897287219698,0.9,1.0,1.0,390.0,648.0,1.0,1,232.0,1
260,260,-0.640121636481503,-0.6,0.0,1.0,480.0,900.0,1.0,0,130.0,1
261,261,0.13968263402893177,0.1,1.0,1.0,274.0,548.0,1.0,1,308.0,1
262,262,-0.35502496121143456,-0.4,0.0,1.0,383.0,757.0,1.0,0,100.0,1
263,263,0.4959513486150654,0.5,0.0,0.0,332.0,582.0,0.0,1,236.0,1
264,264,-0.1212973307902373,-0.1,1.0,0.0,387.0,968.0,1.0,1,-215.0,0
265,265,-0.4316492012216978,-0.4,1.0,0.0,438.0,887.0,0.0,0,125.0,1
266,266,-0.8725959640988509,-0.9,0.0,1.0,490.0,659.0,1.0,0,191.0,1
267,267,0.050484781707980764,0.1,0.0,0.0,419.0,963.0,0.0,1,1078.0,1
268,268,0.12811665275511286,0.1,1.0,1.0,398.0,620.0,1.0,1,422.0,1
269,269,0.44361223452320797,0.4,0.0,0.0,299.0,865.0,0.0,1,166.0,1
270,270,0.3804570333436842,0.4,0.0,0.0,304.0,502.0,0.0,1,444.0,1
271,271,0.4376491452590069,0.4,1.0,1.0,306.0,517.0,1.0,1,597.0,1
272,272,0.16042523317570534,0.2,1.0,1.0,452.0,935.0,1.0,1,313.0,1
273,273,0.8740669254571339,0.9,0.0,0.0,300.0,752.0,0.0,1,108.0,1
274,274,0.4590433772056476,0.5,0.0,0.0,329.0,525.0,0.0,1,366.0,1
275,275,0.5403926060604095,0.5,1.0,1.0,298.0,535.0,1.0,1,207.0,1
276,276,-0.7085796061906706,-0.7,1.0,0.0,324.0,694.0,0.0,0,132.0,1
277,277,-0.4726671321278539,-0.5,0.0,1.0,262.0,893.0,1.0,0,175.0,1
278,278,0.15769277539565707,0.2,1.0,1.0,342.0,735.0,1.0,1,323.0,1
279,279,0.0865104922195089,0.1,0.0,0.0,365.0,603.0,1.0,0,2032.0,0
280,280,0.6521193308033028,0.7,1.0,1.0,443.0,721.0,1.0,1,306.0,1
281,281,-0.06548084978851343,-0.1,0.0,1.0,429.0,536.0,1.0,0,615.0,1
282,282,-0.023017008094156632,-0.0,1.0,0.0,368.0,787.0,0.0,0,1115.0,1
283,283,0.8629840613921144,0.9,1.0,1.0,286.0,995.0,1.0,1,109.0,1
284,284,-0.4530318928913997,-0.5,0.0,1.0,384.0,862.0,1.0,0,264.0,1
285,285,0.5490805438378924,0.5,0.0,0.0,405.0,700.0,0.0,1,165.0,1
286,286,0.47884106782195845,0.5,0.0,0.0,489.0,652.0,0.0,1,229.0,1
287,287,-0.07030225372387688,-0.1,1.0,0.0,394.0,637.0,0.0,0,849.0,1
288,288,-0.45504289746776716,-0.5,1.0,0.0,363.0,891.0,0.0,0,156.0,1
289,289,0.828657718397532,0.8,1.0,1.0,253.0,948.0,1.0,1,69.0,1
290,290,0.2967677915780119,0.3,1.0,1.0,254.0,657.0,1.0,1,279.0,1
291,291,0.16103330858033937,0.2,1.0,1.0,499.0,680.0,1.0,1,401.0,1
292,292,0.7874277130232835,0.8,1.0,1.0,418.0,507.0,1.0,1,415.0,1
293,293,0.2865123511652311,0.3,1.0,1.0,335.0,522.0,1.0,1,353.0,1
294,294,-0.08109799593498157,-0.1,0.0,1.0,445.0,511.0,1.0,0,1004.0,1
295,295,-0.8447143890515562,-0.8,1.0,0.0,439.0,796.0,0.0,0,195.0,1
296,296,0.37647236348363233,0.4,0.0,0.0,442.0,710.0,0.0,1,418.0,1
297,297,-0.11313478513547015,-0.1,0.0,1.0,393.0,844.0,1.0,0,243.0,1
298,298,0.5301166215193841,0.5,1.0,1.0,448.0,639.0,1.0,1,103.0,1
299,299,-0.08689272347690513,-0.1,0.0,1.0,342.0,642.0,1.0,0,576.0,1
300,300,-0.3415259564439075,-0.3,1.0,0.0,364.0,813.0,1.0,1,-97.0,0
301,301,0.5583144443229003,0.6,1.0,1.0,406.0,709.0,1.0,1,85.0,1
302,302,-0.4436618073719078,-0.4,1.0,0.0,286.0,815.0,0.0,0,259.0,1
303,303,0.8635281228743145,0.9,1.0,1.0,443.0,561.0,1.0,1,196.0,1
304,304,-0.8370235243702682,-0.8,1.0,0.0,468.0,619.0,0.0,0,183.0,1
305,305,0.5037625822151218,0.5,0.0,0.0,299.0,551.0,0.0,1,200.0,1
306,306,0.2557215390078601,0.3,1.0,1.0,396.0,852.0,1.0,1,532.0,1
307,307,-0.47434445517539897,-0.5,0.0,1.0,385.0,554.0,1.0,0,81.0,1
308,308,0.15769002002439703,0.2,0.0,0.0,296.0,831.0,0.0,1,523.0,1
309,309,0.3894675599648828,0.4,0.0,0.0,434.0,974.0,0.0,1,182.0,1
310,310,-0.32090568463750646,-0.3,1.0,0.0,485.0,921.0,0.0,0,274.0,1
311,311,-0.3274561877408906,-0.3,1.0,0.0,292.0,569.0,0.0,0,319.0,1
312,312,-0.8143031285937924,-0.8,0.0,1.0,454.0,767.0,1.0,0,259.0,1
313,313,0.07724306185176011,0.1,0.0,0.0,322.0,883.0,0.0,1,1795.0,1
314,314,-0.45915064587286597,-0.5,1.0,0.0,401.0,695.0,0.0,0,254.0,1
315,315,-0.7919129391066728,-0.8,1.0,0.0,417.0,857.0,0.0,0,176.0,1
316,316,0.5323679667881059,0.5,0.0,0.0,274.0,846.0,0.0,1,180.0,1
317,317,0.4466882321045219,0.4,0.0,0.0,450.0,772.0,0.0,1,268.0,1
318,318,-0.056445814210063894,-0.1,0.0,1.0,274.0,993.0,1.0,0,633.0,1
319,319,-0.3078445517996463,-0.3,0.0,1.0,442.0,639.0,1.0,0,309.0,1
320,320,0.6201944329091896,0.6,1.0,1.0,283.0,940.0,1.0,1,137.0,1
321,321,-0.38812956016352096,-0.4,1.0,0.0,474.0,792.0,0.0,0,314.0,1
322,322,0.7627329770105008,0.8,1.0,1.0,300.0,782.0,1.0,1,358.0,1
323,323,0.6828046417235895,0.7,1.0,1.0,317.0,650.0,1.0,1,223.0,1
324,324,0.18607576388883984,0.2,1.0,1.0,366.0,868.0,1.0,1,286.0,1
325,325,0.5243696070795903,0.5,0.0,0.0,405.0,934.0,0.0,1,141.0,1
326,326,0.8266696158221013,0.8,1.0,1.0,480.0,751.0,1.0,1,219.0,1
327,327,0.28161121311850457,0.3,0.0,0.0,323.0,801.0,0.0,1,296.0,1
328,328,-0.70763729093655,-0.7,1.0,0.0,499.0,625.0,0.0,0,146.0,1
329,329,-0.6836550137291634,-0.7,0.0,1.0,464.0,989.0,1.0,0,137.0,1
330,330,0.08881768153912561,0.1,1.0,1.0,380.0,679.0,1.0,1,741.0,1
331,331,0.673749007523701,0.7,0.0,0.0,403.0,676.0,0.0,1,161.0,1
332,332,0.6329535106344703,0.6,0.0,0.0,356.0,794.0,0.0,1,110.0,1
333,333,-0.18586259467830335,-0.2,1.0,0.0,304.0,610.0,0.0,0,506.0,1
334,334,0.8900803811667527,0.9,0.0,0.0,352.0,671.0,0.0,1,177.0,1
335,335,0.47945658118187906,0.5,0.0,0.0,492.0,661.0,0.0,1,247.0,1
336,336,0.10056797812552143,0.1,0.0,0.0,258.0,868.0,0.0,1,344.0,1
337,337,-0.7701826002147766,-0.8,1.0,0.0,381.0,906.0,0.0,0,53.0,1
338,338,0.6450830974519489,0.6,1.0,1.0,495.0,982.0,1.0,1,93.0,1
339,339,-0.7138360999821038,-0.7,0.0,1.0,282.0,707.0,1.0,0,171.0,1
340,340,-0.5361433076166462,-0.5,1.0,0.0,460.0,969.0,0.0,0,171.0,1
341,341,-0.22520745538318687,-0.2,1.0,0.0,456.0,895.0,0.0,0,389.0,1
342,342,0.5448162420298074,0.5,1.0,1.0,315.0,672.0,1.0,1,133.0,1
343,343,-0.4442436104367242,-0.4,1.0,0.0,414.0,690.0,0.0,0,506.0,1
344,344,-0.8423737722379644,-0.8,1.0,0.0,453.0,952.0,0.0,0,205.0,1
345,345,0.42848863892735756,0.4,1.0,1.0,349.0,715.0,1.0,1,206.0,1
346,346,0.611158398162709,0.6,0.0,0.0,385.0,917.0,0.0,1,98.0,1
347,347,-0.3636544616448204,-0.4,1.0,0.0,311.0,644.0,0.0,0,635.0,1
348,348,0.7199877717426811,0.7,0.0,0.0,389.0,927.0,0.0,1,94.0,1
349,349,-0.6056366203999797,-0.6,1.0,0.0,258.0,860.0,0.0,0,102.0,1
350,350,0.17800127722750114,0.2,0.0,0.0,428.0,698.0,0.0,1,594.0,1
351,351,-0.14757349828097988,-0.1,0.0,1.0,473.0,851.0,1.0,0,326.0,1
352,352,-0.09590876931711523,-0.1,1.0,0.0,493.0,673.0,0.0,0,524.0,1
353,353,-0.6346183352450074,-0.6,0.0,1.0,440.0,776.0,1.0,0,104.0,1
354,354,-0.44913457384385375,-0.4,0.0,1.0,443.0,601.0,1.0,0,476.0,1
355,355,0.6079754575367641,0.6,1.0,1.0,288.0,973.0,1.0,1,-31.0,1
356,356,0.7749298136504604,0.8,0.0,0.0,470.0,518.0,0.0,1,182.0,1
357,357,0.44066911932675945,0.4,0.0,0.0,301.0,962.0,0.0,1,97.0,1
358,358,-0.48751408491301157,-0.5,0.0,1.0,388.0,948.0,1.0,0,244.0,1
359,359,-0.3574447834308899,-0.4,1.0,0.0,432.0,589.0,0.0,0,469.0,1
360,360,-0.388258410422727,-0.4,1.0,0.0,353.0,920.0,0.0,0,-53.0,1
361,361,-0.5958154373418771,-0.6,1.0,0.0,261.0,505.0,0.0,0,264.0,1
362,362,-0.17326509245527089,-0.2,0.0,1.0,283.0,570.0,1.0,0,717.0,1
363,363,-0.006968203821019592,-0.0,0.0,1.0,495.0,620.0,0.0,1,1105.0,0
364,364,-0.3796773199826169,-0.4,0.0,1.0,349.0,717.0,1.0,0,354.0,1
365,365,0.40426053848361854,0.4,1.0,1.0,415.0,625.0,1.0,1,320.0,1
366,366,0.056769800326567865,0.1,0.0,0.0,391.0,732.0,0.0,1,1877.0,1
367,367,-0.419117140998507,-0.4,1.0,0.0,479.0,652.0,0.0,0,189.0,1
368,368,-0.754565909900118,-0.8,1.0,0.0,438.0,950.0,0.0,0,132.0,1
369,369,0.6426841971201221,0.6,1.0,1.0,458.0,977.0,1.0,1,155.0,1
370,370,-0.5937973569513263,-0.6,1.0,0.0,368.0,509.0,0.0,0,363.0,1
371,371,0.3516450418129343,0.4,0.0,0.0,305.0,923.0,0.0,1,262.0,1
372,372,-0.3854584540643,-0.4,0.0,1.0,428.0,681.0,1.0,0,341.0,1
373,373,-0.09207897798212783,-0.1,0.0,1.0,408.0,854.0,1.0,0,138.0,1
374,374,-0.2548262252040372,-0.3,1.0,0.0,288.0,744.0,0.0,0,438.0,1
375,375,0.5407470083161648,0.5,0.0,0.0,450.0,509.0,0.0,1,171.0,1
376,376,0.8458308658091535,0.8,1.0,1.0,466.0,617.0,1.0,1,327.0,1
377,377,0.1369713168263288,0.1,1.0,1.0,298.0,822.0,1.0,1,510.0,1
378,378,0.8373915169199454,0.8,1.0,1.0,476.0,727.0,1.0,1,247.0,1
379,379,-0.7758643598652137,-0.8,0.0,1.0,276.0,571.0,1.0,0,193.0,1
380,380,0.2081319324523584,0.2,0.0,0.0,325.0,539.0,0.0,1,356.0,1
381,381,0.26023300588855836,0.3,0.0,0.0,363.0,643.0,0.0,1,254.0,1
382,382,0.7026461452932947,0.7,0.0,0.0,297.0,640.0,0.0,1,103.0,1
383,383,0.08604944113767476,0.1,0.0,0.0,480.0,663.0,0.0,1,557.0,1
384,384,0.8301557077582401,0.8,0.0,0.0,281.0,619.0,0.0,1,140.0,1
385,385,0.862124040937409,0.9,1.0,1.0,361.0,899.0,1.0,1,130.0,1
386,386,0.5769376592434537,0.6,1.0,1.0,398.0,753.0,1.0,1,129.0,1
387,387,0.6139834484953371,0.6,0.0,0.0,499.0,854.0,0.0,1,87.0,1
388,388,0.12110224803443315,0.1,1.0,1.0,439.0,686.0,1.0,1,435.0,1
389,389,-0.6995188917205422,-0.7,0.0,1.0,380.0,905.0,1.0,0,135.0,1
390,390,-0.024226726185719416,-0.0,1.0,0.0,392.0,622.0,0.0,0,1886.0,1
391,391,-0.5380476102277146,-0.5,1.0,0.0,407.0,964.0,0.0,0,109.0,1
392,392,0.6651319928071123,0.7,1.0,1.0,444.0,774.0,1.0,1,172.0,1
393,393,-0.4557405200852539,-0.5,1.0,0.0,324.0,822.0,0.0,0,204.0,1
394,394,0.4576362300865372,0.5,0.0,0.0,448.0,551.0,0.0,1,451.0,1
395,395,0.5727771026534051,0.6,1.0,1.0,400.0,531.0,1.0,1,319.0,1
396,396,-0.2305812547398266,-0.2,0.0,1.0,258.0,557.0,1.0,0,475.0,1
397,397,-0.08396554281996327,-0.1,1.0,0.0,336.0,767.0,0.0,0,827.0,1
398,398,0.0822986630690331,0.1,0.0,0.0,476.0,821.0,0.0,1,623.0,1
399,399,-0.11604018924986359,-0.1,1.0,0.0,487.0,798.0,0.0,0,1305.0,1
400,400,0.17845289991226354,0.2,0.0,0.0,426.0,815.0,0.0,1,399.0,1
401,401,-0.23250605905283184,-0.2,1.0,0.0,490.0,654.0,0.0,0,306.0,1
402,402,0.4411361428924253,0.4,1.0,1.0,259.0,556.0,1.0,1,195.0,1
403,403,0.6443671992684036,0.6,1.0,1.0,315.0,584.0,1.0,1,171.0,1
404,404,0.4180930446758554,0.4,0.0,0.0,442.0,785.0,0.0,1,273.0,1
405,405,0.07833586095830847,0.1,0.0,0.0,382.0,543.0,0.0,1,945.0,1
406,406,0.6092969624946437,0.6,1.0,1.0,366.0,718.0,1.0,1,306.0,1
407,407,0.6852195668211595,0.7,1.0,1.0,369.0,529.0,1.0,1,102.0,1
408,408,-0.5163364284580769,-0.5,1.0,0.0,418.0,623.0,0.0,0,199.0,1
409,409,-0.5682017193644131,-0.6,0.0,1.0,269.0,780.0,1.0,0,131.0,1
410,410,-0.21412813654643292,-0.2,1.0,0.0,363.0,667.0,0.0,0,370.0,1
411,411,0.5280829362001339,0.5,0.0,0.0,425.0,739.0,0.0,1,216.0,1
412,412,-0.66308369164481,-0.7,0.0,1.0,260.0,622.0,1.0,0,88.0,1
413,413,0.07721965087516347,0.1,0.0,0.0,464.0,863.0,0.0,1,1523.0,1
414,414,0.07207887919160649,0.1,0.0,0.0,432.0,691.0,0.0,1,1877.0,1
415,415,0.4544537579085549,0.5,0.0,0.0,361.0,852.0,0.0,1,137.0,1
416,416,0.6155666348726377,0.6,1.0,1.0,340.0,549.0,1.0,1,121.0,1
417,417,0.850193158222066,0.9,1.0,1.0,392.0,573.0,1.0,1,115.0,1
418,418,0.8886573312617482,0.9,0.0,0.0,402.0,850.0,0.0,1,108.0,1
419,419,0.4130192224460568,0.4,1.0,1.0,375.0,754.0,1.0,1,321.0,1
420,420,0.5620011221963744,0.6,1.0,1.0,430.0,853.0,1.0,1,117.0,1
421,421,0.19258131765980846,0.2,1.0,1.0,380.0,884.0,1.0,1,836.0,1
422,422,0.68344205779658,0.7,0.0,0.0,443.0,551.0,0.0,1,196.0,1
423,423,-0.10895210611167194,-0.1,0.0,1.0,395.0,619.0,1.0,0,626.0,1
424,424,-0.5021730206297321,-0.5,1.0,0.0,430.0,658.0,0.0,0,182.0,1
425,425,0.3318700572666654,0.3,0.0,0.0,439.0,639.0,0.0,1,552.0,1
426,426,0.24788357862801125,0.2,1.0,1.0,320.0,833.0,1.0,1,327.0,1
427,427,-0.578937574522398,-0.6,1.0,0.0,442.0,782.0,0.0,0,96.0,1
428,428,0.24828922877471127,0.2,0.0,0.0,454.0,972.0,0.0,1,384.0,1
429,429,-0.16394261003669564,-0.2,1.0,0.0,432.0,926.0,0.0,0,332.0,1
430,430,0.18038518502840162,0.2,0.0,0.0,434.0,874.0,0.0,1,302.0,1
431,431,0.3614772936312801,0.4,0.0,0.0,272.0,732.0,0.0,1,306.0,1
432,432,-0.45363720256685813,-0.5,1.0,0.0,280.0,857.0,0.0,0,503.0,1
433,433,0.3274380285566837,0.3,1.0,1.0,250.0,857.0,1.0,1,103.0,1
434,434,0.029817407851083444,0.0,0.0,0.0,350.0,595.0,0.0,1,2055.0,1
435,435,-0.7149177692202858,-0.7,1.0,0.0,403.0,786.0,0.0,0,131.0,1
436,436,0.11885118414049234,0.1,0.0,0.0,355.0,733.0,0.0,1,852.0,1
437,437,-0.31219411696674193,-0.3,0.0,1.0,497.0,758.0,1.0,0,445.0,1
438,438,0.10108571327487204,0.1,0.0,0.0,261.0,772.0,0.0,1,347.0,1
439,439,-0.42346307246784215,-0.4,0.0,1.0,431.0,880.0,1.0,0,169.0,1
440,440,0.7878290434861778,0.8,1.0,1.0,446.0,767.0,1.0,1,197.0,1
441,441,-0.8976779303430392,-0.9,1.0,0.0,315.0,961.0,0.0,0,194.0,1
442,442,-0.7371763848493145,-0.7,1.0,0.0,343.0,573.0,0.0,0,184.0,1
443,443,-0.436344906624174,-0.4,0.0,1.0,344.0,922.0,1.0,0,204.0,1
444,444,0.5725104629789254,0.6,1.0,1.0,422.0,548.0,1.0,1,350.0,1
445,445,0.3816403341864242,0.4,0.0,0.0,475.0,851.0,0.0,1,84.0,1
446,446,0.0489856929033351,0.0,1.0,1.0,454.0,598.0,1.0,1,1948.0,1
447,447,0.289548016106867,0.3,0.0,0.0,313.0,891.0,0.0,1,366.0,1
448,448,-0.6170222074532126,-0.6,0.0,1.0,438.0,519.0,1.0,0,193.0,1
449,449,-0.4874081158765778,-0.5,0.0,1.0,254.0,805.0,1.0,0,131.0,1
450,450,-0.5517218563017825,-0.6,1.0,0.0,342.0,940.0,0.0,0,288.0,1
451,451,0.6043518188529996,0.6,1.0,1.0,441.0,543.0,1.0,1,216.0,1
452,452,0.17496169714935117,0.2,0.0,0.0,389.0,999.0,0.0,1,612.0,1
453,453,0.7768453029268322,0.8,0.0,0.0,254.0,950.0,0.0,1,86.0,1
454,454,0.2666807119050095,0.3,1.0,1.0,383.0,714.0,1.0,1,193.0,1
455,455,-0.4180119045158327,-0.4,0.0,1.0,494.0,776.0,1.0,0,90.0,1
456,456,0.8064260437621499,0.8,0.0,0.0,409.0,831.0,0.0,1,110.0,1
457,457,0.6051172630633544,0.6,0.0,0.0,332.0,808.0,0.0,1,150.0,1
458,458,-0.3683540585976065,-0.4,1.0,0.0,365.0,955.0,0.0,0,440.0,1
459,459,0.8315529496950188,0.8,0.0,0.0,489.0,886.0,0.0,1,145.0,1
460,460,0.4921625232803818,0.5,1.0,1.0,311.0,846.0,1.0,1,233.0,1
461,461,-0.6274179975508634,-0.6,0.0,1.0,389.0,735.0,1.0,0,256.0,1
462,462,0.008106236359623264,0.0,0.0,0.0,318.0,778.0,1.0,0,1904.0,0
463,463,-0.02751102576924691,-0.0,0.0,1.0,387.0,684.0,1.0,0,579.0,1
464,464,-0.6901810508869836,-0.7,1.0,0.0,433.0,773.0,0.0,0,454.0,1
465,465,0.8127484039042651,0.8,1.0,1.0,398.0,765.0,1.0,1,87.0,1
466,466,0.3872002552312629,0.4,1.0,1.0,387.0,976.0,1.0,1,237.0,1
467,467,-0.49190970469413925,-0.5,0.0,1.0,454.0,716.0,1.0,0,130.0,1
468,468,-0.12153151592429645,-0.1,1.0,0.0,450.0,804.0,0.0,0,256.0,1
469,469,0.6706617499217912,0.7,1.0,1.0,482.0,758.0,1.0,1,170.0,1
470,470,0.14880982955291955,0.1,1.0,1.0,488.0,708.0,1.0,1,384.0,1
471,471,0.44096502070504473,0.4,0.0,0.0,254.0,643.0,0.0,1,253.0,1
472,472,0.8268234474768493,0.8,0.0,0.0,437.0,776.0,0.0,1,57.0,1
473,473,-0.7961526751415119,-0.8,1.0,0.0,461.0,673.0,0.0,0,246.0,1
474,474,0.1707686751563725,0.2,1.0,1.0,295.0,667.0,1.0,1,308.0,1
475,475,-0.011094396389323302,-0.0,1.0,0.0,307.0,554.0,0.0,0,2139.0,1
476,476,-0.35929975264293434,-0.4,1.0,0.0,289.0,741.0,0.0,0,360.0,1
477,477,-0.4365130791949888,-0.4,0.0,1.0,445.0,590.0,1.0,0,185.0,1
478,478,-0.6502368728040528,-0.7,1.0,0.0,469.0,599.0,0.0,0,112.0,1
479,479,-0.28976542113268133,-0.3,1.0,0.0,397.0,736.0,0.0,0,367.0,1
480,480,0.030692487287448,0.0,0.0,0.0,411.0,526.0,1.0,0,763.0,0
481,481,0.5017272711303574,0.5,1.0,1.0,322.0,873.0,1.0,1,155.0,1
482,482,-0.7737862941889939,-0.8,0.0,1.0,361.0,866.0,1.0,0,63.0,1
483,483,0.3200194233871202,0.3,0.0,0.0,446.0,651.0,0.0,1,243.0,1
484,484,0.2662789800347759,0.3,0.0,0.0,316.0,606.0,0.0,1,328.0,1
485,485,-0.8868277018271911,-0.9,1.0,0.0,425.0,503.0,0.0,0,182.0,1
486,486,-0.7156984415643801,-0.7,0.0,1.0,286.0,578.0,1.0,0,206.0,1
487,487,0.45066109495051465,0.5,1.0,1.0,443.0,878.0,1.0,1,229.0,1
488,488,-0.8777656742770162,-0.9,1.0,0.0,442.0,660.0,0.0,0,158.0,1
489,489,-0.398099373976853,-0.4,1.0,0.0,492.0,953.0,0.0,0,375.0,1
490,490,0.44073109667737975,0.4,1.0,1.0,331.0,802.0,1.0,1,147.0,1
491,491,-0.8629597937099636,-0.9,1.0,0.0,379.0,671.0,0.0,0,180.0,1
492,492,0.8531136853764157,0.9,0.0,0.0,370.0,889.0,0.0,1,111.0,1
493,493,0.860259989657293,0.9,0.0,0.0,287.0,841.0,0.0,1,52.0,1
494,494,-0.7865410824959694,-0.8,1.0,0.0,351.0,665.0,0.0,0,154.0,1
495,495,-0.4330859482045696,-0.4,1.0,0.0,400.0,939.0,0.0,0,261.0,1
496,496,0.33841661080645824,0.3,0.0,0.0,340.0,878.0,0.0,1,272.0,1
497,497,-0.8589428633696167,-0.9,1.0,0.0,470.0,600.0,0.0,0,160.0,1
498,498,0.11676799370394131,0.1,0.0,0.0,428.0,804.0,0.0,1,538.0,1
499,499,-0.03401950552283539,-0.0,1.0,0.0,486.0,882.0,0.0,0,1632.0,1
500,500,-0.6318464829966675,-0.6,1.0,0.0,361.0,507.0,0.0,0,262.0,1
501,501,0.7377026762761537,0.7,0.0,0.0,404.0,676.0,0.0,1,140.0,1
502,502,-0.8213693932401593,-0.8,1.0,0.0,422.0,967.0,0.0,0,111.0,1
503,503,0.03396140216226218,0.0,1.0,1.0,390.0,993.0,1.0,1,797.0,1
504,504,0.02675157083345092,0.0,0.0,0.0,335.0,690.0,1.0,0,1975.0,0
505,505,0.4416364930337021,0.4,0.0,0.0,485.0,893.0,0.0,1,232.0,1
506,506,0.1023012624685048,0.1,1.0,1.0,328.0,977.0,1.0,1,445.0,1
507,507,-0.24246517198885342,-0.2,1.0,0.0,415.0,905.0,0.0,0,150.0,1
508,508,-0.581696737932595,-0.6,1.0,0.0,308.0,819.0,0.0,0,163.0,1
509,509,-0.6104998604072092,-0.6,0.0,1.0,389.0,938.0,1.0,0,153.0,1
510,510,-0.16421426960655716,-0.2,1.0,0.0,424.0,938.0,0.0,0,248.0,1
511,511,-0.8394088490377708,-0.8,0.0,1.0,367.0,577.0,1.0,0,146.0,1
512,512,0.05650985604408909,0.1,1.0,1.0,443.0,782.0,1.0,1,1705.0,1
513,513,-0.48731540809712953,-0.5,1.0,0.0,496.0,517.0,0.0,0,267.0,1
514,514,0.3312156682505104,0.3,1.0,1.0,425.0,808.0,1.0,1,217.0,1
515,515,-0.09539043248682577,-0.1,0.0,1.0,285.0,799.0,1.0,0,276.0,1
516,516,0.6014130315660874,0.6,1.0,1.0,267.0,540.0,1.0,1,213.0,1
517,517,-0.7385570000727447,-0.7,1.0,0.0,369.0,887.0,0.0,0,164.0,1
518,518,-0.3669623992779373,-0.4,0.0,1.0,453.0,967.0,1.0,0,130.0,1
519,519,-0.6364279068083731,-0.6,0.0,1.0,460.0,600.0,1.0,0,150.0,1
520,520,-0.6709460236423711,-0.7,1.0,0.0,437.0,535.0,0.0,0,218.0,1
521,521,0.5132564933520233,0.5,1.0,1.0,268.0,541.0,1.0,1,331.0,1
522,522,0.5904040994505563,0.6,0.0,0.0,251.0,554.0,0.0,1,375.0,1
523,523,-0.8955535083965909,-0.9,0.0,1.0,482.0,986.0,1.0,0,142.0,1
524,524,-0.6965986667305996,-0.7,1.0,0.0,379.0,970.0,0.0,0,111.0,1
525,525,-0.3456045538035266,-0.3,1.0,0.0,445.0,724.0,0.0,0,241.0,1
526,526,0.26709704435332193,0.3,1.0,1.0,483.0,674.0,1.0,1,313.0,1
527,527,0.6254473794985146,0.6,1.0,1.0,374.0,811.0,1.0,1,475.0,1
528,528,-0.049380926546615744,-0.0,1.0,0.0,457.0,850.0,1.0,1,-47.0,0
529,529,-0.40559219379946815,-0.4,0.0,1.0,341.0,700.0,1.0,0,119.0,1
530,530,-0.8816111663913532,-0.9,1.0,0.0,492.0,747.0,0.0,0,201.0,1
531,531,0.8855864017724607,0.9,0.0,0.0,486.0,538.0,0.0,1,136.0,1
532,532,0.14985591000349407,0.1,1.0,1.0,365.0,554.0,1.0,1,861.0,1
533,533,0.04957323380204759,0.0,1.0,1.0,398.0,764.0,1.0,1,888.0,1
534,534,-0.27485047065000046,-0.3,1.0,0.0,478.0,988.0,0.0,0,444.0,1
535,535,0.4583393081908361,0.5,0.0,0.0,251.0,682.0,0.0,1,217.0,1
536,536,0.42699375305421505,0.4,0.0,0.0,439.0,950.0,0.0,1,341.0,1
537,537,-0.7684567613172092,-0.8,0.0,1.0,255.0,976.0,1.0,0,59.0,1
538,538,-0.8274478967178072,-0.8,0.0,1.0,452.0,704.0,1.0,0,104.0,1
539,539,-0.5240297731214132,-0.5,0.0,1.0,302.0,687.0,1.0,0,171.0,1
540,540,-0.43808001844979116,-0.4,1.0,0.0,361.0,889.0,0.0,0,180.0,1
541,541,0.8067147919858825,0.8,0.0,0.0,266.0,639.0,0.0,1,65.0,1
542,542,-0.4996366764486901,-0.5,1.0,0.0,383.0,993.0,0.0,0,164.0,1
543,543,0.7339524337667048,0.7,1.0,1.0,345.0,707.0,1.0,1,138.0,1
544,544,-0.31972208480005826,-0.3,0.0,1.0,370.0,530.0,1.0,0,410.0,1
545,545,-0.44753846057918467,-0.4,1.0,0.0,462.0,674.0,0.0,0,194.0,1
546,546,0.10239639165369552,0.1,0.0,0.0,377.0,875.0,0.0,1,468.0,1
547,547,-0.8292390078727843,-0.8,1.0,0.0,280.0,763.0,0.0,0,147.0,1
548,548,-0.8619069949456332,-0.9,0.0,1.0,394.0,881.0,1.0,0,85.0,1
549,549,-0.8524398431307564,-0.9,0.0,1.0,442.0,642.0,1.0,0,56.0,1
550,550,-0.6306087946560611,-0.6,0.0,1.0,437.0,894.0,1.0,0,159.0,1
551,551,0.43859807696956354,0.4,1.0,1.0,268.0,982.0,1.0,1,70.0,1
552,552,-0.23797655579384702,-0.2,0.0,1.0,385.0,664.0,1.0,0,371.0,1
553,553,0.05850139723432457,0.1,0.0,0.0,372.0,946.0,0.0,1,752.0,1
554,554,0.5677485429240129,0.6,0.0,0.0,281.0,715.0,0.0,1,244.0,1
555,555,-0.8613485016930593,-0.9,0.0,1.0,494.0,707.0,1.0,0,159.0,1
556,556,0.34391725387701,0.3,1.0,1.0,484.0,699.0,1.0,1,407.0,1
557,557,0.48232326001631665,0.5,0.0,0.0,426.0,901.0,0.0,1,203.0,1
558,558,0.18509482768392715,0.2,1.0,1.0,313.0,779.0,1.0,1,708.0,1
559,559,-0.6465526288137307,-0.6,1.0,0.0,381.0,522.0,0.0,0,187.0,1
560,560,-0.30043129259191126,-0.3,0.0,1.0,305.0,521.0,1.0,0,134.0,1
561,561,-0.7220709271897818,-0.7,0.0,1.0,493.0,939.0,1.0,0,88.0,1
562,562,-0.5052025715976961,-0.5,1.0,0.0,466.0,637.0,0.0,0,227.0,1
563,563,-0.11922697186876541,-0.1,1.0,0.0,475.0,779.0,0.0,0,316.0,1
564,564,0.25982257886631477,0.3,0.0,0.0,427.0,865.0,0.0,1,208.0,1
565,565,-0.08586485713888903,-0.1,1.0,0.0,406.0,683.0,0.0,0,681.0,1
566,566,-0.8115279918542397,-0.8,1.0,0.0,432.0,815.0,0.0,0,153.0,1
567,567,0.7677699201320053,0.8,1.0,1.0,447.0,527.0,1.0,1,186.0,1
568,568,-0.5251600795634648,-0.5,0.0,1.0,406.0,792.0,1.0,0,132.0,1
569,569,0.4012090637646125,0.4,1.0,1.0,292.0,516.0,1.0,1,422.0,1
570,570,0.062367014354222094,0.1,0.0,0.0,306.0,784.0,1.0,0,290.0,0
571,571,0.47446632459809657,0.5,0.0,0.0,491.0,990.0,0.0,1,209.0,1
572,572,-0.15297153682319242,-0.2,0.0,1.0,445.0,581.0,1.0,0,794.0,1
573,573,-0.2542364804542143,-0.3,0.0,1.0,337.0,538.0,1.0,0,455.0,1
574,574,0.4420617943912434,0.4,1.0,1.0,359.0,536.0,1.0,1,165.0,1
575,575,-0.6182667101075124,-0.6,1.0,0.0,442.0,593.0,0.0,0,245.0,1
576,576,0.27935839354252134,0.3,0.0,0.0,334.0,812.0,0.0,1,394.0,1
577,577,0.0030879742389241516,0.0,1.0,1.0,362.0,814.0,0.0,0,594.0,0
578,578,0.6378550450392223,0.6,1.0,1.0,343.0,883.0,1.0,1,64.0,1
579,579,0.6696395704504124,0.7,1.0,1.0,253.0,768.0,1.0,1,299.0,1
580,580,0.7315314482932346,0.7,0.0,0.0,278.0,807.0,0.0,1,95.0,1
581,581,0.664883997103359,0.7,1.0,1.0,430.0,788.0,1.0,1,222.0,1
582,582,0.2686162669088962,0.3,0.0,0.0,267.0,716.0,0.0,1,377.0,1
583,583,0.8112904596262535,0.8,1.0,1.0,403.0,658.0,1.0,1,139.0,1
584,584,-0.2713597089137558,-0.3,0.0,1.0,288.0,547.0,1.0,0,135.0,1
585,585,0.5978721145630385,0.6,0.0,0.0,317.0,723.0,0.0,1,90.0,1
586,586,0.865787204888896,0.9,0.0,0.0,254.0,524.0,0.0,1,352.0,1
587,587,0.09886333188525387,0.1,1.0,1.0,342.0,963.0,1.0,1,335.0,1
588,588,-0.5003949482711666,-0.5,0.0,1.0,376.0,514.0,1.0,0,220.0,1
589,589,0.43571407878016977,0.4,0.0,0.0,280.0,554.0,0.0,1,286.0,1
590,590,-0.2297295983732176,-0.2,1.0,0.0,315.0,679.0,0.0,0,986.0,1
591,591,0.11686054326566697,0.1,0.0,0.0,457.0,890.0,0.0,1,443.0,1
592,592,-0.36571843662608605,-0.4,0.0,1.0,357.0,991.0,1.0,0,292.0,1
593,593,0.42649764848409044,0.4,1.0,1.0,251.0,736.0,1.0,1,153.0,1
594,594,-0.02001146108705254,-0.0,0.0,1.0,397.0,932.0,0.0,1,1671.0,0
595,595,-0.028208289564463307,-0.0,0.0,1.0,377.0,946.0,1.0,0,1677.0,1
596,596,0.5399585622414097,0.5,0.0,0.0,356.0,938.0,1.0,0,-114.0,0
597,597,0.7278903424837991,0.7,1.0,1.0,285.0,910.0,1.0,1,125.0,1
598,598,-0.4629835714641839,-0.5,1.0,0.0,419.0,958.0,0.0,0,123.0,1
599,599,-0.800639399927676,-0.8,1.0,0.0,380.0,802.0,0.0,0,188.0,1
600,600,0.5895204600694631,0.6,1.0,1.0,380.0,884.0,1.0,1,166.0,1
601,601,0.3425730788612701,0.3,1.0,1.0,323.0,883.0,1.0,1,264.0,1
602,602,-0.538185655108409,-0.5,1.0,0.0,439.0,512.0,0.0,0,199.0,1
603,603,0.14611324901425837,0.1,1.0,1.0,281.0,505.0,1.0,1,604.0,1
604,604,0.1698024445762637,0.2,0.0,0.0,472.0,619.0,0.0,1,619.0,1
605,605,0.14451010200000403,0.1,1.0,1.0,297.0,548.0,1.0,1,1125.0,1
606,606,-0.5528914238452403,-0.6,0.0,1.0,278.0,811.0,1.0,0,61.0,1
607,607,0.8811439297272473,0.9,0.0,0.0,289.0,586.0,0.0,1,155.0,1
608,608,0.3716733998719942,0.4,1.0,1.0,326.0,942.0,1.0,1,32.0,1
609,609,0.8535889140565668,0.9,1.0,1.0,442.0,759.0,1.0,1,189.0,1
610,610,-0.7442822828808376,-0.7,0.0,1.0,368.0,538.0,1.0,0,214.0,1
611,611,-0.7053445560079812,-0.7,0.0,1.0,395.0,679.0,1.0,0,146.0,1
612,612,0.881665691326487,0.9,0.0,0.0,466.0,541.0,0.0,1,233.0,1
613,613,-0.8380725107427764,-0.8,0.0,1.0,374.0,687.0,1.0,0,239.0,1
614,614,0.036602640030910294,0.0,1.0,1.0,304.0,505.0,0.0,0,2191.0,0
615,615,0.09648455704253212,0.1,1.0,1.0,363.0,563.0,1.0,1,824.0,1
616,616,-0.4452542380927104,-0.4,0.0,1.0,255.0,563.0,1.0,0,252.0,1
617,617,-0.8365257965433107,-0.8,1.0,0.0,391.0,668.0,0.0,0,221.0,1
618,618,0.06128019411880725,0.1,1.0,1.0,453.0,873.0,1.0,1,784.0,1
619,619,-0.000517380998773076,-0.0,1.0,0.0,391.0,613.0,1.0,1,246.0,0
620,620,0.02221627214103017,0.0,0.0,0.0,366.0,612.0,1.0,0,2022.0,0
621,621,0.7581810332999966,0.8,0.0,0.0,396.0,982.0,0.0,1,122.0,1
622,622,0.20426961446035097,0.2,1.0,1.0,269.0,820.0,1.0,1,481.0,1
623,623,0.7837617298321963,0.8,0.0,0.0,263.0,729.0,0.0,1,198.0,1
624,624,-0.5863186024688427,-0.6,1.0,0.0,327.0,705.0,0.0,0,168.0,1
625,625,-0.8769773818365886,-0.9,1.0,0.0,408.0,572.0,0.0,0,230.0,1
626,626,-0.7648791578723527,-0.8,1.0,0.0,275.0,694.0,0.0,0,251.0,1
627,627,-0.23265674798299418,-0.2,0.0,1.0,389.0,908.0,1.0,0,1133.0,1
628,628,-0.5862261613008455,-0.6,1.0,0.0,424.0,587.0,0.0,0,269.0,1
629,629,-0.14808982466992604,-0.1,1.0,0.0,342.0,912.0,0.0,0,476.0,1
630,630,0.07919871145493163,0.1,0.0,0.0,436.0,597.0,0.0,1,647.0,1
631,631,-0.48025641645624206,-0.5,1.0,0.0,313.0,505.0,0.0,0,392.0,1
632,632,-0.81784853588246,-0.8,1.0,0.0,407.0,945.0,0.0,0,148.0,1
633,633,-0.13474464887579152,-0.1,0.0,1.0,306.0,968.0,1.0,0,376.0,1
634,634,0.4468774202671576,0.4,1.0,1.0,370.0,951.0,1.0,1,169.0,1
635,635,0.823487120670524,0.8,0.0,0.0,476.0,776.0,0.0,1,88.0,1
636,636,-0.7958865151006136,-0.8,0.0,1.0,322.0,990.0,1.0,0,138.0,1
637,637,-0.3621569871209942,-0.4,0.0,1.0,396.0,753.0,1.0,0,261.0,1
638,638,0.21400282976357599,0.2,1.0,1.0,462.0,623.0,1.0,1,425.0,1
639,639,-0.13612997930848658,-0.1,0.0,1.0,318.0,796.0,1.0,0,546.0,1
640,640,0.5866598168454934,0.6,0.0,0.0,492.0,816.0,0.0,1,212.0,1
641,641,0.7563437834503947,0.8,1.0,1.0,480.0,693.0,1.0,1,147.0,1
642,642,0.7473723047330277,0.7,1.0,1.0,279.0,775.0,1.0,1,246.0,1
643,643,0.4936089498847297,0.5,0.0,0.0,274.0,639.0,0.0,1,137.0,1
644,644,-0.006197047890673435,-0.0,0.0,1.0,281.0,911.0,0.0,1,1808.0,0
645,645,0.48184064574511576,0.5,0.0,0.0,466.0,988.0,0.0,1,136.0,1
646,646,0.08462593263113116,0.1,0.0,0.0,337.0,516.0,0.0,1,987.0,1
647,647,0.5376503829143219,0.5,0.0,0.0,430.0,905.0,0.0,1,155.0,1
648,648,0.6607260296177552,0.7,1.0,1.0,336.0,876.0,1.0,1,158.0,1
649,649,-0.26679986422078694,-0.3,1.0,0.0,281.0,873.0,0.0,0,256.0,1
650,650,-0.2648260276805817,-0.3,1.0,0.0,495.0,681.0,0.0,0,254.0,1
651,651,-0.3330873752987983,-0.3,0.0,1.0,339.0,575.0,1.0,0,216.0,1
652,652,-0.31181228236608405,-0.3,0.0,1.0,426.0,842.0,1.0,0,152.0,1
653,653,0.41191379146438856,0.4,1.0,1.0,258.0,984.0,0.0,0,-22.0,0
654,654,-0.03575189801674261,-0.0,1.0,0.0,332.0,691.0,0.0,0,1977.0,1
655,655,-0.11532723766804098,-0.1,0.0,1.0,448.0,874.0,1.0,0,-42.0,1
656,656,-0.8410514663220026,-0.8,1.0,0.0,392.0,978.0,0.0,0,110.0,1
657,657,-0.4531116146830047,-0.5,1.0,0.0,425.0,537.0,0.0,0,208.0,1
658,658,-0.34836100430631467,-0.3,1.0,0.0,320.0,624.0,0.0,0,406.0,1
659,659,0.21799860000714733,0.2,0.0,0.0,365.0,877.0,0.0,1,508.0,1
660,660,-0.146870641645374,-0.1,1.0,0.0,447.0,559.0,0.0,0,494.0,1
661,661,0.5633810055288496,0.6,1.0,1.0,435.0,809.0,1.0,1,156.0,1
662,662,0.19814822790384456,0.2,0.0,0.0,401.0,967.0,0.0,1,712.0,1
663,663,-0.3945322078072635,-0.4,0.0,1.0,337.0,934.0,1.0,0,129.0,1
664,664,0.5551020553988822,0.6,0.0,0.0,445.0,622.0,0.0,1,203.0,1
665,665,-0.20494315218948855,-0.2,1.0,0.0,374.0,921.0,0.0,0,45.0,1
666,666,-0.8509280179079554,-0.9,0.0,1.0,308.0,880.0,1.0,0,212.0,1
667,667,-0.8434442800351261,-0.8,1.0,0.0,371.0,602.0,0.0,0,217.0,1
668,668,-0.05360391004673504,-0.1,0.0,1.0,437.0,588.0,0.0,1,1975.0,0
669,669,-0.5375379729698622,-0.5,1.0,0.0,294.0,732.0,0.0,0,254.0,1
670,670,0.055214060365316175,0.1,1.0,1.0,299.0,905.0,1.0,1,6.0,1
671,671,0.8823476129338484,0.9,0.0,0.0,399.0,736.0,0.0,1,135.0,1
672,672,0.5310892048685246,0.5,1.0,1.0,415.0,626.0,1.0,1,149.0,1
673,673,0.23674100051224645,0.2,1.0,1.0,474.0,929.0,1.0,1,297.0,1
674,674,0.15095802843956496,0.2,0.0,0.0,388.0,986.0,0.0,1,386.0,1
675,675,0.8706944795114574,0.9,0.0,0.0,329.0,769.0,0.0,1,112.0,1
676,676,-0.13731270082264024,-0.1,1.0,0.0,315.0,555.0,0.0,0,690.0,1
677,677,-0.23216375150928437,-0.2,0.0,1.0,385.0,871.0,1.0,0,294.0,1
678,678,-0.4909917930976521,-0.5,1.0,0.0,498.0,902.0,0.0,0,150.0,1
679,679,0.4383256030756545,0.4,1.0,1.0,264.0,710.0,1.0,1,386.0,1
680,680,0.014210123216045978,0.0,1.0,1.0,285.0,797.0,0.0,0,428.0,0
681,681,0.5206602838924385,0.5,1.0,1.0,408.0,520.0,1.0,1,232.0,1
682,682,0.35630412000945844,0.4,0.0,0.0,448.0,709.0,0.0,1,223.0,1
683,683,-0.556976728878158,-0.6,1.0,0.0,294.0,798.0,0.0,0,218.0,1
684,684,0.016193664916620554,0.0,0.0,0.0,326.0,760.0,0.0,1,1914.0,1
685,685,0.41442789699422333,0.4,1.0,1.0,287.0,797.0,1.0,1,246.0,1
686,686,0.5856313190145849,0.6,1.0,1.0,408.0,990.0,1.0,1,82.0,1
687,687,0.8766864894530694,0.9,0.0,0.0,399.0,739.0,0.0,1,102.0,1
688,688,-0.619879516778538,-0.6,1.0,0.0,335.0,852.0,0.0,0,183.0,1
689,689,0.11508615917951193,0.1,1.0,1.0,364.0,722.0,1.0,1,694.0,1
690,690,0.48094574116390143,0.5,1.0,1.0,382.0,556.0,1.0,1,302.0,1
691,691,0.5229683752715212,0.5,0.0,0.0,390.0,679.0,0.0,1,301.0,1
692,692,0.7535539993523607,0.8,1.0,1.0,287.0,848.0,1.0,1,325.0,1
693,693,-0.6512771220996207,-0.7,1.0,0.0,427.0,641.0,0.0,0,162.0,1
694,694,0.12915944142550606,0.1,1.0,1.0,410.0,775.0,1.0,1,625.0,1
695,695,-0.14298410399965777,-0.1,0.0,1.0,381.0,585.0,1.0,0,354.0,1
696,696,0.20623477352877162,0.2,0.0,0.0,413.0,996.0,0.0,1,211.0,1
697,697,-0.15256413788475964,-0.2,1.0,0.0,373.0,707.0,0.0,0,1050.0,1
698,698,-0.5826041862675693,-0.6,1.0,0.0,321.0,710.0,0.0,0,219.0,1
699,699,0.07975933756528264,0.1,0.0,0.0,461.0,985.0,0.0,1,574.0,1
700,700,-0.24134667712154478,-0.2,0.0,1.0,312.0,723.0,1.0,0,695.0,1
701,701,-0.6248589801793825,-0.6,0.0,1.0,280.0,927.0,1.0,0,133.0,1
702,702,0.29127746916092334,0.3,0.0,0.0,324.0,804.0,0.0,1,472.0,1
703,703,0.024350187131486734,0.0,0.0,0.0,258.0,551.0,0.0,1,1371.0,1
704,704,-0.043188803562987266,-0.0,1.0,0.0,450.0,799.0,0.0,0,1751.0,1
705,705,-0.12399863199530903,-0.1,1.0,0.0,482.0,986.0,0.0,0,612.0,1
706,706,-0.3437585310908453,-0.3,0.0,1.0,423.0,877.0,0.0,1,-80.0,0
707,707,-0.010103591006996537,-0.0,1.0,0.0,439.0,677.0,1.0,1,524.0,0
708,708,-0.6997751745236943,-0.7,0.0,1.0,405.0,641.0,1.0,0,144.0,1
709,709,0.5597822323214044,0.6,1.0,1.0,280.0,895.0,1.0,1,105.0,1
710,710,-0.1754918983732836,-0.2,0.0,1.0,453.0,762.0,1.0,0,365.0,1
711,711,0.5631539442445842,0.6,1.0,1.0,282.0,762.0,1.0,1,266.0,1
712,712,-0.39703950266302057,-0.4,0.0,1.0,353.0,774.0,1.0,0,253.0,1
713,713,0.4906373117306363,0.5,0.0,0.0,285.0,816.0,0.0,1,59.0,1
714,714,0.18606976355135718,0.2,0.0,0.0,282.0,911.0,0.0,1,147.0,1
715,715,0.10992045905936665,0.1,0.0,0.0,272.0,951.0,0.0,1,387.0,1
716,716,0.7204901636804272,0.7,1.0,1.0,493.0,689.0,1.0,1,128.0,1
717,717,-0.7871865441047399,-0.8,1.0,0.0,349.0,606.0,0.0,0,165.0,1
718,718,0.7201737130628988,0.7,0.0,0.0,318.0,752.0,0.0,1,140.0,1
719,719,-0.10562460011983654,-0.1,1.0,0.0,260.0,854.0,0.0,0,296.0,1
720,720,0.6264413977475375,0.6,1.0,1.0,475.0,734.0,1.0,1,201.0,1
721,721,-0.22937062340192915,-0.2,0.0,1.0,321.0,564.0,1.0,0,325.0,1
722,722,0.5456122598134764,0.5,0.0,0.0,323.0,844.0,0.0,1,163.0,1
723,723,0.4149918326410992,0.4,0.0,0.0,322.0,647.0,0.0,1,401.0,1
724,724,-0.20660895846285154,-0.2,1.0,0.0,477.0,655.0,0.0,0,728.0,1
725,725,0.02853733828902827,0.0,0.0,0.0,424.0,921.0,0.0,1,245.0,1
726,726,0.41743795167501097,0.4,1.0,1.0,306.0,542.0,1.0,1,322.0,1
727,727,0.17871434398160468,0.2,1.0,1.0,472.0,887.0,1.0,1,321.0,1
728,728,0.20961743268032806,0.2,1.0,1.0,452.0,848.0,1.0,1,170.0,1
729,729,-0.5341883469352475,-0.5,1.0,0.0,379.0,526.0,0.0,0,355.0,1
730,730,-0.2041170657187299,-0.2,1.0,0.0,270.0,629.0,0.0,0,431.0,1
731,731,0.4542871714295361,0.5,0.0,0.0,338.0,713.0,0.0,1,219.0,1
732,732,-0.2571813080723604,-0.3,0.0,1.0,286.0,542.0,1.0,0,272.0,1
733,733,0.4481023193999495,0.4,1.0,1.0,404.0,533.0,1.0,1,393.0,1
734,734,-0.38053613767421923,-0.4,1.0,0.0,255.0,742.0,0.0,0,363.0,1
735,735,0.44795071891029037,0.4,0.0,0.0,319.0,545.0,0.0,1,256.0,1
736,736,-0.7708408471937619,-0.8,1.0,0.0,483.0,996.0,0.0,0,101.0,1
737,737,-0.5820468784791824,-0.6,1.0,0.0,329.0,901.0,0.0,0,220.0,1
738,738,0.020404271221255876,0.0,0.0,0.0,296.0,714.0,0.0,1,710.0,1
739,739,0.5638155789759686,0.6,1.0,1.0,314.0,734.0,1.0,1,262.0,1
740,740,-0.27155744863067943,-0.3,1.0,0.0,497.0,655.0,0.0,0,408.0,1
741,741,-0.7675697280078404,-0.8,0.0,1.0,365.0,546.0,1.0,0,169.0,1
742,742,0.28139104495602674,0.3,0.0,0.0,346.0,801.0,0.0,1,353.0,1
743,743,0.7959591532738658,0.8,1.0,1.0,449.0,795.0,1.0,1,116.0,1
744,744,-0.679373169470477,-0.7,0.0,1.0,393.0,645.0,1.0,0,152.0,1
745,745,0.1723189702332325,0.2,1.0,1.0,461.0,749.0,1.0,1,80.0,1
746,746,0.1451210104679398,0.1,0.0,0.0,351.0,743.0,0.0,1,296.0,1
747,747,-0.7935593964679993,-0.8,0.0,1.0,442.0,823.0,1.0,0,95.0,1
748,748,-0.07701657291998443,-0.1,0.0,1.0,332.0,519.0,1.0,0,779.0,1
749,749,0.01067482009936016,0.0,0.0,0.0,394.0,593.0,0.0,1,993.0,1
750,750,0.6987515154617104,0.7,1.0,1.0,322.0,755.0,1.0,1,273.0,1
751,751,-0.05798186269710892,-0.1,1.0,0.0,378.0,552.0,0.0,0,1770.0,1
752,752,-0.307396189055814,-0.3,0.0,1.0,492.0,550.0,1.0,0,388.0,1
753,753,-0.6129997260980822,-0.6,1.0,0.0,406.0,731.0,0.0,0,73.0,1
754,754,-0.820619593141034,-0.8,0.0,1.0,268.0,807.0,1.0,0,125.0,1
755,755,-0.022726646392815852,-0.0,1.0,0.0,365.0,850.0,0.0,0,1785.0,1
756,756,-0.707805177241912,-0.7,1.0,0.0,256.0,593.0,0.0,0,201.0,1
757,757,-0.2313376221847786,-0.2,0.0,1.0,466.0,504.0,1.0,0,940.0,1
758,758,0.05972966324076556,0.1,1.0,1.0,359.0,633.0,1.0,1,1648.0,1
759,759,0.36499645654620083,0.4,0.0,0.0,274.0,613.0,0.0,1,373.0,1
760,760,0.3726248574955032,0.4,1.0,1.0,325.0,590.0,1.0,1,365.0,1
761,761,0.34954164869427296,0.3,0.0,0.0,421.0,535.0,0.0,1,404.0,1
762,762,0.5639065654296226,0.6,1.0,1.0,306.0,841.0,1.0,1,123.0,1
763,763,-0.8548829614181777,-0.9,1.0,0.0,417.0,701.0,0.0,0,192.0,1
764,764,-0.8090397662301556,-0.8,1.0,0.0,434.0,870.0,0.0,0,306.0,1
765,765,0.16091348103893643,0.2,0.0,0.0,491.0,970.0,0.0,1,889.0,1
766,766,0.7929286289797904,0.8,1.0,1.0,272.0,952.0,1.0,1,106.0,1
767,767,0.012910569607501587,0.0,1.0,1.0,489.0,557.0,0.0,0,1954.0,0
768,768,0.12683157954808,0.1,0.0,0.0,327.0,817.0,0.0,1,936.0,1
769,769,-0.08103840232654203,-0.1,0.0,1.0,255.0,546.0,1.0,0,489.0,1
770,770,-0.19683436114168773,-0.2,0.0,1.0,489.0,736.0,1.0,0,525.0,1
771,771,0.09200470827121965,0.1,1.0,1.0,292.0,675.0,1.0,1,643.0,1
772,772,-0.08756969703157758,-0.1,1.0,0.0,365.0,873.0,0.0,0,712.0,1
773,773,0.2467174574370249,0.2,0.0,0.0,276.0,741.0,0.0,1,303.0,1
774,774,0.379254830212192,0.4,0.0,0.0,276.0,576.0,0.0,1,418.0,1
775,775,0.14983442597121022,0.1,0.0,0.0,322.0,930.0,0.0,1,368.0,1
776,776,0.8984235971588427,0.9,0.0,0.0,473.0,763.0,0.0,1,154.0,1
777,777,0.3466266471737821,0.3,0.0,0.0,427.0,531.0,0.0,1,282.0,1
778,778,-0.8462758195869139,-0.8,1.0,0.0,410.0,889.0,0.0,0,71.0,1
779,779,0.11836354623243583,0.1,0.0,0.0,345.0,711.0,0.0,1,754.0,1
780,780,-0.13398580080282851,-0.1,1.0,0.0,306.0,711.0,0.0,0,553.0,1
781,781,-0.4320125916604557,-0.4,0.0,1.0,451.0,599.0,1.0,0,140.0,1
782,782,-0.5398364006983392,-0.5,1.0,0.0,475.0,654.0,0.0,0,141.0,1
783,783,-0.2398472959174215,-0.2,1.0,0.0,367.0,543.0,0.0,0,580.0,1
784,784,-0.1919829376380935,-0.2,1.0,0.0,366.0,929.0,0.0,0,235.0,1
785,785,-0.6539917470230349,-0.7,1.0,0.0,396.0,991.0,0.0,0,153.0,1
786,786,0.7878088653893845,0.8,0.0,0.0,463.0,800.0,0.0,1,67.0,1
787,787,0.8296824590431956,0.8,0.0,0.0,426.0,610.0,0.0,1,134.0,1
788,788,0.582277329148213,0.6,1.0,1.0,485.0,738.0,1.0,1,217.0,1
789,789,0.7918507166814971,0.8,1.0,1.0,373.0,869.0,1.0,1,98.0,1
790,790,-0.7426905424520899,-0.7,1.0,0.0,392.0,568.0,0.0,0,140.0,1
791,791,-0.39722243621612563,-0.4,0.0,1.0,349.0,544.0,1.0,0,277.0,1
792,792,0.6020811003719643,0.6,1.0,1.0,340.0,567.0,1.0,1,273.0,1
793,793,-0.04509672314910407,-0.0,0.0,1.0,302.0,773.0,1.0,0,525.0,1
794,794,0.2494562101856187,0.2,0.0,0.0,437.0,990.0,0.0,1,193.0,1
795,795,0.3259252849960069,0.3,0.0,0.0,285.0,790.0,0.0,1,315.0,1
796,796,0.8797353139542087,0.9,1.0,1.0,369.0,647.0,1.0,1,144.0,1
797,797,-0.03776374815939665,-0.0,0.0,1.0,495.0,877.0,1.0,0,-82.0,1
798,798,0.23435493227413173,0.2,1.0,1.0,446.0,826.0,1.0,1,208.0,1
799,799,-0.11110652268687682,-0.1,1.0,0.0,381.0,860.0,0.0,0,289.0,1
800,800,0.8009361126524889,0.8,0.0,0.0,401.0,705.0,0.0,1,104.0,1
801,801,0.5518644469560686,0.6,1.0,1.0,446.0,543.0,1.0,1,121.0,1
802,802,0.4514071724865035,0.5,0.0,0.0,331.0,535.0,0.0,1,314.0,1
803,803,-0.8984516434710024,-0.9,1.0,0.0,495.0,539.0,0.0,0,166.0,1
804,804,-0.8250575529099463,-0.8,1.0,0.0,450.0,943.0,0.0,0,107.0,1
805,805,0.693727131133426,0.7,0.0,0.0,343.0,781.0,0.0,1,96.0,1
806,806,-0.6773441960230812,-0.7,0.0,1.0,414.0,884.0,1.0,0,312.0,1
807,807,-0.6462036162067958,-0.6,1.0,0.0,370.0,906.0,0.0,0,194.0,1
808,808,0.4441485337967873,0.4,1.0,1.0,302.0,980.0,1.0,1,158.0,1
809,809,-0.21514700083454508,-0.2,1.0,0.0,256.0,970.0,0.0,0,314.0,1
810,810,-0.11056920206005139,-0.1,1.0,0.0,268.0,741.0,0.0,0,811.0,1
811,811,0.5929141590653159,0.6,0.0,0.0,292.0,654.0,0.0,1,194.0,1
812,812,-0.10444228439025927,-0.1,1.0,0.0,451.0,895.0,0.0,0,524.0,1
813,813,-0.8255910780737147,-0.8,0.0,1.0,497.0,760.0,1.0,0,183.0,1
814,814,0.7086470439596869,0.7,1.0,1.0,281.0,518.0,1.0,1,191.0,1
815,815,-0.2138808129861305,-0.2,0.0,1.0,493.0,688.0,1.0,0,239.0,1
816,816,-0.6571005707867501,-0.7,0.0,1.0,280.0,537.0,1.0,0,183.0,1
817,817,0.8554859694205149,0.9,1.0,1.0,487.0,690.0,1.0,1,163.0,1
818,818,-0.08198991744066697,-0.1,0.0,1.0,308.0,839.0,1.0,0,143.0,1
819,819,0.7516241847246833,0.8,0.0,0.0,352.0,672.0,0.0,1,86.0,1
820,820,-0.2742082394866783,-0.3,0.0,1.0,363.0,904.0,1.0,0,273.0,1
821,821,-0.6011259145495563,-0.6,1.0,0.0,327.0,995.0,0.0,0,118.0,1
822,822,0.26463559258172686,0.3,1.0,1.0,440.0,689.0,1.0,1,441.0,1
823,823,0.4155580505456028,0.4,1.0,1.0,338.0,983.0,1.0,1,99.0,1
824,824,-0.20886915226049707,-0.2,0.0,1.0,320.0,577.0,1.0,0,633.0,1
825,825,-0.4664276171091607,-0.5,0.0,1.0,448.0,811.0,1.0,0,131.0,1
826,826,-0.6282172092141649,-0.6,1.0,0.0,255.0,835.0,0.0,0,170.0,1
827,827,0.3008416870689906,0.3,0.0,0.0,322.0,953.0,0.0,1,155.0,1
828,828,-0.8481523353133453,-0.8,0.0,1.0,495.0,632.0,1.0,0,93.0,1
829,829,0.7402018474863153,0.7,0.0,0.0,445.0,670.0,0.0,1,205.0,1
830,830,0.7886815874422007,0.8,0.0,0.0,439.0,626.0,0.0,1,175.0,1
831,831,-0.6269013371143581,-0.6,0.0,1.0,273.0,844.0,1.0,0,123.0,1
832,832,0.7744809112922354,0.8,1.0,1.0,456.0,816.0,1.0,1,178.0,1
833,833,0.8960469246363701,0.9,1.0,1.0,429.0,883.0,1.0,1,68.0,1
834,834,0.8909446272027844,0.9,0.0,0.0,435.0,715.0,0.0,1,90.0,1
835,835,0.1405725884404997,0.1,0.0,0.0,447.0,882.0,0.0,1,491.0,1
836,836,0.8679945898950222,0.9,1.0,1.0,278.0,504.0,1.0,1,418.0,1
837,837,-0.017169997765460465,-0.0,1.0,0.0,464.0,591.0,1.0,1,1935.0,0
838,838,-0.603699589429368,-0.6,1.0,0.0,483.0,808.0,0.0,0,159.0,1
839,839,-0.6004198956017898,-0.6,1.0,0.0,436.0,612.0,0.0,0,352.0,1
840,840,0.5369126857660779,0.5,1.0,1.0,436.0,925.0,1.0,1,139.0,1
841,841,-0.41335544588503287,-0.4,1.0,0.0,340.0,843.0,0.0,0,167.0,1
842,842,0.22935551019405687,0.2,0.0,0.0,325.0,605.0,0.0,1,280.0,1
843,843,0.5031812521763618,0.5,1.0,1.0,423.0,507.0,1.0,1,150.0,1
844,844,0.3796004252830726,0.4,0.0,0.0,419.0,898.0,1.0,0,-67.0,0
845,845,0.3586983998453771,0.4,0.0,0.0,414.0,645.0,0.0,1,201.0,1
846,846,-0.6622325521752245,-0.7,0.0,1.0,398.0,906.0,1.0,0,166.0,1
847,847,-0.5665568369142209,-0.6,0.0,1.0,317.0,792.0,1.0,0,131.0,1
848,848,-0.29293239274456184,-0.3,0.0,1.0,445.0,783.0,1.0,0,462.0,1
849,849,-0.6525549813047447,-0.7,1.0,0.0,400.0,825.0,0.0,0,75.0,1
850,850,-0.48782341151656544,-0.5,0.0,1.0,459.0,880.0,1.0,0,101.0,1
851,851,0.3374598944434365,0.3,0.0,0.0,414.0,984.0,0.0,1,382.0,1
852,852,-0.2582564362916471,-0.3,0.0,1.0,435.0,649.0,1.0,0,346.0,1
853,853,-0.6643732098628347,-0.7,0.0,1.0,403.0,655.0,1.0,0,102.0,1
854,854,0.40376014127261295,0.4,1.0,1.0,316.0,917.0,1.0,1,67.0,1
855,855,0.5097080524440499,0.5,1.0,1.0,362.0,645.0,1.0,1,193.0,1
856,856,-0.7510742067288703,-0.8,1.0,0.0,386.0,607.0,0.0,0,187.0,1
857,857,-0.6216881818161266,-0.6,1.0,0.0,499.0,814.0,0.0,0,137.0,1
858,858,0.37895654456767847,0.4,0.0,0.0,329.0,730.0,0.0,1,171.0,1
859,859,-0.01774195841312054,-0.0,0.0,1.0,428.0,822.0,1.0,0,460.0,1
860,860,0.27388900926430526,0.3,1.0,1.0,385.0,804.0,1.0,1,691.0,1
861,861,-0.3659446582381799,-0.4,1.0,0.0,286.0,515.0,0.0,0,459.0,1
862,862,0.0927895514535989,0.1,1.0,1.0,317.0,962.0,1.0,1,291.0,1
863,863,0.5826708560504582,0.6,0.0,0.0,472.0,830.0,0.0,1,198.0,1
864,864,0.2811971561273009,0.3,1.0,1.0,281.0,799.0,1.0,1,90.0,1
865,865,0.23330895524791562,0.2,0.0,0.0,376.0,804.0,0.0,1,320.0,1
866,866,0.4804610766361158,0.5,0.0,0.0,496.0,666.0,0.0,1,198.0,1
867,867,0.3800407709748038,0.4,0.0,0.0,269.0,531.0,0.0,1,180.0,1
868,868,-0.0023807035157584755,-0.0,1.0,0.0,450.0,986.0,1.0,1,1564.0,0
869,869,0.7320735711590308,0.7,0.0,0.0,387.0,903.0,0.0,1,160.0,1
870,870,-0.2030774288741487,-0.2,1.0,0.0,252.0,934.0,0.0,0,174.0,1
871,871,0.48788357273568217,0.5,0.0,0.0,472.0,575.0,0.0,1,293.0,1
872,872,-0.7480855543314733,-0.7,0.0,1.0,390.0,908.0,1.0,0,222.0,1
873,873,-0.6233528563275741,-0.6,0.0,1.0,441.0,744.0,1.0,0,235.0,1
874,874,-0.8659610197973422,-0.9,1.0,0.0,381.0,501.0,0.0,0,238.0,1
875,875,-0.17601928009401746,-0.2,0.0,1.0,365.0,625.0,1.0,0,760.0,1
876,876,-0.20181111497195792,-0.2,0.0,1.0,493.0,692.0,1.0,0,425.0,1
877,877,-0.2665831041153168,-0.3,1.0,0.0,293.0,769.0,0.0,0,208.0,1
878,878,-0.2653751280152268,-0.3,1.0,0.0,368.0,848.0,0.0,0,474.0,1
879,879,0.8064513730551582,0.8,0.0,0.0,314.0,761.0,0.0,1,135.0,1
880,880,0.2250109828662984,0.2,1.0,1.0,396.0,924.0,1.0,1,340.0,1
881,881,0.6794039813621607,0.7,1.0,1.0,279.0,749.0,1.0,1,152.0,1
882,882,-0.5808984249356683,-0.6,0.0,1.0,442.0,915.0,1.0,0,73.0,1
883,883,-0.8306045546810545,-0.8,0.0,1.0,344.0,726.0,1.0,0,150.0,1
884,884,0.1879537794012215,0.2,1.0,1.0,406.0,929.0,1.0,1,475.0,1
885,885,0.550204689014757,0.6,1.0,1.0,438.0,768.0,1.0,1,174.0,1
886,886,0.6201358379965553,0.6,1.0,1.0,472.0,831.0,1.0,1,227.0,1
887,887,-0.5891559740113314,-0.6,1.0,0.0,493.0,577.0,0.0,0,220.0,1
888,888,0.6176354956542182,0.6,1.0,1.0,263.0,821.0,1.0,1,346.0,1
889,889,-0.08775896831218444,-0.1,0.0,1.0,376.0,778.0,1.0,0,1846.0,1
890,890,0.7313971266139193,0.7,1.0,1.0,391.0,510.0,1.0,1,349.0,1
891,891,0.06674077341914986,0.1,0.0,0.0,335.0,750.0,0.0,1,695.0,1
892,892,0.707690734009813,0.7,1.0,1.0,253.0,695.0,1.0,1,262.0,1
893,893,-0.11653763434730036,-0.1,0.0,1.0,388.0,510.0,1.0,0,902.0,1
894,894,-0.6019619736321142,-0.6,1.0,0.0,379.0,917.0,0.0,0,64.0,1
895,895,-0.6138009624877029,-0.6,0.0,1.0,330.0,796.0,1.0,0,104.0,1
896,896,0.34337021832736025,0.3,1.0,1.0,374.0,593.0,1.0,1,423.0,1
897,897,-0.5945886101957827,-0.6,1.0,0.0,381.0,801.0,0.0,0,148.0,1
898,898,-0.49483616198963326,-0.5,1.0,0.0,257.0,563.0,0.0,0,380.0,1
899,899,-0.5352715168496875,-0.5,1.0,0.0,486.0,838.0,0.0,0,236.0,1
900,900,0.39415134525459206,0.4,0.0,0.0,352.0,777.0,0.0,1,231.0,1
901,901,0.7801748757641939,0.8,0.0,0.0,257.0,603.0,0.0,1,150.0,1
902,902,-0.04917828590195672,-0.0,1.0,0.0,460.0,819.0,0.0,0,1721.0,1
903,903,0.5224729871559154,0.5,1.0,1.0,283.0,881.0,1.0,1,196.0,1
904,904,0.5707329318373014,0.6,0.0,0.0,321.0,720.0,0.0,1,159.0,1
905,905,-0.8382636283592337,-0.8,0.0,1.0,307.0,799.0,1.0,0,164.0,1
906,906,0.08402222148314453,0.1,1.0,1.0,311.0,697.0,1.0,1,1152.0,1
907,907,-0.886375188784763,-0.9,1.0,0.0,397.0,742.0,0.0,0,141.0,1
908,908,-0.0405506255523953,-0.0,1.0,0.0,457.0,895.0,0.0,0,1068.0,1
909,909,0.3396022313275634,0.3,1.0,1.0,384.0,685.0,1.0,1,221.0,1
910,910,-0.3516218211605303,-0.4,1.0,0.0,492.0,746.0,0.0,0,122.0,1
911,911,0.8745759662118454,0.9,1.0,1.0,404.0,907.0,1.0,1,29.0,1
912,912,0.3402799838179079,0.3,0.0,0.0,495.0,576.0,0.0,1,299.0,1
913,913,0.44383041697956116,0.4,1.0,1.0,412.0,960.0,1.0,1,208.0,1
914,914,0.3585066372208351,0.4,1.0,1.0,418.0,630.0,1.0,1,382.0,1
915,915,0.6512434099013743,0.7,1.0,1.0,431.0,981.0,1.0,1,128.0,1
916,916,0.3161776996408324,0.3,0.0,0.0,480.0,518.0,0.0,1,292.0,1
917,917,-0.6361408254966185,-0.6,0.0,1.0,320.0,672.0,1.0,0,238.0,1
918,918,0.03557662314578325,0.0,1.0,1.0,376.0,936.0,0.0,0,1688.0,0
919,919,-0.6037634046262679,-0.6,1.0,0.0,320.0,887.0,0.0,0,143.0,1
920,920,0.8456746951719462,0.8,0.0,0.0,483.0,741.0,0.0,1,196.0,1
921,921,-0.12480741158507846,-0.1,0.0,1.0,266.0,902.0,1.0,0,172.0,1
922,922,-0.20523274786240597,-0.2,0.0,1.0,309.0,973.0,1.0,0,298.0,1
923,923,-0.15708779039408294,-0.2,0.0,1.0,379.0,675.0,1.0,0,516.0,1
924,924,-0.2616314450663534,-0.3,1.0,0.0,363.0,567.0,0.0,0,750.0,1
925,925,0.5385455176513948,0.5,1.0,1.0,433.0,952.0,1.0,1,215.0,1
926,926,-0.7196077861575485,-0.7,0.0,1.0,260.0,519.0,1.0,0,251.0,1
927,927,0.3695570210340494,0.4,0.0,0.0,344.0,769.0,0.0,1,177.0,1
928,928,0.32082203667979725,0.3,0.0,0.0,387.0,913.0,0.0,1,200.0,1
929,929,0.1424195126608886,0.1,1.0,1.0,429.0,887.0,1.0,1,84.0,1
930,930,0.521217339408857,0.5,0.0,0.0,334.0,777.0,0.0,1,159.0,1
931,931,0.5785662823622418,0.6,1.0,1.0,495.0,750.0,1.0,1,95.0,1
932,932,0.44946410764167777,0.4,0.0,0.0,278.0,587.0,0.0,1,305.0,1
933,933,0.5180096948312264,0.5,1.0,1.0,463.0,579.0,1.0,1,448.0,1
934,934,-0.559074710515453,-0.6,0.0,1.0,473.0,840.0,1.0,0,127.0,1
935,935,0.5342473538616933,0.5,0.0,0.0,412.0,604.0,0.0,1,294.0,1
936,936,0.7262604469038304,0.7,1.0,1.0,318.0,877.0,1.0,1,435.0,1
937,937,-0.7738559300120549,-0.8,1.0,0.0,489.0,814.0,0.0,0,167.0,1
938,938,0.23501168728032307,0.2,0.0,0.0,355.0,553.0,0.0,1,192.0,1
939,939,-0.8713120035591345,-0.9,1.0,0.0,379.0,631.0,0.0,0,360.0,1
940,940,-0.42778151824875066,-0.4,0.0,1.0,322.0,550.0,1.0,0,168.0,1
941,941,0.08328861832779522,0.1,0.0,0.0,400.0,895.0,0.0,1,1705.0,1
942,942,-0.1256426124300143,-0.1,1.0,0.0,314.0,924.0,0.0,0,502.0,1
943,943,0.5240385959682571,0.5,1.0,1.0,392.0,564.0,1.0,1,294.0,1
944,944,0.024254619573643166,0.0,1.0,1.0,332.0,774.0,1.0,1,1364.0,1
945,945,-0.7320429746398078,-0.7,0.0,1.0,364.0,812.0,1.0,0,244.0,1
946,946,-0.10893469698056624,-0.1,0.0,1.0,363.0,516.0,1.0,0,341.0,1
947,947,-0.3484514696219265,-0.3,0.0,1.0,444.0,972.0,1.0,0,54.0,1
948,948,0.43453941332466084,0.4,1.0,1.0,424.0,879.0,1.0,1,287.0,1
949,949,-0.7275518410415853,-0.7,1.0,0.0,401.0,801.0,0.0,0,118.0,1
950,950,0.6678039842675058,0.7,0.0,0.0,475.0,551.0,0.0,1,164.0,1
951,951,0.29828676118669206,0.3,1.0,1.0,316.0,746.0,1.0,1,298.0,1
952,952,0.8044535616947778,0.8,0.0,0.0,471.0,591.0,0.0,1,178.0,1
953,953,-0.8184346342326451,-0.8,0.0,1.0,254.0,737.0,1.0,0,129.0,1
954,954,0.5018370364393036,0.5,0.0,0.0,453.0,915.0,0.0,1,192.0,1
955,955,0.5988576384104175,0.6,1.0,1.0,374.0,565.0,1.0,1,331.0,1
956,956,-0.3523795329274573,-0.4,1.0,0.0,465.0,726.0,0.0,0,349.0,1
957,957,0.23957435150318018,0.2,0.0,0.0,360.0,625.0,0.0,1,335.0,1
958,958,0.8213731474057203,0.8,1.0,1.0,273.0,907.0,1.0,1,140.0,1
959,959,-0.8547453638024824,-0.9,1.0,0.0,384.0,639.0,0.0,0,237.0,1
960,960,0.7494636246285796,0.7,0.0,0.0,478.0,901.0,0.0,1,91.0,1
961,961,-0.6484380066286495,-0.6,0.0,1.0,463.0,897.0,1.0,0,60.0,1
962,962,-0.5713195160652531,-0.6,1.0,0.0,290.0,590.0,0.0,0,130.0,1
963,963,0.2698159748320833,0.3,0.0,0.0,493.0,528.0,0.0,1,279.0,1
964,964,0.022706527054238146,0.0,0.0,0.0,435.0,966.0,0.0,1,1549.0,1
965,965,-0.26529407915294334,-0.3,1.0,0.0,419.0,522.0,0.0,0,669.0,1
966,966,0.6174730908029181,0.6,1.0,1.0,457.0,929.0,1.0,1,194.0,1
967,967,-0.6303520787888671,-0.6,1.0,0.0,297.0,541.0,0.0,0,392.0,1
968,968,0.163814345367589,0.2,0.0,0.0,343.0,705.0,0.0,1,432.0,1
969,969,0.5809249212989155,0.6,0.0,0.0,455.0,550.0,0.0,1,235.0,1
970,970,-0.5620174941890002,-0.6,0.0,1.0,264.0,844.0,1.0,0,172.0,1
971,971,-0.16727857161300053,-0.2,0.0,1.0,407.0,531.0,1.0,0,532.0,1
972,972,0.3109675676507061,0.3,0.0,0.0,276.0,573.0,0.0,1,481.0,1
973,973,-0.45306539464030876,-0.5,0.0,1.0,387.0,803.0,1.0,0,190.0,1
974,974,0.5300119345028044,0.5,1.0,1.0,344.0,852.0,1.0,1,274.0,1
975,975,0.7552175835917291,0.8,0.0,0.0,484.0,603.0,0.0,1,193.0,1
976,976,0.41242172956308665,0.4,0.0,0.0,351.0,912.0,0.0,1,207.0,1
977,977,-0.5208812249290243,-0.5,0.0,1.0,293.0,794.0,1.0,0,233.0,1
978,978,0.060522328467545794,0.1,0.0,0.0,467.0,681.0,0.0,1,1852.0,1
979,979,-0.1598224278284679,-0.2,0.0,1.0,312.0,719.0,1.0,0,1239.0,1
980,980,-0.39269366855076904,-0.4,0.0,1.0,374.0,761.0,1.0,0,925.0,1
981,981,0.8273143982504442,0.8,1.0,1.0,256.0,713.0,1.0,1,121.0,1
982,982,0.53493589495496,0.5,1.0,1.0,268.0,530.0,1.0,1,162.0,1
983,983,0.09343863353409798,0.1,1.0,1.0,303.0,925.0,1.0,1,102.0,1
984,984,-0.6645981374769708,-0.7,0.0,1.0,274.0,793.0,1.0,0,103.0,1
985,985,0.06095446581376618,0.1,0.0,0.0,267.0,701.0,0.0,1,612.0,1
986,986,-0.6065499136315706,-0.6,1.0,0.0,434.0,721.0,0.0,0,365.0,1
987,987,0.4050575370036308,0.4,0.0,0.0,379.0,563.0,0.0,1,408.0,1
988,988,-0.878952715952888,-0.9,1.0,0.0,415.0,884.0,0.0,0,111.0,1
989,989,-0.36037378443797274,-0.4,1.0,0.0,400.0,653.0,0.0,0,427.0,1
990,990,0.6517043592048527,0.7,1.0,1.0,359.0,547.0,1.0,1,164.0,1
991,991,-0.3212593880542315,-0.3,0.0,1.0,304.0,942.0,1.0,0,194.0,1
992,992,-0.5363970993172065,-0.5,1.0,0.0,413.0,636.0,0.0,0,281.0,1
993,993,-0.8941786458296648,-0.9,0.0,1.0,389.0,896.0,1.0,0,215.0,1
994,994,0.8335125301939817,0.8,0.0,0.0,433.0,963.0,0.0,1,124.0,1
995,995,-0.2920013150895422,-0.3,1.0,0.0,386.0,702.0,0.0,0,282.0,1
996,996,-0.37305503582372446,-0.4,1.0,0.0,320.0,998.0,0.0,0,162.0,1
997,997,0.617493271208546,0.6,1.0,1.0,412.0,950.0,1.0,1,168.0,1
998,998,0.3510618025693041,0.4,1.0,1.0,399.0,726.0,1.0,1,235.0,1
999,999,-0.7632080160659915,-0.8,1.0,0.0,381.0,680.0,0.0,0,229.0,1
1000,1000,0.575253895701148,0.6,1.0,1.0,438.0,629.0,1.0,1,163.0,1
1001,1001,-0.28697726058872497,-0.3,0.0,1.0,454.0,524.0,1.0,0,612.0,1
1002,1002,0.800950094084112,0.8,1.0,1.0,382.0,871.0,1.0,1,67.0,1
1003,1003,-0.7161283509290437,-0.7,1.0,0.0,374.0,854.0,0.0,0,142.0,1
1004,1004,0.1424718559282564,0.1,1.0,1.0,441.0,957.0,1.0,1,262.0,1
1005,1005,-0.3070239637872988,-0.3,1.0,0.0,315.0,805.0,0.0,0,200.0,1
1006,1006,-0.44364310266021584,-0.4,0.0,1.0,488.0,785.0,1.0,0,127.0,1
1007,1007,-0.7039094951960885,-0.7,0.0,1.0,316.0,587.0,1.0,0,237.0,1
1008,1008,0.7845064122704236,0.8,1.0,1.0,387.0,556.0,1.0,1,117.0,1
1009,1009,-0.5738582437117503,-0.6,1.0,0.0,446.0,507.0,0.0,0,487.0,1
1010,1010,0.8837228405864016,0.9,0.0,0.0,308.0,843.0,0.0,1,69.0,1
1011,1011,0.7636910109510261,0.8,0.0,0.0,340.0,846.0,0.0,1,134.0,1
1012,1012,0.6989318244930588,0.7,0.0,0.0,345.0,617.0,0.0,1,268.0,1
1013,1013,-0.571235473492478,-0.6,1.0,0.0,339.0,984.0,0.0,0,197.0,1
1014,1014,-0.15495088395276035,-0.2,0.0,1.0,318.0,835.0,1.0,0,847.0,1
1015,1015,-0.44452070676592664,-0.4,1.0,0.0,425.0,939.0,0.0,0,176.0,1
1016,1016,-0.8868714415503804,-0.9,0.0,1.0,426.0,512.0,1.0,0,252.0,1
1017,1017,0.29964341010766915,0.3,1.0,1.0,338.0,751.0,1.0,1,81.0,1
1018,1018,0.20659975007236475,0.2,0.0,0.0,270.0,929.0,0.0,1,231.0,1
1019,1019,0.4456624844356537,0.4,1.0,1.0,472.0,857.0,1.0,1,191.0,1
1020,1020,0.8021689809192908,0.8,0.0,0.0,437.0,964.0,0.0,1,89.0,1
1021,1021,0.5436519509703784,0.5,1.0,1.0,273.0,838.0,1.0,1,219.0,1
1022,1022,-0.06404219798830446,-0.1,1.0,0.0,493.0,919.0,0.0,0,438.0,1
1023,1023,0.201527275541444,0.2,0.0,0.0,393.0,640.0,0.0,1,497.0,1
1024,1024,0.7333309566359764,0.7,1.0,1.0,390.0,793.0,1.0,1,197.0,1
1025,1025,0.01730010980668517,0.0,1.0,1.0,364.0,739.0,0.0,0,1897.0,0
1026,1026,-0.18015327958450167,-0.2,1.0,0.0,337.0,743.0,0.0,0,800.0,1
1027,1027,-0.011552403065303918,-0.0,0.0,1.0,299.0,567.0,1.0,0,2114.0,1
1028,1028,-0.38301632891540116,-0.4,0.0,1.0,313.0,784.0,1.0,0,243.0,1
1029,1029,-0.11306026949496839,-0.1,0.0,1.0,495.0,813.0,1.0,0,1312.0,1
1030,1030,0.30558826681374096,0.3,0.0,0.0,390.0,651.0,0.0,1,259.0,1
1031,1031,0.7171837701822986,0.7,0.0,0.0,301.0,568.0,0.0,1,271.0,1
1032,1032,-0.25706825726457805,-0.3,1.0,0.0,491.0,886.0,0.0,0,243.0,1
1033,1033,-0.77860523660358,-0.8,0.0,1.0,497.0,752.0,1.0,0,131.0,1
1034,1034,0.29819406175573004,0.3,0.0,0.0,288.0,623.0,0.0,1,419.0,1
1035,1035,0.5062496334294798,0.5,0.0,0.0,302.0,576.0,0.0,1,142.0,1
1036,1036,0.48815148683508836,0.5,1.0,1.0,457.0,633.0,1.0,1,410.0,1
1037,1037,0.1427537728403917,0.1,1.0,1.0,412.0,546.0,1.0,1,852.0,1
1038,1038,0.04982476190758811,0.0,1.0,1.0,314.0,966.0,1.0,1,660.0,1
1039,1039,0.4366737911218713,0.4,1.0,1.0,387.0,566.0,1.0,1,577.0,1
1040,1040,-0.38628967696487226,-0.4,1.0,0.0,448.0,925.0,0.0,0,147.0,1
1041,1041,-0.12287748785853936,-0.1,0.0,1.0,481.0,656.0,1.0,0,1353.0,1
1042,1042,-0.6661352730207847,-0.7,0.0,1.0,468.0,950.0,1.0,0,122.0,1
1043,1043,-0.500340918723535,-0.5,0.0,1.0,350.0,742.0,1.0,0,198.0,1
1044,1044,-0.4024681509077337,-0.4,0.0,1.0,350.0,826.0,1.0,0,234.0,1
1045,1045,-0.49176736724717013,-0.5,1.0,0.0,411.0,768.0,0.0,0,181.0,1
1046,1046,0.02245875593007962,0.0,0.0,0.0,389.0,506.0,0.0,1,2105.0,1
1047,1047,0.6700228536334739,0.7,1.0,1.0,331.0,787.0,1.0,1,192.0,1
1048,1048,0.646298010438637,0.6,1.0,1.0,423.0,726.0,1.0,1,221.0,1
1049,1049,-0.41787874512302187,-0.4,1.0,0.0,434.0,504.0,0.0,0,312.0,1
1050,1050,-0.10809321511093195,-0.1,1.0,0.0,345.0,554.0,0.0,0,1731.0,1
1051,1051,0.5906636165861353,0.6,1.0,1.0,469.0,830.0,1.0,1,351.0,1
1052,1052,-0.8568151234407493,-0.9,1.0,0.0,469.0,683.0,0.0,0,148.0,1
1053,1053,0.6766924339214212,0.7,1.0,1.0,407.0,805.0,1.0,1,268.0,1
1054,1054,0.12337255869129582,0.1,0.0,0.0,324.0,755.0,0.0,1,761.0,1
1055,1055,0.33208417214945396,0.3,0.0,0.0,371.0,597.0,0.0,1,232.0,1
1056,1056,-0.43757284853930994,-0.4,0.0,1.0,485.0,912.0,1.0,0,143.0,1
1057,1057,0.2063618295403381,0.2,0.0,0.0,294.0,906.0,0.0,1,760.0,1
1058,1058,-0.09736750028527963,-0.1,1.0,0.0,390.0,680.0,0.0,0,430.0,1
1059,1059,-0.2275085472503543,-0.2,1.0,0.0,422.0,526.0,0.0,0,472.0,1
1060,1060,-0.7985033876492427,-0.8,0.0,1.0,490.0,971.0,1.0,0,119.0,1
1061,1061,0.30039875482794687,0.3,1.0,1.0,413.0,769.0,1.0,1,358.0,1
1062,1062,0.21601531674087704,0.2,0.0,0.0,327.0,618.0,0.0,1,535.0,1
1063,1063,0.38666646111195224,0.4,1.0,1.0,401.0,664.0,1.0,1,295.0,1
1064,1064,0.47080734371188726,0.5,0.0,0.0,263.0,676.0,0.0,1,211.0,1
1065,1065,0.3182233831204758,0.3,1.0,1.0,291.0,686.0,1.0,1,193.0,1
1066,1066,-0.24270683838216356,-0.2,0.0,1.0,268.0,563.0,1.0,0,389.0,1
1067,1067,0.7845922367706365,0.8,0.0,0.0,445.0,915.0,0.0,1,120.0,1
1068,1068,0.09900909457984508,0.1,0.0,0.0,429.0,727.0,0.0,1,584.0,1
1069,1069,-0.38160710953783794,-0.4,1.0,0.0,358.0,790.0,0.0,0,382.0,1
1070,1070,-0.8815200943862849,-0.9,0.0,1.0,269.0,892.0,1.0,0,119.0,1
1071,1071,0.7843478288528759,0.8,0.0,0.0,419.0,670.0,0.0,1,201.0,1
1072,1072,-0.313351070930477,-0.3,0.0,1.0,272.0,915.0,1.0,0,353.0,1
1073,1073,-0.7190143439860505,-0.7,1.0,0.0,411.0,672.0,0.0,0,217.0,1
1074,1074,-0.10313390500604014,-0.1,0.0,1.0,327.0,944.0,1.0,0,419.0,1
1075,1075,0.8712059681131902,0.9,0.0,0.0,345.0,986.0,0.0,1,129.0,1
1076,1076,-0.5861851034795342,-0.6,0.0,1.0,301.0,750.0,1.0,0,209.0,1
1077,1077,-0.2558995691308986,-0.3,0.0,1.0,355.0,598.0,1.0,0,247.0,1
1078,1078,-0.253398881576676,-0.3,0.0,1.0,267.0,554.0,1.0,0,379.0,1
1079,1079,-0.8182640207013914,-0.8,0.0,1.0,475.0,623.0,1.0,0,242.0,1
1080,1080,0.2323610982272698,0.2,0.0,0.0,439.0,774.0,0.0,1,477.0,1
1081,1081,-0.7295321988519287,-0.7,0.0,1.0,371.0,614.0,1.0,0,205.0,1
1082,1082,-0.4731131519760041,-0.5,1.0,0.0,410.0,852.0,0.0,0,228.0,1
1083,1083,-0.6803520215006154,-0.7,0.0,1.0,362.0,800.0,1.0,0,78.0,1
1084,1084,0.26012859407500744,0.3,0.0,0.0,422.0,986.0,0.0,1,532.0,1
1085,1085,-0.5981795110745547,-0.6,0.0,1.0,391.0,534.0,1.0,0,135.0,1
1086,1086,0.21831019596459933,0.2,0.0,0.0,259.0,583.0,0.0,1,378.0,1
1087,1087,-0.6697085996876466,-0.7,0.0,1.0,385.0,717.0,1.0,0,68.0,1
1088,1088,-0.30542642468079884,-0.3,0.0,1.0,327.0,872.0,1.0,0,471.0,1
1089,1089,-0.048234980161445895,-0.0,0.0,1.0,365.0,700.0,1.0,0,215.0,1
1090,1090,0.45790000722499224,0.5,1.0,1.0,362.0,580.0,1.0,1,338.0,1
1091,1091,0.776331222604128,0.8,1.0,1.0,458.0,531.0,1.0,1,141.0,1
1092,1092,-0.8882903259221121,-0.9,1.0,0.0,444.0,739.0,0.0,0,187.0,1
1093,1093,0.10886672896855487,0.1,1.0,1.0,352.0,991.0,1.0,1,147.0,1
1094,1094,-0.43701402981003173,-0.4,1.0,0.0,383.0,825.0,0.0,0,232.0,1
1095,1095,0.6598484503521577,0.7,1.0,1.0,312.0,619.0,1.0,1,219.0,1
1096,1096,0.45360652098427,0.5,0.0,0.0,253.0,757.0,0.0,1,150.0,1
1097,1097,0.6858475130701792,0.7,0.0,0.0,414.0,884.0,0.0,1,82.0,1
1098,1098,-0.8526827269499492,-0.9,0.0,1.0,426.0,639.0,1.0,0,205.0,1
1099,1099,-0.47266470720002735,-0.5,0.0,1.0,442.0,721.0,1.0,0,217.0,1
1100,1100,0.17344239131500372,0.2,0.0,0.0,380.0,722.0,0.0,1,218.0,1
1101,1101,-0.6304104629464617,-0.6,0.0,1.0,421.0,760.0,1.0,0,299.0,1
1102,1102,-0.13066514556840225,-0.1,0.0,1.0,403.0,506.0,1.0,0,1261.0,1
1103,1103,0.733678612107821,0.7,0.0,0.0,457.0,597.0,0.0,1,186.0,1
1104,1104,0.7453751828006948,0.7,0.0,0.0,261.0,531.0,0.0,1,218.0,1
1105,1105,0.7039681868068347,0.7,1.0,1.0,451.0,633.0,1.0,1,186.0,1
1106,1106,0.3652838958720884,0.4,1.0,1.0,264.0,603.0,1.0,1,173.0,1
1107,1107,-0.6407073327954306,-0.6,0.0,1.0,325.0,974.0,1.0,0,101.0,1
1108,1108,0.7305297176467033,0.7,0.0,0.0,292.0,791.0,0.0,1,227.0,1
1109,1109,0.39318072540528337,0.4,1.0,1.0,483.0,720.0,1.0,1,277.0,1
1110,1110,0.44702250785896014,0.4,1.0,1.0,452.0,974.0,1.0,1,164.0,1
1111,1111,0.5840362228373085,0.6,0.0,0.0,494.0,902.0,0.0,1,124.0,1
1112,1112,-0.009382644729589273,-0.0,0.0,1.0,383.0,683.0,1.0,0,204.0,1
1113,1113,0.2705860923173543,0.3,0.0,0.0,398.0,747.0,0.0,1,565.0,1
1114,1114,-0.2501799340699783,-0.3,0.0,1.0,308.0,901.0,1.0,0,121.0,1
1115,1115,0.4243277496042729,0.4,0.0,0.0,366.0,858.0,0.0,1,206.0,1
1116,1116,0.5856063948598474,0.6,1.0,1.0,448.0,855.0,1.0,1,197.0,1
1117,1117,0.7076587257869308,0.7,1.0,1.0,279.0,701.0,1.0,1,170.0,1
1118,1118,-0.42360969876270826,-0.4,1.0,0.0,423.0,726.0,0.0,0,281.0,1
1119,1119,0.620340259343983,0.6,1.0,1.0,258.0,550.0,1.0,1,252.0,1
1120,1120,-0.4389333039774197,-0.4,1.0,0.0,345.0,856.0,0.0,0,89.0,1
1121,1121,0.20855732244297254,0.2,1.0,1.0,386.0,784.0,1.0,1,630.0,1
1122,1122,0.5678846416520499,0.6,1.0,1.0,424.0,622.0,1.0,1,284.0,1
1123,1123,-0.6199322667831861,-0.6,1.0,0.0,322.0,601.0,0.0,0,277.0,1
1124,1124,-0.34923207027910763,-0.3,0.0,1.0,363.0,531.0,1.0,0,476.0,1
1125,1125,-0.6870669683601668,-0.7,1.0,0.0,430.0,939.0,0.0,0,121.0,1
1126,1126,-0.7390245414486779,-0.7,0.0,1.0,481.0,999.0,1.0,0,130.0,1
1127,1127,-0.292510664430515,-0.3,1.0,0.0,353.0,812.0,0.0,0,155.0,1
1128,1128,0.7603473987367225,0.8,1.0,1.0,257.0,809.0,1.0,1,214.0,1
1129,1129,-0.38454176017433905,-0.4,0.0,1.0,438.0,792.0,1.0,0,220.0,1
1130,1130,-0.4259363244713752,-0.4,0.0,1.0,473.0,578.0,1.0,0,69.0,1
1131,1131,-0.4785847613895966,-0.5,0.0,1.0,387.0,577.0,1.0,0,116.0,1
1132,1132,0.0824808885979118,0.1,1.0,1.0,321.0,626.0,1.0,1,893.0,1
1133,1133,0.675826693445223,0.7,0.0,0.0,424.0,748.0,0.0,1,78.0,1
1134,1134,-0.26545230328248737,-0.3,0.0,1.0,344.0,663.0,1.0,0,293.0,1
1135,1135,0.27293435188803283,0.3,0.0,0.0,317.0,801.0,0.0,1,382.0,1
1136,1136,-0.09302875502841013,-0.1,0.0,1.0,306.0,552.0,1.0,0,442.0,1
1137,1137,-0.4552149036900798,-0.5,0.0,1.0,415.0,917.0,1.0,0,-92.0,1
1138,1138,0.383139545510334,0.4,0.0,0.0,465.0,874.0,0.0,1,111.0,1
1139,1139,-0.7878871279404948,-0.8,1.0,0.0,276.0,997.0,0.0,0,147.0,1
1140,1140,0.3679224425713231,0.4,1.0,1.0,318.0,566.0,1.0,1,296.0,1
1141,1141,-0.3794880070187223,-0.4,1.0,0.0,408.0,902.0,0.0,0,220.0,1
1142,1142,0.20031938338870547,0.2,1.0,1.0,367.0,904.0,1.0,1,409.0,1
1143,1143,0.5647550003568408,0.6,1.0,1.0,469.0,935.0,1.0,1,156.0,1
1144,1144,-0.45071195854998325,-0.5,0.0,1.0,381.0,603.0,1.0,0,226.0,1
1145,1145,-0.7826764933788699,-0.8,1.0,0.0,376.0,775.0,0.0,0,99.0,1
1146,1146,-0.028886312993664398,-0.0,1.0,0.0,497.0,952.0,0.0,0,1551.0,1
1147,1147,-0.21051426632540338,-0.2,0.0,1.0,465.0,569.0,1.0,0,546.0,1
1148,1148,-0.07478904502686756,-0.1,0.0,1.0,459.0,884.0,1.0,0,737.0,1
1149,1149,0.851604167342585,0.9,0.0,0.0,287.0,782.0,0.0,1,61.0,1
1150,1150,0.7017389169174441,0.7,1.0,1.0,429.0,667.0,1.0,1,244.0,1
1151,1151,0.7186060125083712,0.7,1.0,1.0,319.0,992.0,1.0,1,89.0,1
1152,1152,-0.5629685143308086,-0.6,1.0,0.0,350.0,938.0,0.0,0,192.0,1
1153,1153,-0.3253945468909032,-0.3,1.0,0.0,433.0,774.0,0.0,0,223.0,1
1154,1154,0.3110179231939677,0.3,0.0,0.0,401.0,544.0,0.0,1,275.0,1
1155,1155,-0.5051729374089144,-0.5,1.0,0.0,491.0,975.0,0.0,0,54.0,1
1156,1156,0.10568989066198398,0.1,1.0,1.0,399.0,618.0,1.0,1,923.0,1
1157,1157,-0.7489347746596327,-0.7,1.0,0.0,404.0,794.0,0.0,0,172.0,1
1158,1158,-0.025099102099601978,-0.0,1.0,0.0,309.0,574.0,0.0,0,2117.0,1
1159,1159,0.5376843741199774,0.5,1.0,1.0,293.0,772.0,1.0,1,225.0,1
1160,1160,0.19286672927846726,0.2,0.0,0.0,296.0,761.0,0.0,1,253.0,1
1161,1161,0.3667969541027313,0.4,0.0,0.0,462.0,525.0,0.0,1,203.0,1
1162,1162,0.22700385513779542,0.2,0.0,0.0,369.0,751.0,0.0,1,280.0,1
1163,1163,0.0462571992504236,0.0,1.0,1.0,456.0,940.0,1.0,1,1044.0,1
1164,1164,-0.47500001143487397,-0.5,1.0,0.0,315.0,782.0,0.0,0,473.0,1
1165,1165,0.0026871880599790288,0.0,1.0,1.0,405.0,877.0,1.0,1,248.0,1
1166,1166,-0.7420768074081427,-0.7,1.0,0.0,463.0,948.0,0.0,0,69.0,1
1167,1167,0.19891806487175445,0.2,0.0,0.0,451.0,570.0,0.0,1,239.0,1
1168,1168,0.2366313219471582,0.2,1.0,1.0,480.0,940.0,1.0,1,460.0,1
1169,1169,0.2702569379898371,0.3,1.0,1.0,421.0,832.0,1.0,1,347.0,1
1170,1170,-0.7344244198340232,-0.7,0.0,1.0,356.0,851.0,1.0,0,113.0,1
1171,1171,0.35841663871579466,0.4,1.0,1.0,367.0,719.0,1.0,1,94.0,1
1172,1172,0.2647594282032345,0.3,0.0,0.0,259.0,770.0,0.0,1,191.0,1
1173,1173,0.8166043836122433,0.8,0.0,0.0,335.0,604.0,0.0,1,121.0,1
1174,1174,-0.6971203907043043,-0.7,0.0,1.0,281.0,504.0,1.0,0,195.0,1
1175,1175,0.2608288668107487,0.3,0.0,0.0,285.0,969.0,0.0,1,496.0,1
1176,1176,-0.8188740488775763,-0.8,0.0,1.0,471.0,850.0,1.0,0,229.0,1
1177,1177,-0.8354510347251428,-0.8,0.0,1.0,326.0,820.0,1.0,0,94.0,1
1178,1178,-0.4191112189461489,-0.4,0.0,1.0,416.0,798.0,1.0,0,116.0,1
1179,1179,-0.5565869359853902,-0.6,1.0,0.0,424.0,873.0,0.0,0,143.0,1
1180,1180,-0.7228806157302645,-0.7,1.0,0.0,313.0,763.0,0.0,0,264.0,1
1181,1181,0.560404557409011,0.6,1.0,1.0,405.0,940.0,1.0,1,185.0,1
1182,1182,-0.7701213506107455,-0.8,0.0,1.0,391.0,927.0,1.0,0,142.0,1
1183,1183,0.16829745659240503,0.2,0.0,0.0,331.0,705.0,0.0,1,544.0,1
1184,1184,0.22376199330054003,0.2,1.0,1.0,342.0,820.0,1.0,1,178.0,1
1185,1185,-0.5071139582372013,-0.5,1.0,0.0,406.0,969.0,0.0,0,145.0,1
1186,1186,-0.8865635798104116,-0.9,0.0,1.0,306.0,874.0,1.0,0,200.0,1
1187,1187,-0.006908375057374294,-0.0,1.0,0.0,338.0,877.0,0.0,0,1785.0,1
1188,1188,0.3950446365059247,0.4,1.0,1.0,381.0,648.0,1.0,1,221.0,1
1189,1189,0.7158305735403571,0.7,1.0,1.0,397.0,686.0,1.0,1,127.0,1
1190,1190,-0.6698186220884882,-0.7,1.0,0.0,453.0,862.0,0.0,0,115.0,1
1191,1191,0.5488193069363531,0.5,1.0,1.0,269.0,711.0,1.0,1,190.0,1
1192,1192,-0.8850117733143541,-0.9,0.0,1.0,273.0,547.0,1.0,0,250.0,1
1193,1193,-0.5327121493659299,-0.5,0.0,1.0,482.0,972.0,1.0,0,266.0,1
1194,1194,-0.3335176544226486,-0.3,1.0,0.0,312.0,916.0,0.0,0,302.0,1
1195,1195,-0.002931698146180106,-0.0,0.0,1.0,286.0,830.0,1.0,0,1884.0,1
1196,1196,0.6173932914460399,0.6,0.0,0.0,342.0,900.0,0.0,1,198.0,1
1197,1197,-0.7476061334611933,-0.7,1.0,0.0,393.0,947.0,0.0,0,140.0,1
1198,1198,0.5257111301551761,0.5,0.0,0.0,479.0,785.0,0.0,1,146.0,1
1199,1199,-0.36200635813469817,-0.4,0.0,1.0,392.0,872.0,1.0,0,286.0,1
1200,1200,0.21981655293564584,0.2,1.0,1.0,466.0,801.0,1.0,1,153.0,1
1201,1201,0.010298641327186275,0.0,0.0,0.0,354.0,592.0,1.0,0,2054.0,0
1202,1202,-0.7073729249542091,-0.7,1.0,0.0,297.0,754.0,0.0,0,199.0,1
1203,1203,-0.46106157075179877,-0.5,1.0,0.0,488.0,993.0,0.0,0,239.0,1
1204,1204,-0.645891994756006,-0.6,1.0,0.0,488.0,893.0,0.0,0,129.0,1
1205,1205,0.24238570139994786,0.2,0.0,0.0,286.0,879.0,0.0,1,265.0,1
1206,1206,-0.8655959888754304,-0.9,1.0,0.0,362.0,728.0,0.0,0,260.0,1
1207,1207,-0.0027846703700027398,-0.0,0.0,1.0,283.0,992.0,0.0,1,1725.0,0
1208,1208,0.804384575556872,0.8,1.0,1.0,468.0,853.0,1.0,1,119.0,1
1209,1209,0.44464109980646327,0.4,1.0,1.0,402.0,834.0,1.0,1,314.0,1
1210,1210,-0.3370572504001049,-0.3,1.0,0.0,317.0,683.0,0.0,0,420.0,1
1211,1211,0.3962191293610472,0.4,1.0,1.0,444.0,656.0,1.0,1,90.0,1
1212,1212,0.8070877861398268,0.8,1.0,1.0,465.0,742.0,1.0,1,163.0,1
1213,1213,0.06755518614323153,0.1,0.0,0.0,453.0,921.0,0.0,1,266.0,1
1214,1214,0.7875239240941317,0.8,1.0,1.0,487.0,592.0,1.0,1,171.0,1
1215,1215,-0.30639584531511854,-0.3,1.0,0.0,465.0,794.0,0.0,0,141.0,1
1216,1216,0.464168028821928,0.5,1.0,1.0,494.0,905.0,1.0,1,191.0,1
1217,1217,-0.5648030035005067,-0.6,1.0,0.0,408.0,788.0,0.0,0,184.0,1
1218,1218,-0.8997335750897407,-0.9,0.0,1.0,289.0,792.0,1.0,0,199.0,1
1219,1219,-0.48639042354941275,-0.5,0.0,1.0,397.0,752.0,1.0,0,311.0,1
1220,1220,-0.13316206802111386,-0.1,0.0,1.0,303.0,970.0,1.0,0,547.0,1
1221,1221,-0.6950593385835537,-0.7,0.0,1.0,393.0,824.0,1.0,0,63.0,1
1222,1222,-0.7754233408098802,-0.8,0.0,1.0,499.0,877.0,1.0,0,154.0,1
1223,1223,-0.021718584232325533,-0.0,1.0,0.0,496.0,508.0,0.0,0,786.0,1
1224,1224,-0.4514225129610042,-0.5,0.0,1.0,325.0,528.0,1.0,0,327.0,1
1225,1225,0.07021785079339948,0.1,0.0,0.0,406.0,778.0,0.0,1,1816.0,1
1226,1226,-0.7320193322970863,-0.7,0.0,1.0,251.0,780.0,1.0,0,229.0,1
1227,1227,0.30642705429127515,0.3,1.0,1.0,425.0,604.0,1.0,1,261.0,1
1228,1228,-0.493642920093385,-0.5,1.0,0.0,362.0,995.0,0.0,0,153.0,1
1229,1229,0.5382729001349132,0.5,1.0,1.0,256.0,566.0,1.0,1,168.0,1
1230,1230,0.011316518268665199,0.0,1.0,1.0,288.0,530.0,1.0,1,692.0,1
1231,1231,0.7701865031541634,0.8,0.0,0.0,391.0,924.0,0.0,1,75.0,1
1232,1232,-0.6535039143303165,-0.7,0.0,1.0,357.0,812.0,1.0,0,121.0,1
1233,1233,0.691832648298142,0.7,0.0,0.0,314.0,667.0,0.0,1,99.0,1
1234,1234,-0.7771917097483393,-0.8,1.0,0.0,297.0,800.0,0.0,0,63.0,1
1235,1235,-0.11487966352458445,-0.1,0.0,1.0,294.0,899.0,1.0,0,427.0,1
1236,1236,0.37302651852293967,0.4,0.0,0.0,424.0,988.0,0.0,1,68.0,1
1237,1237,-0.7879039079116131,-0.8,0.0,1.0,418.0,813.0,1.0,0,129.0,1
1238,1238,0.36483111061064577,0.4,0.0,0.0,313.0,665.0,0.0,1,262.0,1
1239,1239,-0.6272588624877795,-0.6,0.0,1.0,358.0,696.0,1.0,0,226.0,1
1240,1240,-0.6109226695737409,-0.6,1.0,0.0,456.0,837.0,0.0,0,117.0,1
1241,1241,-0.6146164163192442,-0.6,1.0,0.0,393.0,619.0,0.0,0,198.0,1
1242,1242,0.12442391565004918,0.1,1.0,1.0,287.0,619.0,1.0,1,554.0,1
1243,1243,0.5086431172711684,0.5,1.0,1.0,263.0,766.0,1.0,1,371.0,1
1244,1244,0.18264510648974153,0.2,0.0,0.0,317.0,677.0,0.0,1,256.0,1
1245,1245,0.08954385168010193,0.1,0.0,0.0,316.0,724.0,0.0,1,790.0,1
1246,1246,0.8200756165931485,0.8,1.0,1.0,261.0,654.0,1.0,1,115.0,1
1247,1247,0.7864026770144851,0.8,0.0,0.0,439.0,889.0,0.0,1,172.0,1
1248,1248,-0.04862448832938593,-0.0,0.0,1.0,334.0,546.0,1.0,0,2120.0,1
1249,1249,-0.3654980746921158,-0.4,1.0,0.0,262.0,660.0,0.0,0,338.0,1
1250,1250,-0.5418207792885461,-0.5,1.0,0.0,403.0,649.0,0.0,0,528.0,1
1251,1251,-0.3024834142422539,-0.3,1.0,0.0,417.0,758.0,0.0,0,345.0,1
1252,1252,-0.5520458498359118,-0.6,1.0,0.0,470.0,505.0,0.0,0,255.0,1
1253,1253,-0.6624867670461604,-0.7,0.0,1.0,272.0,643.0,1.0,0,185.0,1
1254,1254,-0.1446175912132157,-0.1,1.0,0.0,357.0,799.0,0.0,0,924.0,1
1255,1255,0.5872428143076261,0.6,1.0,1.0,297.0,883.0,1.0,1,80.0,1
1256,1256,-0.8296863534312525,-0.8,1.0,0.0,476.0,990.0,0.0,0,124.0,1
1257,1257,-0.2323386160410459,-0.2,1.0,0.0,292.0,563.0,0.0,0,295.0,1
1258,1258,0.8539618193017645,0.9,0.0,0.0,434.0,681.0,0.0,1,95.0,1
1259,1259,-0.22168434969077921,-0.2,1.0,0.0,291.0,969.0,0.0,0,400.0,1
1260,1260,0.22476893774258333,0.2,1.0,1.0,389.0,540.0,1.0,1,711.0,1
1261,1261,0.63094159001172,0.6,0.0,0.0,369.0,939.0,0.0,1,72.0,1
1262,1262,0.6840959317461067,0.7,1.0,1.0,253.0,906.0,1.0,1,101.0,1
1263,1263,-0.3090803569650994,-0.3,1.0,0.0,474.0,820.0,0.0,0,226.0,1
1264,1264,0.01698792826891493,0.0,1.0,1.0,338.0,817.0,1.0,1,1845.0,1
1265,1265,0.3246519311642927,0.3,1.0,1.0,304.0,879.0,1.0,1,147.0,1
1266,1266,-0.12343256710221706,-0.1,1.0,0.0,451.0,523.0,0.0,0,536.0,1
1267,1267,-0.8865843519491096,-0.9,1.0,0.0,452.0,947.0,0.0,0,141.0,1
1268,1268,0.15950574570571352,0.2,0.0,0.0,303.0,562.0,0.0,1,635.0,1
1269,1269,-0.625774688612854,-0.6,1.0,0.0,303.0,957.0,0.0,0,170.0,1
1270,1270,0.6173667117882721,0.6,0.0,0.0,443.0,849.0,0.0,1,208.0,1
1271,1271,0.7540002361523982,0.8,0.0,0.0,260.0,810.0,0.0,1,90.0,1
1272,1272,0.3207437972163062,0.3,1.0,1.0,402.0,753.0,1.0,1,295.0,1
1273,1273,-0.7437437485954376,-0.7,1.0,0.0,259.0,711.0,0.0,0,130.0,1
1274,1274,0.6712446373925914,0.7,1.0,1.0,429.0,717.0,1.0,1,94.0,1
1275,1275,0.17522658327977159,0.2,0.0,0.0,468.0,877.0,0.0,1,305.0,1
1276,1276,-0.032768800519066055,-0.0,0.0,1.0,468.0,618.0,1.0,0,794.0,1
1277,1277,0.7355586497574215,0.7,0.0,0.0,306.0,998.0,1.0,0,-124.0,0
1278,1278,-0.10236112372850836,-0.1,1.0,0.0,354.0,609.0,0.0,0,527.0,1
1279,1279,-0.14429979680800586,-0.1,1.0,0.0,390.0,668.0,0.0,0,712.0,1
1280,1280,0.15309502654790952,0.2,0.0,0.0,455.0,909.0,0.0,1,236.0,1
1281,1281,0.8541457259129112,0.9,1.0,1.0,280.0,896.0,1.0,1,174.0,1
1282,1282,0.734641147937302,0.7,1.0,1.0,367.0,676.0,1.0,1,187.0,1
1283,1283,0.5681746079690512,0.6,1.0,1.0,338.0,775.0,1.0,1,157.0,1
1284,1284,0.7701435584151207,0.8,1.0,1.0,481.0,791.0,1.0,1,158.0,1
1285,1285,0.026158206227610448,0.0,0.0,0.0,337.0,750.0,1.0,0,613.0,0
1286,1286,0.8466133559709589,0.8,0.0,0.0,441.0,771.0,0.0,1,128.0,1
1287,1287,-0.1765188985334044,-0.2,1.0,0.0,296.0,553.0,0.0,0,541.0,1
1288,1288,0.27930231111505044,0.3,1.0,1.0,412.0,575.0,1.0,1,253.0,1
1289,1289,0.07560276635600593,0.1,1.0,1.0,286.0,871.0,1.0,1,1843.0,1
1290,1290,0.5709361775331291,0.6,0.0,0.0,441.0,984.0,0.0,1,85.0,1
1291,1291,0.31080079301696995,0.3,1.0,1.0,379.0,864.0,1.0,1,97.0,1
1292,1292,-0.340766338916379,-0.3,1.0,0.0,439.0,714.0,0.0,0,227.0,1
1293,1293,0.1379738127306417,0.1,0.0,0.0,437.0,930.0,0.0,1,433.0,1
1294,1294,0.6403568053878842,0.6,0.0,0.0,285.0,972.0,0.0,1,143.0,1
1295,1295,0.6836416823817323,0.7,1.0,1.0,332.0,800.0,1.0,1,158.0,1
1296,1296,-0.049019246965475105,-0.0,0.0,1.0,268.0,555.0,1.0,0,547.0,1
1297,1297,-0.5924094601650983,-0.6,1.0,0.0,254.0,724.0,0.0,0,172.0,1
1298,1298,-0.6479666910768356,-0.6,0.0,1.0,442.0,703.0,1.0,0,185.0,1
1299,1299,-0.021221120056202913,-0.0,1.0,0.0,485.0,773.0,1.0,1,1742.0,0
1300,1300,0.3649562470919311,0.4,1.0,1.0,323.0,512.0,1.0,1,405.0,1
1301,1301,-0.009845399545827749,-0.0,1.0,0.0,472.0,657.0,0.0,0,1151.0,1
1302,1302,-0.8332899556827074,-0.8,0.0,1.0,312.0,813.0,1.0,0,85.0,1
1303,1303,0.7383082543954359,0.7,1.0,1.0,327.0,582.0,1.0,1,81.0,1
1304,1304,0.4862074690083328,0.5,0.0,0.0,318.0,873.0,0.0,1,209.0,1
1305,1305,-0.5940531691983708,-0.6,0.0,1.0,335.0,942.0,1.0,0,123.0,1
1306,1306,0.7244672647821907,0.7,0.0,0.0,414.0,927.0,0.0,1,139.0,1
1307,1307,0.197166836275379,0.2,1.0,1.0,351.0,707.0,1.0,1,472.0,1
1308,1308,0.3583169059232151,0.4,1.0,1.0,325.0,977.0,1.0,1,238.0,1
1309,1309,0.8339147757552289,0.8,0.0,0.0,295.0,752.0,0.0,1,103.0,1
1310,1310,-0.41736101195389647,-0.4,1.0,0.0,267.0,954.0,0.0,0,89.0,1
1311,1311,0.7469064370727486,0.7,1.0,1.0,363.0,696.0,1.0,1,271.0,1
1312,1312,0.6522763177263929,0.7,1.0,1.0,284.0,697.0,1.0,1,159.0,1
1313,1313,0.4252420371865687,0.4,0.0,0.0,321.0,693.0,0.0,1,326.0,1
1314,1314,0.15143084552958996,0.2,0.0,0.0,477.0,841.0,0.0,1,412.0,1
1315,1315,0.024544523742287216,0.0,0.0,0.0,404.0,922.0,1.0,0,1674.0,0
1316,1316,0.5673923058725873,0.6,0.0,0.0,415.0,955.0,0.0,1,230.0,1
1317,1317,-0.8603603069786452,-0.9,1.0,0.0,301.0,734.0,0.0,0,155.0,1
1318,1318,0.73794483699867,0.7,0.0,0.0,372.0,754.0,0.0,1,74.0,1
1319,1319,-0.7157544437701688,-0.7,1.0,0.0,448.0,847.0,0.0,0,155.0,1
1320,1320,-0.6467852589918278,-0.6,1.0,0.0,320.0,961.0,0.0,0,89.0,1
1321,1321,-0.34832891911576747,-0.3,1.0,0.0,384.0,694.0,0.0,0,392.0,1
1322,1322,0.5804763908239842,0.6,1.0,1.0,416.0,888.0,1.0,1,356.0,1
1323,1323,0.529193542333206,0.5,0.0,0.0,344.0,623.0,0.0,1,203.0,1
1324,1324,0.6384349053009514,0.6,0.0,0.0,268.0,726.0,0.0,1,96.0,1
1325,1325,-0.5348699905731071,-0.5,1.0,0.0,451.0,539.0,0.0,0,280.0,1
1326,1326,0.3774051588471302,0.4,0.0,0.0,405.0,599.0,0.0,1,286.0,1
1327,1327,-0.2059358116173261,-0.2,1.0,0.0,331.0,892.0,0.0,0,157.0,1
1328,1328,0.4381875219396393,0.4,1.0,1.0,437.0,933.0,1.0,1,210.0,1
1329,1329,-0.8235559293412222,-0.8,1.0,0.0,494.0,702.0,0.0,0,174.0,1
1330,1330,-0.5683058564902927,-0.6,1.0,0.0,455.0,548.0,0.0,0,477.0,1
1331,1331,0.7466166580362806,0.7,0.0,0.0,276.0,743.0,0.0,1,161.0,1
1332,1332,0.5641303578659972,0.6,0.0,0.0,341.0,500.0,0.0,1,189.0,1
1333,1333,-0.8450129154821726,-0.8,0.0,1.0,461.0,626.0,1.0,0,183.0,1
1334,1334,0.6166570362701213,0.6,1.0,1.0,495.0,711.0,1.0,1,184.0,1
1335,1335,-0.8987183087758679,-0.9,1.0,0.0,298.0,994.0,0.0,0,108.0,1
1336,1336,-0.27857967259229277,-0.3,0.0,1.0,250.0,896.0,1.0,0,194.0,1
1337,1337,0.7488902044421516,0.7,0.0,0.0,330.0,836.0,1.0,0,-26.0,0
1338,1338,-0.8071565930314798,-0.8,0.0,1.0,472.0,506.0,1.0,0,212.0,1
1339,1339,-0.6984234678057402,-0.7,0.0,1.0,456.0,510.0,1.0,0,224.0,1
1340,1340,-0.8398222488327503,-0.8,1.0,0.0,283.0,684.0,0.0,0,93.0,1
1341,1341,-0.3214334272884949,-0.3,0.0,1.0,346.0,715.0,1.0,0,369.0,1
1342,1342,0.8862940640082432,0.9,1.0,1.0,372.0,568.0,1.0,1,120.0,1
1343,1343,0.5320742485619988,0.5,1.0,1.0,306.0,944.0,1.0,1,280.0,1
1344,1344,0.16705111221081326,0.2,0.0,0.0,476.0,728.0,0.0,1,356.0,1
1345,1345,-0.6451244174822486,-0.6,0.0,1.0,397.0,943.0,1.0,0,30.0,1
1346,1346,-0.7404153931640268,-0.7,1.0,0.0,366.0,785.0,0.0,0,159.0,1
1347,1347,-0.08629248235019071,-0.1,0.0,1.0,422.0,789.0,1.0,0,819.0,1
1348,1348,0.09037698835765007,0.1,1.0,1.0,496.0,586.0,1.0,1,1808.0,1
1349,1349,-0.09143260527756236,-0.1,1.0,0.0,405.0,885.0,0.0,0,370.0,1
1350,1350,-0.15839199155989303,-0.2,1.0,0.0,336.0,602.0,0.0,0,622.0,1
1351,1351,0.8642440098395076,0.9,0.0,0.0,491.0,933.0,0.0,1,126.0,1
1352,1352,0.2956868253667183,0.3,1.0,1.0,402.0,947.0,1.0,1,321.0,1
1353,1353,0.3272000059327461,0.3,0.0,0.0,358.0,765.0,0.0,1,387.0,1
1354,1354,0.6634140448900568,0.7,1.0,1.0,415.0,626.0,1.0,1,149.0,1
1355,1355,-0.5974019928105021,-0.6,0.0,1.0,495.0,785.0,1.0,0,250.0,1
1356,1356,-0.885606513993189,-0.9,0.0,1.0,342.0,801.0,1.0,0,207.0,1
1357,1357,0.38782759074781314,0.4,0.0,0.0,365.0,618.0,0.0,1,277.0,1
1358,1358,0.6409391903604934,0.6,0.0,0.0,385.0,815.0,0.0,1,110.0,1
1359,1359,-0.13766231703446064,-0.1,1.0,0.0,398.0,618.0,0.0,0,804.0,1
1360,1360,0.2763264868741516,0.3,0.0,0.0,376.0,833.0,0.0,1,201.0,1
1361,1361,-0.062353752104364446,-0.1,1.0,0.0,331.0,923.0,0.0,0,726.0,1
1362,1362,0.6819086999062204,0.7,0.0,0.0,251.0,888.0,0.0,1,51.0,1
1363,1363,-0.16232938229129412,-0.2,0.0,1.0,265.0,588.0,1.0,0,397.0,1
1364,1364,-0.6016572456039924,-0.6,1.0,0.0,265.0,634.0,0.0,0,141.0,1
1365,1365,0.8540142827550435,0.9,1.0,1.0,288.0,522.0,1.0,1,160.0,1
1366,1366,0.0673299999839273,0.1,0.0,0.0,313.0,829.0,0.0,1,1578.0,1
1367,1367,0.5248081881429335,0.5,1.0,1.0,381.0,998.0,1.0,1,161.0,1
1368,1368,0.5998016385072059,0.6,0.0,0.0,343.0,880.0,0.0,1,157.0,1
1369,1369,0.1301746245744112,0.1,0.0,0.0,275.0,824.0,0.0,1,391.0,1
1370,1370,0.07246871430445334,0.1,1.0,1.0,251.0,541.0,1.0,1,1098.0,1
1371,1371,0.15528612807689657,0.2,1.0,1.0,388.0,910.0,1.0,1,452.0,1
1372,1372,-0.4836909033382893,-0.5,0.0,1.0,479.0,678.0,1.0,0,263.0,1
1373,1373,0.0358188440101842,0.0,1.0,1.0,418.0,620.0,1.0,1,412.0,1
1374,1374,0.8389200791052197,0.8,0.0,0.0,252.0,926.0,0.0,1,122.0,1
1375,1375,0.591789229015009,0.6,1.0,1.0,351.0,723.0,1.0,1,106.0,1
1376,1376,-0.6940719471694178,-0.7,0.0,1.0,344.0,960.0,1.0,0,46.0,1
1377,1377,-0.01790502808408745,-0.0,0.0,1.0,436.0,584.0,1.0,0,730.0,1
1378,1378,-0.10870760278763758,-0.1,0.0,1.0,293.0,643.0,1.0,0,494.0,1
1379,1379,-0.5077902507158618,-0.5,1.0,0.0,450.0,624.0,0.0,0,376.0,1
1380,1380,-0.8871711130003918,-0.9,0.0,1.0,402.0,784.0,1.0,0,134.0,1
1381,1381,-0.4920714223806159,-0.5,0.0,1.0,387.0,760.0,1.0,0,203.0,1
1382,1382,0.6449783340914635,0.6,0.0,0.0,483.0,653.0,0.0,1,274.0,1
1383,1383,0.7284652658446559,0.7,1.0,1.0,378.0,647.0,1.0,1,75.0,1
1384,1384,0.845952573742858,0.8,1.0,1.0,451.0,870.0,1.0,1,239.0,1
1385,1385,0.35497523824690325,0.4,1.0,1.0,315.0,969.0,1.0,1,196.0,1
1386,1386,0.8943937765797961,0.9,0.0,0.0,309.0,834.0,0.0,1,107.0,1
1387,1387,0.1696994993452915,0.2,0.0,0.0,378.0,891.0,0.0,1,301.0,1
1388,1388,0.4689427570780694,0.5,0.0,0.0,472.0,990.0,0.0,1,188.0,1
1389,1389,0.39069490122034967,0.4,1.0,1.0,331.0,588.0,1.0,1,261.0,1
1390,1390,-0.31270054301551753,-0.3,0.0,1.0,361.0,920.0,1.0,0,219.0,1
1391,1391,0.11700043162708729,0.1,1.0,1.0,390.0,823.0,1.0,1,827.0,1
1392,1392,0.6249800302599117,0.6,0.0,0.0,401.0,909.0,0.0,1,150.0,1
1393,1393,0.1722295903157275,0.2,0.0,0.0,271.0,984.0,0.0,1,495.0,1
1394,1394,-0.8405272233660711,-0.8,0.0,1.0,399.0,967.0,1.0,0,34.0,1
1395,1395,-0.7294482119544896,-0.7,1.0,0.0,487.0,628.0,0.0,0,125.0,1
1396,1396,0.8860887946837263,0.9,0.0,0.0,344.0,865.0,0.0,1,201.0,1
1397,1397,0.26166818347589593,0.3,0.0,0.0,300.0,837.0,0.0,1,413.0,1
1398,1398,0.25687014255017193,0.3,1.0,1.0,308.0,635.0,1.0,1,277.0,1
1399,1399,0.1806934186259549,0.2,0.0,0.0,297.0,793.0,0.0,1,620.0,1
1400,1400,-0.8959678635669857,-0.9,1.0,0.0,405.0,972.0,0.0,0,103.0,1
1401,1401,0.5786682464880123,0.6,0.0,0.0,287.0,561.0,0.0,1,262.0,1
1402,1402,0.7929456289871509,0.8,0.0,0.0,393.0,621.0,0.0,1,176.0,1
1403,1403,-0.19442900657963136,-0.2,0.0,1.0,270.0,579.0,1.0,0,271.0,1
1404,1404,0.3033830762615247,0.3,1.0,1.0,379.0,851.0,1.0,1,190.0,1
1405,1405,-0.3485151355977125,-0.3,1.0,0.0,364.0,553.0,0.0,0,313.0,1
1406,1406,-0.7153921573325674,-0.7,1.0,0.0,292.0,734.0,0.0,0,304.0,1
1407,1407,-0.23239885088165801,-0.2,1.0,0.0,263.0,933.0,0.0,0,194.0,1
1408,1408,0.3109389338645169,0.3,1.0,1.0,432.0,512.0,1.0,1,336.0,1
1409,1409,0.14191198022832185,0.1,0.0,0.0,421.0,881.0,0.0,1,378.0,1
1410,1410,0.8877633864641857,0.9,0.0,0.0,353.0,928.0,0.0,1,149.0,1
1411,1411,0.5089014720164059,0.5,0.0,0.0,448.0,518.0,0.0,1,264.0,1
1412,1412,-0.3897633081154982,-0.4,0.0,1.0,396.0,631.0,1.0,0,543.0,1
1413,1413,0.15198400352169117,0.2,0.0,0.0,401.0,556.0,0.0,1,523.0,1
1414,1414,-0.054909103827204486,-0.1,1.0,0.0,263.0,805.0,0.0,0,1932.0,1
1415,1415,0.8565710830724721,0.9,0.0,0.0,333.0,877.0,0.0,1,90.0,1
1416,1416,-0.2687324016258067,-0.3,0.0,1.0,353.0,915.0,1.0,0,242.0,1
1417,1417,-0.6290966998093579,-0.6,1.0,0.0,442.0,537.0,0.0,0,221.0,1
1418,1418,0.814142460258478,0.8,0.0,0.0,276.0,700.0,0.0,1,144.0,1
1419,1419,-0.8059393835652117,-0.8,0.0,1.0,334.0,597.0,1.0,0,139.0,1
1420,1420,0.4240911730791356,0.4,1.0,1.0,422.0,731.0,1.0,1,177.0,1
1421,1421,-0.8327308216687415,-0.8,0.0,1.0,412.0,720.0,1.0,0,168.0,1
1422,1422,-0.6151204956831144,-0.6,0.0,1.0,463.0,579.0,1.0,0,148.0,1
1423,1423,0.27554885022398257,0.3,0.0,0.0,401.0,637.0,0.0,1,562.0,1
1424,1424,0.16250339844681638,0.2,1.0,1.0,287.0,968.0,1.0,1,165.0,1
1425,1425,0.28162298837217425,0.3,0.0,0.0,480.0,638.0,0.0,1,372.0,1
1426,1426,-0.02203901136107722,-0.0,0.0,1.0,471.0,581.0,1.0,0,1948.0,1
1427,1427,0.3830005771871393,0.4,1.0,1.0,439.0,844.0,1.0,1,167.0,1
1428,1428,0.38891270075856277,0.4,0.0,0.0,451.0,640.0,0.0,1,379.0,1
1429,1429,0.7109541110720102,0.7,1.0,1.0,305.0,713.0,1.0,1,262.0,1
1430,1430,0.893180206026538,0.9,0.0,0.0,275.0,570.0,0.0,1,215.0,1
1431,1431,0.33378569056941687,0.3,0.0,0.0,327.0,744.0,0.0,1,229.0,1
1432,1432,0.18036086056214262,0.2,0.0,0.0,341.0,536.0,0.0,1,663.0,1
1433,1433,-0.02901084422685407,-0.0,0.0,1.0,402.0,563.0,1.0,0,2035.0,1
1434,1434,-0.5702574198232901,-0.6,0.0,1.0,250.0,953.0,1.0,0,207.0,1
1435,1435,-0.8640880875945206,-0.9,1.0,0.0,302.0,846.0,0.0,0,192.0,1
1436,1436,-0.6655560579244195,-0.7,1.0,0.0,396.0,677.0,0.0,0,277.0,1
1437,1437,0.40200907290778976,0.4,1.0,1.0,343.0,589.0,1.0,1,198.0,1
1438,1438,0.31526037686112074,0.3,1.0,1.0,312.0,827.0,1.0,1,201.0,1
1439,1439,0.7159034563909029,0.7,0.0,0.0,491.0,525.0,0.0,1,134.0,1
1440,1440,-0.7382479527713184,-0.7,1.0,0.0,417.0,761.0,0.0,0,102.0,1
1441,1441,0.6297075166261784,0.6,1.0,1.0,292.0,735.0,1.0,1,253.0,1
1442,1442,-0.365986617790946,-0.4,1.0,0.0,458.0,765.0,0.0,0,157.0,1
1443,1443,0.817401696947793,0.8,0.0,0.0,253.0,574.0,0.0,1,173.0,1
1444,1444,0.43906196631705063,0.4,0.0,0.0,416.0,720.0,0.0,1,204.0,1
1445,1445,-0.028889535631574925,-0.0,1.0,0.0,386.0,837.0,1.0,1,97.0,0
1446,1446,0.25094421600727,0.3,0.0,0.0,452.0,786.0,0.0,1,412.0,1
1447,1447,0.7135215611938451,0.7,0.0,0.0,443.0,793.0,0.0,1,164.0,1
1448,1448,-0.32877507295039476,-0.3,0.0,1.0,279.0,571.0,1.0,0,90.0,1
1449,1449,-0.3957323716444169,-0.4,1.0,0.0,491.0,605.0,0.0,0,334.0,1
1450,1450,0.02794164742199956,0.0,0.0,0.0,446.0,554.0,1.0,0,780.0,0
1451,1451,-0.6080978052933785,-0.6,1.0,0.0,387.0,816.0,1.0,1,-113.0,0
1452,1452,-0.6145496051349755,-0.6,1.0,0.0,453.0,557.0,0.0,0,220.0,1
1453,1453,0.6850372062037623,0.7,1.0,1.0,297.0,504.0,1.0,1,139.0,1
1454,1454,0.4667726602747878,0.5,1.0,1.0,284.0,841.0,1.0,1,195.0,1
1455,1455,0.0769081615496533,0.1,1.0,1.0,400.0,783.0,1.0,1,327.0,1
1456,1456,0.5454888337255875,0.5,0.0,0.0,339.0,624.0,0.0,1,277.0,1
1457,1457,-0.29580335107569933,-0.3,0.0,1.0,475.0,885.0,1.0,0,230.0,1
1458,1458,0.8374915710955776,0.8,1.0,1.0,393.0,865.0,1.0,1,72.0,1
1459,1459,0.8315789457786112,0.8,1.0,1.0,416.0,542.0,1.0,1,182.0,1
1460,1460,0.36061217891215913,0.4,0.0,0.0,305.0,601.0,0.0,1,274.0,1
1461,1461,0.7053160355984714,0.7,1.0,1.0,416.0,589.0,1.0,1,305.0,1
1462,1462,0.23698911062729067,0.2,1.0,1.0,308.0,792.0,1.0,1,520.0,1
1463,1463,-0.6012048129754424,-0.6,1.0,0.0,491.0,658.0,1.0,1,-199.0,0
1464,1464,-0.18950392695279095,-0.2,1.0,0.0,278.0,552.0,0.0,0,550.0,1
1465,1465,-0.1949941196298789,-0.2,1.0,0.0,292.0,749.0,0.0,0,359.0,1
1466,1466,0.4869540495704142,0.5,1.0,1.0,445.0,696.0,1.0,1,209.0,1
1467,1467,0.27105482406149883,0.3,1.0,1.0,407.0,900.0,1.0,1,423.0,1
1468,1468,-0.5113859026184036,-0.5,1.0,0.0,337.0,629.0,0.0,0,344.0,1
1469,1469,0.36043809033475516,0.4,1.0,1.0,320.0,569.0,1.0,1,311.0,1
1470,1470,-0.13833014431434842,-0.1,1.0,0.0,349.0,549.0,0.0,0,492.0,1
1471,1471,0.22638740229762788,0.2,0.0,0.0,457.0,618.0,0.0,1,345.0,1
1472,1472,-0.3445844128422456,-0.3,0.0,1.0,413.0,944.0,1.0,0,3.0,1
1473,1473,-0.14861017851955494,-0.1,0.0,1.0,396.0,899.0,1.0,0,45.0,1
1474,1474,-0.37410627964134324,-0.4,1.0,0.0,324.0,774.0,0.0,0,182.0,1
1475,1475,0.06533543754144089,0.1,1.0,1.0,366.0,519.0,1.0,1,2115.0,1
1476,1476,-0.27680251984771387,-0.3,1.0,0.0,353.0,505.0,0.0,0,392.0,1
1477,1477,0.12500074362553815,0.1,1.0,1.0,290.0,778.0,1.0,1,142.0,1
1478,1478,0.6626726684868002,0.7,1.0,1.0,410.0,616.0,1.0,1,344.0,1
1479,1479,-0.260816336463384,-0.3,1.0,0.0,318.0,952.0,0.0,0,400.0,1
1480,1480,-0.6190973512501946,-0.6,1.0,0.0,423.0,873.0,0.0,0,124.0,1
1481,1481,0.35158832619761216,0.4,1.0,1.0,425.0,725.0,1.0,1,310.0,1
1482,1482,0.1684128299499551,0.2,0.0,0.0,251.0,647.0,0.0,1,812.0,1
1483,1483,0.257867418435484,0.3,0.0,0.0,397.0,807.0,0.0,1,236.0,1
1484,1484,0.698693103614418,0.7,0.0,0.0,251.0,818.0,0.0,1,61.0,1
1485,1485,0.06673296001752604,0.1,0.0,0.0,484.0,757.0,0.0,1,1319.0,1
1486,1486,-0.22696362001300563,-0.2,0.0,1.0,458.0,650.0,1.0,0,332.0,1
1487,1487,0.4686532769595467,0.5,0.0,0.0,348.0,865.0,0.0,1,157.0,1
1488,1488,0.2269596752806139,0.2,1.0,1.0,337.0,668.0,1.0,1,505.0,1
1489,1489,0.6018686419343163,0.6,1.0,1.0,483.0,613.0,1.0,1,194.0,1
1490,1490,-0.4709548469885053,-0.5,1.0,0.0,362.0,761.0,0.0,0,367.0,1
1491,1491,0.4492849510327469,0.4,0.0,0.0,309.0,884.0,0.0,1,167.0,1
1492,1492,-0.4022834327879053,-0.4,1.0,0.0,387.0,843.0,0.0,0,200.0,1
1493,1493,0.44673520361334373,0.4,1.0,1.0,492.0,751.0,1.0,1,117.0,1
1494,1494,-0.46894757238736173,-0.5,0.0,1.0,494.0,789.0,1.0,0,147.0,1
1495,1495,-0.8768418755571108,-0.9,1.0,0.0,316.0,795.0,0.0,0,399.0,1
