,trial,coherence,coherence_bin,green_side,correct_side,target_onset,checker_onset,decision,green_decision,decision_time,correct_decision
0,0,-0.2047695792064521,-0.2,1.0,0.0,479.0,981.0,0.0,0,1540.0,1
1,1,0.7455711684872114,0.7,0.0,0.0,312.0,697.0,0.0,1,951.0,1
2,2,-0.051482385356282245,-0.1,1.0,0.0,498.0,952.0,1.0,1,-380.0,0
3,3,-0.36205044956607535,-0.4,1.0,0.0,256.0,739.0,0.0,0,-405.0,1
4,4,-0.8136099657797817,-0.8,1.0,0.0,302.0,712.0,0.0,0,136.0,1
5,5,0.09861619828511892,0.1,0.0,0.0,421.0,995.0,0.0,1,-666.0,1
6,6,0.7885096269435533,0.8,0.0,0.0,420.0,842.0,0.0,1,878.0,1
7,7,0.8184085496686925,0.8,0.0,0.0,283.0,578.0,0.0,1,869.0,1
8,8,0.33586941796315595,0.3,1.0,1.0,300.0,875.0,0.0,0,315.0,0
9,9,-0.3335547962527433,-0.3,1.0,0.0,407.0,985.0,0.0,0,-1192.0,1
10,10,0.633273489717589,0.6,1.0,1.0,442.0,997.0,0.0,0,-439.0,0
11,11,0.23089930309365536,0.2,0.0,0.0,276.0,673.0,0.0,1,-629.0,1
12,12,-0.5471913153632624,-0.5,1.0,0.0,445.0,534.0,0.0,0,191.0,1
13,13,0.08732551394551491,0.1,1.0,1.0,378.0,805.0,0.0,0,1437.0,0
14,14,-0.6057624018185614,-0.6,1.0,0.0,291.0,926.0,0.0,0,1783.0,1
15,15,0.7587975160442294,0.8,1.0,1.0,333.0,607.0,0.0,0,160.0,0
16,16,-0.5913829067591697,-0.6,1.0,0.0,379.0,761.0,0.0,0,-750.0,1
17,17,-0.4953462972342301,-0.5,0.0,1.0,319.0,935.0,0.0,1,36.0,0
18,18,0.25951705718539764,0.3,0.0,0.0,455.0,749.0,0.0,1,506.0,1
19,19,0.46218027318709,0.5,0.0,0.0,263.0,838.0,0.0,1,-241.0,1
20,20,0.3975659228217613,0.4,1.0,1.0,272.0,794.0,0.0,0,-216.0,0
21,21,0.3198211240955081,0.3,1.0,1.0,350.0,910.0,0.0,0,490.0,0
22,22,0.008459762026773898,0.0,0.0,0.0,372.0,903.0,0.0,1,-945.0,1
23,23,0.7052858851182989,0.7,1.0,1.0,288.0,913.0,0.0,0,1799.0,0
24,24,-0.5934778717154454,-0.6,0.0,1.0,290.0,874.0,1.0,0,1836.0,1
25,25,-0.3558233225298547,-0.4,0.0,1.0,489.0,877.0,0.0,1,-1276.0,0
26,26,0.19517263658589468,0.2,0.0,0.0,377.0,714.0,0.0,1,-691.0,1
27,27,-0.3183632302046029,-0.3,0.0,1.0,349.0,637.0,0.0,1,-76.0,0
28,28,0.04422040964334073,0.0,1.0,1.0,269.0,552.0,0.0,0,599.0,0
29,29,0.3106869052249296,0.3,1.0,1.0,399.0,942.0,0.0,0,-1331.0,0
30,30,-0.428158619158383,-0.4,1.0,0.0,474.0,973.0,0.0,0,-77.0,1
31,31,-0.6734791686124875,-0.7,1.0,0.0,474.0,796.0,0.0,0,-780.0,1
32,32,0.30378236966486194,0.3,0.0,0.0,421.0,888.0,1.0,0,641.0,0
33,33,-0.474319628359895,-0.5,1.0,0.0,315.0,696.0,0.0,0,-831.0,1
34,34,0.8754754536676416,0.9,0.0,0.0,370.0,967.0,0.0,1,-77.0,1
35,35,0.17566332292230868,0.2,0.0,0.0,292.0,868.0,1.0,0,1840.0,0
36,36,0.07010213300619972,0.1,0.0,0.0,344.0,837.0,0.0,1,219.0,1
37,37,-0.36997558611903225,-0.4,0.0,1.0,424.0,889.0,0.0,1,-1273.0,0
38,38,-0.6474894434583107,-0.6,1.0,0.0,310.0,563.0,0.0,0,337.0,1
39,39,0.7303724192814868,0.7,0.0,0.0,481.0,980.0,1.0,0,-991.0,0
40,40,0.497618295487369,0.5,0.0,0.0,287.0,810.0,0.0,1,163.0,1
41,41,0.5600605356081206,0.6,1.0,1.0,291.0,953.0,0.0,0,186.0,0
42,42,-0.8185905823311828,-0.8,0.0,1.0,285.0,517.0,0.0,1,2198.0,0
43,43,-0.5337522552339156,-0.5,0.0,1.0,376.0,880.0,0.0,1,-436.0,0
44,44,-0.544159216948563,-0.5,1.0,0.0,342.0,686.0,0.0,0,-428.0,1
45,45,0.04110410904681472,0.0,0.0,0.0,329.0,626.0,0.0,1,2045.0,1
46,46,0.6884307695704207,0.7,1.0,1.0,286.0,714.0,1.0,1,2000.0,1
47,47,-0.21959307054450894,-0.2,0.0,1.0,486.0,976.0,1.0,0,-872.0,1
48,48,0.484088628855435,0.5,1.0,1.0,391.0,961.0,1.0,1,1648.0,1
49,49,-0.6758824413008144,-0.7,1.0,0.0,480.0,969.0,0.0,0,1461.0,1
50,50,-0.4879827178028438,-0.5,0.0,1.0,272.0,849.0,1.0,0,1879.0,1
51,51,-0.07952757158106405,-0.1,1.0,0.0,454.0,958.0,0.0,0,-232.0,1
52,52,-0.7768042124373037,-0.8,0.0,1.0,348.0,595.0,0.0,1,-933.0,0
53,53,-0.39316232909914406,-0.4,1.0,0.0,412.0,869.0,0.0,0,1719.0,1
54,54,-0.09539300625928515,-0.1,0.0,1.0,289.0,879.0,0.0,1,-1128.0,0
55,55,0.6734717874561283,0.7,1.0,1.0,415.0,972.0,0.0,0,-1327.0,0
56,56,-0.6162772445016476,-0.6,1.0,0.0,488.0,747.0,0.0,0,45.0,1
57,57,-0.378598952005089,-0.4,0.0,1.0,362.0,829.0,0.0,1,-451.0,0
58,58,0.3494220628872845,0.3,1.0,1.0,486.0,895.0,0.0,0,-361.0,0
59,59,-0.36304062809146853,-0.4,1.0,0.0,458.0,839.0,0.0,0,-777.0,1
60,60,-0.23968701171209195,-0.2,0.0,1.0,356.0,744.0,0.0,1,-700.0,0
61,61,0.37638953614826265,0.4,0.0,0.0,269.0,799.0,0.0,1,-238.0,1
62,62,-0.025372936683070835,-0.0,1.0,0.0,392.0,705.0,0.0,0,-487.0,1
63,63,0.162465827446845,0.2,0.0,0.0,372.0,580.0,1.0,0,-542.0,0
64,64,-0.1681444482741179,-0.2,0.0,1.0,420.0,768.0,0.0,1,-648.0,0
65,65,0.17686491420646433,0.2,1.0,1.0,324.0,674.0,0.0,0,-348.0,0
66,66,-0.06745917736911444,-0.1,0.0,1.0,317.0,773.0,0.0,1,-370.0,0
67,67,0.06766602142356659,0.1,0.0,0.0,330.0,901.0,0.0,1,499.0,1
68,68,-0.056429305915811634,-0.1,0.0,1.0,322.0,532.0,0.0,1,-14.0,0
69,69,-0.6830953113688214,-0.7,0.0,1.0,441.0,558.0,0.0,1,-879.0,0
70,70,-0.8027829234766359,-0.8,1.0,0.0,451.0,862.0,0.0,0,-553.0,1
71,71,0.70226264424697,0.7,1.0,1.0,290.0,843.0,0.0,0,1757.0,0
72,72,-0.6896587792427564,-0.7,1.0,0.0,256.0,580.0,0.0,0,1854.0,1
73,73,-0.6943400978761756,-0.7,1.0,0.0,308.0,815.0,0.0,0,-773.0,1
74,74,-0.04536949814749314,-0.0,0.0,1.0,389.0,865.0,0.0,1,316.0,0
75,75,-0.12605099968334332,-0.1,1.0,0.0,384.0,572.0,0.0,0,-306.0,1
76,76,0.4360365207737241,0.4,1.0,1.0,484.0,601.0,0.0,0,-885.0,0
77,77,-0.4699251265125319,-0.5,1.0,0.0,400.0,940.0,0.0,0,-600.0,1
78,78,0.6684117705365052,0.7,0.0,0.0,358.0,967.0,0.0,1,545.0,1
79,79,-0.43500499137303034,-0.4,0.0,1.0,303.0,835.0,0.0,1,-1108.0,0
80,80,0.6448500011813169,0.6,1.0,1.0,486.0,666.0,0.0,0,-1092.0,0
81,81,-0.395199103970443,-0.4,0.0,1.0,435.0,890.0,0.0,1,-765.0,0
82,82,-0.12423526378060334,-0.1,1.0,0.0,439.0,666.0,0.0,0,1415.0,1
83,83,0.6755393849626393,0.7,1.0,1.0,312.0,720.0,0.0,0,-782.0,0
84,84,0.17716699630552657,0.2,1.0,1.0,264.0,707.0,1.0,1,2029.0,1
85,85,-0.7124132217960144,-0.7,1.0,0.0,368.0,516.0,0.0,0,1516.0,1
86,86,-0.18325222478000114,-0.2,0.0,1.0,436.0,837.0,0.0,1,-743.0,0
87,87,0.00960807758688531,0.0,0.0,0.0,263.0,743.0,0.0,1,-246.0,1
88,88,-0.3541280326294419,-0.4,0.0,1.0,329.0,510.0,0.0,1,351.0,0
89,89,-0.45370518207669563,-0.5,0.0,1.0,433.0,656.0,0.0,1,-819.0,0
90,90,0.48014877331372563,0.5,1.0,1.0,360.0,527.0,0.0,0,-37.0,0
91,91,0.17866529629377326,0.2,1.0,1.0,411.0,825.0,0.0,0,-156.0,0
92,92,-0.6377560047337321,-0.6,0.0,1.0,373.0,862.0,0.0,1,-195.0,0
93,93,-0.5219512317779402,-0.5,1.0,0.0,283.0,799.0,0.0,0,-422.0,1
94,94,-0.5210648600359384,-0.5,1.0,0.0,441.0,682.0,1.0,1,817.0,0
95,95,-0.7574792044232641,-0.8,0.0,1.0,409.0,730.0,0.0,1,1411.0,0
96,96,0.8168978129741838,0.8,1.0,1.0,450.0,625.0,0.0,0,-935.0,0
97,97,0.15676524163404515,0.2,1.0,1.0,262.0,651.0,0.0,0,-583.0,0
98,98,-0.7194844910394803,-0.7,0.0,1.0,407.0,763.0,0.0,1,250.0,0
99,99,0.3949305768026202,0.4,1.0,1.0,399.0,557.0,0.0,0,1964.0,0
100,100,0.2508448735317129,0.3,0.0,0.0,382.0,701.0,1.0,0,-643.0,0
101,101,0.38227070329498625,0.4,0.0,0.0,476.0,554.0,0.0,1,940.0,1
102,102,0.6415010622793255,0.6,1.0,1.0,377.0,576.0,0.0,0,-883.0,0
103,103,0.6693112160109581,0.7,1.0,1.0,447.0,501.0,0.0,0,1132.0,0
104,104,0.7559208785572361,0.8,0.0,0.0,332.0,733.0,0.0,1,55.0,1
105,105,-0.12441815429712066,-0.1,0.0,1.0,357.0,514.0,0.0,1,19.0,0
106,106,-0.7160894243745247,-0.7,0.0,1.0,469.0,756.0,0.0,1,-945.0,0
107,107,0.5236729965007386,0.5,1.0,1.0,270.0,998.0,0.0,0,-898.0,0
108,108,-0.2991003743363685,-0.3,0.0,1.0,254.0,717.0,0.0,1,489.0,0
109,109,0.6498750511883412,0.6,0.0,0.0,364.0,657.0,0.0,1,-91.0,1
110,110,-0.3861543683675899,-0.4,0.0,1.0,470.0,661.0,0.0,1,-701.0,0
111,111,0.6548740148674849,0.7,0.0,0.0,493.0,624.0,0.0,1,503.0,1
112,112,0.8044822260511993,0.8,0.0,0.0,388.0,508.0,0.0,1,-356.0,1
113,113,-0.36383814851587093,-0.4,1.0,0.0,330.0,800.0,0.0,0,1500.0,1
114,114,-0.5560786339003021,-0.6,1.0,0.0,314.0,672.0,0.0,0,594.0,1
115,115,-0.8164602974096822,-0.8,1.0,0.0,421.0,612.0,1.0,1,1967.0,0
116,116,-0.629345002180519,-0.6,1.0,0.0,288.0,636.0,0.0,0,1706.0,1
117,117,0.5601013898027033,0.6,1.0,1.0,393.0,963.0,0.0,0,-256.0,0
118,118,-0.2867582061192667,-0.3,0.0,1.0,294.0,812.0,0.0,1,-1026.0,0
119,119,-0.15359818675524728,-0.2,0.0,1.0,256.0,740.0,1.0,0,2004.0,1
120,120,0.3321629018898301,0.3,0.0,0.0,358.0,759.0,0.0,1,863.0,1
121,121,0.30682802786959196,0.3,0.0,0.0,310.0,855.0,1.0,0,1835.0,0
122,122,0.8873648918848275,0.9,0.0,0.0,333.0,709.0,0.0,1,1958.0,1
123,123,-0.140708817017677,-0.1,0.0,1.0,487.0,733.0,0.0,1,830.0,0
124,124,0.023347815206201217,0.0,0.0,0.0,299.0,980.0,0.0,1,11.0,1
125,125,0.38993485923411153,0.4,0.0,0.0,494.0,867.0,1.0,0,-1311.0,0
126,126,-0.0792985450634427,-0.1,1.0,0.0,473.0,623.0,0.0,0,504.0,1
127,127,0.542358710811169,0.5,1.0,1.0,337.0,909.0,1.0,1,-76.0,1
128,128,0.8226988132164129,0.8,0.0,0.0,268.0,512.0,0.0,1,-140.0,1
129,129,-0.8839270366445694,-0.9,1.0,0.0,469.0,589.0,0.0,0,-948.0,1
130,130,0.41317287103447364,0.4,1.0,1.0,352.0,773.0,0.0,0,-1005.0,0
131,131,0.48810941824412646,0.5,1.0,1.0,270.0,635.0,0.0,0,-455.0,0
132,132,0.1313826295476489,0.1,0.0,0.0,346.0,615.0,0.0,1,-771.0,1
133,133,0.786837834975667,0.8,0.0,0.0,315.0,669.0,0.0,1,2016.0,1
134,134,0.4606111109007015,0.5,1.0,1.0,277.0,962.0,0.0,0,-899.0,0
135,135,0.4920647642126815,0.5,1.0,1.0,411.0,909.0,0.0,0,-900.0,0
136,136,-0.5179148585416019,-0.5,0.0,1.0,450.0,988.0,0.0,1,-1188.0,0
137,137,0.04642634902520293,0.0,0.0,0.0,295.0,808.0,0.0,1,1517.0,1
138,138,0.02740965148768848,0.0,1.0,1.0,286.0,651.0,1.0,1,2063.0,1
139,139,-0.04322020717277286,-0.0,0.0,1.0,320.0,841.0,0.0,1,1619.0,0
140,140,0.35338105907978423,0.4,1.0,1.0,334.0,755.0,0.0,0,-259.0,0
141,141,-0.8310371497022107,-0.8,0.0,1.0,345.0,845.0,1.0,0,1610.0,1
142,142,-0.7917447477150743,-0.8,0.0,1.0,259.0,840.0,0.0,1,-389.0,0
143,143,0.6548549490024521,0.7,1.0,1.0,486.0,836.0,0.0,0,-912.0,0
144,144,0.6283997950021304,0.6,0.0,0.0,262.0,988.0,0.0,1,-1000.0,1
145,145,-0.7840476478820736,-0.8,1.0,0.0,306.0,761.0,0.0,0,-207.0,1
146,146,0.13939165615256754,0.1,0.0,0.0,338.0,647.0,0.0,1,645.0,1
147,147,0.30036247630851876,0.3,1.0,1.0,261.0,818.0,0.0,0,-429.0,0
148,148,0.5944999699537622,0.6,1.0,1.0,474.0,917.0,1.0,1,789.0,1
149,149,0.31733492125080975,0.3,0.0,0.0,380.0,852.0,0.0,1,-892.0,1
150,150,0.12984931243161613,0.1,1.0,1.0,346.0,851.0,0.0,0,-1117.0,0
151,151,0.43236091745413285,0.4,1.0,1.0,441.0,549.0,1.0,1,2010.0,1
152,152,-0.7722648014488185,-0.8,1.0,0.0,381.0,540.0,0.0,0,229.0,1
153,153,0.7900851275932345,0.8,0.0,0.0,428.0,801.0,0.0,1,-1169.0,1
154,154,-0.23178197441455528,-0.2,0.0,1.0,301.0,642.0,0.0,1,1037.0,0
155,155,0.6831694165695715,0.7,1.0,1.0,469.0,892.0,0.0,0,-1261.0,0
156,156,0.004120493326577046,0.0,0.0,0.0,369.0,750.0,0.0,1,601.0,1
157,157,0.7764697919873184,0.8,0.0,0.0,278.0,877.0,0.0,1,-15.0,1
158,158,0.5213808643603265,0.5,1.0,1.0,344.0,675.0,0.0,0,31.0,0
159,159,-0.27167224545766955,-0.3,0.0,1.0,470.0,965.0,0.0,1,445.0,0
160,160,0.1816070794169794,0.2,1.0,1.0,295.0,522.0,0.0,0,-257.0,0
161,161,-0.2068959072542762,-0.2,0.0,1.0,297.0,989.0,0.0,1,-966.0,0
162,162,-0.8140090062870308,-0.8,1.0,0.0,404.0,641.0,0.0,0,-145.0,1
163,163,-0.8083048099500558,-0.8,1.0,0.0,464.0,618.0,0.0,0,-1082.0,1
164,164,0.868839641838652,0.9,0.0,0.0,285.0,667.0,0.0,1,-782.0,1
165,165,-0.7697410383784702,-0.8,1.0,0.0,491.0,581.0,0.0,0,-542.0,1
166,166,-0.1244272041793264,-0.1,0.0,1.0,282.0,886.0,0.0,1,-78.0,0
167,167,0.7992989798474149,0.8,0.0,0.0,464.0,675.0,1.0,0,1861.0,0
168,168,0.5861419114438101,0.6,0.0,0.0,465.0,970.0,0.0,1,-735.0,1
169,169,0.32802148768892125,0.3,0.0,0.0,332.0,687.0,0.0,1,261.0,1
170,170,-0.6396786133946222,-0.6,1.0,0.0,288.0,766.0,0.0,0,-724.0,1
171,171,0.07854056544233112,0.1,1.0,1.0,398.0,513.0,0.0,0,-731.0,0
172,172,0.04669655642488013,0.0,1.0,1.0,269.0,528.0,0.0,0,-717.0,0
173,173,-0.062476617988832306,-0.1,1.0,0.0,418.0,882.0,0.0,0,-930.0,1
174,174,-0.827118595092646,-0.8,0.0,1.0,379.0,678.0,0.0,1,-1027.0,0
175,175,-0.37351395466230997,-0.4,0.0,1.0,363.0,768.0,0.0,1,1069.0,0
176,176,-0.3732766967910218,-0.4,0.0,1.0,470.0,603.0,0.0,1,-583.0,0
177,177,0.0662805358449694,0.1,1.0,1.0,337.0,870.0,0.0,0,773.0,0
178,178,-0.28658373153811245,-0.3,0.0,1.0,265.0,907.0,0.0,1,-112.0,0
179,179,0.7011957785131725,0.7,0.0,0.0,463.0,933.0,0.0,1,-776.0,1
180,180,-0.7608765322230663,-0.8,1.0,0.0,363.0,687.0,1.0,1,1950.0,0
181,181,-0.48786323879860355,-0.5,0.0,1.0,338.0,840.0,1.0,0,1012.0,1
182,182,-0.36336291790887565,-0.4,1.0,0.0,315.0,772.0,0.0,0,-477.0,1
183,183,-0.8225886682840705,-0.8,0.0,1.0,445.0,774.0,0.0,1,311.0,0
184,184,0.8407468483099197,0.8,0.0,0.0,302.0,583.0,0.0,1,835.0,1
185,185,-0.2343659001959908,-0.2,0.0,1.0,366.0,562.0,0.0,1,-638.0,0
186,186,-0.2765528702101967,-0.3,1.0,0.0,251.0,529.0,0.0,0,-260.0,1
187,187,-0.4748678410985321,-0.5,1.0,0.0,343.0,563.0,0.0,0,-176.0,1
188,188,0.3655200248332854,0.4,0.0,0.0,393.0,718.0,0.0,1,-541.0,1
189,189,0.8247694609579491,0.8,0.0,0.0,373.0,542.0,0.0,1,-885.0,1
190,190,0.46913607508802657,0.5,1.0,1.0,295.0,686.0,0.0,0,-731.0,0
191,191,0.6112562765386319,0.6,0.0,0.0,358.0,846.0,0.0,1,-1054.0,1
192,192,-0.6532613356862355,-0.7,1.0,0.0,356.0,748.0,0.0,0,-634.0,1
193,193,0.8517755639870798,0.9,1.0,1.0,370.0,769.0,0.0,0,-689.0,0
194,194,0.8504018597365653,0.9,1.0,1.0,318.0,640.0,0.0,0,-828.0,0
195,195,0.10046343684153969,0.1,1.0,1.0,377.0,843.0,0.0,0,-210.0,0
196,196,0.008545429636329538,0.0,1.0,1.0,281.0,935.0,0.0,0,-1216.0,0
197,197,-0.2833965736896802,-0.3,0.0,1.0,442.0,561.0,1.0,0,1607.0,1
198,198,-0.3004089086377838,-0.3,0.0,1.0,418.0,783.0,0.0,1,-61.0,0
199,199,-0.14059281178193805,-0.1,1.0,0.0,269.0,511.0,1.0,1,780.0,0
200,200,0.5765897766614364,0.6,0.0,0.0,458.0,829.0,0.0,1,763.0,1
201,201,-0.7785084419471565,-0.8,0.0,1.0,398.0,770.0,0.0,1,-348.0,0
202,202,0.7538970733124083,0.8,0.0,0.0,335.0,811.0,0.0,1,864.0,1
203,203,0.41879618304408617,0.4,0.0,0.0,333.0,702.0,1.0,0,1965.0,0
204,204,0.31400753979616514,0.3,0.0,0.0,276.0,926.0,1.0,0,1798.0,0
205,205,0.6184044199793491,0.6,1.0,1.0,442.0,966.0,0.0,0,-778.0,0
206,206,0.3389316878093832,0.3,1.0,1.0,320.0,506.0,0.0,0,-566.0,0
207,207,-0.22470487506661008,-0.2,1.0,0.0,477.0,714.0,0.0,0,-21.0,1
208,208,-0.8889322180257555,-0.9,1.0,0.0,255.0,983.0,0.0,0,-978.0,1
209,209,-0.7039675998808449,-0.7,0.0,1.0,266.0,600.0,1.0,0,374.0,1
210,210,-0.799978402760984,-0.8,0.0,1.0,322.0,842.0,0.0,1,-1054.0,0
211,211,-0.3158124045945039,-0.3,0.0,1.0,318.0,996.0,0.0,1,-1134.0,0
212,212,-0.5511855429031969,-0.6,0.0,1.0,250.0,500.0,0.0,1,-290.0,0
213,213,-0.5481860615118632,-0.5,0.0,1.0,262.0,939.0,0.0,1,-1141.0,0
214,214,-0.5006683946294559,-0.5,0.0,1.0,496.0,856.0,0.0,1,-1242.0,0
215,215,-0.7936538664410683,-0.8,0.0,1.0,378.0,950.0,1.0,0,-468.0,1
216,216,-0.08811425856124133,-0.1,1.0,0.0,389.0,925.0,0.0,0,1636.0,1
217,217,-0.289945224779799,-0.3,1.0,0.0,345.0,556.0,0.0,0,-531.0,1
218,218,-0.5058183838434243,-0.5,1.0,0.0,390.0,601.0,0.0,0,1269.0,1
219,219,0.79622534303005,0.8,1.0,1.0,340.0,590.0,0.0,0,570.0,0
220,220,-0.6197677113290241,-0.6,0.0,1.0,255.0,795.0,0.0,1,70.0,0
221,221,0.5835150701808806,0.6,0.0,0.0,481.0,895.0,0.0,1,-966.0,1
222,222,0.3043384787960227,0.3,1.0,1.0,473.0,785.0,0.0,0,82.0,0
223,223,0.7295365815390759,0.7,1.0,1.0,304.0,563.0,0.0,0,1673.0,0
224,224,0.8993389241131632,0.9,0.0,0.0,435.0,676.0,0.0,1,309.0,1
225,225,0.23846174581405466,0.2,1.0,1.0,412.0,631.0,0.0,0,-293.0,0
226,226,0.2852961249316578,0.3,1.0,1.0,412.0,682.0,0.0,0,1746.0,0
227,227,-0.28537912235688834,-0.3,1.0,0.0,408.0,955.0,0.0,0,-603.0,1
228,228,0.6846870842352865,0.7,1.0,1.0,336.0,574.0,0.0,0,590.0,0
229,229,-0.19455067359772238,-0.2,1.0,0.0,360.0,814.0,1.0,1,-1124.0,0
230,230,0.19792075327754743,0.2,1.0,1.0,305.0,767.0,0.0,0,-462.0,0
231,231,-0.5400114469605324,-0.5,0.0,1.0,391.0,506.0,0.0,1,-607.0,0
232,232,-0.7308923328235908,-0.7,0.0,1.0,366.0,603.0,0.0,1,-709.0,0
233,233,0.1283430794077921,0.1,0.0,0.0,396.0,546.0,0.0,1,-182.0,1
234,234,-0.6991555760720416,-0.7,1.0,0.0,277.0,599.0,0.0,0,2124.0,1
235,235,0.20455672806266179,0.2,0.0,0.0,343.0,793.0,0.0,1,-256.0,1
236,236,-0.7322240154141118,-0.7,0.0,1.0,354.0,839.0,0.0,1,347.0,0
237,237,0.8441236731561891,0.8,1.0,1.0,291.0,890.0,0.0,0,379.0,0
238,238,-0.26456596344084116,-0.3,1.0,0.0,332.0,540.0,0.0,0,-422.0,1
239,239,0.41406688326085284,0.4,1.0,1.0,469.0,909.0,1.0,1,632.0,1
240,240,-0.40892937198670437,-0.4,1.0,0.0,313.0,510.0,1.0,1,2177.0,0
241,241,0.07833200687642061,0.1,1.0,1.0,439.0,787.0,0.0,0,424.0,0
242,242,0.7050554453171539,0.7,0.0,0.0,338.0,596.0,0.0,1,-314.0,1
243,243,-0.2658858070346096,-0.3,1.0,0.0,255.0,594.0,0.0,0,-649.0,1
244,244,-0.5419085397488703,-0.5,0.0,1.0,376.0,505.0,1.0,0,2119.0,1
245,245,-0.32182222854289666,-0.3,1.0,0.0,341.0,981.0,0.0,0,38.0,1
246,246,-0.5720763463635414,-0.6,1.0,0.0,263.0,550.0,0.0,0,647.0,1
247,247,-0.6252995068145695,-0.6,0.0,1.0,445.0,696.0,0.0,1,-681.0,0
248,248,0.8853684232217883,0.9,1.0,1.0,332.0,781.0,0.0,0,-533.0,0
249,249,-0.21482640042092427,-0.2,1.0,0.0,369.0,980.0,0.0,0,1081.0,1
250,250,-0.41944106838959283,-0.4,0.0,1.0,402.0,904.0,1.0,0,-1126.0,1
251,251,-0.589898179616499,-0.6,1.0,0.0,321.0,619.0,0.0,0,490.0,1
252,252,-0.7510043522485539,-0.8,0.0,1.0,362.0,773.0,0.0,1,-1125.0,0
253,253,0.20144275078486673,0.2,0.0,0.0,434.0,856.0,0.0,1,110.0,1
254,254,0.7974073132494496,0.8,1.0,1.0,338.0,961.0,0.0,0,1701.0,0
255,255,0.8318154365051117,0.8,0.0,0.0,474.0,729.0,0.0,1,-163.0,1
256,256,-0.6543385883340662,-0.7,1.0,0.0,264.0,521.0,0.0,0,-355.0,1
257,257,-0.7659502826484843,-0.8,0.0,1.0,287.0,878.0,0.0,1,-515.0,0
258,258,0.05977325602265282,0.1,1.0,1.0,359.0,577.0,0.0,0,274.0,0
259,259,0.17432750450378742,0.2,1.0,1.0,494.0,651.0,1.0,1,1855.0,1
260,260,-0.5875521163154022,-0.6,1.0,0.0,256.0,744.0,0.0,0,-320.0,1
261,261,-0.8320432998796288,-0.8,1.0,0.0,336.0,688.0,0.0,0,236.0,1
262,262,-0.5695087749212424,-0.6,1.0,0.0,453.0,807.0,0.0,0,570.0,1
263,263,0.7156620969308513,0.7,0.0,0.0,315.0,951.0,0.0,1,-906.0,1
264,264,0.4911921855988567,0.5,0.0,0.0,379.0,610.0,0.0,1,-739.0,1
265,265,-0.04671131899240377,-0.0,1.0,0.0,423.0,633.0,0.0,0,-416.0,1
266,266,-0.6962749977843854,-0.7,0.0,1.0,473.0,935.0,1.0,0,1592.0,1
267,267,0.4813385743698563,0.5,0.0,0.0,383.0,761.0,0.0,1,-954.0,1
268,268,-0.38039462589898265,-0.4,1.0,0.0,401.0,893.0,0.0,0,716.0,1
269,269,-0.8953088481544338,-0.9,0.0,1.0,362.0,839.0,0.0,1,1049.0,0
270,270,-0.1862365306259225,-0.2,1.0,0.0,434.0,920.0,0.0,0,-474.0,1
271,271,-0.8115542102506238,-0.8,0.0,1.0,331.0,760.0,0.0,1,-1011.0,0
272,272,-0.02808761806443938,-0.0,0.0,1.0,392.0,553.0,1.0,0,2055.0,1
273,273,-0.23029596436431787,-0.2,1.0,0.0,352.0,978.0,0.0,0,-1280.0,1
274,274,0.3142640167908398,0.3,1.0,1.0,492.0,687.0,0.0,0,-659.0,0
275,275,-0.880169638234055,-0.9,1.0,0.0,276.0,811.0,0.0,0,703.0,1
276,276,0.6047811659956613,0.6,1.0,1.0,459.0,778.0,0.0,0,-957.0,0
277,277,0.7791143354817295,0.8,1.0,1.0,484.0,681.0,0.0,0,-975.0,0
278,278,0.3190821314281972,0.3,1.0,1.0,412.0,788.0,0.0,0,1430.0,0
279,279,-0.392810810596241,-0.4,1.0,0.0,343.0,695.0,0.0,0,652.0,1
280,280,0.6192645467112358,0.6,1.0,1.0,351.0,925.0,1.0,1,-456.0,1
281,281,-0.3655572869319901,-0.4,0.0,1.0,440.0,925.0,0.0,1,-85.0,0
282,282,-0.09014922212978083,-0.1,1.0,0.0,401.0,700.0,1.0,1,1899.0,0
283,283,0.03797356695711962,0.0,1.0,1.0,457.0,930.0,1.0,1,1613.0,1
284,284,-0.3810811695850953,-0.4,0.0,1.0,469.0,585.0,0.0,1,-874.0,0
285,285,0.01100810258428786,0.0,0.0,0.0,380.0,703.0,0.0,1,1127.0,1
286,286,-0.2423985332839551,-0.2,1.0,0.0,313.0,654.0,0.0,0,1643.0,1
287,287,0.8575434228238966,0.9,0.0,0.0,467.0,635.0,0.0,1,48.0,1
288,288,0.05724913364600259,0.1,0.0,0.0,382.0,753.0,0.0,1,-125.0,1
289,289,0.06983513861512469,0.1,0.0,0.0,444.0,729.0,0.0,1,-883.0,1
290,290,-0.7524168065707557,-0.8,1.0,0.0,318.0,931.0,0.0,0,-719.0,1
291,291,-0.5648551766122232,-0.6,1.0,0.0,381.0,814.0,0.0,0,-935.0,1
292,292,-0.6998222109033427,-0.7,1.0,0.0,324.0,835.0,0.0,0,-449.0,1
293,293,0.18251404105885116,0.2,1.0,1.0,370.0,862.0,0.0,0,418.0,0
294,294,0.832458942202933,0.8,1.0,1.0,256.0,650.0,0.0,0,1754.0,0
295,295,0.020568463915516033,0.0,1.0,1.0,357.0,532.0,1.0,1,1471.0,1
296,296,-0.6859364955171201,-0.7,0.0,1.0,274.0,915.0,0.0,1,-849.0,0
297,297,0.8101001889220519,0.8,0.0,0.0,312.0,527.0,0.0,1,-639.0,1
298,298,0.6033852727254788,0.6,1.0,1.0,462.0,848.0,0.0,0,-400.0,0
299,299,0.346578048651743,0.3,0.0,0.0,375.0,788.0,1.0,0,-783.0,0
300,300,-0.5437891508733939,-0.5,1.0,0.0,428.0,698.0,0.0,0,-926.0,1
301,301,-0.6330990297359416,-0.6,0.0,1.0,465.0,885.0,0.0,1,-300.0,0
302,302,-0.21673614508622563,-0.2,0.0,1.0,431.0,944.0,1.0,0,1625.0,1
303,303,0.015634104098860013,0.0,1.0,1.0,325.0,563.0,0.0,0,-248.0,0
304,304,-0.7455873282589834,-0.7,0.0,1.0,484.0,795.0,0.0,1,1151.0,0
305,305,0.2130866610865333,0.2,0.0,0.0,311.0,541.0,0.0,1,-472.0,1
306,306,-0.5876364538986931,-0.6,0.0,1.0,479.0,939.0,0.0,1,562.0,0
307,307,-0.1516899807679818,-0.2,1.0,0.0,404.0,616.0,0.0,0,840.0,1
308,308,-0.3117868303071668,-0.3,0.0,1.0,473.0,582.0,0.0,1,1705.0,0
309,309,-0.4636533978620964,-0.5,0.0,1.0,340.0,738.0,0.0,1,-478.0,0
310,310,0.8097100728141139,0.8,1.0,1.0,381.0,691.0,0.0,0,-332.0,0
311,311,0.4560699570678196,0.5,0.0,0.0,364.0,913.0,1.0,0,1723.0,0
312,312,0.8449447681323311,0.8,0.0,0.0,386.0,516.0,1.0,0,2098.0,0
313,313,-0.7806268195315328,-0.8,0.0,1.0,493.0,702.0,0.0,1,-505.0,0
314,314,-0.8249465919180463,-0.8,0.0,1.0,456.0,611.0,0.0,1,93.0,0
315,315,0.32459082085805047,0.3,1.0,1.0,409.0,735.0,0.0,0,636.0,0
316,316,-0.4180592828432204,-0.4,0.0,1.0,445.0,833.0,0.0,1,-308.0,0
317,317,0.4642006404427127,0.5,0.0,0.0,268.0,901.0,0.0,1,-499.0,1
318,318,0.2284692970013168,0.2,1.0,1.0,433.0,701.0,0.0,0,1146.0,0
319,319,0.5579147028141441,0.6,0.0,0.0,349.0,720.0,0.0,1,591.0,1
320,320,0.8464216988332735,0.8,1.0,1.0,278.0,770.0,0.0,0,-968.0,0
321,321,-0.2810288133683484,-0.3,1.0,0.0,257.0,773.0,0.0,0,90.0,1
322,322,0.6676944159250043,0.7,0.0,0.0,495.0,770.0,0.0,1,-1165.0,1
323,323,0.017823215170650553,0.0,1.0,1.0,315.0,949.0,0.0,0,-1224.0,0
324,324,0.012694635033757784,0.0,0.0,0.0,303.0,887.0,0.0,1,-720.0,1
325,325,-0.3541443383853724,-0.4,1.0,0.0,447.0,684.0,0.0,0,-1.0,1
326,326,-0.022192497780769926,-0.0,1.0,0.0,279.0,547.0,0.0,0,424.0,1
327,327,0.5259689440514258,0.5,0.0,0.0,293.0,835.0,1.0,0,-708.0,0
328,328,0.5584981789216718,0.6,0.0,0.0,461.0,820.0,0.0,1,1629.0,1
329,329,0.7052717358445143,0.7,1.0,1.0,467.0,919.0,0.0,0,184.0,0
330,330,0.896559663174518,0.9,0.0,0.0,268.0,824.0,1.0,0,1908.0,0
331,331,-0.6201358139977255,-0.6,1.0,0.0,489.0,950.0,0.0,0,661.0,1
332,332,0.5317153752586167,0.5,0.0,0.0,252.0,972.0,0.0,1,-334.0,1
333,333,0.1382449758239942,0.1,0.0,0.0,398.0,841.0,0.0,1,-1189.0,1
334,334,-0.25516227569849415,-0.3,1.0,0.0,315.0,711.0,0.0,0,-1016.0,1
335,335,-0.7080742638748883,-0.7,1.0,0.0,270.0,623.0,0.0,0,-713.0,1
336,336,-0.3161413449525825,-0.3,0.0,1.0,425.0,897.0,0.0,1,-1042.0,0
337,337,0.7025644301563833,0.7,0.0,0.0,264.0,628.0,0.0,1,878.0,1
338,338,-0.27750872177768704,-0.3,0.0,1.0,456.0,638.0,0.0,1,-864.0,0
339,339,-0.05475042043636069,-0.1,1.0,0.0,279.0,674.0,0.0,0,1747.0,1
340,340,-0.4727057589220051,-0.5,1.0,0.0,430.0,720.0,0.0,0,-860.0,1
341,341,0.26652121763694125,0.3,1.0,1.0,409.0,999.0,0.0,0,-968.0,0
342,342,0.24328269801663038,0.2,0.0,0.0,283.0,604.0,0.0,1,-637.0,1
343,343,-0.10098498530107025,-0.1,1.0,0.0,380.0,785.0,0.0,0,5.0,1
344,344,-0.8636363092396457,-0.9,1.0,0.0,449.0,671.0,0.0,0,-890.0,1
345,345,-0.2540077993828489,-0.3,1.0,0.0,429.0,633.0,0.0,0,1878.0,1
346,346,0.40509991275709856,0.4,1.0,1.0,263.0,715.0,0.0,0,732.0,0
347,347,0.5247190704185568,0.5,1.0,1.0,475.0,838.0,1.0,1,1687.0,1
348,348,0.029930974816677614,0.0,1.0,1.0,331.0,815.0,0.0,0,-26.0,0
349,349,-0.8187871939085452,-0.8,1.0,0.0,398.0,519.0,0.0,0,-187.0,1
350,350,0.059523403625976856,0.1,0.0,0.0,415.0,703.0,0.0,1,-478.0,1
351,351,-0.7102786140104573,-0.7,0.0,1.0,407.0,911.0,0.0,1,-1228.0,0
352,352,-0.7002980751226414,-0.7,0.0,1.0,300.0,732.0,1.0,0,1968.0,1
353,353,0.42294993759965027,0.4,0.0,0.0,462.0,670.0,0.0,1,-932.0,1
354,354,0.12205793360997486,0.1,1.0,1.0,357.0,612.0,0.0,0,-659.0,0
355,355,0.8847697527990473,0.9,0.0,0.0,479.0,769.0,0.0,1,-1228.0,1
356,356,0.018535736071131126,0.0,0.0,0.0,250.0,974.0,0.0,1,-414.0,1
357,357,-0.2151265037736061,-0.2,1.0,0.0,437.0,728.0,0.0,0,-605.0,1
358,358,-0.4515164025575081,-0.5,1.0,0.0,463.0,685.0,0.0,0,482.0,1
359,359,-0.3220787952281067,-0.3,1.0,0.0,286.0,949.0,0.0,0,695.0,1
360,360,0.7881902727131492,0.8,0.0,0.0,437.0,974.0,0.0,1,229.0,1
361,361,0.38145154314055396,0.4,1.0,1.0,422.0,640.0,0.0,0,-1022.0,0
362,362,-0.8710209352771268,-0.9,1.0,0.0,457.0,658.0,0.0,0,1325.0,1
363,363,0.16458081144229852,0.2,1.0,1.0,479.0,560.0,0.0,0,-999.0,0
364,364,-0.6365749633696789,-0.6,1.0,0.0,297.0,563.0,0.0,0,-860.0,1
365,365,-0.5587180136099518,-0.6,1.0,0.0,471.0,714.0,0.0,0,-885.0,1
366,366,-0.13588726109435645,-0.1,1.0,0.0,404.0,536.0,0.0,0,830.0,1
367,367,0.2719625805578184,0.3,0.0,0.0,283.0,743.0,0.0,1,1974.0,1
368,368,0.5242200217646164,0.5,0.0,0.0,348.0,755.0,0.0,1,1497.0,1
369,369,0.26043402682815053,0.3,0.0,0.0,424.0,985.0,0.0,1,-829.0,1
370,370,-0.44741193724041833,-0.4,1.0,0.0,497.0,644.0,0.0,0,1179.0,1
371,371,0.6792108406135561,0.7,0.0,0.0,467.0,573.0,0.0,1,-510.0,1
372,372,-0.27109729550791173,-0.3,0.0,1.0,307.0,561.0,0.0,1,2052.0,0
373,373,0.8940396237117808,0.9,1.0,1.0,304.0,932.0,0.0,0,1514.0,0
374,374,-0.05226382427633902,-0.1,1.0,0.0,489.0,835.0,1.0,1,1676.0,0
375,375,0.8591445680676907,0.9,0.0,0.0,386.0,803.0,0.0,1,-659.0,1
376,376,0.17315013079915353,0.2,1.0,1.0,415.0,757.0,0.0,0,-422.0,0
377,377,0.3211727234189615,0.3,1.0,1.0,392.0,717.0,0.0,0,251.0,0
378,378,0.30250008101288384,0.3,1.0,1.0,445.0,781.0,1.0,1,-436.0,1
379,379,-0.2627655941690338,-0.3,1.0,0.0,293.0,633.0,0.0,0,-796.0,1
380,380,0.7085399073033894,0.7,0.0,0.0,315.0,677.0,0.0,1,1528.0,1
381,381,0.38332518473607,0.4,1.0,1.0,436.0,972.0,0.0,0,-1398.0,0
382,382,-0.8911574801471827,-0.9,1.0,0.0,278.0,760.0,0.0,0,-358.0,1
383,383,-0.17849430779763664,-0.2,1.0,0.0,392.0,659.0,0.0,0,839.0,1
384,384,0.4098617111431605,0.4,0.0,0.0,393.0,533.0,0.0,1,734.0,1
385,385,0.5622116764106303,0.6,0.0,0.0,345.0,869.0,0.0,1,-924.0,1
386,386,-0.52120487162475,-0.5,0.0,1.0,401.0,680.0,1.0,0,1919.0,1
387,387,-0.4491690951097321,-0.4,0.0,1.0,481.0,622.0,0.0,1,1897.0,0
388,388,0.861174061328163,0.9,1.0,1.0,442.0,609.0,0.0,0,-391.0,0
389,389,-0.7970523821695289,-0.8,0.0,1.0,420.0,889.0,0.0,1,-439.0,0
390,390,-0.09497653436636289,-0.1,0.0,1.0,285.0,747.0,1.0,0,1968.0,1
391,391,0.6985154144721418,0.7,0.0,0.0,306.0,957.0,0.0,1,-93.0,1
392,392,-0.6539172551073494,-0.7,0.0,1.0,383.0,969.0,1.0,0,1648.0,1
393,393,-0.7569106991176132,-0.8,0.0,1.0,421.0,809.0,0.0,1,1320.0,0
394,394,-0.10578918574346963,-0.1,0.0,1.0,281.0,875.0,0.0,1,-946.0,0
395,395,-0.6624339716372081,-0.7,0.0,1.0,395.0,782.0,1.0,0,-187.0,1
396,396,-0.5573816922606101,-0.6,0.0,1.0,396.0,521.0,1.0,0,-377.0,1
397,397,-0.6829770774830362,-0.7,0.0,1.0,365.0,991.0,1.0,0,-916.0,1
398,398,0.8860826245394587,0.9,1.0,1.0,406.0,614.0,0.0,0,460.0,0
399,399,0.4598118014929834,0.5,1.0,1.0,453.0,706.0,0.0,0,1781.0,0
400,400,-0.8780335612756216,-0.9,0.0,1.0,482.0,779.0,0.0,1,1059.0,0
401,401,0.272519863899953,0.3,0.0,0.0,479.0,800.0,0.0,1,-879.0,1
402,402,-0.8550507997893231,-0.9,1.0,0.0,490.0,996.0,0.0,0,-1036.0,1
403,403,-0.4118373742666858,-0.4,1.0,0.0,256.0,845.0,0.0,0,589.0,1
404,404,-0.7453876247295982,-0.7,1.0,0.0,471.0,789.0,0.0,0,-340.0,1
405,405,-0.23521527957233124,-0.2,1.0,0.0,342.0,918.0,0.0,0,1190.0,1
406,406,0.5551868813777149,0.6,1.0,1.0,328.0,571.0,0.0,0,421.0,0
407,407,-0.23394062892739553,-0.2,0.0,1.0,413.0,532.0,1.0,0,-335.0,1
408,408,0.14840378327764492,0.1,1.0,1.0,404.0,994.0,0.0,0,652.0,0
409,409,-0.6920781585653284,-0.7,0.0,1.0,492.0,540.0,0.0,1,-322.0,0
410,410,-0.5727713801562266,-0.6,1.0,0.0,412.0,615.0,0.0,0,553.0,1
411,411,0.606934736950621,0.6,0.0,0.0,306.0,966.0,0.0,1,-1132.0,1
412,412,0.5908955537278643,0.6,1.0,1.0,267.0,866.0,0.0,0,867.0,0
413,413,-0.37099822567287244,-0.4,0.0,1.0,418.0,939.0,0.0,1,-1037.0,0
414,414,-0.6681830701555411,-0.7,1.0,0.0,491.0,853.0,1.0,1,-234.0,0
415,415,-0.5071587008655969,-0.5,1.0,0.0,295.0,663.0,0.0,0,-58.0,1
416,416,-0.3674061477677337,-0.4,0.0,1.0,408.0,545.0,1.0,0,-883.0,1
417,417,0.6863044666436843,0.7,1.0,1.0,480.0,656.0,0.0,0,-486.0,0
418,418,0.17862875189734273,0.2,1.0,1.0,460.0,643.0,1.0,1,1897.0,1
419,419,0.5743476390568,0.6,0.0,0.0,289.0,612.0,0.0,1,-791.0,1
420,420,0.3373796491312223,0.3,1.0,1.0,322.0,896.0,0.0,0,-48.0,0
421,421,-0.2610895950044432,-0.3,1.0,0.0,302.0,505.0,0.0,0,353.0,1
422,422,0.7204269452336004,0.7,0.0,0.0,370.0,817.0,0.0,1,-297.0,1
423,423,0.8108833462324777,0.8,0.0,0.0,491.0,968.0,0.0,1,1241.0,1
424,424,-0.6393176783356376,-0.6,0.0,1.0,377.0,502.0,0.0,1,291.0,0
425,425,0.09824078679722403,0.1,1.0,1.0,293.0,995.0,0.0,0,-1058.0,0
426,426,-0.6113311104735355,-0.6,1.0,0.0,344.0,578.0,0.0,0,-252.0,1
427,427,-0.49296407328454495,-0.5,0.0,1.0,360.0,672.0,0.0,1,-972.0,0
428,428,-0.7570477498789481,-0.8,1.0,0.0,418.0,842.0,0.0,0,640.0,1
429,429,0.11302111374982948,0.1,0.0,0.0,400.0,563.0,0.0,1,-953.0,1
430,430,0.376044340711733,0.4,0.0,0.0,373.0,678.0,0.0,1,-931.0,1
431,431,0.027877964627018414,0.0,1.0,1.0,411.0,899.0,0.0,0,-200.0,0
432,432,0.2351273642544528,0.2,1.0,1.0,472.0,814.0,0.0,0,-1276.0,0
433,433,0.6409894703150337,0.6,0.0,0.0,467.0,816.0,0.0,1,1667.0,1
434,434,-0.4819833154865692,-0.5,0.0,1.0,416.0,924.0,0.0,1,510.0,0
435,435,-0.27620144064911134,-0.3,1.0,0.0,416.0,583.0,0.0,0,881.0,1
436,436,0.831459162633225,0.8,1.0,1.0,413.0,942.0,1.0,1,-1055.0,1
437,437,0.03798535339289,0.0,0.0,0.0,410.0,963.0,0.0,1,-1293.0,1
438,438,0.2752820566263777,0.3,1.0,1.0,306.0,692.0,1.0,1,2002.0,1
439,439,-0.5779607474617316,-0.6,1.0,0.0,282.0,825.0,0.0,0,-267.0,1
440,440,-0.11334548429371705,-0.1,0.0,1.0,471.0,703.0,0.0,1,1396.0,0
441,441,0.457073606883201,0.5,0.0,0.0,364.0,822.0,0.0,1,-1076.0,1
442,442,0.8390934001703464,0.8,0.0,0.0,371.0,901.0,0.0,1,-352.0,1
443,443,0.5364738198870417,0.5,1.0,1.0,261.0,676.0,0.0,0,-367.0,0
444,444,-0.3185900387161361,-0.3,1.0,0.0,454.0,738.0,0.0,0,88.0,1
445,445,0.5352123950322106,0.5,1.0,1.0,464.0,543.0,1.0,1,1993.0,1
446,446,-0.4943670808683977,-0.5,0.0,1.0,344.0,865.0,1.0,0,1791.0,1
447,447,0.35637839602749166,0.4,0.0,0.0,322.0,700.0,0.0,1,-982.0,1
448,448,0.6602159910556585,0.7,0.0,0.0,387.0,631.0,0.0,1,-8.0,1
449,449,-0.3053009257030105,-0.3,0.0,1.0,284.0,748.0,0.0,1,-372.0,0
450,450,0.41120760798444567,0.4,1.0,1.0,456.0,927.0,0.0,0,-1233.0,0
451,451,-0.8752602688671102,-0.9,1.0,0.0,277.0,781.0,0.0,0,-478.0,1
452,452,0.26298181527373676,0.3,1.0,1.0,438.0,721.0,1.0,1,-319.0,1
453,453,0.178285910315101,0.2,0.0,0.0,400.0,702.0,0.0,1,1898.0,1
454,454,-0.3922842765106278,-0.4,0.0,1.0,263.0,871.0,0.0,1,-684.0,0
455,455,0.24994226158512067,0.2,1.0,1.0,266.0,603.0,1.0,1,1471.0,1
456,456,0.06112252419710906,0.1,1.0,1.0,253.0,668.0,0.0,0,-731.0,0
457,457,-0.5979916113709498,-0.6,0.0,1.0,481.0,624.0,1.0,0,235.0,1
458,458,-0.629928833629642,-0.6,1.0,0.0,483.0,538.0,0.0,0,-321.0,1
459,459,0.7765548587332375,0.8,0.0,0.0,291.0,943.0,0.0,1,866.0,1
460,460,-0.5034483403380662,-0.5,1.0,0.0,289.0,697.0,1.0,1,2014.0,0
461,461,0.33455272142371195,0.3,1.0,1.0,481.0,662.0,0.0,0,-583.0,0
462,462,-0.4804567977250008,-0.5,1.0,0.0,451.0,854.0,0.0,0,-495.0,1
463,463,-0.6931910879849128,-0.7,0.0,1.0,309.0,961.0,0.0,1,-950.0,0
464,464,0.12776507040839513,0.1,1.0,1.0,458.0,895.0,0.0,0,-383.0,0
465,465,0.7509500128600463,0.8,0.0,0.0,357.0,800.0,0.0,1,-627.0,1
466,466,-0.3822451843246455,-0.4,0.0,1.0,306.0,536.0,0.0,1,-292.0,0
467,467,-0.42739015174521217,-0.4,0.0,1.0,323.0,877.0,0.0,1,-950.0,0
468,468,-0.018048653987177365,-0.0,0.0,1.0,320.0,640.0,0.0,1,-430.0,0
469,469,-0.21763515454312599,-0.2,0.0,1.0,446.0,981.0,1.0,0,1573.0,1
470,470,-0.39919372453671786,-0.4,0.0,1.0,416.0,622.0,0.0,1,1112.0,0
471,471,-0.6561709625294627,-0.7,1.0,0.0,314.0,543.0,0.0,0,-397.0,1
472,472,-0.7518630686808712,-0.8,0.0,1.0,251.0,729.0,1.0,0,2020.0,1
473,473,0.232990805667587,0.2,0.0,0.0,318.0,588.0,0.0,1,-496.0,1
474,474,0.5361678511596454,0.5,0.0,0.0,458.0,673.0,0.0,1,989.0,1
475,475,0.7099500279138761,0.7,0.0,0.0,326.0,543.0,0.0,1,111.0,1
476,476,0.6833989860307969,0.7,0.0,0.0,361.0,966.0,0.0,1,-397.0,1
477,477,-0.5196997967356587,-0.5,0.0,1.0,477.0,952.0,0.0,1,-839.0,0
478,478,0.8212498493937707,0.8,0.0,0.0,445.0,591.0,0.0,1,-1026.0,1
479,479,-0.5675413857865039,-0.6,1.0,0.0,434.0,869.0,0.0,0,-843.0,1
480,480,-0.5195182758266351,-0.5,0.0,1.0,313.0,758.0,0.0,1,-411.0,0
481,481,-0.6385974791757958,-0.6,0.0,1.0,298.0,504.0,0.0,1,-2.0,0
482,482,0.1138772950021868,0.1,0.0,0.0,343.0,974.0,0.0,1,-117.0,1
483,483,0.768950829772021,0.8,0.0,0.0,380.0,696.0,0.0,1,544.0,1
484,484,0.6291974832924779,0.6,1.0,1.0,470.0,966.0,1.0,1,1564.0,1
485,485,-0.1811928900423072,-0.2,0.0,1.0,499.0,657.0,0.0,1,-96.0,0
486,486,-0.5990314250987507,-0.6,1.0,0.0,359.0,525.0,0.0,0,-234.0,1
487,487,-0.5305140829543382,-0.5,0.0,1.0,441.0,543.0,0.0,1,-494.0,0
488,488,-0.4519552800242394,-0.5,1.0,0.0,461.0,719.0,0.0,0,-350.0,1
489,489,0.4275850020757096,0.4,1.0,1.0,331.0,716.0,0.0,0,-137.0,0
490,490,0.4546839670177075,0.5,1.0,1.0,265.0,590.0,0.0,0,535.0,0
491,491,0.7351481849564322,0.7,0.0,0.0,497.0,921.0,0.0,1,142.0,1
492,492,0.7724686526084937,0.8,1.0,1.0,497.0,731.0,0.0,0,512.0,0
493,493,-0.518147224674675,-0.5,0.0,1.0,255.0,746.0,0.0,1,879.0,0
494,494,-0.5541887355128088,-0.6,0.0,1.0,431.0,861.0,0.0,1,-1022.0,0
495,495,-0.7533447914786229,-0.8,1.0,0.0,337.0,575.0,0.0,0,398.0,1
496,496,0.7651553291251997,0.8,0.0,0.0,403.0,914.0,0.0,1,-907.0,1
497,497,-0.7439675847592464,-0.7,1.0,0.0,371.0,784.0,0.0,0,-855.0,1
498,498,0.7032567003607683,0.7,1.0,1.0,397.0,981.0,0.0,0,-578.0,0
499,499,0.7097873244862466,0.7,1.0,1.0,425.0,845.0,0.0,0,-490.0,0
500,500,-0.8365496459353436,-0.8,0.0,1.0,444.0,501.0,1.0,0,1215.0,1
501,501,-0.4941680894210226,-0.5,0.0,1.0,431.0,822.0,0.0,1,277.0,0
502,502,0.8209615198234516,0.8,0.0,0.0,306.0,736.0,1.0,0,1958.0,0
503,503,-0.12405609459726696,-0.1,0.0,1.0,427.0,583.0,0.0,1,830.0,0
504,504,-0.8705870864631822,-0.9,1.0,0.0,311.0,537.0,0.0,0,-708.0,1
505,505,0.03168729402123416,0.0,1.0,1.0,371.0,835.0,0.0,0,-1106.0,0
506,506,0.3258519765233884,0.3,0.0,0.0,346.0,649.0,0.0,1,-265.0,1
507,507,-0.7496358040476396,-0.7,1.0,0.0,283.0,784.0,0.0,0,-367.0,1
508,508,0.7317308194324962,0.7,0.0,0.0,395.0,586.0,0.0,1,-11.0,1
509,509,-0.37101170311781173,-0.4,0.0,1.0,432.0,739.0,0.0,1,-211.0,0
510,510,0.29542822254639856,0.3,1.0,1.0,301.0,787.0,0.0,0,-1008.0,0
511,511,0.13301387655776298,0.1,0.0,0.0,297.0,834.0,0.0,1,-551.0,1
512,512,0.6606278242191713,0.7,0.0,0.0,434.0,830.0,0.0,1,166.0,1
513,513,-0.500852388811011,-0.5,1.0,0.0,448.0,869.0,0.0,0,-1167.0,1
514,514,0.8978843516363185,0.9,1.0,1.0,437.0,823.0,1.0,1,1740.0,1
515,515,0.6346006170823874,0.6,0.0,0.0,285.0,878.0,1.0,0,1837.0,0
516,516,-0.7722651048775797,-0.8,0.0,1.0,433.0,954.0,1.0,0,-447.0,1
517,517,0.18591866377171085,0.2,0.0,0.0,406.0,638.0,0.0,1,676.0,1
518,518,-0.6303084176446054,-0.6,0.0,1.0,408.0,875.0,0.0,1,-1013.0,0
519,519,0.3942402333815732,0.4,0.0,0.0,386.0,727.0,0.0,1,597.0,1
520,520,-0.16185103876638507,-0.2,1.0,0.0,451.0,926.0,0.0,0,233.0,1
521,521,-0.6654861571716273,-0.7,0.0,1.0,401.0,904.0,0.0,1,-5.0,0
522,522,0.20660898412403872,0.2,0.0,0.0,443.0,717.0,0.0,1,-620.0,1
523,523,0.43612442797162954,0.4,0.0,0.0,359.0,921.0,0.0,1,-600.0,1
524,524,0.8417153020353189,0.8,0.0,0.0,325.0,996.0,0.0,1,-81.0,1
525,525,-0.7161482152725633,-0.7,0.0,1.0,356.0,927.0,0.0,1,-973.0,0
526,526,0.353137622531264,0.4,0.0,0.0,273.0,693.0,1.0,0,2034.0,0
527,527,-0.35725030589842943,-0.4,1.0,0.0,261.0,732.0,0.0,0,237.0,1
528,528,0.4104114963714579,0.4,1.0,1.0,260.0,864.0,0.0,0,-294.0,0
529,529,-0.5438284616513583,-0.5,1.0,0.0,344.0,753.0,0.0,0,103.0,1
530,530,-0.30091497424111213,-0.3,1.0,0.0,496.0,847.0,0.0,0,1427.0,1
531,531,-0.40320252806649853,-0.4,1.0,0.0,383.0,951.0,0.0,0,-454.0,1
532,532,0.42627950061408015,0.4,0.0,0.0,361.0,960.0,0.0,1,-191.0,1
533,533,-0.682141685528396,-0.7,0.0,1.0,455.0,542.0,0.0,1,-647.0,0
534,534,0.769954913943608,0.8,1.0,1.0,471.0,751.0,0.0,0,-1052.0,0
535,535,0.06583055408433425,0.1,1.0,1.0,394.0,532.0,0.0,0,-426.0,0
536,536,-0.8277001295138964,-0.8,1.0,0.0,427.0,888.0,1.0,1,1685.0,0
537,537,-0.0631178484907956,-0.1,1.0,0.0,318.0,611.0,0.0,0,-389.0,1
538,538,0.858755643267617,0.9,0.0,0.0,251.0,908.0,1.0,0,1841.0,0
539,539,-0.569631586261294,-0.6,1.0,0.0,314.0,793.0,0.0,0,1753.0,1
540,540,-0.18309293064944754,-0.2,0.0,1.0,277.0,537.0,1.0,0,-284.0,1
541,541,0.6787173385242683,0.7,1.0,1.0,272.0,922.0,0.0,0,626.0,0
542,542,0.23883170499916784,0.2,1.0,1.0,282.0,854.0,0.0,0,464.0,0
543,543,-0.09089689596890438,-0.1,1.0,0.0,306.0,682.0,0.0,0,1372.0,1
544,544,-0.603188982349945,-0.6,0.0,1.0,493.0,996.0,0.0,1,-1329.0,0
545,545,0.3217216371336392,0.3,0.0,0.0,455.0,570.0,0.0,1,785.0,1
546,546,0.2277789204815749,0.2,0.0,0.0,264.0,874.0,0.0,1,-408.0,1
547,547,-0.8523259195422782,-0.9,1.0,0.0,469.0,588.0,1.0,1,-1017.0,0
548,548,0.21061100126323018,0.2,1.0,1.0,430.0,952.0,0.0,0,-1092.0,0
549,549,-0.8444905909029924,-0.8,1.0,0.0,437.0,643.0,0.0,0,-950.0,1
550,550,-0.46024431967761414,-0.5,0.0,1.0,271.0,570.0,0.0,1,949.0,0
551,551,0.41874521014538824,0.4,0.0,0.0,430.0,635.0,0.0,1,1555.0,1
552,552,0.8394829615148881,0.8,0.0,0.0,473.0,726.0,0.0,1,-69.0,1
553,553,-0.24557132282257899,-0.2,1.0,0.0,418.0,684.0,1.0,1,1898.0,0
554,554,0.555996312441266,0.6,0.0,0.0,362.0,671.0,0.0,1,997.0,1
555,555,0.7825984908528126,0.8,1.0,1.0,255.0,502.0,0.0,0,-347.0,0
556,556,0.17161171065483682,0.2,0.0,0.0,476.0,940.0,0.0,1,-636.0,1
557,557,0.8067629090191201,0.8,1.0,1.0,386.0,632.0,0.0,0,-778.0,0
558,558,0.4769134553013873,0.5,1.0,1.0,470.0,592.0,0.0,0,548.0,0
559,559,-0.38206348077526575,-0.4,0.0,1.0,252.0,931.0,0.0,1,1007.0,0
560,560,-0.4712040598348487,-0.5,1.0,0.0,477.0,502.0,0.0,0,-959.0,1
561,561,0.13856375663952802,0.1,0.0,0.0,361.0,950.0,0.0,1,1159.0,1
562,562,-0.2821017175310262,-0.3,1.0,0.0,462.0,925.0,1.0,1,-1347.0,0
563,563,0.045614312395636625,0.0,0.0,0.0,367.0,526.0,0.0,1,-463.0,1
564,564,-0.5582044823761545,-0.6,0.0,1.0,439.0,525.0,0.0,1,-944.0,0
565,565,0.02109853935524364,0.0,1.0,1.0,303.0,736.0,0.0,0,-969.0,0
566,566,0.8376222042198923,0.8,1.0,1.0,252.0,895.0,0.0,0,-557.0,0
567,567,0.39759174472381387,0.4,0.0,0.0,356.0,944.0,0.0,1,-490.0,1
568,568,0.8586591220415082,0.9,1.0,1.0,283.0,837.0,0.0,0,-540.0,0
569,569,-0.6008690009985382,-0.6,1.0,0.0,285.0,886.0,0.0,0,-81.0,1
570,570,-0.2596743884925241,-0.3,1.0,0.0,484.0,641.0,0.0,0,-625.0,1
571,571,0.1533760379878576,0.2,0.0,0.0,445.0,816.0,0.0,1,-231.0,1
572,572,-0.8791668157717654,-0.9,1.0,0.0,329.0,919.0,0.0,0,-858.0,1
573,573,0.5595597333391186,0.6,1.0,1.0,319.0,554.0,1.0,1,2127.0,1
574,574,0.41706281171618376,0.4,1.0,1.0,482.0,669.0,0.0,0,-761.0,0
575,575,-0.6193264449333957,-0.6,1.0,0.0,410.0,842.0,0.0,0,-732.0,1
576,576,-0.09176655553266433,-0.1,1.0,0.0,409.0,872.0,1.0,1,1719.0,0
577,577,-0.15413773092468996,-0.2,1.0,0.0,388.0,811.0,0.0,0,-589.0,1
578,578,0.18255182117323054,0.2,1.0,1.0,442.0,608.0,0.0,0,-270.0,0
579,579,0.6614278885633448,0.7,1.0,1.0,266.0,997.0,0.0,0,-1163.0,0
580,580,0.4385917488711485,0.4,1.0,1.0,326.0,755.0,0.0,0,1369.0,0
581,581,0.3712842109720541,0.4,1.0,1.0,307.0,626.0,1.0,1,1267.0,1
582,582,-0.29308389256282585,-0.3,1.0,0.0,337.0,835.0,1.0,1,1328.0,0
583,583,0.8850807833208553,0.9,0.0,0.0,289.0,942.0,0.0,1,229.0,1
584,584,-0.5932006139053245,-0.6,1.0,0.0,444.0,795.0,0.0,0,-989.0,1
585,585,-0.7095267713284799,-0.7,0.0,1.0,250.0,657.0,0.0,1,773.0,0
586,586,-0.1923762827158274,-0.2,1.0,0.0,445.0,700.0,0.0,0,1685.0,1
587,587,-0.622982603051588,-0.6,1.0,0.0,332.0,930.0,0.0,0,-972.0,1
588,588,-0.5274964710225372,-0.5,1.0,0.0,455.0,862.0,0.0,0,-1077.0,1
589,589,0.6990176482887164,0.7,0.0,0.0,366.0,683.0,0.0,1,-1039.0,1
590,590,-0.27022105770810456,-0.3,1.0,0.0,447.0,713.0,0.0,0,1840.0,1
591,591,0.1445141415381047,0.1,0.0,0.0,262.0,962.0,0.0,1,-1134.0,1
592,592,0.1995240464356357,0.2,0.0,0.0,341.0,757.0,0.0,1,512.0,1
593,593,-0.4043426412300813,-0.4,1.0,0.0,283.0,778.0,0.0,0,-581.0,1
594,594,0.420866305990797,0.4,1.0,1.0,345.0,688.0,0.0,0,-253.0,0
595,595,-0.4227860013310584,-0.4,0.0,1.0,454.0,515.0,0.0,1,61.0,0
596,596,-0.2644745251554911,-0.3,0.0,1.0,341.0,704.0,0.0,1,-625.0,0
597,597,-0.3859342479759955,-0.4,0.0,1.0,295.0,925.0,1.0,0,-720.0,1
598,598,0.6506193134586765,0.7,0.0,0.0,418.0,691.0,0.0,1,-129.0,1
599,599,-0.5536985157592693,-0.6,1.0,0.0,464.0,666.0,0.0,0,780.0,1
600,600,-0.06146835988329258,-0.1,1.0,0.0,367.0,758.0,0.0,0,-985.0,1
601,601,0.654495844990502,0.7,0.0,0.0,253.0,553.0,0.0,1,1514.0,1
602,602,-0.6405399371815086,-0.6,1.0,0.0,415.0,943.0,0.0,0,-518.0,1
603,603,0.5284233174283591,0.5,1.0,1.0,473.0,995.0,0.0,0,-1128.0,0
604,604,-0.862212004639651,-0.9,0.0,1.0,366.0,778.0,0.0,1,-74.0,0
605,605,0.5891138099445304,0.6,0.0,0.0,380.0,900.0,0.0,1,-700.0,1
606,606,-0.7501764906498135,-0.8,1.0,0.0,468.0,924.0,0.0,0,-62.0,1
607,607,-0.32331933686026215,-0.3,0.0,1.0,431.0,866.0,0.0,1,-897.0,0
608,608,0.8232680298896172,0.8,0.0,0.0,265.0,576.0,1.0,0,2159.0,0
609,609,0.8795149057098083,0.9,0.0,0.0,403.0,602.0,0.0,1,1385.0,1
610,610,0.7907158499702581,0.8,1.0,1.0,326.0,570.0,0.0,0,1554.0,0
611,611,0.6475796693444279,0.6,1.0,1.0,439.0,653.0,0.0,0,-112.0,0
612,612,-0.39039750892519476,-0.4,1.0,0.0,433.0,518.0,0.0,0,1619.0,1
613,613,0.4985262033116874,0.5,0.0,0.0,472.0,515.0,1.0,0,-487.0,0
614,614,-0.8394105043974324,-0.8,1.0,0.0,469.0,927.0,0.0,0,-216.0,1
615,615,-0.21467705879876697,-0.2,0.0,1.0,260.0,672.0,0.0,1,208.0,0
616,616,0.4942602550899232,0.5,0.0,0.0,400.0,761.0,0.0,1,-981.0,1
617,617,-0.415295476835447,-0.4,1.0,0.0,316.0,643.0,0.0,0,-619.0,1
618,618,0.23217067457177498,0.2,1.0,1.0,255.0,715.0,0.0,0,-560.0,0
619,619,0.16490273085182128,0.2,1.0,1.0,435.0,924.0,1.0,1,1641.0,1
620,620,-0.12085401834347709,-0.1,1.0,0.0,279.0,831.0,1.0,1,-300.0,0
621,621,0.27349250169322115,0.3,1.0,1.0,306.0,655.0,0.0,0,199.0,0
622,622,-0.11394374498719284,-0.1,1.0,0.0,456.0,909.0,0.0,0,-555.0,1
623,623,-0.4833662416776045,-0.5,1.0,0.0,475.0,968.0,0.0,0,1057.0,1
624,624,-0.106586859634764,-0.1,1.0,0.0,411.0,553.0,0.0,0,1386.0,1
625,625,-0.45379772244669697,-0.5,0.0,1.0,314.0,779.0,0.0,1,-893.0,0
626,626,0.8780327147737951,0.9,0.0,0.0,355.0,875.0,1.0,0,1770.0,0
627,627,0.18427183776610623,0.2,0.0,0.0,348.0,532.0,0.0,1,-840.0,1
628,628,-0.8606537347098774,-0.9,0.0,1.0,355.0,606.0,0.0,1,-901.0,0
629,629,0.06032524467880018,0.1,1.0,1.0,326.0,851.0,0.0,0,-137.0,0
630,630,-0.5010566998600807,-0.5,1.0,0.0,435.0,546.0,1.0,1,2019.0,0
631,631,-0.6770006667098216,-0.7,1.0,0.0,297.0,971.0,1.0,1,1732.0,0
632,632,0.5983532882710977,0.6,0.0,0.0,351.0,619.0,0.0,1,1600.0,1
633,633,0.5822296798848351,0.6,0.0,0.0,475.0,807.0,0.0,1,-312.0,1
634,634,0.8088164193299133,0.8,1.0,1.0,276.0,702.0,0.0,0,1052.0,0
635,635,-0.6949425290255783,-0.7,0.0,1.0,431.0,874.0,0.0,1,-755.0,0
636,636,0.00696647523583771,0.0,0.0,0.0,437.0,527.0,1.0,0,146.0,0
637,637,0.20586307375726987,0.2,1.0,1.0,278.0,510.0,1.0,1,902.0,1
638,638,-0.09839066186607948,-0.1,0.0,1.0,313.0,870.0,0.0,1,-1053.0,0
639,639,0.7054424829625451,0.7,0.0,0.0,465.0,667.0,1.0,0,1868.0,0
640,640,0.32659204009701204,0.3,1.0,1.0,406.0,703.0,0.0,0,481.0,0
641,641,-0.8564585012952045,-0.9,1.0,0.0,274.0,732.0,0.0,0,1374.0,1
642,642,-0.809161606913365,-0.8,0.0,1.0,316.0,941.0,0.0,1,1083.0,0
643,643,-0.20695012077054542,-0.2,1.0,0.0,345.0,658.0,0.0,0,-933.0,1
644,644,-0.37773255062039246,-0.4,0.0,1.0,272.0,851.0,0.0,1,437.0,0
645,645,0.22046240159511699,0.2,0.0,0.0,482.0,837.0,1.0,0,1681.0,0
646,646,-0.840401185333333,-0.8,1.0,0.0,363.0,699.0,0.0,0,1668.0,1
647,647,-0.434586163408101,-0.4,1.0,0.0,464.0,512.0,0.0,0,-886.0,1
648,648,-0.05565911737655116,-0.1,1.0,0.0,330.0,669.0,0.0,0,311.0,1
649,649,0.19834180540184654,0.2,1.0,1.0,452.0,683.0,0.0,0,685.0,0
650,650,-0.39504579755418,-0.4,0.0,1.0,269.0,709.0,0.0,1,-968.0,0
651,651,-0.7063218117920381,-0.7,1.0,0.0,464.0,633.0,1.0,1,-767.0,0
652,652,-0.12460419199979422,-0.1,1.0,0.0,270.0,964.0,0.0,0,-964.0,1
653,653,-0.82642576935143,-0.8,0.0,1.0,342.0,993.0,0.0,1,-655.0,0
654,654,0.37348052895426964,0.4,1.0,1.0,291.0,669.0,1.0,1,-630.0,1
655,655,-0.6042727201635776,-0.6,0.0,1.0,313.0,871.0,0.0,1,-1074.0,0
656,656,0.7851378818446709,0.8,0.0,0.0,461.0,549.0,0.0,1,340.0,1
657,657,0.6432511215464328,0.6,0.0,0.0,498.0,631.0,0.0,1,-1059.0,1
658,658,-0.4141228088468359,-0.4,1.0,0.0,399.0,718.0,0.0,0,-797.0,1
659,659,-0.34930998552563275,-0.3,0.0,1.0,451.0,817.0,1.0,0,-1178.0,1
660,660,-0.5360985872832785,-0.5,1.0,0.0,379.0,528.0,0.0,0,-517.0,1
661,661,-0.6173099126291501,-0.6,0.0,1.0,418.0,513.0,0.0,1,-921.0,0
662,662,0.6893387976461073,0.7,1.0,1.0,466.0,863.0,0.0,0,-129.0,0
663,663,-0.3803574294727785,-0.4,0.0,1.0,408.0,686.0,0.0,1,-74.0,0
664,664,0.5204628332560123,0.5,1.0,1.0,431.0,892.0,1.0,1,-883.0,1
665,665,0.8602634485705191,0.9,0.0,0.0,389.0,909.0,0.0,1,22.0,1
666,666,0.3347414881705847,0.3,0.0,0.0,372.0,689.0,0.0,1,819.0,1
667,667,0.003044077434803283,0.0,1.0,1.0,377.0,839.0,0.0,0,-1206.0,0
668,668,0.6552442224758545,0.7,1.0,1.0,319.0,746.0,0.0,0,1285.0,0
669,669,0.5298159916219524,0.5,0.0,0.0,298.0,524.0,0.0,1,498.0,1
670,670,0.22079573477311987,0.2,0.0,0.0,399.0,868.0,0.0,1,893.0,1
671,671,0.7597174305532562,0.8,0.0,0.0,314.0,614.0,0.0,1,-458.0,1
672,672,0.7197334016868459,0.7,1.0,1.0,418.0,771.0,0.0,0,-779.0,0
673,673,-0.7836615043464522,-0.8,0.0,1.0,336.0,941.0,0.0,1,-447.0,0
674,674,0.31226694762193297,0.3,1.0,1.0,260.0,910.0,1.0,1,1830.0,1
675,675,0.8465273922221491,0.8,1.0,1.0,297.0,866.0,0.0,0,67.0,0
676,676,-0.3821694966262772,-0.4,0.0,1.0,413.0,897.0,0.0,1,1260.0,0
677,677,-0.47276335609800013,-0.5,0.0,1.0,322.0,687.0,0.0,1,-639.0,0
678,678,0.5885357115273676,0.6,0.0,0.0,447.0,654.0,0.0,1,149.0,1
679,679,-0.12711767846002142,-0.1,1.0,0.0,326.0,966.0,1.0,1,1708.0,0
680,680,0.010582189559590782,0.0,0.0,0.0,361.0,886.0,0.0,1,-677.0,1
681,681,-0.8969142570339879,-0.9,1.0,0.0,320.0,624.0,0.0,0,-584.0,1
682,682,0.45013874845734103,0.5,0.0,0.0,342.0,794.0,0.0,1,-1016.0,1
683,683,0.8587032597915493,0.9,1.0,1.0,405.0,706.0,0.0,0,909.0,0
684,684,-0.7168672332594083,-0.7,1.0,0.0,443.0,994.0,0.0,0,-1397.0,1
685,685,0.4777922088288954,0.5,0.0,0.0,450.0,820.0,0.0,1,820.0,1
686,686,-0.6271183331738315,-0.6,0.0,1.0,295.0,601.0,0.0,1,-606.0,0
687,687,0.371441144481785,0.4,1.0,1.0,364.0,511.0,0.0,0,445.0,0
688,688,-0.21204576450750734,-0.2,0.0,1.0,485.0,660.0,1.0,0,505.0,1
689,689,-0.7902429814352903,-0.8,0.0,1.0,354.0,709.0,0.0,1,-333.0,0
690,690,-0.0841691753681475,-0.1,1.0,0.0,414.0,874.0,0.0,0,2.0,1
691,691,-0.2467983692422403,-0.2,0.0,1.0,348.0,903.0,0.0,1,-781.0,0
692,692,0.523132667747736,0.5,0.0,0.0,326.0,736.0,0.0,1,398.0,1
693,693,-0.36797547244587026,-0.4,1.0,0.0,395.0,943.0,0.0,0,-768.0,1
694,694,-0.4162938271484054,-0.4,1.0,0.0,408.0,681.0,0.0,0,-309.0,1
695,695,0.23961806652259898,0.2,0.0,0.0,377.0,633.0,0.0,1,710.0,1
696,696,0.33364082983457555,0.3,1.0,1.0,355.0,915.0,0.0,0,-290.0,0
697,697,-0.27343903614413567,-0.3,1.0,0.0,350.0,773.0,0.0,0,-473.0,1
698,698,0.5352592345171262,0.5,1.0,1.0,397.0,855.0,0.0,0,1238.0,0
699,699,-0.5460656782730264,-0.5,0.0,1.0,449.0,589.0,0.0,1,402.0,0
700,700,-0.6690767071890377,-0.7,0.0,1.0,343.0,727.0,0.0,1,540.0,0
701,701,-0.503555070289193,-0.5,1.0,0.0,469.0,721.0,0.0,0,670.0,1
702,702,-0.12633820632931692,-0.1,1.0,0.0,429.0,787.0,0.0,0,594.0,1
703,703,0.3103937615367779,0.3,0.0,0.0,355.0,891.0,0.0,1,-1046.0,1
704,704,0.4294521180022054,0.4,1.0,1.0,353.0,735.0,0.0,0,-458.0,0
705,705,-0.7411559963285914,-0.7,1.0,0.0,417.0,608.0,0.0,0,-945.0,1
706,706,-0.5830590704979624,-0.6,1.0,0.0,484.0,525.0,0.0,0,1981.0,1
707,707,-0.21923236569604287,-0.2,0.0,1.0,441.0,973.0,0.0,1,-1354.0,0
708,708,-0.43669477120696104,-0.4,0.0,1.0,264.0,938.0,1.0,0,-522.0,1
709,709,-0.08146722027539988,-0.1,0.0,1.0,453.0,568.0,0.0,1,1709.0,0
710,710,0.8144615264826472,0.8,0.0,0.0,388.0,871.0,0.0,1,1031.0,1
711,711,-0.3546110179988212,-0.4,0.0,1.0,282.0,565.0,0.0,1,543.0,0
712,712,-0.5651364951082918,-0.6,1.0,0.0,430.0,521.0,0.0,0,-711.0,1
713,713,0.23034464611909822,0.2,1.0,1.0,290.0,979.0,0.0,0,-1249.0,0
714,714,0.7232214493519483,0.7,0.0,0.0,422.0,605.0,0.0,1,-137.0,1
715,715,-0.6999641279580159,-0.7,0.0,1.0,310.0,787.0,0.0,1,-377.0,0
716,716,-0.5388212844168166,-0.5,1.0,0.0,359.0,928.0,0.0,0,363.0,1
717,717,0.4545564403396044,0.5,0.0,0.0,388.0,538.0,0.0,1,704.0,1
718,718,-0.5344662376222759,-0.5,1.0,0.0,339.0,782.0,0.0,0,1879.0,1
719,719,0.6938797020143302,0.7,1.0,1.0,459.0,962.0,0.0,0,-711.0,0
720,720,-0.7622957668875909,-0.8,0.0,1.0,356.0,861.0,0.0,1,223.0,0
721,721,-0.6952272873918449,-0.7,1.0,0.0,310.0,804.0,0.0,0,66.0,1
722,722,-0.6790336268548245,-0.7,1.0,0.0,406.0,897.0,0.0,0,1697.0,1
723,723,-0.805464511277884,-0.8,1.0,0.0,357.0,580.0,0.0,0,-517.0,1
724,724,0.31157320184873616,0.3,1.0,1.0,255.0,892.0,1.0,1,-937.0,1
725,725,-0.005807336229260107,-0.0,0.0,1.0,270.0,628.0,0.0,1,1262.0,0
726,726,0.11951911553225336,0.1,1.0,1.0,324.0,834.0,0.0,0,-348.0,0
727,727,-0.13794721382380248,-0.1,1.0,0.0,323.0,811.0,1.0,1,-984.0,0
728,728,0.17476801181024804,0.2,0.0,0.0,424.0,599.0,1.0,0,-883.0,0
729,729,0.01917954867617988,0.0,1.0,1.0,318.0,696.0,0.0,0,166.0,0
730,730,-0.5489160218344526,-0.5,0.0,1.0,356.0,537.0,1.0,0,1697.0,1
731,731,0.1267635053653281,0.1,0.0,0.0,285.0,920.0,0.0,1,-675.0,1
732,732,0.525861735251861,0.5,1.0,1.0,284.0,951.0,0.0,0,1765.0,0
733,733,0.858109156129561,0.9,0.0,0.0,310.0,565.0,1.0,0,1135.0,0
734,734,0.020864486168394758,0.0,0.0,0.0,424.0,627.0,0.0,1,-161.0,1
735,735,-0.20277519180099557,-0.2,0.0,1.0,292.0,947.0,0.0,1,1321.0,0
736,736,-0.6657831569364682,-0.7,0.0,1.0,250.0,655.0,0.0,1,1195.0,0
737,737,0.8292301043589719,0.8,0.0,0.0,483.0,681.0,1.0,0,1836.0,0
738,738,0.8500129970684717,0.9,1.0,1.0,433.0,892.0,1.0,1,1675.0,1
739,739,-0.09963539077378103,-0.1,0.0,1.0,451.0,638.0,0.0,1,-799.0,0
740,740,-0.4031173437693336,-0.4,1.0,0.0,387.0,862.0,0.0,0,531.0,1
741,741,0.21161082509766171,0.2,0.0,0.0,348.0,562.0,1.0,0,-400.0,0
742,742,-0.36009333148705913,-0.4,1.0,0.0,456.0,576.0,0.0,0,-922.0,1
743,743,0.8076506777761051,0.8,0.0,0.0,464.0,517.0,0.0,1,-191.0,1
744,744,-0.662822567278922,-0.7,0.0,1.0,334.0,650.0,0.0,1,636.0,0
745,745,0.7058978652286944,0.7,1.0,1.0,281.0,628.0,1.0,1,2091.0,1
746,746,-0.2579294535514667,-0.3,1.0,0.0,310.0,954.0,0.0,0,1316.0,1
747,747,-0.6794100890642553,-0.7,0.0,1.0,272.0,923.0,0.0,1,-325.0,0
748,748,-0.28173244991136437,-0.3,0.0,1.0,324.0,526.0,0.0,1,-230.0,0
749,749,-0.7920573566458909,-0.8,0.0,1.0,429.0,729.0,0.0,1,232.0,0
750,750,0.0992975696182774,0.1,0.0,0.0,445.0,952.0,1.0,0,-307.0,0
751,751,0.7085775409785978,0.7,0.0,0.0,394.0,741.0,0.0,1,1235.0,1
752,752,-0.0475916238207893,-0.0,1.0,0.0,469.0,844.0,1.0,1,1687.0,0
753,753,-0.13279200259098745,-0.1,0.0,1.0,448.0,543.0,0.0,1,189.0,0
754,754,0.7744363933872301,0.8,1.0,1.0,381.0,955.0,0.0,0,-1206.0,0
755,755,-0.02238225098913882,-0.0,0.0,1.0,270.0,734.0,0.0,1,1256.0,0
756,756,0.19384080354655875,0.2,1.0,1.0,271.0,990.0,0.0,0,219.0,0
757,757,-0.1387213993899279,-0.1,0.0,1.0,267.0,663.0,1.0,0,-820.0,1
758,758,-0.11909254575840933,-0.1,0.0,1.0,425.0,861.0,0.0,1,-436.0,0
759,759,0.6749354711672028,0.7,0.0,0.0,450.0,997.0,0.0,1,-537.0,1
760,760,0.6733184659599326,0.7,0.0,0.0,252.0,743.0,0.0,1,-945.0,1
761,761,-0.89817633520776,-0.9,0.0,1.0,308.0,792.0,0.0,1,-870.0,0
762,762,-0.32125887480036985,-0.3,0.0,1.0,371.0,623.0,0.0,1,-964.0,0
763,763,0.6205177136249321,0.6,0.0,0.0,437.0,597.0,0.0,1,-664.0,1
764,764,-0.7866355876908192,-0.8,1.0,0.0,250.0,930.0,0.0,0,-1120.0,1
765,765,0.30747387638668455,0.3,1.0,1.0,494.0,569.0,0.0,0,-563.0,0
766,766,-0.768983194010666,-0.8,0.0,1.0,459.0,910.0,0.0,1,-709.0,0
767,767,-0.7663020601109892,-0.8,0.0,1.0,351.0,869.0,1.0,0,1230.0,1
768,768,0.43412354280761967,0.4,0.0,0.0,297.0,739.0,0.0,1,-336.0,1
769,769,-0.5646542591131772,-0.6,1.0,0.0,298.0,986.0,0.0,0,-1164.0,1
770,770,-0.8934345896854852,-0.9,0.0,1.0,371.0,954.0,0.0,1,-1115.0,0
771,771,-0.5203860598980186,-0.5,1.0,0.0,260.0,591.0,0.0,0,149.0,1
772,772,0.43727610521601534,0.4,0.0,0.0,498.0,763.0,0.0,1,-681.0,1
773,773,-0.42363781104597653,-0.4,1.0,0.0,492.0,597.0,0.0,0,-159.0,1
774,774,-0.30245764383972673,-0.3,1.0,0.0,287.0,875.0,0.0,0,-872.0,1
775,775,-0.034769929240097475,-0.0,1.0,0.0,360.0,520.0,0.0,0,-230.0,1
776,776,0.0687405153576075,0.1,1.0,1.0,460.0,826.0,0.0,0,-376.0,0
777,777,-0.10357011643213043,-0.1,1.0,0.0,399.0,602.0,0.0,0,-801.0,1
778,778,-0.21179379855542235,-0.2,0.0,1.0,378.0,701.0,0.0,1,-409.0,0
779,779,0.002896704118302895,0.0,0.0,0.0,481.0,594.0,0.0,1,-965.0,1
780,780,-0.40796249169549753,-0.4,1.0,0.0,274.0,583.0,0.0,0,133.0,1
781,781,0.5725755337143726,0.6,1.0,1.0,282.0,911.0,0.0,0,477.0,0
782,782,0.015713196149859332,0.0,0.0,0.0,432.0,682.0,1.0,0,1886.0,0
783,783,-0.29538812147717985,-0.3,0.0,1.0,353.0,997.0,0.0,1,1040.0,0
784,784,0.5655072810593215,0.6,0.0,0.0,465.0,711.0,0.0,1,-486.0,1
785,785,0.4082080709987853,0.4,0.0,0.0,362.0,749.0,0.0,1,1119.0,1
786,786,-0.3278683119940631,-0.3,1.0,0.0,437.0,705.0,0.0,0,-232.0,1
787,787,-0.7034299202135306,-0.7,0.0,1.0,403.0,564.0,1.0,0,-817.0,1
788,788,-0.6855414974627092,-0.7,0.0,1.0,306.0,828.0,0.0,1,-464.0,0
789,789,-0.0979845593986276,-0.1,0.0,1.0,280.0,985.0,0.0,1,-1255.0,0
790,790,-0.08681795657171043,-0.1,1.0,0.0,474.0,624.0,0.0,0,1892.0,1
791,791,0.7047081065019897,0.7,0.0,0.0,352.0,867.0,0.0,1,51.0,1
792,792,0.16977456111400546,0.2,0.0,0.0,378.0,789.0,0.0,1,-927.0,1
793,793,-0.06655223060163551,-0.1,0.0,1.0,251.0,655.0,0.0,1,514.0,0
794,794,-0.480317459244773,-0.5,1.0,0.0,420.0,501.0,0.0,0,299.0,1
795,795,-0.5151396326084738,-0.5,1.0,0.0,407.0,730.0,0.0,0,1143.0,1
796,796,-0.8455635710050695,-0.8,0.0,1.0,386.0,640.0,0.0,1,404.0,0
797,797,0.2306678283414928,0.2,1.0,1.0,275.0,666.0,0.0,0,-631.0,0
798,798,-0.6358701900873867,-0.6,1.0,0.0,308.0,911.0,0.0,0,31.0,1
799,799,0.7395952002741925,0.7,1.0,1.0,328.0,838.0,0.0,0,-1156.0,0
800,800,-0.17828740572144042,-0.2,1.0,0.0,452.0,813.0,0.0,0,655.0,1
801,801,-0.6266942419777242,-0.6,0.0,1.0,287.0,666.0,0.0,1,-823.0,0
802,802,-0.4037665485252439,-0.4,1.0,0.0,354.0,985.0,0.0,0,-989.0,1
803,803,0.262806089878315,0.3,0.0,0.0,280.0,813.0,1.0,0,1907.0,0
804,804,0.3871053392758571,0.4,1.0,1.0,481.0,659.0,0.0,0,-890.0,0
805,805,-0.5668952760655342,-0.6,1.0,0.0,395.0,906.0,0.0,0,-1301.0,1
806,806,0.7611134634632893,0.8,1.0,1.0,369.0,552.0,0.0,0,599.0,0
807,807,-0.43235717360117276,-0.4,0.0,1.0,398.0,896.0,0.0,1,-464.0,0
808,808,0.2568976202624541,0.3,1.0,1.0,398.0,967.0,1.0,1,1635.0,1
809,809,-0.37016467663265185,-0.4,0.0,1.0,476.0,781.0,0.0,1,-957.0,0
810,810,-0.6475134030499344,-0.6,1.0,0.0,344.0,702.0,1.0,1,1504.0,0
811,811,0.2929628009766919,0.3,0.0,0.0,458.0,846.0,0.0,1,26.0,1
812,812,0.5465583600947043,0.5,1.0,1.0,328.0,595.0,0.0,0,-663.0,0
813,813,-0.7640067721123827,-0.8,0.0,1.0,261.0,979.0,0.0,1,-190.0,0
814,814,-0.01426524591795908,-0.0,1.0,0.0,331.0,717.0,1.0,1,-908.0,0
815,815,-0.21675417886418058,-0.2,0.0,1.0,250.0,783.0,0.0,1,1967.0,0
816,816,0.5655997533809732,0.6,1.0,1.0,328.0,633.0,0.0,0,-361.0,0
817,817,-0.44632766869919793,-0.4,0.0,1.0,409.0,902.0,0.0,1,1389.0,0
818,818,-0.7904317831140493,-0.8,0.0,1.0,284.0,977.0,0.0,1,-711.0,0
819,819,-0.11176419448537378,-0.1,0.0,1.0,402.0,878.0,0.0,1,-250.0,0
820,820,-0.2085214552253476,-0.2,1.0,0.0,313.0,508.0,0.0,0,109.0,1
821,821,0.6910152398307073,0.7,1.0,1.0,396.0,658.0,1.0,1,1946.0,1
822,822,-0.4229151727355289,-0.4,1.0,0.0,378.0,509.0,0.0,0,-387.0,1
823,823,-0.48739311523369594,-0.5,1.0,0.0,444.0,970.0,0.0,0,-414.0,1
824,824,0.46487243057397143,0.5,1.0,1.0,420.0,904.0,0.0,0,-1304.0,0
825,825,-0.43101689376798596,-0.4,1.0,0.0,286.0,942.0,0.0,0,-1078.0,1
826,826,0.12959058481902874,0.1,1.0,1.0,464.0,930.0,0.0,0,-24.0,0
827,827,0.19855371388021392,0.2,1.0,1.0,338.0,762.0,0.0,0,-250.0,0
828,828,-0.4438670284343639,-0.4,1.0,0.0,429.0,677.0,0.0,0,-1086.0,1
829,829,0.5089756394426649,0.5,0.0,0.0,254.0,655.0,1.0,0,2091.0,0
830,830,0.33121882493933763,0.3,1.0,1.0,489.0,896.0,1.0,1,1615.0,1
831,831,0.5455648694733103,0.5,0.0,0.0,345.0,802.0,1.0,0,1853.0,0
832,832,-0.6371215213970542,-0.6,1.0,0.0,407.0,560.0,1.0,1,1193.0,0
833,833,0.04724472941295721,0.0,1.0,1.0,255.0,528.0,0.0,0,1617.0,0
834,834,0.07568315849122154,0.1,0.0,0.0,499.0,905.0,0.0,1,956.0,1
835,835,0.3593536294477543,0.4,1.0,1.0,375.0,896.0,1.0,1,259.0,1
836,836,0.11669013377042192,0.1,1.0,1.0,324.0,861.0,1.0,1,1815.0,1
837,837,0.05150114287477903,0.1,0.0,0.0,321.0,530.0,0.0,1,-561.0,1
838,838,-0.15801791988027913,-0.2,1.0,0.0,482.0,510.0,1.0,1,-982.0,0
839,839,0.3019933190300309,0.3,0.0,0.0,264.0,635.0,0.0,1,-899.0,1
840,840,-0.22854375498200297,-0.2,1.0,0.0,467.0,952.0,0.0,0,-719.0,1
841,841,-0.5538352389356505,-0.6,1.0,0.0,287.0,781.0,0.0,0,-998.0,1
842,842,0.5439045440964386,0.5,0.0,0.0,382.0,662.0,0.0,1,516.0,1
843,843,-0.28813004407943965,-0.3,0.0,1.0,264.0,515.0,0.0,1,-699.0,0
844,844,-0.4927431235604715,-0.5,1.0,0.0,331.0,808.0,0.0,0,-879.0,1
845,845,0.6137572286377285,0.6,0.0,0.0,461.0,563.0,0.0,1,-814.0,1
846,846,0.583358461111127,0.6,1.0,1.0,388.0,623.0,0.0,0,-511.0,0
847,847,-0.7807507320457652,-0.8,0.0,1.0,309.0,502.0,0.0,1,179.0,0
848,848,0.5786128096686854,0.6,1.0,1.0,370.0,587.0,0.0,0,-787.0,0
849,849,0.8598236476159525,0.9,1.0,1.0,494.0,859.0,0.0,0,737.0,0
850,850,-0.6120004969358706,-0.6,1.0,0.0,477.0,944.0,1.0,1,1579.0,0
851,851,-0.08211238656609088,-0.1,0.0,1.0,492.0,722.0,0.0,1,-774.0,0
852,852,0.24834074945614792,0.2,1.0,1.0,269.0,702.0,0.0,0,-681.0,0
853,853,-0.3454773388408985,-0.3,1.0,0.0,373.0,819.0,0.0,0,-642.0,1
854,854,-0.7982581124924032,-0.8,0.0,1.0,437.0,922.0,1.0,0,1641.0,1
855,855,-0.7284541962268652,-0.7,1.0,0.0,400.0,597.0,1.0,1,2003.0,0
856,856,0.719391592862692,0.7,0.0,0.0,340.0,556.0,0.0,1,-26.0,1
857,857,0.22759473311497558,0.2,1.0,1.0,469.0,981.0,0.0,0,400.0,0
858,858,0.11496139023956509,0.1,1.0,1.0,321.0,644.0,0.0,0,965.0,0
859,859,0.6081030626112426,0.6,0.0,0.0,318.0,943.0,0.0,1,-1211.0,1
860,860,-0.544589682559693,-0.5,0.0,1.0,484.0,896.0,0.0,1,-1180.0,0
861,861,-0.8806437975142197,-0.9,1.0,0.0,358.0,645.0,0.0,0,-973.0,1
862,862,-0.010469622271911394,-0.0,0.0,1.0,421.0,745.0,0.0,1,594.0,0
863,863,-0.2178163704975038,-0.2,1.0,0.0,415.0,702.0,0.0,0,803.0,1
864,864,0.08715753086549138,0.1,1.0,1.0,367.0,729.0,0.0,0,774.0,0
865,865,-0.844987360704104,-0.8,1.0,0.0,328.0,966.0,0.0,0,-1154.0,1
866,866,-0.7997068383324715,-0.8,0.0,1.0,472.0,753.0,0.0,1,-295.0,0
867,867,0.6478975524145153,0.6,1.0,1.0,274.0,964.0,1.0,1,1762.0,1
868,868,-0.8013372642834858,-0.8,0.0,1.0,271.0,744.0,0.0,1,515.0,0
869,869,-0.5689524140479105,-0.6,0.0,1.0,287.0,731.0,0.0,1,-298.0,0
870,870,-0.694233531634493,-0.7,0.0,1.0,404.0,678.0,1.0,0,1708.0,1
871,871,-0.14171736439189198,-0.1,1.0,0.0,442.0,582.0,0.0,0,-964.0,1
872,872,-0.8436171705892025,-0.8,1.0,0.0,473.0,532.0,1.0,1,-895.0,0
873,873,0.2390541135294323,0.2,0.0,0.0,426.0,589.0,0.0,1,-945.0,1
874,874,0.5547479061183517,0.6,0.0,0.0,370.0,937.0,0.0,1,1073.0,1
875,875,-0.27910929343811874,-0.3,1.0,0.0,419.0,750.0,0.0,0,-429.0,1
876,876,-0.8262201392780488,-0.8,1.0,0.0,481.0,721.0,0.0,0,-32.0,1
877,877,-0.6645924592238539,-0.7,0.0,1.0,264.0,734.0,0.0,1,332.0,0
878,878,0.007685436046020899,0.0,1.0,1.0,481.0,707.0,0.0,0,-58.0,0
879,879,0.6128051298263423,0.6,0.0,0.0,369.0,935.0,1.0,0,1696.0,0
880,880,-0.06961584078682914,-0.1,0.0,1.0,300.0,590.0,1.0,0,-660.0,1
881,881,0.701232162794477,0.7,0.0,0.0,256.0,664.0,0.0,1,330.0,1
882,882,-0.1141589599387951,-0.1,0.0,1.0,349.0,538.0,0.0,1,-547.0,0
883,883,0.0007797526283729317,0.0,0.0,0.0,269.0,559.0,0.0,1,132.0,1
884,884,0.8499466870813085,0.8,0.0,0.0,268.0,791.0,0.0,1,-679.0,1
885,885,-0.7899975739942043,-0.8,0.0,1.0,364.0,535.0,0.0,1,-609.0,0
886,886,0.5242160545799334,0.5,0.0,0.0,257.0,696.0,0.0,1,187.0,1
887,887,-0.7448710430748926,-0.7,0.0,1.0,294.0,565.0,0.0,1,741.0,0
888,888,-0.0414593445722623,-0.0,1.0,0.0,324.0,677.0,1.0,1,539.0,0
889,889,0.8873093302609733,0.9,1.0,1.0,355.0,673.0,0.0,0,-1028.0,0
890,890,0.7933570760177665,0.8,0.0,0.0,316.0,748.0,1.0,0,-554.0,0
891,891,0.3959220207334767,0.4,0.0,0.0,499.0,715.0,0.0,1,-204.0,1
892,892,-0.7442310955217039,-0.7,1.0,0.0,341.0,981.0,0.0,0,208.0,1
893,893,-0.7852926290559061,-0.8,1.0,0.0,403.0,783.0,0.0,0,-56.0,1
894,894,0.27736659606778036,0.3,0.0,0.0,398.0,994.0,0.0,1,-62.0,1
895,895,-0.4903228100843006,-0.5,1.0,0.0,301.0,941.0,0.0,0,-632.0,1
896,896,-0.29615972552274905,-0.3,1.0,0.0,328.0,607.0,0.0,0,1255.0,1
897,897,-0.09938198741234672,-0.1,0.0,1.0,340.0,912.0,1.0,0,-1192.0,1
898,898,-0.18790467749340478,-0.2,1.0,0.0,334.0,589.0,0.0,0,1367.0,1
899,899,-0.34932947734314757,-0.3,0.0,1.0,488.0,631.0,0.0,1,-869.0,0
900,900,-0.0033607028168475273,-0.0,1.0,0.0,345.0,959.0,0.0,0,-1044.0,1
901,901,0.8788988139995605,0.9,0.0,0.0,323.0,602.0,1.0,0,2075.0,0
902,902,-0.17518886702731273,-0.2,0.0,1.0,287.0,673.0,0.0,1,-570.0,0
903,903,-0.3699819468090385,-0.4,0.0,1.0,383.0,546.0,0.0,1,-899.0,0
904,904,-0.2192789582307091,-0.2,1.0,0.0,477.0,746.0,0.0,0,1047.0,1
905,905,-0.5509168297466303,-0.6,0.0,1.0,438.0,597.0,1.0,0,155.0,1
906,906,0.5677974243625942,0.6,1.0,1.0,306.0,879.0,0.0,0,1815.0,0
907,907,-0.7118512661708846,-0.7,0.0,1.0,258.0,628.0,0.0,1,744.0,0
908,908,-0.5216426144739863,-0.5,1.0,0.0,310.0,918.0,1.0,1,722.0,0
909,909,0.30227293211074324,0.3,0.0,0.0,323.0,814.0,1.0,0,-767.0,0
910,910,0.5997851499340138,0.6,1.0,1.0,259.0,577.0,0.0,0,1784.0,0
911,911,0.6971134387146959,0.7,1.0,1.0,460.0,959.0,0.0,0,-929.0,0
912,912,-0.11308562109371689,-0.1,1.0,0.0,442.0,932.0,0.0,0,956.0,1
913,913,-0.22111183232050358,-0.2,0.0,1.0,296.0,811.0,0.0,1,-297.0,0
914,914,0.8747359074251492,0.9,0.0,0.0,262.0,536.0,0.0,1,-698.0,1
915,915,-0.041171421733855795,-0.0,0.0,1.0,401.0,911.0,0.0,1,318.0,0
916,916,0.08828598456667303,0.1,0.0,0.0,387.0,629.0,1.0,0,1984.0,0
917,917,-0.5324824489820252,-0.5,0.0,1.0,428.0,928.0,1.0,0,1644.0,1
918,918,0.742841133917968,0.7,0.0,0.0,431.0,817.0,0.0,1,952.0,1
919,919,-0.8037866175254575,-0.8,1.0,0.0,441.0,833.0,0.0,0,-834.0,1
920,920,0.4817034367342544,0.5,1.0,1.0,353.0,618.0,1.0,1,2029.0,1
921,921,0.263559368463539,0.3,1.0,1.0,359.0,871.0,1.0,1,1770.0,1
922,922,0.017991555284553096,0.0,0.0,0.0,359.0,566.0,0.0,1,-345.0,1
923,923,0.23227037589981336,0.2,1.0,1.0,375.0,905.0,0.0,0,-130.0,0
924,924,0.31973270184128355,0.3,1.0,1.0,256.0,575.0,1.0,1,2169.0,1
925,925,0.07230726113128327,0.1,0.0,0.0,261.0,974.0,0.0,1,-715.0,1
926,926,0.6219162788393974,0.6,0.0,0.0,470.0,564.0,0.0,1,36.0,1
927,927,0.37976176565337505,0.4,0.0,0.0,368.0,551.0,0.0,1,-889.0,1
928,928,0.7254077017857078,0.7,0.0,0.0,265.0,885.0,0.0,1,-770.0,1
929,929,0.5190776471436359,0.5,0.0,0.0,358.0,573.0,0.0,1,-531.0,1
930,930,-0.42334333098753524,-0.4,0.0,1.0,347.0,628.0,0.0,1,115.0,0
931,931,-0.2165815666739751,-0.2,0.0,1.0,266.0,652.0,0.0,1,-458.0,0
932,932,-0.07162167778231865,-0.1,0.0,1.0,497.0,943.0,0.0,1,-1100.0,0
933,933,-0.8306215881929458,-0.8,1.0,0.0,445.0,762.0,0.0,0,-947.0,1
934,934,0.27332277752956047,0.3,1.0,1.0,480.0,511.0,0.0,0,-951.0,0
935,935,0.8609955618656956,0.9,1.0,1.0,254.0,776.0,1.0,1,1970.0,1
936,936,0.393785496555222,0.4,0.0,0.0,368.0,749.0,0.0,1,-807.0,1
937,937,-0.6791758705444098,-0.7,0.0,1.0,401.0,780.0,1.0,0,1819.0,1
938,938,0.6536879608922709,0.7,1.0,1.0,397.0,977.0,0.0,0,276.0,0
939,939,-0.8088077040170973,-0.8,0.0,1.0,473.0,871.0,0.0,1,-1324.0,0
940,940,-0.8312443218276102,-0.8,1.0,0.0,339.0,606.0,0.0,0,495.0,1
941,941,-0.7215356536579565,-0.7,1.0,0.0,256.0,716.0,0.0,0,-122.0,1
942,942,0.5207914772982923,0.5,1.0,1.0,272.0,787.0,1.0,1,-99.0,1
943,943,0.7392412248647103,0.7,1.0,1.0,405.0,885.0,0.0,0,1350.0,0
944,944,-0.6775194772803192,-0.7,0.0,1.0,382.0,983.0,0.0,1,-5.0,0
945,945,-0.5259912665109377,-0.5,0.0,1.0,289.0,939.0,0.0,1,-48.0,0
946,946,-0.3286551050305835,-0.3,1.0,0.0,361.0,820.0,0.0,0,849.0,1
947,947,0.4602936410070618,0.5,0.0,0.0,357.0,506.0,0.0,1,-803.0,1
948,948,0.3596181940741704,0.4,1.0,1.0,450.0,835.0,0.0,0,-405.0,0
949,949,0.7377874277785837,0.7,0.0,0.0,293.0,788.0,1.0,0,1919.0,0
950,950,-0.5210782025424179,-0.5,1.0,0.0,457.0,804.0,1.0,1,-741.0,0
951,951,0.7832805210908872,0.8,1.0,1.0,483.0,954.0,0.0,0,-1417.0,0
952,952,0.10068734624770459,0.1,0.0,0.0,293.0,870.0,0.0,1,667.0,1
953,953,0.28167170330409685,0.3,1.0,1.0,279.0,580.0,0.0,0,-539.0,0
954,954,-0.6487817286588995,-0.6,0.0,1.0,478.0,876.0,0.0,1,-814.0,0
955,955,-0.8393344161399774,-0.8,1.0,0.0,399.0,841.0,0.0,0,1600.0,1
956,956,0.3604927848817775,0.4,1.0,1.0,267.0,641.0,0.0,0,-808.0,0
957,957,-0.7499679174578772,-0.7,0.0,1.0,261.0,852.0,0.0,1,847.0,0
958,958,0.120942998859639,0.1,1.0,1.0,422.0,631.0,1.0,1,1947.0,1
959,959,0.4307729696903083,0.4,0.0,0.0,386.0,652.0,0.0,1,-898.0,1
960,960,0.8781476821306154,0.9,0.0,0.0,336.0,922.0,0.0,1,912.0,1
961,961,0.5684046485054634,0.6,1.0,1.0,290.0,607.0,0.0,0,1113.0,0
962,962,-0.561660830023595,-0.6,1.0,0.0,494.0,553.0,0.0,0,-427.0,1
963,963,-0.46688755023640477,-0.5,1.0,0.0,320.0,645.0,1.0,1,2035.0,0
964,964,0.299929331273607,0.3,1.0,1.0,460.0,594.0,1.0,1,1946.0,1
965,965,-0.7584259073208492,-0.8,0.0,1.0,479.0,998.0,0.0,1,-1047.0,0
966,966,-0.498045688392277,-0.5,1.0,0.0,281.0,896.0,0.0,0,1823.0,1
967,967,0.26915355517304074,0.3,0.0,0.0,274.0,709.0,0.0,1,477.0,1
968,968,0.8612984627163743,0.9,1.0,1.0,367.0,833.0,0.0,0,-870.0,0
969,969,0.6580822160998209,0.7,1.0,1.0,485.0,602.0,0.0,0,-967.0,0
970,970,-0.0366360786897707,-0.0,1.0,0.0,285.0,968.0,0.0,0,-333.0,1
971,971,-0.3724542407628906,-0.4,1.0,0.0,324.0,639.0,1.0,1,2037.0,0
972,972,0.14440661019869283,0.1,1.0,1.0,479.0,528.0,0.0,0,1993.0,0
973,973,0.34795439399641526,0.3,0.0,0.0,321.0,889.0,0.0,1,-300.0,1
974,974,-0.07936390483149902,-0.1,0.0,1.0,490.0,935.0,0.0,1,75.0,0
975,975,0.6719813673489169,0.7,1.0,1.0,419.0,572.0,0.0,0,-41.0,0
976,976,0.22430197561182486,0.2,0.0,0.0,423.0,919.0,0.0,1,498.0,1
977,977,0.32507548523111673,0.3,1.0,1.0,418.0,523.0,1.0,1,2059.0,1
978,978,-0.5993366047309986,-0.6,0.0,1.0,356.0,556.0,0.0,1,68.0,0
979,979,0.8322894080786228,0.8,0.0,0.0,302.0,935.0,0.0,1,303.0,1
980,980,0.6616540566166703,0.7,0.0,0.0,466.0,968.0,0.0,1,-1384.0,1
981,981,0.6447963594404195,0.6,0.0,0.0,438.0,749.0,0.0,1,23.0,1
982,982,-0.26812122439035446,-0.3,0.0,1.0,362.0,515.0,0.0,1,-307.0,0
983,983,0.7182876458360291,0.7,1.0,1.0,496.0,532.0,0.0,0,-598.0,0
984,984,-0.8566863549445312,-0.9,0.0,1.0,377.0,865.0,0.0,1,-1062.0,0
985,985,0.6780989780076009,0.7,1.0,1.0,458.0,989.0,0.0,0,-507.0,0
986,986,0.8473338850777185,0.8,1.0,1.0,474.0,963.0,1.0,1,-1297.0,1
987,987,5.18816782560938e-05,0.0,1.0,1.0,380.0,792.0,0.0,0,208.0,0
988,988,-0.4093400533719301,-0.4,1.0,0.0,471.0,547.0,0.0,0,522.0,1
989,989,0.12335181034634901,0.1,0.0,0.0,499.0,905.0,0.0,1,-984.0,1
990,990,-0.7758497389627252,-0.8,1.0,0.0,454.0,836.0,0.0,0,50.0,1
991,991,0.817818180494161,0.8,1.0,1.0,336.0,525.0,0.0,0,-341.0,0
992,992,0.16942612785525768,0.2,1.0,1.0,357.0,631.0,0.0,0,1002.0,0
993,993,-0.6530689484106457,-0.7,1.0,0.0,371.0,816.0,0.0,0,-1027.0,1
994,994,-0.15285128169850348,-0.2,0.0,1.0,330.0,820.0,0.0,1,-600.0,0
995,995,0.034063502515406574,0.0,1.0,1.0,410.0,626.0,0.0,0,-586.0,0
996,996,-0.8124771635043786,-0.8,1.0,0.0,303.0,680.0,0.0,0,-383.0,1
997,997,0.20441401885418176,0.2,1.0,1.0,381.0,597.0,0.0,0,-338.0,0
998,998,-0.7094174820564109,-0.7,0.0,1.0,498.0,773.0,1.0,0,149.0,1
999,999,0.4278039009002662,0.4,1.0,1.0,298.0,527.0,0.0,0,165.0,0
1000,1000,0.8611311370815947,0.9,0.0,0.0,303.0,500.0,0.0,1,-303.0,1
1001,1001,-0.2641089756429794,-0.3,0.0,1.0,478.0,761.0,0.0,1,101.0,0
1002,1002,0.7241109440040231,0.7,1.0,1.0,447.0,802.0,0.0,0,-89.0,0
1003,1003,0.5292806704121252,0.5,0.0,0.0,456.0,880.0,1.0,0,-1156.0,0
1004,1004,0.6953049287668044,0.7,1.0,1.0,257.0,545.0,0.0,0,-782.0,0
1005,1005,0.5524175199132687,0.6,0.0,0.0,270.0,540.0,0.0,1,-120.0,1
1006,1006,-0.42490795748936666,-0.4,1.0,0.0,274.0,831.0,0.0,0,415.0,1
1007,1007,-0.5864793675039477,-0.6,1.0,0.0,488.0,781.0,1.0,1,-669.0,0
1008,1008,-0.2791243822409337,-0.3,0.0,1.0,272.0,946.0,1.0,0,-1008.0,1
1009,1009,-0.3661287264908626,-0.4,0.0,1.0,437.0,995.0,0.0,1,-1202.0,0
1010,1010,-0.4463990444113502,-0.4,1.0,0.0,366.0,776.0,0.0,0,1228.0,1
1011,1011,0.4658864627026683,0.5,0.0,0.0,329.0,731.0,0.0,1,-580.0,1
1012,1012,-0.0569396165946503,-0.1,1.0,0.0,349.0,643.0,0.0,0,638.0,1
1013,1013,-0.08034540497800113,-0.1,0.0,1.0,442.0,930.0,1.0,0,1628.0,1
1014,1014,-0.45644249860796876,-0.5,1.0,0.0,344.0,683.0,0.0,0,-947.0,1
1015,1015,-0.7568315847614879,-0.8,0.0,1.0,486.0,665.0,0.0,1,-751.0,0
1016,1016,0.8138832647595425,0.8,1.0,1.0,370.0,698.0,0.0,0,-618.0,0
1017,1017,-0.6487259721824832,-0.6,0.0,1.0,305.0,757.0,0.0,1,148.0,0
1018,1018,0.10982243329264463,0.1,0.0,0.0,422.0,507.0,1.0,0,2071.0,0
1019,1019,-0.73430199599802,-0.7,0.0,1.0,315.0,893.0,0.0,1,-698.0,0
1020,1020,0.1410423628262577,0.1,0.0,0.0,369.0,996.0,0.0,1,-805.0,1
1021,1021,0.002021329397263516,0.0,0.0,0.0,458.0,837.0,0.0,1,-795.0,1
1022,1022,-0.6117873691503293,-0.6,1.0,0.0,388.0,631.0,0.0,0,-329.0,1
1023,1023,0.2746395369945537,0.3,1.0,1.0,423.0,959.0,0.0,0,-1112.0,0
1024,1024,-0.1760401672330998,-0.2,1.0,0.0,368.0,850.0,0.0,0,-198.0,1
1025,1025,0.8104025609010356,0.8,0.0,0.0,268.0,858.0,0.0,1,154.0,1
1026,1026,0.478768645432753,0.5,0.0,0.0,312.0,576.0,0.0,1,-698.0,1
1027,1027,0.31744932607308496,0.3,1.0,1.0,347.0,768.0,0.0,0,545.0,0
1028,1028,0.8577709810712194,0.9,0.0,0.0,254.0,951.0,1.0,0,-775.0,0
1029,1029,-0.13660655244930553,-0.1,1.0,0.0,300.0,899.0,0.0,0,461.0,1
1030,1030,-0.10917848284061549,-0.1,1.0,0.0,473.0,886.0,0.0,0,-1159.0,1
1031,1031,-0.6284807053087582,-0.6,0.0,1.0,347.0,628.0,0.0,1,1735.0,0
1032,1032,-0.6935708494197075,-0.7,1.0,0.0,442.0,696.0,1.0,1,1862.0,0
1033,1033,0.28090993957259325,0.3,0.0,0.0,427.0,771.0,0.0,1,-728.0,1
1034,1034,0.7611741206385899,0.8,0.0,0.0,359.0,999.0,0.0,1,-1178.0,1
1035,1035,-0.16926026468236555,-0.2,1.0,0.0,374.0,578.0,0.0,0,48.0,1
1036,1036,-0.48155458174967875,-0.5,0.0,1.0,365.0,588.0,0.0,1,-353.0,0
1037,1037,0.029812457645906787,0.0,1.0,1.0,336.0,939.0,0.0,0,-535.0,0
1038,1038,-0.18498385709977416,-0.2,0.0,1.0,424.0,853.0,0.0,1,-1257.0,0
1039,1039,-0.39380983542552694,-0.4,0.0,1.0,384.0,669.0,0.0,1,-643.0,0
1040,1040,0.6390828607659388,0.6,1.0,1.0,472.0,662.0,0.0,0,-714.0,0
1041,1041,-0.6808125760283733,-0.7,0.0,1.0,400.0,649.0,0.0,1,1391.0,0
1042,1042,0.20194986189865272,0.2,1.0,1.0,296.0,643.0,0.0,0,681.0,0
1043,1043,0.478922322049523,0.5,1.0,1.0,416.0,548.0,0.0,0,-394.0,0
1044,1044,-0.4466997006273629,-0.4,1.0,0.0,417.0,776.0,0.0,0,1807.0,1
1045,1045,-0.41674712675943676,-0.4,0.0,1.0,336.0,512.0,0.0,1,-408.0,0
1046,1046,0.19597522628195618,0.2,0.0,0.0,355.0,800.0,0.0,1,1845.0,1
1047,1047,0.23326085525396067,0.2,0.0,0.0,445.0,916.0,0.0,1,-1051.0,1
1048,1048,-0.26530680171245324,-0.3,0.0,1.0,405.0,910.0,0.0,1,-1095.0,0
1049,1049,0.8855799203512061,0.9,0.0,0.0,322.0,680.0,0.0,1,1998.0,1
1050,1050,0.6551912743423131,0.7,1.0,1.0,445.0,974.0,0.0,0,-1029.0,0
1051,1051,-0.48163848690227756,-0.5,1.0,0.0,481.0,973.0,0.0,0,406.0,1
1052,1052,0.793636433857776,0.8,1.0,1.0,474.0,693.0,0.0,0,393.0,0
1053,1053,-0.23398270750785377,-0.2,0.0,1.0,306.0,807.0,0.0,1,-303.0,0
1054,1054,-0.8150091339721769,-0.8,1.0,0.0,390.0,966.0,1.0,1,1644.0,0
1055,1055,0.5184485929546351,0.5,1.0,1.0,477.0,537.0,0.0,0,236.0,0
1056,1056,-0.0784524723854485,-0.1,1.0,0.0,457.0,645.0,0.0,0,-102.0,1
1057,1057,0.7802790738604327,0.8,1.0,1.0,349.0,677.0,0.0,0,-996.0,0
1058,1058,0.23173558899498026,0.2,0.0,0.0,354.0,609.0,0.0,1,-623.0,1
1059,1059,0.033275964913965894,0.0,0.0,0.0,441.0,939.0,0.0,1,-1320.0,1
1060,1060,-0.8962154655849683,-0.9,1.0,0.0,360.0,627.0,0.0,0,-977.0,1
1061,1061,0.6976001389421863,0.7,0.0,0.0,489.0,706.0,0.0,1,655.0,1
1062,1062,0.1061824619532511,0.1,1.0,1.0,300.0,895.0,0.0,0,-1115.0,0
1063,1063,0.34535450180191096,0.3,0.0,0.0,405.0,723.0,0.0,1,372.0,1
1064,1064,-0.20032259516563178,-0.2,1.0,0.0,300.0,990.0,0.0,0,-250.0,1
1065,1065,-0.2825246779880177,-0.3,1.0,0.0,381.0,919.0,0.0,0,1380.0,1
1066,1066,-0.7662841364448589,-0.8,0.0,1.0,277.0,724.0,1.0,0,1999.0,1
1067,1067,0.7173981099164995,0.7,1.0,1.0,396.0,726.0,0.0,0,908.0,0
1068,1068,0.8679690008651569,0.9,1.0,1.0,311.0,990.0,0.0,0,-611.0,0
1069,1069,-0.7073800408798614,-0.7,0.0,1.0,449.0,558.0,0.0,1,-547.0,0
1070,1070,0.7500325094080816,0.8,0.0,0.0,445.0,826.0,0.0,1,-921.0,1
1071,1071,0.24926485920280783,0.2,1.0,1.0,443.0,980.0,0.0,0,-143.0,0
1072,1072,0.7447958489655845,0.7,1.0,1.0,365.0,788.0,0.0,0,-173.0,0
1073,1073,-0.10235350926169884,-0.1,1.0,0.0,293.0,980.0,0.0,0,1487.0,1
1074,1074,0.3258565594891071,0.3,0.0,0.0,485.0,571.0,0.0,1,-606.0,1
1075,1075,-0.011586815488538238,-0.0,0.0,1.0,260.0,855.0,0.0,1,-845.0,0
1076,1076,0.5727107058985733,0.6,0.0,0.0,369.0,657.0,0.0,1,-966.0,1
1077,1077,-0.20010646438384638,-0.2,1.0,0.0,487.0,992.0,0.0,0,-199.0,1
1078,1078,0.7952780084667482,0.8,1.0,1.0,325.0,923.0,0.0,0,1352.0,0
1079,1079,0.4637157939701816,0.5,1.0,1.0,438.0,594.0,0.0,0,-432.0,0
1080,1080,-0.41339731333228374,-0.4,1.0,0.0,415.0,635.0,1.0,1,-80.0,0
1081,1081,0.71404562478093,0.7,1.0,1.0,362.0,846.0,0.0,0,342.0,0
1082,1082,-0.32960281429995586,-0.3,0.0,1.0,397.0,600.0,0.0,1,-767.0,0
1083,1083,-0.11326608788590853,-0.1,1.0,0.0,265.0,551.0,0.0,0,554.0,1
1084,1084,-0.3858871217706217,-0.4,1.0,0.0,291.0,613.0,0.0,0,1026.0,1
1085,1085,0.09605095351452086,0.1,1.0,1.0,454.0,846.0,0.0,0,-910.0,0
1086,1086,0.10727919756659532,0.1,1.0,1.0,307.0,919.0,0.0,0,804.0,0
1087,1087,0.07989944304385044,0.1,0.0,0.0,420.0,729.0,0.0,1,611.0,1
1088,1088,0.4029887782420457,0.4,0.0,0.0,316.0,873.0,0.0,1,461.0,1
1089,1089,-0.7326098098878069,-0.7,0.0,1.0,292.0,970.0,0.0,1,-1232.0,0
1090,1090,0.35463315059001366,0.4,0.0,0.0,495.0,581.0,0.0,1,-426.0,1
1091,1091,0.8272227181317299,0.8,0.0,0.0,275.0,672.0,1.0,0,2053.0,0
1092,1092,-0.6386037679315995,-0.6,0.0,1.0,426.0,760.0,0.0,1,64.0,0
1093,1093,-0.4535303273152073,-0.5,0.0,1.0,324.0,984.0,0.0,1,1402.0,0
1094,1094,-0.1650455244539194,-0.2,0.0,1.0,390.0,905.0,0.0,1,-995.0,0
1095,1095,0.04107575778670092,0.0,1.0,1.0,442.0,679.0,1.0,1,1879.0,1
1096,1096,0.4876520892680759,0.5,1.0,1.0,407.0,829.0,0.0,0,-1126.0,0
1097,1097,0.33492053793785825,0.3,0.0,0.0,488.0,723.0,0.0,1,-831.0,1
1098,1098,-0.12192320663880862,-0.1,0.0,1.0,327.0,609.0,0.0,1,-936.0,0
1099,1099,-0.2859350271158041,-0.3,0.0,1.0,334.0,524.0,0.0,1,-558.0,0
1100,1100,0.5371101507031354,0.5,1.0,1.0,269.0,520.0,1.0,1,2211.0,1
1101,1101,0.8015152397193149,0.8,1.0,1.0,444.0,675.0,1.0,1,1881.0,1
1102,1102,-0.45750505642094236,-0.5,1.0,0.0,491.0,546.0,0.0,0,-767.0,1
1103,1103,-0.3335513521454445,-0.3,0.0,1.0,414.0,755.0,0.0,1,-1059.0,0
1104,1104,-0.5777691942128838,-0.6,0.0,1.0,306.0,762.0,0.0,1,-598.0,0
1105,1105,0.24190433488398322,0.2,1.0,1.0,423.0,827.0,0.0,0,-810.0,0
1106,1106,-0.4066074181537345,-0.4,1.0,0.0,265.0,710.0,0.0,0,-85.0,1
1107,1107,-0.47815398437845436,-0.5,0.0,1.0,417.0,976.0,0.0,1,357.0,0
1108,1108,0.8724303061168678,0.9,0.0,0.0,267.0,645.0,0.0,1,-102.0,1
1109,1109,-0.4981896392747889,-0.5,1.0,0.0,496.0,639.0,0.0,0,475.0,1
1110,1110,-0.7788694178587414,-0.8,1.0,0.0,410.0,644.0,0.0,0,-894.0,1
1111,1111,0.5744546926780479,0.6,0.0,0.0,371.0,898.0,0.0,1,221.0,1
1112,1112,0.36653293934525444,0.4,1.0,1.0,340.0,939.0,0.0,0,-479.0,0
1113,1113,0.803061028461875,0.8,0.0,0.0,261.0,718.0,0.0,1,311.0,1
1114,1114,-0.5936848577163409,-0.6,0.0,1.0,283.0,994.0,0.0,1,1153.0,0
1115,1115,0.3131097009209657,0.3,0.0,0.0,452.0,694.0,1.0,0,-496.0,0
1116,1116,-0.7759816345312412,-0.8,1.0,0.0,306.0,510.0,0.0,0,104.0,1
1117,1117,-0.8054178866634669,-0.8,0.0,1.0,251.0,699.0,0.0,1,-870.0,0
1118,1118,0.8921190395895541,0.9,0.0,0.0,422.0,927.0,0.0,1,-359.0,1
1119,1119,-0.5232376292310245,-0.5,1.0,0.0,455.0,894.0,0.0,0,-1309.0,1
1120,1120,-0.7188078089565926,-0.7,0.0,1.0,349.0,510.0,0.0,1,-669.0,0
1121,1121,0.08341654574441715,0.1,1.0,1.0,283.0,922.0,1.0,1,1795.0,1
1122,1122,-0.6585595231442997,-0.7,1.0,0.0,305.0,979.0,0.0,0,736.0,1
1123,1123,-0.4391549476247094,-0.4,0.0,1.0,420.0,769.0,0.0,1,1371.0,0
1124,1124,0.25092569881381876,0.3,1.0,1.0,457.0,614.0,0.0,0,-591.0,0
1125,1125,-0.2991271384981863,-0.3,0.0,1.0,435.0,724.0,0.0,1,691.0,0
1126,1126,-0.5939579581897576,-0.6,1.0,0.0,326.0,998.0,1.0,1,1676.0,0
1127,1127,0.012709677738885539,0.0,1.0,1.0,273.0,986.0,0.0,0,-759.0,0
1128,1128,-0.7366142624131335,-0.7,0.0,1.0,354.0,566.0,0.0,1,-870.0,0
1129,1129,-0.6348370998175255,-0.6,1.0,0.0,371.0,629.0,0.0,0,70.0,1
1130,1130,-0.02377452121197765,-0.0,0.0,1.0,295.0,966.0,1.0,0,1739.0,1
1131,1131,0.27090198915094466,0.3,1.0,1.0,336.0,739.0,0.0,0,-895.0,0
1132,1132,-0.07839208761372307,-0.1,0.0,1.0,259.0,646.0,0.0,1,455.0,0
1133,1133,0.5992007470771931,0.6,1.0,1.0,343.0,827.0,0.0,0,420.0,0
1134,1134,-0.25734451843825334,-0.3,1.0,0.0,270.0,543.0,0.0,0,-783.0,1
1135,1135,-0.4268508333055246,-0.4,1.0,0.0,449.0,852.0,0.0,0,-721.0,1
1136,1136,-0.8743506334282439,-0.9,0.0,1.0,311.0,989.0,0.0,1,1360.0,0
1137,1137,0.012178640809802022,0.0,1.0,1.0,356.0,525.0,1.0,1,2119.0,1
1138,1138,0.837535937619616,0.8,1.0,1.0,447.0,896.0,0.0,0,1017.0,0
1139,1139,0.8697181641397683,0.9,0.0,0.0,341.0,610.0,0.0,1,1079.0,1
1140,1140,-0.11319679269010208,-0.1,1.0,0.0,471.0,554.0,0.0,0,-895.0,1
1141,1141,0.5072550946383653,0.5,0.0,0.0,433.0,982.0,1.0,0,1585.0,0
1142,1142,-0.24600269508072425,-0.2,1.0,0.0,323.0,908.0,0.0,0,-541.0,1
1143,1143,-0.1620720674919025,-0.2,1.0,0.0,307.0,998.0,1.0,1,-155.0,0
1144,1144,0.649432185541364,0.6,0.0,0.0,456.0,852.0,0.0,1,-758.0,1
1145,1145,0.6094778657689061,0.6,0.0,0.0,268.0,533.0,0.0,1,1609.0,1
1146,1146,-0.2756367374132812,-0.3,0.0,1.0,295.0,895.0,0.0,1,1300.0,0
1147,1147,0.5225208812261118,0.5,1.0,1.0,413.0,574.0,0.0,0,-847.0,0
1148,1148,0.8156581960745529,0.8,0.0,0.0,403.0,952.0,0.0,1,-1065.0,1
1149,1149,0.15009681673372965,0.2,0.0,0.0,288.0,911.0,0.0,1,-219.0,1
1150,1150,-0.5769216099043624,-0.6,0.0,1.0,317.0,557.0,0.0,1,126.0,0
1151,1151,-0.6771048523537657,-0.7,0.0,1.0,497.0,816.0,0.0,1,-403.0,0
1152,1152,0.259019855627625,0.3,0.0,0.0,262.0,614.0,0.0,1,2124.0,1
1153,1153,0.8370997984040295,0.8,1.0,1.0,320.0,994.0,0.0,0,-464.0,0
1154,1154,-0.5570557024299139,-0.6,0.0,1.0,461.0,923.0,0.0,1,-1014.0,0
1155,1155,-0.050203736334105686,-0.1,1.0,0.0,405.0,758.0,0.0,0,-303.0,1
1156,1156,-0.6987542515807315,-0.7,0.0,1.0,488.0,789.0,0.0,1,1543.0,0
1157,1157,0.03302549337891325,0.0,0.0,0.0,374.0,569.0,0.0,1,77.0,1
1158,1158,-0.7743908027791092,-0.8,1.0,0.0,439.0,501.0,0.0,0,-910.0,1
1159,1159,0.6839145320781256,0.7,0.0,0.0,490.0,674.0,0.0,1,746.0,1
1160,1160,-0.7299321477779468,-0.7,0.0,1.0,427.0,910.0,0.0,1,-577.0,0
1161,1161,-0.579107198604903,-0.6,0.0,1.0,477.0,605.0,0.0,1,-462.0,0
1162,1162,0.1864601129148763,0.2,0.0,0.0,405.0,806.0,0.0,1,399.0,1
1163,1163,-0.050054608704176884,-0.1,0.0,1.0,382.0,774.0,0.0,1,-666.0,0
1164,1164,0.8974240662757577,0.9,0.0,0.0,450.0,972.0,1.0,0,1578.0,0
1165,1165,-0.13536119436263083,-0.1,0.0,1.0,394.0,637.0,0.0,1,-441.0,0
1166,1166,-0.5960646147599031,-0.6,1.0,0.0,358.0,816.0,0.0,0,-1164.0,1
1167,1167,0.8249025652600567,0.8,1.0,1.0,419.0,791.0,0.0,0,1790.0,0
1168,1168,-0.38301143249449177,-0.4,0.0,1.0,398.0,802.0,0.0,1,260.0,0
1169,1169,0.264110400572391,0.3,1.0,1.0,318.0,856.0,1.0,1,1276.0,1
1170,1170,-0.13268860554414097,-0.1,0.0,1.0,443.0,794.0,0.0,1,893.0,0
1171,1171,-0.8093626363452123,-0.8,1.0,0.0,344.0,524.0,1.0,1,2132.0,0
1172,1172,0.22527187334318477,0.2,1.0,1.0,314.0,947.0,0.0,0,-1211.0,0
1173,1173,0.2710491483693366,0.3,0.0,0.0,277.0,656.0,0.0,1,-913.0,1
1174,1174,-0.5201822078612248,-0.5,1.0,0.0,409.0,577.0,0.0,0,724.0,1
1175,1175,0.5118586169090314,0.5,0.0,0.0,461.0,969.0,0.0,1,0.0,1
1176,1176,0.4023235582022019,0.4,1.0,1.0,307.0,640.0,0.0,0,303.0,0
1177,1177,0.057558838255112876,0.1,1.0,1.0,281.0,817.0,0.0,0,132.0,0
1178,1178,0.868422640252504,0.9,1.0,1.0,346.0,716.0,0.0,0,-232.0,0
1179,1179,0.1991739492246588,0.2,0.0,0.0,323.0,523.0,0.0,1,164.0,1
1180,1180,-0.41412287186566266,-0.4,1.0,0.0,351.0,679.0,1.0,1,1970.0,0
1181,1181,0.7930404210908407,0.8,0.0,0.0,337.0,856.0,0.0,1,337.0,1
1182,1182,-0.17289341654905144,-0.2,0.0,1.0,473.0,707.0,1.0,0,-600.0,1
1183,1183,0.13391055844379152,0.1,1.0,1.0,463.0,684.0,0.0,0,-657.0,0
1184,1184,0.4939953504144662,0.5,1.0,1.0,456.0,860.0,1.0,1,1684.0,1
1185,1185,-0.5038536528617845,-0.5,1.0,0.0,432.0,638.0,0.0,0,-920.0,1
1186,1186,0.19530364705749947,0.2,0.0,0.0,370.0,526.0,0.0,1,-726.0,1
1187,1187,-0.4847130678661275,-0.5,1.0,0.0,324.0,592.0,1.0,1,644.0,0
1188,1188,-0.25492817349400954,-0.3,0.0,1.0,440.0,538.0,0.0,1,782.0,0
1189,1189,0.4543767726376019,0.5,0.0,0.0,369.0,682.0,0.0,1,-791.0,1
1190,1190,-0.3235189639984076,-0.3,0.0,1.0,369.0,562.0,0.0,1,1399.0,0
1191,1191,0.8370041517917454,0.8,1.0,1.0,485.0,633.0,0.0,0,-298.0,0
1192,1192,0.6045755973101873,0.6,0.0,0.0,352.0,612.0,0.0,1,-844.0,1
1193,1193,-0.5521672940588344,-0.6,1.0,0.0,452.0,762.0,0.0,0,-1194.0,1
1194,1194,-0.13521339832167856,-0.1,0.0,1.0,282.0,635.0,1.0,0,933.0,1
1195,1195,-0.4373417177172974,-0.4,0.0,1.0,290.0,556.0,0.0,1,-756.0,0
1196,1196,-0.6005480488042917,-0.6,0.0,1.0,375.0,819.0,0.0,1,1076.0,0
1197,1197,-0.0057738077776692265,-0.0,1.0,0.0,263.0,863.0,0.0,0,-946.0,1
1198,1198,-0.46087638182985347,-0.5,1.0,0.0,458.0,714.0,1.0,1,1828.0,0
1199,1199,-0.6903112130286922,-0.7,0.0,1.0,468.0,653.0,0.0,1,-781.0,0
1200,1200,0.4054026414236108,0.4,1.0,1.0,338.0,978.0,0.0,0,-1266.0,0
1201,1201,-0.6064549784531861,-0.6,1.0,0.0,436.0,614.0,1.0,1,460.0,0
1202,1202,0.1348634754868917,0.1,1.0,1.0,492.0,659.0,0.0,0,289.0,0
1203,1203,-0.865674136546594,-0.9,1.0,0.0,258.0,706.0,0.0,0,166.0,1
1204,1204,-0.20822384345860678,-0.2,0.0,1.0,432.0,600.0,0.0,1,1628.0,0
1205,1205,0.7614834770196525,0.8,1.0,1.0,486.0,974.0,0.0,0,730.0,0
1206,1206,0.11676990055774705,0.1,0.0,0.0,389.0,896.0,0.0,1,-455.0,1
1207,1207,0.4234930521682224,0.4,1.0,1.0,267.0,543.0,1.0,1,800.0,1
1208,1208,-0.3657415658971773,-0.4,1.0,0.0,417.0,736.0,0.0,0,897.0,1
1209,1209,-0.19611418124304236,-0.2,1.0,0.0,289.0,795.0,0.0,0,206.0,1
1210,1210,-0.24837591198995046,-0.2,0.0,1.0,460.0,715.0,0.0,1,-145.0,0
1211,1211,0.7544732991985411,0.8,1.0,1.0,297.0,882.0,0.0,0,-1109.0,0
1212,1212,0.00988848651437857,0.0,0.0,0.0,469.0,825.0,0.0,1,-904.0,1
1213,1213,-0.1724682325844039,-0.2,1.0,0.0,436.0,743.0,0.0,0,-649.0,1
1214,1214,-0.15612807042350085,-0.2,0.0,1.0,330.0,778.0,1.0,0,1892.0,1
1215,1215,0.3865009904090565,0.4,1.0,1.0,480.0,872.0,0.0,0,828.0,0
1216,1216,0.7743541166523119,0.8,1.0,1.0,251.0,723.0,0.0,0,-94.0,0
1217,1217,-0.576318943535124,-0.6,0.0,1.0,357.0,872.0,1.0,0,-789.0,1
1218,1218,-0.5914875043318562,-0.6,0.0,1.0,409.0,611.0,0.0,1,-410.0,0
1219,1219,0.013111296808525297,0.0,0.0,0.0,461.0,844.0,0.0,1,795.0,1
1220,1220,0.038961172776968755,0.0,1.0,1.0,480.0,835.0,0.0,0,-1055.0,0
1221,1221,0.7082959695251848,0.7,1.0,1.0,373.0,738.0,0.0,0,-1031.0,0
1222,1222,-0.7341526316181592,-0.7,0.0,1.0,270.0,918.0,1.0,0,1812.0,1
1223,1223,0.23258135254951007,0.2,0.0,0.0,407.0,793.0,0.0,1,-850.0,1
1224,1224,-0.834000091097359,-0.8,0.0,1.0,369.0,832.0,0.0,1,1459.0,0
1225,1225,0.35066575954922896,0.4,1.0,1.0,289.0,878.0,0.0,0,-1147.0,0
1226,1226,0.5849801949200627,0.6,0.0,0.0,457.0,608.0,0.0,1,485.0,1
1227,1227,-0.8800570969337909,-0.9,1.0,0.0,456.0,974.0,0.0,0,-880.0,1
1228,1228,-0.07298069715718625,-0.1,1.0,0.0,275.0,879.0,0.0,0,466.0,1
1229,1229,0.10244541114260064,0.1,0.0,0.0,296.0,588.0,1.0,0,2116.0,0
1230,1230,0.09448700417381517,0.1,1.0,1.0,312.0,520.0,0.0,0,-662.0,0
1231,1231,-0.7270833964007812,-0.7,0.0,1.0,395.0,734.0,0.0,1,-809.0,0
1232,1232,0.7940068259956384,0.8,1.0,1.0,339.0,999.0,0.0,0,-738.0,0
1233,1233,0.8548809282540385,0.9,1.0,1.0,388.0,885.0,0.0,0,-1233.0,0
1234,1234,0.8543447005818393,0.9,1.0,1.0,489.0,796.0,0.0,0,25.0,0
1235,1235,0.18607511259961573,0.2,0.0,0.0,479.0,896.0,0.0,1,1625.0,1
1236,1236,0.3777402654582137,0.4,1.0,1.0,446.0,965.0,0.0,0,-731.0,0
1237,1237,0.6526813360236764,0.7,0.0,0.0,464.0,930.0,1.0,0,1606.0,0
1238,1238,0.4769799231370201,0.5,1.0,1.0,392.0,948.0,0.0,0,-510.0,0
1239,1239,-0.4554545033851615,-0.5,0.0,1.0,496.0,825.0,0.0,1,-1141.0,0
1240,1240,0.370827518839587,0.4,1.0,1.0,478.0,692.0,0.0,0,-1130.0,0
1241,1241,-0.38647080617724505,-0.4,0.0,1.0,494.0,912.0,1.0,0,-876.0,1
1242,1242,0.40722012664484863,0.4,1.0,1.0,452.0,504.0,1.0,1,2044.0,1
1243,1243,-0.0049878034863369836,-0.0,1.0,0.0,261.0,608.0,0.0,0,2131.0,1
1244,1244,0.08314315166874431,0.1,0.0,0.0,256.0,660.0,0.0,1,-86.0,1
1245,1245,0.670342026264591,0.7,0.0,0.0,357.0,690.0,0.0,1,203.0,1
1246,1246,-0.4877502020776881,-0.5,1.0,0.0,432.0,875.0,0.0,0,-1167.0,1
1247,1247,0.4111397688485986,0.4,1.0,1.0,295.0,848.0,0.0,0,187.0,0
1248,1248,0.3814939352131127,0.4,0.0,0.0,402.0,807.0,0.0,1,1551.0,1
1249,1249,-0.531217890182579,-0.5,0.0,1.0,450.0,946.0,0.0,1,-1286.0,0
1250,1250,-0.6724399463405432,-0.7,1.0,0.0,488.0,753.0,0.0,0,-811.0,1
1251,1251,-0.6060378784523632,-0.6,0.0,1.0,327.0,993.0,1.0,0,1680.0,1
1252,1252,0.05171868372262656,0.1,1.0,1.0,292.0,612.0,0.0,0,-304.0,0
1253,1253,0.1373257798409152,0.1,1.0,1.0,484.0,607.0,0.0,0,419.0,0
1254,1254,0.63676720667587,0.6,0.0,0.0,288.0,684.0,0.0,1,1318.0,1
1255,1255,0.8420369131517943,0.8,1.0,1.0,456.0,668.0,0.0,0,-784.0,0
1256,1256,0.869175147559493,0.9,0.0,0.0,382.0,757.0,0.0,1,-769.0,1
1257,1257,-0.10916718737986719,-0.1,1.0,0.0,495.0,733.0,0.0,0,-38.0,1
1258,1258,-0.44276337141118616,-0.4,0.0,1.0,343.0,624.0,1.0,0,2033.0,1
1259,1259,-0.4996455095705956,-0.5,1.0,0.0,350.0,516.0,0.0,0,-586.0,1
1260,1260,-0.5434277650556134,-0.5,0.0,1.0,482.0,997.0,1.0,0,1521.0,1
1261,1261,0.4423660833095625,0.4,0.0,0.0,353.0,768.0,0.0,1,29.0,1
1262,1262,0.5078849745707331,0.5,1.0,1.0,390.0,745.0,1.0,1,1865.0,1
1263,1263,0.41299515016289023,0.4,0.0,0.0,465.0,678.0,0.0,1,1297.0,1
1264,1264,0.4423094840591483,0.4,0.0,0.0,350.0,944.0,0.0,1,-1164.0,1
1265,1265,0.4858095894496727,0.5,1.0,1.0,302.0,775.0,0.0,0,613.0,0
1266,1266,0.8374327800206679,0.8,1.0,1.0,293.0,946.0,0.0,0,-1039.0,0
1267,1267,0.36269503570335637,0.4,0.0,0.0,338.0,835.0,0.0,1,-553.0,1
1268,1268,-0.1840411520390498,-0.2,1.0,0.0,463.0,807.0,0.0,0,-1080.0,1
1269,1269,-0.08381134582790983,-0.1,0.0,1.0,471.0,945.0,0.0,1,-1386.0,0
1270,1270,-0.08063019568458218,-0.1,1.0,0.0,490.0,929.0,0.0,0,-1319.0,1
1271,1271,0.3245675348819158,0.3,0.0,0.0,484.0,545.0,0.0,1,811.0,1
1272,1272,-0.7794880081260891,-0.8,1.0,0.0,294.0,753.0,0.0,0,-497.0,1
1273,1273,0.6439579068824498,0.6,1.0,1.0,366.0,888.0,0.0,0,346.0,0
1274,1274,-0.8215281801271757,-0.8,0.0,1.0,482.0,706.0,0.0,1,-898.0,0
1275,1275,0.7877169058118584,0.8,0.0,0.0,434.0,922.0,0.0,1,1124.0,1
1276,1276,-0.6852005040959562,-0.7,0.0,1.0,458.0,627.0,0.0,1,-425.0,0
1277,1277,-0.6242379309811004,-0.6,0.0,1.0,394.0,655.0,0.0,1,81.0,0
1278,1278,0.3722756962596606,0.4,0.0,0.0,328.0,686.0,0.0,1,-604.0,1
1279,1279,-0.3232425410222639,-0.3,0.0,1.0,438.0,882.0,0.0,1,-1040.0,0
1280,1280,0.8898026067123602,0.9,1.0,1.0,367.0,579.0,0.0,0,-616.0,0
1281,1281,-0.6155745142981025,-0.6,0.0,1.0,324.0,539.0,0.0,1,-603.0,0
1282,1282,0.3154268768979017,0.3,0.0,0.0,378.0,834.0,0.0,1,-1182.0,1
1283,1283,0.721825210763576,0.7,1.0,1.0,422.0,669.0,0.0,0,-721.0,0
1284,1284,-0.8776773074125502,-0.9,0.0,1.0,335.0,565.0,0.0,1,-760.0,0
1285,1285,0.8877932282440278,0.9,0.0,0.0,446.0,937.0,0.0,1,-1363.0,1
1286,1286,-0.14216122379115403,-0.1,0.0,1.0,363.0,638.0,0.0,1,-861.0,0
1287,1287,0.2523021052828568,0.3,0.0,0.0,298.0,771.0,0.0,1,1931.0,1
1288,1288,-0.05371612662065772,-0.1,0.0,1.0,487.0,569.0,0.0,1,274.0,0
1289,1289,-0.20458949516910852,-0.2,1.0,0.0,433.0,826.0,0.0,0,-269.0,1
1290,1290,0.5912484601059599,0.6,1.0,1.0,439.0,838.0,0.0,0,-627.0,0
1291,1291,0.6483317539783712,0.6,1.0,1.0,290.0,632.0,0.0,0,2078.0,0
1292,1292,0.7872717097658924,0.8,1.0,1.0,388.0,513.0,0.0,0,-661.0,0
1293,1293,-0.453839189338541,-0.5,0.0,1.0,474.0,884.0,1.0,0,1642.0,1
1294,1294,0.44676003190330926,0.4,0.0,0.0,287.0,797.0,0.0,1,-1044.0,1
1295,1295,0.13604264533345856,0.1,1.0,1.0,461.0,566.0,0.0,0,1973.0,0
1296,1296,-0.38868342360268326,-0.4,0.0,1.0,363.0,709.0,0.0,1,1028.0,0
1297,1297,-0.10284759339512517,-0.1,0.0,1.0,410.0,734.0,0.0,1,106.0,0
1298,1298,0.07172058054928909,0.1,1.0,1.0,314.0,881.0,1.0,1,1805.0,1
1299,1299,-0.36330310473533123,-0.4,0.0,1.0,387.0,744.0,0.0,1,209.0,0
1300,1300,-0.4795192189121719,-0.5,0.0,1.0,419.0,764.0,0.0,1,-1133.0,0
1301,1301,0.3555331333086317,0.4,1.0,1.0,400.0,834.0,0.0,0,-914.0,0
1302,1302,0.30982035726384394,0.3,0.0,0.0,454.0,865.0,1.0,0,-839.0,0
1303,1303,-0.73501137854619,-0.7,0.0,1.0,329.0,830.0,0.0,1,-1159.0,0
1304,1304,0.879198519832003,0.9,0.0,0.0,300.0,697.0,0.0,1,13.0,1
1305,1305,0.46126393113068376,0.5,0.0,0.0,303.0,948.0,0.0,1,-681.0,1
1306,1306,0.19311423639474545,0.2,0.0,0.0,430.0,752.0,0.0,1,1108.0,1
1307,1307,-0.7957420103158548,-0.8,1.0,0.0,284.0,890.0,1.0,1,1826.0,0
1308,1308,-0.3267804369846612,-0.3,1.0,0.0,291.0,963.0,0.0,0,1596.0,1
1309,1309,0.5093677096812469,0.5,0.0,0.0,417.0,778.0,1.0,0,1805.0,0
1310,1310,0.7440523214476583,0.7,1.0,1.0,281.0,712.0,0.0,0,737.0,0
1311,1311,-0.8579882262741412,-0.9,0.0,1.0,345.0,798.0,0.0,1,-293.0,0
1312,1312,-0.5122561675611028,-0.5,0.0,1.0,335.0,880.0,0.0,1,-745.0,0
1313,1313,-0.4085334616882342,-0.4,0.0,1.0,326.0,798.0,0.0,1,-794.0,0
1314,1314,0.11705975350841225,0.1,1.0,1.0,366.0,522.0,0.0,0,-838.0,0
1315,1315,0.4170301239361126,0.4,1.0,1.0,265.0,579.0,0.0,0,-834.0,0
1316,1316,-0.11853020799997982,-0.1,1.0,0.0,473.0,603.0,1.0,1,1924.0,0
1317,1317,-0.3499138256147586,-0.3,1.0,0.0,267.0,711.0,0.0,0,-148.0,1
1318,1318,-0.3832265186321354,-0.4,0.0,1.0,370.0,986.0,0.0,1,-1276.0,0
1319,1319,0.32030359913601536,0.3,1.0,1.0,469.0,956.0,1.0,1,-685.0,1
1320,1320,0.13495006798427311,0.1,1.0,1.0,464.0,794.0,0.0,0,-408.0,0
1321,1321,0.3934096629389531,0.4,1.0,1.0,318.0,611.0,0.0,0,-829.0,0
1322,1322,0.8652858412787764,0.9,0.0,0.0,307.0,644.0,0.0,1,-851.0,1
1323,1323,0.4991524584480681,0.5,1.0,1.0,307.0,976.0,0.0,0,1717.0,0
1324,1324,0.5193414897818956,0.5,0.0,0.0,254.0,918.0,0.0,1,-472.0,1
1325,1325,0.3017808683435369,0.3,0.0,0.0,405.0,864.0,0.0,1,-1249.0,1
1326,1326,0.8098342392998327,0.8,0.0,0.0,285.0,897.0,0.0,1,-1182.0,1
1327,1327,-0.22209887763764835,-0.2,0.0,1.0,375.0,555.0,0.0,1,-680.0,0
1328,1328,0.688925256555374,0.7,1.0,1.0,418.0,973.0,0.0,0,-1141.0,0
1329,1329,0.3370101748480795,0.3,0.0,0.0,465.0,638.0,0.0,1,-913.0,1
1330,1330,-0.5971321774086634,-0.6,1.0,0.0,275.0,935.0,0.0,0,-1160.0,1
1331,1331,0.4136164325232784,0.4,1.0,1.0,491.0,850.0,0.0,0,-71.0,0
1332,1332,0.41908311813083665,0.4,1.0,1.0,426.0,737.0,0.0,0,-33.0,0
1333,1333,-0.3763419791374182,-0.4,1.0,0.0,416.0,927.0,1.0,1,497.0,0
1334,1334,0.49265019356215956,0.5,0.0,0.0,373.0,563.0,0.0,1,-56.0,1
1335,1335,0.4133256403901414,0.4,1.0,1.0,260.0,634.0,0.0,0,-384.0,0
1336,1336,-0.8541987261081602,-0.9,1.0,0.0,475.0,603.0,0.0,0,532.0,1
1337,1337,0.19418635423392738,0.2,0.0,0.0,418.0,946.0,0.0,1,-1084.0,1
1338,1338,-0.044864233613184146,-0.0,0.0,1.0,438.0,611.0,0.0,1,1371.0,0
1339,1339,0.4695095886486268,0.5,1.0,1.0,499.0,623.0,1.0,1,1878.0,1
1340,1340,-0.8517097216303926,-0.9,1.0,0.0,263.0,889.0,1.0,1,928.0,0
1341,1341,-0.19973259720250536,-0.2,1.0,0.0,306.0,691.0,0.0,0,-867.0,1
1342,1342,-0.14607096903786765,-0.1,0.0,1.0,368.0,739.0,1.0,0,-747.0,1
1343,1343,0.6056768204162138,0.6,0.0,0.0,434.0,713.0,0.0,1,-677.0,1
1344,1344,0.3965604303674054,0.4,0.0,0.0,299.0,854.0,0.0,1,-1023.0,1
1345,1345,-0.7731865600067921,-0.8,0.0,1.0,494.0,523.0,1.0,0,-947.0,1
1346,1346,-0.4435206668047913,-0.4,0.0,1.0,432.0,657.0,1.0,0,161.0,1
1347,1347,-0.26634063021900245,-0.3,1.0,0.0,387.0,543.0,0.0,0,-680.0,1
1348,1348,-0.23201136787292231,-0.2,0.0,1.0,407.0,625.0,0.0,1,-452.0,0
1349,1349,0.29021604582405536,0.3,1.0,1.0,471.0,628.0,1.0,1,1901.0,1
1350,1350,0.11339813842081814,0.1,1.0,1.0,338.0,819.0,1.0,1,1843.0,1
1351,1351,-0.6169187479082998,-0.6,0.0,1.0,353.0,562.0,1.0,0,2085.0,1
1352,1352,-0.22809488027849523,-0.2,1.0,0.0,312.0,564.0,1.0,1,2124.0,0
1353,1353,0.4230061247867548,0.4,1.0,1.0,434.0,941.0,0.0,0,1625.0,0
1354,1354,0.7594560602372477,0.8,1.0,1.0,378.0,685.0,0.0,0,-273.0,0
1355,1355,0.3704017297779888,0.4,0.0,0.0,367.0,545.0,0.0,1,-562.0,1
1356,1356,-0.19590690086931117,-0.2,1.0,0.0,299.0,761.0,0.0,0,-1010.0,1
1357,1357,0.7689197164115894,0.8,1.0,1.0,488.0,930.0,0.0,0,-28.0,0
1358,1358,-0.3115768083723839,-0.3,0.0,1.0,399.0,855.0,0.0,1,1466.0,0
1359,1359,0.17817949420256374,0.2,0.0,0.0,404.0,786.0,0.0,1,-720.0,1
1360,1360,0.7839867490411231,0.8,0.0,0.0,441.0,994.0,0.0,1,-975.0,1
1361,1361,0.2238037043180684,0.2,1.0,1.0,493.0,562.0,1.0,1,1945.0,1
1362,1362,-0.42659834801656177,-0.4,0.0,1.0,297.0,670.0,0.0,1,953.0,0
1363,1363,0.0615106874762954,0.1,1.0,1.0,278.0,702.0,1.0,1,2020.0,1
1364,1364,0.10483484149000766,0.1,0.0,0.0,287.0,619.0,0.0,1,1404.0,1
1365,1365,0.4756340878955415,0.5,0.0,0.0,287.0,870.0,0.0,1,533.0,1
1366,1366,0.5646637932541531,0.6,0.0,0.0,300.0,845.0,1.0,0,1855.0,0
1367,1367,0.4028417151950626,0.4,1.0,1.0,323.0,683.0,1.0,1,1994.0,1
1368,1368,0.4775933006779217,0.5,1.0,1.0,264.0,573.0,0.0,0,993.0,0
1369,1369,-0.8482753911582425,-0.8,0.0,1.0,370.0,876.0,0.0,1,-1136.0,0
1370,1370,-0.23839297726358888,-0.2,1.0,0.0,309.0,879.0,0.0,0,1272.0,1
1371,1371,0.41568432660292853,0.4,0.0,0.0,489.0,687.0,0.0,1,1054.0,1
1372,1372,-0.8137021261986571,-0.8,0.0,1.0,451.0,607.0,0.0,1,-418.0,0
1373,1373,0.5297117718517391,0.5,1.0,1.0,475.0,834.0,0.0,0,-1039.0,0
1374,1374,0.004073618103819787,0.0,1.0,1.0,383.0,583.0,0.0,0,1134.0,0
1375,1375,-0.054339307570176354,-0.1,1.0,0.0,367.0,626.0,0.0,0,-143.0,1
1376,1376,-0.8047852052571266,-0.8,0.0,1.0,409.0,745.0,1.0,0,-554.0,1
1377,1377,-0.8938969218060915,-0.9,0.0,1.0,394.0,882.0,0.0,1,804.0,0
1378,1378,0.16812357810409695,0.2,1.0,1.0,431.0,761.0,0.0,0,-1032.0,0
1379,1379,0.25483387537770874,0.3,0.0,0.0,298.0,886.0,1.0,0,-74.0,0
1380,1380,0.8597985569704228,0.9,0.0,0.0,312.0,719.0,0.0,1,-551.0,1
1381,1381,-0.8569484027218672,-0.9,0.0,1.0,302.0,770.0,0.0,1,-882.0,0
1382,1382,-0.8112170574370698,-0.8,0.0,1.0,437.0,998.0,0.0,1,-1205.0,0
1383,1383,-0.6015953054165468,-0.6,1.0,0.0,312.0,555.0,0.0,0,-447.0,1
1384,1384,0.8987876643108007,0.9,0.0,0.0,350.0,986.0,1.0,0,1664.0,0
1385,1385,0.7608497620185509,0.8,1.0,1.0,347.0,845.0,0.0,0,848.0,0
1386,1386,-0.11057674476800883,-0.1,0.0,1.0,344.0,987.0,0.0,1,-951.0,0
1387,1387,-0.626053324992393,-0.6,0.0,1.0,401.0,715.0,0.0,1,-446.0,0
1388,1388,-0.22591505386644006,-0.2,0.0,1.0,330.0,886.0,0.0,1,354.0,0
1389,1389,-0.6074313880455041,-0.6,0.0,1.0,398.0,819.0,0.0,1,223.0,0
1390,1390,0.4456981305249773,0.4,0.0,0.0,250.0,806.0,0.0,1,-66.0,1
1391,1391,0.18635805510444536,0.2,1.0,1.0,460.0,729.0,1.0,1,1811.0,1
1392,1392,0.8757476614608631,0.9,0.0,0.0,487.0,667.0,0.0,1,-464.0,1
1393,1393,0.013042593711578454,0.0,1.0,1.0,271.0,778.0,0.0,0,-229.0,0
1394,1394,0.22595963978745226,0.2,0.0,0.0,259.0,803.0,0.0,1,28.0,1
1395,1395,0.3299202894984784,0.3,0.0,0.0,408.0,941.0,0.0,1,-99.0,1
1396,1396,-0.711975783883013,-0.7,1.0,0.0,380.0,834.0,0.0,0,1606.0,1
1397,1397,0.34920302098783396,0.3,0.0,0.0,291.0,745.0,0.0,1,-796.0,1
1398,1398,0.8953251345238479,0.9,0.0,0.0,400.0,891.0,0.0,1,-1261.0,1
1399,1399,-0.05218162897104073,-0.1,1.0,0.0,493.0,976.0,0.0,0,-889.0,1
1400,1400,-0.286358055548817,-0.3,1.0,0.0,431.0,968.0,0.0,0,-1109.0,1
1401,1401,-0.6561681154462983,-0.7,1.0,0.0,406.0,836.0,0.0,0,-1232.0,1
1402,1402,0.8614814511657135,0.9,1.0,1.0,409.0,719.0,0.0,0,-908.0,0
1403,1403,-0.6830968187040116,-0.7,0.0,1.0,402.0,588.0,0.0,1,850.0,0
1404,1404,-0.6521029748386659,-0.7,0.0,1.0,302.0,964.0,0.0,1,-506.0,0
1405,1405,0.42932371357651056,0.4,0.0,0.0,385.0,899.0,0.0,1,-24.0,1
1406,1406,0.6689040211551244,0.7,0.0,0.0,341.0,706.0,0.0,1,573.0,1
1407,1407,0.7952337609793371,0.8,1.0,1.0,332.0,700.0,1.0,1,1968.0,1
1408,1408,-0.285422356158304,-0.3,1.0,0.0,436.0,951.0,0.0,0,-1227.0,1
1409,1409,-0.6506678146269248,-0.7,1.0,0.0,335.0,568.0,1.0,1,-813.0,0
1410,1410,0.44920248669867846,0.4,0.0,0.0,452.0,672.0,0.0,1,-1074.0,1
1411,1411,-0.032610225752717104,-0.0,1.0,0.0,388.0,600.0,0.0,0,-818.0,1
1412,1412,0.41293440232524425,0.4,1.0,1.0,260.0,672.0,1.0,1,2068.0,1
1413,1413,-0.45802852447655945,-0.5,1.0,0.0,300.0,837.0,0.0,0,1823.0,1
1414,1414,0.17799520863341367,0.2,0.0,0.0,445.0,589.0,1.0,0,-824.0,0
1415,1415,0.09233383313444898,0.1,0.0,0.0,393.0,737.0,1.0,0,-630.0,0
1416,1416,-0.7702011723903561,-0.8,1.0,0.0,339.0,871.0,0.0,0,-920.0,1
1417,1417,0.3309097032268423,0.3,0.0,0.0,465.0,884.0,0.0,1,1581.0,1
1418,1418,0.6263989872020662,0.6,1.0,1.0,418.0,844.0,0.0,0,-1062.0,0
1419,1419,0.26602069439318454,0.3,0.0,0.0,429.0,807.0,0.0,1,94.0,1
1420,1420,0.036225825115537846,0.0,1.0,1.0,391.0,785.0,0.0,0,414.0,0
1421,1421,-0.11836577187201636,-0.1,1.0,0.0,345.0,733.0,0.0,0,-788.0,1
1422,1422,-0.8061699359328525,-0.8,0.0,1.0,377.0,698.0,1.0,0,-565.0,1
1423,1423,0.897126456252551,0.9,1.0,1.0,409.0,895.0,0.0,0,-914.0,0
1424,1424,-0.8825317816739514,-0.9,1.0,0.0,412.0,573.0,0.0,0,2015.0,1
1425,1425,-0.18171811925405768,-0.2,1.0,0.0,359.0,775.0,0.0,0,1006.0,1
1426,1426,0.43981293913730524,0.4,1.0,1.0,400.0,686.0,1.0,1,-486.0,1
1427,1427,0.6479343819005824,0.6,1.0,1.0,264.0,890.0,0.0,0,676.0,0
1428,1428,0.29719392115884935,0.3,1.0,1.0,396.0,936.0,0.0,0,48.0,0
1429,1429,0.1276862793233472,0.1,1.0,1.0,389.0,872.0,0.0,0,689.0,0
1430,1430,0.23265953079403812,0.2,1.0,1.0,454.0,583.0,0.0,0,-287.0,0
1431,1431,0.08140755827839385,0.1,0.0,0.0,369.0,541.0,0.0,1,-760.0,1
1432,1432,0.5565719189204653,0.6,1.0,1.0,336.0,893.0,0.0,0,1061.0,0
1433,1433,-0.1779448493591934,-0.2,1.0,0.0,313.0,952.0,0.0,0,-995.0,1
1434,1434,-0.009087532703650592,-0.0,0.0,1.0,297.0,948.0,0.0,1,-595.0,0
1435,1435,-0.2699345117556744,-0.3,0.0,1.0,276.0,603.0,0.0,1,351.0,0
1436,1436,0.8706323522127778,0.9,0.0,0.0,418.0,540.0,0.0,1,-758.0,1
1437,1437,-0.6695502591799588,-0.7,0.0,1.0,303.0,880.0,0.0,1,-983.0,0
1438,1438,0.09379426441768546,0.1,1.0,1.0,298.0,692.0,1.0,1,2010.0,1
1439,1439,-0.8620735649962431,-0.9,1.0,0.0,462.0,800.0,0.0,0,-982.0,1
1440,1440,0.6965767708751917,0.7,0.0,0.0,409.0,624.0,0.0,1,47.0,1
1441,1441,-0.6809083781543975,-0.7,0.0,1.0,322.0,810.0,0.0,1,1058.0,0
1442,1442,-0.2808006873781739,-0.3,1.0,0.0,433.0,858.0,0.0,0,-1171.0,1
1443,1443,-0.8925703149205854,-0.9,1.0,0.0,318.0,938.0,0.0,0,704.0,1
1444,1444,0.49249510106216865,0.5,0.0,0.0,295.0,698.0,0.0,1,-813.0,1
1445,1445,0.7435783476000405,0.7,1.0,1.0,409.0,832.0,1.0,1,-601.0,1
1446,1446,-0.7111752191466874,-0.7,0.0,1.0,304.0,902.0,0.0,1,-416.0,0
1447,1447,0.2778958200206175,0.3,1.0,1.0,396.0,647.0,1.0,1,1447.0,1
1448,1448,0.4423244808100971,0.4,1.0,1.0,434.0,897.0,0.0,0,-251.0,0
1449,1449,0.3137625069076847,0.3,1.0,1.0,420.0,577.0,0.0,0,223.0,0
1450,1450,0.4899600038370894,0.5,0.0,0.0,461.0,668.0,0.0,1,1821.0,1
1451,1451,-0.3683386008807823,-0.4,1.0,0.0,490.0,993.0,0.0,0,77.0,1
1452,1452,-0.5205682458030364,-0.5,0.0,1.0,337.0,735.0,0.0,1,1148.0,0
1453,1453,-0.8096476436332597,-0.8,1.0,0.0,333.0,641.0,0.0,0,-74.0,1
1454,1454,0.0020377551477768208,0.0,1.0,1.0,367.0,801.0,1.0,1,-538.0,1
1455,1455,0.5553927625451281,0.6,0.0,0.0,289.0,583.0,0.0,1,-642.0,1
1456,1456,-0.5753324727777369,-0.6,0.0,1.0,496.0,943.0,0.0,1,-419.0,0
1457,1457,0.4246344982481637,0.4,1.0,1.0,372.0,883.0,0.0,0,-1125.0,0
1458,1458,0.026090168410585757,0.0,0.0,0.0,379.0,866.0,1.0,0,-1085.0,0
1459,1459,0.16867455465936765,0.2,1.0,1.0,412.0,704.0,1.0,1,1884.0,1
1460,1460,-0.08007398488897854,-0.1,1.0,0.0,370.0,840.0,0.0,0,-1190.0,1
1461,1461,0.16139866594390184,0.2,0.0,0.0,459.0,877.0,1.0,0,1664.0,0
1462,1462,0.038913729917464224,0.0,0.0,0.0,413.0,993.0,0.0,1,764.0,1
1463,1463,-0.6542831780968844,-0.7,0.0,1.0,284.0,819.0,1.0,0,1897.0,1
1464,1464,-0.3493607239631604,-0.3,1.0,0.0,378.0,660.0,0.0,0,-938.0,1
1465,1465,0.6412003576521065,0.6,0.0,0.0,420.0,727.0,0.0,1,1403.0,1
1466,1466,-0.5551729174928639,-0.6,0.0,1.0,286.0,801.0,0.0,1,-777.0,0
1467,1467,-0.5316763179891104,-0.5,0.0,1.0,252.0,609.0,0.0,1,-221.0,0
1468,1468,0.04981450009254118,0.0,1.0,1.0,303.0,556.0,1.0,1,2141.0,1
1469,1469,0.43466343314208034,0.4,1.0,1.0,380.0,641.0,0.0,0,-41.0,0
1470,1470,0.0412087957300904,0.0,0.0,0.0,476.0,960.0,0.0,1,-296.0,1
1471,1471,0.15995125515492103,0.2,0.0,0.0,340.0,951.0,0.0,1,-831.0,1
1472,1472,0.6907881074172787,0.7,1.0,1.0,430.0,655.0,0.0,0,-685.0,0
1473,1473,0.8580456859372757,0.9,1.0,1.0,341.0,846.0,0.0,0,253.0,0
1474,1474,0.7854762161420531,0.8,0.0,0.0,467.0,907.0,0.0,1,66.0,1
1475,1475,-0.1737739809961315,-0.2,0.0,1.0,317.0,973.0,0.0,1,-780.0,0
1476,1476,-0.869180061009252,-0.9,0.0,1.0,403.0,867.0,0.0,1,-500.0,0
