,trial,coherence,coherence_bin,green_side,correct_side,target_onset,checker_onset,decision,green_decision,decision_time,correct_decision
0,0,0.6900195205535503,0.7,1.0,1.0,461.0,679.0,1.0,1,180.0,1
1,1,0.7171524328865567,0.7,1.0,1.0,365.0,922.0,1.0,1,253.0,1
2,2,0.6401624094441288,0.6,1.0,1.0,481.0,956.0,1.0,1,113.0,1
3,3,-0.399738836233821,-0.4,1.0,0.0,365.0,953.0,0.0,0,362.0,1
4,4,-0.7650843847122639,-0.8,1.0,0.0,281.0,711.0,0.0,0,228.0,1
5,5,0.42155017532905037,0.4,1.0,1.0,321.0,770.0,1.0,1,199.0,1
6,6,0.8172259845716455,0.8,0.0,0.0,271.0,970.0,0.0,1,129.0,1
7,7,0.24862141714240715,0.2,1.0,1.0,376.0,833.0,1.0,1,481.0,1
8,8,-0.13033503240455335,-0.1,0.0,1.0,283.0,782.0,1.0,0,515.0,1
9,9,-0.08079367764723144,-0.1,0.0,1.0,281.0,723.0,1.0,0,236.0,1
10,10,0.8427881282139452,0.8,0.0,0.0,265.0,910.0,0.0,1,95.0,1
11,11,0.39829140114092654,0.4,1.0,1.0,364.0,660.0,1.0,1,256.0,1
12,12,-0.5540628795163196,-0.6,1.0,0.0,496.0,835.0,0.0,0,199.0,1
13,13,0.639244539188878,0.6,0.0,0.0,397.0,928.0,0.0,1,275.0,1
14,14,0.16022147877751036,0.2,0.0,0.0,406.0,801.0,0.0,1,173.0,1
15,15,0.010111171513939365,0.0,0.0,0.0,474.0,835.0,0.0,1,341.0,1
16,16,-0.2567197452931813,-0.3,0.0,1.0,436.0,780.0,1.0,0,244.0,1
17,17,0.8426415392182168,0.8,0.0,0.0,334.0,967.0,0.0,1,39.0,1
18,18,-0.27298634839752345,-0.3,1.0,0.0,336.0,596.0,0.0,0,308.0,1
19,19,-0.13710075806657318,-0.1,0.0,1.0,273.0,599.0,1.0,0,398.0,1
20,20,0.5508787819183464,0.6,0.0,0.0,284.0,601.0,0.0,1,405.0,1
21,21,-0.7780710370084095,-0.8,1.0,0.0,404.0,567.0,0.0,0,229.0,1
22,22,-0.7027003359807789,-0.7,1.0,0.0,393.0,904.0,0.0,0,143.0,1
23,23,0.6037229889160732,0.6,1.0,1.0,296.0,848.0,1.0,1,236.0,1
24,24,-0.5871483011214185,-0.6,1.0,0.0,265.0,844.0,0.0,0,1001.0,1
25,25,-0.040571957311478335,-0.0,1.0,0.0,496.0,610.0,1.0,1,1894.0,0
26,26,-0.07701044538819501,-0.1,1.0,0.0,296.0,663.0,0.0,0,611.0,1
27,27,-0.616377187440321,-0.6,1.0,0.0,479.0,707.0,0.0,0,514.0,1
28,28,-0.7760447146121714,-0.8,1.0,0.0,301.0,527.0,0.0,0,322.0,1
29,29,-0.6706477987522028,-0.7,1.0,0.0,385.0,653.0,0.0,0,702.0,1
30,30,-0.8784405258840474,-0.9,0.0,1.0,315.0,740.0,1.0,0,245.0,1
31,31,-0.1427084531425188,-0.1,1.0,0.0,487.0,841.0,0.0,0,662.0,1
32,32,-0.7023571178885193,-0.7,1.0,0.0,457.0,848.0,0.0,0,155.0,1
33,33,-0.2842128724418598,-0.3,0.0,1.0,459.0,706.0,1.0,0,165.0,1
34,34,-0.13139455124200816,-0.1,0.0,1.0,479.0,579.0,1.0,0,942.0,1
35,35,0.8739174741280739,0.9,0.0,0.0,326.0,591.0,0.0,1,413.0,1
36,36,0.617581419363861,0.6,0.0,0.0,451.0,993.0,0.0,1,136.0,1
37,37,0.1149097059016787,0.1,0.0,0.0,466.0,948.0,0.0,1,266.0,1
38,38,-0.36852400210414327,-0.4,1.0,0.0,407.0,855.0,0.0,0,408.0,1
39,39,-0.27785327523281345,-0.3,0.0,1.0,396.0,832.0,1.0,0,422.0,1
40,40,-0.1397051950664614,-0.1,1.0,0.0,430.0,723.0,0.0,0,637.0,1
41,41,-0.11363513192460573,-0.1,0.0,1.0,457.0,969.0,1.0,0,564.0,1
42,42,0.8592389937169603,0.9,0.0,0.0,312.0,961.0,0.0,1,577.0,1
43,43,-0.3000518403738348,-0.3,0.0,1.0,428.0,696.0,1.0,0,216.0,1
44,44,0.2367099067416102,0.2,1.0,1.0,338.0,844.0,1.0,1,268.0,1
45,45,-0.8911111203115865,-0.9,0.0,1.0,459.0,549.0,1.0,0,352.0,1
46,46,-0.8039793795582001,-0.8,1.0,0.0,371.0,787.0,0.0,0,152.0,1
47,47,-0.7542021238050355,-0.8,1.0,0.0,251.0,516.0,0.0,0,253.0,1
48,48,0.3100712004558418,0.3,0.0,0.0,259.0,963.0,0.0,1,188.0,1
49,49,-0.46493046157695894,-0.5,1.0,0.0,300.0,808.0,0.0,0,162.0,1
50,50,0.1398383143597156,0.1,1.0,1.0,320.0,692.0,1.0,1,258.0,1
51,51,-0.2948274418090002,-0.3,0.0,1.0,280.0,739.0,1.0,0,391.0,1
52,52,-0.1303264856376204,-0.1,0.0,1.0,496.0,513.0,1.0,0,671.0,1
53,53,-0.33683131069587424,-0.3,0.0,1.0,302.0,661.0,1.0,0,587.0,1
54,54,0.24461702079848402,0.2,0.0,0.0,341.0,893.0,0.0,1,256.0,1
55,55,0.8341573999672133,0.8,0.0,0.0,269.0,915.0,0.0,1,176.0,1
56,56,0.5639363801157408,0.6,0.0,0.0,354.0,876.0,0.0,1,150.0,1
57,57,0.07620338014110839,0.1,0.0,0.0,470.0,603.0,0.0,1,467.0,1
58,58,-0.1300007664308741,-0.1,1.0,0.0,278.0,544.0,0.0,0,488.0,1
59,59,0.3314017537049362,0.3,1.0,1.0,338.0,763.0,1.0,1,159.0,1
60,60,-0.12496638320204623,-0.1,0.0,1.0,396.0,808.0,1.0,0,396.0,1
61,61,-0.18153289095303615,-0.2,0.0,1.0,495.0,668.0,1.0,0,467.0,1
62,62,0.6601441102533759,0.7,0.0,0.0,445.0,873.0,0.0,1,282.0,1
63,63,0.6881301751393273,0.7,0.0,0.0,432.0,869.0,0.0,1,149.0,1
64,64,0.46184113766130264,0.5,1.0,1.0,289.0,612.0,1.0,1,269.0,1
65,65,0.8132451418211927,0.8,0.0,0.0,438.0,735.0,0.0,1,177.0,1
66,66,0.21453815196337678,0.2,0.0,0.0,393.0,783.0,0.0,1,254.0,1
67,67,-0.022331523360338723,-0.0,1.0,0.0,420.0,858.0,1.0,1,822.0,0
68,68,0.773003404112581,0.8,1.0,1.0,461.0,561.0,1.0,1,298.0,1
69,69,0.13927355801193098,0.1,1.0,1.0,319.0,662.0,1.0,1,309.0,1
70,70,0.678463546671949,0.7,1.0,1.0,256.0,876.0,1.0,1,128.0,1
71,71,0.31854309382703605,0.3,0.0,0.0,396.0,673.0,0.0,1,371.0,1
72,72,-0.38547893845748427,-0.4,0.0,1.0,315.0,877.0,1.0,0,198.0,1
73,73,0.3405497180713065,0.3,1.0,1.0,478.0,808.0,1.0,1,64.0,1
74,74,0.6401495826064819,0.6,0.0,0.0,479.0,730.0,0.0,1,121.0,1
75,75,0.8134033694076964,0.8,1.0,1.0,399.0,549.0,1.0,1,222.0,1
76,76,0.23655977082293755,0.2,0.0,0.0,287.0,503.0,0.0,1,500.0,1
77,77,-0.48650160929266006,-0.5,1.0,0.0,340.0,682.0,0.0,0,208.0,1
78,78,-0.753723460912441,-0.8,0.0,1.0,469.0,861.0,1.0,0,130.0,1
79,79,-0.17465223891470916,-0.2,1.0,0.0,331.0,663.0,0.0,0,476.0,1
80,80,-0.6895213717098265,-0.7,1.0,0.0,489.0,988.0,0.0,0,313.0,1
81,81,-0.5186701298188066,-0.5,0.0,1.0,382.0,609.0,1.0,0,319.0,1
82,82,-0.2368118196093294,-0.2,0.0,1.0,364.0,568.0,1.0,0,488.0,1
83,83,-0.3444769217068909,-0.3,1.0,0.0,362.0,696.0,0.0,0,342.0,1
84,84,-0.5873928680683103,-0.6,1.0,0.0,479.0,933.0,0.0,0,98.0,1
85,85,-0.8243565806591469,-0.8,0.0,1.0,401.0,706.0,1.0,0,343.0,1
86,86,-0.1616805963378224,-0.2,0.0,1.0,343.0,722.0,1.0,0,415.0,1
87,87,-0.7236069244744818,-0.7,0.0,1.0,420.0,774.0,1.0,0,246.0,1
88,88,0.24284051539987905,0.2,0.0,0.0,343.0,677.0,0.0,1,220.0,1
89,89,-0.005152095976246884,-0.0,1.0,0.0,497.0,813.0,1.0,1,620.0,0
90,90,0.6918109177917237,0.7,0.0,0.0,381.0,832.0,0.0,1,67.0,1
91,91,0.30809144564449087,0.3,0.0,0.0,311.0,702.0,0.0,1,597.0,1
92,92,-0.08936880874291897,-0.1,1.0,0.0,308.0,597.0,0.0,0,1895.0,1
93,93,-0.4729310313378185,-0.5,1.0,0.0,470.0,662.0,0.0,0,198.0,1
94,94,0.21953180771382497,0.2,0.0,0.0,444.0,651.0,0.0,1,445.0,1
95,95,-0.5801364081129643,-0.6,1.0,0.0,472.0,645.0,0.0,0,183.0,1
96,96,0.5641063217304442,0.6,1.0,1.0,320.0,889.0,1.0,1,81.0,1
97,97,0.4427061320226481,0.4,0.0,0.0,480.0,850.0,0.0,1,270.0,1
98,98,-0.28596052593893706,-0.3,1.0,0.0,314.0,693.0,0.0,0,393.0,1
99,99,0.4573627995363302,0.5,0.0,0.0,356.0,626.0,0.0,1,248.0,1
100,100,0.4982531306487247,0.5,1.0,1.0,407.0,846.0,1.0,1,117.0,1
101,101,-0.30622247207667064,-0.3,1.0,0.0,264.0,583.0,0.0,0,833.0,1
102,102,-0.7206584989497623,-0.7,0.0,1.0,458.0,586.0,1.0,0,316.0,1
103,103,-0.6807792876858686,-0.7,0.0,1.0,259.0,743.0,1.0,0,228.0,1
104,104,0.4024749368844359,0.4,1.0,1.0,463.0,720.0,1.0,1,207.0,1
105,105,0.33065429995902684,0.3,0.0,0.0,269.0,825.0,0.0,1,276.0,1
106,106,-0.22193220836840066,-0.2,1.0,0.0,325.0,827.0,0.0,0,258.0,1
107,107,-0.21230146728111332,-0.2,0.0,1.0,498.0,535.0,1.0,0,527.0,1
108,108,0.20249739396848743,0.2,0.0,0.0,305.0,756.0,0.0,1,459.0,1
109,109,-0.418895752726281,-0.4,0.0,1.0,280.0,887.0,1.0,0,143.0,1
110,110,-0.4961754613205511,-0.5,0.0,1.0,295.0,779.0,1.0,0,186.0,1
111,111,-0.37084604408908783,-0.4,0.0,1.0,397.0,686.0,1.0,0,347.0,1
112,112,-0.357204440612091,-0.4,1.0,0.0,435.0,601.0,0.0,0,434.0,1
113,113,0.2835557699024466,0.3,0.0,0.0,429.0,829.0,0.0,1,242.0,1
114,114,0.5396034731094558,0.5,0.0,0.0,393.0,981.0,0.0,1,96.0,1
115,115,-0.4512387331262169,-0.5,1.0,0.0,433.0,638.0,0.0,0,559.0,1
116,116,-0.6526787811081001,-0.7,1.0,0.0,296.0,528.0,0.0,0,476.0,1
117,117,-0.44488440761455317,-0.4,0.0,1.0,423.0,897.0,1.0,0,160.0,1
118,118,0.28668237528315565,0.3,0.0,0.0,395.0,827.0,0.0,1,238.0,1
119,119,0.16015998616314542,0.2,1.0,1.0,306.0,950.0,1.0,1,284.0,1
120,120,-0.006522801465662642,-0.0,1.0,0.0,300.0,854.0,1.0,1,1846.0,0
121,121,-0.01900231793313578,-0.0,1.0,0.0,473.0,975.0,1.0,1,822.0,0
122,122,0.6236487464552841,0.6,1.0,1.0,444.0,582.0,1.0,1,194.0,1
123,123,-0.7150257723859362,-0.7,0.0,1.0,391.0,883.0,1.0,0,356.0,1
124,124,-0.27076195187120367,-0.3,1.0,0.0,286.0,918.0,0.0,0,276.0,1
125,125,-0.8223360703324495,-0.8,0.0,1.0,434.0,775.0,1.0,0,121.0,1
126,126,0.11671096407510528,0.1,1.0,1.0,296.0,841.0,1.0,1,503.0,1
127,127,-0.1855800164224144,-0.2,1.0,0.0,293.0,876.0,0.0,0,631.0,1
128,128,-0.3441792552524997,-0.3,1.0,0.0,458.0,742.0,0.0,0,360.0,1
129,129,-0.031621046526941976,-0.0,0.0,1.0,261.0,611.0,1.0,0,2128.0,1
130,130,0.502202983842312,0.5,0.0,0.0,349.0,637.0,0.0,1,224.0,1
131,131,0.6522451605050704,0.7,0.0,0.0,493.0,662.0,0.0,1,175.0,1
132,132,-0.44681000805585647,-0.4,1.0,0.0,335.0,525.0,0.0,0,270.0,1
133,133,-0.35577556001670785,-0.4,1.0,0.0,470.0,829.0,0.0,0,301.0,1
134,134,0.13779050749410138,0.1,0.0,0.0,347.0,807.0,0.0,1,496.0,1
135,135,0.2747866336260244,0.3,0.0,0.0,255.0,788.0,0.0,1,247.0,1
136,136,0.6181899065573012,0.6,0.0,0.0,495.0,614.0,0.0,1,391.0,1
137,137,-0.6567850136161696,-0.7,0.0,1.0,449.0,633.0,1.0,0,258.0,1
138,138,-0.5400529680013983,-0.5,1.0,0.0,442.0,795.0,0.0,0,173.0,1
139,139,0.5361912786072988,0.5,0.0,0.0,408.0,860.0,0.0,1,172.0,1
140,140,-0.7956665839761424,-0.8,0.0,1.0,475.0,812.0,1.0,0,103.0,1
141,141,-0.597630779093965,-0.6,1.0,0.0,254.0,577.0,0.0,0,209.0,1
142,142,-0.8182702292766528,-0.8,0.0,1.0,303.0,970.0,1.0,0,97.0,1
143,143,-0.6392353603469676,-0.6,0.0,1.0,287.0,834.0,1.0,0,189.0,1
144,144,0.2538497708039805,0.3,0.0,0.0,373.0,528.0,0.0,1,329.0,1
145,145,-0.37226116863280845,-0.4,1.0,0.0,256.0,897.0,0.0,0,137.0,1
146,146,-0.6466918622409916,-0.6,0.0,1.0,373.0,871.0,1.0,0,356.0,1
147,147,-0.79662889119212,-0.8,0.0,1.0,391.0,578.0,1.0,0,131.0,1
148,148,0.5591325954393226,0.6,1.0,1.0,429.0,623.0,1.0,1,248.0,1
149,149,-0.6979547474932236,-0.7,1.0,0.0,327.0,872.0,0.0,0,111.0,1
150,150,-0.058808619673849205,-0.1,1.0,0.0,253.0,759.0,1.0,1,1988.0,0
151,151,-0.43047703973642815,-0.4,0.0,1.0,365.0,694.0,1.0,0,281.0,1
152,152,0.6623687032731381,0.7,0.0,0.0,385.0,576.0,0.0,1,239.0,1
153,153,0.3866372881497896,0.4,0.0,0.0,338.0,508.0,0.0,1,234.0,1
154,154,0.7375254993103454,0.7,1.0,1.0,454.0,875.0,1.0,1,71.0,1
155,155,-0.3874825360616886,-0.4,0.0,1.0,450.0,547.0,1.0,0,393.0,1
156,156,-0.4685374243507251,-0.5,1.0,0.0,414.0,553.0,0.0,0,233.0,1
157,157,0.7033389629379762,0.7,1.0,1.0,414.0,845.0,1.0,1,91.0,1
158,158,0.7752334469057233,0.8,0.0,0.0,471.0,811.0,0.0,1,198.0,1
159,159,0.5545654138165529,0.6,1.0,1.0,383.0,571.0,1.0,1,186.0,1
160,160,-0.8584800629433701,-0.9,0.0,1.0,465.0,646.0,1.0,0,209.0,1
161,161,-0.2904003276989532,-0.3,0.0,1.0,361.0,900.0,1.0,0,299.0,1
162,162,0.6840705518282467,0.7,1.0,1.0,354.0,605.0,1.0,1,221.0,1
163,163,0.4882279183288908,0.5,0.0,0.0,338.0,625.0,0.0,1,327.0,1
164,164,-0.022954535528052378,-0.0,1.0,0.0,407.0,969.0,1.0,1,1624.0,0
165,165,-0.018344653178855252,-0.0,0.0,1.0,405.0,603.0,0.0,1,1932.0,0
166,166,0.5150447462566071,0.5,1.0,1.0,469.0,557.0,1.0,1,254.0,1
167,167,-0.8080899680664898,-0.8,1.0,0.0,308.0,984.0,0.0,0,258.0,1
168,168,-0.28003534349468173,-0.3,1.0,0.0,380.0,692.0,0.0,0,468.0,1
169,169,-0.3533672629526571,-0.4,0.0,1.0,317.0,880.0,1.0,0,103.0,1
170,170,-0.6730122187466862,-0.7,0.0,1.0,287.0,539.0,1.0,0,294.0,1
171,171,-0.30112750364311114,-0.3,0.0,1.0,321.0,744.0,1.0,0,325.0,1
172,172,0.30363984673117683,0.3,1.0,1.0,292.0,792.0,1.0,1,226.0,1
173,173,0.763849293685536,0.8,0.0,0.0,487.0,828.0,0.0,1,105.0,1
174,174,-0.43426875291900063,-0.4,1.0,0.0,449.0,993.0,0.0,0,118.0,1
175,175,0.13728930642654646,0.1,1.0,1.0,448.0,565.0,1.0,1,677.0,1
176,176,-0.34469500118912155,-0.3,1.0,0.0,376.0,696.0,0.0,0,658.0,1
177,177,0.11076558662379454,0.1,1.0,1.0,427.0,745.0,1.0,1,438.0,1
178,178,-0.09831623972295989,-0.1,0.0,1.0,451.0,602.0,1.0,0,1117.0,1
179,179,0.08829086564157607,0.1,0.0,0.0,276.0,723.0,0.0,1,331.0,1
180,180,0.5776804607192708,0.6,0.0,0.0,251.0,504.0,0.0,1,935.0,1
181,181,0.749039469088494,0.7,0.0,0.0,278.0,854.0,0.0,1,138.0,1
182,182,-0.6363039401563244,-0.6,1.0,0.0,474.0,963.0,0.0,0,73.0,1
183,183,-0.7844389929800795,-0.8,0.0,1.0,430.0,684.0,1.0,0,296.0,1
184,184,-0.025050470108694767,-0.0,0.0,1.0,384.0,634.0,1.0,0,652.0,1
185,185,-0.5114496363175663,-0.5,0.0,1.0,444.0,830.0,1.0,0,216.0,1
186,186,0.8774673257338587,0.9,0.0,0.0,268.0,501.0,0.0,1,381.0,1
187,187,0.5970905220904809,0.6,0.0,0.0,324.0,522.0,0.0,1,324.0,1
188,188,-0.4892072240130274,-0.5,1.0,0.0,270.0,880.0,0.0,0,150.0,1
189,189,-0.7335395756792221,-0.7,1.0,0.0,449.0,920.0,0.0,0,61.0,1
190,190,-0.2494531836753653,-0.2,1.0,0.0,414.0,825.0,0.0,0,231.0,1
191,191,0.3648680721028533,0.4,0.0,0.0,424.0,692.0,0.0,1,274.0,1
192,192,0.5283643915581487,0.5,0.0,0.0,371.0,806.0,0.0,1,383.0,1
193,193,0.8253352864975071,0.8,0.0,0.0,481.0,719.0,0.0,1,170.0,1
194,194,-0.6536278964639726,-0.7,0.0,1.0,251.0,739.0,1.0,0,430.0,1
195,195,-0.6864378352415179,-0.7,0.0,1.0,477.0,858.0,1.0,0,155.0,1
196,196,-0.26245258223122214,-0.3,0.0,1.0,436.0,685.0,1.0,0,189.0,1
197,197,-0.7095882355440271,-0.7,0.0,1.0,444.0,758.0,1.0,0,158.0,1
198,198,0.7243957963778683,0.7,1.0,1.0,288.0,975.0,1.0,1,37.0,1
199,199,0.315528533855863,0.3,1.0,1.0,453.0,619.0,1.0,1,308.0,1
200,200,0.42770671017108153,0.4,1.0,1.0,304.0,992.0,1.0,1,214.0,1
201,201,-0.04501578444902332,-0.0,1.0,0.0,396.0,701.0,0.0,0,983.0,1
202,202,-0.35085713828738707,-0.4,1.0,0.0,322.0,592.0,0.0,0,226.0,1
203,203,-0.8678961705450342,-0.9,1.0,0.0,465.0,899.0,0.0,0,196.0,1
204,204,-0.8632562734259328,-0.9,0.0,1.0,361.0,975.0,1.0,0,414.0,1
205,205,-0.2675904593820023,-0.3,1.0,0.0,366.0,503.0,0.0,0,441.0,1
206,206,0.13061613258996274,0.1,0.0,0.0,408.0,774.0,0.0,1,228.0,1
207,207,0.7819758617086133,0.8,1.0,1.0,280.0,549.0,1.0,1,181.0,1
208,208,-0.1626991324791086,-0.2,0.0,1.0,329.0,893.0,1.0,0,438.0,1
209,209,-0.3505243591337507,-0.4,0.0,1.0,293.0,940.0,1.0,0,187.0,1
210,210,0.5600719700189501,0.6,0.0,0.0,365.0,896.0,0.0,1,159.0,1
211,211,-0.8449375872576981,-0.8,1.0,0.0,432.0,745.0,0.0,0,233.0,1
212,212,0.31207858477981076,0.3,0.0,0.0,322.0,789.0,0.0,1,499.0,1
213,213,-0.6565422278428416,-0.7,0.0,1.0,263.0,594.0,1.0,0,203.0,1
214,214,0.179594708154159,0.2,0.0,0.0,401.0,668.0,0.0,1,371.0,1
215,215,0.24365317229022299,0.2,1.0,1.0,402.0,526.0,1.0,1,482.0,1
216,216,0.7785205517684509,0.8,1.0,1.0,417.0,530.0,1.0,1,273.0,1
217,217,0.6580107367842528,0.7,1.0,1.0,491.0,548.0,1.0,1,111.0,1
218,218,0.24481917401634223,0.2,1.0,1.0,452.0,923.0,1.0,1,175.0,1
219,219,0.7776349420719585,0.8,0.0,0.0,316.0,877.0,0.0,1,817.0,1
220,220,-0.7011155594491091,-0.7,0.0,1.0,471.0,663.0,1.0,0,136.0,1
221,221,-0.18278671733583718,-0.2,1.0,0.0,256.0,690.0,0.0,0,454.0,1
222,222,0.65142992438815,0.7,0.0,0.0,444.0,918.0,0.0,1,138.0,1
223,223,0.24770670492692692,0.2,0.0,0.0,282.0,530.0,0.0,1,728.0,1
224,224,-0.2864672091706104,-0.3,1.0,0.0,313.0,549.0,0.0,0,1358.0,1
225,225,0.23342421611860387,0.2,0.0,0.0,468.0,951.0,0.0,1,241.0,1
226,226,0.38810405940399206,0.4,1.0,1.0,404.0,884.0,1.0,1,82.0,1
227,227,-0.8435243193386021,-0.8,0.0,1.0,321.0,616.0,1.0,0,223.0,1
228,228,-0.374256080780929,-0.4,1.0,0.0,387.0,893.0,0.0,0,340.0,1
229,229,0.22715216534456928,0.2,1.0,1.0,358.0,901.0,1.0,1,211.0,1
230,230,-0.5910419469505956,-0.6,1.0,0.0,394.0,624.0,0.0,0,192.0,1
231,231,-0.24637862586193182,-0.2,1.0,0.0,398.0,659.0,0.0,0,693.0,1
232,232,0.10476642367685207,0.1,1.0,1.0,442.0,986.0,1.0,1,442.0,1
233,233,0.3542506843727057,0.4,0.0,0.0,253.0,757.0,0.0,1,250.0,1
234,234,0.23548675998211654,0.2,0.0,0.0,352.0,985.0,0.0,1,153.0,1
235,235,0.1489659738086645,0.1,0.0,0.0,254.0,988.0,0.0,1,228.0,1
236,236,-0.5779254770178793,-0.6,1.0,0.0,293.0,920.0,0.0,0,137.0,1
237,237,0.21489161485276564,0.2,1.0,1.0,394.0,727.0,1.0,1,269.0,1
238,238,-0.419451914874374,-0.4,0.0,1.0,341.0,792.0,1.0,0,507.0,1
239,239,0.16466957309336772,0.2,0.0,0.0,354.0,778.0,0.0,1,348.0,1
240,240,0.3047349980602493,0.3,1.0,1.0,354.0,897.0,1.0,1,199.0,1
241,241,-0.1843472338958635,-0.2,1.0,0.0,416.0,979.0,0.0,0,885.0,1
242,242,-0.2068367242607141,-0.2,1.0,0.0,451.0,704.0,0.0,0,265.0,1
243,243,0.016770576028873108,0.0,1.0,1.0,482.0,990.0,1.0,1,278.0,1
244,244,0.5126081472649998,0.5,0.0,0.0,389.0,970.0,1.0,0,-49.0,0
245,245,0.37602750486292835,0.4,1.0,1.0,492.0,785.0,1.0,1,193.0,1
246,246,-0.6849775512015618,-0.7,1.0,0.0,466.0,932.0,0.0,0,72.0,1
247,247,-0.03521679818610146,-0.0,1.0,0.0,283.0,720.0,0.0,0,577.0,1
248,248,-0.3025071967685936,-0.3,0.0,1.0,352.0,970.0,1.0,0,218.0,1
249,249,0.5852530881472194,0.6,0.0,0.0,325.0,733.0,0.0,1,152.0,1
250,250,0.1159662802541922,0.1,0.0,0.0,260.0,649.0,0.0,1,801.0,1
251,251,-0.12160387334213507,-0.1,0.0,1.0,396.0,515.0,1.0,0,609.0,1
252,252,-0.8760882406712583,-0.9,1.0,0.0,359.0,804.0,0.0,0,147.0,1
253,253,0.2571349001176949,0.3,0.0,0.0,336.0,915.0,0.0,1,299.0,1
254,254,0.004326278613233869,0.0,0.0,0.0,362.0,928.0,0.0,1,1710.0,1
255,255,0.6797998686559527,0.7,0.0,0.0,454.0,529.0,0.0,1,407.0,1
256,256,-0.7508511878701374,-0.8,0.0,1.0,374.0,634.0,1.0,0,182.0,1
257,257,0.7116560373050457,0.7,1.0,1.0,399.0,644.0,1.0,1,347.0,1
258,258,-0.22383794278287972,-0.2,1.0,0.0,259.0,929.0,0.0,0,232.0,1
259,259,-0.38500117569825054,-0.4,1.0,0.0,271.0,988.0,0.0,0,221.0,1
260,260,-0.5866160468680673,-0.6,0.0,1.0,415.0,716.0,1.0,0,249.0,1
261,261,-0.7735128229394811,-0.8,0.0,1.0,454.0,508.0,1.0,0,258.0,1
262,262,0.683073581195008,0.7,1.0,1.0,329.0,506.0,1.0,1,305.0,1
263,263,-0.4223485092304955,-0.4,1.0,0.0,383.0,998.0,0.0,0,819.0,1
264,264,0.5876911469057408,0.6,1.0,1.0,420.0,622.0,1.0,1,278.0,1
265,265,-0.7530871726322756,-0.8,1.0,0.0,447.0,735.0,0.0,0,978.0,1
266,266,-0.8107844132822473,-0.8,0.0,1.0,253.0,855.0,1.0,0,42.0,1
267,267,-0.5005588284667131,-0.5,1.0,0.0,281.0,563.0,0.0,0,376.0,1
268,268,-0.6282667670603223,-0.6,0.0,1.0,497.0,592.0,1.0,0,201.0,1
269,269,0.10911410270085076,0.1,1.0,1.0,263.0,790.0,1.0,1,167.0,1
270,270,0.44625392076840853,0.4,1.0,1.0,476.0,770.0,1.0,1,124.0,1
271,271,-0.8436141502947627,-0.8,0.0,1.0,472.0,809.0,1.0,0,279.0,1
272,272,0.26212521903894903,0.3,0.0,0.0,257.0,535.0,0.0,1,388.0,1
273,273,-0.30415876391611174,-0.3,1.0,0.0,474.0,621.0,0.0,0,875.0,1
274,274,-0.254241766920273,-0.3,0.0,1.0,363.0,704.0,1.0,0,403.0,1
275,275,-0.5302567977684559,-0.5,0.0,1.0,269.0,716.0,1.0,0,285.0,1
276,276,0.6443193404042288,0.6,0.0,0.0,460.0,963.0,0.0,1,87.0,1
277,277,0.09325059095220656,0.1,1.0,1.0,386.0,570.0,1.0,1,504.0,1
278,278,0.007991297301005562,0.0,0.0,0.0,365.0,740.0,0.0,1,1205.0,1
279,279,0.3724087676641442,0.4,0.0,0.0,392.0,748.0,0.0,1,640.0,1
280,280,-0.17831171694349301,-0.2,0.0,1.0,437.0,530.0,1.0,0,573.0,1
281,281,0.49902034086251523,0.5,1.0,1.0,298.0,619.0,1.0,1,193.0,1
282,282,-0.34514618712278455,-0.3,0.0,1.0,495.0,568.0,1.0,0,457.0,1
283,283,0.5584306874172958,0.6,1.0,1.0,292.0,973.0,1.0,1,115.0,1
284,284,-0.5424042918611465,-0.5,0.0,1.0,367.0,558.0,1.0,0,235.0,1
285,285,-0.027252226017069336,-0.0,1.0,0.0,327.0,824.0,0.0,0,1749.0,1
286,286,0.5391804291992178,0.5,1.0,1.0,460.0,559.0,1.0,1,271.0,1
287,287,-0.33952404563342675,-0.3,1.0,0.0,271.0,958.0,0.0,0,181.0,1
288,288,-0.831473709130473,-0.8,0.0,1.0,270.0,716.0,1.0,0,104.0,1
289,289,-0.052088141644919705,-0.1,1.0,0.0,380.0,944.0,0.0,0,166.0,1
290,290,-0.3732789724194535,-0.4,0.0,1.0,329.0,684.0,1.0,0,367.0,1
291,291,0.07045882442946227,0.1,1.0,1.0,369.0,710.0,1.0,1,361.0,1
292,292,-0.4579167601867169,-0.5,0.0,1.0,490.0,687.0,1.0,0,373.0,1
293,293,-0.8025047032276346,-0.8,0.0,1.0,287.0,784.0,1.0,0,99.0,1
294,294,0.3398360377162265,0.3,0.0,0.0,444.0,519.0,0.0,1,387.0,1
295,295,0.6739121517780652,0.7,1.0,1.0,357.0,827.0,1.0,1,116.0,1
296,296,-0.5061282832807756,-0.5,1.0,0.0,347.0,955.0,0.0,0,78.0,1
297,297,0.54676713443853,0.5,0.0,0.0,427.0,749.0,0.0,1,194.0,1
298,298,0.8432486481556211,0.8,0.0,0.0,298.0,569.0,0.0,1,233.0,1
299,299,0.20259542293921406,0.2,0.0,0.0,298.0,507.0,0.0,1,375.0,1
300,300,0.7638455032137316,0.8,1.0,1.0,446.0,721.0,1.0,1,193.0,1
301,301,0.1997226931904913,0.2,1.0,1.0,348.0,714.0,1.0,1,258.0,1
302,302,0.5707234915797691,0.6,1.0,1.0,441.0,621.0,1.0,1,198.0,1
303,303,0.898516343971793,0.9,1.0,1.0,388.0,686.0,1.0,1,176.0,1
304,304,0.8906332706183261,0.9,0.0,0.0,375.0,706.0,0.0,1,269.0,1
305,305,0.7770338942432492,0.8,0.0,0.0,395.0,519.0,0.0,1,286.0,1
306,306,-0.7436263384993584,-0.7,0.0,1.0,444.0,658.0,1.0,0,318.0,1
307,307,-0.5148387496971165,-0.5,1.0,0.0,487.0,589.0,0.0,0,234.0,1
308,308,0.6266524843080349,0.6,0.0,0.0,283.0,502.0,0.0,1,235.0,1
309,309,0.28352258963113164,0.3,1.0,1.0,308.0,559.0,1.0,1,143.0,1
310,310,0.22078518031511252,0.2,0.0,0.0,476.0,744.0,0.0,1,410.0,1
311,311,-0.14026025402425124,-0.1,0.0,1.0,375.0,787.0,1.0,0,368.0,1
312,312,0.3402596586238348,0.3,1.0,1.0,493.0,518.0,1.0,1,539.0,1
313,313,0.7944544515152329,0.8,1.0,1.0,297.0,734.0,1.0,1,89.0,1
314,314,0.6535332225443528,0.7,0.0,0.0,447.0,699.0,0.0,1,144.0,1
315,315,0.00629264082906289,0.0,1.0,1.0,417.0,918.0,1.0,1,1665.0,1
316,316,-0.834750889958364,-0.8,0.0,1.0,428.0,632.0,1.0,0,300.0,1
317,317,0.550549274553109,0.6,1.0,1.0,371.0,595.0,1.0,1,224.0,1
318,318,0.5512721237682613,0.6,0.0,0.0,301.0,722.0,0.0,1,187.0,1
319,319,-0.6658994938422776,-0.7,0.0,1.0,479.0,970.0,1.0,0,31.0,1
320,320,-0.46477206860814885,-0.5,1.0,0.0,286.0,996.0,0.0,0,198.0,1
321,321,0.06659254696766992,0.1,1.0,1.0,488.0,633.0,1.0,1,619.0,1
322,322,0.7356848248961408,0.7,0.0,0.0,264.0,576.0,0.0,1,390.0,1
323,323,0.5223385619549045,0.5,1.0,1.0,368.0,810.0,1.0,1,152.0,1
324,324,0.6830465575245591,0.7,1.0,1.0,332.0,965.0,1.0,1,243.0,1
325,325,-0.3227746514842965,-0.3,1.0,0.0,451.0,722.0,0.0,0,307.0,1
326,326,0.8929234555460711,0.9,1.0,1.0,491.0,604.0,1.0,1,245.0,1
327,327,-0.5435480048934935,-0.5,0.0,1.0,474.0,647.0,1.0,0,229.0,1
328,328,-0.5680390588907283,-0.6,1.0,0.0,292.0,840.0,0.0,0,198.0,1
329,329,0.38820283521873955,0.4,0.0,0.0,410.0,788.0,0.0,1,242.0,1
330,330,-0.13108188230280882,-0.1,0.0,1.0,261.0,591.0,1.0,0,618.0,1
331,331,-0.7613904309632651,-0.8,0.0,1.0,267.0,833.0,1.0,0,210.0,1
332,332,0.8114043245832124,0.8,0.0,0.0,350.0,814.0,0.0,1,236.0,1
333,333,0.6520287584552683,0.7,0.0,0.0,416.0,765.0,0.0,1,229.0,1
334,334,0.0689805449557862,0.1,0.0,0.0,489.0,902.0,0.0,1,1509.0,1
335,335,-0.8802178495473316,-0.9,1.0,0.0,287.0,848.0,0.0,0,105.0,1
336,336,-0.21643735380974494,-0.2,0.0,1.0,388.0,761.0,1.0,0,231.0,1
337,337,-0.5177601927562465,-0.5,1.0,0.0,428.0,694.0,0.0,0,388.0,1
338,338,-0.4266342828223006,-0.4,0.0,1.0,318.0,888.0,1.0,0,104.0,1
339,339,-0.2004713159649818,-0.2,1.0,0.0,468.0,787.0,0.0,0,275.0,1
340,340,-0.06676450880885154,-0.1,1.0,0.0,482.0,594.0,0.0,0,754.0,1
341,341,-0.18057598740614722,-0.2,0.0,1.0,443.0,546.0,1.0,0,801.0,1
342,342,0.053987439871028386,0.1,1.0,1.0,332.0,868.0,1.0,1,250.0,1
343,343,-0.7285063857656439,-0.7,0.0,1.0,270.0,519.0,1.0,0,231.0,1
344,344,-0.6167084933126118,-0.6,0.0,1.0,421.0,787.0,1.0,0,242.0,1
345,345,0.6450955016185403,0.6,1.0,1.0,360.0,582.0,1.0,1,278.0,1
346,346,0.3584499486267697,0.4,0.0,0.0,268.0,788.0,0.0,1,364.0,1
347,347,-0.4678423374466362,-0.5,1.0,0.0,429.0,772.0,0.0,0,439.0,1
348,348,-0.7497205232390683,-0.7,1.0,0.0,264.0,752.0,0.0,0,314.0,1
349,349,0.3526089949781718,0.4,1.0,1.0,438.0,936.0,1.0,1,216.0,1
350,350,0.33468197394071353,0.3,0.0,0.0,454.0,915.0,0.0,1,171.0,1
351,351,0.6803714819859196,0.7,1.0,1.0,265.0,912.0,1.0,1,83.0,1
352,352,0.20133586614734955,0.2,1.0,1.0,365.0,826.0,1.0,1,199.0,1
353,353,0.4697550853508067,0.5,1.0,1.0,437.0,896.0,1.0,1,197.0,1
354,354,-0.5362725946726568,-0.5,1.0,0.0,378.0,975.0,0.0,0,97.0,1
355,355,0.027469648698986826,0.0,1.0,1.0,439.0,826.0,1.0,1,1675.0,1
356,356,-0.5459052902013184,-0.5,0.0,1.0,356.0,788.0,1.0,0,166.0,1
357,357,0.30726136476862875,0.3,1.0,1.0,280.0,504.0,1.0,1,446.0,1
358,358,0.6474861969150204,0.6,1.0,1.0,375.0,902.0,1.0,1,143.0,1
359,359,0.878373874538514,0.9,1.0,1.0,427.0,650.0,1.0,1,83.0,1
360,360,0.4017548407757491,0.4,0.0,0.0,491.0,613.0,0.0,1,206.0,1
361,361,0.445336226837067,0.4,1.0,1.0,411.0,551.0,1.0,1,288.0,1
362,362,0.6225218856436324,0.6,1.0,1.0,310.0,930.0,1.0,1,130.0,1
363,363,0.3843402950449287,0.4,1.0,1.0,356.0,808.0,1.0,1,256.0,1
364,364,-0.4119667980195341,-0.4,1.0,0.0,440.0,978.0,0.0,0,62.0,1
365,365,0.2892866768654184,0.3,0.0,0.0,350.0,576.0,0.0,1,334.0,1
366,366,0.5145267569456785,0.5,0.0,0.0,365.0,691.0,0.0,1,254.0,1
367,367,-0.8455033834162649,-0.8,0.0,1.0,272.0,707.0,1.0,0,121.0,1
368,368,-0.47180842542685775,-0.5,1.0,0.0,491.0,768.0,0.0,0,591.0,1
369,369,0.6691636079083535,0.7,0.0,0.0,310.0,532.0,0.0,1,528.0,1
370,370,0.37578942729675735,0.4,0.0,0.0,408.0,691.0,0.0,1,161.0,1
371,371,-0.20202275842720563,-0.2,0.0,1.0,470.0,861.0,1.0,0,219.0,1
372,372,-0.3276641192067855,-0.3,0.0,1.0,381.0,642.0,1.0,0,267.0,1
373,373,0.5948425211082514,0.6,0.0,0.0,364.0,756.0,0.0,1,130.0,1
374,374,-0.30275531061252914,-0.3,0.0,1.0,425.0,637.0,1.0,0,238.0,1
375,375,-0.4829848355914907,-0.5,1.0,0.0,370.0,800.0,0.0,0,180.0,1
376,376,-0.1483247662151752,-0.1,1.0,0.0,272.0,563.0,0.0,0,505.0,1
377,377,-0.8858393568162759,-0.9,1.0,0.0,412.0,863.0,0.0,0,175.0,1
378,378,0.582940045610148,0.6,0.0,0.0,358.0,670.0,0.0,1,252.0,1
379,379,0.3515281810591354,0.4,0.0,0.0,484.0,739.0,0.0,1,257.0,1
380,380,-0.7170388159419003,-0.7,1.0,0.0,317.0,990.0,0.0,0,23.0,1
381,381,-0.19763694418683275,-0.2,1.0,0.0,485.0,958.0,0.0,0,417.0,1
382,382,-0.4322710674249292,-0.4,1.0,0.0,388.0,879.0,0.0,0,243.0,1
383,383,0.06817259601760761,0.1,0.0,0.0,402.0,841.0,0.0,1,1757.0,1
384,384,0.8459574212951338,0.8,1.0,1.0,420.0,677.0,1.0,1,323.0,1
385,385,0.07686029794898086,0.1,1.0,1.0,327.0,872.0,1.0,1,361.0,1
386,386,-0.09618168114389525,-0.1,1.0,0.0,359.0,722.0,0.0,0,369.0,1
387,387,-0.19161984191068093,-0.2,0.0,1.0,270.0,945.0,1.0,0,255.0,1
388,388,-0.012257801270914359,-0.0,0.0,1.0,461.0,988.0,0.0,1,131.0,0
389,389,-0.832456112648138,-0.8,0.0,1.0,414.0,989.0,1.0,0,17.0,1
390,390,0.7785180415792613,0.8,1.0,1.0,351.0,823.0,1.0,1,186.0,1
391,391,-0.4011878400842621,-0.4,0.0,1.0,253.0,705.0,1.0,0,252.0,1
392,392,-0.6420094458470573,-0.6,0.0,1.0,285.0,655.0,1.0,0,280.0,1
393,393,-0.3235552132090468,-0.3,0.0,1.0,350.0,549.0,1.0,0,481.0,1
394,394,0.8937432068682926,0.9,1.0,1.0,414.0,664.0,1.0,1,262.0,1
395,395,0.860671595583956,0.9,1.0,1.0,366.0,874.0,1.0,1,180.0,1
396,396,0.1681879291172922,0.2,1.0,1.0,306.0,827.0,1.0,1,287.0,1
397,397,-0.7220708949588055,-0.7,1.0,0.0,309.0,647.0,0.0,0,124.0,1
398,398,0.6880896303793226,0.7,1.0,1.0,326.0,994.0,1.0,1,110.0,1
399,399,-0.3042221427866135,-0.3,0.0,1.0,364.0,936.0,1.0,0,180.0,1
400,400,-0.8468495772161572,-0.8,0.0,1.0,409.0,723.0,1.0,0,218.0,1
401,401,0.8804114206570265,0.9,1.0,1.0,392.0,958.0,1.0,1,200.0,1
402,402,-0.8258563480831226,-0.8,0.0,1.0,498.0,864.0,1.0,0,278.0,1
403,403,0.420502081922132,0.4,0.0,0.0,331.0,885.0,0.0,1,134.0,1
404,404,0.6328441769948038,0.6,0.0,0.0,484.0,943.0,0.0,1,193.0,1
405,405,-0.6081714208223332,-0.6,0.0,1.0,427.0,958.0,1.0,0,325.0,1
406,406,0.18136547918613488,0.2,0.0,0.0,394.0,988.0,0.0,1,258.0,1
407,407,-0.7967796589273372,-0.8,1.0,0.0,466.0,986.0,0.0,0,58.0,1
408,408,0.2764397812216718,0.3,1.0,1.0,369.0,565.0,1.0,1,366.0,1
409,409,0.009468239724275351,0.0,1.0,1.0,256.0,896.0,1.0,1,378.0,1
410,410,-0.6136469746942432,-0.6,0.0,1.0,330.0,991.0,1.0,0,149.0,1
411,411,0.7291433086664131,0.7,1.0,1.0,257.0,977.0,1.0,1,76.0,1
412,412,0.8124248345532207,0.8,1.0,1.0,492.0,837.0,1.0,1,131.0,1
413,413,-0.6403972307802802,-0.6,1.0,0.0,427.0,908.0,0.0,0,315.0,1
414,414,0.7197559499741132,0.7,1.0,1.0,347.0,789.0,1.0,1,244.0,1
415,415,-0.7882795810740392,-0.8,0.0,1.0,279.0,512.0,1.0,0,379.0,1
416,416,0.08279014297825649,0.1,1.0,1.0,376.0,609.0,1.0,1,355.0,1
417,417,-0.28172457579835686,-0.3,1.0,0.0,444.0,783.0,0.0,0,263.0,1
418,418,-0.885409021159147,-0.9,1.0,0.0,425.0,781.0,0.0,0,224.0,1
419,419,0.8708358159157182,0.9,0.0,0.0,320.0,583.0,0.0,1,217.0,1
420,420,-0.8388263893506802,-0.8,1.0,0.0,417.0,847.0,0.0,0,486.0,1
421,421,-0.2901671324492451,-0.3,0.0,1.0,386.0,702.0,1.0,0,442.0,1
422,422,0.53849859128814,0.5,1.0,1.0,494.0,592.0,1.0,1,294.0,1
423,423,0.33529691106458703,0.3,1.0,1.0,337.0,898.0,1.0,1,95.0,1
424,424,0.4907741956707846,0.5,1.0,1.0,493.0,995.0,1.0,1,122.0,1
425,425,-0.22318422947358008,-0.2,0.0,1.0,424.0,644.0,1.0,0,372.0,1
426,426,0.10100248392820854,0.1,1.0,1.0,353.0,920.0,1.0,1,257.0,1
427,427,0.12612025366275137,0.1,0.0,0.0,365.0,779.0,0.0,1,286.0,1
428,428,0.20623519224583464,0.2,1.0,1.0,496.0,749.0,1.0,1,315.0,1
429,429,-0.6509976308087377,-0.7,0.0,1.0,299.0,719.0,1.0,0,162.0,1
430,430,-0.8723326514432398,-0.9,1.0,0.0,390.0,955.0,0.0,0,115.0,1
431,431,0.8732179665003591,0.9,0.0,0.0,308.0,936.0,0.0,1,26.0,1
432,432,-0.0330324169870716,-0.0,1.0,0.0,305.0,659.0,0.0,0,1836.0,1
433,433,-0.8817531211161431,-0.9,1.0,0.0,355.0,665.0,0.0,0,210.0,1
434,434,0.19289592022654245,0.2,1.0,1.0,333.0,957.0,1.0,1,280.0,1
435,435,0.6981247781911583,0.7,0.0,0.0,472.0,603.0,0.0,1,235.0,1
436,436,-0.615685438638442,-0.6,0.0,1.0,453.0,903.0,1.0,0,74.0,1
437,437,0.526802663658627,0.5,1.0,1.0,282.0,966.0,1.0,1,152.0,1
438,438,-0.815741421585355,-0.8,1.0,0.0,316.0,549.0,0.0,0,425.0,1
439,439,-0.34704695937799745,-0.3,1.0,0.0,445.0,866.0,0.0,0,329.0,1
440,440,-0.7662952351960646,-0.8,0.0,1.0,446.0,893.0,1.0,0,231.0,1
441,441,-0.7723267474041577,-0.8,1.0,0.0,453.0,947.0,0.0,0,90.0,1
442,442,-0.645072783339831,-0.6,1.0,0.0,280.0,608.0,0.0,0,272.0,1
443,443,-0.8447650159972294,-0.8,1.0,0.0,309.0,652.0,0.0,0,189.0,1
444,444,-0.18860744551079167,-0.2,0.0,1.0,481.0,635.0,1.0,0,544.0,1
445,445,-0.5523868211401124,-0.6,1.0,0.0,351.0,719.0,0.0,0,200.0,1
446,446,-0.04633935710404857,-0.0,1.0,0.0,344.0,788.0,0.0,0,368.0,1
447,447,-0.6817465109920667,-0.7,0.0,1.0,350.0,643.0,1.0,0,347.0,1
448,448,0.716325600316072,0.7,0.0,0.0,479.0,519.0,0.0,1,452.0,1
449,449,-0.12707385690046913,-0.1,0.0,1.0,322.0,646.0,1.0,0,472.0,1
450,450,-0.5070207903432131,-0.5,1.0,0.0,289.0,546.0,0.0,0,285.0,1
451,451,0.5356709769960969,0.5,0.0,0.0,493.0,633.0,0.0,1,364.0,1
452,452,-0.7183954669008146,-0.7,0.0,1.0,482.0,965.0,1.0,0,83.0,1
453,453,-0.8992660653972554,-0.9,1.0,0.0,254.0,904.0,0.0,0,162.0,1
454,454,-0.6989800059686166,-0.7,1.0,0.0,264.0,545.0,0.0,0,291.0,1
455,455,0.20904078586118813,0.2,1.0,1.0,253.0,814.0,1.0,1,123.0,1
456,456,0.5384427946720795,0.5,1.0,1.0,345.0,859.0,1.0,1,46.0,1
457,457,0.2413390275164803,0.2,1.0,1.0,360.0,972.0,1.0,1,168.0,1
458,458,-0.6748500635977371,-0.7,1.0,0.0,339.0,824.0,0.0,0,197.0,1
459,459,0.5520239870049132,0.6,1.0,1.0,433.0,887.0,1.0,1,200.0,1
460,460,-0.15121401436363435,-0.2,1.0,0.0,301.0,566.0,0.0,0,1613.0,1
461,461,0.5750459147439125,0.6,0.0,0.0,285.0,775.0,0.0,1,120.0,1
462,462,-0.1461619953907065,-0.1,1.0,0.0,334.0,711.0,0.0,0,325.0,1
463,463,-0.2486598587311507,-0.2,1.0,0.0,297.0,537.0,0.0,0,436.0,1
464,464,-0.8881354540671557,-0.9,1.0,0.0,274.0,801.0,0.0,0,105.0,1
465,465,-0.23768054166520358,-0.2,0.0,1.0,360.0,603.0,1.0,0,577.0,1
466,466,0.02948038928530905,0.0,0.0,0.0,478.0,763.0,0.0,1,1759.0,1
467,467,-0.14498117311446312,-0.1,1.0,0.0,471.0,982.0,0.0,0,1377.0,1
468,468,0.651038871553966,0.7,1.0,1.0,280.0,828.0,1.0,1,152.0,1
469,469,0.56108776933847,0.6,0.0,0.0,313.0,535.0,0.0,1,352.0,1
470,470,0.335209360160425,0.3,1.0,1.0,448.0,553.0,1.0,1,459.0,1
471,471,0.6263837794005834,0.6,0.0,0.0,335.0,651.0,0.0,1,234.0,1
472,472,0.18892378148569466,0.2,1.0,1.0,405.0,624.0,1.0,1,341.0,1
473,473,0.20897838414663716,0.2,0.0,0.0,414.0,743.0,0.0,1,273.0,1
474,474,-0.681608960333113,-0.7,1.0,0.0,417.0,696.0,0.0,0,57.0,1
475,475,-0.3661444613460516,-0.4,0.0,1.0,474.0,724.0,1.0,0,152.0,1
476,476,-0.12296042357833936,-0.1,0.0,1.0,405.0,690.0,1.0,0,265.0,1
477,477,0.5182537615204187,0.5,1.0,1.0,354.0,883.0,1.0,1,143.0,1
478,478,-0.647442158635497,-0.6,1.0,0.0,479.0,820.0,0.0,0,121.0,1
479,479,0.3950964355040957,0.4,1.0,1.0,461.0,723.0,1.0,1,226.0,1
480,480,0.5674150295737238,0.6,1.0,1.0,347.0,973.0,1.0,1,130.0,1
481,481,-0.8802631352684492,-0.9,0.0,1.0,483.0,802.0,1.0,0,245.0,1
482,482,-0.6839002132654183,-0.7,1.0,0.0,473.0,886.0,0.0,0,131.0,1
483,483,-0.5242271343318343,-0.5,1.0,0.0,310.0,965.0,0.0,0,195.0,1
484,484,0.5606446909499635,0.6,1.0,1.0,284.0,952.0,1.0,1,144.0,1
485,485,0.45916869554981454,0.5,0.0,0.0,405.0,584.0,0.0,1,131.0,1
486,486,0.44680847195953965,0.4,1.0,1.0,320.0,995.0,1.0,1,65.0,1
487,487,0.8715816091394258,0.9,1.0,1.0,496.0,992.0,1.0,1,242.0,1
488,488,-0.1355218801749435,-0.1,0.0,1.0,471.0,719.0,1.0,0,470.0,1
489,489,-0.1308548133056302,-0.1,1.0,0.0,322.0,759.0,0.0,0,519.0,1
490,490,0.8176106158513231,0.8,1.0,1.0,380.0,895.0,1.0,1,95.0,1
491,491,0.5350742927605666,0.5,0.0,0.0,318.0,862.0,0.0,1,180.0,1
492,492,0.362386413261803,0.4,0.0,0.0,488.0,767.0,0.0,1,165.0,1
493,493,0.5207102617914746,0.5,1.0,1.0,455.0,918.0,1.0,1,267.0,1
494,494,-0.16432090741116134,-0.2,0.0,1.0,419.0,804.0,1.0,0,407.0,1
495,495,0.04468271994321937,0.0,1.0,1.0,466.0,938.0,1.0,1,346.0,1
496,496,3.458464560257557e-05,0.0,0.0,0.0,282.0,752.0,0.0,1,1256.0,1
497,497,0.29385455499420854,0.3,0.0,0.0,324.0,540.0,0.0,1,306.0,1
498,498,-0.6087669211885288,-0.6,0.0,1.0,477.0,500.0,1.0,0,303.0,1
499,499,0.6298299502312202,0.6,0.0,0.0,258.0,975.0,0.0,1,127.0,1
500,500,-0.43048824916707346,-0.4,0.0,1.0,496.0,819.0,1.0,0,175.0,1
501,501,0.14533527559936965,0.1,1.0,1.0,272.0,875.0,1.0,1,153.0,1
502,502,-0.14991912813607644,-0.1,0.0,1.0,442.0,958.0,1.0,0,350.0,1
503,503,0.4187215377698431,0.4,1.0,1.0,260.0,511.0,1.0,1,419.0,1
504,504,-0.5845984894123548,-0.6,1.0,0.0,327.0,653.0,0.0,0,290.0,1
505,505,0.7483491915219495,0.7,0.0,0.0,447.0,522.0,0.0,1,291.0,1
506,506,-0.5818171698791003,-0.6,1.0,0.0,303.0,557.0,0.0,0,490.0,1
507,507,-0.6815027757224397,-0.7,1.0,0.0,303.0,969.0,0.0,0,1008.0,1
508,508,-0.8180958626795153,-0.8,1.0,0.0,408.0,867.0,0.0,0,85.0,1
509,509,-0.12436953470627765,-0.1,1.0,0.0,266.0,555.0,0.0,0,469.0,1
510,510,0.3456845551823481,0.3,1.0,1.0,428.0,814.0,1.0,1,118.0,1
511,511,-0.34550607998709704,-0.3,0.0,1.0,308.0,718.0,1.0,0,204.0,1
512,512,-0.7730292912177894,-0.8,0.0,1.0,254.0,540.0,1.0,0,206.0,1
513,513,-0.37998298139437614,-0.4,1.0,0.0,367.0,515.0,0.0,0,458.0,1
514,514,-0.6445549189917741,-0.6,0.0,1.0,309.0,509.0,1.0,0,382.0,1
515,515,-0.7675472489164562,-0.8,0.0,1.0,393.0,513.0,1.0,0,224.0,1
516,516,-0.0441738613072028,-0.0,1.0,0.0,256.0,979.0,0.0,0,535.0,1
517,517,0.7488751652825606,0.7,1.0,1.0,468.0,778.0,1.0,1,164.0,1
518,518,-0.651078283449838,-0.7,0.0,1.0,491.0,921.0,1.0,0,178.0,1
519,519,0.2159219598598704,0.2,0.0,0.0,267.0,937.0,0.0,1,86.0,1
520,520,0.13144568287623992,0.1,0.0,0.0,334.0,600.0,0.0,1,626.0,1
521,521,0.8372503894656681,0.8,0.0,0.0,338.0,751.0,0.0,1,211.0,1
522,522,0.8120192151732243,0.8,1.0,1.0,487.0,563.0,1.0,1,120.0,1
523,523,0.8524597688068286,0.9,1.0,1.0,340.0,511.0,1.0,1,329.0,1
524,524,-0.2296750582697994,-0.2,0.0,1.0,279.0,535.0,1.0,0,216.0,1
525,525,0.715753812510907,0.7,1.0,1.0,349.0,811.0,1.0,1,80.0,1
526,526,-0.07321426694840916,-0.1,0.0,1.0,453.0,525.0,1.0,0,732.0,1
527,527,-0.005288461790517673,-0.0,1.0,0.0,418.0,917.0,1.0,1,1665.0,0
528,528,0.6972726149304599,0.7,0.0,0.0,351.0,658.0,0.0,1,141.0,1
529,529,-0.45469381387903596,-0.5,0.0,1.0,348.0,572.0,1.0,0,300.0,1
530,530,-0.12164181637353155,-0.1,0.0,1.0,490.0,833.0,0.0,1,47.0,0
531,531,-0.07725803831063016,-0.1,0.0,1.0,433.0,690.0,1.0,0,917.0,1
532,532,0.6334087878496845,0.6,1.0,1.0,381.0,749.0,1.0,1,190.0,1
533,533,0.8487096811935116,0.8,0.0,0.0,380.0,992.0,0.0,1,98.0,1
534,534,-0.15757786340294688,-0.2,0.0,1.0,360.0,964.0,1.0,0,216.0,1
535,535,-0.6936273233279282,-0.7,0.0,1.0,259.0,691.0,1.0,0,190.0,1
536,536,0.3758604163329403,0.4,1.0,1.0,329.0,798.0,1.0,1,283.0,1
537,537,-0.49840334694505584,-0.5,1.0,0.0,471.0,604.0,0.0,0,235.0,1
538,538,-0.22449065175319305,-0.2,0.0,1.0,276.0,679.0,1.0,0,275.0,1
539,539,0.016736412652756272,0.0,1.0,1.0,442.0,791.0,1.0,1,1767.0,1
540,540,-0.3330972369538838,-0.3,1.0,0.0,481.0,783.0,0.0,0,356.0,1
541,541,-0.43156761188522125,-0.4,0.0,1.0,261.0,624.0,1.0,0,205.0,1
542,542,-0.29220602661973283,-0.3,1.0,0.0,397.0,631.0,0.0,0,362.0,1
543,543,0.5057506343015316,0.5,1.0,1.0,331.0,849.0,1.0,1,90.0,1
544,544,0.8203023955169347,0.8,0.0,0.0,473.0,522.0,0.0,1,675.0,1
545,545,0.4698447609451869,0.5,0.0,0.0,342.0,602.0,0.0,1,356.0,1
546,546,-0.4432121646723179,-0.4,0.0,1.0,444.0,640.0,1.0,0,226.0,1
547,547,0.7360407612890371,0.7,1.0,1.0,433.0,804.0,1.0,1,143.0,1
548,548,0.6071307472879587,0.6,0.0,0.0,276.0,685.0,0.0,1,179.0,1
549,549,0.46453224089246514,0.5,0.0,0.0,405.0,559.0,0.0,1,256.0,1
550,550,0.7214049610879852,0.7,0.0,0.0,304.0,824.0,0.0,1,162.0,1
551,551,0.33060908820003865,0.3,1.0,1.0,421.0,706.0,1.0,1,123.0,1
552,552,-0.7148013020990945,-0.7,1.0,0.0,484.0,896.0,0.0,0,150.0,1
553,553,-0.2387248401890112,-0.2,0.0,1.0,395.0,628.0,1.0,0,417.0,1
554,554,-0.5264784884214639,-0.5,1.0,0.0,498.0,503.0,0.0,0,399.0,1
555,555,-0.6146836009155029,-0.6,0.0,1.0,354.0,974.0,1.0,0,112.0,1
556,556,-0.8123204635739188,-0.8,1.0,0.0,432.0,821.0,0.0,0,247.0,1
557,557,-0.16390291672426527,-0.2,0.0,1.0,470.0,837.0,1.0,0,403.0,1
558,558,-0.3207050323124512,-0.3,0.0,1.0,447.0,900.0,1.0,0,373.0,1
559,559,-0.16051284704863,-0.2,1.0,0.0,461.0,566.0,0.0,0,313.0,1
560,560,0.08031970334767813,0.1,1.0,1.0,312.0,937.0,1.0,1,441.0,1
561,561,-0.07957653231005535,-0.1,1.0,0.0,434.0,788.0,0.0,0,708.0,1
562,562,-0.7599115135949609,-0.8,0.0,1.0,481.0,654.0,1.0,0,225.0,1
563,563,0.6036083749554085,0.6,1.0,1.0,441.0,560.0,1.0,1,199.0,1
564,564,-0.512750947174112,-0.5,0.0,1.0,379.0,511.0,1.0,0,250.0,1
565,565,0.8946783643379134,0.9,1.0,1.0,409.0,661.0,1.0,1,230.0,1
566,566,-0.2860238339416594,-0.3,0.0,1.0,481.0,867.0,1.0,0,262.0,1
567,567,0.6350060369794365,0.6,1.0,1.0,446.0,834.0,1.0,1,150.0,1
568,568,-0.10587201355515896,-0.1,0.0,1.0,334.0,816.0,1.0,0,590.0,1
569,569,-0.4351743350961602,-0.4,1.0,0.0,318.0,728.0,0.0,0,274.0,1
570,570,0.10958840360340016,0.1,1.0,1.0,415.0,671.0,1.0,1,694.0,1
571,571,-0.6684310265554346,-0.7,0.0,1.0,257.0,514.0,1.0,0,289.0,1
572,572,0.40728045389094725,0.4,0.0,0.0,340.0,770.0,0.0,1,230.0,1
573,573,-0.015926525820469606,-0.0,1.0,0.0,287.0,776.0,1.0,1,1937.0,0
574,574,-0.33503424822314465,-0.3,0.0,1.0,392.0,994.0,1.0,0,594.0,1
575,575,0.7480868980019263,0.7,0.0,0.0,344.0,677.0,0.0,1,219.0,1
576,576,0.4400795587815175,0.4,1.0,1.0,458.0,968.0,1.0,1,124.0,1
577,577,0.3129695916518437,0.3,0.0,0.0,268.0,646.0,0.0,1,146.0,1
578,578,0.16021154676887994,0.2,0.0,0.0,280.0,676.0,0.0,1,414.0,1
579,579,0.48129029765551745,0.5,1.0,1.0,365.0,870.0,1.0,1,195.0,1
580,580,0.3131942991033373,0.3,0.0,0.0,469.0,703.0,0.0,1,298.0,1
581,581,-0.7794664122081889,-0.8,1.0,0.0,316.0,888.0,0.0,0,136.0,1
582,582,-0.5542691329481509,-0.6,1.0,0.0,447.0,939.0,1.0,1,-56.0,0
583,583,-0.07405362314419262,-0.1,1.0,0.0,481.0,541.0,0.0,0,758.0,1
584,584,0.46270317557740526,0.5,0.0,0.0,465.0,951.0,0.0,1,84.0,1
585,585,-0.027628137773169636,-0.0,1.0,0.0,376.0,532.0,0.0,0,1072.0,1
586,586,0.527083735284083,0.5,0.0,0.0,289.0,619.0,0.0,1,262.0,1
587,587,0.48691966964875777,0.5,0.0,0.0,301.0,902.0,0.0,1,177.0,1
588,588,0.4036587353894986,0.4,1.0,1.0,430.0,851.0,1.0,1,219.0,1
589,589,-0.469051919856857,-0.5,1.0,0.0,312.0,671.0,0.0,0,427.0,1
590,590,0.6387329912241669,0.6,0.0,0.0,267.0,979.0,0.0,1,134.0,1
591,591,-0.8907803466998052,-0.9,1.0,0.0,362.0,522.0,0.0,0,366.0,1
592,592,0.43426943306355714,0.4,0.0,0.0,405.0,788.0,0.0,1,247.0,1
593,593,0.45236789139107103,0.5,0.0,0.0,411.0,896.0,0.0,1,153.0,1
594,594,0.7698377706944451,0.8,0.0,0.0,493.0,625.0,0.0,1,302.0,1
595,595,0.6272422589959387,0.6,0.0,0.0,481.0,958.0,0.0,1,201.0,1
596,596,-0.1130860946936294,-0.1,1.0,0.0,293.0,907.0,0.0,0,240.0,1
597,597,0.3563934837176125,0.4,0.0,0.0,266.0,544.0,0.0,1,190.0,1
598,598,0.5691435038052498,0.6,0.0,0.0,273.0,812.0,0.0,1,255.0,1
599,599,0.46863850141218466,0.5,1.0,1.0,386.0,726.0,1.0,1,198.0,1
600,600,-0.7781072982371462,-0.8,1.0,0.0,286.0,577.0,0.0,0,237.0,1
601,601,-0.15051202274970277,-0.2,1.0,0.0,390.0,670.0,0.0,0,780.0,1
602,602,-0.3566805122365929,-0.4,1.0,0.0,403.0,980.0,0.0,0,97.0,1
603,603,0.5287965143253269,0.5,0.0,0.0,330.0,833.0,0.0,1,157.0,1
604,604,0.041427871036602615,0.0,1.0,1.0,267.0,748.0,1.0,1,1575.0,1
605,605,-0.2670939036678597,-0.3,1.0,0.0,467.0,607.0,0.0,0,406.0,1
606,606,-0.27109642963057634,-0.3,0.0,1.0,470.0,641.0,1.0,0,409.0,1
607,607,-0.3639574177062397,-0.4,1.0,0.0,258.0,564.0,0.0,0,1098.0,1
608,608,-0.48036400650349564,-0.5,1.0,0.0,330.0,695.0,0.0,0,255.0,1
609,609,0.6785242421940477,0.7,1.0,1.0,373.0,693.0,1.0,1,324.0,1
610,610,-0.6839412909580574,-0.7,1.0,0.0,376.0,992.0,0.0,0,212.0,1
611,611,0.49371857960600296,0.5,0.0,0.0,447.0,602.0,0.0,1,281.0,1
612,612,0.45446787974568703,0.5,0.0,0.0,309.0,703.0,0.0,1,268.0,1
613,613,0.8955256872896261,0.9,0.0,0.0,341.0,785.0,0.0,1,264.0,1
614,614,0.5767144521549475,0.6,1.0,1.0,361.0,580.0,1.0,1,229.0,1
615,615,-0.8273351026747573,-0.8,1.0,0.0,495.0,718.0,0.0,0,107.0,1
616,616,0.49335914829938876,0.5,0.0,0.0,407.0,707.0,0.0,1,186.0,1
617,617,-0.8742513276535783,-0.9,1.0,0.0,402.0,547.0,0.0,0,151.0,1
618,618,0.3630719562005834,0.4,0.0,0.0,373.0,816.0,0.0,1,211.0,1
619,619,-0.3163311344079348,-0.3,0.0,1.0,413.0,884.0,1.0,0,143.0,1
620,620,-0.8486024376190534,-0.8,0.0,1.0,425.0,971.0,1.0,0,74.0,1
621,621,-0.46140152110969873,-0.5,1.0,0.0,471.0,938.0,0.0,0,211.0,1
622,622,-0.6819070560149841,-0.7,0.0,1.0,398.0,907.0,1.0,0,165.0,1
623,623,0.1988650600140568,0.2,0.0,0.0,251.0,636.0,0.0,1,323.0,1
624,624,-0.42431331582358567,-0.4,0.0,1.0,320.0,969.0,1.0,0,221.0,1
625,625,-0.48702212447616194,-0.5,0.0,1.0,286.0,947.0,1.0,0,137.0,1
626,626,0.1622171276578631,0.2,0.0,0.0,438.0,786.0,0.0,1,296.0,1
627,627,-0.8297550896046442,-0.8,1.0,0.0,369.0,629.0,0.0,0,292.0,1
628,628,-0.6421100651807714,-0.6,0.0,1.0,484.0,608.0,1.0,0,288.0,1
629,629,0.8247107320712418,0.8,0.0,0.0,294.0,619.0,0.0,1,487.0,1
630,630,0.8782462204793186,0.9,1.0,1.0,260.0,774.0,1.0,1,166.0,1
631,631,-0.02283613656803718,-0.0,0.0,1.0,307.0,946.0,0.0,1,247.0,0
632,632,-0.7044450532735794,-0.7,1.0,0.0,446.0,698.0,0.0,0,256.0,1
633,633,0.7853342907109105,0.8,1.0,1.0,383.0,753.0,1.0,1,284.0,1
634,634,0.148397040478789,0.1,0.0,0.0,317.0,693.0,0.0,1,350.0,1
635,635,-0.19446452535585257,-0.2,1.0,0.0,415.0,752.0,0.0,0,1203.0,1
636,636,0.18119033026783737,0.2,0.0,0.0,445.0,597.0,0.0,1,228.0,1
637,637,0.7947642101682563,0.8,1.0,1.0,492.0,521.0,1.0,1,257.0,1
638,638,-0.43075298047995403,-0.4,1.0,0.0,435.0,914.0,0.0,0,51.0,1
639,639,-0.18504336362305152,-0.2,1.0,0.0,287.0,615.0,0.0,0,518.0,1
640,640,-0.06889613711974807,-0.1,0.0,1.0,345.0,543.0,1.0,0,572.0,1
641,641,0.855389792456012,0.9,0.0,0.0,459.0,500.0,0.0,1,411.0,1
642,642,0.12597976027165847,0.1,1.0,1.0,471.0,632.0,1.0,1,357.0,1
643,643,0.8798587298520829,0.9,1.0,1.0,328.0,551.0,1.0,1,221.0,1
644,644,-0.6793458899782776,-0.7,1.0,0.0,334.0,678.0,0.0,0,158.0,1
645,645,0.7049393805879604,0.7,0.0,0.0,443.0,808.0,0.0,1,489.0,1
646,646,-0.017274764028305856,-0.0,0.0,1.0,284.0,849.0,1.0,0,1867.0,1
647,647,0.7346320636851177,0.7,0.0,0.0,312.0,503.0,0.0,1,305.0,1
648,648,-0.8750431317401661,-0.9,1.0,0.0,426.0,767.0,0.0,0,137.0,1
649,649,-0.013256588329253471,-0.0,1.0,0.0,337.0,813.0,1.0,1,30.0,0
650,650,0.5335264163312922,0.5,1.0,1.0,359.0,529.0,1.0,1,332.0,1
651,651,-0.462436639695665,-0.5,0.0,1.0,374.0,556.0,1.0,0,290.0,1
652,652,-0.15512157053824627,-0.2,1.0,0.0,318.0,809.0,0.0,0,293.0,1
653,653,-0.31585869089526153,-0.3,1.0,0.0,348.0,704.0,0.0,0,238.0,1
654,654,0.03044851889123401,0.0,1.0,1.0,456.0,864.0,1.0,1,1230.0,1
655,655,0.4009630458099863,0.4,0.0,0.0,318.0,821.0,0.0,1,231.0,1
656,656,0.009842189753314634,0.0,0.0,0.0,406.0,702.0,0.0,1,1892.0,1
657,657,0.09613421777129527,0.1,1.0,1.0,429.0,648.0,1.0,1,453.0,1
658,658,-0.8586529437637105,-0.9,1.0,0.0,463.0,850.0,0.0,0,197.0,1
659,659,-0.36556931465968256,-0.4,1.0,0.0,261.0,635.0,0.0,0,224.0,1
660,660,-0.5655166015657744,-0.6,1.0,0.0,379.0,992.0,0.0,0,109.0,1
661,661,0.6394332842493632,0.6,0.0,0.0,290.0,625.0,0.0,1,145.0,1
662,662,-0.8664883927419001,-0.9,1.0,0.0,381.0,829.0,0.0,0,480.0,1
663,663,0.5504919672934626,0.6,0.0,0.0,282.0,583.0,0.0,1,435.0,1
664,664,0.5803663791163104,0.6,1.0,1.0,367.0,652.0,1.0,1,161.0,1
665,665,0.14056088752767704,0.1,0.0,0.0,298.0,560.0,0.0,1,632.0,1
666,666,0.03965483403429082,0.0,0.0,0.0,487.0,589.0,0.0,1,1004.0,1
667,667,0.5703101891932983,0.6,1.0,1.0,250.0,758.0,1.0,1,222.0,1
668,668,-0.6775083147351674,-0.7,0.0,1.0,320.0,934.0,1.0,0,116.0,1
669,669,0.1055539588327018,0.1,0.0,0.0,360.0,748.0,0.0,1,402.0,1
670,670,-0.37854871138510837,-0.4,0.0,1.0,447.0,923.0,1.0,0,160.0,1
671,671,-0.026228312346926907,-0.0,1.0,0.0,354.0,937.0,0.0,0,679.0,1
672,672,-0.6451918272238624,-0.6,1.0,0.0,263.0,910.0,0.0,0,727.0,1
673,673,0.892823829115096,0.9,1.0,1.0,270.0,738.0,1.0,1,232.0,1
674,674,0.14066207693845334,0.1,0.0,0.0,471.0,605.0,0.0,1,634.0,1
675,675,0.36746815095376795,0.4,0.0,0.0,354.0,618.0,0.0,1,378.0,1
676,676,0.5279932839087439,0.5,0.0,0.0,339.0,918.0,0.0,1,133.0,1
677,677,-0.6897102162848363,-0.7,0.0,1.0,280.0,834.0,1.0,0,296.0,1
678,678,-0.7256678997218082,-0.7,0.0,1.0,300.0,625.0,1.0,0,235.0,1
679,679,-0.6288202821240245,-0.6,1.0,0.0,469.0,740.0,0.0,0,341.0,1
680,680,0.15993613154524822,0.2,1.0,1.0,496.0,869.0,1.0,1,115.0,1
681,681,-0.19109473390256027,-0.2,1.0,0.0,499.0,983.0,0.0,0,298.0,1
682,682,0.49235990654297257,0.5,1.0,1.0,409.0,659.0,1.0,1,262.0,1
683,683,-0.8430288579610209,-0.8,0.0,1.0,432.0,647.0,1.0,0,131.0,1
684,684,-0.690254625490743,-0.7,0.0,1.0,284.0,623.0,1.0,0,313.0,1
685,685,0.631822117240533,0.6,1.0,1.0,344.0,749.0,1.0,1,137.0,1
686,686,-0.43032626329718426,-0.4,0.0,1.0,414.0,661.0,1.0,0,275.0,1
687,687,-0.4657613210824244,-0.5,1.0,0.0,321.0,640.0,0.0,0,249.0,1
688,688,0.7611767257717886,0.8,1.0,1.0,377.0,772.0,1.0,1,221.0,1
689,689,0.6456336076933719,0.6,0.0,0.0,416.0,873.0,0.0,1,141.0,1
690,690,0.24010269426516528,0.2,0.0,0.0,352.0,927.0,0.0,1,551.0,1
691,691,0.8080991688230353,0.8,1.0,1.0,421.0,890.0,1.0,1,149.0,1
692,692,0.5324016519407374,0.5,1.0,1.0,251.0,967.0,1.0,1,102.0,1
693,693,0.30170031368908246,0.3,0.0,0.0,280.0,504.0,0.0,1,406.0,1
694,694,0.02197636597906172,0.0,1.0,1.0,478.0,695.0,1.0,1,687.0,1
695,695,0.4908261196985947,0.5,0.0,0.0,308.0,757.0,0.0,1,185.0,1
696,696,0.7787988803487896,0.8,1.0,1.0,269.0,568.0,1.0,1,243.0,1
697,697,0.006341672769025641,0.0,0.0,0.0,297.0,821.0,1.0,0,792.0,0
698,698,-0.5893712407246252,-0.6,0.0,1.0,334.0,557.0,1.0,0,179.0,1
699,699,-0.4959985340610338,-0.5,0.0,1.0,413.0,764.0,1.0,0,153.0,1
700,700,0.3049011798991149,0.3,1.0,1.0,319.0,958.0,1.0,1,333.0,1
701,701,-0.2773542550971295,-0.3,0.0,1.0,482.0,674.0,1.0,0,344.0,1
702,702,-0.3908905210244724,-0.4,1.0,0.0,286.0,559.0,0.0,0,275.0,1
703,703,-0.07553632933897758,-0.1,0.0,1.0,332.0,970.0,1.0,0,768.0,1
704,704,0.20362001543161312,0.2,0.0,0.0,455.0,941.0,0.0,1,324.0,1
705,705,0.8161527484031942,0.8,1.0,1.0,266.0,590.0,1.0,1,174.0,1
706,706,0.26453915259649496,0.3,0.0,0.0,441.0,761.0,0.0,1,198.0,1
707,707,-0.7055528968155583,-0.7,1.0,0.0,397.0,800.0,0.0,0,713.0,1
708,708,-0.1179821114815196,-0.1,1.0,0.0,389.0,505.0,0.0,0,536.0,1
709,709,-0.226713899427626,-0.2,1.0,0.0,416.0,650.0,0.0,0,364.0,1
710,710,0.5920000180799186,0.6,0.0,0.0,435.0,927.0,0.0,1,198.0,1
711,711,0.11026395561789581,0.1,1.0,1.0,466.0,527.0,1.0,1,467.0,1
712,712,0.2017419501161487,0.2,1.0,1.0,417.0,695.0,1.0,1,418.0,1
713,713,0.5528593902180682,0.6,0.0,0.0,267.0,900.0,0.0,1,163.0,1
714,714,0.5209108066393969,0.5,1.0,1.0,425.0,713.0,1.0,1,92.0,1
715,715,0.8179250272852371,0.8,0.0,0.0,328.0,659.0,0.0,1,703.0,1
716,716,0.7489363462265767,0.7,0.0,0.0,474.0,929.0,0.0,1,117.0,1
717,717,0.44195539606203516,0.4,1.0,1.0,289.0,609.0,1.0,1,202.0,1
718,718,0.8498968739284473,0.8,1.0,1.0,431.0,889.0,1.0,1,120.0,1
719,719,-0.6350318638191002,-0.6,1.0,0.0,273.0,813.0,0.0,0,764.0,1
720,720,-0.6540585267281256,-0.7,1.0,0.0,427.0,994.0,0.0,0,119.0,1
721,721,0.7766112443258552,0.8,1.0,1.0,288.0,548.0,1.0,1,214.0,1
722,722,-0.07293479475858156,-0.1,1.0,0.0,375.0,730.0,1.0,1,1895.0,0
723,723,0.31892754062645634,0.3,1.0,1.0,281.0,636.0,1.0,1,303.0,1
724,724,0.09493363151501066,0.1,1.0,1.0,414.0,738.0,1.0,1,308.0,1
725,725,-0.5306938356393076,-0.5,1.0,0.0,292.0,760.0,0.0,0,278.0,1
726,726,0.18749650176641286,0.2,1.0,1.0,281.0,587.0,1.0,1,282.0,1
727,727,-0.27361563683932166,-0.3,0.0,1.0,469.0,690.0,1.0,0,251.0,1
728,728,0.16687738439075728,0.2,1.0,1.0,318.0,570.0,1.0,1,492.0,1
729,729,-0.14418108104740868,-0.1,0.0,1.0,429.0,805.0,1.0,0,456.0,1
730,730,0.6408429400286414,0.6,1.0,1.0,428.0,955.0,1.0,1,87.0,1
731,731,0.1277038108589067,0.1,1.0,1.0,331.0,597.0,1.0,1,372.0,1
732,732,0.22059857850857212,0.2,0.0,0.0,383.0,524.0,0.0,1,313.0,1
733,733,-0.5403298412095925,-0.5,1.0,0.0,440.0,805.0,0.0,0,305.0,1
734,734,-0.6010344931996427,-0.6,0.0,1.0,279.0,688.0,1.0,0,263.0,1
735,735,-0.12192446006991531,-0.1,1.0,0.0,255.0,553.0,0.0,0,992.0,1
736,736,0.7246481145098623,0.7,0.0,0.0,375.0,588.0,0.0,1,887.0,1
737,737,-0.23437274931927032,-0.2,1.0,0.0,433.0,863.0,0.0,0,184.0,1
738,738,-0.4062254368795801,-0.4,0.0,1.0,357.0,660.0,1.0,0,203.0,1
739,739,0.12657176693119576,0.1,1.0,1.0,286.0,815.0,1.0,1,409.0,1
740,740,0.019178654048326194,0.0,0.0,0.0,372.0,860.0,1.0,0,1768.0,0
741,741,0.19047975157834574,0.2,0.0,0.0,440.0,866.0,0.0,1,474.0,1
742,742,0.7128894345094458,0.7,0.0,0.0,281.0,968.0,0.0,1,211.0,1
743,743,0.5287996543606525,0.5,1.0,1.0,377.0,878.0,1.0,1,75.0,1
744,744,-0.03135245908335793,-0.0,1.0,0.0,485.0,592.0,0.0,0,1543.0,1
745,745,-0.07712640665792025,-0.1,1.0,0.0,295.0,943.0,0.0,0,422.0,1
746,746,0.11119727180107153,0.1,0.0,0.0,329.0,798.0,0.0,1,643.0,1
747,747,-0.6245586132808907,-0.6,0.0,1.0,392.0,502.0,1.0,0,366.0,1
748,748,0.26258332798277306,0.3,0.0,0.0,453.0,720.0,0.0,1,487.0,1
749,749,0.037643623793555236,0.0,0.0,0.0,477.0,780.0,0.0,1,1043.0,1
750,750,-0.05361561303908147,-0.1,0.0,1.0,288.0,632.0,1.0,0,780.0,1
751,751,-0.734086392096204,-0.7,0.0,1.0,254.0,816.0,1.0,0,30.0,1
752,752,0.3065184179176691,0.3,0.0,0.0,357.0,680.0,0.0,1,253.0,1
753,753,-0.0810763793047955,-0.1,0.0,1.0,487.0,960.0,1.0,0,663.0,1
754,754,0.6613923866807035,0.7,0.0,0.0,382.0,807.0,0.0,1,151.0,1
755,755,-0.18900518133047362,-0.2,0.0,1.0,280.0,811.0,1.0,0,379.0,1
756,756,0.05576749525441116,0.1,1.0,1.0,498.0,973.0,1.0,1,279.0,1
757,757,-0.5277559738794659,-0.5,0.0,1.0,475.0,765.0,1.0,0,180.0,1
758,758,-0.19007505093571786,-0.2,0.0,1.0,365.0,553.0,1.0,0,332.0,1
759,759,-0.6623505944307018,-0.7,0.0,1.0,440.0,728.0,1.0,0,312.0,1
760,760,0.1620049091199588,0.2,1.0,1.0,365.0,996.0,1.0,1,269.0,1
761,761,-0.6547548718529494,-0.7,0.0,1.0,363.0,780.0,1.0,0,97.0,1
762,762,-0.1434983413597083,-0.1,1.0,0.0,451.0,910.0,0.0,0,419.0,1
763,763,-0.04654300129689637,-0.0,1.0,0.0,382.0,907.0,0.0,0,1711.0,1
764,764,-0.4209788706009307,-0.4,0.0,1.0,267.0,961.0,1.0,0,212.0,1
765,765,-0.7034682613661221,-0.7,1.0,0.0,370.0,525.0,0.0,0,295.0,1
766,766,0.3853426374884422,0.4,0.0,0.0,339.0,556.0,0.0,1,535.0,1
767,767,-0.6990568207842757,-0.7,1.0,0.0,320.0,965.0,0.0,0,215.0,1
768,768,-0.502998219568636,-0.5,0.0,1.0,364.0,876.0,1.0,0,160.0,1
769,769,-0.3093403380802917,-0.3,1.0,0.0,278.0,884.0,0.0,0,208.0,1
770,770,-0.8827193907880884,-0.9,1.0,0.0,468.0,694.0,0.0,0,578.0,1
771,771,0.6099516203672065,0.6,1.0,1.0,427.0,617.0,1.0,1,166.0,1
772,772,0.85679793022252,0.9,1.0,1.0,312.0,724.0,1.0,1,214.0,1
773,773,0.04555822499869122,0.0,0.0,0.0,442.0,755.0,0.0,1,1653.0,1
774,774,-0.7017267175677616,-0.7,1.0,0.0,412.0,592.0,0.0,0,516.0,1
775,775,-0.806717880945009,-0.8,0.0,1.0,414.0,961.0,1.0,0,85.0,1
776,776,0.07030786488142149,0.1,1.0,1.0,296.0,533.0,1.0,1,451.0,1
777,777,-0.6052842585194613,-0.6,1.0,0.0,418.0,519.0,0.0,0,873.0,1
778,778,0.8856775365323305,0.9,1.0,1.0,290.0,613.0,1.0,1,147.0,1
779,779,-0.5957009684265986,-0.6,0.0,1.0,296.0,977.0,0.0,1,-3.0,0
780,780,-0.6682946995091059,-0.7,1.0,0.0,317.0,825.0,0.0,0,408.0,1
781,781,-0.37158541105418297,-0.4,0.0,1.0,460.0,686.0,1.0,0,144.0,1
782,782,-0.251419005852622,-0.3,1.0,0.0,425.0,514.0,0.0,0,431.0,1
783,783,-0.3318163019607927,-0.3,1.0,0.0,274.0,597.0,0.0,0,349.0,1
784,784,0.11341023850819842,0.1,1.0,1.0,442.0,648.0,1.0,1,340.0,1
785,785,-0.48966718076226223,-0.5,1.0,0.0,387.0,639.0,0.0,0,384.0,1
786,786,-0.5379983835715052,-0.5,1.0,0.0,433.0,597.0,0.0,0,550.0,1
787,787,-0.05165008381506597,-0.1,0.0,1.0,324.0,928.0,1.0,0,1748.0,1
788,788,-0.3352586619833524,-0.3,1.0,0.0,253.0,583.0,0.0,0,1424.0,1
789,789,-0.038824310511307636,-0.0,0.0,1.0,313.0,620.0,1.0,0,847.0,1
790,790,0.2478793224578092,0.2,1.0,1.0,253.0,802.0,1.0,1,245.0,1
791,791,0.8863558028587369,0.9,1.0,1.0,435.0,771.0,1.0,1,104.0,1
792,792,0.12810457507640638,0.1,1.0,1.0,431.0,559.0,1.0,1,410.0,1
793,793,0.10122439245650028,0.1,0.0,0.0,305.0,746.0,0.0,1,199.0,1
794,794,0.09073322641696102,0.1,1.0,1.0,298.0,509.0,1.0,1,653.0,1
795,795,0.27038532217090483,0.3,0.0,0.0,331.0,865.0,0.0,1,284.0,1
796,796,0.4039174507168545,0.4,1.0,1.0,346.0,553.0,1.0,1,301.0,1
797,797,0.363401615938746,0.4,1.0,1.0,499.0,849.0,1.0,1,112.0,1
798,798,-0.5653517220085054,-0.6,1.0,0.0,455.0,884.0,0.0,0,201.0,1
799,799,-0.19106003540192906,-0.2,1.0,0.0,358.0,786.0,0.0,0,346.0,1
800,800,-0.24433521921611523,-0.2,1.0,0.0,396.0,553.0,0.0,0,681.0,1
801,801,0.547764663654552,0.5,1.0,1.0,398.0,929.0,1.0,1,123.0,1
802,802,-0.12485195971184437,-0.1,1.0,0.0,351.0,549.0,0.0,0,770.0,1
803,803,0.8969992299068651,0.9,1.0,1.0,311.0,638.0,1.0,1,241.0,1
804,804,0.5918288008777025,0.6,1.0,1.0,466.0,951.0,1.0,1,213.0,1
805,805,0.23908478079010342,0.2,1.0,1.0,381.0,601.0,1.0,1,418.0,1
806,806,-0.02264704304957499,-0.0,0.0,1.0,485.0,956.0,0.0,1,459.0,0
807,807,-0.4112641517129752,-0.4,0.0,1.0,368.0,571.0,1.0,0,321.0,1
808,808,0.6079312274439125,0.6,1.0,1.0,310.0,623.0,1.0,1,247.0,1
809,809,0.491676865203713,0.5,0.0,0.0,316.0,880.0,0.0,1,244.0,1
810,810,0.29003551814294226,0.3,1.0,1.0,263.0,861.0,1.0,1,276.0,1
811,811,0.7229020756192078,0.7,0.0,0.0,360.0,897.0,0.0,1,193.0,1
812,812,-0.4113056670462859,-0.4,0.0,1.0,293.0,689.0,1.0,0,168.0,1
813,813,-0.7787537373754672,-0.8,0.0,1.0,395.0,710.0,1.0,0,135.0,1
814,814,-0.10983668794679591,-0.1,0.0,1.0,433.0,544.0,1.0,0,573.0,1
815,815,0.5126275385230988,0.5,0.0,0.0,394.0,567.0,0.0,1,259.0,1
816,816,-0.047948517593106366,-0.0,1.0,0.0,346.0,801.0,0.0,0,1853.0,1
817,817,0.28694200171379947,0.3,0.0,0.0,255.0,693.0,0.0,1,272.0,1
818,818,-0.6200674305311082,-0.6,0.0,1.0,279.0,805.0,1.0,0,306.0,1
819,819,-0.20388773172554597,-0.2,1.0,0.0,306.0,799.0,0.0,0,505.0,1
820,820,0.0677622719576847,0.1,0.0,0.0,274.0,924.0,0.0,1,662.0,1
821,821,0.6978911381227139,0.7,0.0,0.0,426.0,620.0,0.0,1,194.0,1
822,822,-0.43750713573583305,-0.4,0.0,1.0,352.0,908.0,1.0,0,200.0,1
823,823,-0.6993981156665421,-0.7,1.0,0.0,389.0,942.0,0.0,0,119.0,1
824,824,-0.8715221569302163,-0.9,1.0,0.0,352.0,988.0,0.0,0,60.0,1
825,825,-0.17902130584665976,-0.2,0.0,1.0,278.0,757.0,1.0,0,285.0,1
826,826,-0.7033918367171161,-0.7,1.0,0.0,413.0,767.0,0.0,0,190.0,1
827,827,0.5003218294375088,0.5,0.0,0.0,266.0,897.0,0.0,1,217.0,1
828,828,0.34012187200268873,0.3,1.0,1.0,295.0,759.0,1.0,1,166.0,1
829,829,0.8022600639117762,0.8,0.0,0.0,450.0,847.0,0.0,1,133.0,1
830,830,0.5545693847741228,0.6,1.0,1.0,344.0,779.0,1.0,1,187.0,1
831,831,0.17638222390290414,0.2,1.0,1.0,410.0,916.0,1.0,1,194.0,1
832,832,-0.5548686026170013,-0.6,0.0,1.0,362.0,891.0,1.0,0,447.0,1
833,833,0.042518549307441256,0.0,1.0,1.0,448.0,636.0,1.0,1,406.0,1
834,834,-0.6006013552115925,-0.6,1.0,0.0,462.0,950.0,0.0,0,148.0,1
835,835,0.15121168236876426,0.2,0.0,0.0,293.0,650.0,0.0,1,647.0,1
836,836,0.7594767836968345,0.8,1.0,1.0,387.0,654.0,1.0,1,219.0,1
837,837,-0.19082980272485972,-0.2,0.0,1.0,466.0,612.0,1.0,0,492.0,1
838,838,0.47043353698715584,0.5,0.0,0.0,381.0,798.0,0.0,1,201.0,1
839,839,-0.009872027656177451,-0.0,0.0,1.0,354.0,691.0,0.0,1,1955.0,0
840,840,-0.7612740146699384,-0.8,0.0,1.0,488.0,690.0,1.0,0,142.0,1
841,841,0.4821185363708519,0.5,1.0,1.0,321.0,979.0,1.0,1,150.0,1
842,842,0.04554573350650315,0.0,1.0,1.0,363.0,788.0,1.0,1,339.0,1
843,843,-0.4858991786635859,-0.5,0.0,1.0,406.0,597.0,1.0,0,327.0,1
844,844,-0.3641773981534181,-0.4,1.0,0.0,306.0,791.0,0.0,0,263.0,1
845,845,-0.5932665077639419,-0.6,1.0,0.0,275.0,735.0,0.0,0,280.0,1
846,846,0.23009423575303523,0.2,1.0,1.0,407.0,615.0,1.0,1,388.0,1
847,847,-0.35423136269189204,-0.4,1.0,0.0,398.0,671.0,0.0,0,351.0,1
848,848,0.69911033785475,0.7,1.0,1.0,402.0,523.0,1.0,1,125.0,1
849,849,-0.5752483660362943,-0.6,1.0,0.0,332.0,785.0,0.0,0,203.0,1
850,850,-0.1789897884889301,-0.2,0.0,1.0,295.0,684.0,1.0,0,361.0,1
851,851,0.15238225659816196,0.2,1.0,1.0,386.0,850.0,1.0,1,644.0,1
852,852,0.15331735129659074,0.2,0.0,0.0,464.0,643.0,0.0,1,363.0,1
853,853,-0.6567754307987662,-0.7,1.0,0.0,364.0,747.0,0.0,0,919.0,1
854,854,0.28852301602312835,0.3,1.0,1.0,304.0,786.0,1.0,1,320.0,1
855,855,0.06312271607445119,0.1,0.0,0.0,327.0,925.0,0.0,1,288.0,1
856,856,0.15379334780481602,0.2,0.0,0.0,290.0,600.0,0.0,1,400.0,1
857,857,0.5105127794397019,0.5,0.0,0.0,426.0,918.0,0.0,1,16.0,1
858,858,-0.7606848523281764,-0.8,1.0,0.0,315.0,828.0,0.0,0,147.0,1
859,859,0.6698971269275108,0.7,1.0,1.0,353.0,855.0,1.0,1,152.0,1
860,860,-0.2123188503795328,-0.2,1.0,0.0,402.0,696.0,0.0,0,242.0,1
861,861,-0.5195853041133518,-0.5,1.0,0.0,426.0,613.0,0.0,0,281.0,1
862,862,0.1828850307170221,0.2,1.0,1.0,356.0,727.0,1.0,1,247.0,1
863,863,0.4037002332639247,0.4,1.0,1.0,346.0,864.0,1.0,1,160.0,1
864,864,-0.0713126045809317,-0.1,1.0,0.0,278.0,596.0,0.0,0,716.0,1
865,865,-0.3245541353622783,-0.3,0.0,1.0,434.0,775.0,1.0,0,321.0,1
866,866,0.8256233494729915,0.8,0.0,0.0,255.0,507.0,0.0,1,558.0,1
867,867,0.8541671395214777,0.9,1.0,1.0,499.0,825.0,1.0,1,116.0,1
868,868,-0.621221100569479,-0.6,1.0,0.0,283.0,544.0,0.0,0,903.0,1
869,869,0.3108070284169203,0.3,0.0,0.0,462.0,527.0,0.0,1,271.0,1
870,870,0.8295544763466857,0.8,1.0,1.0,378.0,926.0,1.0,1,276.0,1
871,871,-0.15435491360402587,-0.2,0.0,1.0,410.0,588.0,1.0,0,402.0,1
872,872,-0.11146536843009047,-0.1,0.0,1.0,326.0,919.0,1.0,0,385.0,1
873,873,-0.542972087017148,-0.5,1.0,0.0,477.0,840.0,0.0,0,373.0,1
874,874,0.16405722463446615,0.2,1.0,1.0,350.0,732.0,1.0,1,338.0,1
875,875,0.7082766732095757,0.7,0.0,0.0,325.0,605.0,0.0,1,290.0,1
876,876,0.11506109125509523,0.1,0.0,0.0,339.0,759.0,0.0,1,302.0,1
877,877,0.36606217512691874,0.4,0.0,0.0,278.0,900.0,0.0,1,82.0,1
878,878,0.2872727096796933,0.3,0.0,0.0,255.0,976.0,0.0,1,199.0,1
879,879,-0.10880930753404638,-0.1,0.0,1.0,455.0,689.0,1.0,0,326.0,1
880,880,-0.43981017922149546,-0.4,0.0,1.0,435.0,629.0,1.0,0,436.0,1
881,881,-0.47405343267011063,-0.5,0.0,1.0,473.0,976.0,1.0,0,161.0,1
882,882,-0.1782495426443621,-0.2,0.0,1.0,261.0,642.0,1.0,0,557.0,1
883,883,0.5371766067084179,0.5,1.0,1.0,394.0,857.0,1.0,1,69.0,1
884,884,0.8166653900867878,0.8,1.0,1.0,256.0,685.0,1.0,1,329.0,1
885,885,-0.8948430691314709,-0.9,0.0,1.0,447.0,648.0,1.0,0,345.0,1
886,886,-0.7948421284734138,-0.8,1.0,0.0,455.0,879.0,0.0,0,136.0,1
887,887,0.3022143486158796,0.3,1.0,1.0,264.0,720.0,1.0,1,366.0,1
888,888,-0.783376393540678,-0.8,0.0,1.0,313.0,967.0,1.0,0,140.0,1
889,889,-0.04705521929045586,-0.0,1.0,0.0,297.0,828.0,0.0,0,965.0,1
890,890,-0.7525909584751331,-0.8,1.0,0.0,360.0,820.0,0.0,0,240.0,1
891,891,0.05121635854321516,0.1,1.0,1.0,450.0,582.0,1.0,1,668.0,1
892,892,0.3248426911161785,0.3,0.0,0.0,454.0,942.0,0.0,1,294.0,1
893,893,0.6928145288496365,0.7,0.0,0.0,479.0,966.0,0.0,1,65.0,1
894,894,0.6765768792938073,0.7,1.0,1.0,368.0,989.0,1.0,1,93.0,1
895,895,0.11909284720797675,0.1,1.0,1.0,351.0,600.0,1.0,1,569.0,1
896,896,-0.7834993106923338,-0.8,1.0,0.0,368.0,583.0,0.0,0,679.0,1
897,897,-0.2356949251762811,-0.2,1.0,0.0,343.0,707.0,0.0,0,290.0,1
898,898,0.27463157844779873,0.3,0.0,0.0,355.0,541.0,0.0,1,424.0,1
899,899,0.32963015334162316,0.3,1.0,1.0,373.0,733.0,1.0,1,124.0,1
900,900,0.8951424629332002,0.9,0.0,0.0,428.0,548.0,0.0,1,574.0,1
901,901,0.032817402179657784,0.0,0.0,0.0,250.0,723.0,0.0,1,2027.0,1
902,902,0.7052339901534087,0.7,0.0,0.0,255.0,699.0,0.0,1,546.0,1
903,903,0.2296209750120689,0.2,0.0,0.0,450.0,816.0,0.0,1,184.0,1
904,904,0.48965185564032854,0.5,1.0,1.0,324.0,701.0,1.0,1,175.0,1
905,905,0.7591092589308596,0.8,1.0,1.0,424.0,988.0,1.0,1,118.0,1
906,906,-0.17222967531861744,-0.2,1.0,0.0,385.0,952.0,0.0,0,403.0,1
907,907,-0.26078322022242706,-0.3,0.0,1.0,416.0,852.0,1.0,0,182.0,1
908,908,0.228928425397957,0.2,0.0,0.0,384.0,520.0,0.0,1,396.0,1
909,909,-0.360759180613045,-0.4,0.0,1.0,382.0,847.0,1.0,0,131.0,1
910,910,-0.4402621509935648,-0.4,0.0,1.0,294.0,948.0,1.0,0,208.0,1
911,911,-0.040952914323353684,-0.0,1.0,0.0,449.0,828.0,0.0,0,603.0,1
912,912,-0.19124019433469241,-0.2,1.0,0.0,251.0,965.0,0.0,0,264.0,1
913,913,0.2655456338824197,0.3,1.0,1.0,445.0,745.0,1.0,1,140.0,1
914,914,-0.03505936954175526,-0.0,1.0,0.0,435.0,992.0,1.0,1,63.0,0
915,915,0.27424531706309063,0.3,1.0,1.0,474.0,803.0,1.0,1,263.0,1
916,916,0.08745239529845372,0.1,1.0,1.0,369.0,523.0,1.0,1,398.0,1
917,917,-0.41026608984436824,-0.4,1.0,0.0,441.0,818.0,0.0,0,551.0,1
918,918,0.5196538295890324,0.5,1.0,1.0,357.0,557.0,1.0,1,196.0,1
919,919,-0.547332979178987,-0.5,1.0,0.0,415.0,614.0,0.0,0,271.0,1
920,920,-0.2858253443408463,-0.3,1.0,0.0,334.0,998.0,0.0,0,258.0,1
921,921,-0.3528749849547568,-0.4,0.0,1.0,353.0,695.0,1.0,0,272.0,1
922,922,0.5334064310032066,0.5,1.0,1.0,289.0,503.0,1.0,1,258.0,1
923,923,-0.5495059947780652,-0.5,0.0,1.0,305.0,753.0,1.0,0,172.0,1
924,924,-0.11622099628754701,-0.1,1.0,0.0,477.0,914.0,0.0,0,399.0,1
925,925,-0.7725912563245493,-0.8,1.0,0.0,348.0,574.0,0.0,0,298.0,1
926,926,0.8800655606078259,0.9,0.0,0.0,439.0,551.0,0.0,1,480.0,1
927,927,-0.45790288496439796,-0.5,0.0,1.0,338.0,825.0,1.0,0,267.0,1
928,928,-0.4478720665682602,-0.4,1.0,0.0,293.0,808.0,0.0,0,789.0,1
929,929,0.5790798676564092,0.6,0.0,0.0,328.0,549.0,0.0,1,363.0,1
930,930,0.8226204766951587,0.8,1.0,1.0,327.0,741.0,1.0,1,152.0,1
931,931,-0.6646775596799751,-0.7,0.0,1.0,347.0,956.0,1.0,0,287.0,1
932,932,0.6059294586713982,0.6,1.0,1.0,423.0,772.0,1.0,1,265.0,1
933,933,0.21083678621344448,0.2,0.0,0.0,337.0,951.0,0.0,1,62.0,1
934,934,-0.22267230765158774,-0.2,1.0,0.0,265.0,897.0,0.0,0,288.0,1
935,935,0.16189014552881142,0.2,1.0,1.0,461.0,628.0,1.0,1,471.0,1
936,936,0.2469340760101716,0.2,0.0,0.0,290.0,965.0,0.0,1,205.0,1
937,937,0.8100186551875567,0.8,1.0,1.0,273.0,598.0,1.0,1,199.0,1
938,938,-0.47934105781925057,-0.5,1.0,0.0,305.0,703.0,0.0,0,282.0,1
939,939,-0.5110345416801643,-0.5,0.0,1.0,356.0,720.0,1.0,0,214.0,1
940,940,-0.03743580502886845,-0.0,0.0,1.0,422.0,923.0,1.0,0,765.0,1
941,941,-0.14720567923833716,-0.1,0.0,1.0,334.0,664.0,1.0,0,602.0,1
942,942,-0.5864380820020152,-0.6,1.0,0.0,294.0,745.0,0.0,0,271.0,1
943,943,0.6646851180607035,0.7,1.0,1.0,393.0,804.0,1.0,1,143.0,1
944,944,0.41054636617031914,0.4,1.0,1.0,334.0,738.0,1.0,1,228.0,1
945,945,-0.2267238780557932,-0.2,0.0,1.0,397.0,842.0,1.0,0,361.0,1
946,946,0.5938934414029206,0.6,0.0,0.0,390.0,527.0,0.0,1,553.0,1
947,947,-0.8977203273983679,-0.9,0.0,1.0,374.0,968.0,1.0,0,48.0,1
948,948,-0.8839504629236187,-0.9,0.0,1.0,352.0,693.0,1.0,0,215.0,1
949,949,0.3010727417747113,0.3,0.0,0.0,293.0,636.0,0.0,1,281.0,1
950,950,-0.5777705915189395,-0.6,1.0,0.0,313.0,671.0,0.0,0,326.0,1
951,951,0.1265771226946394,0.1,1.0,1.0,356.0,875.0,1.0,1,129.0,1
952,952,-0.6896780674298237,-0.7,0.0,1.0,346.0,789.0,1.0,0,175.0,1
953,953,-0.7208165784616102,-0.7,1.0,0.0,499.0,858.0,0.0,0,143.0,1
954,954,0.8602766370669847,0.9,1.0,1.0,277.0,862.0,1.0,1,101.0,1
955,955,0.6306526764024861,0.6,0.0,0.0,429.0,816.0,0.0,1,185.0,1
956,956,-0.21981835084061174,-0.2,1.0,0.0,395.0,637.0,0.0,0,568.0,1
957,957,-0.7441378472788506,-0.7,1.0,0.0,418.0,757.0,0.0,0,205.0,1
958,958,0.11104370495732307,0.1,0.0,0.0,351.0,900.0,0.0,1,99.0,1
959,959,-0.24730938622996512,-0.2,1.0,0.0,473.0,913.0,0.0,0,414.0,1
960,960,-0.8664305940326212,-0.9,0.0,1.0,265.0,553.0,1.0,0,222.0,1
961,961,0.1900476072078282,0.2,1.0,1.0,267.0,990.0,1.0,1,473.0,1
962,962,0.6315486737704447,0.6,1.0,1.0,338.0,765.0,1.0,1,217.0,1
963,963,-0.6740292933963299,-0.7,1.0,0.0,460.0,743.0,0.0,0,227.0,1
964,964,0.8754997365708365,0.9,1.0,1.0,406.0,541.0,1.0,1,203.0,1
965,965,0.3330447849759647,0.3,0.0,0.0,424.0,523.0,0.0,1,1073.0,1
966,966,0.8364446859474842,0.8,0.0,0.0,402.0,808.0,0.0,1,170.0,1
967,967,-0.7553303388320824,-0.8,1.0,0.0,379.0,544.0,0.0,0,137.0,1
968,968,-0.46005047733699406,-0.5,0.0,1.0,301.0,585.0,1.0,0,274.0,1
969,969,-0.20607589879648858,-0.2,0.0,1.0,433.0,552.0,1.0,0,385.0,1
970,970,0.12949174051383283,0.1,1.0,1.0,261.0,518.0,1.0,1,591.0,1
971,971,-0.20209547714997833,-0.2,0.0,1.0,402.0,559.0,1.0,0,669.0,1
972,972,-0.7915667231981023,-0.8,0.0,1.0,301.0,637.0,1.0,0,432.0,1
973,973,0.5167996720543832,0.5,0.0,0.0,411.0,764.0,0.0,1,175.0,1
974,974,0.8347034705889204,0.8,1.0,1.0,323.0,953.0,1.0,1,294.0,1
975,975,-0.07588494028090331,-0.1,0.0,1.0,363.0,682.0,1.0,0,335.0,1
976,976,-0.13485207498122542,-0.1,1.0,0.0,273.0,755.0,0.0,0,482.0,1
977,977,-0.12690155671156866,-0.1,1.0,0.0,308.0,598.0,0.0,0,554.0,1
978,978,0.2739121243170456,0.3,0.0,0.0,370.0,580.0,0.0,1,270.0,1
979,979,-0.2095495566801865,-0.2,0.0,1.0,328.0,687.0,1.0,0,585.0,1
980,980,0.8399739377943839,0.8,1.0,1.0,427.0,896.0,1.0,1,147.0,1
981,981,0.12270290679935669,0.1,1.0,1.0,441.0,971.0,1.0,1,378.0,1
982,982,-0.43954922583642525,-0.4,0.0,1.0,435.0,570.0,1.0,0,195.0,1
983,983,-0.037625280296703756,-0.0,1.0,0.0,446.0,562.0,0.0,0,682.0,1
984,984,-0.4273693641853563,-0.4,0.0,1.0,285.0,874.0,1.0,0,201.0,1
985,985,-0.7738796791483706,-0.8,0.0,1.0,323.0,968.0,0.0,1,-51.0,0
986,986,0.7777472359913314,0.8,1.0,1.0,274.0,588.0,1.0,1,208.0,1
987,987,0.8908097290778928,0.9,0.0,0.0,468.0,565.0,0.0,1,637.0,1
988,988,0.7754022204488603,0.8,0.0,0.0,488.0,750.0,0.0,1,262.0,1
989,989,0.34064338353652557,0.3,0.0,0.0,251.0,557.0,0.0,1,472.0,1
990,990,-0.13831609218824614,-0.1,0.0,1.0,304.0,570.0,1.0,0,446.0,1
991,991,0.1081833131817741,0.1,0.0,0.0,438.0,863.0,0.0,1,239.0,1
992,992,-0.8624437307130397,-0.9,0.0,1.0,454.0,590.0,1.0,0,196.0,1
993,993,-0.14357758669152454,-0.1,0.0,1.0,319.0,800.0,1.0,0,631.0,1
994,994,-0.8224647048633803,-0.8,0.0,1.0,410.0,946.0,1.0,0,54.0,1
995,995,0.224085078092635,0.2,1.0,1.0,436.0,769.0,1.0,1,255.0,1
996,996,0.8680523003988055,0.9,1.0,1.0,284.0,534.0,1.0,1,332.0,1
997,997,0.28878433991983166,0.3,0.0,0.0,425.0,771.0,0.0,1,284.0,1
998,998,-0.6276484567668623,-0.6,0.0,1.0,256.0,542.0,1.0,0,352.0,1
999,999,-0.7850149457311811,-0.8,1.0,0.0,429.0,791.0,0.0,0,420.0,1
1000,1000,-0.571517742383954,-0.6,1.0,0.0,305.0,511.0,0.0,0,854.0,1
1001,1001,-0.49796747798870733,-0.5,1.0,0.0,459.0,630.0,0.0,0,351.0,1
1002,1002,-0.35166923134080286,-0.4,0.0,1.0,392.0,504.0,1.0,0,354.0,1
1003,1003,0.832540256769989,0.8,0.0,0.0,442.0,646.0,0.0,1,182.0,1
1004,1004,0.8208301096610374,0.8,1.0,1.0,477.0,515.0,1.0,1,88.0,1
1005,1005,0.5326954646453675,0.5,0.0,0.0,443.0,810.0,0.0,1,207.0,1
1006,1006,0.2647960760396647,0.3,0.0,0.0,438.0,516.0,0.0,1,336.0,1
1007,1007,0.07893122588989465,0.1,1.0,1.0,375.0,853.0,1.0,1,422.0,1
1008,1008,-0.03070299120598219,-0.0,0.0,1.0,477.0,555.0,1.0,0,638.0,1
1009,1009,-0.07868873181184699,-0.1,1.0,0.0,376.0,703.0,0.0,0,931.0,1
1010,1010,0.48127148642676476,0.5,0.0,0.0,448.0,621.0,0.0,1,171.0,1
1011,1011,-0.5167203547597381,-0.5,0.0,1.0,277.0,903.0,1.0,0,350.0,1
1012,1012,0.195218616361173,0.2,0.0,0.0,321.0,703.0,0.0,1,586.0,1
1013,1013,0.7758738204037322,0.8,1.0,1.0,287.0,721.0,1.0,1,172.0,1
1014,1014,-0.034576608262749664,-0.0,0.0,1.0,411.0,770.0,1.0,0,1539.0,1
1015,1015,0.5728726316984362,0.6,1.0,1.0,306.0,932.0,1.0,1,112.0,1
1016,1016,-0.5128899981633691,-0.5,0.0,1.0,342.0,842.0,1.0,0,146.0,1
1017,1017,0.16390818522056916,0.2,1.0,1.0,326.0,795.0,1.0,1,389.0,1
1018,1018,-0.8981412513666885,-0.9,0.0,1.0,348.0,719.0,1.0,0,33.0,1
1019,1019,-0.8451103889995857,-0.8,0.0,1.0,353.0,814.0,1.0,0,213.0,1
1020,1020,0.12926066859312002,0.1,0.0,0.0,270.0,938.0,0.0,1,32.0,1
1021,1021,0.026562455754314263,0.0,1.0,1.0,254.0,783.0,1.0,1,373.0,1
1022,1022,0.3424451920621342,0.3,0.0,0.0,269.0,801.0,0.0,1,300.0,1
1023,1023,0.4950392781815248,0.5,1.0,1.0,420.0,931.0,1.0,1,139.0,1
1024,1024,0.5459213408971592,0.5,0.0,0.0,269.0,809.0,0.0,1,172.0,1
1025,1025,0.4145316471772419,0.4,1.0,1.0,336.0,800.0,1.0,1,154.0,1
1026,1026,-0.7706637041906,-0.8,1.0,0.0,265.0,610.0,0.0,0,305.0,1
1027,1027,-0.4843669548619696,-0.5,1.0,0.0,308.0,639.0,0.0,0,313.0,1
1028,1028,-0.7890385806249788,-0.8,1.0,0.0,419.0,919.0,0.0,0,62.0,1
1029,1029,-0.8801713129236822,-0.9,1.0,0.0,320.0,504.0,0.0,0,236.0,1
1030,1030,0.7487345315496526,0.7,0.0,0.0,415.0,807.0,0.0,1,108.0,1
1031,1031,0.6795455186981604,0.7,1.0,1.0,433.0,779.0,1.0,1,128.0,1
1032,1032,0.026975349306216034,0.0,0.0,0.0,394.0,818.0,0.0,1,358.0,1
1033,1033,-0.002957131554610748,-0.0,1.0,0.0,456.0,710.0,1.0,1,1804.0,0
1034,1034,-0.3924009692173881,-0.4,0.0,1.0,254.0,752.0,1.0,0,204.0,1
1035,1035,0.6789526927133992,0.7,1.0,1.0,463.0,872.0,1.0,1,105.0,1
1036,1036,0.8642192210535385,0.9,1.0,1.0,432.0,696.0,1.0,1,132.0,1
1037,1037,-0.006101563271788457,-0.0,1.0,0.0,400.0,615.0,1.0,1,935.0,0
1038,1038,-0.29790769539427775,-0.3,0.0,1.0,377.0,870.0,1.0,0,143.0,1
1039,1039,-0.8219579509151358,-0.8,0.0,1.0,309.0,752.0,1.0,0,429.0,1
1040,1040,0.6981813811262411,0.7,0.0,0.0,314.0,744.0,0.0,1,142.0,1
1041,1041,0.1444108458793819,0.1,1.0,1.0,457.0,858.0,1.0,1,135.0,1
1042,1042,-0.09178803777977351,-0.1,1.0,0.0,271.0,630.0,0.0,0,1549.0,1
1043,1043,0.5870251870613289,0.6,0.0,0.0,278.0,591.0,0.0,1,261.0,1
1044,1044,0.37238103902261555,0.4,0.0,0.0,329.0,648.0,0.0,1,353.0,1
1045,1045,-0.8879384804506644,-0.9,0.0,1.0,387.0,972.0,1.0,0,131.0,1
1046,1046,-0.09204463377581107,-0.1,0.0,1.0,375.0,675.0,1.0,0,530.0,1
1047,1047,0.5722754428496785,0.6,1.0,1.0,387.0,874.0,1.0,1,219.0,1
1048,1048,0.45134282593080466,0.5,1.0,1.0,303.0,841.0,1.0,1,186.0,1
1049,1049,-0.8138387245760701,-0.8,0.0,1.0,412.0,981.0,1.0,0,87.0,1
1050,1050,-0.02959277848507058,-0.0,1.0,0.0,400.0,989.0,0.0,0,1221.0,1
1051,1051,-0.6512382891890701,-0.7,0.0,1.0,397.0,856.0,1.0,0,407.0,1
1052,1052,-0.5071132824182469,-0.5,1.0,0.0,275.0,764.0,0.0,0,211.0,1
1053,1053,-0.8702192351736767,-0.9,0.0,1.0,390.0,953.0,1.0,0,327.0,1
1054,1054,0.07892526534806799,0.1,1.0,1.0,308.0,722.0,1.0,1,330.0,1
1055,1055,0.7537658702510005,0.8,1.0,1.0,403.0,684.0,1.0,1,73.0,1
1056,1056,0.5407184043629959,0.5,1.0,1.0,405.0,598.0,1.0,1,267.0,1
1057,1057,-0.3332895385615675,-0.3,0.0,1.0,381.0,687.0,1.0,0,272.0,1
1058,1058,-0.2391944171817032,-0.2,1.0,0.0,373.0,827.0,0.0,0,290.0,1
1059,1059,0.8101957045572884,0.8,1.0,1.0,422.0,715.0,1.0,1,43.0,1
1060,1060,-0.1580422052962166,-0.2,1.0,0.0,457.0,613.0,0.0,0,420.0,1
1061,1061,0.01895419459333847,0.0,0.0,0.0,361.0,817.0,0.0,1,622.0,1
1062,1062,-0.4094822706982064,-0.4,1.0,0.0,371.0,650.0,0.0,0,279.0,1
1063,1063,-0.6878270461403461,-0.7,0.0,1.0,431.0,666.0,1.0,0,403.0,1
1064,1064,-0.5314297617251866,-0.5,0.0,1.0,267.0,994.0,1.0,0,189.0,1
1065,1065,0.37585196432621004,0.4,1.0,1.0,343.0,713.0,1.0,1,144.0,1
1066,1066,-0.783845882054347,-0.8,1.0,0.0,321.0,885.0,0.0,0,174.0,1
1067,1067,-0.08781926720406241,-0.1,0.0,1.0,416.0,711.0,1.0,0,473.0,1
1068,1068,-0.5854160624850955,-0.6,0.0,1.0,291.0,662.0,1.0,0,347.0,1
1069,1069,-0.7253207914900964,-0.7,1.0,0.0,435.0,500.0,0.0,0,205.0,1
1070,1070,0.6053567696348953,0.6,1.0,1.0,294.0,632.0,1.0,1,364.0,1
1071,1071,-0.2106498454723219,-0.2,1.0,0.0,361.0,522.0,0.0,0,827.0,1
1072,1072,0.6813187485740796,0.7,1.0,1.0,448.0,992.0,1.0,1,140.0,1
1073,1073,-0.270019944042191,-0.3,1.0,0.0,449.0,705.0,0.0,0,396.0,1
1074,1074,0.36532102633740193,0.4,1.0,1.0,370.0,639.0,1.0,1,201.0,1
1075,1075,-0.6103595035837506,-0.6,1.0,0.0,356.0,797.0,0.0,0,177.0,1
1076,1076,-0.5042930794782146,-0.5,0.0,1.0,491.0,521.0,1.0,0,508.0,1
1077,1077,0.2088181483859065,0.2,0.0,0.0,391.0,929.0,0.0,1,530.0,1
1078,1078,-0.3734134036344271,-0.4,0.0,1.0,349.0,944.0,1.0,0,227.0,1
1079,1079,-0.8227795112212732,-0.8,0.0,1.0,446.0,570.0,1.0,0,314.0,1
1080,1080,0.7755412642878315,0.8,0.0,0.0,317.0,823.0,0.0,1,230.0,1
1081,1081,-0.06432967436666448,-0.1,1.0,0.0,475.0,740.0,0.0,0,635.0,1
1082,1082,0.8211396357370998,0.8,1.0,1.0,315.0,836.0,1.0,1,119.0,1
1083,1083,-0.7093129153839963,-0.7,0.0,1.0,250.0,714.0,1.0,0,126.0,1
1084,1084,0.41832918128840235,0.4,1.0,1.0,382.0,940.0,1.0,1,48.0,1
1085,1085,-0.44465376112764865,-0.4,1.0,0.0,428.0,624.0,0.0,0,498.0,1
1086,1086,-0.23430577974318378,-0.2,1.0,0.0,427.0,619.0,0.0,0,314.0,1
1087,1087,0.7868482379419935,0.8,0.0,0.0,297.0,635.0,0.0,1,158.0,1
1088,1088,-0.577357865966817,-0.6,0.0,1.0,363.0,623.0,1.0,0,264.0,1
1089,1089,-0.40773804762674287,-0.4,1.0,0.0,377.0,727.0,0.0,0,486.0,1
1090,1090,-0.5478553122861527,-0.5,1.0,0.0,273.0,785.0,0.0,0,302.0,1
1091,1091,0.3856546784732612,0.4,0.0,0.0,477.0,854.0,0.0,1,79.0,1
1092,1092,0.8338068083308833,0.8,1.0,1.0,445.0,637.0,1.0,1,148.0,1
1093,1093,-0.6580744921484425,-0.7,1.0,0.0,476.0,613.0,0.0,0,261.0,1
1094,1094,0.6283243249925864,0.6,1.0,1.0,484.0,928.0,1.0,1,118.0,1
1095,1095,0.18779056079927725,0.2,0.0,0.0,271.0,586.0,0.0,1,393.0,1
1096,1096,0.3973978260608809,0.4,0.0,0.0,451.0,809.0,0.0,1,230.0,1
1097,1097,0.31306803088874113,0.3,0.0,0.0,454.0,870.0,0.0,1,146.0,1
1098,1098,-0.3487658784963308,-0.3,1.0,0.0,480.0,813.0,0.0,0,557.0,1
1099,1099,0.8941289850553097,0.9,1.0,1.0,311.0,865.0,1.0,1,14.0,1
1100,1100,0.2366631546059782,0.2,0.0,0.0,445.0,516.0,0.0,1,569.0,1
1101,1101,-0.42054328134266467,-0.4,1.0,0.0,414.0,716.0,0.0,0,170.0,1
1102,1102,0.5671003453763538,0.6,1.0,1.0,258.0,583.0,1.0,1,229.0,1
1103,1103,-0.537385090890149,-0.5,1.0,0.0,257.0,512.0,0.0,0,391.0,1
1104,1104,0.7080517788746131,0.7,0.0,0.0,316.0,854.0,0.0,1,250.0,1
1105,1105,0.8016482329901019,0.8,0.0,0.0,259.0,627.0,0.0,1,234.0,1
1106,1106,-0.6791088503885849,-0.7,0.0,1.0,341.0,892.0,1.0,0,167.0,1
1107,1107,-0.16945455440678991,-0.2,1.0,0.0,258.0,526.0,0.0,0,516.0,1
1108,1108,-0.7069093378554223,-0.7,1.0,0.0,302.0,904.0,0.0,0,204.0,1
1109,1109,0.8748047488990748,0.9,0.0,0.0,457.0,536.0,0.0,1,227.0,1
1110,1110,0.677666125344509,0.7,0.0,0.0,376.0,754.0,0.0,1,250.0,1
1111,1111,0.7130430298308165,0.7,0.0,0.0,412.0,544.0,0.0,1,244.0,1
1112,1112,-0.011798491688019608,-0.0,1.0,0.0,361.0,656.0,1.0,1,1983.0,0
1113,1113,0.021241313177559507,0.0,1.0,1.0,467.0,794.0,1.0,1,1739.0,1
1114,1114,0.772070556654319,0.8,0.0,0.0,371.0,627.0,0.0,1,212.0,1
1115,1115,0.6872514667512913,0.7,0.0,0.0,255.0,504.0,0.0,1,251.0,1
1116,1116,-0.3161750371097457,-0.3,0.0,1.0,434.0,711.0,1.0,0,295.0,1
1117,1117,-0.2786800318446301,-0.3,1.0,0.0,311.0,933.0,0.0,0,336.0,1
1118,1118,-0.6113750482669043,-0.6,1.0,0.0,289.0,706.0,0.0,0,325.0,1
1119,1119,-0.31703649778175,-0.3,0.0,1.0,262.0,603.0,1.0,0,335.0,1
1120,1120,0.2284550168370173,0.2,0.0,0.0,268.0,728.0,0.0,1,154.0,1
1121,1121,0.6180108810030486,0.6,0.0,0.0,486.0,677.0,0.0,1,237.0,1
1122,1122,-0.6308771716146236,-0.6,1.0,0.0,411.0,652.0,0.0,0,167.0,1
1123,1123,-0.5152759733264545,-0.5,0.0,1.0,488.0,684.0,1.0,0,218.0,1
1124,1124,0.06148825181360129,0.1,1.0,1.0,488.0,598.0,1.0,1,664.0,1
1125,1125,0.030281815957065805,0.0,1.0,1.0,398.0,913.0,1.0,1,1689.0,1
1126,1126,0.8972571675102915,0.9,1.0,1.0,388.0,988.0,1.0,1,264.0,1
1127,1127,0.8708229363226446,0.9,1.0,1.0,251.0,669.0,1.0,1,170.0,1
1128,1128,0.6788221538571454,0.7,0.0,0.0,360.0,710.0,0.0,1,70.0,1
1129,1129,-0.17438420521264042,-0.2,1.0,0.0,328.0,743.0,0.0,0,439.0,1
1130,1130,0.693259338646444,0.7,1.0,1.0,383.0,856.0,1.0,1,151.0,1
1131,1131,-0.6906897128159817,-0.7,1.0,0.0,443.0,572.0,0.0,0,335.0,1
1132,1132,-0.8450591295294849,-0.8,1.0,0.0,335.0,530.0,0.0,0,925.0,1
1133,1133,0.8904783770307146,0.9,1.0,1.0,420.0,891.0,1.0,1,319.0,1
1134,1134,-0.6328844847291065,-0.6,1.0,0.0,311.0,804.0,0.0,0,215.0,1
1135,1135,0.8231835201549623,0.8,0.0,0.0,405.0,800.0,0.0,1,195.0,1
1136,1136,0.8174413559899499,0.8,0.0,0.0,328.0,832.0,0.0,1,190.0,1
1137,1137,-0.7930878930434663,-0.8,0.0,1.0,405.0,500.0,1.0,0,255.0,1
1138,1138,-0.44481022564567413,-0.4,0.0,1.0,436.0,709.0,1.0,0,245.0,1
1139,1139,0.46408939929179394,0.5,1.0,1.0,409.0,508.0,1.0,1,253.0,1
1140,1140,0.037968038545033944,0.0,1.0,1.0,464.0,836.0,1.0,1,1700.0,1
1141,1141,0.27821575838820645,0.3,1.0,1.0,329.0,980.0,1.0,1,101.0,1
1142,1142,-0.6397345944198891,-0.6,1.0,0.0,472.0,881.0,0.0,0,267.0,1
1143,1143,-0.8643731068963232,-0.9,0.0,1.0,343.0,961.0,1.0,0,326.0,1
1144,1144,-0.7634204141992994,-0.8,1.0,0.0,372.0,674.0,0.0,0,294.0,1
1145,1145,-0.6993797089043055,-0.7,1.0,0.0,483.0,745.0,0.0,0,162.0,1
1146,1146,0.1661879777296399,0.2,0.0,0.0,264.0,522.0,0.0,1,484.0,1
1147,1147,0.620351746734824,0.6,1.0,1.0,355.0,715.0,1.0,1,170.0,1
1148,1148,0.6047910769709163,0.6,1.0,1.0,312.0,842.0,1.0,1,146.0,1
1149,1149,-0.06322643620656643,-0.1,0.0,1.0,438.0,746.0,1.0,0,1816.0,1
1150,1150,-0.07148243186445524,-0.1,0.0,1.0,389.0,945.0,1.0,0,406.0,1
1151,1151,0.5322579974157605,0.5,1.0,1.0,471.0,866.0,1.0,1,43.0,1
1152,1152,0.19491854122714292,0.2,0.0,0.0,310.0,953.0,0.0,1,217.0,1
1153,1153,0.8421313444856023,0.8,1.0,1.0,335.0,593.0,1.0,1,302.0,1
1154,1154,-0.6687201291330886,-0.7,1.0,0.0,309.0,767.0,0.0,0,84.0,1
1155,1155,-0.58453916735726,-0.6,0.0,1.0,462.0,977.0,1.0,0,51.0,1
1156,1156,-0.6422831509579588,-0.6,1.0,0.0,314.0,704.0,0.0,0,322.0,1
1157,1157,0.1537978296155712,0.2,1.0,1.0,380.0,912.0,1.0,1,118.0,1
1158,1158,-0.5519633182870141,-0.6,0.0,1.0,287.0,575.0,1.0,0,308.0,1
1159,1159,0.2855321017346836,0.3,0.0,0.0,301.0,839.0,0.0,1,220.0,1
1160,1160,0.4230788202604129,0.4,1.0,1.0,260.0,522.0,1.0,1,188.0,1
1161,1161,0.6549930455756495,0.7,0.0,0.0,254.0,619.0,0.0,1,167.0,1
1162,1162,0.2861763471446387,0.3,0.0,0.0,364.0,742.0,0.0,1,224.0,1
1163,1163,0.27210493691692517,0.3,1.0,1.0,335.0,570.0,1.0,1,605.0,1
1164,1164,0.010243538166480493,0.0,0.0,0.0,490.0,688.0,0.0,1,802.0,1
1165,1165,-0.6331655496917437,-0.6,1.0,0.0,274.0,572.0,0.0,0,274.0,1
1166,1166,-0.8284921084469195,-0.8,1.0,0.0,284.0,655.0,0.0,0,191.0,1
1167,1167,0.1150425778143861,0.1,1.0,1.0,272.0,741.0,1.0,1,377.0,1
1168,1168,0.5534449142865941,0.6,1.0,1.0,455.0,731.0,1.0,1,184.0,1
1169,1169,0.1237836573436909,0.1,1.0,1.0,298.0,847.0,1.0,1,315.0,1
1170,1170,-0.28355077799962025,-0.3,1.0,0.0,463.0,670.0,0.0,0,1037.0,1
1171,1171,0.3900309378361878,0.4,0.0,0.0,376.0,949.0,0.0,1,215.0,1
1172,1172,-0.7958940962609407,-0.8,0.0,1.0,264.0,537.0,1.0,0,159.0,1
1173,1173,-0.46956065985356044,-0.5,0.0,1.0,451.0,870.0,1.0,0,99.0,1
1174,1174,0.7075600167486512,0.7,1.0,1.0,418.0,700.0,1.0,1,132.0,1
1175,1175,0.32447698375201817,0.3,0.0,0.0,384.0,756.0,0.0,1,350.0,1
1176,1176,0.5142667370333723,0.5,1.0,1.0,272.0,570.0,1.0,1,258.0,1
1177,1177,0.27152315698864526,0.3,0.0,0.0,323.0,771.0,0.0,1,266.0,1
1178,1178,-0.8916615278093168,-0.9,1.0,0.0,326.0,870.0,0.0,0,924.0,1
1179,1179,-0.5335588463098964,-0.5,0.0,1.0,284.0,693.0,1.0,0,563.0,1
1180,1180,-0.23106765247026895,-0.2,0.0,1.0,393.0,993.0,1.0,0,234.0,1
1181,1181,0.5017777209085422,0.5,1.0,1.0,496.0,976.0,1.0,1,178.0,1
1182,1182,0.45208614440274564,0.5,0.0,0.0,311.0,818.0,0.0,1,121.0,1
1183,1183,0.5110941409772293,0.5,0.0,0.0,414.0,576.0,0.0,1,600.0,1
1184,1184,0.5393455747390862,0.5,0.0,0.0,475.0,688.0,0.0,1,287.0,1
1185,1185,0.40148652994795075,0.4,0.0,0.0,449.0,727.0,0.0,1,204.0,1
1186,1186,-0.10041867934741455,-0.1,0.0,1.0,339.0,700.0,1.0,0,591.0,1
1187,1187,0.2803868189483586,0.3,0.0,0.0,484.0,625.0,0.0,1,311.0,1
1188,1188,0.384045818536051,0.4,1.0,1.0,452.0,691.0,1.0,1,177.0,1
1189,1189,0.2339538615935749,0.2,0.0,0.0,313.0,905.0,0.0,1,322.0,1
1190,1190,0.5469470278227407,0.5,0.0,0.0,485.0,903.0,0.0,1,392.0,1
1191,1191,0.8208219944859733,0.8,1.0,1.0,443.0,847.0,1.0,1,110.0,1
1192,1192,0.7975680291685788,0.8,1.0,1.0,306.0,736.0,1.0,1,238.0,1
1193,1193,0.1619129407026213,0.2,1.0,1.0,343.0,589.0,1.0,1,468.0,1
1194,1194,0.04443868023095632,0.0,0.0,0.0,499.0,643.0,0.0,1,238.0,1
1195,1195,0.3369149241848003,0.3,0.0,0.0,316.0,664.0,0.0,1,260.0,1
1196,1196,-0.2850520568275916,-0.3,0.0,1.0,369.0,697.0,1.0,0,394.0,1
1197,1197,0.17301638550354237,0.2,0.0,0.0,368.0,565.0,0.0,1,547.0,1
1198,1198,0.6152978153554384,0.6,0.0,0.0,377.0,551.0,0.0,1,272.0,1
1199,1199,0.8615339753091326,0.9,1.0,1.0,487.0,551.0,1.0,1,132.0,1
1200,1200,0.6001662913525921,0.6,1.0,1.0,265.0,983.0,1.0,1,142.0,1
1201,1201,-0.23767132762507093,-0.2,1.0,0.0,259.0,547.0,0.0,0,534.0,1
1202,1202,0.03374710748641807,0.0,1.0,1.0,488.0,747.0,1.0,1,575.0,1
1203,1203,-0.08148202967910823,-0.1,1.0,0.0,353.0,546.0,0.0,0,931.0,1
1204,1204,0.162274928298917,0.2,0.0,0.0,272.0,863.0,0.0,1,305.0,1
1205,1205,0.2870101586390513,0.3,0.0,0.0,305.0,779.0,0.0,1,176.0,1
1206,1206,-0.7097902146694497,-0.7,0.0,1.0,474.0,664.0,1.0,0,242.0,1
1207,1207,-0.17799989648869807,-0.2,1.0,0.0,319.0,646.0,0.0,0,395.0,1
1208,1208,0.7641887869750698,0.8,0.0,0.0,316.0,857.0,0.0,1,257.0,1
1209,1209,0.636873821006562,0.6,1.0,1.0,260.0,886.0,1.0,1,84.0,1
1210,1210,-0.43024755659006736,-0.4,1.0,0.0,316.0,685.0,0.0,0,249.0,1
1211,1211,-0.2678960320182795,-0.3,1.0,0.0,265.0,577.0,0.0,0,1408.0,1
1212,1212,0.4850888534151835,0.5,0.0,0.0,448.0,886.0,0.0,1,136.0,1
1213,1213,0.4531768481368631,0.5,0.0,0.0,473.0,739.0,0.0,1,238.0,1
1214,1214,-0.8109964127463644,-0.8,0.0,1.0,370.0,711.0,1.0,0,259.0,1
1215,1215,0.5650872527875982,0.6,1.0,1.0,487.0,881.0,1.0,1,172.0,1
1216,1216,-0.3369985567865603,-0.3,1.0,0.0,363.0,770.0,0.0,0,217.0,1
1217,1217,-0.5053441123047135,-0.5,1.0,0.0,352.0,727.0,0.0,0,181.0,1
1218,1218,-0.6689208866321592,-0.7,0.0,1.0,476.0,775.0,1.0,0,79.0,1
1219,1219,-0.8259306069563064,-0.8,1.0,0.0,415.0,799.0,0.0,0,246.0,1
1220,1220,-0.30290929792837773,-0.3,0.0,1.0,449.0,871.0,1.0,0,330.0,1
1221,1221,-0.7005010301666474,-0.7,1.0,0.0,313.0,615.0,0.0,0,272.0,1
1222,1222,-0.5180233823254774,-0.5,0.0,1.0,290.0,785.0,1.0,0,165.0,1
1223,1223,-0.615441811364111,-0.6,1.0,0.0,464.0,605.0,0.0,0,311.0,1
1224,1224,0.8259787802813617,0.8,1.0,1.0,423.0,579.0,1.0,1,138.0,1
1225,1225,-0.6973324082055162,-0.7,1.0,0.0,455.0,935.0,0.0,0,80.0,1
1226,1226,-0.2874734028556942,-0.3,1.0,0.0,380.0,926.0,0.0,0,204.0,1
1227,1227,0.05610457521610401,0.1,0.0,0.0,270.0,751.0,0.0,1,469.0,1
1228,1228,0.14869497017588007,0.1,0.0,0.0,411.0,908.0,0.0,1,191.0,1
1229,1229,0.8548373113947109,0.9,1.0,1.0,447.0,546.0,1.0,1,137.0,1
1230,1230,-0.7585447499315846,-0.8,0.0,1.0,297.0,557.0,1.0,0,356.0,1
1231,1231,-0.7625843864803508,-0.8,1.0,0.0,499.0,758.0,0.0,0,193.0,1
1232,1232,-0.8633683221102879,-0.9,1.0,0.0,311.0,981.0,0.0,0,118.0,1
1233,1233,-0.8269594799578224,-0.8,1.0,0.0,315.0,521.0,0.0,0,324.0,1
1234,1234,-0.7946044327244057,-0.8,1.0,0.0,382.0,645.0,0.0,0,73.0,1
1235,1235,0.2182704264783094,0.2,1.0,1.0,493.0,837.0,1.0,1,340.0,1
1236,1236,0.5833619800742281,0.6,0.0,0.0,496.0,913.0,0.0,1,91.0,1
1237,1237,0.2227244559878213,0.2,0.0,0.0,250.0,759.0,0.0,1,141.0,1
1238,1238,-0.40399820032341366,-0.4,1.0,0.0,361.0,715.0,0.0,0,364.0,1
1239,1239,0.810710452712086,0.8,1.0,1.0,251.0,805.0,1.0,1,174.0,1
1240,1240,0.1976698488877472,0.2,1.0,1.0,476.0,635.0,1.0,1,289.0,1
1241,1241,0.8127690192482119,0.8,0.0,0.0,265.0,613.0,0.0,1,292.0,1
1242,1242,0.4720300290047853,0.5,0.0,0.0,260.0,882.0,0.0,1,238.0,1
1243,1243,-0.7140572915747149,-0.7,1.0,0.0,467.0,769.0,0.0,0,114.0,1
1244,1244,-0.21845978761818063,-0.2,1.0,0.0,298.0,707.0,0.0,0,675.0,1
1245,1245,-0.7369177107672812,-0.7,1.0,0.0,409.0,569.0,0.0,0,242.0,1
1246,1246,-0.4387146558506218,-0.4,0.0,1.0,287.0,761.0,1.0,0,232.0,1
1247,1247,-0.22203222510282772,-0.2,0.0,1.0,314.0,977.0,1.0,0,119.0,1
1248,1248,0.2138064743612932,0.2,0.0,0.0,409.0,798.0,0.0,1,433.0,1
1249,1249,0.739047024895478,0.7,1.0,1.0,338.0,943.0,1.0,1,69.0,1
1250,1250,0.4152943082153543,0.4,0.0,0.0,251.0,570.0,0.0,1,299.0,1
1251,1251,0.022035587498313247,0.0,0.0,0.0,345.0,942.0,0.0,1,523.0,1
1252,1252,-0.41934483886132623,-0.4,0.0,1.0,472.0,908.0,1.0,0,90.0,1
1253,1253,0.7685190213831518,0.8,1.0,1.0,285.0,845.0,1.0,1,150.0,1
1254,1254,-0.09488703502838391,-0.1,1.0,0.0,431.0,696.0,0.0,0,1163.0,1
1255,1255,-0.654412617061034,-0.7,0.0,1.0,284.0,587.0,1.0,0,209.0,1
1256,1256,-0.4592606595615309,-0.5,1.0,0.0,339.0,754.0,0.0,0,177.0,1
1257,1257,-0.06434223502652092,-0.1,1.0,0.0,422.0,988.0,0.0,0,430.0,1
1258,1258,-0.16498463327012003,-0.2,0.0,1.0,419.0,823.0,1.0,0,168.0,1
1259,1259,-0.5847161155938629,-0.6,1.0,0.0,361.0,838.0,0.0,0,141.0,1
1260,1260,-0.6184813233847097,-0.6,0.0,1.0,316.0,732.0,1.0,0,392.0,1
1261,1261,0.237398432973548,0.2,0.0,0.0,426.0,788.0,0.0,1,636.0,1
1262,1262,0.7730602162276886,0.8,0.0,0.0,364.0,936.0,0.0,1,100.0,1
1263,1263,0.17350998195697376,0.2,1.0,1.0,315.0,999.0,1.0,1,206.0,1
1264,1264,-0.7187145396446951,-0.7,0.0,1.0,354.0,763.0,1.0,0,113.0,1
1265,1265,0.5960076459364548,0.6,1.0,1.0,362.0,541.0,1.0,1,257.0,1
1266,1266,0.42094556536065053,0.4,1.0,1.0,429.0,746.0,1.0,1,185.0,1
1267,1267,-0.36834522362164424,-0.4,0.0,1.0,386.0,891.0,1.0,0,283.0,1
1268,1268,0.06540296548710844,0.1,0.0,0.0,297.0,537.0,0.0,1,346.0,1
1269,1269,0.346319364787986,0.3,0.0,0.0,449.0,789.0,0.0,1,402.0,1
1270,1270,-0.21678500012849777,-0.2,1.0,0.0,451.0,916.0,0.0,0,223.0,1
1271,1271,-0.20095643123848406,-0.2,1.0,0.0,473.0,760.0,0.0,0,667.0,1
1272,1272,-0.3238270855611859,-0.3,0.0,1.0,252.0,661.0,1.0,0,217.0,1
1273,1273,-0.38473282925252794,-0.4,1.0,0.0,385.0,548.0,0.0,0,237.0,1
1274,1274,0.32106986623448563,0.3,0.0,0.0,251.0,611.0,0.0,1,308.0,1
1275,1275,0.6133462636709016,0.6,0.0,0.0,324.0,564.0,0.0,1,242.0,1
1276,1276,-0.4109980300562158,-0.4,0.0,1.0,305.0,996.0,1.0,0,389.0,1
1277,1277,-0.5132418229526792,-0.5,0.0,1.0,498.0,799.0,1.0,0,113.0,1
1278,1278,-0.6294077562765956,-0.6,1.0,0.0,370.0,848.0,0.0,0,232.0,1
1279,1279,-0.2235064121516096,-0.2,1.0,0.0,489.0,692.0,0.0,0,329.0,1
1280,1280,0.23415777935434623,0.2,1.0,1.0,309.0,531.0,1.0,1,360.0,1
1281,1281,0.4511049075875472,0.5,0.0,0.0,311.0,899.0,0.0,1,80.0,1
1282,1282,-0.4371963689055622,-0.4,1.0,0.0,290.0,860.0,0.0,0,110.0,1
1283,1283,0.8031502045764097,0.8,1.0,1.0,299.0,803.0,1.0,1,88.0,1
1284,1284,-0.08275214172123413,-0.1,0.0,1.0,257.0,893.0,0.0,1,-20.0,0
1285,1285,-0.7360610243303785,-0.7,1.0,0.0,351.0,972.0,0.0,0,297.0,1
1286,1286,-0.4846192829236609,-0.5,0.0,1.0,406.0,971.0,1.0,0,73.0,1
1287,1287,-0.23620557318831303,-0.2,1.0,0.0,421.0,530.0,0.0,0,339.0,1
1288,1288,0.8498917507001923,0.8,1.0,1.0,277.0,584.0,1.0,1,369.0,1
1289,1289,-0.24019678841371994,-0.2,0.0,1.0,463.0,563.0,1.0,0,364.0,1
1290,1290,-0.02117153525680404,-0.0,0.0,1.0,347.0,883.0,1.0,0,1770.0,1
1291,1291,-0.15215821824825226,-0.2,1.0,0.0,381.0,621.0,0.0,0,468.0,1
1292,1292,0.06132061840992853,0.1,1.0,1.0,392.0,853.0,1.0,1,475.0,1
1293,1293,-0.1497383880731442,-0.1,1.0,0.0,415.0,632.0,0.0,0,503.0,1
1294,1294,-0.02144840646376367,-0.0,0.0,1.0,425.0,841.0,1.0,0,924.0,1
1295,1295,-0.5161081613401557,-0.5,1.0,0.0,390.0,831.0,0.0,0,299.0,1
1296,1296,-0.36597722507263464,-0.4,1.0,0.0,464.0,922.0,0.0,0,304.0,1
1297,1297,0.1353953630959256,0.1,1.0,1.0,308.0,881.0,1.0,1,401.0,1
1298,1298,-0.1674912320990335,-0.2,0.0,1.0,478.0,953.0,1.0,0,299.0,1
1299,1299,0.8068291433668776,0.8,1.0,1.0,426.0,773.0,1.0,1,131.0,1
1300,1300,0.28029212355253696,0.3,0.0,0.0,378.0,608.0,0.0,1,334.0,1
1301,1301,-0.006827434252439923,-0.0,1.0,0.0,369.0,531.0,1.0,1,1990.0,0
1302,1302,0.018623114402892882,0.0,0.0,0.0,263.0,895.0,0.0,1,792.0,1
1303,1303,0.2264615208526054,0.2,0.0,0.0,321.0,793.0,0.0,1,246.0,1
1304,1304,0.8218150844326612,0.8,1.0,1.0,320.0,862.0,1.0,1,58.0,1
1305,1305,0.5220202996704463,0.5,0.0,0.0,433.0,508.0,0.0,1,259.0,1
1306,1306,-0.022359336502084215,-0.0,1.0,0.0,457.0,961.0,1.0,1,392.0,0
1307,1307,0.33275969107532777,0.3,0.0,0.0,310.0,837.0,0.0,1,173.0,1
1308,1308,0.1491360211822116,0.1,0.0,0.0,471.0,768.0,0.0,1,541.0,1
1309,1309,-0.5327513398245293,-0.5,1.0,0.0,374.0,529.0,0.0,0,507.0,1
1310,1310,-0.8645472017656486,-0.9,0.0,1.0,333.0,639.0,1.0,0,238.0,1
1311,1311,0.43757292747387033,0.4,1.0,1.0,320.0,984.0,1.0,1,56.0,1
1312,1312,0.43784167345421066,0.4,1.0,1.0,304.0,823.0,1.0,1,193.0,1
1313,1313,0.2832153383201318,0.3,0.0,0.0,388.0,762.0,0.0,1,250.0,1
1314,1314,0.406114899698773,0.4,0.0,0.0,353.0,775.0,0.0,1,212.0,1
1315,1315,-0.2416140142012505,-0.2,0.0,1.0,253.0,657.0,1.0,0,430.0,1
1316,1316,-0.5814118335225875,-0.6,0.0,1.0,341.0,519.0,1.0,0,360.0,1
1317,1317,0.8231201600476775,0.8,0.0,0.0,312.0,767.0,0.0,1,91.0,1
1318,1318,-0.4873979354372023,-0.5,1.0,0.0,276.0,912.0,1.0,1,-48.0,0
1319,1319,0.4779995752508731,0.5,1.0,1.0,441.0,923.0,1.0,1,106.0,1
1320,1320,-0.05800111006294828,-0.1,0.0,1.0,443.0,578.0,1.0,0,809.0,1
1321,1321,-0.13723915283131505,-0.1,0.0,1.0,368.0,836.0,1.0,0,576.0,1
1322,1322,-0.14246456236069804,-0.1,0.0,1.0,462.0,860.0,1.0,0,338.0,1
1323,1323,-0.5061523758395294,-0.5,0.0,1.0,469.0,656.0,1.0,0,185.0,1
1324,1324,-0.19071345625722225,-0.2,1.0,0.0,367.0,974.0,0.0,0,269.0,1
1325,1325,0.2627799378007526,0.3,1.0,1.0,285.0,686.0,1.0,1,249.0,1
1326,1326,0.6616740257205741,0.7,0.0,0.0,394.0,789.0,0.0,1,177.0,1
1327,1327,-0.2854384856352481,-0.3,1.0,0.0,344.0,772.0,0.0,0,214.0,1
1328,1328,-0.8882369151556325,-0.9,1.0,0.0,475.0,502.0,0.0,0,323.0,1
1329,1329,0.6082306922633348,0.6,1.0,1.0,261.0,548.0,1.0,1,251.0,1
1330,1330,0.6096927105264117,0.6,0.0,0.0,498.0,558.0,0.0,1,134.0,1
1331,1331,-0.8701469314570981,-0.9,1.0,0.0,282.0,614.0,0.0,0,254.0,1
1332,1332,-0.08884552133439794,-0.1,0.0,1.0,437.0,663.0,1.0,0,520.0,1
1333,1333,0.23588797003758655,0.2,1.0,1.0,380.0,868.0,1.0,1,412.0,1
1334,1334,-0.4269248132201559,-0.4,0.0,1.0,301.0,831.0,1.0,0,288.0,1
1335,1335,-0.5444296970175126,-0.5,1.0,0.0,386.0,681.0,0.0,0,223.0,1
1336,1336,-0.07997977409194468,-0.1,0.0,1.0,264.0,937.0,1.0,0,239.0,1
1337,1337,0.3996958530259288,0.4,1.0,1.0,391.0,528.0,1.0,1,361.0,1
1338,1338,-0.7325149237593296,-0.7,1.0,0.0,463.0,839.0,0.0,0,268.0,1
1339,1339,0.3370244749544439,0.3,0.0,0.0,436.0,869.0,0.0,1,195.0,1
1340,1340,0.6438039309745537,0.6,1.0,1.0,439.0,731.0,1.0,1,140.0,1
1341,1341,0.2700429719423584,0.3,1.0,1.0,399.0,914.0,1.0,1,67.0,1
1342,1342,-0.10784312615097769,-0.1,1.0,0.0,417.0,755.0,0.0,0,718.0,1
1343,1343,-0.7110934463962453,-0.7,1.0,0.0,323.0,513.0,0.0,0,424.0,1
1344,1344,-0.8710662562431852,-0.9,0.0,1.0,477.0,708.0,1.0,0,175.0,1
1345,1345,0.17192932230562208,0.2,0.0,0.0,317.0,651.0,0.0,1,352.0,1
1346,1346,-0.189516264999126,-0.2,0.0,1.0,450.0,573.0,1.0,0,437.0,1
1347,1347,-0.5665689763095652,-0.6,1.0,0.0,313.0,826.0,0.0,0,111.0,1
1348,1348,0.5410367359175811,0.5,1.0,1.0,491.0,952.0,1.0,1,77.0,1
1349,1349,-0.4027480508404557,-0.4,1.0,0.0,256.0,588.0,0.0,0,236.0,1
1350,1350,-0.8606833794490064,-0.9,1.0,0.0,382.0,997.0,0.0,0,11.0,1
1351,1351,-0.6161209389642829,-0.6,1.0,0.0,348.0,778.0,0.0,0,304.0,1
1352,1352,0.6706620876404407,0.7,0.0,0.0,298.0,591.0,0.0,1,321.0,1
1353,1353,-0.3573045244481128,-0.4,0.0,1.0,297.0,521.0,1.0,0,332.0,1
1354,1354,-0.25666276400445454,-0.3,1.0,0.0,480.0,943.0,0.0,0,237.0,1
1355,1355,0.45885690205032514,0.5,1.0,1.0,272.0,719.0,1.0,1,329.0,1
1356,1356,-0.6649202726534038,-0.7,0.0,1.0,491.0,718.0,1.0,0,351.0,1
1357,1357,0.2955355331833832,0.3,1.0,1.0,482.0,894.0,1.0,1,274.0,1
1358,1358,0.7168714601643019,0.7,0.0,0.0,331.0,571.0,0.0,1,288.0,1
1359,1359,0.7970530055528561,0.8,0.0,0.0,303.0,810.0,0.0,1,307.0,1
1360,1360,0.6449090631887914,0.6,1.0,1.0,302.0,803.0,1.0,1,105.0,1
1361,1361,0.15404820375927797,0.2,0.0,0.0,388.0,598.0,0.0,1,854.0,1
1362,1362,0.3887746122696497,0.4,0.0,0.0,302.0,516.0,0.0,1,312.0,1
1363,1363,0.12671932626742233,0.1,0.0,0.0,270.0,572.0,0.0,1,358.0,1
1364,1364,0.24116714728240163,0.2,0.0,0.0,399.0,922.0,0.0,1,129.0,1
1365,1365,0.8103322925589523,0.8,0.0,0.0,444.0,566.0,0.0,1,170.0,1
1366,1366,-0.6263081390072038,-0.6,0.0,1.0,348.0,815.0,1.0,0,217.0,1
1367,1367,0.4299130897889315,0.4,1.0,1.0,422.0,653.0,1.0,1,175.0,1
1368,1368,-0.15187075180601717,-0.2,0.0,1.0,474.0,616.0,1.0,0,340.0,1
1369,1369,0.6657197509801621,0.7,1.0,1.0,427.0,854.0,1.0,1,109.0,1
1370,1370,0.06094371786740471,0.1,0.0,0.0,494.0,757.0,0.0,1,359.0,1
1371,1371,0.048037509927759126,0.0,0.0,0.0,312.0,865.0,0.0,1,503.0,1
1372,1372,-0.20268158160570904,-0.2,1.0,0.0,408.0,787.0,0.0,0,395.0,1
1373,1373,-0.7966226909054582,-0.8,1.0,0.0,305.0,906.0,0.0,0,189.0,1
1374,1374,-0.4191891192625892,-0.4,1.0,0.0,328.0,713.0,0.0,0,439.0,1
1375,1375,-0.4548561812077237,-0.5,1.0,0.0,392.0,804.0,0.0,0,244.0,1
1376,1376,0.32750917087134723,0.3,1.0,1.0,304.0,645.0,1.0,1,241.0,1
1377,1377,-0.27819282374445764,-0.3,1.0,0.0,420.0,740.0,0.0,0,190.0,1
1378,1378,-0.5503547081858964,-0.6,1.0,0.0,350.0,705.0,0.0,0,1145.0,1
1379,1379,0.8702736109716182,0.9,0.0,0.0,487.0,960.0,0.0,1,33.0,1
1380,1380,-0.10348028735347103,-0.1,1.0,0.0,424.0,979.0,0.0,0,507.0,1
1381,1381,0.31027779197274163,0.3,1.0,1.0,408.0,583.0,1.0,1,259.0,1
1382,1382,0.4818618229621662,0.5,1.0,1.0,256.0,622.0,1.0,1,272.0,1
1383,1383,0.07249511051556201,0.1,0.0,0.0,386.0,732.0,0.0,1,952.0,1
1384,1384,0.4137084984466387,0.4,0.0,0.0,356.0,859.0,0.0,1,165.0,1
1385,1385,0.21639427453825688,0.2,0.0,0.0,446.0,823.0,0.0,1,461.0,1
1386,1386,0.5917723153318682,0.6,0.0,0.0,398.0,779.0,0.0,1,163.0,1
1387,1387,0.3645112168816703,0.4,1.0,1.0,435.0,841.0,1.0,1,104.0,1
1388,1388,0.22512309018049226,0.2,1.0,1.0,449.0,567.0,1.0,1,394.0,1
1389,1389,-0.5237372990720903,-0.5,1.0,0.0,409.0,647.0,0.0,0,224.0,1
1390,1390,0.0491750952105664,0.0,0.0,0.0,487.0,615.0,0.0,1,768.0,1
1391,1391,-0.6094800150133259,-0.6,1.0,0.0,429.0,851.0,0.0,0,130.0,1
1392,1392,0.3950320802309105,0.4,1.0,1.0,279.0,830.0,1.0,1,131.0,1
1393,1393,0.13274830101052737,0.1,0.0,0.0,272.0,853.0,0.0,1,565.0,1
1394,1394,0.5051379432183013,0.5,1.0,1.0,394.0,995.0,1.0,1,71.0,1
1395,1395,-0.6978370179440507,-0.7,1.0,0.0,350.0,828.0,0.0,0,212.0,1
1396,1396,-0.7596120011221615,-0.8,1.0,0.0,470.0,510.0,0.0,0,530.0,1
1397,1397,-0.039447461873553635,-0.0,0.0,1.0,360.0,740.0,1.0,0,1900.0,1
1398,1398,-0.8247674328078941,-0.8,0.0,1.0,480.0,532.0,1.0,0,198.0,1
1399,1399,-0.7887493588461331,-0.8,1.0,0.0,423.0,705.0,0.0,0,142.0,1
1400,1400,0.0463662889842249,0.0,1.0,1.0,453.0,551.0,0.0,0,1996.0,0
1401,1401,0.32252421210635396,0.3,1.0,1.0,360.0,831.0,1.0,1,179.0,1
1402,1402,0.8042962833609498,0.8,1.0,1.0,371.0,821.0,1.0,1,198.0,1
1403,1403,-0.7746375239425585,-0.8,0.0,1.0,480.0,864.0,1.0,0,216.0,1
1404,1404,-0.12625586552306223,-0.1,1.0,0.0,278.0,973.0,0.0,0,539.0,1
1405,1405,0.25183509578643803,0.3,1.0,1.0,360.0,522.0,1.0,1,268.0,1
1406,1406,-0.2925005199852644,-0.3,0.0,1.0,347.0,578.0,1.0,0,345.0,1
1407,1407,-0.5757358556894591,-0.6,0.0,1.0,456.0,623.0,1.0,0,181.0,1
1408,1408,0.3671582393140783,0.4,1.0,1.0,332.0,658.0,1.0,1,330.0,1
1409,1409,0.32180857768658655,0.3,0.0,0.0,435.0,658.0,0.0,1,317.0,1
1410,1410,-0.3830993992203042,-0.4,0.0,1.0,304.0,943.0,1.0,0,243.0,1
1411,1411,0.13495975657421388,0.1,1.0,1.0,267.0,849.0,1.0,1,294.0,1
1412,1412,0.1600813222740175,0.2,1.0,1.0,303.0,648.0,1.0,1,379.0,1
1413,1413,-0.7770399080550874,-0.8,0.0,1.0,370.0,562.0,1.0,0,238.0,1
1414,1414,-0.29675804948705653,-0.3,1.0,0.0,354.0,705.0,0.0,0,261.0,1
1415,1415,-0.2718052821098743,-0.3,1.0,0.0,335.0,513.0,0.0,0,582.0,1
1416,1416,-0.13875382276428183,-0.1,1.0,0.0,378.0,675.0,0.0,0,527.0,1
1417,1417,-0.3604815813809702,-0.4,1.0,0.0,330.0,738.0,0.0,0,212.0,1
1418,1418,-0.8815768671623547,-0.9,0.0,1.0,270.0,660.0,1.0,0,270.0,1
1419,1419,0.3380019490781937,0.3,0.0,0.0,411.0,602.0,0.0,1,257.0,1
1420,1420,0.490800116425511,0.5,0.0,0.0,477.0,542.0,0.0,1,241.0,1
1421,1421,-0.8998538397522859,-0.9,1.0,0.0,252.0,968.0,0.0,0,90.0,1
1422,1422,0.899656179796588,0.9,0.0,0.0,437.0,526.0,0.0,1,257.0,1
1423,1423,-0.4233327443463537,-0.4,0.0,1.0,344.0,831.0,1.0,0,45.0,1
1424,1424,0.6655845286546199,0.7,0.0,0.0,317.0,726.0,0.0,1,187.0,1
1425,1425,0.2683949386644734,0.3,0.0,0.0,486.0,691.0,0.0,1,353.0,1
1426,1426,-0.5912450316498641,-0.6,1.0,0.0,299.0,821.0,0.0,0,230.0,1
1427,1427,-0.7439967547563612,-0.7,1.0,0.0,461.0,571.0,0.0,0,478.0,1
1428,1428,-0.0682553015978028,-0.1,0.0,1.0,393.0,642.0,1.0,0,545.0,1
1429,1429,-0.8803209979843609,-0.9,0.0,1.0,380.0,504.0,1.0,0,276.0,1
1430,1430,0.8480616221486522,0.8,0.0,0.0,286.0,630.0,0.0,1,324.0,1
1431,1431,-0.31171493193029065,-0.3,1.0,0.0,298.0,667.0,0.0,0,205.0,1
1432,1432,-0.4352104415792706,-0.4,1.0,0.0,358.0,818.0,0.0,0,234.0,1
1433,1433,-0.22049802276109853,-0.2,1.0,0.0,252.0,713.0,0.0,0,485.0,1
1434,1434,0.6480966826677771,0.6,1.0,1.0,438.0,717.0,1.0,1,285.0,1
1435,1435,0.42802128371821235,0.4,0.0,0.0,277.0,730.0,0.0,1,143.0,1
1436,1436,0.6212323386466029,0.6,1.0,1.0,460.0,942.0,1.0,1,98.0,1
1437,1437,-0.8763386155935092,-0.9,0.0,1.0,370.0,522.0,1.0,0,358.0,1
1438,1438,-0.6673855771240292,-0.7,0.0,1.0,409.0,527.0,1.0,0,254.0,1
1439,1439,0.28927871140369465,0.3,0.0,0.0,278.0,940.0,0.0,1,122.0,1
1440,1440,0.26430310662236434,0.3,0.0,0.0,338.0,732.0,0.0,1,170.0,1
1441,1441,-0.05249379945472221,-0.1,1.0,0.0,273.0,827.0,0.0,0,500.0,1
1442,1442,0.05716087192825092,0.1,0.0,0.0,261.0,685.0,0.0,1,184.0,1
1443,1443,0.7473747744878868,0.7,0.0,0.0,305.0,934.0,1.0,0,-9.0,0
1444,1444,0.8706614016633695,0.9,1.0,1.0,462.0,652.0,1.0,1,226.0,1
1445,1445,0.5217738210629989,0.5,0.0,0.0,361.0,885.0,0.0,1,64.0,1
1446,1446,0.8448538081237843,0.8,0.0,0.0,251.0,614.0,0.0,1,185.0,1
1447,1447,0.22661357878899924,0.2,1.0,1.0,487.0,747.0,1.0,1,316.0,1
1448,1448,0.7682923549747666,0.8,0.0,0.0,391.0,847.0,0.0,1,222.0,1
1449,1449,0.4028921073303645,0.4,1.0,1.0,302.0,921.0,1.0,1,157.0,1
1450,1450,0.4503090507793105,0.5,1.0,1.0,474.0,972.0,1.0,1,34.0,1
1451,1451,0.12065879346768182,0.1,0.0,0.0,451.0,688.0,0.0,1,351.0,1
1452,1452,0.44732425805248754,0.4,1.0,1.0,290.0,721.0,1.0,1,149.0,1
1453,1453,0.8397764447706778,0.8,1.0,1.0,468.0,777.0,1.0,1,225.0,1
1454,1454,0.7143960105121586,0.7,1.0,1.0,495.0,750.0,1.0,1,245.0,1
1455,1455,0.37577842445717613,0.4,0.0,0.0,283.0,961.0,0.0,1,506.0,1
1456,1456,0.11008005799023846,0.1,0.0,0.0,445.0,587.0,0.0,1,668.0,1
1457,1457,-0.1437126222860987,-0.1,1.0,0.0,354.0,539.0,0.0,0,577.0,1
1458,1458,0.7105755225940352,0.7,0.0,0.0,351.0,620.0,0.0,1,359.0,1
1459,1459,-0.39311204821115253,-0.4,0.0,1.0,260.0,790.0,1.0,0,240.0,1
1460,1460,0.4820203831016884,0.5,0.0,0.0,281.0,885.0,0.0,1,134.0,1
1461,1461,0.2473892013891229,0.2,1.0,1.0,434.0,967.0,1.0,1,79.0,1
1462,1462,-0.4395498424829397,-0.4,0.0,1.0,314.0,563.0,1.0,0,323.0,1
1463,1463,0.17419134270816083,0.2,0.0,0.0,315.0,929.0,0.0,1,376.0,1
1464,1464,-0.30420260675822997,-0.3,1.0,0.0,396.0,516.0,0.0,0,218.0,1
1465,1465,0.7167230372738297,0.7,1.0,1.0,352.0,965.0,1.0,1,83.0,1
1466,1466,-0.6617200388208845,-0.7,1.0,0.0,321.0,837.0,0.0,0,112.0,1
1467,1467,-0.43814181534305435,-0.4,0.0,1.0,386.0,972.0,1.0,0,402.0,1
1468,1468,0.21237348658946564,0.2,1.0,1.0,490.0,903.0,1.0,1,217.0,1
1469,1469,-0.5541528289470068,-0.6,1.0,0.0,330.0,518.0,0.0,0,282.0,1
1470,1470,-0.8029739454047473,-0.8,0.0,1.0,264.0,881.0,1.0,0,65.0,1
1471,1471,0.36200931575970097,0.4,1.0,1.0,448.0,582.0,1.0,1,270.0,1
1472,1472,0.30634638567733485,0.3,0.0,0.0,411.0,918.0,0.0,1,-19.0,1
1473,1473,0.029016577657503873,0.0,1.0,1.0,416.0,799.0,1.0,1,835.0,1
1474,1474,0.6420642535502671,0.6,0.0,0.0,301.0,869.0,0.0,1,190.0,1
1475,1475,0.6122061485308546,0.6,1.0,1.0,315.0,900.0,1.0,1,135.0,1
1476,1476,0.8421764395296082,0.8,1.0,1.0,287.0,609.0,1.0,1,194.0,1
1477,1477,-0.4051870357514428,-0.4,0.0,1.0,479.0,502.0,1.0,0,259.0,1
1478,1478,-0.34618089341286695,-0.3,1.0,0.0,267.0,878.0,0.0,0,435.0,1
1479,1479,-0.1397590884841401,-0.1,0.0,1.0,293.0,650.0,1.0,0,677.0,1
1480,1480,0.022407530865688474,0.0,0.0,0.0,367.0,617.0,0.0,1,216.0,1
1481,1481,0.5353893412958858,0.5,1.0,1.0,400.0,570.0,1.0,1,340.0,1
1482,1482,-0.1390722828278368,-0.1,0.0,1.0,336.0,892.0,1.0,0,232.0,1
1483,1483,0.7218376166161057,0.7,1.0,1.0,434.0,719.0,1.0,1,247.0,1
1484,1484,-0.12513658403053862,-0.1,1.0,0.0,411.0,929.0,0.0,0,530.0,1
1485,1485,-0.0032389601390686584,-0.0,0.0,1.0,384.0,665.0,1.0,0,1951.0,1
1486,1486,0.8097265667248777,0.8,0.0,0.0,432.0,505.0,0.0,1,343.0,1
1487,1487,-0.37950544272562936,-0.4,0.0,1.0,367.0,939.0,1.0,0,194.0,1
1488,1488,-0.7620164745471917,-0.8,1.0,0.0,486.0,621.0,0.0,0,183.0,1
1489,1489,-0.7127672662975346,-0.7,1.0,0.0,461.0,505.0,0.0,0,374.0,1
1490,1490,-0.7580567974186369,-0.8,1.0,0.0,257.0,627.0,0.0,0,286.0,1
1491,1491,0.863867099239027,0.9,1.0,1.0,403.0,661.0,1.0,1,336.0,1
1492,1492,0.8275702572994169,0.8,1.0,1.0,424.0,758.0,1.0,1,168.0,1
1493,1493,0.31883832494086894,0.3,0.0,0.0,360.0,802.0,0.0,1,238.0,1
1494,1494,-0.484349133530114,-0.5,0.0,1.0,338.0,772.0,1.0,0,170.0,1
